programtime,ax,ay,az,gx,gy,gz,q0,q1,q2,q3
-1904.7401418685913,1984.0,1196.0,-19612.0,-24688.0,-4335.0,1007.0,0.41551761258879355,-0.8951346586274413,-0.15730779441933787,0.03651457746389296
-1904.755735874176,508.0,-3344.0,-21232.0,-20166.0,-3605.0,691.0,-0.5912007151540692,-0.7926200419662613,-0.14556211519211854,0.03235512471797216
-1904.7713074684143,-12.0,-2788.0,-20208.0,-15194.0,-5837.0,1524.0,-0.9876079618005019,-0.006752304464573703,0.1251845862474907,0.09441260264774241
-1904.7868909835815,3576.0,-84.0,-18872.0,-14572.0,-3686.0,1588.0,-0.5853996359274147,0.7834652647127681,0.1957779412512796,0.07183622320259478
-1904.8024685382843,2164.0,-1744.0,-18756.0,-15788.0,-3312.0,2740.0,0.306090557640791,0.9508238925647121,0.04515862467391623,-0.014254629732089439
-1904.8180599212646,5760.0,-4340.0,-20172.0,-15975.0,-1783.0,3711.0,0.9374442579304754,0.3061283369187044,-0.16578209973160307,-4.14117264976947e-06
-1904.8336532115936,1184.0,-9376.0,-20604.0,-10889.0,-1950.0,6892.0,0.7923506599368796,-0.45188836813365174,-0.33653622624127427,0.23392456662432543
-1904.8493478298187,2500.0,-9988.0,-17584.0,-4715.0,-1986.0,6495.0,0.3368323119677905,-0.7527384397655226,-0.2547252398995042,0.5050186997250098
-1904.8649334907532,-472.0,-3896.0,-16112.0,-1975.0,-1241.0,810.0,0.14048515265655512,-0.7568973393432111,-0.3178207840737824,0.5534982283521407
-1904.8805158138275,1304.0,-2648.0,-16156.0,-315.0,253.0,-773.0,0.1635421272810136,-0.7495177852544462,-0.3799918471812068,0.5168009851649714
-1904.8960988521576,740.0,-2888.0,-16884.0,1126.0,507.0,-1593.0,0.32088167869605894,-0.6929961352688452,-0.4198309756653738,0.49044189936373117
-1904.9117441177368,2584.0,-1384.0,-18624.0,3943.0,210.0,534.0,0.5139326514241687,-0.5774238655487756,-0.20122580410889226,0.6016336801206887
-1904.9274315834045,2740.0,4328.0,-18356.0,6213.0,-2252.0,3.0,0.682004758657589,-0.15662536709727204,0.020846563148856058,0.7140752231767528
-1904.943109512329,24.0,13824.0,-16884.0,8354.0,-1998.0,502.0,0.6144695068678632,0.3727088341327441,0.3435678749194996,0.6045464956579226
-1904.958705663681,-2664.0,24244.0,-13828.0,-1998.0,1953.0,-7225.0,0.8301071244377841,-0.044621458684534064,0.47891062208693946,0.28209165786105506
-1904.9742975234985,-324.0,3348.0,-14812.0,-6000.0,5003.0,-3396.0,0.5465989204674323,-0.5973179811118942,0.5462677924222589,0.2145515055793367
-1904.989898443222,-3556.0,-256.0,-16032.0,3029.0,1392.0,-196.0,0.6159288603646078,-0.46887805858971826,0.632974266702588,-0.011339437173561761
-1905.005534172058,-4352.0,9996.0,-15672.0,2702.0,2523.0,-7409.0,0.4697979514554916,-0.5920769893067551,0.375236886890421,-0.5365929577048673
-1905.0211517810822,-2184.0,8396.0,-15344.0,1229.0,2797.0,-5663.0,0.15376246284362374,-0.5199485242216584,0.12190693283436163,-0.8313539179596745
-1905.0367622375488,-1592.0,6476.0,-13972.0,412.0,2183.0,-3168.0,-0.07648637188322376,-0.3694946766772418,-0.021327804128094686,-0.9258340259433087
-1905.0523660182953,-372.0,5704.0,-13816.0,533.0,2406.0,-1956.0,-0.20531563058656851,-0.16902596413930168,-0.13856568320324783,-0.9539786510829456
-1905.0679743289948,-1780.0,4628.0,-15068.0,325.0,2286.0,-2305.0,-0.35083953881344915,0.04154260499383332,-0.23166112270601633,-0.906376827926487
-1905.0835499763489,-896.0,5120.0,-15424.0,1118.0,1479.0,-1605.0,-0.44187591364218426,0.15326479442083207,-0.3518813753309812,-0.8108237030509173
-1905.0991253852844,-740.0,8440.0,-15268.0,477.0,1458.0,-2725.0,-0.5751560597751088,0.31035587631640643,-0.39138776137191544,-0.6478351311777771
-1905.1147015094757,416.0,7936.0,-14340.0,-204.0,1231.0,-1648.0,-0.6107373321050223,0.43941736310104423,-0.3909788018291035,-0.5301394804189208
-1905.1302905082703,256.0,6308.0,-14656.0,-893.0,1419.0,-1548.0,-0.5879524335516576,0.5939156504174304,-0.3591160840517177,-0.41546573173401896
-1905.1458785533905,-608.0,5904.0,-15544.0,-457.0,1257.0,-891.0,-0.5515454046136129,0.6842966368467421,-0.3575358657077375,-0.31575921868167617
-1905.1615061759949,-1928.0,7060.0,-15848.0,-336.0,918.0,-1293.0,-0.5329083637943695,0.7586800347402788,-0.3122926249940755,-0.20709079423964516
-1905.1771001815796,-1440.0,7264.0,-15188.0,-493.0,982.0,-2948.0,-0.5077364039767928,0.8484356274002358,-0.1484796367466416,-0.017734928989664556
-1905.1927280426025,-1412.0,6512.0,-15020.0,-565.0,716.0,-2470.0,-0.4484926772814221,0.883693877847886,0.0034290259085227484,0.133894325721542
-1905.20831823349,-680.0,6372.0,-14704.0,-526.0,662.0,-1501.0,-0.38597910136826774,0.8862652594931947,0.08617884463348416,0.24109589349477198
-1905.223927974701,-60.0,6488.0,-14812.0,-725.0,669.0,-864.0,-0.31443478418568666,0.884457874095837,0.11451638566685314,0.32519383889885434
-1905.2395153045654,-652.0,6872.0,-14916.0,-684.0,380.0,-496.0,-0.2502916070970656,0.884714381446571,0.12262305138928183,0.37362837411840283
-1905.255117893219,-492.0,7796.0,-14844.0,-659.0,719.0,-1669.0,-0.1503145843875164,0.8459513081907224,0.21138549915737692,0.46592711944766674
-1905.270679473877,532.0,7192.0,-15096.0,-278.0,946.0,-2204.0,-0.056181071683300235,0.7540264669317219,0.3429628563088661,0.5573726343690052
-1905.286246061325,-344.0,7856.0,-14832.0,-356.0,966.0,-3263.0,0.09314229934821262,0.5856701796076631,0.5133681719999301,0.6202967618550864
-1905.3018243312836,-196.0,6648.0,-14980.0,-455.0,818.0,-2226.0,0.19597823307820816,0.42867041145856394,0.5962339700510797,0.6498763447430729
-1905.317384004593,-1428.0,6536.0,-14816.0,-717.0,846.0,-1694.0,0.2706452097177357,0.27611075575107014,0.6239523899649304,0.6791151861595109
-1905.3329498767853,-1404.0,5972.0,-15112.0,-733.0,642.0,-958.0,0.30788729231490375,0.16748568293134733,0.6146351374314069,0.7066665473040965
-1905.3485877513885,-1308.0,6848.0,-15228.0,-419.0,419.0,-1868.0,0.40083245478246726,0.02983568879633067,0.6186140962993163,0.6750998257494149
-1905.364150762558,-1432.0,5700.0,-14804.0,-581.0,289.0,-872.0,0.4360468890096041,-0.054302608114539894,0.5943529691933335,0.6735420442318898
-1905.379864692688,-1820.0,5888.0,-15084.0,-610.0,-33.0,1113.0,0.3670886665684009,-0.01773033648762582,0.5593577508889989,0.743000977499673
-1905.3954238891602,-1168.0,7080.0,-15088.0,-410.0,-314.0,1149.0,0.3053522286540813,0.04533020608103947,0.5216186047508934,0.795373635501182
-1905.4110062122345,504.0,7604.0,-15072.0,-197.0,16.0,200.0,0.2913544875718631,0.04812335529584438,0.5076910256182005,0.809349447243616
-1905.426585674286,412.0,7900.0,-14728.0,-383.0,22.0,-117.0,0.29999563574528465,0.03169360954633832,0.48166537644146107,0.8227980303727107
-1905.4421739578247,72.0,7272.0,-14412.0,-430.0,446.0,-787.0,0.33758958015532503,-0.04443722604287125,0.46315455638854397,0.8182581898207295
-1905.4577996730804,-1064.0,7384.0,-14544.0,-402.0,305.0,230.0,0.3068491524106462,-0.06866391608227966,0.44408981241825485,0.8389952936694179
-1905.4733667373657,-1156.0,7180.0,-15040.0,-463.0,981.0,-1568.0,0.375623801126116,-0.21074517511919622,0.421556411930812,0.7979871068830416
-1905.4889330863953,-2316.0,5380.0,-15420.0,169.0,-311.0,1218.0,0.30341894902557254,-0.13798361943655563,0.44309405138379,0.8322049770144999
-1905.504539012909,-1660.0,7016.0,-14800.0,-345.0,392.0,195.0,0.26955578495514515,-0.16787949030555296,0.4305380174008087,0.8448628120023655
-1905.5201172828674,-552.0,6276.0,-14948.0,215.0,-87.0,1575.0,0.15826346627479704,-0.09635260031254138,0.463242108042489,0.8666461798173742
-1905.5357129573822,40.0,7412.0,-14988.0,465.0,-193.0,1029.0,0.09164959464094513,-0.03358348542279515,0.5021608760337444,0.8592479013009167
-1905.5513331890106,88.0,7556.0,-14664.0,-1.0,54.0,906.0,0.02125617902692553,0.0020565121105687177,0.5038643040974252,0.8635187946232159
-1905.566926240921,92.0,7928.0,-14788.0,-196.0,244.0,50.0,0.0067875299031958875,-0.014483003634231387,0.48962390047042564,0.8717870199375939
-1905.582524061203,-568.0,7048.0,-14652.0,-50.0,524.0,-283.0,0.0058588351109216015,-0.06638708325990725,0.485387104718782,0.8717555780149062
-1905.5981423854828,-904.0,6816.0,-15332.0,99.0,521.0,-290.0,0.006414883342183565,-0.11812160320070159,0.491091755938072,0.8630382513994749
-1905.6137363910675,-1612.0,6720.0,-15212.0,104.0,211.0,172.0,-0.014504601552856603,-0.12660381669748672,0.5009147733943856,0.8560639461667998
-1905.6293454170227,-900.0,6556.0,-15100.0,216.0,33.0,438.0,-0.0462396440804794,-0.1101528343369656,0.5216315709335249,0.8447655015495523
-1905.6449568271637,-512.0,7184.0,-14676.0,112.0,36.0,-112.0,-0.03853892069509563,-0.11838913943041474,0.5288713578447425,0.8395200117376842
-1905.66055560112,-324.0,6644.0,-14812.0,52.0,465.0,344.0,-0.0845523122776563,-0.13662102543968266,0.5342434332168166,0.8299214155334348
-1905.676111459732,-268.0,6964.0,-14924.0,-139.0,59.0,243.0,-0.10651471121685065,-0.1285534866904104,0.5267326427484595,0.8334754587972901
-1905.6917088031769,-372.0,6660.0,-15044.0,-168.0,135.0,341.0,-0.1393005282118157,-0.12111957523961708,0.5170247246473558,0.8358294356129186
-1905.7073149681091,-640.0,7156.0,-15116.0,-311.0,-32.0,-293.0,-0.11966289020194133,-0.12819872950133956,0.4915535864915334,0.8530070047016441
-1905.7228815555573,-748.0,6780.0,-14964.0,-329.0,-328.0,-15.0,-0.10804862393560241,-0.10097903428161072,0.47020304543589514,0.8700792064886883
-1905.738448381424,-1440.0,6244.0,-15228.0,-579.0,-564.0,645.0,-0.13839271501985906,-0.026203501480863502,0.4357506928823989,0.8889781586698763
-1905.7540571689606,-432.0,6236.0,-15240.0,220.0,-1450.0,2399.0,-0.26107479807858247,0.16976394851067253,0.4623797326056095,0.8301958410338238
-1905.7696237564087,-504.0,7756.0,-13688.0,94.0,-208.0,1013.0,-0.3260305410315899,0.2226551559828664,0.45732774450107183,0.7968563872734261
-1905.7852311134338,4.0,7496.0,-14848.0,-222.0,-185.0,24.0,-0.315792604273663,0.24274452235012844,0.4468222740428855,0.8010617849917759
-1905.8008737564087,-164.0,7284.0,-14424.0,-404.0,-51.0,-87.0,-0.2988586085544561,0.2539208061700584,0.4218312582410223,0.8174754711045696
-1905.816498041153,-1096.0,7144.0,-14484.0,-264.0,130.0,-321.0,-0.27458776751602404,0.2395810001848116,0.4067113057435351,0.8377281277726085
-1905.83211684227,-1308.0,7264.0,-14824.0,-102.0,503.0,-971.0,-0.21822274424840096,0.17004894421092975,0.40592832202775125,0.8710249065561669
-1905.8477382659912,-1072.0,6676.0,-15204.0,-23.0,-96.0,-558.0,-0.17178312197347914,0.15784836169935332,0.4140699045979725,0.8798412173910137
-1905.8633382320404,-804.0,6880.0,-15076.0,-340.0,-159.0,-245.0,-0.14237284936858857,0.16619910033344115,0.3937124501995333,0.8928036387520516
-1905.8789036273956,424.0,5780.0,-15224.0,-181.0,59.0,647.0,-0.19180436137359608,0.18582295006644156,0.3691428608133173,0.8901766490406448
-1905.89448928833,-748.0,7280.0,-14952.0,30.0,-373.0,597.0,-0.22615224056454558,0.23312203151652527,0.36763251704566224,0.8714101301453379
-1905.9100379943848,-532.0,7508.0,-14652.0,-350.0,-85.0,-483.0,-0.17924702729444886,0.2307319587832058,0.3523225334228109,0.8891018495339554
-1905.9256858825684,-1076.0,7024.0,-14592.0,-191.0,44.0,-72.0,-0.17106452146380094,0.22811106899206646,0.3385000508747077,0.8967273751020862
-1905.9413630962372,-520.0,6788.0,-15024.0,-43.0,167.0,117.0,-0.18419918137995978,0.21917749877020382,0.330547564441723,0.8993165145005596
-1905.9569876194,-1240.0,7012.0,-14948.0,-83.0,-107.0,-165.0,-0.1664743310528044,0.2241641609795144,0.329146280310166,0.902052909862195
-1905.97256731987,-264.0,6464.0,-14868.0,-136.0,55.0,189.0,-0.1801692113542738,0.22726957029084108,0.3141650162096793,0.9039844801155422
-1905.989238500595,-1100.0,6908.0,-15172.0,-226.0,-340.0,287.0,-0.1887558697916603,0.2653264134947022,0.2960044662553762,0.8979724226712655
-1906.0048961639404,-324.0,6608.0,-14776.0,-2.0,-214.0,852.0,-0.24914028505936428,0.30334516754749163,0.27911077775344395,0.8763606571657531
-1906.020522594452,-640.0,7084.0,-14448.0,-189.0,-242.0,895.0,-0.3055569151980399,0.34668341054535207,0.2456745525114212,0.8521089124493496
-1906.0360972881317,-1208.0,7272.0,-14592.0,-258.0,-128.0,748.0,-0.34966804861222633,0.3783123003222716,0.20704460109251516,0.8317118445489583
-1906.0517961978912,-684.0,7484.0,-14716.0,-189.0,212.0,-176.0,-0.3342262436412058,0.3654991233224405,0.1928493325961886,0.8470610036055382
-1906.0673706531525,-732.0,6628.0,-14952.0,78.0,117.0,359.0,-0.3649087310606301,0.36057218039524314,0.18390481956658977,0.8384559249363804
-1906.082951784134,-740.0,7088.0,-15044.0,-17.0,-31.0,146.0,-0.3744160907744679,0.3658441300963277,0.17929997651874033,0.8329598921098218
-1906.0986280441284,-664.0,7088.0,-14776.0,-318.0,-201.0,510.0,-0.39747181692279004,0.39837064763703034,0.14650564002928482,0.8135435325125254
-1906.1142213344574,-592.0,6516.0,-14560.0,-193.0,-208.0,762.0,-0.4409786664162366,0.42868259901458744,0.11347521372519012,0.7803155906028525
-1906.1297953128815,-784.0,7136.0,-14672.0,56.0,-253.0,1066.0,-0.5107037622914569,0.4524395234832638,0.08696294928215301,0.725890894159541
-1906.1453847885132,-1316.0,6944.0,-15104.0,-106.0,-385.0,1194.0,-0.5756460594920085,0.48789166952282104,0.05014005856392393,0.6542776990917264
-1906.1610004901886,-1024.0,6660.0,-14376.0,-24.0,-265.0,1622.0,-0.6592075579623299,0.5063729433433952,-0.006775618507295945,0.5558650274742348
-1906.1765897274017,-448.0,6700.0,-14816.0,83.0,-562.0,2656.0,-0.77057763269726,0.5133115871519882,-0.08534693224195503,0.3680179718968639
-1906.1921782493591,452.0,7740.0,-15508.0,-416.0,-112.0,496.0,-0.7673019741659085,0.5405323744642224,-0.11319436001822476,0.3259746454208265
-1906.2078115940094,-1524.0,5944.0,-15520.0,-159.0,-1472.0,2945.0,-0.8245314293472308,0.5422020482565132,-0.15196698150167137,0.055415678452265846
-1906.2234282493591,-812.0,7484.0,-13964.0,-133.0,-378.0,815.0,-0.8244600000134236,0.5412845722106286,-0.16356665122759806,-0.02286199621230582
-1906.239016532898,-516.0,6684.0,-14972.0,-135.0,-277.0,1184.0,-0.8148759826489983,0.5307302051930709,-0.19828883498457928,-0.1224096406252735
-1906.254652261734,-864.0,7456.0,-14960.0,-180.0,-972.0,1263.0,-0.8018867915576193,0.5065309878123313,-0.18410081578868187,-0.25789692037175066
-1906.2702233791351,68.0,6916.0,-15792.0,-766.0,-570.0,1214.0,-0.7429647576146449,0.5232614371336433,-0.17917299204010761,-0.3769587195898802
-1906.2857863903046,220.0,6144.0,-15924.0,-586.0,-1277.0,1322.0,-0.6829014709814261,0.4918611514333279,-0.1357098367976295,-0.5227820089085374
-1906.3013973236084,-600.0,7676.0,-14368.0,13.0,-1290.0,1217.0,-0.6354952130043239,0.4130819262669067,-0.11053967144207341,-0.6428764558433366
-1906.3169949054718,-960.0,7932.0,-14756.0,-621.0,-962.0,259.0,-0.6045678221178372,0.38919504570696595,-0.0317451919488455,-0.6942745909544571
-1906.332587480545,-692.0,6436.0,-15152.0,-983.0,-529.0,-288.0,-0.587017805300459,0.4079829310895324,0.06500416987618274,-0.6962287570177884
-1906.3481812477112,-264.0,4964.0,-16732.0,-532.0,-1220.0,806.0,-0.5074158547962484,0.36264211921001144,0.1298948198151919,-0.770809431352162
-1906.3637900352478,720.0,6124.0,-16356.0,1150.0,-1825.0,1592.0,-0.40500541665538,0.20181405632158828,0.08077578933488691,-0.8880973882453179
-1906.3793590068817,-52.0,7664.0,-15332.0,1562.0,-2367.0,3364.0,-0.1447136055615779,-0.012111866262658094,-0.015042808109507668,-0.9892850898427531
-1906.3949327468872,-1156.0,9788.0,-14096.0,3147.0,-3794.0,3465.0,0.13520456693367267,-0.3398243771856114,-0.20841130201419364,-0.9070853581352958
-1906.4105246067047,4060.0,4028.0,-13400.0,-84.0,1774.0,-1760.0,0.025042228496726035,-0.16474691314075862,-0.2278606776381019,-0.9593283342989585
-1906.4261403083801,-4152.0,3716.0,-17800.0,1790.0,-1785.0,5058.0,0.3933824558843203,-0.36845923196064945,-0.2772850763912596,-0.795362196861331
-1906.4417161941528,2352.0,1624.0,-20940.0,2247.0,628.0,8470.0,0.8480785375580819,-0.3594357020948742,-0.11073856228838758,-0.3732368430570738
-1906.4573638439178,5856.0,-1444.0,-17472.0,941.0,3097.0,8252.0,0.9304025684570624,-0.21273967585599943,0.27408187074186985,0.11820329545246377
-1906.472936630249,7984.0,-10568.0,-17992.0,-1826.0,7217.0,-6324.0,0.6004216887191812,-0.44668868839013515,0.5507929427909544,-0.36958104057376634
-1906.4885096549988,-792.0,-12064.0,-21304.0,14803.0,-26.0,12132.0,0.8064838252055251,0.4680183534091002,0.28005094920045887,-0.22828518656719846
-1906.504090309143,1832.0,-3740.0,-20024.0,16705.0,2963.0,-5431.0,-0.030632006411921743,0.8494002258988169,0.20434357267205744,-0.48561779285137224
-1906.5197179317474,7232.0,-5776.0,-19688.0,14128.0,10000.0,-9742.0,-0.8340620196090334,0.5305472773560747,0.15044851911311385,0.015012562487051262
-1906.535308122635,-5216.0,-1864.0,-19420.0,18306.0,3037.0,1691.0,-0.9029982718070654,-0.41042819199363656,-0.06544733761286158,-0.10890117689757002
-1906.5509309768677,-296.0,2128.0,-19960.0,18593.0,4671.0,-5892.0,-0.13207689616838028,-0.8917825353198466,-0.40739252433723744,0.14598265071975727
-1906.5665163993835,-2720.0,2400.0,-18212.0,16018.0,7001.0,-8746.0,0.7458851829568225,-0.4322648260823009,-0.4878549474680116,0.13711296148974836
-1906.5820922851562,-3124.0,1108.0,-16912.0,18941.0,4005.0,-3997.0,0.8418840436594803,0.4628133867384729,-0.07596070172254106,0.2669550484277195
-1906.5976874828339,-1516.0,4880.0,-16080.0,16905.0,6381.0,-10947.0,0.2175611773626216,0.7766027858313969,0.5858089612129063,-0.07989435590928265
-1906.6133415699005,-2460.0,2712.0,-16532.0,15342.0,6440.0,-10168.0,-0.6193496872279737,0.30046432766877795,0.6536589282308636,-0.31441558210947385
-1906.6289172172546,-4328.0,3184.0,-15620.0,14734.0,3791.0,-4861.0,-0.7900484668868523,-0.39010796995416763,0.10031748319337483,-0.4621423961440016
-1906.6445286273956,-3628.0,5644.0,-15668.0,12959.0,2681.0,-2436.0,-0.30503577309751756,-0.7760262749071095,-0.44740700301881203,-0.32336260054978483
-1906.660127401352,-2996.0,6396.0,-14528.0,11593.0,1524.0,-395.0,0.3697334884449106,-0.7180461944996042,-0.5891030052252639,0.025777108479358005
-1906.675720691681,-1824.0,7668.0,-13640.0,10973.0,907.0,-1100.0,0.7958591063570508,-0.22264545072322742,-0.43463634527411954,0.35795046230947086
-1906.6912953853607,-1824.0,10340.0,-12076.0,9259.0,186.0,-2174.0,0.8084105847992263,0.38259967004091905,-0.13451165038646132,0.42661040163064856
-1906.7068569660187,-1720.0,12928.0,-11224.0,6237.0,-1774.0,1308.0,0.4595016669192898,0.7564637238577213,-0.061523706910558154,0.4613411818531778
-1906.7224657535553,-4244.0,14224.0,-11192.0,235.0,-3553.0,279.0,0.39495297172123606,0.8664234143590861,-0.20315114214930824,0.2281495794919191
-1906.7380437850952,-3552.0,12276.0,-13768.0,-2278.0,-6782.0,9353.0,0.18182330528175403,0.5280928654208696,-0.8294901730590092,-0.0020649325723482636
-1906.753642320633,-2068.0,22564.0,-13444.0,-5395.0,-3937.0,7403.0,0.11076471751170938,-0.07106767252137879,-0.9294663207178357,-0.344634475826483
-1906.7692832946777,-1972.0,11408.0,-14932.0,-18619.0,-1401.0,-29272.0,-0.3130901239423108,0.6522567883720691,-0.17695508854706105,-0.667249992843495
-1906.7848892211914,-168.0,-1092.0,-21780.0,-26135.0,-4960.0,-32768.0,-0.21224000378233615,0.41497197856292806,0.8765689273598294,-0.11991394159680026
-1906.8005335330963,9908.0,-14908.0,-23136.0,-19578.0,-1979.0,-13871.0,0.2161096522511866,-0.13078776486482935,0.6963944945254709,0.6717334938501633
-1906.8161244392395,7316.0,-13008.0,-20208.0,6772.0,-899.0,32767.0,-0.509455086595812,0.6610663495798939,0.4697885850556233,0.2876551434377677
-1906.8317556381226,3388.0,2048.0,-15256.0,20576.0,5361.0,32767.0,-0.7709360216983652,0.2689029096843286,-0.32153660856194366,-0.47954466420312
-1906.84734416008,-18508.0,22124.0,-8944.0,2530.0,-1043.0,-6588.0,-0.9637338916978155,0.20361011515275362,-0.17229681768365981,0.008585663430947533
-1906.86297249794,4036.0,9792.0,-17128.0,-16798.0,-3308.0,-26011.0,-0.24011624878157173,0.6941249220915933,0.1918300259644647,0.6509500908217762
-1906.8785829544067,9908.0,-368.0,-19496.0,-11212.0,-1496.0,-6052.0,0.5381766730363987,0.6081824208496792,-0.03134454806338843,0.5826641664592039
-1906.8941559791565,9132.0,-1320.0,-17608.0,-1346.0,3152.0,9333.0,0.10841742550689215,0.27148856580574227,-0.3377634149766491,0.8946817847628903
-1906.9097259044647,5232.0,2960.0,-16164.0,56.0,2690.0,16685.0,-0.6264864183825957,-0.2410687710787108,-0.3947622472362549,0.6273463025711791
-1906.9253787994385,-9724.0,6884.0,-16300.0,-5381.0,-982.0,-4740.0,-0.4345912508121145,0.22820063438165605,-0.6218980788549936,0.6101620233199044
-1906.9409646987915,3196.0,3672.0,-19824.0,-4098.0,1487.0,4307.0,-0.4421697607317984,0.06241763937252196,-0.866310907939956,0.22381990924355877
-1906.9566040039062,-7532.0,3540.0,-17944.0,-1648.0,-341.0,-653.0,-0.4406122698254782,0.17974709737260844,-0.871175925321698,0.12084831734552878
-1906.9722516536713,-2932.0,2320.0,-16968.0,-3309.0,1604.0,-5135.0,-0.18597413791869927,0.5958881812205219,-0.777094621734318,0.08034204614454608
-1906.9878823757172,-708.0,740.0,-16276.0,-749.0,418.0,8.0,-0.11812604412542255,0.6029019033738472,-0.7873820970238343,0.05084255986690592
-1907.0034627914429,1072.0,3076.0,-16096.0,-338.0,163.0,-839.0,-0.08486090246714682,0.6612085692064387,-0.7440545923912582,0.04454906039316616
-1907.0190861225128,3324.0,3284.0,-15896.0,-1797.0,367.0,-184.0,0.04313668064608974,0.676337354264615,-0.7336909068350834,-0.04903736571932723
-1907.0346720218658,2840.0,2376.0,-15592.0,-921.0,159.0,2719.0,0.11597942305671313,0.4844097441460415,-0.8628894429717993,-0.08554403784961405
-1907.0502383708954,812.0,3176.0,-15712.0,-1204.0,259.0,1000.0,0.19170555525633756,0.39514187315456745,-0.8851670331167446,-0.15359428259886182
-1907.0658373832703,412.0,3804.0,-16116.0,-956.0,-15.0,-680.0,0.21299450121427574,0.42928763276615417,-0.8448164016772933,-0.23797209555648288
-1907.0814299583435,1320.0,3044.0,-16096.0,-1881.0,780.0,-1691.0,0.2978307945215915,0.5215239834881478,-0.7093738798193487,-0.36891496460747675
-1907.0970194339752,-596.0,1276.0,-15792.0,-888.0,-65.0,828.0,0.35867879578532613,0.4427219760441409,-0.7162772380645107,-0.4028569120819894
-1907.112601518631,-916.0,1136.0,-16212.0,-259.0,5.0,2649.0,0.44995192862431493,0.2623375745766879,-0.7885202286773735,-0.32704450440125543
-1907.128169298172,-536.0,2596.0,-16600.0,819.0,-1494.0,4106.0,0.415186024688823,-0.028521436088424106,-0.8993881698352779,-0.13382082254602576
-1907.1437921524048,1696.0,3700.0,-16156.0,965.0,-718.0,5430.0,0.3817687999098603,-0.38511909235143166,-0.8306448530775525,0.1263526658902198
-1907.159372806549,632.0,4264.0,-15464.0,747.0,970.0,-3828.0,0.48990232001356215,-0.08818231481505355,-0.8670964783601174,0.019060257466008375
-1907.174962759018,2220.0,4024.0,-15532.0,88.0,360.0,-1827.0,0.5138336301236867,0.05257168823339927,-0.8545384683373063,-0.054545616523561144
-1907.1905694007874,604.0,2148.0,-16452.0,-194.0,254.0,750.0,0.5356044768335898,-0.010785249509390936,-0.8437095889131105,-0.03414165146718857
-1907.206167459488,1536.0,2280.0,-16320.0,517.0,-93.0,2454.0,0.5238674141736681,-0.1636726663211426,-0.8278484517775101,0.11593589416527623
-1907.2217614650726,32.0,2776.0,-16192.0,279.0,32.0,749.0,0.5210650854524336,-0.2048610508355204,-0.8110730409968815,0.16936247737053603
-1907.2373673915863,444.0,1816.0,-16528.0,-285.0,-378.0,913.0,0.47356152677123187,-0.2757689309659273,-0.8130536923984396,0.1965570409659056
-1907.2529799938202,2180.0,940.0,-16920.0,1414.0,743.0,8725.0,0.32455793092528906,-0.6715311549406208,-0.43360139516724927,0.5056657863911959
-1907.268557548523,-1008.0,3832.0,-15144.0,3856.0,-794.0,6029.0,0.21529458796754097,-0.6397962080410041,0.05701863750230915,0.7355663991412461
-1907.2841141223907,1408.0,5244.0,-15364.0,2329.0,360.0,-1818.0,0.44536023078955206,-0.6082437000984524,0.10828753021828566,0.6480491315639922
-1907.2997336387634,1924.0,3948.0,-16196.0,1559.0,924.0,-4125.0,0.7003543637964503,-0.5948028814577039,0.012558655853820853,0.39440534667271826
-1907.3153223991394,136.0,2452.0,-16436.0,2001.0,-54.0,-2490.0,0.857163956322617,-0.45625410322057136,-0.04922045441506258,0.2338364645279382
-1907.3309037685394,2184.0,2372.0,-16160.0,2631.0,533.0,-1400.0,0.9597749281190343,-0.2558172255682974,-0.011096051293583327,0.11518034598980693
-1907.3464889526367,-720.0,2424.0,-16560.0,3211.0,947.0,-2523.0,0.9933513585399375,0.005403114547705221,0.041519526390022425,-0.10723811714307993
-1907.3620929718018,1096.0,2672.0,-16340.0,3871.0,1421.0,-3154.0,0.8715075585815504,0.31255796872679076,0.11836808254500507,-0.3588468873422572
-1907.3776602745056,300.0,3100.0,-16052.0,4394.0,789.0,-4042.0,0.5459952706515454,0.5576244261471576,0.13372061860513984,-0.6107888014281677
-1907.3932919502258,708.0,2096.0,-16472.0,4341.0,1107.0,-4345.0,0.07915547112231956,0.6788388580709168,0.14625343218888695,-0.7152077668323715
-1907.4088819026947,324.0,1260.0,-16640.0,5827.0,328.0,-2842.0,-0.3894684090219774,0.6121343974148866,-0.04069843122942422,-0.6869857899337272
-1907.4244408607483,1796.0,3332.0,-17516.0,7868.0,8.0,-1625.0,-0.7427484814493024,0.28758116446104837,-0.3487725899759622,-0.4939427574460852
-1907.4400758743286,2548.0,3900.0,-18204.0,5753.0,2373.0,-4468.0,-0.8374107221334753,0.12724738713449235,-0.5309549550465249,0.02526302901234531
-1907.455674648285,2900.0,3136.0,-19444.0,4574.0,3099.0,-2181.0,-0.6566125630683498,-0.1001203967528354,-0.6422130827633927,0.3826201830829195
-1907.4712781906128,-1256.0,184.0,-19264.0,7837.0,3435.0,4133.0,-0.410629335667653,-0.6893493963655427,-0.4168252225104374,0.42712725539202995
-1907.4868502616882,-1764.0,2316.0,-18428.0,9949.0,1556.0,1331.0,0.14591897894672176,-0.8623668489214215,-0.016291872160770007,0.4845262060673101
-1907.5024583339691,980.0,4928.0,-19008.0,9116.0,3258.0,1780.0,0.5774244876408737,-0.6726437876438014,0.4131646350427383,0.2083897319132495
-1907.518055677414,-3296.0,2704.0,-20796.0,8052.0,2304.0,-2107.0,0.8026984870848917,-0.3074220188046293,0.4409812359402896,-0.2582680598414886
-1907.5336322784424,-1124.0,2020.0,-21664.0,7715.0,1514.0,-4894.0,0.6541133589630624,0.061187009441472574,0.188312081203583,-0.7300208377672819
-1907.549218416214,-612.0,1772.0,-21996.0,10279.0,1072.0,-574.0,0.40445968873163635,0.5246463487008791,-0.29832432206212683,-0.68713984592084
-1907.5648589134216,-312.0,3412.0,-20492.0,11845.0,1925.0,197.0,-0.0524696114617302,0.7272177574196521,-0.6558027999052883,-0.19576506532824273
-1907.5804448127747,-516.0,3644.0,-19356.0,10986.0,3410.0,-9006.0,-0.43703648010110585,0.7718224622489261,-0.17751333025803148,0.4263545700582364
-1907.5960931777954,484.0,4056.0,-17988.0,8686.0,3927.0,-7779.0,-0.4577757141809867,0.28294354847289316,0.3543403509061353,0.7647399947716688
-1907.6116840839386,1216.0,2472.0,-15928.0,6164.0,4822.0,-5271.0,-0.31437698963293037,-0.34579101011489993,0.5430711333447951,0.6976169649891362
-1907.6272974014282,-320.0,372.0,-12972.0,5199.0,2527.0,-6119.0,0.0768382587536851,-0.7513584543246894,0.48819116616656855,0.43729365463432124
-1907.6428694725037,60.0,-208.0,-10200.0,7073.0,-370.0,-9303.0,0.637865486182832,-0.7603050322942232,0.10199014999825248,0.06827802507508235
-1907.6584613323212,484.0,6204.0,-7012.0,17220.0,-1877.0,2359.0,0.9774740660288048,0.12636265644479017,0.14071731336233995,0.0936779964421564
-1907.6740453243256,712.0,23900.0,-4276.0,8719.0,-1645.0,27270.0,0.2517915885972253,0.45220098538365344,-0.08496917520962911,0.8514079539174706
-1907.6895971298218,-11520.0,18900.0,-7788.0,-14094.0,1098.0,2115.0,0.41228865849380814,0.028287687747478068,-0.7452283623624105,0.5233092362360108
-1907.7051556110382,-11308.0,12164.0,-12828.0,-18801.0,-8708.0,-5692.0,0.07158655815149008,0.056316815015931505,-0.8954701468053154,-0.4357028772213368
-1907.7207298278809,2060.0,10688.0,-15300.0,-21687.0,-6743.0,-8912.0,-0.292344147619454,0.15342978557712045,-0.02953810482413001,-0.9434626121971197
-1907.7363154888153,2008.0,6596.0,-17168.0,-19077.0,-6262.0,-2688.0,-0.13507584397363054,0.06477560251168434,0.8551291092291126,-0.4962991479370925
-1907.7519614696503,-1220.0,6760.0,-18352.0,-18480.0,-6658.0,-5404.0,0.1138588890401959,-0.20049947531515602,0.8650000768099695,0.44565791915282543
-1907.7675812244415,-1176.0,6116.0,-19384.0,-21597.0,-8182.0,-9802.0,0.30527195599887963,-0.34769806910184337,-0.09453020350291372,0.8814641945360945
-1907.7832746505737,-104.0,3680.0,-21196.0,-24004.0,-9732.0,-4225.0,-0.07139877175500477,-0.08163095798166607,-0.931738385711231,0.3465576181287924
-1907.798867225647,1856.0,356.0,-22528.0,-23114.0,-8700.0,1565.0,-0.4162426687724471,0.08329745368578399,-0.6577645180169845,-0.6222133185174834
-1907.8144512176514,3308.0,-408.0,-22240.0,-20324.0,-7772.0,10070.0,-0.0723162622275226,-0.076973007782272,0.28234164379669924,-0.9534824122492078
-1907.8300342559814,2944.0,660.0,-20356.0,-16287.0,-6636.0,17639.0,0.6057437519013095,-0.03840636170101665,0.7514756722295519,-0.25861897157895924
-1907.8456292152405,1372.0,1812.0,-18252.0,-14010.0,-4148.0,19096.0,0.5427312606420426,0.1633464210417602,0.3926071199991443,0.7243068236463913
-1907.86123752594,-1112.0,5928.0,-16888.0,-14364.0,-4474.0,20571.0,-0.16384533263065093,0.19305924542451727,-0.4183717509727871,0.8722659644393054
-1907.8768060207367,-9804.0,7240.0,-17360.0,-16905.0,-8401.0,9380.0,-0.4297268286719652,0.3494437644460614,-0.8325410382240759,-0.009966337445567248
-1907.8923647403717,-1660.0,6344.0,-20564.0,-18476.0,-7455.0,7702.0,-0.18953384181407015,0.2251295736693522,-0.36488607810270796,-0.8833185993023577
-1907.9079825878143,-1500.0,2432.0,-20576.0,-16836.0,-6231.0,9886.0,0.3440509757796533,-0.1422044402231627,0.4107069848651932,-0.8323019859575174
-1907.9236228466034,-1548.0,3320.0,-18856.0,-14693.0,-6682.0,8859.0,0.5518975195813897,-0.39689149929011214,0.733048671973933,0.022932731813061595
-1907.9392762184143,-896.0,4052.0,-16808.0,-14840.0,-5349.0,8168.0,0.19701608096956758,-0.31354715671210776,0.39504701791393493,0.8407203447011693
-1907.9548630714417,-992.0,3292.0,-15392.0,-15929.0,-2768.0,3450.0,-0.22594422021459382,-0.151298654631984,-0.41393898936124224,0.8687418716424139
-1907.9706499576569,-656.0,3228.0,-16148.0,-14354.0,-3283.0,5252.0,-0.5510663874664326,0.11276156361742885,-0.80886065463372,0.17133332355603748
-1907.9862706661224,-16.0,3664.0,-17064.0,-12321.0,-1787.0,3121.0,-0.4011540653910238,0.34075602554074225,-0.6246790341881031,-0.5768334691431747
-1908.0018944740295,-1056.0,4400.0,-16316.0,-11732.0,-1544.0,1265.0,-0.05037671455346434,0.4195705111234481,-0.012433792405221024,-0.9062384750344862
-1908.0175154209137,-2296.0,3616.0,-15568.0,-9142.0,-3125.0,3900.0,0.43613413894346453,0.15441432190402404,0.4301965313494639,-0.7751607410426904
-1908.033177614212,-2628.0,4728.0,-14584.0,-8933.0,-2267.0,1002.0,0.5514871125093329,-0.2340918623839159,0.7268069578618849,-0.33587886314161014
-1908.0487928390503,-1300.0,4600.0,-14572.0,-8628.0,-1860.0,918.0,0.4110374144787056,-0.5104255593679742,0.7187365816542918,0.23223203576262924
-1908.0644216537476,-2128.0,4992.0,-13984.0,-7884.0,-1639.0,520.0,0.12413639946479946,-0.5947368721241632,0.42799892085865404,0.6691002398801766
-1908.0800881385803,-1328.0,3784.0,-13952.0,-6333.0,-1566.0,560.0,-0.1552877036093563,-0.47857464583635895,0.06121501308728416,0.8620352426920026
-1908.0957391262054,-1604.0,4280.0,-13468.0,-4963.0,-1231.0,-458.0,-0.2934593472526269,-0.293364272558992,-0.28699289280039664,0.8633968349363202
-1908.1113233566284,-1404.0,4400.0,-13240.0,-4027.0,-890.0,-3053.0,-0.17234341041520562,-0.04289280490790292,-0.5894964794596476,0.7880049853130817
-1908.1269183158875,-636.0,2044.0,-14244.0,-2644.0,-27.0,-4607.0,0.1208547296815987,0.2138280983519116,-0.7152667386664497,0.6542668960189362
-1908.1425120830536,-516.0,656.0,-13600.0,-1188.0,324.0,-6020.0,0.44673688265179445,0.4923041328387323,-0.588298799412365,0.4603990889200702
-1908.1581721305847,-84.0,-836.0,-14820.0,248.0,158.0,-3669.0,0.5630891732350429,0.6513433481920092,-0.3948534401836989,0.3205825736477217
-1908.1738014221191,2200.0,-3816.0,-15288.0,1778.0,3187.0,-4428.0,0.6219106173119607,0.7174113144929245,0.05636414753557241,0.30882239683154206
-1908.1893887519836,740.0,-4632.0,-15236.0,6144.0,930.0,-676.0,0.22001459100026918,0.8977137041712409,0.2762758328063389,0.2633920068971301
-1908.2049705982208,2020.0,-964.0,-14544.0,10429.0,-95.0,-2181.0,-0.3989382974228151,0.7671296247470144,0.5016018213237511,-0.02749520921153187
-1908.2205646038055,-596.0,2488.0,-14148.0,8901.0,3851.0,-17020.0,-0.6079297893889938,-0.14061622532722948,0.7501890448296363,0.2187803587294191
-1908.2361352443695,4120.0,-3640.0,-16508.0,7124.0,3206.0,2806.0,-0.6347107238466833,-0.32071946805613055,0.6079816824377852,-0.3530433311421309
-1908.2517626285553,2968.0,-2644.0,-20072.0,15622.0,943.0,-339.0,-0.15226186113958623,-0.6940647351101565,0.03852068468294049,-0.7025714383394296
-1908.2673802375793,-1784.0,8932.0,-17788.0,27552.0,-1110.0,-13697.0,0.23733117961343253,-0.4096429286428176,-0.8600209503481991,-0.19034323512647486
-1908.2829823493958,15480.0,12744.0,-32768.0,3983.0,17412.0,-32768.0,0.3351808958816951,0.7107367675702335,-0.5098597803959921,-0.35007144784216676
-1908.2986450195312,-25872.0,10028.0,-12520.0,23503.0,-1190.0,11954.0,-0.3228070823714337,0.33051931815030566,-0.7980515343885535,0.38686731105170247
-1908.3142442703247,8380.0,14400.0,-7032.0,1082.0,13674.0,-15452.0,0.5433050089694967,0.4435438251619232,-0.33993558526087997,0.626524014114964
-1908.329837322235,-26528.0,-6660.0,-23052.0,239.0,5773.0,-8636.0,0.8723000381326285,0.2929282678571355,0.20830865467436477,0.33150139932101264
-1908.3454258441925,-1156.0,3976.0,-17548.0,17895.0,2452.0,1666.0,0.1719644703007751,0.8622913378283256,0.4647183178995084,0.10449284506157137
-1908.361005783081,-5428.0,23044.0,-18264.0,13252.0,3641.0,-17434.0,-0.37327463954802304,0.14711319147984123,0.8954335842707842,-0.19293120152760534
-1908.3766071796417,-4040.0,9348.0,-24768.0,-10659.0,8476.0,-24079.0,-0.49900551075398786,-0.4762949218541085,0.4240100984815196,0.5868152043350893
-1908.3922445774078,-1504.0,-4556.0,-12012.0,-6385.0,4325.0,11728.0,-0.9644178371755946,0.00891246641562314,0.2506128350121237,0.08373774660883122
-1908.4078316688538,5920.0,-6488.0,-10112.0,8663.0,6413.0,10019.0,-0.7278562033626674,-0.33654049740015607,-0.1433656640438572,-0.580010454396645
-1908.423439025879,1236.0,7696.0,-12840.0,10046.0,4210.0,-5253.0,-0.44427646860446546,-0.47873247461916274,-0.7383823621438235,-0.16800334658650642
-1908.4390089511871,236.0,11416.0,-19292.0,-2263.0,860.0,-7137.0,-0.4911119504722379,0.06794658718829819,-0.8662913345022125,-0.061087127606336035
-1908.4546296596527,-2456.0,4092.0,-19108.0,2281.0,3352.0,1183.0,-0.22953545814357723,-0.09513496865543203,-0.9656917891995181,0.07551277684194635
-1908.4702363014221,-836.0,6392.0,-14496.0,3739.0,1893.0,-2931.0,-0.01778609650302354,0.05886388549671899,-0.9162913596122069,0.39576361891339606
-1908.4858226776123,-3192.0,4364.0,-14384.0,1413.0,3830.0,-841.0,0.2915621376313114,-0.007880430881668348,-0.8169053139631571,0.49758931532714307
-1908.5014140605927,-868.0,4640.0,-15596.0,3883.0,1005.0,-846.0,0.37902733978721054,0.10133440579594884,-0.5870848859395307,0.7080967099183423
-1908.517003774643,3832.0,7936.0,-16164.0,739.0,5605.0,-5980.0,0.8359909763990306,0.06981648184772044,-0.2463622535864166,0.4853353338153163
-1908.532597064972,-684.0,3104.0,-14692.0,-894.0,2578.0,-2378.0,0.9512659404635463,-0.05079251059404362,-0.07809688685169977,0.2939627657470105
-1908.5481700897217,1464.0,4440.0,-15320.0,3674.0,911.0,-841.0,0.9427882813941398,0.22432185721831113,0.0832130971379403,0.23217566906272444
-1908.5638480186462,-1516.0,8992.0,-16688.0,1617.0,2466.0,-6250.0,0.8732483116160794,0.22460512842531552,0.3778896603222322,-0.21021257613725755
-1908.5794365406036,-164.0,4080.0,-16668.0,372.0,2532.0,-3719.0,0.6643863863857066,0.16465088116711812,0.5927475050768569,-0.42441867553324697
-1908.595039844513,-2988.0,3392.0,-15160.0,4594.0,-1051.0,4725.0,0.7151844143400561,0.5501324697001965,0.2540649627388416,-0.348305202337181
-1908.6106333732605,2132.0,5384.0,-13604.0,360.0,2587.0,-5565.0,0.415282946385432,0.4653769838154054,0.5919529399802469,-0.5104469161676387
-1908.6262078285217,-2892.0,1756.0,-17092.0,-441.0,1411.0,-1187.0,0.30317386685771014,0.44502105515020063,0.7015215013361239,-0.46680772282670774
-1908.6418280601501,-2488.0,3076.0,-17796.0,2649.0,-714.0,3050.0,0.346632341513114,0.6335167621087234,0.42970940359831705,-0.5420815071588345
-1908.657423734665,872.0,6052.0,-16112.0,2150.0,68.0,-171.0,0.213324430119114,0.683553068896268,0.33369474585642106,-0.6131033404774988
-1908.6730382442474,3516.0,5260.0,-14244.0,510.0,2539.0,-635.0,0.07301580128890446,0.7894749042788909,0.3813750612005203,-0.4753431717930475
-1908.6887030601501,-2320.0,2480.0,-14280.0,-1400.0,3060.0,-1178.0,0.017945955912011834,0.8291638948400283,0.5157050825833485,-0.2149731284552108
-1908.7042717933655,-296.0,3252.0,-15760.0,-1873.0,4186.0,-3570.0,-0.09078278636590355,0.6636246869587713,0.7274592335500591,0.14887519632657406
-1908.7199075222015,-2440.0,3008.0,-17616.0,-250.0,867.0,-811.0,-0.11987291075852959,0.5995306565778177,0.7601318255676301,0.21998428318602797
-1908.7354955673218,-1780.0,4396.0,-17032.0,155.0,809.0,-1450.0,-0.1519422770234575,0.4811387196762853,0.8219423570110541,0.2642533606830854
-1908.7510795593262,1772.0,3540.0,-15376.0,702.0,446.0,1212.0,-0.23916138903275763,0.5440458625950834,0.7750887404322098,0.2146004982387135
-1908.766666650772,648.0,3896.0,-14724.0,-478.0,1644.0,-2385.0,-0.27386337241130243,0.3506144684499108,0.8187370330162538,0.36295732329412606
-1908.7822682857513,-4048.0,6176.0,-17388.0,2759.0,-813.0,4690.0,-0.40430756373445353,0.5819297842147124,0.7051401028158212,0.025895087407113795
-1908.7978513240814,2832.0,6944.0,-14936.0,2572.0,-616.0,883.0,-0.48464616619081297,0.5314471731107724,0.6684980339095885,-0.18918872706408923
-1908.8134379386902,652.0,6508.0,-14004.0,1949.0,1768.0,-184.0,-0.6637097064393651,0.45563641893118006,0.5557060216002974,-0.2075468546591636
-1908.829041481018,320.0,6308.0,-13848.0,3988.0,-191.0,3771.0,-0.6714606334170649,0.36447502770521195,0.3109172633884961,-0.5653574332026134
-1908.8446559906006,2556.0,5612.0,-15848.0,117.0,2995.0,-7093.0,-0.9182422365931189,0.25983863956934333,0.29502661659820906,-0.047690374519737684
-1908.8602423667908,408.0,324.0,-18236.0,-2114.0,4009.0,-6921.0,-0.8125857450668383,0.21723535489419957,0.1133075203768358,0.5288427113274939
-1908.8758578300476,-4036.0,1160.0,-16396.0,2761.0,-687.0,1495.0,-0.8926619616949936,0.06566367848242287,0.25149586115432626,0.36822918854057
-1908.891437292099,216.0,5288.0,-15816.0,1527.0,1715.0,-2152.0,-0.8387578256915825,-0.1501552976457127,0.17319242365704443,0.4939059432906788
-1908.9070091247559,276.0,2988.0,-15984.0,626.0,2291.0,-2781.0,-0.7099738094726242,-0.3210183610253246,-0.0035485177970237345,0.626794870566909
-1908.922726392746,252.0,2456.0,-16328.0,410.0,1705.0,-1970.0,-0.5750885139254762,-0.4281685502151813,-0.13827675267723608,0.6832455147504851
-1908.938377380371,-1880.0,2596.0,-16232.0,574.0,1404.0,354.0,-0.5526207473732756,-0.5402497021681142,-0.15986562219244782,0.6141527104237898
-1908.9540293216705,-1180.0,3340.0,-16080.0,2089.0,749.0,2090.0,-0.536896238266292,-0.6866366574494925,0.013978305543570593,0.4899766698080877
-1908.9697196483612,248.0,4840.0,-15220.0,1872.0,2414.0,1040.0,-0.4543065515944205,-0.8436331441649894,0.04166585964667418,0.28311240061958465
-1908.985310792923,996.0,6120.0,-15672.0,3471.0,-10.0,3943.0,-0.2690384840887489,-0.8788004137399681,0.38007447564737323,0.10426658070092755
-1909.0009179115295,5008.0,6260.0,-15056.0,2559.0,2285.0,-245.0,-0.14010381950223538,-0.9268876004292752,0.3170190319027346,-0.14404592789384296
-1909.0165536403656,1524.0,6656.0,-14960.0,2876.0,1194.0,1684.0,0.07695816121725371,-0.8604370884782749,0.38453500966131215,-0.3253587013403255
-1909.032145500183,3388.0,4668.0,-14308.0,2188.0,2742.0,-3689.0,0.04046259710169394,-0.8150148935192061,0.05830163897630003,-0.5750777516739285
-1909.0477833747864,-2032.0,3124.0,-16720.0,783.0,2812.0,-2251.0,-0.029691147818780177,-0.6500010171126056,-0.12489647503667442,-0.7490113377093801
-1909.0633928775787,-416.0,2956.0,-16872.0,3589.0,-233.0,1156.0,0.2344614163008839,-0.6527855804447041,-0.27864045660983294,-0.6642727799405287
-1909.0790014266968,764.0,3392.0,-16360.0,49.0,2972.0,-3848.0,0.07948279295809897,-0.3554703484824675,-0.4050743903475919,-0.8385929019839482
-1909.0946507453918,-4420.0,1440.0,-16768.0,361.0,-225.0,4373.0,0.37601403026785407,-0.48940616536096676,-0.2779175831997235,-0.7361092794530063
-1909.1102240085602,2676.0,644.0,-18492.0,1119.0,332.0,-1042.0,0.3614820695693892,-0.4025918274830057,-0.3800204771204403,-0.7502232806257602
-1909.1258082389832,3944.0,4012.0,-14864.0,5640.0,-815.0,2623.0,0.6176752876978591,-0.3203148280007246,-0.5990913495055035,-0.39618834520705953
-1909.1413865089417,2016.0,8684.0,-13908.0,2739.0,1527.0,3267.0,0.8247892701068682,-0.2703452511830368,-0.4840125747060219,-0.11121120719517344
-1909.1569828987122,-2912.0,4008.0,-15736.0,-2394.0,-992.0,-6329.0,0.5708119899924601,-0.15887107470873313,-0.5853794537165723,-0.5534117353907735
-1909.1726002693176,280.0,-484.0,-18576.0,-3639.0,1009.0,-6859.0,0.19859525139603676,0.04863252026395083,-0.3754673155835674,-0.9040017140604276
-1909.1881914138794,1988.0,-2364.0,-17832.0,1127.0,1218.0,460.0,0.26700608218886784,0.14750294071517428,-0.4405656368114071,-0.8443059600734123
-1909.203842639923,2448.0,2812.0,-15656.0,533.0,1762.0,-1132.0,0.24022774368675134,0.3275274292726116,-0.41714154007323134,-0.8130248149857294
-1909.2194609642029,8.0,836.0,-16256.0,-1154.0,2613.0,2490.0,0.5173918595506573,0.3781151331866762,-0.3340890196657113,-0.6911722915921465
-1909.2350866794586,-6616.0,3124.0,-17768.0,813.0,-1414.0,3324.0,0.6182325477679028,0.22161538881876794,-0.5297920989525771,-0.5366520923340715
-1909.2506878376007,3688.0,4864.0,-16964.0,2071.0,-607.0,1912.0,0.6201634482972668,0.2100503417635876,-0.675642065022434,-0.3387978029640455
-1909.2663352489471,3444.0,4820.0,-13916.0,1558.0,376.0,1439.0,0.6448114949735444,0.2169158086836141,-0.7153946599972322,-0.15929892761899206
-1909.2819850444794,2412.0,4116.0,-13348.0,-329.0,-393.0,-1612.0,0.5973796411982849,0.2905161921471384,-0.695071865093981,-0.2749781968391502
-1909.2975673675537,3384.0,2332.0,-16440.0,-2197.0,1162.0,-748.0,0.6880113781092846,0.243169627783357,-0.5491499116510551,-0.40736132640385125
-1909.3131878376007,-596.0,-116.0,-18256.0,-47.0,989.0,1437.0,0.7783559918816284,0.20440059499341426,-0.5129270706431535,-0.29881125626344457
-1909.328775882721,-2188.0,2948.0,-17336.0,-139.0,-369.0,-1240.0,0.7271229478777468,0.23945526251832638,-0.5091971460031701,-0.3932831835002373
-1909.3443577289581,1384.0,2556.0,-15940.0,635.0,1026.0,-384.0,0.7415896657236299,0.330131897139605,-0.4553364491812325,-0.3656862264701077
-1909.3599436283112,-1652.0,4576.0,-15628.0,669.0,46.0,322.0,0.732688944820725,0.3615348082816057,-0.4821395377476556,-0.31622928181740556
-1909.375586271286,1160.0,5200.0,-14984.0,-90.0,1377.0,-1205.0,0.7505097282525737,0.43907769061266705,-0.34936242838740106,-0.34913009471506895
-1909.391231060028,1020.0,1772.0,-16204.0,-514.0,790.0,1257.0,0.8247207851994579,0.3877477578189593,-0.3272480660749546,-0.24979192544308046
-1909.4068338871002,516.0,2428.0,-15020.0,1184.0,1402.0,905.0,0.8311058550358119,0.47044756231368234,-0.2785446824329354,-0.10175956331785925
-1909.4224619865417,988.0,1924.0,-17052.0,-1424.0,2131.0,230.0,0.92036365585651,0.37151055892036083,-0.11800163234936678,-0.03140478231107213
-1909.438048362732,-1248.0,1072.0,-16448.0,339.0,-386.0,3358.0,0.8767565874646092,0.34841125683106733,-0.24817913492697735,0.21980582211967534
-1909.4536378383636,108.0,2400.0,-15780.0,33.0,-293.0,4562.0,0.7261300305599278,0.23965452523638467,-0.37970747430345647,0.5206948446171247
-1909.469260931015,16.0,872.0,-16512.0,-2857.0,638.0,2222.0,0.6722271479628282,-0.041735896694959536,-0.49117470609124003,0.5523732294065431
-1909.4848878383636,-2332.0,-1780.0,-17448.0,-5044.0,173.0,3477.0,0.43514681219308504,-0.4365286929761918,-0.6275880700387585,0.4756292320618236
-1909.5004873275757,-6088.0,-3152.0,-20116.0,-5512.0,-849.0,9312.0,-0.15102453666868448,-0.8135805617113601,-0.38764682838683684,0.40621200791097195
-1909.5160927772522,-2256.0,-1480.0,-18436.0,1356.0,-5528.0,20804.0,-0.4593957514686234,-0.6284521434118997,0.5678424573720071,0.26750400105285965
-1909.5317208766937,4276.0,4724.0,-15808.0,-48.0,171.0,8128.0,-0.5383131292209845,-0.18584891112323376,0.8202587773239454,-0.05342934929087383
-1909.547297000885,912.0,6888.0,-14912.0,-3530.0,-760.0,12437.0,-0.32004420669068223,0.5742857745064183,0.7119147366411814,-0.2468703358372821
-1909.5628747940063,3696.0,3860.0,-14772.0,-6759.0,-3316.0,6706.0,0.27729617944079027,0.8320092399304649,0.4610544777204304,-0.1352635283874128
-1909.578486442566,5068.0,2896.0,-16196.0,-1219.0,-4563.0,8172.0,0.49839857274186294,0.8317516472045585,-0.1762706518913948,-0.16946007595643386
-1909.5940790176392,4800.0,6800.0,-14932.0,908.0,-6767.0,978.0,0.2936111764778516,0.6479690579162078,-0.47560262675727133,-0.5174270175126707
-1909.6096527576447,5208.0,10064.0,-13776.0,140.0,-6250.0,5251.0,0.21455613743841925,0.12336600162180765,-0.7648895902010746,-0.5947187640670054
-1909.6252477169037,4940.0,8828.0,-13436.0,-6937.0,-4405.0,-6140.0,-0.24099599974535885,0.1301701083300588,-0.31408847800626044,-0.9090242565453283
-1909.6408729553223,3276.0,4632.0,-14172.0,-10859.0,-5858.0,-595.0,-0.22129232556601922,-0.06112960048778413,0.46046975191128336,-0.8574733151326331
-1909.6565017700195,3260.0,8.0,-17264.0,-7495.0,-3292.0,-461.0,-0.1329325557966489,-0.1474589534570996,0.8803818263350877,-0.4307117742918149
-1909.672120332718,1728.0,1264.0,-17996.0,-1588.0,-3329.0,10460.0,0.35610396623743085,0.39477216776461366,0.8000332315173931,-0.2780139011924327
-1909.687752008438,-348.0,5232.0,-14880.0,355.0,-3603.0,5171.0,0.6313188030996784,0.5952161460055903,0.43917904227979565,-0.23297226703889615
-1909.7033605575562,-1688.0,7928.0,-14760.0,-5940.0,-4210.0,-723.0,0.9157269290527611,0.1305810580093854,0.30820636805757556,-0.22226473716158163
-1909.7189450263977,-2032.0,5348.0,-16544.0,-10490.0,-6462.0,-2296.0,0.7858743277209468,-0.6037205531193903,0.014629040705212565,-0.133075264186896
-1909.734526872635,-804.0,2172.0,-18732.0,-10893.0,-5834.0,2227.0,0.16517807453786165,-0.9543518429884233,-0.09545981807469751,0.22981772475096504
-1909.7501418590546,-316.0,840.0,-17672.0,-5598.0,-5812.0,8310.0,-0.36312305071881756,-0.6947024187596246,0.2817176634396231,0.5533221100880621
-1909.7657244205475,-988.0,5332.0,-16024.0,-3540.0,-6177.0,9447.0,-0.6136709696185516,-0.03635480606888402,0.6118657081279736,0.49770134050469883
-1909.781357049942,-1248.0,9344.0,-16300.0,-7675.0,-6851.0,5822.0,-0.3653648182430104,0.6841884656471169,0.4622736996360868,0.42976472597278237
-1909.7969415187836,-1372.0,9840.0,-19176.0,-14274.0,-6148.0,3296.0,0.35774132701019945,0.8791177216251503,-0.04311752075749628,0.3119520057273444
-1909.8125557899475,-9844.0,7888.0,-22076.0,-14896.0,-10095.0,6737.0,0.655157167129187,0.3399163469046656,-0.6559336948129797,-0.1580409803666066
-1909.8281483650208,-4328.0,10364.0,-22840.0,-14031.0,-9737.0,14342.0,0.32521825977468743,-0.647782168644316,-0.6602813618362043,-0.19657026404651992
-1909.8437685966492,-11496.0,15076.0,-18664.0,-14771.0,-10644.0,12741.0,-0.4147006210737064,-0.9091220710909257,0.005187388144318453,-0.038646419506446116
-1909.859367609024,-7512.0,14768.0,-18684.0,-19219.0,-6322.0,10954.0,-0.8469256187572229,-0.1025624007760747,0.5206397106836715,0.03364880234073062
-1909.8750085830688,-6736.0,11152.0,-18148.0,-20665.0,-6989.0,13917.0,-0.3057335520582117,0.8412337751845196,0.4459209987741292,0.0026820676637226925
-1909.8906445503235,5800.0,3980.0,-15852.0,-22872.0,5003.0,2568.0,0.5154569190729091,0.6781350369138763,0.05188851861267876,0.5212912985326552
-1909.9062480926514,11776.0,-7196.0,-24448.0,-32768.0,-5276.0,-1291.0,0.8274559448677453,-0.1831225556780069,-0.5217791109315323,0.09761838095605567
-1909.9219298362732,15920.0,-32768.0,-32768.0,-31834.0,-5638.0,-18823.0,0.06510337365316428,-0.4618349707988649,-0.43963091462454507,-0.7675901702031979
-1909.9375202655792,23664.0,-32768.0,-31896.0,-1720.0,82.0,9659.0,0.49074326145445535,-0.635665036335114,0.04969014241151061,-0.5938281760452648
-1909.9531059265137,23392.0,-21068.0,-24152.0,27353.0,21950.0,32767.0,0.8385630427256461,0.4214953437409564,0.3227829221649047,-0.12233104159649869
-1909.9687838554382,-32768.0,23004.0,-9968.0,17235.0,-6972.0,-4701.0,0.17994179855773387,0.7570987389371042,-0.10168487327387794,-0.6197440077797685
-1909.9843888282776,17848.0,8256.0,-20880.0,10064.0,-1115.0,27328.0,0.3597424526228738,0.22405152392046795,-0.9034940703983957,-0.06391202676127843
-1910.0000169277191,-13444.0,-1596.0,-22144.0,22033.0,1565.0,2655.0,0.03060000739418833,0.3274695538745165,-0.4712334585708051,0.8183925453937726
-1910.0156016349792,5688.0,6876.0,-21560.0,22662.0,3542.0,-2803.0,-0.12045608234831648,0.11130241027259803,0.5494825395516001,0.819250294123066
-1910.0312440395355,3256.0,4980.0,-20476.0,25637.0,18714.0,-32768.0,0.26209091856553984,-0.7472268870376372,0.6100504132917774,0.028263455840451868
-1910.0468595027924,1044.0,3940.0,-16208.0,32767.0,5035.0,22250.0,0.5726016561109942,0.3239776837320484,0.6226527121339122,-0.42363829375405515
-1910.062462091446,-15160.0,17284.0,-14556.0,24949.0,-2393.0,-19793.0,-0.248069632681312,0.13744004881096294,0.04740659306862137,-0.9577704867335519
-1910.0780861377716,11548.0,-240.0,-18320.0,22439.0,24179.0,-32768.0,-0.8031138260145451,0.3677581124940162,-0.4686282329755889,-0.012236519819574508
-1910.0936753749847,4596.0,1016.0,-17864.0,32767.0,11765.0,15417.0,-0.39104038241814143,-0.7338936350476076,-0.5254088339169025,0.18009194595251382
-1910.1093032360077,-16948.0,9752.0,-13348.0,22009.0,4400.0,-18604.0,0.5533609783516736,-0.2564106205957634,-0.5564561464809265,0.5642710149626433
-1910.124903678894,3596.0,5264.0,-16748.0,22339.0,5555.0,5851.0,0.44968471739658117,0.1150239149040191,0.4096193213894119,0.7853439790846987
-1910.1405432224274,-3296.0,7932.0,-16108.0,22312.0,6288.0,4554.0,-0.13578225925049608,0.3152810493988378,0.9338769193852778,0.10017453469950258
-1910.1561348438263,-8896.0,9408.0,-13184.0,17481.0,1757.0,-5976.0,-0.37171610397891974,-0.20719926928568316,0.6463824005371503,-0.6333130293354486
-1910.1718184947968,-2772.0,6684.0,-13432.0,18261.0,4084.0,-11414.0,-0.41822252816636557,-0.5642523723737803,-0.3251112028251042,-0.6332549905072272
-1910.187444448471,-3944.0,7992.0,-12268.0,18089.0,2389.0,-13071.0,-0.08278023035342048,-0.32814350489048355,-0.93467027171544,0.10890710184468763
-1910.203063249588,-3852.0,10480.0,-12760.0,16002.0,1389.0,-18300.0,0.2821707356407652,0.44108652436899387,-0.5606509434047982,0.6414771029641979
-1910.218688249588,-2540.0,10916.0,-13048.0,9433.0,-9.0,-23417.0,0.5081699415471013,0.7521036762089793,0.3590106152859182,0.21728955072202832
-1910.2342910766602,-60.0,7840.0,-13440.0,2327.0,-1149.0,-20854.0,0.3766140542085143,0.10722955577318272,0.8238847436128839,-0.40972869777847476
-1910.24991106987,1948.0,3644.0,-14792.0,-56.0,-315.0,-10401.0,0.02050807349996358,-0.4839352684378352,0.675918258200667,-0.5554462918359407
-1910.2655403614044,2220.0,532.0,-16352.0,2784.0,1956.0,2850.0,0.14995924681167505,-0.20159220225340604,0.6201371933081117,-0.7431706868292335
-1910.28120303154,700.0,2292.0,-17380.0,6897.0,2165.0,9912.0,0.5440353426222965,0.3859940119256863,0.2565202885844756,-0.6994508633777579
-1910.296793937683,-356.0,6648.0,-16736.0,7545.0,1788.0,9364.0,0.5633336279620184,0.7292023784412074,-0.29799398043435593,-0.24923623835173964
-1910.312385559082,-1424.0,10420.0,-15712.0,4974.0,19.0,5679.0,0.30949175483811575,0.6902568431678927,-0.6401515252006307,0.1340386844549923
-1910.328016757965,-1952.0,9688.0,-14452.0,-738.0,-266.0,-5560.0,0.3628057658261808,0.8836951195057161,-0.28823175992809086,-0.06616165516227777
-1910.3436062335968,-140.0,6772.0,-15148.0,-5279.0,-2176.0,-7513.0,0.5183927012453147,0.6894793969306928,0.1950568759071091,-0.4667333110728575
-1910.3592381477356,2784.0,4244.0,-15816.0,-5877.0,-1606.0,-746.0,0.765964295737341,0.30478950127405163,0.3585052128560493,-0.43803660797215654
-1910.374839067459,3068.0,3092.0,-16756.0,-4330.0,-48.0,4284.0,0.9238848565899392,0.13049084117373094,0.3594078251552604,-0.015327339975527635
-1910.3904490470886,-276.0,4236.0,-17880.0,-2983.0,-304.0,8447.0,0.7707844589682404,0.12184714601996922,0.19136194920003327,0.5953362035171296
-1910.4060430526733,-3468.0,4176.0,-16496.0,-4351.0,-1501.0,760.0,0.7434323304449979,-0.07410933143492116,-0.13285028804010604,0.651281028443981
-1910.421626329422,-3572.0,4120.0,-16556.0,-7394.0,-3419.0,-7336.0,0.7752541853046733,-0.19849064136872174,-0.5942004283076493,0.08067381517956745
-1910.4371981620789,1732.0,1788.0,-19204.0,-12462.0,-3726.0,-16857.0,0.22967718599490863,-0.06696641881625395,-0.5811064236624754,-0.7778683779165944
-1910.452754020691,4988.0,-660.0,-18960.0,-5852.0,-39.0,-2805.0,0.0026889555382678793,-0.038951973037974194,-0.17517484673324307,-0.9837628201891688
-1910.468355178833,3508.0,548.0,-16464.0,-141.0,1555.0,1739.0,0.17176275911384647,0.0663622530744023,-0.1538863485940217,-0.9707793764109779
-1910.4839835166931,-812.0,5288.0,-15136.0,1216.0,643.0,12441.0,0.8287169668056286,-0.018833328584541825,-0.21581615553218741,-0.5160396125049046
-1910.499575138092,-4804.0,14116.0,-11724.0,3045.0,-3326.0,20388.0,0.8126876381778879,-0.1597798501832533,-0.26948936113952043,0.4913091556859863
-1910.5151541233063,-5672.0,19008.0,-11812.0,-17201.0,-2527.0,-12163.0,0.4917614061950993,-0.4681714173746213,-0.6442563747524097,-0.35202267955536504
-1910.5307893753052,-4724.0,1876.0,-23948.0,-32768.0,-9150.0,-31692.0,-0.5588078503436196,-0.08943681970222743,-0.3171137921284297,-0.761034614533282
-1910.5464127063751,5540.0,-10952.0,-24836.0,-15399.0,-9534.0,2750.0,-0.40310709241329057,-0.0253787262330228,0.6321827624838221,-0.6612152048457564
-1910.5620288848877,7528.0,-7788.0,-17164.0,8729.0,142.0,11553.0,0.17069010496345646,0.1942833315288156,0.09271819811568452,-0.9615207802724854
-1910.5776369571686,3088.0,6600.0,-16020.0,13149.0,-229.0,23271.0,0.7494937714536195,0.2204133594123859,-0.5550479431748498,-0.2856550687842678
-1910.5932018756866,92.0,10920.0,-16364.0,-899.0,1176.0,3723.0,0.8650722465505047,0.010194393799690124,-0.49799324655450017,-0.0595718806923885
-1910.6087901592255,-4104.0,8396.0,-16452.0,-9490.0,-3111.0,1765.0,0.559639654125346,-0.5983246176337967,-0.5131945834765126,-0.2558171787707045
-1910.6243739128113,2068.0,3888.0,-19896.0,-13143.0,-2296.0,-4060.0,-0.20333869449251815,-0.7044555031343225,-0.34536713030802074,-0.5857622083479348
-1910.6399772167206,4628.0,1572.0,-23500.0,-7764.0,1190.0,17776.0,0.1340895053026246,-0.5291802059085597,0.5704521753519881,-0.6136551392096838
-1910.655547618866,1728.0,256.0,-18116.0,1088.0,1103.0,17919.0,0.5851318500297653,0.23347007104511883,0.7268800956782405,-0.273418672576917
-1910.6711621284485,-6032.0,5520.0,-16216.0,761.0,1807.0,-10647.0,0.14598570661131727,-0.2615193799489935,0.7400772027138848,-0.6021474249712273
-1910.68679022789,9364.0,5760.0,-15016.0,662.0,3427.0,9121.0,0.31884392129594025,0.39275604541367026,0.7285727697715204,-0.4618040296393034
-1910.7024006843567,-8088.0,5072.0,-14912.0,-5535.0,1158.0,-6499.0,0.13829590147585036,-0.10200696842164525,0.9645175260250635,-0.2004364338609583
-1910.7180304527283,4768.0,268.0,-16892.0,-4095.0,698.0,830.0,0.05378230970097401,-0.06508142813560754,0.9866821610606278,0.139033031757879
-1910.7336204051971,1736.0,2644.0,-15948.0,-3220.0,1018.0,-246.0,-0.0474368678277693,-0.10903872318131212,0.9120616208880324,0.39243330658950804
-1910.7492125034332,2264.0,2840.0,-16280.0,-4362.0,2250.0,-2987.0,-0.14819226635239127,-0.3627515988846037,0.6482391000809911,0.6528678264596844
-1910.7648043632507,-288.0,1236.0,-16216.0,-3092.0,1067.0,-554.0,-0.2639923206949696,-0.3986602523626927,0.4235770479899496,0.7693897206333852
-1910.7804276943207,-716.0,2012.0,-16636.0,-1242.0,-639.0,3500.0,-0.49257672311601813,-0.18805768680832463,0.4530170005443224,0.718872781161182
-1910.796092748642,-172.0,4572.0,-16448.0,-1254.0,-385.0,1780.0,-0.5984782219574012,-0.03904899750870382,0.41276603613930407,0.685509440522973
-1910.8117022514343,1056.0,4228.0,-16200.0,-1272.0,-119.0,1619.0,-0.6843023202817613,0.09128909690972663,0.3431951850680099,0.636878088953089
-1910.8273222446442,988.0,4260.0,-15916.0,275.0,-531.0,2688.0,-0.7971803551662778,0.17976313997110727,0.358862738849544,0.45100579764577214
-1910.8428831100464,1656.0,5524.0,-15220.0,586.0,-706.0,387.0,-0.7963464150680775,0.1782439602313765,0.423663704019561,0.3931546053980324
-1910.858469247818,1968.0,4260.0,-15684.0,-1252.0,2.0,-2692.0,-0.6625597077188791,0.1603909722811362,0.4092182030518514,0.606489762493316
-1910.8740813732147,1180.0,2768.0,-16140.0,-495.0,-1297.0,-569.0,-0.5741657930971895,0.23538352877054508,0.4623023859599021,0.6334072468454898
-1910.8896770477295,1768.0,2464.0,-16320.0,-1490.0,-303.0,-1196.0,-0.45861830352562816,0.2747502382588909,0.41409810935142854,0.7366846775110295
-1910.9053483009338,324.0,1404.0,-16688.0,-1255.0,-672.0,1418.0,-0.48786430860025953,0.41325441483376085,0.32165741932686176,0.6983879363264948
-1910.9210169315338,-4.0,2316.0,-16236.0,-601.0,-855.0,3047.0,-0.6043428087102724,0.5551486495172263,0.20384766039017607,0.5338781488812127
-1910.9366698265076,444.0,3540.0,-15632.0,-544.0,-510.0,2891.0,-0.6807115251624143,0.6379527087712343,0.06336683382007519,0.35444718260147506
-1910.9522788524628,632.0,3408.0,-15928.0,93.0,-692.0,2383.0,-0.7384387709085599,0.6521167359447014,-0.02468490795987517,0.1698310914965109
-1910.967871427536,1144.0,4288.0,-15716.0,755.0,-945.0,1798.0,-0.7957981920994796,0.6031518024862081,-0.053945212037045435,0.0017477720435645713
-1910.9835090637207,1624.0,4528.0,-15712.0,-359.0,-68.0,-1625.0,-0.7686957047512745,0.6293710154094773,0.035886223758112214,0.10821837830871185
-1910.9991130828857,892.0,3156.0,-16344.0,-516.0,-455.0,-605.0,-0.7306657463263103,0.6645050281121152,0.09450255309205552,0.12501960733507367
-1911.0147314071655,1948.0,2784.0,-16244.0,-393.0,192.0,361.0,-0.7123010608889553,0.689828715192091,0.05704011942935098,0.11623238416372211
-1911.0303227901459,4252.0,3824.0,-16204.0,-1634.0,3494.0,-1491.0,-0.579382165095706,0.70427285847479,-0.08172455517376036,0.40204122259590686
-1911.0460076332092,-4832.0,3048.0,-15836.0,-1325.0,1147.0,-761.0,-0.45658970054155973,0.7266214254124076,-0.13760191994056198,0.4945835228954568
-1911.061611175537,2104.0,2768.0,-16224.0,353.0,-212.0,2678.0,-0.5809023020053585,0.6712719602572743,-0.2761221421209276,0.3683789265522412
-1911.0772356987,-344.0,4188.0,-16096.0,-1159.0,879.0,-2075.0,-0.4148745890860304,0.7342164659082655,-0.23087655313580516,0.4852847346991286
-1911.0928506851196,4736.0,2664.0,-16152.0,-1635.0,3160.0,-2541.0,-0.1295080381354938,0.6642708199980197,-0.2351696542287009,0.6976153521012901
-1911.1084702014923,-3476.0,2016.0,-16112.0,-349.0,-266.0,2182.0,-0.2429977105204594,0.6280926776673375,-0.37300942061499404,0.6382128744196218
-1911.1241052150726,2608.0,4008.0,-16076.0,895.0,-935.0,3622.0,-0.496855866706438,0.5152615900224764,-0.4758480333082227,0.511085502400137
-1911.1397273540497,820.0,5944.0,-15532.0,-206.0,-400.0,1717.0,-0.5737902464415323,0.4653440234129957,-0.5386138288071973,0.4051108939290848
-1911.1553075313568,1988.0,5044.0,-15740.0,498.0,-619.0,672.0,-0.6440511916836111,0.4290906459142792,-0.5153446140409773,0.368102171765861
-1911.1708941459656,1824.0,4396.0,-15700.0,-32.0,498.0,-1543.0,-0.5650656100010143,0.47965662985119545,-0.48195049657595784,0.46728373894686565
-1911.1865212917328,504.0,2744.0,-16168.0,826.0,-1072.0,636.0,-0.6648758455038524,0.4522369029677043,-0.4186512779127724,0.4220817470132049
-1911.2021400928497,832.0,3312.0,-15952.0,651.0,-1585.0,587.0,-0.7605121658179914,0.4460613549036351,-0.32204580552370854,0.3448724582348477
-1911.217738866806,80.0,2596.0,-15980.0,162.0,-1628.0,784.0,-0.8257359730929784,0.45680414024549126,-0.23685625562757365,0.23106101870470314
-1911.2333931922913,-196.0,2376.0,-16432.0,299.0,-1895.0,1592.0,-0.8880126178841881,0.4307350038556635,-0.1542691998883344,0.04584714710585159
-1911.2490003108978,664.0,2844.0,-15996.0,482.0,-1480.0,1696.0,-0.9144471400248331,0.3693650550150616,-0.09951187459777375,-0.1321108286559462
-1911.2646090984344,660.0,3520.0,-15904.0,414.0,-1188.0,951.0,-0.918387591966171,0.3117107805837257,-0.039856168901310024,-0.24044148142733704
-1911.2802550792694,1048.0,3616.0,-16380.0,134.0,-765.0,-580.0,-0.9334463084412565,0.28620717146297997,0.03425175612213829,-0.2135187613843347
-1911.2959220409393,1092.0,3616.0,-15960.0,157.0,-626.0,-89.0,-0.9355639388448129,0.26135190332066166,0.08448291333442796,-0.22198634263930336
-1911.3115203380585,1644.0,3880.0,-15608.0,87.0,-103.0,177.0,-0.933115600457384,0.2537411727754546,0.08734039759754252,-0.23933731085874552
-1911.3271176815033,604.0,3480.0,-15728.0,-773.0,97.0,-1575.0,-0.9385648236232608,0.30342298785528155,0.12909832229007195,-0.10180464370498929
-1911.3427059650421,308.0,2864.0,-16244.0,-181.0,-28.0,-637.0,-0.937439509425158,0.31056328989130516,0.14977377432678185,-0.048222667538395506
-1911.3582961559296,328.0,3132.0,-16044.0,-249.0,-50.0,-1130.0,-0.9299365530933248,0.3145919550793774,0.18477440249458066,0.04591654607014451
-1911.3739037513733,508.0,3160.0,-15988.0,-34.0,56.0,-1266.0,-0.9191039216312291,0.2951282507617731,0.21375503374058832,0.14985353647795946
-1911.3895313739777,844.0,3184.0,-16352.0,18.0,149.0,-975.0,-0.9061246334924608,0.2727265733820844,0.2265532467468652,0.230720591057396
-1911.4051549434662,540.0,2876.0,-16048.0,-129.0,135.0,-566.0,-0.8930027141055856,0.2688316487308869,0.226696649579986,0.2808635368108497
-1911.4207446575165,432.0,2944.0,-16124.0,230.0,-52.0,879.0,-0.9159199020598128,0.2688995023048757,0.21534218851181963,0.2059406043447312
-1911.436322927475,496.0,3332.0,-16048.0,29.0,142.0,740.0,-0.9304512489987352,0.27750804810842106,0.18700083259031833,0.14926635616332112
-1911.4519445896149,780.0,3544.0,-16104.0,1.0,245.0,489.0,-0.939674619724577,0.282080977195484,0.15534750847927978,0.11536499884797267
-1911.4675481319427,1032.0,3348.0,-16104.0,-9.0,520.0,-1278.0,-0.9268416313221041,0.2585976990341877,0.14326894553988373,0.23144292978247258
-1911.4831476211548,592.0,2576.0,-16200.0,-335.0,233.0,-414.0,-0.9125606943156732,0.2756807247711177,0.12705531415161003,0.2740256636258788
-1911.4987905025482,780.0,2800.0,-15876.0,-177.0,109.0,958.0,-0.9289320799922772,0.29694163683802666,0.09097044484991684,0.2015818276457062
-1911.5144093036652,548.0,3480.0,-16068.0,-452.0,58.0,916.0,-0.9299909094572719,0.3387430139560985,0.05453133968540949,0.13189545790090412
-1911.5300161838531,700.0,3464.0,-16260.0,-485.0,180.0,854.0,-0.92272729789505,0.37894185556199167,0.009164681138068167,0.06995293019003508
-1911.5455901622772,508.0,3492.0,-15660.0,-274.0,509.0,196.0,-0.9138491995296353,0.3977814687418593,-0.03988739400564784,0.0711234099579914
-1911.5612046718597,732.0,3264.0,-16076.0,-370.0,399.0,-477.0,-0.8947348390183567,0.4259140497678995,-0.05734108459064411,0.12148576079142392
-1911.5768115520477,424.0,2920.0,-16052.0,-335.0,333.0,-198.0,-0.87749474281656,0.44936979841168134,-0.07948279016775549,0.14748642877191281
-1911.5923821926117,404.0,2968.0,-16052.0,-351.0,167.0,661.0,-0.8689814551193299,0.4687460122145147,-0.12247805218400597,0.10073496624754498
-1911.608009338379,660.0,3032.0,-16072.0,-468.0,212.0,971.0,-0.8520332031016705,0.490015707148622,-0.18162335488340656,0.030610202887916976
-1911.6236026287079,628.0,3136.0,-16100.0,-267.0,83.0,1137.0,-0.8377990593573439,0.48932721848364147,-0.23600431736456834,-0.05434677153517372
-1911.6392073631287,776.0,3460.0,-16032.0,-222.0,-25.0,922.0,-0.8214701141675007,0.4850199028676389,-0.27170131747748305,-0.12696826151798477
-1911.654801607132,1212.0,3872.0,-15860.0,-386.0,214.0,25.0,-0.7989991185490664,0.5142980432012975,-0.28376299484922085,-0.12874973425732747
-1911.6704366207123,1144.0,3432.0,-16084.0,-553.0,148.0,235.0,-0.7665558578554483,0.5481112882552777,-0.2981225375013211,-0.1519509299359866
-1911.6860747337341,1096.0,3332.0,-16084.0,-321.0,-38.0,1024.0,-0.7351830082093447,0.5402774077812629,-0.33895733464757366,-0.22959571505154558
-1911.7016570568085,1072.0,3508.0,-15956.0,-331.0,-115.0,1034.0,-0.6988864705660802,0.5264265328788895,-0.3721707658725225,-0.3097123306726082
-1911.7172696590424,620.0,3680.0,-16068.0,-340.0,-129.0,786.0,-0.6641096425989158,0.5168447791702973,-0.3902857663101263,-0.37350619468392277
-1911.7328758239746,608.0,3852.0,-15888.0,-157.0,-177.0,964.0,-0.6290747785696027,0.4856824014588437,-0.41701643147255774,-0.4409929974077473
-1911.7485167980194,912.0,4116.0,-15944.0,69.0,32.0,535.0,-0.6093703947488005,0.46328457333138284,-0.44381413070057574,-0.46590143110677595
-1911.7641043663025,996.0,3840.0,-15860.0,36.0,268.0,-959.0,-0.6368422846057468,0.5076306704431713,-0.41938485155534305,-0.4010727530628977
-1911.7797515392303,1052.0,3412.0,-16048.0,116.0,292.0,-1270.0,-0.671185852712604,0.55444140146687,-0.38112330735748406,-0.3112062146660966
-1911.7953493595123,840.0,3232.0,-15868.0,208.0,207.0,-431.0,-0.6851515679702342,0.5618094741469724,-0.3778161810013154,-0.26868639161709174
-1911.8109383583069,948.0,3072.0,-15968.0,-74.0,279.0,-490.0,-0.6827561170704667,0.5883853580391611,-0.3684404909461894,-0.22781211486511896
-1911.8265414237976,604.0,3004.0,-16272.0,-96.0,190.0,-298.0,-0.6770714367074466,0.6073343576494082,-0.3625112434511044,-0.20323593674601176
-1911.8421561717987,1500.0,3496.0,-15940.0,-244.0,1141.0,-607.0,-0.6344015534389269,0.6570450737002488,-0.39098892358023485,-0.11381608743090874
-1911.8577826023102,656.0,3460.0,-15932.0,-737.0,1733.0,-1774.0,-0.5368448488281824,0.756683867728706,-0.36872075217531464,0.057202618131012566
-1911.8733775615692,-404.0,2344.0,-16356.0,-366.0,311.0,-404.0,-0.49962575849872404,0.784246427378602,-0.35798799525802194,0.08471267815159836
-1911.8890035152435,652.0,3004.0,-15932.0,126.0,132.0,969.0,-0.5091344499605933,0.7448997998545265,-0.42762329095854645,0.05517899119948424
-1911.904613018036,432.0,4032.0,-15920.0,253.0,-210.0,1128.0,-0.5357758350900715,0.6890981882178971,-0.487941915842825,0.0007926487127311826
-1911.9202692508698,1388.0,4404.0,-15864.0,-124.0,-34.0,-162.0,-0.5294019887283694,0.7018109513007935,-0.4766485969790028,0.0010188045302936158
-1911.9359374046326,1020.0,3776.0,-16044.0,-512.0,-46.0,-803.0,-0.4978879695117654,0.7563853769271491,-0.42402192759663276,0.013933280427166636
-1911.951551437378,1168.0,3468.0,-15796.0,157.0,-171.0,-355.0,-0.5135221811081373,0.7625272443102004,-0.3927830474838206,0.02384635829548342
-1911.9671578407288,1008.0,3324.0,-16096.0,-403.0,159.0,-1465.0,-0.473731505471682,0.8233266271596986,-0.30067101355172066,0.08549074419578492
-1911.9831075668335,532.0,2760.0,-16248.0,-254.0,-417.0,323.0,-0.4679397562428499,0.8275269703979038,-0.3081840368810139,0.035413234858892514
-1911.9988310337067,892.0,3692.0,-15912.0,91.0,-108.0,140.0,-0.47749736905946655,0.8203982118688666,-0.31361089357421423,0.02431550812211178
-1912.014485359192,652.0,3596.0,-16048.0,-176.0,-56.0,-657.0,-0.4639295250866385,0.8444751912757825,-0.26420048012706965,0.042768602657118314
-1912.0300979614258,976.0,3708.0,-15932.0,20.0,19.0,-382.0,-0.46299895872365804,0.8520696928950936,-0.2366523571130354,0.06004052417587511
-1912.045710325241,832.0,3604.0,-15904.0,-324.0,6.0,-1098.0,-0.430598139040722,0.8835453277362597,-0.15619995492762714,0.09764461362870842
-1912.061360836029,976.0,3208.0,-16136.0,-355.0,14.0,-676.0,-0.3961029071062096,0.9041079970558394,-0.10740009984506131,0.11898081860097676
-1912.0770041942596,836.0,2920.0,-15972.0,-541.0,476.0,-449.0,-0.3430571858657722,0.9196750224389875,-0.0937893800185065,0.1664727380787891
-1912.0926220417023,1624.0,3108.0,-16016.0,-733.0,1272.0,-57.0,-0.2704774346281557,0.9162179064480855,-0.13681264635522392,0.26204771523167186
-1912.1082351207733,-796.0,2900.0,-15876.0,-342.0,144.0,410.0,-0.25026387669664574,0.915154123232032,-0.18061389814953385,0.2593058860639428
-1912.1239213943481,1192.0,3536.0,-16200.0,-176.0,168.0,793.0,-0.25059366091725405,0.90045834992002,-0.2509392907361412,0.2518075644857502
-1912.139535188675,640.0,4036.0,-15964.0,-151.0,-98.0,124.0,-0.2433038854373433,0.9031442990202279,-0.26181911021375776,0.23787464767231842
-1912.1551423072815,1264.0,3552.0,-15888.0,-197.0,-128.0,191.0,-0.2343231129945189,0.9054092779611144,-0.2781528196367881,0.21899252733049057
-1912.1707847118378,984.0,3592.0,-16004.0,58.0,-416.0,866.0,-0.2643633471062898,0.8881282320218057,-0.3357936172267255,0.16906481249027686
-1912.1864502429962,1024.0,3884.0,-15876.0,-151.0,-40.0,234.0,-0.25692832822678446,0.8851728376468906,-0.35514925860585667,0.15596757919020035
-1912.2020738124847,568.0,3488.0,-16108.0,-56.0,-318.0,508.0,-0.26872561666771616,0.8738982153348906,-0.38751725360480715,0.11797809262586112
-1912.217690229416,976.0,3716.0,-15980.0,116.0,-108.0,-108.0,-0.27978523460814225,0.8759112639203593,-0.3755328800660988,0.11608073148445654
-1912.2333552837372,712.0,3336.0,-16084.0,-109.0,-50.0,-609.0,-0.2662405839026538,0.8978108449280463,-0.3284132493000011,0.12327358150462213
-1912.2489533424377,920.0,3032.0,-16132.0,287.0,-261.0,696.0,-0.3026753926528832,0.8719963289838016,-0.3729216343942203,0.09454873622603421
-1912.2645559310913,924.0,3940.0,-16124.0,417.0,-230.0,928.0,-0.34782665910710137,0.8293522201523225,-0.4322822790108846,0.06575364169353325
-1912.280154466629,1132.0,4724.0,-15704.0,-120.0,384.0,-1309.0,-0.31461304668420714,0.8740489522693101,-0.3474585932583767,0.12778726800394388
-1912.2957906723022,544.0,3124.0,-16188.0,-117.0,75.0,-810.0,-0.293339084471837,0.898778380520768,-0.2883300043244114,0.15170831498627582
-1912.311422586441,1288.0,3212.0,-15948.0,178.0,155.0,-209.0,-0.3002327029615833,0.8971984651336247,-0.2734629913836989,0.17353164143097605
-1912.3270320892334,392.0,3232.0,-15920.0,-280.0,145.0,-603.0,-0.2649719799718702,0.915219974000552,-0.2338967777994403,0.19353177091954443
-1912.342678308487,848.0,3040.0,-16384.0,-33.0,-86.0,461.0,-0.27137603481716,0.9073681143724063,-0.2690701467706566,0.17504116334164602
-1912.3582849502563,560.0,3336.0,-15860.0,120.0,-115.0,596.0,-0.29198416848142944,0.8910955632208214,-0.3112745510524975,0.15427928062912902
-1912.3738927841187,824.0,3720.0,-15928.0,-127.0,217.0,-584.0,-0.2676547128101787,0.9059805805772208,-0.27270065803709814,0.1821935603516122
-1912.389524936676,856.0,3488.0,-16128.0,127.0,205.0,-510.0,-0.264113454863109,0.9108951670682556,-0.23487673929105535,0.21294833859875203
-1912.4051759243011,588.0,3344.0,-16112.0,-166.0,6.0,-1028.0,-0.23047424399212638,0.9319440909823179,-0.15574658033748445,0.23260446438660312
-1912.420789718628,824.0,3012.0,-16112.0,24.0,131.0,-73.0,-0.22888645065704719,0.9298212653216866,-0.15193950301228196,0.24486280788551282
-1912.4363887310028,696.0,3340.0,-15992.0,37.0,-25.0,42.0,-0.23286225110816694,0.9291557709807398,-0.1540496467313211,0.2423085462875363
-1912.452066898346,808.0,3652.0,-15988.0,41.0,61.0,363.0,-0.2426605361714342,0.9217827189929432,-0.18375493593984787,0.24013872380087195
-1912.4676790237427,532.0,3836.0,-15976.0,-40.0,160.0,-176.0,-0.23288253311416254,0.9220052259527792,-0.17378406263830026,0.2558733840379317
-1912.4833483695984,872.0,3596.0,-16032.0,-133.0,214.0,-291.0,-0.21206575723109233,0.923932358865247,-0.15759392617470921,0.2766609211373088
-1912.498951435089,728.0,3264.0,-16020.0,-265.0,208.0,-828.0,-0.16710115049267413,0.9324767223173855,-0.10076469447831658,0.30399151992603624
-1912.5145938396454,700.0,2940.0,-16360.0,-160.0,-21.0,344.0,-0.16309339014177537,0.9319406980871278,-0.13260850413616818,0.29546923016061716
-1912.530191898346,708.0,3220.0,-16356.0,-282.0,-14.0,477.0,-0.1522288241793595,0.9298140275250705,-0.17825358595331575,0.28372155082291717
-1912.5458438396454,900.0,3348.0,-15980.0,-229.0,-48.0,276.0,-0.14093936439395027,0.9293885939883934,-0.20556879149367202,0.27223961668415897
-1912.5614893436432,756.0,3388.0,-15980.0,-221.0,17.0,90.0,-0.12460573246471159,0.9299815969233256,-0.21827324110789367,0.26826187399093643
-1912.5770516395569,816.0,3372.0,-16032.0,-108.0,-42.0,279.0,-0.12292026037814387,0.9265974413889776,-0.24289709809540908,0.25943937815373913
-1912.5927486419678,816.0,3724.0,-16060.0,-52.0,-88.0,263.0,-0.12628235211511327,0.9233847937234089,-0.2643119108049661,0.24809777119369697
-1912.608374118805,1016.0,3760.0,-15956.0,-103.0,168.0,-558.0,-0.10166519750053768,0.932598617006212,-0.2231244986679228,0.264838564543507
-1912.624020576477,844.0,3368.0,-15904.0,-17.0,65.0,-188.0,-0.09445639476788839,0.9348582766194042,-0.20875309796992644,0.27118284645531765
-1912.6396443843842,828.0,3368.0,-16004.0,-121.0,5.0,-627.0,-0.06935374548310673,0.9457805915690182,-0.16024435728871023,0.2738811358161616
-1912.6552772521973,872.0,3120.0,-16068.0,-300.0,538.0,-1261.0,-0.006704671504722307,0.9453986865214574,-0.06608181757014464,0.31907611049739054
-1912.6708798408508,2608.0,3384.0,-16200.0,-898.0,2485.0,-1018.0,0.10697797713249486,0.8569627744534112,-0.008269559361007997,0.5040854391843966
-1912.6865122318268,-2172.0,2760.0,-15920.0,-130.0,80.0,-256.0,0.1279766742636389,0.8522925949736516,0.005935307706840049,0.5071331930764565
-1912.7021622657776,1772.0,3536.0,-16288.0,237.0,268.0,1538.0,0.041747105466167896,0.8361544175162232,-0.09404452741181477,0.5387565276794247
-1912.7177739143372,168.0,4516.0,-15788.0,234.0,66.0,154.0,0.018030327495426674,0.8325554666237004,-0.09397618282105574,0.5456141304509843
-1912.7333958148956,1396.0,3708.0,-16124.0,-306.0,313.0,-1330.0,0.10543300364596601,0.8221401790359028,-0.01131341954554143,0.559322281243283
-1912.748997926712,656.0,3092.0,-15936.0,193.0,-389.0,205.0,0.08112796976049942,0.8421368580686266,-0.020127275202012455,0.5327463351331326
-1912.7646219730377,904.0,3368.0,-15924.0,-137.0,-185.0,-668.0,0.12171557322314605,0.8494939486354999,0.021280009361592335,0.5129254445513484
-1912.7802438735962,452.0,2896.0,-16344.0,-117.0,-592.0,605.0,0.10410514434008081,0.8736059047281525,-0.03496003295284955,0.4740808351346557
-1912.795982837677,928.0,3088.0,-16036.0,228.0,-738.0,1293.0,0.03071652486987542,0.8947137388400613,-0.1296583550173673,0.42630098710294734
-1912.8115963935852,844.0,3752.0,-15984.0,-26.0,-402.0,340.0,0.015602155212739133,0.9049263757412075,-0.15805862980298452,0.39481932169715767
-1912.8272535800934,960.0,3824.0,-15904.0,108.0,-224.0,164.0,-0.001578174856687041,0.9103468911965784,-0.16751541779663967,0.3784238785452945
-1912.8428614139557,1252.0,3756.0,-16048.0,-78.0,-17.0,-535.0,0.022117981018343058,0.9178364319711467,-0.1274235522039268,0.3753003029653453
-1912.858470916748,860.0,3548.0,-16036.0,-154.0,103.0,-586.0,0.054791621011692694,0.9194802430278028,-0.08518610363147311,0.3798648295071965
-1912.8740737438202,736.0,3004.0,-16052.0,-163.0,-12.0,-46.0,0.06933680201269196,0.9194631824358604,-0.0869239158205546,0.37712610210643527
-1912.8896670341492,736.0,3076.0,-15984.0,-8.0,-117.0,458.0,0.05400079895061873,0.9191328875451121,-0.12451524708928506,0.3698305044043468
-1912.9052891731262,516.0,3528.0,-16128.0,50.0,-76.0,653.0,0.028095085691517762,0.9133385900158657,-0.17532514685967587,0.3664483306367347
-1912.9209575653076,776.0,4012.0,-16004.0,19.0,26.0,162.0,0.021882357037184674,0.9101015514011902,-0.18752600079247855,0.36887711722797756
-1912.9365706443787,808.0,3780.0,-16084.0,-230.0,181.0,-613.0,0.06281966233268539,0.9123846502712484,-0.14562549919276863,0.37736077427135456
-1912.952152967453,972.0,3256.0,-16016.0,-105.0,97.0,-351.0,0.08396543271349208,0.9127012370724379,-0.12052137771655881,0.3813146410367432
-1912.9678273200989,648.0,3112.0,-16092.0,-150.0,-251.0,-176.0,0.09910116440999989,0.9215165500004495,-0.11326467837937498,0.357990670157014
-1912.983503818512,752.0,3188.0,-16000.0,-24.0,-52.0,628.0,0.08078262839805257,0.9154637850019288,-0.16469648043138035,0.35815540570059873
-1912.9991161823273,864.0,3776.0,-15916.0,129.0,-159.0,975.0,0.037616490779422355,0.904041284708229,-0.23875668002658498,0.352547305914
-1913.014689207077,1216.0,3924.0,-15916.0,-17.0,333.0,-1004.0,0.07654371683943993,0.9109025991120874,-0.15828979105489585,0.37328522123310093
-1913.030291557312,640.0,3112.0,-16172.0,-126.0,240.0,-290.0,0.09928532651052085,0.9058344891897755,-0.13764355811266712,0.3881501681618634
-1913.045904636383,912.0,3072.0,-15900.0,-178.0,410.0,-639.0,0.1396080573577289,0.8961454470177279,-0.08938734707951058,0.41163434051629494
-1913.0615375041962,796.0,3108.0,-16112.0,-579.0,689.0,-745.0,0.21588120673544658,0.8658209882280652,-0.0432876049211732,0.4493055799591323
-1913.0771179199219,604.0,2916.0,-16160.0,-123.0,41.0,402.0,0.20935215534009247,0.8599596399006553,-0.07763653593982842,0.4589266401982531
-1913.0927593708038,572.0,3424.0,-15660.0,-141.0,-12.0,588.0,0.1959767347140561,0.8528613888472585,-0.1274278892173424,0.46688617875661564
-1913.108362197876,792.0,3532.0,-15920.0,-271.0,50.0,198.0,0.20850000914471387,0.8437870665587499,-0.15226842589302458,0.47049490854938536
-1913.1239969730377,688.0,3400.0,-16028.0,-254.0,-493.0,992.0,0.1789905997708615,0.8422569237384855,-0.24350601964586396,0.4463971975768647
-1913.139594078064,948.0,4052.0,-15808.0,-100.0,21.0,16.0,0.1861333642179836,0.8396617118805164,-0.2482361590878319,0.44575934050572275
-1913.1552419662476,752.0,3616.0,-16024.0,-48.0,-117.0,142.0,0.18152920492914107,0.8403987595692359,-0.26237545615360464,0.43810523014507774
-1913.1708409786224,852.0,3476.0,-15988.0,-255.0,84.0,-499.0,0.22092265737646669,0.843697529178382,-0.2339187272377387,0.42970884068574855
-1913.1865193843842,572.0,2980.0,-16144.0,-91.0,-222.0,370.0,0.20898572742487947,0.8422471488109786,-0.26866182544076833,0.41804967360746165
-1913.202143907547,912.0,3516.0,-16000.0,-75.0,-51.0,347.0,0.20048720864156083,0.8343504606912857,-0.29769368848473376,0.4183809935354484
-1913.2177333831787,572.0,3584.0,-16176.0,-1.0,-321.0,716.0,0.16563876852554402,0.8256676423848617,-0.3546580030614067,0.4062689300752158
-1913.2333436012268,1232.0,3960.0,-15976.0,-63.0,-242.0,-283.0,0.17260745780314776,0.8417751855991177,-0.33982296313024096,0.38228465330129147
-1913.2489380836487,704.0,3552.0,-16064.0,-193.0,-44.0,-634.0,0.206244155757252,0.8578301828474086,-0.29985895569275156,0.3628709581970043
-1913.2645246982574,996.0,3324.0,-16028.0,-46.0,-85.0,41.0,0.20608310683316625,0.858720363388658,-0.30591008923758467,0.355736008695063
-1913.280105829239,688.0,3392.0,-15996.0,-157.0,-37.0,198.0,0.21058881245094319,0.8516837158653104,-0.32621415016276134,0.35195387259404587
-1913.2957773208618,1004.0,3548.0,-16120.0,-214.0,15.0,-176.0,0.23218489741410128,0.8521848520522779,-0.3193463121387485,0.343349798702171
-1913.311419725418,504.0,3152.0,-16096.0,-225.0,11.0,-374.0,0.26014058826981395,0.857231792099298,-0.2978497295609467,0.3297970096124761
-1913.3270168304443,676.0,3080.0,-16024.0,64.0,-94.0,260.0,0.2452265903281874,0.8545063572065931,-0.3175069226013929,0.3299578139546368
-1913.3426671028137,740.0,3892.0,-15880.0,-181.0,114.0,-36.0,0.26277773032604396,0.848334156335694,-0.3175437738502613,0.3323296184931966
-1913.3582673072815,780.0,3376.0,-16128.0,-364.0,84.0,-754.0,0.31295687399313526,0.8562776999619593,-0.26964323335530677,0.31006293276365215
-1913.3738691806793,984.0,3260.0,-15924.0,53.0,-186.0,837.0,0.28102419062128153,0.8408464971016394,-0.33490358485749827,0.3191271869445673
-1913.3895254135132,944.0,3624.0,-15776.0,-243.0,254.0,-483.0,0.3191691358314897,0.8409312178362454,-0.29960998513780757,0.3181188557862489
-1913.4051716327667,416.0,3328.0,-16212.0,-78.0,-61.0,135.0,0.31936145334697935,0.8369803403577554,-0.3133638334884817,0.3150797991495557
-1913.4207699298859,824.0,3524.0,-16072.0,-196.0,89.0,-272.0,0.34327937385189056,0.8362743004365366,-0.2962883300531217,0.30824956024553773
-1913.4363539218903,532.0,3256.0,-16036.0,-96.0,-106.0,342.0,0.33799763181266423,0.8271249750443218,-0.32685197514754843,0.30787929922147583
-1913.4519729614258,796.0,3616.0,-16040.0,-58.0,-19.0,481.0,0.32826403155313394,0.8116302863397661,-0.3633840613303538,0.3185137796949606
-1913.467562198639,684.0,3780.0,-15876.0,-169.0,-8.0,228.0,0.3333933673308812,0.7996866838834213,-0.3843643517757065,0.31876969009514367
-1913.483146905899,904.0,3852.0,-16112.0,-11.0,144.0,-547.0,0.35362669976206057,0.8128677035703529,-0.34191989485691726,0.311905497240252
-1913.4987814426422,696.0,3108.0,-16132.0,-478.0,-15.0,-515.0,0.4001766982771021,0.8125182028256468,-0.31829501072714106,0.2799304670435633
-1913.514377117157,748.0,2936.0,-16008.0,-136.0,-282.0,975.0,0.37646434004888973,0.7846055275495278,-0.3990381524565743,0.28885518810352856
-1913.5300056934357,872.0,3516.0,-15720.0,-311.0,-83.0,432.0,0.38337323852984917,0.7607511964744041,-0.43873551555140644,0.2859960217131343
-1913.5456058979034,540.0,3760.0,-15964.0,-127.0,-247.0,671.0,0.3646890835817817,0.7356518811944922,-0.49376377078264766,0.28638352025524416
-1913.5611884593964,940.0,3760.0,-16040.0,-511.0,136.0,-842.0,0.4226345704202546,0.7495998363013716,-0.44652428205501393,0.24514520357922107
-1913.5767712593079,352.0,3068.0,-16148.0,-286.0,-311.0,401.0,0.4198867595446645,0.7292872019250037,-0.4897634517437533,0.22796282066057189
-1913.5923583507538,788.0,3172.0,-15980.0,-385.0,-141.0,477.0,0.42800850681713365,0.6966969504333511,-0.5322053025911373,0.21949850396508933
-1913.6079950332642,420.0,3180.0,-15992.0,-506.0,-435.0,1193.0,0.4125693935713886,0.6264257660278284,-0.6263020500535906,0.21242174380993759
-1913.6236026287079,824.0,3924.0,-15776.0,-47.0,-224.0,1286.0,0.37641022903279836,0.555141707417916,-0.7010718735978293,0.2421389109883552
-1913.6392149925232,624.0,4108.0,-15664.0,-435.0,151.0,-663.0,0.4195073092901497,0.5769176736040353,-0.6715991984562059,0.20033504927602724
-1913.654822587967,340.0,2972.0,-15888.0,-288.0,91.0,-386.0,0.445451847810511,0.5869931178446858,-0.6533650337591445,0.17356803722485317
-1913.6704354286194,-4.0,3052.0,-16008.0,-32.0,-43.0,1019.0,0.4272755677579823,0.5263488873490677,-0.7050237637791835,0.20816803426589325
-1913.6860473155975,348.0,3196.0,-16284.0,-2.0,-267.0,1209.0,0.38650290098765777,0.4542175402711783,-0.7661886067517523,0.23928425046779442
-1913.7016344070435,848.0,3904.0,-16240.0,157.0,-459.0,1129.0,0.32396263849038875,0.39147470834016285,-0.8185477729213622,0.26790913578638625
-1913.7172372341156,1196.0,4104.0,-16068.0,-453.0,-86.0,-318.0,0.34016647935043914,0.40300661971878843,-0.819817214000203,0.22309676469664075
-1913.7328612804413,932.0,3548.0,-16188.0,-309.0,-269.0,652.0,0.31818377808187304,0.35172183783172584,-0.8549132670742702,0.21017644477489889
-1913.7484498023987,1256.0,3780.0,-16196.0,-448.0,-212.0,254.0,0.3109065819735291,0.3239195054153648,-0.8758648766860301,0.17684447711129747
-1913.764084815979,772.0,3712.0,-16068.0,-464.0,-465.0,396.0,0.28153423191632676,0.28766581259431784,-0.904888410819031,0.13843345148172556
-1913.7797062397003,1112.0,3884.0,-15944.0,-353.0,-176.0,-240.0,0.2789665792844199,0.29989335651563376,-0.9067840890882468,0.09992115960363461
-1913.7953279018402,264.0,3644.0,-15904.0,-646.0,-364.0,-517.0,0.2704979687820382,0.32729325954152383,-0.9049935263466475,0.026394855827144854
-1913.8109202384949,620.0,3048.0,-15992.0,-670.0,-385.0,627.0,0.2565334518316534,0.2619181030963678,-0.9300919093604256,-0.0227713746623878
-1913.8264956474304,428.0,3144.0,-16364.0,-447.0,-792.0,1593.0,0.2027446317712759,0.11956979914119308,-0.971036294230687,-0.04106327687848495
-1913.8421039581299,312.0,3732.0,-16348.0,-383.0,-905.0,1467.0,0.13343154093507806,-0.014547063169598784,-0.9893416320714682,-0.05645831990941778
-1913.8577089309692,852.0,3380.0,-16020.0,-337.0,-650.0,1187.0,0.08182994388497579,-0.12321089895670295,-0.9864836536181545,-0.0705190456985912
-1913.8733477592468,812.0,3716.0,-15644.0,-282.0,-840.0,1795.0,0.017002814307743575,-0.28063967519430316,-0.956954883967454,-0.0720390662299903
-1913.8889787197113,544.0,3592.0,-15728.0,-913.0,-584.0,487.0,-0.05099501641260278,-0.3245663092462288,-0.9351044425876254,-0.1328002283742244
-1913.9045929908752,584.0,3336.0,-16080.0,-653.0,-741.0,1400.0,-0.11224488782405093,-0.43964230087048245,-0.874914419762196,-0.16923501568781268
-1913.9202456474304,288.0,3752.0,-15648.0,-368.0,-519.0,1190.0,-0.14716222105292412,-0.5309346043014163,-0.8131846107652559,-0.18757002816182505
-1913.9359254837036,28.0,3768.0,-15700.0,-709.0,-73.0,-346.0,-0.19018855602452567,-0.49734365673088077,-0.8148044924841351,-0.22928418893271407
-1913.9515373706818,-140.0,3424.0,-16116.0,-198.0,-436.0,480.0,-0.21958524049732686,-0.5360304523910506,-0.7814943159135334,-0.23177642343434174
-1913.9671473503113,360.0,4004.0,-15904.0,-230.0,-306.0,127.0,-0.24824958969418026,-0.5462092411705534,-0.7646470483268427,-0.23524986197999423
-1913.9827964305878,628.0,4216.0,-15976.0,-624.0,-15.0,-610.0,-0.2904221078884864,-0.4909662982939498,-0.7784226710390206,-0.26204052816620027
-1913.9984254837036,728.0,3208.0,-16204.0,-1144.0,-29.0,-319.0,-0.34659954910437,-0.4387155797914257,-0.761235361510537,-0.3285089298555558
-1914.0140254497528,124.0,3000.0,-16032.0,-484.0,-888.0,2225.0,-0.35219503762042975,-0.5842897452438935,-0.6214845864277058,-0.3851247303292188
-1914.0296142101288,860.0,3936.0,-15956.0,-632.0,-308.0,1561.0,-0.3446442532037557,-0.6527605609904915,-0.5057024371968686,-0.44652999200742544
-1914.0451924800873,68.0,3752.0,-16116.0,-470.0,-654.0,1539.0,-0.3363217193082687,-0.7238974208971376,-0.37589002329715243,-0.4707089499103118
-1914.0607953071594,1716.0,3836.0,-15924.0,-480.0,123.0,2026.0,-0.2747336150667926,-0.7589190548504512,-0.22815114258463648,-0.5445276531770944
-1914.076366186142,-516.0,3272.0,-15812.0,-122.0,-551.0,2681.0,-0.16175728192279465,-0.812826942588145,-0.03081496584164448,-0.5587462581780178
-1914.0920157432556,72.0,4188.0,-15704.0,171.0,-668.0,2673.0,-0.020500751590353576,-0.8313993589058799,0.15537437882859173,-0.5331168986242624
-1914.1075863838196,688.0,4988.0,-15576.0,703.0,-762.0,2105.0,0.13586925451400567,-0.8226719530619858,0.27110728167676484,-0.48088589617997873
-1914.1231727600098,912.0,5788.0,-16076.0,-63.0,24.0,-3211.0,-0.003988341386238895,-0.865179588309038,0.041877727423139985,-0.4996945357438517
-1914.1387913227081,224.0,3208.0,-16328.0,172.0,-426.0,-820.0,-0.025179277164464657,-0.8839923924750789,-0.02732257206126328,-0.4660224577245375
-1914.154382944107,832.0,3128.0,-15436.0,431.0,-27.0,-431.0,-0.009565329027425398,-0.8839036004036918,-0.07797074977138953,-0.4610243939902479
-1914.1700010299683,2924.0,3824.0,-15912.0,-351.0,2592.0,-1232.0,-0.06656543417866945,-0.7477053764415649,-0.15621155312871068,-0.6419530073783432
-1914.185602903366,-2120.0,3624.0,-16048.0,-244.0,2487.0,-1319.0,-0.11895717134443899,-0.5720648783804225,-0.2360909832018095,-0.776435453827377
-1914.2012178897858,-584.0,2752.0,-16104.0,1982.0,-297.0,3048.0,0.17188220411510136,-0.6439258951327348,-0.20512926837289883,-0.7167551414136073
-1914.2168102264404,-8.0,4936.0,-15616.0,1649.0,298.0,356.0,0.2888246031196037,-0.6004543532517166,-0.2808192257388861,-0.6907788942558094
-1914.2324028015137,956.0,3856.0,-15960.0,1795.0,17.0,411.0,0.40277589862090657,-0.557302340109661,-0.36256101470003654,-0.6290748666240742
-1914.248053073883,612.0,4112.0,-15704.0,3152.0,-412.0,-229.0,0.5109014221956641,-0.4451486008208726,-0.5408597977285916,-0.4982902158247281
-1914.263659954071,1828.0,4088.0,-15124.0,3628.0,999.0,-1747.0,0.58562398044895,-0.1481946456269537,-0.6790247483400489,-0.4171430110553965
-1914.279310464859,-1188.0,3448.0,-15632.0,4465.0,358.0,-973.0,0.5839384165224023,0.1398994537694686,-0.7762528776780017,-0.19203004567237733
-1914.2949359416962,-1620.0,4320.0,-16108.0,7858.0,-1533.0,2777.0,0.3460578328476612,0.2625909372796654,-0.8201686210295362,0.3723082178274819
-1914.3105232715607,316.0,8096.0,-16932.0,7894.0,-235.0,-4359.0,0.22777122680664744,0.6449304397379156,-0.37008272297763434,0.6286682545603149
-1914.326099872589,1724.0,4640.0,-17464.0,6035.0,1476.0,-7049.0,0.24937533839373485,0.7050668303780117,0.2992727583410623,0.5925609853986731
-1914.3416957855225,3212.0,2644.0,-17480.0,7749.0,2962.0,-3073.0,-0.11551222936097075,0.5069549607545775,0.7547595004747027,0.39998961121204174
-1914.3573405742645,964.0,4388.0,-18064.0,9641.0,1385.0,-1069.0,-0.4527845088845721,0.22121593208661222,0.8547901660186484,-0.12403012530437818
-1914.373012304306,4332.0,6692.0,-19400.0,9385.0,3346.0,-2613.0,-0.6780554117627822,-0.22935495561334174,0.4995107312445451,-0.4879817540506467
-1914.3887333869934,2960.0,6976.0,-20860.0,8709.0,6357.0,-6593.0,-0.7130599793540041,-0.5115690501039103,-0.2547701861552132,-0.40612156439407165
-1914.4043424129486,296.0,5616.0,-19476.0,9418.0,4984.0,-7301.0,-0.2922583444065074,-0.5035814944442607,-0.8126789058740861,0.023318115819047896
-1914.4199798107147,104.0,4116.0,-17804.0,9911.0,2657.0,-4718.0,0.24328685700020483,-0.3042841926449922,-0.7603959375948338,0.5196351156404084
-1914.4355838298798,776.0,2500.0,-17212.0,8348.0,4810.0,-4003.0,0.7140719660226693,-0.05885735866351255,-0.2855827258369643,0.6364585967486052
-1914.451189994812,-660.0,4780.0,-15776.0,10213.0,1648.0,2588.0,0.48596869185300257,0.3086864526257324,0.29097049997400315,0.7641225508051058
-1914.4668061733246,-2168.0,9704.0,-12632.0,11325.0,-2029.0,5647.0,-0.09604587608938846,0.7116206858808031,0.5386365470139473,0.4407287820572297
-1914.4824459552765,-8516.0,22532.0,-10568.0,9633.0,-82.0,-5843.0,-0.3319274357594473,0.2561510416970413,0.9075791835457754,0.02260192076046654
-1914.4980680942535,32.0,23384.0,-9632.0,1483.0,-2459.0,7084.0,-0.15320595565324457,0.6481927061564927,0.6849749790848161,-0.29526840140058075
-1914.5136516094208,-4592.0,24940.0,-9972.0,-13153.0,-86.0,-4397.0,0.30754616714866384,0.35599067823126623,0.8112586188833648,0.34719655149794426
-1914.5292475223541,-6956.0,14400.0,-14056.0,-19529.0,-4872.0,-4568.0,0.6784401560528401,-0.16694351815813868,0.1121151338052953,0.7065967825937235
-1914.5448694229126,-2672.0,11148.0,-16356.0,-20741.0,-5768.0,19.0,0.2027578297085931,-0.4882739173796899,-0.7085104704182364,0.4674299491969701
-1914.560425043106,-1496.0,9960.0,-20020.0,-20593.0,-5707.0,3662.0,-0.5500053533222344,-0.39543282524522744,-0.6978201318839624,-0.23275320743850347
-1914.5760879516602,-1592.0,8540.0,-22376.0,-19428.0,-5815.0,6585.0,-0.6820302527478475,0.008417894480474147,0.0960737615157784,-0.724937035705469
-1914.591727256775,-768.0,8516.0,-21748.0,-18968.0,-5688.0,6210.0,-0.10999066242808621,0.40091086051951585,0.7879293393523554,-0.4542465104807004
-1914.6073396205902,-1668.0,8308.0,-21564.0,-19384.0,-6264.0,8575.0,0.6162261389230362,0.4272451480381247,0.6058865464371057,0.26576008359496905
-1914.6229269504547,-3092.0,7736.0,-20736.0,-19238.0,-7618.0,9264.0,0.6863266972399245,0.026788595048437936,-0.26848875325496474,0.6753901281531013
-1914.6385300159454,-76.0,6996.0,-18732.0,-20279.0,-5771.0,9655.0,0.01302104811582884,-0.4756412296515833,-0.8116491856739304,0.3388531722683746
-1914.6541657447815,308.0,6148.0,-19740.0,-20175.0,-4209.0,5214.0,-0.6057543828065743,-0.35272024332281593,-0.5677258857318368,-0.43166813216975003
-1914.6697981357574,3740.0,2288.0,-18536.0,-25489.0,-288.0,4897.0,-0.4927342819239609,0.2993126146287207,0.22547342828734498,-0.7853576378169052
-1914.6853957176208,-1176.0,-5788.0,-21592.0,-18468.0,-3679.0,8051.0,0.29969985880832994,0.4882068537968919,0.7027132807403352,-0.4219337715888147
-1914.701007604599,-8788.0,10072.0,-16160.0,-8949.0,-7773.0,7423.0,0.9068821256464122,0.2682611963293579,0.3249023737459318,-0.006260052814905448
-1914.7165973186493,3584.0,12316.0,-13316.0,-15132.0,-2203.0,817.0,0.7933238115599686,-0.5434937885176025,0.0837417512669515,0.26122624475632406
-1914.7321915626526,-6616.0,6872.0,-17268.0,-18375.0,-4351.0,3570.0,-0.06555162362294352,-0.8657247646067909,-0.23909374640811631,0.43480777018752054
-1914.7478184700012,-2848.0,5736.0,-17316.0,-13435.0,-4787.0,11052.0,-0.8576782877815293,-0.44922750366854636,0.06084777036850385,0.24265233041751716
-1914.7634370326996,2044.0,6504.0,-15700.0,-13650.0,-4305.0,8918.0,-0.8761259312239777,0.399433935806189,0.24940572567973338,-0.10321176077105083
-1914.7790114879608,3052.0,5484.0,-15372.0,-14654.0,-972.0,1215.0,-0.20441212563420863,0.9438150925081888,0.25385342585964077,0.05465521225635639
-1914.7946650981903,72.0,-880.0,-15816.0,-10433.0,-3372.0,6755.0,0.4637073154561416,0.8612118635704207,-0.19414757715452827,-0.07480888933173485
-1914.8102576732635,444.0,1240.0,-14376.0,-8914.0,-2266.0,3794.0,0.8456254224876979,0.3183887136258441,-0.3872890890739091,-0.18317596284033638
-1914.8258657455444,-1480.0,1896.0,-14748.0,-7478.0,-2011.0,6600.0,0.8157289140327302,-0.3652732842701542,-0.44849661312530736,-0.003543250570599998
-1914.8415093421936,-1344.0,4140.0,-14628.0,-5840.0,-2716.0,5984.0,0.4164206487041473,-0.8061859131046871,-0.3566024992508471,0.22246971562985493
-1914.8571524620056,468.0,4780.0,-14500.0,-3750.0,-1467.0,2133.0,0.06063043823943382,-0.9110244697459088,-0.3091326136286526,0.26607403607679986
-1914.8727498054504,-2604.0,7016.0,-13444.0,-5295.0,-2716.0,3005.0,-0.4353123387495375,-0.8272024757539865,-0.17933474754498022,0.30672182863608144
-1914.888346195221,1388.0,3248.0,-12436.0,-4122.0,-42.0,111.0,-0.6928680714299087,-0.6317815968553786,-0.26351483434844786,0.22659607575193544
-1914.904022693634,-2736.0,3752.0,-12376.0,-4445.0,-560.0,-905.0,-0.8664105456319454,-0.3078282145501775,-0.3414019227795624,0.19498534269791232
-1914.9197132587433,-1112.0,1956.0,-13240.0,-3035.0,-218.0,-1717.0,-0.8849070608776144,-0.02268875131453353,-0.4045172410413902,0.22976186775222535
-1914.9353246688843,-960.0,1124.0,-12844.0,-2155.0,805.0,-4673.0,-0.6981911149535752,0.26626750304666635,-0.472875198805102,0.4669259364997967
-1914.9509258270264,-2216.0,-1032.0,-12632.0,1152.0,-1775.0,1160.0,-0.8272304020928027,0.215916605154356,-0.33761207101889074,0.3938121011019511
-1914.9665145874023,1332.0,3260.0,-12804.0,2967.0,-592.0,-711.0,-0.8455492449489195,0.041633003358333975,-0.17348831792556796,0.5032047008336011
-1914.982223033905,692.0,7636.0,-13356.0,2119.0,809.0,-7844.0,-0.4043642911547244,-0.02589725057819781,-0.09092423902872655,0.9096986507676452
-1914.997857093811,-168.0,4748.0,-13560.0,2872.0,528.0,-8465.0,0.21930591273798364,-0.08058039813672134,0.0783934977950532,0.9691574565455009
-1915.013517856598,-408.0,3132.0,-12220.0,3143.0,449.0,-5431.0,0.611503988439052,-0.08384935693385834,0.2760428227606864,0.7367716861193994
-1915.0291678905487,464.0,5020.0,-12936.0,3161.0,1576.0,-8227.0,0.8869031182562903,-0.16912222679526984,0.39674212945817844,0.16551801697720972
-1915.0447778701782,1184.0,3748.0,-14460.0,1398.0,5125.0,-12717.0,0.5840946749635391,-0.3677791626136578,0.40033873916511664,-0.6027443837565963
-1915.0603158473969,2564.0,184.0,-13860.0,4166.0,2913.0,-4500.0,0.326252608882781,-0.13735770790421498,0.15954003897058722,-0.9215416817712277
-1915.0759422779083,6440.0,-2480.0,-14768.0,4843.0,4000.0,-6504.0,-0.1526740632957801,0.18163198855946755,-0.15221092761668822,-0.9594437370907983
-1915.0915224552155,2792.0,-5128.0,-16940.0,8406.0,8873.0,-18980.0,-0.7953360102721289,0.4819924898737683,-0.3047750395679037,-0.20551410103951592
-1915.1071135997772,4704.0,-5628.0,-18052.0,11278.0,-5449.0,-16007.0,-0.8356963268779757,0.013506359027294981,0.26737344808357055,0.4795212891711772
-1915.1226768493652,8316.0,10872.0,-28156.0,32767.0,9536.0,15796.0,-0.512368042496338,-0.7015027381723199,0.26956563870380645,-0.4155806345288687
-1915.1382746696472,-11872.0,29652.0,-16812.0,28964.0,5046.0,-32768.0,-0.011664241130237821,-0.6509919386887421,-0.7588466164841968,0.015008460667740397
-1915.1538634300232,-9404.0,19644.0,-26472.0,-5051.0,11103.0,-9336.0,0.2682827574579443,-0.02512963066348303,-0.7815677504920855,-0.5626230666300663
-1915.1694974899292,-5584.0,2104.0,-18668.0,12028.0,8494.0,-136.0,0.5325132625416447,0.41934212310091895,-0.7208001811279603,0.14501347487860244
-1915.1850945949554,-3940.0,11284.0,-20224.0,14037.0,10399.0,294.0,0.36694188488391155,0.5055308098068879,-0.0387795894478836,0.7799284562676809
-1915.20072722435,-14604.0,14596.0,-20540.0,6649.0,7238.0,-16477.0,0.6253418975883822,0.14442425615273796,0.7038204845108982,0.30450922964359256
-1915.2163255214691,-4852.0,-24.0,-21272.0,3212.0,7264.0,-10989.0,0.2778863493414463,-0.35384222891044853,0.8547429362595965,-0.25882304148528334
-1915.2319450378418,-1672.0,824.0,-15036.0,11532.0,3219.0,2484.0,0.3076082321843503,0.1256820920915178,0.5123408416646387,-0.7918889121475863
-1915.2475564479828,4376.0,9340.0,-13848.0,16848.0,3474.0,2845.0,0.09008682811566311,0.5192201752772446,-0.3240145097052272,-0.7856903782569871
-1915.263149023056,3352.0,16160.0,-12032.0,8915.0,4107.0,-8105.0,-0.5039950428284029,0.7360317710793024,-0.3586049509093671,-0.2750431201640066
-1915.278739452362,784.0,4380.0,-11368.0,-6740.0,2094.0,-12819.0,-0.19293470605526983,0.9149198315032965,0.32946101663850597,0.13097075870921795
-1915.294340133667,4808.0,-4376.0,-16260.0,-559.0,4532.0,-4683.0,-0.19535790778880305,0.641007863671654,0.5390773430349945,0.5102350681811421
-1915.3099422454834,1816.0,-380.0,-17796.0,11375.0,3575.0,12994.0,-0.8599472549149095,0.49000330782529034,0.14050172426727425,-0.025431133724395538
-1915.3255362510681,-14216.0,12056.0,-18564.0,3949.0,1525.0,-10159.0,-0.7717192231866414,0.05229978692983178,0.32575625715434403,0.5436883608981288
-1915.3411619663239,2672.0,1712.0,-16980.0,-241.0,3841.0,-8410.0,-0.37410388867994676,-0.27449959505627514,0.07342458050454594,0.8827825801216369
-1915.356766462326,-1232.0,344.0,-16428.0,7773.0,2849.0,11198.0,-0.6790537345998852,-0.4296888839660389,0.5384806565584106,0.2535588117861251
-1915.3723566532135,-8212.0,12272.0,-13868.0,3183.0,4121.0,-4921.0,-0.5462265018176129,-0.7977995560100773,0.1527959762443048,0.2044648301927904
-1915.3879840373993,488.0,2584.0,-15324.0,175.0,3045.0,-4280.0,-0.4526955195321937,-0.8341698765188649,-0.26099585577673334,0.17637615193486186
-1915.403627872467,3064.0,3056.0,-13996.0,3032.0,2738.0,-2557.0,-0.11986237100906154,-0.8645846426024043,-0.46880941325205633,0.13544054724646418
-1915.419296503067,1024.0,2724.0,-17140.0,158.0,3949.0,2046.0,0.027529663623093583,-0.9289749853073486,-0.32984124348143723,-0.1656875022221948
-1915.4348888397217,-100.0,3024.0,-17264.0,891.0,2637.0,2436.0,0.20051658931458977,-0.9125738024755893,-0.13223713158736553,-0.33093125188539385
-1915.4504749774933,1924.0,4548.0,-16616.0,609.0,3315.0,3980.0,0.36589266699378215,-0.7757285108835326,0.2048819158119857,-0.4715837510090914
-1915.466084241867,-1460.0,4192.0,-16300.0,81.0,2545.0,-210.0,0.30946719237306414,-0.6562493062191782,0.26220525031366543,-0.6362509816413081
-1915.481673002243,-612.0,3912.0,-16508.0,-718.0,1795.0,-348.0,0.20483603355421273,-0.5757639761978226,0.32592945025196585,-0.7213238083753384
-1915.497302532196,-48.0,3876.0,-16144.0,926.0,1315.0,2905.0,0.381085294126451,-0.37847600783409185,0.4199430053506672,-0.7315584613355068
-1915.5128901004791,732.0,5480.0,-15480.0,1206.0,2408.0,3005.0,0.49467465745792744,-0.0704377332760835,0.4928104573406571,-0.7123716460777351
-1915.5285155773163,5480.0,5388.0,-14880.0,-1766.0,5753.0,-7386.0,-0.17144614054935062,-0.08208803112545116,0.6195367803556374,-0.761604854122694
-1915.544088602066,960.0,3660.0,-15908.0,-3724.0,7001.0,-7964.0,-0.7895636057184776,0.005924586601475371,0.5036512061491405,-0.3505562356355313
-1915.5596826076508,-4320.0,400.0,-17104.0,-3004.0,2024.0,3931.0,-0.6856188965701421,0.40569864113320103,0.4117248903062759,-0.44251322686548045
-1915.5752892494202,176.0,1832.0,-16344.0,1619.0,-2185.0,9278.0,-0.23386088828271595,0.4264814661090777,0.11590510464026157,-0.8660188512471311
-1915.5909075737,1560.0,3892.0,-15988.0,-2895.0,2365.0,-961.0,-0.21093263931262493,0.6205693162007921,0.30533617965755594,-0.6907756241029499
-1915.6064949035645,-1784.0,-644.0,-17552.0,-5616.0,2076.0,4132.0,0.24229621731182238,0.8098775021789915,0.32245732553433143,-0.425925166842658
-1915.6220948696136,-3920.0,772.0,-17692.0,1511.0,-5403.0,23392.0,0.49753833516373114,0.558851533936422,-0.645576249937689,-0.15287862367185695
-1915.6376821994781,5632.0,6084.0,-15248.0,2410.0,-1183.0,6467.0,0.3408108369898163,0.24189843799678565,-0.8913022629008913,0.17582205559248384
-1915.6533596515656,4940.0,8692.0,-15008.0,420.0,826.0,4674.0,0.2995567895839203,-0.11242448847918554,-0.8855704487128918,0.3367364615998924
-1915.6689591407776,4960.0,7996.0,-13068.0,24.0,-3975.0,7398.0,-0.18140355701175254,-0.457097203684192,-0.7390726903544379,0.4603547048307742
-1915.6845662593842,8256.0,7480.0,-13528.0,-3628.0,1639.0,175.0,-0.21475181400275506,-0.4503719577639017,-0.8536953815656767,0.1491675351270177
-1915.700189113617,-1192.0,5040.0,-15704.0,-3178.0,-1257.0,2314.0,-0.43589101027004895,-0.5145408429010571,-0.7343812673383421,-0.077012351833693
-1915.715808391571,640.0,4824.0,-16932.0,157.0,-3195.0,4107.0,-0.5514847787489009,-0.7332155029656323,-0.3911347071322351,-0.07261684305800961
-1915.731418132782,1960.0,5896.0,-15248.0,-489.0,-590.0,-2143.0,-0.6044408662755149,-0.6282103742523086,-0.48728742212881077,0.05053645310998568
-1915.7469942569733,192.0,4820.0,-15436.0,-777.0,-1779.0,772.0,-0.7141022749022439,-0.6024865849232357,-0.34890702259937006,0.07301880270053446
-1915.7626411914825,1256.0,3592.0,-16064.0,-1347.0,-1036.0,338.0,-0.8092382875201836,-0.5166126240927718,-0.2721575431609228,0.06461472231613925
-1915.7782299518585,-376.0,3936.0,-16984.0,2385.0,-2921.0,6633.0,-0.6728009710695689,-0.687805883327648,0.20515805882986815,-0.1793658024398162
-1915.7938342094421,4220.0,7436.0,-14504.0,3374.0,-734.0,-1267.0,-0.4539509264283394,-0.8761623915077187,0.11373737789705009,-0.11546353957605485
-1915.8094198703766,2512.0,6256.0,-14740.0,1012.0,1252.0,-5366.0,-0.3978154013901486,-0.8597912185381926,-0.320065833243279,-0.0077349422551414755
-1915.8250086307526,244.0,4324.0,-15856.0,485.0,189.0,-2210.0,-0.3505336048189228,-0.7993607045480511,-0.48338408553334133,0.06699613250173175
-1915.8406069278717,1008.0,3008.0,-17124.0,654.0,1783.0,-964.0,-0.22001086682156704,-0.7759160786905467,-0.5912269206708344,-0.000430794604223679
-1915.8562376499176,3720.0,4136.0,-16256.0,824.0,4287.0,-2208.0,0.05254244042816342,-0.6232391599137829,-0.7569117765841068,-0.18946451903220846
-1915.8718767166138,-916.0,4736.0,-16104.0,-892.0,3828.0,-5195.0,0.14841022099276244,-0.1920214818640282,-0.8756597899809336,-0.417518968453134
-1915.8874809741974,-208.0,2168.0,-15720.0,-1830.0,4081.0,-2984.0,0.29039218949297074,0.14573909888974637,-0.7299931662335809,-0.6012840165749916
-1915.9031171798706,-1536.0,668.0,-16504.0,-291.0,1229.0,2737.0,0.49891123941879095,0.02762113865983131,-0.6949737766806596,-0.5170455469365932
-1915.91881108284,-1140.0,2784.0,-17100.0,-428.0,477.0,4722.0,0.6849103641305978,-0.23621684964575027,-0.6154397013286182,-0.310376170281273
-1915.934454202652,1224.0,2480.0,-15864.0,1037.0,-259.0,8658.0,0.7373389239857626,-0.5142468081884362,-0.3825496504079657,0.21339469631709845
-1915.9500403404236,2204.0,5728.0,-15224.0,3394.0,-1235.0,6763.0,0.6003582864466815,-0.41456680553914527,-0.07934947944917317,0.679270161092785
-1915.9656331539154,5484.0,8044.0,-13900.0,653.0,-1092.0,489.0,0.5832764187637407,-0.31688940839697316,-0.07960930781554133,0.7436612671566888
-1915.9812161922455,5060.0,7364.0,-16336.0,-2049.0,-1669.0,-2384.0,0.6395651380465619,-0.28309875684787866,-0.3471867941349991,0.6247182229172843
-1915.9968769550323,1724.0,6096.0,-18912.0,-5763.0,-2222.0,-4456.0,0.5601739916102664,-0.29039152703322335,-0.7459121151978031,0.21329082622530493
-1916.012538909912,-1980.0,244.0,-16168.0,-3313.0,-3606.0,4882.0,0.12871977140769872,-0.601929554458985,-0.7365158522632914,0.28045753917916866
-1916.028137922287,3800.0,2832.0,-13368.0,2158.0,-1934.0,3457.0,0.03080593503679438,-0.700341704652628,-0.4875214556467826,0.5204760526429647
-1916.0437660217285,1044.0,7876.0,-14324.0,1148.0,-323.0,3591.0,-0.07215973742689845,-0.7933825939767517,-0.20584383130166975,0.5683004038220029
-1916.0593521595001,-2472.0,5476.0,-15784.0,-346.0,-993.0,-1668.0,-0.03084769910210293,-0.7018949639570468,-0.32741156222906054,0.6318176540352193
-1916.074951171875,988.0,2776.0,-15948.0,1153.0,-438.0,2268.0,-0.09542306623469858,-0.7276219601311621,-0.12076730711680748,0.6684878301786865
-1916.0905661582947,2504.0,4308.0,-15356.0,2923.0,-834.0,3886.0,-0.1334915110473678,-0.683790139067107,0.27875468380333535,0.660989325519391
-1916.106184720993,2316.0,4860.0,-15268.0,1154.0,-55.0,715.0,-0.10383899423086254,-0.6721117846334195,0.3860616892355639,0.6232492152731406
-1916.1218225955963,2240.0,3508.0,-16028.0,1876.0,-1899.0,5041.0,-0.18264503675912008,-0.3725313166496507,0.7171644005391816,0.5599432393214632
-1916.1374080181122,3576.0,4852.0,-16388.0,1590.0,-614.0,6887.0,-0.36476196604605327,0.053636178981216434,0.8745961310180764,0.3148864494364986
-1916.1529746055603,-920.0,5192.0,-16312.0,858.0,-1345.0,2610.0,-0.32614661029132674,0.2535528030282359,0.8974766795444505,0.1545152883887853
-1916.168562412262,1288.0,4176.0,-15980.0,299.0,-262.0,1172.0,-0.3258447346884404,0.3383840141641915,0.8780476636856335,0.09139895037772097
-1916.1841378211975,456.0,4364.0,-15916.0,1572.0,-1443.0,4144.0,-0.27274364808495,0.5768364923141063,0.7497122423124828,-0.17550531983635137
-1916.1998143196106,2760.0,6232.0,-15000.0,813.0,343.0,-981.0,-0.3486692150334702,0.4953127755384835,0.7734773125371527,-0.186622291987349
-1916.2154333591461,616.0,3888.0,-15588.0,120.0,507.0,-3287.0,-0.42386651241400825,0.2670463816822493,0.8626485561457383,-0.06971999902521935
-1916.2310438156128,1780.0,3288.0,-15740.0,1026.0,-50.0,-923.0,-0.44613866448373596,0.15816306840440192,0.8735950305687117,-0.11303299700187146
-1916.2466707229614,536.0,3492.0,-16004.0,765.0,-44.0,-696.0,-0.4580895282781289,0.07456965380163255,0.8739662053650077,-0.14414028823932368
-1916.262267589569,1040.0,3612.0,-16208.0,453.0,-147.0,463.0,-0.44301726176862705,0.0897458424971794,0.8698320638947612,-0.1976703572872758
-1916.2778627872467,1004.0,3768.0,-16008.0,747.0,-542.0,1203.0,-0.3834103744407483,0.1415772001000918,0.8611368797706983,-0.30231714387677344
-1916.2934799194336,1644.0,4588.0,-15296.0,692.0,-9.0,437.0,-0.3786353977087687,0.15062509765122997,0.8358231931582565,-0.3678952369061274
-1916.3091118335724,1436.0,4260.0,-15572.0,155.0,496.0,-1598.0,-0.4630615843054672,0.044378788594749474,0.8267906272479798,-0.31626215543163744
-1916.3247425556183,1076.0,3648.0,-15816.0,703.0,68.0,-256.0,-0.4765561818948713,-0.0006557587637243628,0.8040963041510435,-0.3554193426487348
-1916.3403406143188,1736.0,4488.0,-16072.0,330.0,627.0,-1448.0,-0.5597833765598406,-0.09565746899935207,0.7604054587386017,-0.31508055838537286
-1916.3559436798096,172.0,3592.0,-15668.0,125.0,346.0,-1942.0,-0.6256708606635389,-0.21797228388497158,0.7135148015523249,-0.22786111019711627
-1916.3715236186981,780.0,3360.0,-15724.0,156.0,403.0,-1345.0,-0.6692687367380082,-0.3000606342476285,0.6580370782463554,-0.17038244467380317
-1916.3871150016785,840.0,3484.0,-16600.0,7.0,359.0,-1719.0,-0.7067933101716787,-0.38942932665869345,0.5853065715237096,-0.07876695732271792
-1916.4027090072632,1152.0,3772.0,-16052.0,423.0,80.0,-1366.0,-0.7002186240672043,-0.48114965078714866,0.5271070040962519,-0.01863057405208584
-1916.4183173179626,1752.0,4092.0,-15636.0,119.0,280.0,-1672.0,-0.702903319000624,-0.5589284440487535,0.4349944055802276,0.06561848584850882
-1916.4340059757233,1144.0,3728.0,-15944.0,-163.0,118.0,-1731.0,-0.6971788766876788,-0.6085064549412029,0.3386343208934708,0.17025952222537827
-1916.4496042728424,1752.0,3640.0,-16220.0,217.0,-63.0,-70.0,-0.6823894912379056,-0.6229009175878216,0.3420205055275116,0.1713505264509793
-1916.46519613266,1120.0,3956.0,-15912.0,-44.0,60.0,-976.0,-0.6693210970725787,-0.6481456359274437,0.28381708763241686,0.22663707642312708
-1916.4807879924774,912.0,3504.0,-15648.0,111.0,-11.0,-662.0,-0.6483517972852442,-0.6698618751820122,0.24888598477464705,0.26264192680793774
-1916.4963729381561,1268.0,3568.0,-15688.0,53.0,153.0,-11.0,-0.6480524524297191,-0.6767414493851172,0.24087421170314716,0.2530388186036777
-1916.5120158195496,740.0,3512.0,-15872.0,117.0,30.0,-366.0,-0.6331207548191262,-0.69152809149663,0.22010946046259633,0.2692560749605352
-1916.5276160240173,1092.0,3744.0,-15848.0,26.0,111.0,26.0,-0.6340541390430982,-0.6952412270252037,0.2162320781062145,0.26049697388774573
-1916.5432603359222,612.0,3652.0,-16080.0,-49.0,88.0,-281.0,-0.6318740856312677,-0.6998039610568159,0.19321484575038841,0.2714361423585547
-1916.5588703155518,904.0,3496.0,-16044.0,-14.0,132.0,-80.0,-0.6327941368310513,-0.7036522769810275,0.18078095389097343,0.26788673017140974
-1916.5744531154633,808.0,3364.0,-16000.0,-133.0,29.0,-210.0,-0.6361508301667332,-0.7003457197491266,0.16321105347435763,0.27962500984540734
-1916.5900325775146,756.0,3360.0,-16160.0,-203.0,-97.0,-7.0,-0.6466784298300639,-0.6868963568986939,0.1632537903307597,0.2886669416723463
-1916.6056220531464,1232.0,3564.0,-16012.0,-206.0,-173.0,614.0,-0.6706871337059344,-0.6612559507053566,0.20436050131554614,0.26675104843305125
-1916.6212153434753,1568.0,4076.0,-15824.0,-22.0,-452.0,1703.0,-0.6951674513913733,-0.6120954465316514,0.32484273563766425,0.19120297059585606
-1916.6367824077606,2424.0,4712.0,-15416.0,89.0,175.0,389.0,-0.7011493166908475,-0.6091387475925593,0.3363697088388835,0.15554755176784613
-1916.6523606777191,964.0,4384.0,-15880.0,-279.0,371.0,-1572.0,-0.6982139584802715,-0.6369726291607674,0.22415569000824764,0.2377338102169226
-1916.6679799556732,480.0,3424.0,-16696.0,-432.0,-172.0,-367.0,-0.7101032747865091,-0.6136745549353372,0.20508845645534848,0.27766095294649173
-1916.6835782527924,1464.0,3476.0,-15844.0,18.0,-49.0,888.0,-0.7274007095259141,-0.5961414174953312,0.2554457548796131,0.22416753654764224
-1916.6991698741913,812.0,3808.0,-15852.0,-2.0,91.0,216.0,-0.7334065153181739,-0.5930792737208795,0.2609146518047174,0.20565846164257431
-1916.7148056030273,892.0,3900.0,-16056.0,-134.0,-16.0,-396.0,-0.732185431385508,-0.5930625743075736,0.2389851760089371,0.23466436173920593
-1916.730422258377,1520.0,3716.0,-15632.0,-79.0,15.0,200.0,-0.7403610254584413,-0.5842717911128831,0.2468264949317081,0.2226403096736891
-1916.7460131645203,900.0,3864.0,-15876.0,-80.0,82.0,290.0,-0.7513692459389602,-0.5744660438243039,0.25477013928040987,0.2013087103952833
-1916.7616016864777,1276.0,3856.0,-15944.0,-74.0,115.0,-164.0,-0.7544319546278206,-0.5754071594093746,0.23777955968594408,0.2078458749468925
-1916.7771866321564,1544.0,4168.0,-15928.0,116.0,188.0,-422.0,-0.7440213897847465,-0.5949208837507797,0.20625029142958737,0.22352210384025933
-1916.792751789093,964.0,3664.0,-16148.0,-58.0,14.0,-608.0,-0.734192588735429,-0.6017512134295409,0.17249614858731904,0.2628722094565828
-1916.8083429336548,1500.0,3616.0,-15568.0,91.0,-48.0,209.0,-0.73314951566263,-0.6034418203355122,0.18868909847224963,0.2504918786538681
-1916.8239438533783,1380.0,3676.0,-15836.0,26.0,213.0,661.0,-0.7481724660323105,-0.5980091352642456,0.21014655151248357,0.19611594045118166
-1916.8395354747772,856.0,4072.0,-15968.0,165.0,-55.0,8.0,-0.73840606437591,-0.6078527311195093,0.2170423458900788,0.1953564983663567
-1916.855120897293,1224.0,3764.0,-15760.0,-62.0,87.0,-111.0,-0.7411864745231028,-0.6076168911000307,0.20456979799670993,0.19898623415083944
-1916.870713710785,1096.0,3708.0,-15672.0,206.0,54.0,579.0,-0.7400083354704935,-0.6108841376711689,0.23510300937961004,0.154708786940474
-1916.8862965106964,796.0,4060.0,-15880.0,236.0,118.0,186.0,-0.7318591497002664,-0.623875821622982,0.240576645162813,0.13146871109301123
-1916.901911497116,872.0,3740.0,-16112.0,235.0,-18.0,-80.0,-0.7173839602450045,-0.6404245158731549,0.24009716505697604,0.13255204405603307
-1916.917530298233,1204.0,3604.0,-15856.0,263.0,120.0,60.0,-0.7054399529822306,-0.6570143326154843,0.23898966559006385,0.11649282902997748
-1916.9331867694855,1012.0,3596.0,-15748.0,143.0,226.0,-332.0,-0.6978731900023339,-0.6747848240843575,0.20743680765114728,0.12086530806194967
-1916.9487891197205,976.0,3528.0,-16056.0,153.0,73.0,-88.0,-0.6889353323791862,-0.6865835391118985,0.19946927118744512,0.11909307902690836
-1916.9643857479095,1224.0,3812.0,-15928.0,180.0,223.0,37.0,-0.6819724458021028,-0.6990658467900585,0.19016291059762117,0.10029253437538536
-1916.98002243042,956.0,4076.0,-15984.0,60.0,201.0,-373.0,-0.6776810694763354,-0.7103014783369956,0.15592918051871751,0.10911584948324446
-1916.995630979538,1296.0,3796.0,-16036.0,64.0,180.0,-572.0,-0.6695616333997044,-0.7227951621311894,0.11035044389862388,0.1306795783978663
-1917.011295080185,1052.0,3684.0,-16076.0,-109.0,233.0,-757.0,-0.6681983967905746,-0.7248293656360333,0.04768293908900939,0.16080929872990835
-1917.0268914699554,1004.0,3456.0,-16052.0,-26.0,30.0,-438.0,-0.6631116118330196,-0.7252445019187659,0.017889002262257918,0.18434583338626562
-1917.0424699783325,1176.0,3836.0,-15832.0,-111.0,134.0,-439.0,-0.6625072714340281,-0.7212735943469751,-0.019381536880971304,0.2011787101632922
-1917.0580713748932,1124.0,3560.0,-15624.0,-116.0,35.0,-271.0,-0.6645581677426926,-0.7147105254056766,-0.04045898178664649,0.21427640409901627
-1917.073657989502,1072.0,3616.0,-15748.0,-90.0,151.0,-390.0,-0.6616772711035729,-0.7106712068110267,-0.07514906977851556,0.22689698549366313
-1917.0892543792725,956.0,3836.0,-15956.0,-226.0,138.0,-512.0,-0.6636095597963216,-0.6963486047814366,-0.11918191226618838,0.24600131006653853
-1917.1048877239227,1064.0,3540.0,-15904.0,-166.0,138.0,-410.0,-0.6627208515719324,-0.6851086705987782,-0.15552446597275138,0.2593054624300035
