programtime,ax,ay,az,gx,gy,gz,q0,q1,q2,q3
-10412.08895945549,3836.0,-2256.0,15184.0,723.0,-2536.0,4349.0,0.9139761136011153,0.057513191549583335,-0.20252998022149146,0.3468739016932012
-10412.104539871216,3704.0,-2404.0,15488.0,834.0,-2963.0,4911.0,0.6324879166602713,0.11305611041543913,-0.39094289270864263,0.6590455263614803
-10412.120116472244,3612.0,-2268.0,15696.0,1279.0,-3224.0,5359.0,0.17615575457427335,0.16265252815121478,-0.47873968164110825,0.8445836977106278
-10412.13573050499,3976.0,-2020.0,16404.0,1178.0,-3125.0,5726.0,-0.34037946801128516,0.14874036741365568,-0.4510048524632249,0.8115495942409373
-10412.15129327774,4000.0,-1532.0,16836.0,1195.0,-2877.0,5770.0,-0.7619162649383441,0.07801007888976189,-0.30860842591835336,0.5640557350707573
-10412.166881799698,3904.0,-880.0,16836.0,1110.0,-2544.0,5866.0,-0.980456191198376,-0.024844390190326807,-0.10829147261294098,0.16236185012546855
-10412.182467460632,3972.0,-272.0,16888.0,1051.0,-2014.0,5618.0,-0.9518831215024006,-0.12309885406673061,0.08081591356563056,-0.26876380567490127
-10412.198053359985,3804.0,-400.0,16404.0,1063.0,-1587.0,5210.0,-0.7263865717505424,-0.19042177564070656,0.21941075880446298,-0.6228651657166134
-10412.213621139526,3612.0,-364.0,16432.0,1032.0,-1374.0,5090.0,-0.36784674613255275,-0.2108571757512415,0.3031573476208646,-0.8534187983501332
-10412.229210853577,3444.0,-380.0,16220.0,922.0,-1371.0,4953.0,0.04940662557914247,-0.19238807187824108,0.3361749683083435,-0.9206151236161285
-10412.24478340149,3236.0,-444.0,15876.0,672.0,-1476.0,4767.0,0.4458768745319595,-0.15394626778246168,0.32557764490122876,-0.8194471041708739
-10412.260361909866,3296.0,-624.0,15856.0,423.0,-1578.0,4591.0,0.7589893515801185,-0.11029054137447172,0.27179159369954153,-0.581292086876796
-10412.275983572006,2956.0,-856.0,15804.0,177.0,-1859.0,4294.0,0.9466754372676212,-0.08423300664414085,0.1672912015542149,-0.2621527626182747
-10412.291585445404,3072.0,-972.0,15972.0,151.0,-2076.0,3900.0,0.99579170955005,-0.05810410872493574,0.01929348078398734,0.06819490699390418
-10412.307184457779,3560.0,-916.0,16316.0,172.0,-2134.0,3473.0,0.922810500491093,-0.02309742602109726,-0.13926510127062577,0.3584585340909884
-10412.322788953781,3756.0,-848.0,16260.0,223.0,-2009.0,2877.0,0.7733090213174615,0.02200496368499538,-0.2754464718154648,0.5706471591856601
-10412.338356256485,3884.0,-648.0,16564.0,255.0,-1710.0,2339.0,0.5963889833987471,0.06610706665273024,-0.3706347631699929,0.7089287048421045
-10412.353980064392,4312.0,-324.0,16524.0,208.0,-1246.0,2044.0,0.4193685852858244,0.08606300818369259,-0.42494023800914554,0.7975894573140185
-10412.36954665184,4296.0,-208.0,16324.0,12.0,-833.0,1221.0,0.30096130591344084,0.09841009179853724,-0.4597438989551731,0.8296826462862623
-10412.385183095932,4312.0,-248.0,16344.0,-74.0,-549.0,833.0,0.21847515787298968,0.1024228177584995,-0.4846352215683582,0.8407775412141846
-10412.400777816772,3868.0,-452.0,16284.0,-177.0,-449.0,325.0,0.17703866888510605,0.11810708298639684,-0.5082470137604208,0.8345016474947481
-10412.416370391846,3632.0,-724.0,16356.0,-212.0,-376.0,-37.0,0.16516792563741226,0.14375701623657142,-0.5285598843503011,0.8201694491255991
-10412.432001829147,3976.0,-984.0,16556.0,-162.0,-214.0,-390.0,0.18513672004167925,0.1745786129596116,-0.5377173762365096,0.8038076424634386
-10412.44758939743,4072.0,-1140.0,16416.0,-112.0,18.0,-682.0,0.23515979791864733,0.20312813701487928,-0.5337534240705207,0.7864770255314013
-10412.463218688965,3988.0,-1244.0,16364.0,-107.0,237.0,-914.0,0.3098321670157191,0.22643494416090393,-0.5180841328350784,0.7644083173603731
-10412.478805065155,3752.0,-1248.0,16272.0,-144.0,282.0,-1021.0,0.3919093946763719,0.2487675468269185,-0.49756081570147453,0.7327721123846078
-10412.494429826736,3648.0,-1244.0,16360.0,-181.0,187.0,-1144.0,0.4747132134247285,0.2787771667901871,-0.4752532753402193,0.6863417374419235
-10412.510022640228,3672.0,-1284.0,16048.0,-132.0,-24.0,-1134.0,0.5422491452314911,0.32011865794763766,-0.4541580484647213,0.6302621489064978
-10412.525590896606,3644.0,-1492.0,16044.0,-115.0,-77.0,-1139.0,0.6021326714356917,0.36214884952973714,-0.4300155831180866,0.5668959825661292
-10412.54118847847,3620.0,-1296.0,16100.0,-213.0,-124.0,-1201.0,0.6599530353517993,0.39976938907702814,-0.4066662681884817,0.48915127824077087
-10412.55677819252,3748.0,-1404.0,16092.0,-376.0,-207.0,-1288.0,0.7157978849598366,0.4295332214934254,-0.38689274837663024,0.3917251597409616
-10412.572417020798,3744.0,-1340.0,15880.0,-411.0,-229.0,-1213.0,0.7601576191744016,0.44962179202364017,-0.3673289989979896,0.2916676955778459
-10412.58807349205,3784.0,-1364.0,15876.0,-480.0,-217.0,-1222.0,0.7978838553228854,0.4592485258235224,-0.3436054643682862,0.1854923982277036
-10412.60366845131,3836.0,-1044.0,16140.0,-432.0,-139.0,-1239.0,0.825738706564134,0.46534777816416,-0.30850685329449024,0.08019074329249455
-10412.619279623032,3936.0,-1192.0,15880.0,-762.0,-180.0,-1369.0,0.853480649993937,0.4441995971127531,-0.26861849536206794,-0.045843232436348226
-10412.634851932526,4012.0,-1112.0,16276.0,-581.0,-113.0,-1517.0,0.8587633345819905,0.4315174421152547,-0.21369672708109128,-0.1750769578292857
-10412.650446414948,3964.0,-1156.0,16256.0,-643.0,-116.0,-1622.0,0.8463338350074308,0.4068922757461132,-0.14970365726081117,-0.3094293629610831
-10412.66606760025,3980.0,-1204.0,16180.0,-715.0,-36.0,-1767.0,0.8124580987766892,0.37087247717889876,-0.06932721667119174,-0.44447629906664365
-10412.681647777557,3892.0,-1248.0,15948.0,-769.0,50.0,-1821.0,0.7559186597621254,0.32426552759056343,0.022650253701915635,-0.5682656187445132
-10412.697223901749,3892.0,-1432.0,15912.0,-744.0,-64.0,-1890.0,0.6729265335316031,0.2638967257586627,0.10709270981898357,-0.6826855426231204
-10412.712800979614,3872.0,-1476.0,15740.0,-734.0,-172.0,-1841.0,0.573216959441165,0.1902321250860713,0.18032714717268836,-0.7763479735188487
-10412.728390693665,4184.0,-1504.0,15748.0,-624.0,-163.0,-1803.0,0.45765383401909077,0.1177245395654212,0.24089364381841508,-0.8477406167924378
-10412.744045495987,4208.0,-1512.0,15828.0,-562.0,-181.0,-1770.0,0.33190685478572984,0.04389060587937222,0.28942286385330435,-0.8967418024943066
-10412.75962471962,4556.0,-1452.0,16108.0,-518.0,-222.0,-1764.0,0.19884432312477096,-0.03278005768822372,0.32583440886725207,-0.9236981871678306
-10412.775264263153,4448.0,-1420.0,16028.0,-538.0,-215.0,-1668.0,0.06811500148443726,-0.10573279778800951,0.35625131545543676,-0.9258865601578662
-10412.790842533112,4580.0,-1632.0,16168.0,-475.0,-186.0,-1576.0,-0.057286473652314276,-0.17084916539242687,0.3748438736866553,-0.9094068907704498
-10412.806438684464,4608.0,-1672.0,16040.0,-450.0,39.0,-1453.0,-0.17907620455757242,-0.2111657841074672,0.385089051022276,-0.8803676205803438
-10412.822023391724,4520.0,-1876.0,15692.0,-343.0,168.0,-1529.0,-0.305704321575153,-0.24194991753373865,0.37687634601577297,-0.8402198075441283
-10412.837622880936,4296.0,-1960.0,15496.0,-296.0,175.0,-1097.0,-0.3962233190150314,-0.25592212708673096,0.3687024725643896,-0.8009802950516456
-10412.853204488754,4268.0,-1884.0,15612.0,-155.0,95.0,-857.0,-0.4613646078658162,-0.2705947158428095,0.3558883233186792,-0.7663319774694188
-10412.868802785873,4280.0,-1952.0,15696.0,-42.0,-28.0,-650.0,-0.5042037001239125,-0.2903636606514811,0.3437482212274777,-0.7370920795649432
-10412.884382486343,4208.0,-1756.0,15632.0,43.0,-52.0,-531.0,-0.535189839427797,-0.3110472373552389,0.3292975514963807,-0.7130109217153766
-10412.899986505508,4260.0,-1636.0,16092.0,77.0,-79.0,-474.0,-0.5598821765294266,-0.3327263673369898,0.31490121454792896,-0.6904073710206471
-10412.915600538254,4344.0,-1300.0,16252.0,18.0,-42.0,-470.0,-0.5860926853137688,-0.3485942486293251,0.3018322633602016,-0.6662392204299515
-10412.931272268295,4580.0,-1484.0,16212.0,55.0,139.0,-532.0,-0.6183591973356316,-0.3567478296809462,0.2749012050845627,-0.6440436448963868
-10412.946862459183,4164.0,-1508.0,16152.0,254.0,256.0,-583.0,-0.6482652970160905,-0.3692028619501082,0.2281439540630047,-0.625613049445891
-10412.962465763092,3948.0,-1504.0,16372.0,0.0,301.0,-707.0,-0.6913691842317358,-0.3658129063334958,0.18783418349723777,-0.5940605088410704
-10412.978140354156,3888.0,-1536.0,16044.0,-13.0,320.0,-1019.0,-0.7466862748973555,-0.36333995518537193,0.13602636801244422,-0.5403151960209389
-10412.993741989136,4056.0,-1568.0,16116.0,23.0,262.0,-805.0,-0.784948053163893,-0.3608162662840192,0.09208301734066912,-0.4951655215546735
-10413.009370803833,3804.0,-1516.0,15968.0,37.0,288.0,-834.0,-0.819772183575226,-0.35630688672504873,0.044382697317494946,-0.44614924149597424
-10413.02493929863,3744.0,-1464.0,15972.0,57.0,284.0,-878.0,-0.850590527280927,-0.3513441864372305,-0.005384310361974783,-0.3911828559109427
-10413.040533542633,3788.0,-1460.0,15996.0,71.0,173.0,-883.0,-0.8758380332188436,-0.3489809894686637,-0.04748866778836799,-0.32994671537765985
-10413.05610704422,3848.0,-1508.0,15968.0,47.0,115.0,-826.0,-0.8954170646441151,-0.3447044718659722,-0.0824570325942301,-0.2694586149958318
-10413.07174038887,3992.0,-1584.0,16036.0,77.0,118.0,-783.0,-0.9085605292843326,-0.3412831236383374,-0.11663394559483396,-0.21080824671063964
-10413.087321281433,4164.0,-1596.0,16356.0,103.0,230.0,-713.0,-0.9143682926917964,-0.33703322567926286,-0.15752071357730965,-0.159770006265931
-10413.102891921997,4112.0,-1728.0,16192.0,126.0,282.0,-594.0,-0.9136028934086976,-0.334239586607136,-0.1987677686082654,-0.11876458252542198
-10413.118458271027,4292.0,-1732.0,16080.0,111.0,283.0,-573.0,-0.9100346732836926,-0.3295254699408049,-0.2386626412237487,-0.07930953136817069
-10413.13403058052,4048.0,-1704.0,16024.0,146.0,265.0,-468.0,-0.9025888735208693,-0.3289991607850456,-0.27370283395855394,-0.046686574966689307
-10413.14960861206,4348.0,-1716.0,16012.0,120.0,224.0,-397.0,-0.8947551104678544,-0.32764219945849654,-0.3028260609202183,-0.018980470310318347
-10413.165187597275,4164.0,-1620.0,15964.0,135.0,179.0,-342.0,-0.886269486385705,-0.3285122452636501,-0.3264477917457671,0.006159665394027639
-10413.180773973465,4176.0,-1704.0,16068.0,122.0,189.0,-222.0,-0.8770380907709653,-0.3314789380406555,-0.3470866510101312,0.02137188954750754
-10413.19635295868,4208.0,-1560.0,16100.0,123.0,188.0,-215.0,-0.8671693274061767,-0.3344957223194646,-0.36718796765478884,0.03609661709141807
-10413.21199798584,4244.0,-1596.0,16004.0,105.0,194.0,-185.0,-0.8571387329025291,-0.33691197184808674,-0.38667881966626366,0.04778081419551377
-10413.227580070496,4224.0,-1560.0,16000.0,144.0,228.0,-201.0,-0.8441138453718581,-0.3416045976117664,-0.40873430569520314,0.0609457323353996
-10413.243178606033,4264.0,-1592.0,15960.0,178.0,233.0,-191.0,-0.8291979934694675,-0.34888824973811516,-0.4303186684832901,0.07438763590578457
-10413.258786201477,4244.0,-1552.0,16068.0,176.0,292.0,-141.0,-0.8116412787184278,-0.35795369631040636,-0.4542454319626044,0.0822719485556265
-10413.274410247803,4156.0,-1496.0,15964.0,170.0,307.0,-2.0,-0.7938767846210172,-0.37186802625968945,-0.4744985838968246,0.07952933902294099
-10413.290009260178,4112.0,-1436.0,15848.0,124.0,289.0,-313.0,-0.7752328713187886,-0.36915133336650197,-0.5033392748202564,0.09690646378843125
-10413.305577993393,4024.0,-1508.0,15888.0,63.0,217.0,-374.0,-0.7600548317748211,-0.3584876722390911,-0.5290552639967285,0.11791424504994294
-10413.321149349213,4008.0,-1516.0,15812.0,104.0,149.0,-449.0,-0.744732866575339,-0.3458123207410923,-0.5513292141587594,0.1477257387228893
-10413.336719989777,4024.0,-1612.0,15632.0,126.0,147.0,-445.0,-0.7275619440588827,-0.3341224188253392,-0.5720851272250931,0.17814161221739552
-10413.352282524109,4092.0,-1576.0,16032.0,109.0,70.0,-447.0,-0.7134426605706145,-0.3194902433049189,-0.5872953809909838,0.209784865940186
-10413.367942094803,4324.0,-1628.0,16264.0,42.0,90.0,-453.0,-0.6988815531042402,-0.3002295447666655,-0.6041784297439304,0.23747677825834754
-10413.383548259735,4120.0,-1628.0,16032.0,60.0,195.0,-418.0,-0.6778918620869614,-0.28559909237947334,-0.6251806532716301,0.2608542361610235
-10413.399142026901,4344.0,-1720.0,16072.0,86.0,228.0,-424.0,-0.653142309018464,-0.2724434196589606,-0.6466101402317618,0.28473677985820833
-10413.414771318436,4152.0,-1624.0,15960.0,109.0,232.0,-355.0,-0.6282558961060024,-0.2641482951137649,-0.665003053972595,0.3054359923186157
-10413.430365085602,4020.0,-1608.0,15808.0,33.0,168.0,-305.0,-0.6094057173049197,-0.2525712645082574,-0.6799736865655256,0.32010656606709037
-10413.445984363556,3940.0,-1660.0,15744.0,255.0,37.0,-268.0,-0.5938609409235489,-0.2510888398060265,-0.6802895216696481,0.3485537893593211
-10413.461568117142,3976.0,-1672.0,15812.0,18.0,-97.0,-248.0,-0.5915917666971345,-0.2342368192066827,-0.6798863009865324,0.3645640023849712
-10413.477190494537,4016.0,-1644.0,15864.0,73.0,-149.0,-187.0,-0.5929199425656544,-0.2220706754993809,-0.673450218525318,0.38156960041307175
-10413.49277305603,4140.0,-1664.0,16096.0,37.0,-209.0,-153.0,-0.5993057842425363,-0.20793113485103099,-0.6641074570519581,0.39567474726217033
-10413.508347034454,4184.0,-1588.0,16024.0,48.0,-137.0,-169.0,-0.6004955868343181,-0.1958306404122105,-0.6581350068546875,0.4097727702283693
-10413.52397441864,4236.0,-1576.0,16112.0,81.0,-53.0,-152.0,-0.5967145348759022,-0.18937874234871577,-0.6548830774178176,0.42331502539600824
-10413.53953576088,4180.0,-1660.0,16116.0,126.0,-22.0,-123.0,-0.5913417331959836,-0.18802767646160537,-0.6509407176755094,0.4373062194130251
-10413.555261850357,4124.0,-1536.0,16236.0,121.0,33.0,-116.0,-0.5830559585857725,-0.1888735945324654,-0.6497596796880475,0.44964972267054476
-10413.570877313614,4012.0,-1636.0,15884.0,78.0,46.0,-174.0,-0.5723138155279021,-0.18470395558143918,-0.6517153871186311,0.4621778873348194
-10413.586446523666,4084.0,-1524.0,15940.0,120.0,101.0,-504.0,-0.5437871083793939,-0.1658771761900427,-0.6592490624681645,0.49210874490750595
-10413.602029800415,4028.0,-1504.0,15952.0,146.0,41.0,-233.0,-0.529208069609523,-0.16106620525748302,-0.6580050764324273,0.5109068564555306
-10413.617621660233,3996.0,-1512.0,15996.0,155.0,10.0,-279.0,-0.5138682291144006,-0.1525406318392721,-0.6551223192319868,0.53243360674267
-10413.633199453354,3932.0,-1432.0,15960.0,115.0,5.0,-14.0,-0.5114281563784131,-0.15707571758288008,-0.6500525755800453,0.5396296033307941
-10413.648781061172,4028.0,-1484.0,15912.0,61.0,15.0,-320.0,-0.49451922058207337,-0.14224043980026585,-0.6518692807321319,0.5570321701644337
-10413.664363622665,4320.0,-1512.0,16064.0,111.0,42.0,-266.0,-0.4777109662346229,-0.13384569258569753,-0.6512731973763763,0.5742131883669943
-10413.680039644241,4016.0,-1304.0,15988.0,167.0,72.0,-268.0,-0.45809711322727376,-0.129083815199701,-0.6486701606972591,0.5938951305805762
-10413.695626497269,4044.0,-1308.0,16080.0,160.0,101.0,-237.0,-0.4381785273032538,-0.12720579347194072,-0.64674989832256,0.6111733251192201
-10413.711255311966,4056.0,-1556.0,15940.0,196.0,127.0,-128.0,-0.42192814933554895,-0.13416526549615074,-0.6422896338391746,0.625651935660208
-10413.726820707321,4020.0,-1556.0,15988.0,183.0,168.0,-93.0,-0.4052144030107707,-0.14477539927201802,-0.6392912652288145,0.6372974576760793
-10413.742416858673,4092.0,-1504.0,16060.0,218.0,198.0,-25.0,-0.389923199526575,-0.16199826033864786,-0.6341638243639103,0.6477288830879397
-10413.757993459702,4020.0,-1388.0,16000.0,185.0,214.0,-64.0,-0.3717549537623863,-0.1767392204931759,-0.6315829539808943,0.657011776556066
-10413.773587465286,3984.0,-1384.0,16052.0,143.0,228.0,-44.0,-0.35438456067645174,-0.1919175774539433,-0.63117516906277,0.6627194976586637
-10413.789152622223,4000.0,-1332.0,15976.0,145.0,236.0,-119.0,-0.33198077389287145,-0.20336919410413487,-0.6317596919047288,0.6703054738993012
-10413.804729223251,3920.0,-1404.0,15980.0,134.0,246.0,-136.0,-0.30798817626489866,-0.214006451672972,-0.6331277840133777,0.6771216515764912
-10413.820312738419,3960.0,-1292.0,15980.0,121.0,214.0,-168.0,-0.2838952042678969,-0.2204879094022613,-0.6345549028920604,0.6841992911548194
-10413.835931062698,3968.0,-1396.0,16012.0,113.0,238.0,-341.0,-0.2480117337043993,-0.218397492196711,-0.6397178205721192,0.6939407938647096
-10413.851524829865,3956.0,-1364.0,15936.0,130.0,273.0,-329.0,-0.2102098775970123,-0.2191485924842,-0.6434400726940569,0.7026881062208967
-10413.867107868195,4000.0,-1372.0,16036.0,159.0,273.0,-330.0,-0.17146092045424438,-0.22003993849365114,-0.6444018594897196,0.7119900432666773
-10413.882695198059,3932.0,-1472.0,16000.0,182.0,299.0,-215.0,-0.13769346556145132,-0.2290434674575607,-0.6411876696712417,0.7193455162981537
-10413.898273468018,3936.0,-1292.0,16132.0,242.0,317.0,-179.0,-0.10379080446430254,-0.24159968441848112,-0.6328250340414028,0.7282784753705416
-10413.913880586624,3948.0,-1508.0,16080.0,215.0,324.0,-142.0,-0.07227203933197325,-0.25606645567151126,-0.6245846347283595,0.7342348103106181
-10413.92953491211,3844.0,-1636.0,16016.0,217.0,320.0,-52.0,-0.04659820458398747,-0.2748800286293184,-0.613407833948795,0.7389184031004653
-10413.945177793503,3860.0,-1620.0,16336.0,1.0,381.0,16.0,-0.027170409461004043,-0.3000767033003375,-0.6140779286005371,0.7294683259688499
-10413.960745334625,3888.0,-1504.0,16372.0,254.0,401.0,83.0,-0.00428103209233718,-0.3302971308735661,-0.5960671311782157,0.7318397729215639
-10413.97644329071,3804.0,-1480.0,16216.0,186.0,423.0,74.0,0.018373626004833207,-0.3608612980302418,-0.5816411802819612,0.7287901418457652
-10413.992414951324,3768.0,-1444.0,16264.0,167.0,508.0,-10.0,0.050036119742825014,-0.39189665479793606,-0.5698185808165982,0.7205693468608187
-10414.008075714111,3784.0,-1332.0,16368.0,208.0,587.0,-99.0,0.0924681955544127,-0.42226594358390396,-0.5566430033414178,0.7094291173409449
-10414.023641109467,3712.0,-1224.0,16052.0,184.0,642.0,-90.0,0.13582169484504053,-0.45529634900093635,-0.542379280710896,0.6928798002910528
-10414.039268016815,3700.0,-1256.0,15988.0,188.0,534.0,-38.0,0.17070850278406718,-0.48289163176443584,-0.5254824890011562,0.6793691432514818
-10414.054864168167,3564.0,-1280.0,15948.0,135.0,354.0,-46.0,0.19530447570391873,-0.499402628607951,-0.5137985100041835,0.669674747490875
-10414.07049369812,3520.0,-1296.0,16052.0,188.0,336.0,-39.0,0.22077439652079595,-0.5137123234917085,-0.4984414835379436,0.6625061524409585
-10414.086089372635,3600.0,-1332.0,16260.0,291.0,407.0,-68.0,0.25527106342354794,-0.5280831472809258,-0.476303253744481,0.6550573136824774
-10414.101702928543,3732.0,-1360.0,16136.0,430.0,562.0,-98.0,0.3035329254425137,-0.5454116436775563,-0.44279985287153006,0.643678640635377
-10414.11734366417,3784.0,-1252.0,16392.0,484.0,746.0,-20.0,0.3555301101339898,-0.5719129481920049,-0.39555416304836766,0.6245404907398301
-10414.132948160172,3636.0,-1248.0,16292.0,443.0,805.0,-16.0,0.4050841879030986,-0.5994710527825714,-0.3460667581807504,0.5973098496332611
-10414.148547172546,3476.0,-1164.0,15916.0,369.0,747.0,-38.0,0.4478327845791944,-0.6224711961218231,-0.301570459035169,0.5665956806154008
-10414.164133310318,3432.0,-1140.0,15844.0,399.0,634.0,87.0,0.4809408017149493,-0.6390298765374072,-0.25175436489812486,0.5449371540766053
-10414.179797410965,3488.0,-1060.0,16108.0,374.0,648.0,112.0,0.509691272846415,-0.6550771610932971,-0.2000584466849271,0.5206393543597737
-10414.195435285568,3636.0,-936.0,16304.0,442.0,748.0,-45.0,0.5485820994372701,-0.666589615352509,-0.14882662853212378,0.4822515935908895
-10414.211057186127,3736.0,-760.0,16328.0,441.0,863.0,-125.0,0.5886707153007429,-0.6776046156219894,-0.09586097477121436,0.4302667165270866
-10414.226639986038,3788.0,-516.0,16288.0,445.0,853.0,-135.0,0.6250519094219813,-0.6830831984171511,-0.043153419808191235,0.3752935343527629
-10414.24222779274,3792.0,-944.0,16244.0,529.0,948.0,-56.0,0.6591395109044265,-0.6818917083839987,0.022442928149089145,0.31631490350269653
-10414.25779080391,3796.0,-1104.0,16220.0,499.0,869.0,-72.0,0.6865950191703815,-0.6746172316918975,0.08159248386813184,0.25849862075263164
-10414.273407459259,3716.0,-908.0,15796.0,395.0,737.0,38.0,0.7019827019720912,-0.6654221682711037,0.1365118052381621,0.21400502595958634
-10414.288993358612,3732.0,-748.0,15764.0,154.0,659.0,55.0,0.7009240402521134,-0.6663700206224179,0.18259816722336586,0.17695873739095158
-10414.30458188057,3716.0,-616.0,15652.0,-90.0,459.0,-28.0,0.6883356734710455,-0.6787526928725552,0.2074396582725173,0.14985850233202616
-10414.320173978806,3832.0,-660.0,15836.0,-270.0,395.0,-99.0,0.6659802222914746,-0.7012144263248099,0.22152519833088552,0.12528071812943903
-10414.33584022522,3856.0,-740.0,15660.0,-386.0,373.0,-198.0,0.636614445814465,-0.7305775561332932,0.22654007531085624,0.09827551135861703
-10414.351436376572,3872.0,-972.0,15960.0,-499.0,352.0,-271.0,0.599236494671228,-0.7653211830182546,0.22411591418638754,0.07050650527489283
-10414.367072343826,4100.0,-1260.0,16088.0,-508.0,206.0,-198.0,0.5618549664851453,-0.7959502564992423,0.21821871674545754,0.05623857641096933
-10414.382685661316,4236.0,-1624.0,16344.0,-456.0,193.0,-129.0,0.5266937374743482,-0.8208528885595324,0.21623565935085937,0.04512628805777289
-10414.398277044296,4004.0,-1708.0,16444.0,-498.0,361.0,-186.0,0.48425307056681294,-0.8473082974394059,0.217175641331434,0.020058752434506257
-10414.413879394531,3888.0,-1560.0,16376.0,-628.0,440.0,-116.0,0.428763360053275,-0.874788810151695,0.22555790656988792,-0.005490855399416459
-10414.429518461227,3836.0,-1700.0,16196.0,-712.0,503.0,16.0,0.3635165961907161,-0.8982585442988033,0.24522090992486917,-0.029222888695849495
-10414.445123434067,3328.0,-1772.0,16088.0,-710.0,426.0,262.0,0.2985984707900376,-0.9114604933069365,0.2802777767411609,-0.03902678884508313
-10414.460772514343,3444.0,-1724.0,15936.0,-674.0,460.0,622.0,0.23494644446816754,-0.9085953165294867,0.34267288945772384,-0.04277861432004134
-10414.476369857788,3408.0,-1836.0,16080.0,-567.0,551.0,936.0,0.17602398851291653,-0.8851130571937245,0.4278830862468224,-0.0500649174280533
-10414.492008209229,3356.0,-1808.0,16452.0,-236.0,597.0,1175.0,0.13970346202871203,-0.8365431254323653,0.5252941686040385,-0.06888090025278457
-10414.507596254349,3288.0,-1616.0,16780.0,226.0,558.0,1185.0,0.1368477506988434,-0.7709175063370011,0.6131572980540984,-0.10486667437658459
-10414.523172855377,3220.0,-1156.0,16868.0,520.0,509.0,1081.0,0.15352002054212432,-0.6976813595883821,0.6828155237651936,-0.1530858722446879
-10414.538727521896,3272.0,-792.0,16540.0,647.0,516.0,910.0,0.1733481728164769,-0.6242795065426994,0.7322874298682367,-0.2097155901428535
-10414.554329633713,3412.0,-624.0,16268.0,596.0,1235.0,631.0,0.13726183339976586,-0.5475742306071715,0.767798650607175,-0.30299650689818247
-10414.569984674454,3372.0,-680.0,16008.0,472.0,1554.0,315.0,0.06335029297858498,-0.47476719425632863,0.7808658025097375,-0.40103796591884494
-10414.58557677269,3068.0,-1172.0,15408.0,314.0,1581.0,248.0,-0.02249817311204178,-0.396762160164871,0.7809826541681893,-0.48180879439497154
-10414.601144313812,3068.0,-1752.0,15464.0,131.0,1161.0,320.0,-0.0832038700182502,-0.32454459028731786,0.7798763620137646,-0.5287161666730071
-10414.616730213165,2916.0,-2196.0,15672.0,38.0,816.0,452.0,-0.11645426063508348,-0.25552106906853683,0.7823454156857471,-0.5559523711591701
-10414.63231253624,3052.0,-2216.0,15808.0,-62.0,700.0,732.0,-0.1296400955684509,-0.17024617752984558,0.7913971123081921,-0.5726257899254396
-10414.647935152054,2988.0,-2060.0,15896.0,-210.0,580.0,927.0,-0.1259323541459544,-0.07447903554800207,0.8052387968729555,-0.574616737881601
-10414.663529634476,2796.0,-1628.0,15792.0,-363.0,469.0,776.0,-0.1219275385376184,0.007552395461963374,0.820290367898902,-0.5587489140940032
-10414.679143667221,2588.0,-1340.0,15452.0,-463.0,260.0,905.0,-0.09573231736608284,0.08958015143037677,0.8359479286856396,-0.5329181742140339
-10414.694801092148,2424.0,-1292.0,15260.0,-452.0,47.0,600.0,-0.06760002248348111,0.13901318128807033,0.8500052550115982,-0.5035837952526581
-10414.710436820984,2216.0,-1392.0,14864.0,-203.0,-199.0,146.0,-0.043960966850245205,0.14222494994458618,0.8579512737424877,-0.4916900536826981
-10414.726032972336,1804.0,-1520.0,15000.0,296.0,-650.0,-218.0,-0.00831328232273476,0.09664335064570469,0.8485981898706162,-0.5200692879427771
-10414.741631269455,2284.0,-1684.0,16168.0,709.0,-976.0,-388.0,0.04012954972845486,0.022923021448228584,0.8153611791124488,-0.5771051047449091
-10414.75721859932,2492.0,-1576.0,17564.0,934.0,-1120.0,-269.0,0.10355274141057691,-0.04897714334066416,0.7585205967312021,-0.64150181099595
-10414.772812843323,3180.0,-1312.0,18336.0,672.0,-1263.0,-493.0,0.16104371591904504,-0.14502071061035826,0.7011809840798177,-0.6792489548184162
-10414.788408279419,3720.0,-1184.0,17632.0,20.0,-538.0,-538.0,0.16197200197354109,-0.209108098255988,0.6840077103824792,-0.679832572004141
-10414.803984642029,3556.0,-1648.0,16512.0,-489.0,-22.0,-908.0,0.10007397368015734,-0.2704399397977026,0.6932333793179132,-0.6605111055489867
-10414.819560527802,3268.0,-1976.0,15344.0,-409.0,-106.0,-772.0,0.05216520701149991,-0.3258631858436876,0.695521653683345,-0.6382331897878979
-10414.835118055344,3360.0,-2492.0,16112.0,32.0,-193.0,-467.0,0.03873140014188692,-0.36444078597953206,0.6788268102557514,-0.6362994215270608
-10414.850692272186,3800.0,-2504.0,16860.0,418.0,-158.0,-255.0,0.04717183849096469,-0.38649152597575487,0.6462244753012268,-0.6563482654231433
-10414.86629152298,4264.0,-2484.0,17960.0,234.0,-71.0,-314.0,0.0410482363267944,-0.40702501344057607,0.6214658293838139,-0.6681511083852567
-10414.881933450699,4476.0,-2168.0,18164.0,-334.0,-132.0,-398.0,0.01310473520713293,-0.4369935159565446,0.6255588717677617,-0.6461741490339377
-10414.897527217865,4292.0,-2196.0,16956.0,-1162.0,-87.0,-376.0,-0.04742202089172559,-0.4610985838761133,0.6727534320255145,-0.5766646057977544
-10414.913184642792,3504.0,-2580.0,15892.0,-1692.0,-120.0,-382.0,-0.12627943614682327,-0.47707409872449,0.7345817703414538,-0.46566450478286586
-10414.928892850876,2968.0,-2784.0,14776.0,-1672.0,-304.0,-344.0,-0.18828232773538456,-0.48748463104211737,0.7826257302519003,-0.33823877055706636
-10414.94452548027,2756.0,-3020.0,14180.0,-1334.0,-615.0,-336.0,-0.21117011519954573,-0.5023294213137116,0.810819553722932,-0.21364453241257444
-10414.960130929947,2620.0,-3196.0,14384.0,-915.0,-1225.0,-171.0,-0.1663204264591188,-0.5157708982089942,0.8354587693871878,-0.09124988195712898
-10414.975858211517,3296.0,-3336.0,15308.0,-455.0,-2143.0,-33.0,-0.03026091113353543,-0.5192270637937854,0.8532471132672449,0.038169322532186224
-10414.991462469101,3932.0,-3952.0,15480.0,189.0,-2793.0,112.0,0.18063295593875653,-0.4877055103133877,0.8415342651659541,0.1460655708590601
-10415.007062196732,4532.0,-4708.0,15416.0,695.0,-2575.0,425.0,0.38347398454324216,-0.4016801241262464,0.8057864018231239,0.20569165198761924
-10415.022644996643,4636.0,-4960.0,15056.0,775.0,-1854.0,1058.0,0.5121467914021455,-0.2629085321098747,0.7795351847305557,0.24679883218406168
-10415.03822183609,4792.0,-3752.0,14980.0,1141.0,-1454.0,1358.0,0.5962509533609938,-0.08644194752098079,0.7552371403843808,0.25812681400604054
-10415.053807973862,4864.0,-2272.0,15292.0,780.0,-913.0,1427.0,0.6220571593344308,0.06791686633932771,0.7264225129651464,0.28415228741790194
-10415.06939291954,5248.0,-320.0,15176.0,-308.0,-587.0,1770.0,0.6090359940478054,0.17562041834389078,0.6673030695322936,0.39107446862163925
-10415.085013866425,4448.0,-312.0,15348.0,-1058.0,-523.0,1330.0,0.6031551579346708,0.21214958871500814,0.575981383258542,0.5093543497452748
-10415.100701332092,4536.0,-1292.0,14992.0,-1465.0,-940.0,903.0,0.6283052363814385,0.21900276872723007,0.43811475048253234,0.6044218581711789
-10415.116305112839,4948.0,-2776.0,15280.0,-1265.0,-439.0,782.0,0.6223819563726183,0.2008146162247797,0.3291586908194988,0.6811525134287332
-10415.13193821907,5188.0,-3480.0,15196.0,-295.0,545.0,1281.0,0.5316841964590928,0.18769160307176755,0.31611718522376603,0.7629899754113434
-10415.147535085678,4400.0,-4096.0,14912.0,561.0,748.0,1510.0,0.3965884509096175,0.20309532232040584,0.35893832074966064,0.8201421660627469
-10415.16312789917,3840.0,-4196.0,14692.0,1267.0,427.0,1392.0,0.2574929374202499,0.25634312961858857,0.43343058227294373,0.824696015163512
-10415.178777217865,3100.0,-3580.0,14532.0,1801.0,-551.0,1444.0,0.13131091206142753,0.38295045560697083,0.5074471408755785,0.7606601028982724
-10415.194376707077,3000.0,-2324.0,14472.0,2008.0,-2003.0,1386.0,0.05868790103832059,0.5787547342074001,0.5508506215026356,0.5984666078357236
-10415.209988832474,3240.0,-1572.0,14164.0,1856.0,-2737.0,1282.0,0.02822076626422847,0.7574073924378831,0.5435213900521408,0.36072444994440694
-10415.225568532944,3568.0,-1184.0,13948.0,1543.0,-3214.0,1603.0,0.026691670241372135,0.8881857390983057,0.4525692787624501,0.07479769730785754
-10415.241184473038,4288.0,-1352.0,14544.0,1382.0,-3086.0,1299.0,0.03142954327675275,0.9180781241979334,0.3372283129317139,-0.20596554720595492
-10415.256749391556,4952.0,-1884.0,15712.0,1347.0,-3150.0,809.0,0.02938391442975527,0.849732123214373,0.2289652586643496,-0.47399031073973014
-10415.272365093231,5880.0,-2424.0,16820.0,1367.0,-2664.0,412.0,-0.0016788200280054841,0.726346736294205,0.1305408793086871,-0.6748160334990454
-10415.287999153137,5836.0,-3264.0,17232.0,1413.0,-2215.0,239.0,-0.050646197673052715,0.583028665317757,0.03165273703455872,-0.8102534432615995
-10415.303613901138,5980.0,-4280.0,17172.0,1605.0,-1780.0,282.0,-0.10518827657623923,0.44098734738986883,-0.08641854065837436,-0.8871287515030976
-10415.319284439087,5968.0,-5020.0,16900.0,1982.0,-1511.0,841.0,-0.12454986379504342,0.29166712873029027,-0.25175302574798714,-0.9143511532631201
-10415.334881067276,5916.0,-4980.0,16892.0,2439.0,-1197.0,1520.0,-0.08844650109996095,0.1312962650300706,-0.45542693450564725,-0.8760849356992261
-10415.350464105606,5992.0,-4528.0,15996.0,2716.0,-1126.0,2362.0,0.015486410885743832,-0.06627152899788044,-0.6471864424463178,-0.7592878006631214
-10415.366058826447,6140.0,-3540.0,15296.0,2736.0,-941.0,2849.0,0.15743217105607843,-0.2695052159710732,-0.7664902512691482,-0.561315192018097
-10415.38167667389,5920.0,-2416.0,15252.0,2559.0,-1070.0,3158.0,0.28243547713393996,-0.4675960869113126,-0.78129831388289,-0.3019222507287347
-10415.397340536118,6200.0,-1892.0,15148.0,2307.0,-899.0,3470.0,0.3812797355088562,-0.628931808748,-0.6772226690417205,-0.02097617151136114
-10415.412927865982,6640.0,-2044.0,15684.0,2097.0,-750.0,3691.0,0.42951173628853806,-0.7287886545549489,-0.47110649730865817,0.2498908433215589
-10415.42851448059,6700.0,-2816.0,16156.0,2101.0,85.0,3584.0,0.45929735718486836,-0.7513022491328102,-0.18243762340178463,0.4373869930604758
-10415.444097042084,6964.0,-3388.0,16600.0,2530.0,1215.0,3728.0,0.46521390495504233,-0.699720883642606,0.19203092301673474,0.5070412529925276
-10415.459723472595,6564.0,-3636.0,16976.0,2910.0,2140.0,3561.0,0.41107035359080385,-0.5637216001205556,0.5716699440362479,0.43177841196827477
-10415.475306510925,6340.0,-3392.0,17024.0,3422.0,2688.0,3747.0,0.27191023123694447,-0.31756662433533117,0.877404204283274,0.2353255777916398
-10415.490891456604,6908.0,-3048.0,17500.0,3946.0,3657.0,3814.0,0.019822080919885254,-0.005978486169148019,0.9975127991518438,-0.06737624462215056
-10415.506460666656,5632.0,-2224.0,17316.0,4058.0,4073.0,3573.0,-0.2683777081258753,0.2893756431818751,0.8458945017927552,-0.35874452574355103
-10415.522059202194,4556.0,-636.0,17248.0,3901.0,4190.0,3273.0,-0.4973480315957459,0.4947285641721245,0.4704583929702039,-0.5353106422853167
-10415.537654161453,3404.0,512.0,17580.0,3502.0,4357.0,2978.0,-0.6024739203515145,0.5850122745474421,-0.009634497324586036,-0.542856325731227
-10415.553237915039,2172.0,1908.0,18716.0,2854.0,4387.0,2071.0,-0.5802286359007619,0.575242788397089,-0.43202039404487624,-0.3818230527445833
-10415.56887435913,1640.0,2388.0,18640.0,2007.0,3831.0,766.0,-0.47722052151017197,0.5343944542721708,-0.6829157291700002,-0.14251051871674364
-10415.584532737732,2896.0,2252.0,17044.0,2179.0,3505.0,-441.0,-0.35301625213307003,0.4827831507205181,-0.785480308397679,0.1591246059846727
-10415.600118398666,1348.0,2456.0,20268.0,3371.0,7198.0,-758.0,0.007343008170993499,0.2714502987892181,-0.7617421455325573,0.5882259083359909
-10415.615740299225,-1052.0,3916.0,24680.0,2425.0,6906.0,-2845.0,0.4579096239281255,0.08870747173668572,-0.4662704984657412,0.7516924790315498
-10415.631322145462,3596.0,4440.0,21400.0,1198.0,3176.0,-4533.0,0.784712164113087,0.10103935156318346,-0.2020712334795649,0.5772218685468301
-10415.646903276443,5028.0,3680.0,18032.0,631.0,2359.0,-4323.0,0.9529072538069523,0.09336898987117344,0.02723270395157908,0.28724271480407476
-10415.66248846054,5020.0,584.0,16028.0,819.0,3545.0,-3223.0,0.9378232631076518,0.05974873870225348,0.33927719938431355,0.042527607216286296
-10415.678163528442,4196.0,-1608.0,16284.0,1104.0,4069.0,-1598.0,0.7608576136334129,0.08155735636665161,0.637045100848513,-0.0928311848651045
-10415.693767309189,3572.0,-3332.0,15268.0,1170.0,4495.0,715.0,0.47043850628752826,0.21780798969687384,0.8520449148172973,-0.07257240908327695
-10415.709371566772,1504.0,-4080.0,13936.0,1698.0,3952.0,2735.0,0.1476443289033654,0.47143051754495796,0.8693935307499607,-0.010455044719416667
-10415.724955558777,-36.0,-2840.0,13044.0,2351.0,2565.0,3996.0,-0.1271688344732189,0.7327577608896574,0.6678766224755859,-0.028895822281129392
-10415.740559101105,-412.0,-792.0,12680.0,2958.0,1200.0,4649.0,-0.33611564450895226,0.8738378038114013,0.3137512690903907,-0.15809461499547567
-10415.7561480999,-432.0,1508.0,13960.0,3362.0,-280.0,4112.0,-0.4790733772133594,0.8017165060494245,-0.034565088185631976,-0.3557310751846245
-10415.771777153015,720.0,3700.0,15564.0,3136.0,-592.0,3075.0,-0.5641429685483058,0.5995306275651908,-0.30067516156127855,-0.4815601570612882
-10415.787431240082,952.0,5724.0,16952.0,2577.0,249.0,1695.0,-0.599771118572563,0.4233150125482393,-0.49229778245293854,-0.4676771310096527
-10415.803015947342,1356.0,5976.0,17172.0,2287.0,1497.0,-146.0,-0.6088392833353565,0.36071112493203034,-0.6405586971086404,-0.298138838423376
-10415.81864619255,1016.0,4848.0,16304.0,3016.0,1947.0,-1982.0,-0.6087809016425422,0.34068972981588214,-0.7156098554991163,0.03491212548397055
-10415.834235429764,320.0,2804.0,16348.0,3730.0,1748.0,-3263.0,-0.5459591383563515,0.3098866813723692,-0.6362848632420602,0.44837533023377024
-10415.849838972092,-256.0,1344.0,16560.0,3847.0,1595.0,-3837.0,-0.3687346954577019,0.2484802561450522,-0.41042916581811595,0.7961408082227983
-10415.865412950516,-652.0,284.0,16624.0,3653.0,1104.0,-2395.0,-0.225220979109597,0.13016512535115524,-0.13027437631190794,0.9567450745040583
-10415.881037473679,-576.0,-20.0,16452.0,3620.0,449.0,-1915.0,-0.09536743575118785,0.04051574862770866,0.17419472128595936,0.9792444666106038
-10415.89670085907,-1480.0,-4.0,15816.0,3388.0,-207.0,-1591.0,0.03020760980562166,0.005403018682522104,0.4475140514482195,0.8937502343805835
-10415.91230750084,-1176.0,1076.0,15128.0,3174.0,-30.0,-1173.0,0.11643913422563384,-0.028514857955984855,0.666944847544432,0.7354001640130831
-10415.928013324738,-696.0,2376.0,15008.0,2740.0,313.0,-1153.0,0.17327715956715387,-0.08503639308369923,0.8157418387721272,0.545260571011991
-10415.943617105484,-448.0,3060.0,15452.0,2322.0,585.0,-1340.0,0.2068172490897206,-0.16840780727637716,0.8996692598702873,0.34563081282167585
-10415.95927619934,-432.0,2980.0,15684.0,1708.0,740.0,-1502.0,0.21453510199219064,-0.2719878998305472,0.9225670746774502,0.16990369354449106
-10415.974923610687,-320.0,2820.0,15592.0,1433.0,733.0,-1591.0,0.20911495631334778,-0.37686491406561784,0.9023258453809402,0.007200024302235301
-10415.99048089981,-596.0,2528.0,15700.0,1264.0,908.0,-1426.0,0.17712358973485753,-0.45895533693301216,0.8583299167087601,-0.14579775973201964
-10416.006085634232,-708.0,2020.0,15904.0,1199.0,911.0,-1537.0,0.13500601559443853,-0.5346311739747639,0.7818966456776731,-0.29082730106660076
-10416.02167391777,-612.0,2172.0,15952.0,1205.0,918.0,-1808.0,0.08100330308496664,-0.6077687950240437,0.663802659876389,-0.42827746313036147
-10416.037341594696,-388.0,2616.0,15860.0,990.0,790.0,-2025.0,0.011794407271802221,-0.6740562172655582,0.5138621863173999,-0.5305231016608563
-10416.052942752838,-180.0,3052.0,15712.0,550.0,1311.0,-2359.0,-0.12047602114985972,-0.6986418446513203,0.34117203735768287,-0.6172412349764933
-10416.068522453308,-32.0,3344.0,15576.0,-102.0,1719.0,-2730.0,-0.312836503178444,-0.660462092750119,0.1559723743330477,-0.664526722385284
-10416.084115982056,444.0,3356.0,15752.0,-431.0,1844.0,-2742.0,-0.5011262694593592,-0.5558915790024654,-0.026420273289160464,-0.6626907148973927
-10416.09973025322,580.0,3400.0,16172.0,-798.0,1795.0,-2901.0,-0.6728146022891223,-0.3923399183272625,-0.19083084291596683,-0.5974725841622097
-10416.115308046341,636.0,3160.0,16604.0,-1123.0,1827.0,-2960.0,-0.7957425274004458,-0.17300902677106356,-0.3247002107781004,-0.48107325831180575
-10416.130885124207,860.0,2756.0,16188.0,-1478.0,1589.0,-3214.0,-0.8601215047846782,0.08290201740383084,-0.39906400097919553,-0.3067020959168565
-10416.14646100998,728.0,2300.0,15728.0,-1533.0,1280.0,-3306.0,-0.8462648454042662,0.3291388889097124,-0.40747288239558727,-0.0973100886465816
-10416.16203737259,792.0,1988.0,15784.0,-1517.0,524.0,-3301.0,-0.7734777090048179,0.5361093097011229,-0.3222056852815158,0.10248189155510536
-10416.177646636963,880.0,1268.0,16108.0,-1517.0,-196.0,-3173.0,-0.6497107602273571,0.6972158195365793,-0.16630279167549533,0.25319836198850626
-10416.193321943283,1124.0,928.0,16308.0,-1476.0,-606.0,-2949.0,-0.4833187272959342,0.803346843386578,0.014352789498834504,0.3476073280290012
-10416.208907604218,1360.0,836.0,16784.0,-1215.0,-281.0,-2641.0,-0.3078490198284504,0.8331145023319078,0.1691421206067604,0.42724717673914264
-10416.224529266357,1268.0,988.0,16984.0,-1114.0,106.0,-2570.0,-0.128790942183327,0.7975701950745363,0.3027150186377471,0.505626635603234
-10416.24011015892,1080.0,1528.0,16448.0,-1319.0,201.0,-2558.0,0.06848304527301102,0.713594122948021,0.4075888640920514,0.5656543273699325
-10416.25569987297,492.0,1860.0,15164.0,-1715.0,-50.0,-2572.0,0.29360335677866073,0.59301469279939,0.4661113170764856,0.587257084338343
-10416.271291732788,-12.0,1928.0,14664.0,-2165.0,-696.0,-2569.0,0.5419471245690154,0.44889401875951307,0.4504446773570362,0.5494425053943549
-10416.286909341812,120.0,1772.0,14996.0,-2545.0,-1189.0,-2455.0,0.7665930734611814,0.27468962481979164,0.35012468751730247,0.4629183220921512
-10416.30247426033,732.0,1352.0,15736.0,-3051.0,-1415.0,-2173.0,0.9164593220661792,0.057759461877638966,0.17376688720707847,0.3557684984255457
-10416.31804394722,948.0,984.0,16364.0,-3638.0,-1675.0,-1803.0,0.9488341138424681,-0.1947570597383404,-0.06011329703312076,0.24118437679638882
-10416.333621501923,1048.0,444.0,15604.0,-4163.0,-2076.0,-1576.0,0.8276539659460318,-0.4478647770340996,-0.3184157164802175,0.11409419636594471
-10416.34919142723,1052.0,8.0,15632.0,-4521.0,-2335.0,-1620.0,0.5459054058995474,-0.6399987210676732,-0.5396714135409946,-0.03381848973650018
-10416.364767074585,1624.0,-240.0,15608.0,-4806.0,-3101.0,-1608.0,0.11244172944604496,-0.7123083350115691,-0.6774029260581151,-0.14525484198515576
-10416.380367279053,1956.0,-192.0,16112.0,-5036.0,-3352.0,-1537.0,-0.3673882976050756,-0.6264040292863029,-0.6515759371819412,-0.21930031683106208
-10416.39601802826,2180.0,-264.0,15808.0,-5421.0,-3334.0,-1555.0,-0.7667168447285739,-0.37144250435155535,-0.45648403574757834,-0.2565113468798374
-10416.411612272263,1952.0,-344.0,15860.0,-5789.0,-3527.0,-1620.0,-0.9664356220304662,0.001417224689133279,-0.12234018244747243,-0.2259049793685076
-10416.427271604538,1436.0,-260.0,16248.0,-5992.0,-3448.0,-1753.0,-0.8803974568213594,0.3884023084372148,0.24375909721281583,-0.12093579845983621
-10416.442860126495,1280.0,-316.0,16776.0,-5950.0,-3166.0,-1985.0,-0.5391227191142263,0.6562878489809995,0.5260728623672967,0.0433623857214411
-10416.458444833755,1076.0,-484.0,17152.0,-5831.0,-2626.0,-1931.0,-0.06673624521685172,0.7359660387090935,0.6377023586249391,0.21733836579258406
-10416.474054574966,552.0,-828.0,17552.0,-5567.0,-2355.0,-1808.0,0.39969582002260895,0.624036874640444,0.579826766563187,0.33855893330751197
-10416.489661931992,244.0,-1044.0,18116.0,-4886.0,-2452.0,-2160.0,0.7596692562431807,0.3706964137462021,0.4159301905842981,0.3353935993950192
-10416.505247831345,-300.0,-1608.0,19040.0,-3474.0,-2631.0,-2128.0,0.9484566912680168,0.1289007091166622,0.19199425615493756,0.2166857576807013
-10416.520874023438,376.0,-2944.0,19344.0,-2015.0,-2948.0,-2206.0,0.9974087282441042,-0.018132355649307645,-0.061538838186134794,0.03255791602339689
-10416.536497354507,1036.0,-3012.0,18608.0,-258.0,-2701.0,-2165.0,0.9462239730357903,-0.02065545381034469,-0.2877448533097033,-0.14641190004241494
-10416.552055597305,1420.0,-1904.0,17096.0,371.0,-1857.0,-1924.0,0.8524501401424233,0.03361123749125726,-0.4371023082055234,-0.2848519184539093
-10416.56765294075,1252.0,-440.0,15616.0,854.0,-770.0,-1244.0,0.7812611588454731,0.12409348220124786,-0.5062752784985508,-0.3433906692614283
-10416.583303928375,624.0,1276.0,14544.0,1060.0,-65.0,-29.0,0.762872875061058,0.19484587594415226,-0.5396794269208137,-0.29800365313541677
-10416.598891735077,308.0,2208.0,13964.0,641.0,-371.0,846.0,0.7529922938477361,0.18709278991033537,-0.592451287303066,-0.21679567694590146
-10416.614485025406,492.0,1724.0,14044.0,-19.0,-1023.0,1126.0,0.7155393460751998,0.10728172531874428,-0.6716955487741342,-0.15911997168150793
-10416.630069494247,748.0,528.0,15168.0,-1016.0,-1978.0,1244.0,0.6115305455461504,-0.05525994576374317,-0.7737718071782668,-0.15573670304168874
-10416.64563536644,1772.0,-952.0,16540.0,-1222.0,-2353.0,1240.0,0.44923793364135456,-0.22888911411813767,-0.8494334507960861,-0.15574936624112815
-10416.661206245422,2128.0,-2236.0,18144.0,-999.0,-2315.0,1128.0,0.26543439329953444,-0.3725076551840998,-0.8788801767059553,-0.1354705306561568
-10416.676772356033,2512.0,-3068.0,18564.0,-590.0,-2400.0,950.0,0.07152452759111927,-0.4749281728208345,-0.8735823432593842,-0.07862163925646729
-10416.6923828125,2836.0,-3024.0,17992.0,-179.0,-1968.0,1236.0,-0.07590780694023914,-0.57209031442566,-0.8166652951586567,-0.0029107849966933095
-10416.708051681519,2492.0,-2284.0,17560.0,107.0,-1299.0,1737.0,-0.1598792680257173,-0.6847660385896049,-0.7087154652936661,0.05706558773413919
-10416.723652601242,2216.0,-1404.0,16432.0,232.0,-746.0,2244.0,-0.19911804167644576,-0.8059604476458534,-0.5512726668350095,0.08293496916289
-10416.739277601242,1848.0,-888.0,16048.0,501.0,-640.0,2656.0,-0.2078972247381647,-0.9114365716485209,-0.3398044978085147,0.10293212849670809
-10416.754854917526,1612.0,-764.0,15704.0,91.0,-880.0,2722.0,-0.24375322951833356,-0.9565125223796226,-0.10326530841961312,0.12249258633630394
-10416.77044916153,1580.0,-524.0,15840.0,-22.0,-1332.0,2525.0,-0.2761856689104477,-0.9359231220327902,0.13165240194587993,0.17446211908252182
-10416.786030769348,1720.0,-896.0,15652.0,-107.0,-1691.0,2137.0,-0.28997629084152554,-0.8590035812161824,0.3359962718385575,0.25521187965718756
-10416.801623821259,2016.0,-1040.0,16188.0,-124.0,-1817.0,1876.0,-0.28060474775429245,-0.7412713735588947,0.5068609917949006,0.33892427071035947
-10416.817205667496,2176.0,-1340.0,16152.0,-72.0,-1729.0,1648.0,-0.25213858621949675,-0.6024370694680218,0.6399323508120376,0.40494727688205856
-10416.832785606384,2388.0,-1512.0,16652.0,28.0,-1789.0,1566.0,-0.20182831770549178,-0.4428621664967789,0.7467132295938079,0.45338480831136757
-10416.848359823227,2756.0,-1636.0,16968.0,145.0,-1166.0,1747.0,-0.18628179985122933,-0.2806645499020752,0.8266557929398773,0.45074017068749794
-10416.863979101181,3104.0,-1596.0,16988.0,238.0,-726.0,1368.0,-0.18025210426490657,-0.15577865903320223,0.8731782060989632,0.42520819452556075
-10416.879571676254,3012.0,-1504.0,16912.0,300.0,-481.0,1082.0,-0.178701215783664,-0.05981722552459588,0.9014527700793031,0.38970588695108427
-10416.895141363144,2788.0,-1324.0,16532.0,326.0,-402.0,874.0,-0.17445631483163854,0.01749094305408999,0.9197399057397383,0.3511944858853854
-10416.910713672638,2452.0,-1204.0,16184.0,236.0,-588.0,1019.0,-0.15802403367685322,0.11312434162215047,0.9292650132699838,0.31416209705403475
-10416.926399469376,2516.0,-1080.0,16008.0,160.0,-835.0,628.0,-0.10866980151100265,0.18398196487307036,0.9349788465197956,0.2831184688456692
-10416.942018508911,2372.0,-776.0,15940.0,54.0,-1064.0,450.0,-0.03367594168018842,0.24524973841193476,0.9344158792786742,0.2560965859059671
-10416.9576318264,2632.0,-1132.0,15808.0,-39.0,-775.0,255.0,0.024591970618807763,0.2827742113231341,0.9279966941405237,0.2413630378826104
-10416.973236083984,2956.0,-1224.0,15880.0,-73.0,-957.0,33.0,0.10285146567999288,0.3043886194025865,0.9203526577830994,0.22298011054183645
-10416.988890886307,3064.0,-1432.0,16060.0,-70.0,-1060.0,-76.0,0.1905317610053849,0.3169216633142645,0.9075704385399525,0.198932668153587
-10417.004522323608,3388.0,-1528.0,16184.0,-12.0,-1276.0,-99.0,0.2918725227334301,0.32899068380397606,0.8833713164707333,0.16195887650937538
-10417.020120859146,3328.0,-1540.0,16284.0,-19.0,-1405.0,-211.0,0.40070499242379,0.3295710819346191,0.8468587483063422,0.11682752850296234
-10417.035737991333,3628.0,-1360.0,16164.0,-105.0,-1326.0,-416.0,0.5023356761005594,0.30640118374274494,0.8054077772489379,0.07138273926212181
-10417.051300525665,3328.0,-1076.0,15872.0,-139.0,-1226.0,-663.0,0.5920338627282632,0.2593858395810852,0.7627894678522719,0.01916035859569506
-10417.066886663437,2960.0,-804.0,15840.0,-301.0,-1388.0,-536.0,0.6862419139191837,0.20861658620548182,0.6965350899060568,-0.019749027066351496
-10417.08249592781,2616.0,-712.0,15840.0,-386.0,-1652.0,-936.0,0.781089751543693,0.12394597884502771,0.6065720781099001,-0.081280430725957
-10417.098070144653,2344.0,-988.0,16096.0,-367.0,-1858.0,-1050.0,0.8608238378491885,0.029587219732236925,0.48512024075258003,-0.15088163782007744
-10417.113637208939,2908.0,-1280.0,16576.0,-262.0,-1771.0,-1055.0,0.9078555949839494,-0.05719359944707003,0.35227697453011886,-0.2200637272576591
-10417.129206418991,3252.0,-1648.0,17040.0,-140.0,-1482.0,-1005.0,0.9222098973184006,-0.1261225382642515,0.22945911137941064,-0.2845532056307545
-10417.144780635834,3748.0,-1916.0,17248.0,22.0,-1037.0,-923.0,0.9136464178470717,-0.16733083669893856,0.134018263507409,-0.3453834380674699
-10417.16037273407,4088.0,-1932.0,17376.0,84.0,-550.0,-740.0,0.8961027432314889,-0.1851686459068263,0.07628444596248866,-0.39609737369771675
-10417.176037549973,4164.0,-1952.0,16712.0,168.0,25.0,-690.0,0.8731402716981388,-0.1752847746512173,0.0608865552314102,-0.4507706080773507
-10417.191625356674,3768.0,-1816.0,16308.0,202.0,406.0,-647.0,0.846626799243155,-0.14686058517276313,0.07353029612093825,-0.5062097656884653
-10417.207270860672,3228.0,-1672.0,16084.0,194.0,299.0,-620.0,0.8182242900135973,-0.12294194029289292,0.07865756840504871,-0.5560640947600992
-10417.22286081314,2880.0,-1568.0,15864.0,155.0,-61.0,-304.0,0.8051901199939847,-0.1167891610597874,0.06317897141826112,-0.5779598429766154
-10417.238440036774,2872.0,-1524.0,15676.0,213.0,-436.0,-236.0,0.7969713209783975,-0.1249035506806536,0.019056597669466963,-0.590654435901888
-10417.254038572311,3020.0,-1308.0,16196.0,331.0,-537.0,234.0,0.8121255250952338,-0.1287942127081307,-0.03303072713051442,-0.5681312817711354
-10417.269617557526,3284.0,-1580.0,16568.0,370.0,-394.0,10.0,0.8147390354522938,-0.12171874042243527,-0.0792590113468364,-0.5613402368088038
-10417.285202503204,3580.0,-1612.0,17064.0,497.0,-247.0,221.0,0.8280550440418527,-0.09963120175855872,-0.11846270277686285,-0.5388553198436399
-10417.300778150558,3868.0,-1560.0,17412.0,578.0,697.0,97.0,0.8422337212472575,-0.025979852211382024,-0.09381883900474687,-0.5302503479686484
-10417.316348791122,4684.0,-1560.0,17712.0,757.0,1661.0,-93.0,0.8426405294429024,0.10562042429883702,-0.006863220011012364,-0.527971741973185
-10417.331959486008,4844.0,-1536.0,17756.0,894.0,2707.0,-182.0,0.8031469842927332,0.2871383732754756,0.14804973605841512,-0.5005874068204627
-10417.347533941269,4748.0,-1460.0,17380.0,899.0,3745.0,-328.0,0.6803478127330567,0.48264680647056846,0.3595059703303883,-0.418251564503844
-10417.363111495972,3872.0,-1208.0,16276.0,802.0,4169.0,-537.0,0.464864892101143,0.6234832429328032,0.5624307628673265,-0.280786244061679
-10417.378704309464,2372.0,-956.0,15292.0,669.0,3755.0,-789.0,0.21285821090539175,0.6664469931601842,0.7018813069857455,-0.13379991876636882
-10417.39431977272,1488.0,-780.0,14228.0,391.0,2695.0,-1082.0,0.01198805785406977,0.618963794132361,0.7850621083873393,-0.020435116749972042
-10417.409972906113,396.0,-668.0,13768.0,122.0,1208.0,-1270.0,-0.07873796916261133,0.52803555514806,0.8448504367920929,0.03473505669834854
-10417.425573825836,-44.0,-852.0,13844.0,-135.0,-445.0,-1159.0,-0.035983713846469166,0.44221496369075963,0.8956170029018997,0.031957508332378544
-10417.441160917282,468.0,-800.0,14932.0,-303.0,-1939.0,-914.0,0.12759141044325076,0.3705579029911422,0.9198639898192137,-0.016047203674996742
-10417.456743717194,1688.0,-1244.0,16080.0,-467.0,-2437.0,-788.0,0.3289071249050588,0.29123782913392277,0.8960124550455173,-0.06451597066892117
-10417.472324609756,2336.0,-1528.0,17276.0,-605.0,-2094.0,-796.0,0.493605000193928,0.19582710289622962,0.842403773744097,-0.09144250399308888
-10417.487929105759,3184.0,-1744.0,17924.0,-710.0,-1490.0,-1104.0,0.5976465012671606,0.07108104416138573,0.7909011742705484,-0.11064120941817637
-10417.503510951996,3532.0,-2100.0,17668.0,-540.0,-860.0,-1405.0,0.6395940338757361,-0.06171154706179355,0.751344148244199,-0.15031010507947454
-10417.519085168839,3768.0,-2372.0,17292.0,-61.0,-8.0,-1341.0,0.6180479125036028,-0.1521429009766613,0.7393331234792432,-0.2196721376478384
-10417.534648180008,3796.0,-2316.0,16992.0,331.0,481.0,-953.0,0.5704968972943647,-0.1856877194195977,0.7426712538144632,-0.2974773433253445
-10417.550220251083,3972.0,-2556.0,16652.0,730.0,802.0,-402.0,0.5173363539313441,-0.15378938352844473,0.7532285685682196,-0.37597692204128014
-10417.565773010254,4468.0,-2724.0,16556.0,1061.0,1219.0,200.0,0.45349124052004175,-0.05220045529735136,0.7683377270812749,-0.4486401056324802
-10417.58137178421,4420.0,-2804.0,16164.0,1264.0,1588.0,677.0,0.37285391098838305,0.10362349472434262,0.7713692184104138,-0.5052045737032557
-10417.596986055374,4380.0,-2580.0,16268.0,1391.0,1645.0,1167.0,0.29434556835014253,0.29335791627058666,0.7362916543638971,-0.5340191186353599
-10417.61257147789,3944.0,-2356.0,16064.0,1513.0,1562.0,1737.0,0.2295223596450468,0.5020467805193151,0.642667098416358,-0.531269721710413
-10417.628154277802,3512.0,-2108.0,15892.0,1447.0,1307.0,2113.0,0.1850520211711676,0.688788000626531,0.49379438156419136,-0.4974876364182423
-10417.643779754639,3364.0,-1884.0,15676.0,1456.0,1002.0,2411.0,0.1538782228543325,0.8318542597906241,0.2919875738824889,-0.4461874490588046
-10417.659362316132,3352.0,-1636.0,15476.0,1620.0,936.0,2760.0,0.11511782788780787,0.9221265576079528,0.039399704679687016,-0.36725762174208654
-10417.674951314926,2740.0,-1460.0,15852.0,1630.0,633.0,2901.0,0.0716793238213054,0.9290012783969357,-0.2301674060985231,-0.2807875788621309
-10417.690565109253,2520.0,-1624.0,15380.0,1770.0,-453.0,2940.0,-0.008514293129365691,0.8327073798242313,-0.49280436242658926,-0.2523287275997199
-10417.706162929535,2560.0,-1900.0,15924.0,2123.0,-1642.0,2478.0,-0.1704398734273898,0.6558161175599692,-0.6845117566795501,-0.2688849651098041
-10417.721773386002,2916.0,-2612.0,16004.0,1828.0,-1434.0,2308.0,-0.29482089457175376,0.4394337048244886,-0.8059157157802124,-0.26547790538310956
-10417.73736524582,2592.0,-2424.0,15864.0,1402.0,-1054.0,3289.0,-0.32956595445417364,0.14028926021760219,-0.8914211321169332,-0.27762127142507054
-10417.752944231033,3144.0,-520.0,15884.0,1431.0,-865.0,2974.0,-0.328122001736685,-0.14689885536501887,-0.8986011104162884,-0.2515406977555952
-10417.76853132248,2916.0,1648.0,17152.0,710.0,-1438.0,878.0,-0.40742136854845573,-0.26434088088479746,-0.8509420718082563,-0.20007328049948328
-10417.784098386765,900.0,4228.0,16912.0,-1810.0,-3655.0,-38.0,-0.6796043588399424,-0.2458516618804608,-0.6501717444122008,-0.23446018545663974
-10417.799706220627,3104.0,2956.0,15164.0,-2612.0,-2578.0,318.0,-0.8334833650993083,-0.15392892770484234,-0.4158526647493623,-0.32966335334584146
-10417.815297603607,3648.0,1072.0,14936.0,-1774.0,-579.0,1751.0,-0.8080927150940508,-0.1025325161340248,-0.2917483411095066,-0.5013543182291365
-10417.830889701843,5908.0,-1444.0,15600.0,-318.0,1999.0,4231.0,-0.5320939375564994,-0.09287262117284469,-0.3523266798074445,-0.7642752308873865
-10417.846461772919,5088.0,-4052.0,14892.0,1090.0,4093.0,4684.0,-0.07440182807575428,-0.012694070121678957,-0.5052727035114688,-0.8596526761715705
-10417.862048387527,-28.0,-4596.0,16428.0,1385.0,2146.0,3266.0,0.25092508138757225,-0.004415138827832018,-0.5823909496343032,-0.7731997748731088
-10417.877618312836,-104.0,-4364.0,16484.0,1817.0,-1661.0,3273.0,0.36548616306536263,-0.22893981248882134,-0.6968320735846227,-0.5730894241644122
-10417.893221616745,2252.0,-2368.0,17012.0,3003.0,-3354.0,3737.0,0.36381286989444206,-0.47043659920523606,-0.7830979773362701,-0.18189876228062832
-10417.9087972641,3328.0,-748.0,17672.0,3005.0,-2788.0,3418.0,0.31814465952369264,-0.5918357581643493,-0.706097591477409,0.22347394095147977
-10417.924477815628,4524.0,428.0,17704.0,2117.0,-701.0,2877.0,0.3128342138613629,-0.6639581557126824,-0.5104611434387631,0.4480220342120987
-10417.940101861954,5080.0,732.0,17520.0,1103.0,1650.0,2479.0,0.3405549177299456,-0.7793903471870113,-0.26844019477989317,0.45223102121392905
-10417.955743074417,4180.0,400.0,16980.0,257.0,2729.0,2263.0,0.3177717954527565,-0.8905816478396281,-0.022152058463718875,0.3246455002796189
-10417.971324682236,3048.0,-312.0,16312.0,-158.0,2485.0,2023.0,0.24364489983125465,-0.9333661609328581,0.19217958635509874,0.18036568132563163
-10417.986924171448,2380.0,-1164.0,15344.0,-39.0,1607.0,1885.0,0.17971829787693894,-0.9069016502245837,0.37075530020485814,0.08815462323751444
-10418.002506256104,2200.0,-1884.0,15180.0,349.0,324.0,1617.0,0.1824872844382416,-0.842508317536896,0.5011371559480036,0.07576065488003324
-10418.018096208572,2556.0,-2096.0,15540.0,702.0,-617.0,1192.0,0.2510722299916167,-0.7684056983897131,0.5785758644454186,0.10846836907822684
-10418.033696889877,3140.0,-1656.0,16012.0,850.0,-711.0,842.0,0.33361042735310253,-0.6953959526402996,0.6229286986901548,0.13072256179007835
-10418.04936170578,3708.0,-960.0,16200.0,877.0,-197.0,664.0,0.3881864381132546,-0.6285055675217429,0.6643367420698019,0.11379250412570237
-10418.064957857132,3864.0,-244.0,16220.0,793.0,229.0,489.0,0.4121647457333464,-0.5735291177056835,0.7043175041844948,0.0715641447767684
-10418.080554485321,3520.0,108.0,16052.0,555.0,427.0,352.0,0.4105936324776153,-0.5333266659217605,0.7390223706388529,0.028661334249227434
-10418.096145153046,2908.0,24.0,15800.0,197.0,86.0,26.0,0.41413359032703223,-0.5246980734974953,0.7436528543141433,0.01287374464895108
-10418.111781835556,2708.0,-480.0,15568.0,-133.0,-503.0,-160.0,0.44043482461630484,-0.5387076911787019,0.7171559894576875,0.038710147443304296
-10418.127375602722,2940.0,-1112.0,15556.0,-273.0,-994.0,-128.0,0.488315271785982,-0.551580403060227,0.6692206338739632,0.09721624091596323
-10418.142970323563,3128.0,-1464.0,15728.0,-175.0,-1232.0,-34.0,0.5489862913629718,-0.5473268013787823,0.6099504087928261,0.16434087501734143
-10418.158605098724,3380.0,-1796.0,15892.0,32.0,-1464.0,266.0,0.6195184256621189,-0.5063384413449147,0.5482953062587206,0.24329110180232255
-10418.174176692963,3376.0,-2020.0,16044.0,3.0,-1723.0,612.0,0.6805875259907237,-0.43473845320099375,0.47612432341728633,0.3480067893370258
-10418.189800739288,3468.0,-1680.0,16360.0,440.0,-1923.0,926.0,0.7359598568112484,-0.3061300113325649,0.4030476620257652,0.4496666403675676
-10418.205381393433,3748.0,-1488.0,16640.0,473.0,-1876.0,1157.0,0.7547840197174986,-0.15827315911600967,0.3256068341411503,0.5470199998565961
-10418.220944404602,3964.0,-1248.0,16744.0,405.0,-1520.0,1374.0,0.7260629974483203,-0.019548074486318363,0.2592869195144027,0.6365694698059038
-10418.236517190933,4024.0,-1096.0,16764.0,419.0,-891.0,1492.0,0.6561469008662331,0.08924905027900597,0.22564183039735178,0.7145569367677189
-10418.252108812332,3592.0,-968.0,16712.0,405.0,-488.0,1563.0,0.5591266510624823,0.17178352985644343,0.2082459095472201,0.7839014275395629
-10418.267745733261,3580.0,-828.0,16388.0,385.0,-292.0,1634.0,0.44202174912760706,0.23755138852234808,0.19344290322214774,0.8430693650597572
-10418.283333539963,3244.0,-544.0,16360.0,331.0,-335.0,1583.0,0.3210251377857713,0.29847597184184477,0.1700656990344306,0.8825715909514783
-10418.298956155777,3144.0,-588.0,16068.0,276.0,-267.0,1500.0,0.20043136230630643,0.3457256150484434,0.14328060699261655,0.9054124672011321
-10418.314574956894,2580.0,-632.0,15500.0,289.0,-444.0,1543.0,0.0745719890283452,0.4009257165952129,0.11053916887689826,0.906354610717558
-10418.330166101456,2388.0,-632.0,15340.0,388.0,-868.0,1588.0,-0.05554681202383126,0.48100641216259205,0.07890196048629718,0.8713907641029245
-10418.345779895782,2516.0,-584.0,15508.0,496.0,-1272.0,1649.0,-0.18977090939231664,0.576550508869387,0.05260647496138528,0.7929748239780386
-10418.361383914948,2520.0,-648.0,15868.0,519.0,-1572.0,1538.0,-0.3092087464730288,0.6707603952248733,0.036449224017020374,0.673158151826825
-10418.376957416534,2672.0,-524.0,16072.0,488.0,-1792.0,1907.0,-0.43266356620190227,0.7488952440203603,0.0017846736904113952,0.5019511598800783
-10418.392566680908,2832.0,-928.0,16428.0,256.0,-1932.0,2121.0,-0.5257424232461235,0.7992517721292633,-0.05109025595888214,0.28667280110534005
-10418.40817975998,3040.0,-1076.0,16408.0,558.0,-1693.0,2349.0,-0.6111679249065908,0.7800368674622954,-0.119409336890191,0.06129978163440719
-10418.42379784584,3456.0,-1092.0,16888.0,630.0,-1234.0,2508.0,-0.6601072092786068,0.7050938685100131,-0.21434756104380343,-0.14545181993556086
-10418.439415693283,3432.0,-1172.0,17084.0,660.0,-823.0,2737.0,-0.6601770986130979,0.5864000244037577,-0.33297707938531046,-0.33079823828142263
-10418.455009698868,3360.0,-1380.0,16988.0,730.0,-475.0,2968.0,-0.6041097777091995,0.42889917334977723,-0.4619915639959597,-0.48750453369439195
-10418.470633745193,3424.0,-1308.0,16664.0,831.0,-221.0,3293.0,-0.48321242728487357,0.23274170460405363,-0.5836746446748082,-0.6096400234722098
-10418.486243724823,3288.0,-1568.0,16480.0,1049.0,-79.0,3653.0,-0.2982227646635068,-0.0017825490650359437,-0.6741230021691447,-0.6757352907032047
-10418.50184750557,3084.0,-1632.0,16128.0,1024.0,-130.0,4076.0,-0.06131382092609467,-0.25907860355671475,-0.68567355771257,-0.6774737373480484
-10418.51742863655,3016.0,-1468.0,15960.0,1386.0,-417.0,4514.0,0.19592437372080834,-0.5186753643934152,-0.6128355989147917,-0.5630470982575217
-10418.533017635345,2976.0,-1468.0,16096.0,1490.0,-577.0,5138.0,0.43908008985770774,-0.720827371553634,-0.41929472515558325,-0.3343777931716317
-10418.548603534698,3128.0,-1432.0,15884.0,1530.0,-667.0,5379.0,0.5994927905607765,-0.7883536967851212,-0.1355273221697061,-0.027188007951937144
-10418.564193725586,3240.0,-1324.0,16180.0,1544.0,-668.0,5908.0,0.6274458384853897,-0.6864882749233849,0.2048345983769706,0.30510384374475924
-10418.579794168472,3548.0,-1228.0,16396.0,1580.0,-477.0,6568.0,0.47847272963034576,-0.4043494043541692,0.5288356563374191,0.5726240082154134
-10418.595434188843,3512.0,-1268.0,16644.0,1643.0,-217.0,6734.0,0.1796004190666611,-0.011934869129640388,0.7181581233444979,0.6721980052367361
-10418.61102104187,3536.0,-1144.0,16676.0,1682.0,53.0,6961.0,-0.19538276371199811,0.3796490730106131,0.6994214843097181,0.5731507169082444
-10418.626622200012,3524.0,-1056.0,16384.0,1759.0,221.0,7095.0,-0.5244419808341252,0.6504982661625153,0.46228285504049177,0.29682853028971495
-10418.642184972763,3524.0,-1020.0,16544.0,1803.0,349.0,7284.0,-0.6938535261445812,0.7131328618047679,0.0663687832606716,-0.07485980416332372
-10418.65778183937,3424.0,-824.0,16236.0,1718.0,396.0,7307.0,-0.6316225558052241,0.5467120006503886,-0.354248065870886,-0.4203180262249791
-10418.673362970352,3364.0,-704.0,16012.0,1573.0,406.0,7222.0,-0.36053380053283585,0.21120748309971807,-0.6542337904230524,-0.6303847438070793
-10418.688951730728,3256.0,-752.0,15620.0,1337.0,456.0,7075.0,0.025503740732868374,-0.17758778306910106,-0.7382918873582518,-0.6501824571412419
-10418.704542160034,3308.0,-416.0,15648.0,1135.0,469.0,6870.0,0.3956285270928418,-0.5048806846750208,-0.5935985054998162,-0.48601890607343184
-10418.720118045807,3388.0,-448.0,16004.0,931.0,596.0,6561.0,0.6450595981470405,-0.6808507291849981,-0.27955367601867853,-0.20540238954568835
-10418.735735177994,3392.0,-444.0,16056.0,744.0,702.0,6218.0,0.7167159051279034,-0.6816812874217646,0.10182489670256206,0.10611608797542539
-10418.751327991486,3408.0,-520.0,16168.0,549.0,747.0,5809.0,0.6129581934416105,-0.5359875037020836,0.4441442209029352,0.3738121988466012
-10418.766913175583,3356.0,-528.0,16224.0,401.0,845.0,5311.0,0.38520231639941976,-0.3041159972546688,0.6793593529847872,0.545530480510861
-10418.782491922379,3108.0,-648.0,16148.0,510.0,1010.0,4802.0,0.10122890017328577,-0.04615300411231206,0.7944778365797326,0.5970155585616707
-10418.798084259033,3252.0,-608.0,16100.0,128.0,535.0,4259.0,-0.14731075383231493,0.2083287948409487,0.7705984829943235,0.5840176650173524
-10418.813652515411,3320.0,-600.0,16196.0,73.0,497.0,3822.0,-0.3572722102393681,0.4162093623772988,0.6618747690952254,0.5109286882680412
-10418.829220533371,3536.0,-528.0,16288.0,72.0,112.0,2930.0,-0.48157206224481386,0.5601478366962931,0.5377175056007834,0.4064266650703565
-10418.844790697098,3824.0,-516.0,16348.0,119.0,132.0,2257.0,-0.5628559219083582,0.6438852769946459,0.41788600525891323,0.3065554564038419
-10418.860363960266,3568.0,-468.0,16176.0,218.0,76.0,1593.0,-0.6145628767705291,0.6824670427107191,0.3271915952217061,0.22247891164218717
-10418.875941038132,3532.0,-392.0,16048.0,275.0,-118.0,1082.0,-0.6455919484489645,0.6974801819270214,0.2730667933000773,0.1488857223300184
-10418.891530275345,3600.0,-292.0,16236.0,245.0,-274.0,641.0,-0.6610339448237222,0.7009647380394487,0.2521223418767113,0.09009375418239661
-10418.907106399536,3616.0,-348.0,16148.0,247.0,-305.0,205.0,-0.6706475958757668,0.6930102450467878,0.25891194447250193,0.05415909356436181
-10418.9228515625,3532.0,-436.0,16276.0,326.0,-183.0,-143.0,-0.6852399163602785,0.6710513217928078,0.2796286671496386,0.044092959242953415
-10418.93845963478,3440.0,-436.0,16228.0,322.0,-56.0,-400.0,-0.7005856803854941,0.6414880286134204,0.30731293817050437,0.05684691387818656
-10418.954051971436,3468.0,-324.0,16204.0,215.0,199.0,-572.0,-0.7141047294824945,0.6109395147146625,0.327693755250488,0.09707804829506715
-10418.969639778137,3488.0,-280.0,16464.0,50.0,346.0,-702.0,-0.7191396528977664,0.5833323740852555,0.3431445428408353,0.15752245456662334
-10418.985252141953,3408.0,-484.0,16504.0,-57.0,598.0,-765.0,-0.721137221820116,0.5536643009859131,0.3424929242072832,0.23688720097820679
-10419.00089097023,3452.0,-636.0,16644.0,-127.0,707.0,-889.0,-0.7143056188312121,0.5177661267978053,0.3365958858030657,0.3292247416392148
-10419.016522169113,3260.0,-820.0,16488.0,-178.0,876.0,-1275.0,-0.6891144309688578,0.4618482805896521,0.33136279366605303,0.44946208485330347
-10419.03210234642,3176.0,-976.0,16220.0,-90.0,951.0,-1077.0,-0.6655896032877853,0.39554612506102804,0.31149650998700595,0.5509116691542567
-10419.047720193863,3268.0,-1032.0,16300.0,39.0,897.0,-1007.0,-0.6385656273660261,0.3203982669951231,0.2938680288213666,0.6349964343914064
-10419.06329703331,3400.0,-1092.0,16376.0,108.0,975.0,-640.0,-0.6279183224391996,0.24250487348630467,0.26187633019998396,0.6916145995867362
-10419.078878164291,3340.0,-1152.0,16544.0,110.0,1187.0,-357.0,-0.6321683504042502,0.15560490683636938,0.20957137401703477,0.7295410399067525
-10419.094469547272,3316.0,-1168.0,16512.0,56.0,1362.0,-208.0,-0.6400261626239795,0.06145034970049682,0.13953282084344376,0.7530743373571972
-10419.110083580017,2884.0,-1280.0,16604.0,75.0,1532.0,-125.0,-0.6451136870261405,-0.04447006163695894,0.05872402647431996,0.7605276018292743
-10419.125688552856,3036.0,-1244.0,16744.0,229.0,1967.0,75.0,-0.6496881324107677,-0.18447804699124967,-0.03605723254702749,0.7365955856261647
-10419.141352891922,3172.0,-1216.0,16796.0,392.0,2246.0,455.0,-0.6523434559710739,-0.34521979958179705,-0.12820427822957348,0.6624462004359702
-10419.156945943832,3148.0,-1436.0,16832.0,471.0,2540.0,758.0,-0.6363238337037896,-0.5132136442510358,-0.21678150891510412,0.5335817757453621
-10419.172553062439,2836.0,-1648.0,16148.0,605.0,2732.0,1134.0,-0.5902900835596746,-0.672446290214121,-0.2799433879974677,0.34785816584475626
-10419.188143730164,2236.0,-1588.0,15892.0,790.0,2625.0,1537.0,-0.5077756335012487,-0.8007753076253578,-0.29024365617949355,0.12915662107487716
-10419.203846693039,1724.0,-1932.0,15776.0,1000.0,2168.0,1816.0,-0.39033351051850207,-0.885666229510835,-0.24001829679486028,-0.07500865066149054
-10419.219449520111,1848.0,-1952.0,15940.0,1069.0,1680.0,3007.0,-0.2411777658729385,-0.9291166685470529,-0.06845675166275812,-0.27182563276546867
-10419.235054731369,2028.0,-2304.0,16056.0,1183.0,1432.0,3772.0,-0.04430084772979793,-0.8848393440780676,0.16828835984133342,-0.4321756564220507
-10419.250638484955,1724.0,-2444.0,16564.0,1333.0,1318.0,4410.0,0.1897435158343138,-0.7153717673839364,0.4183989892699913,-0.526481641091754
-10419.266221523285,1948.0,-2492.0,16576.0,1647.0,1160.0,5014.0,0.4347496589836462,-0.4084296054149183,0.610478206855822,-0.5210511974732597
-10419.281792879105,1828.0,-2324.0,16552.0,2020.0,1099.0,5406.0,0.6176548376997435,0.00564781565195585,0.6699864804145975,-0.4118115099242921
-10419.29738664627,1400.0,-2028.0,16528.0,2054.0,1107.0,5860.0,0.6680705660646129,0.43702526468746083,0.5718808814060115,-0.18879325799732843
-10419.312976837158,1768.0,-1696.0,16336.0,2617.0,920.0,6500.0,0.5357803610143158,0.7908611926660367,0.2845745702486343,0.0805933784750879
-10419.328561067581,1560.0,-1632.0,16628.0,2789.0,775.0,7124.0,0.2274506675416037,0.9073298766739855,-0.1257078265920086,0.33047879064043195
-10419.344153642654,1688.0,-1320.0,16688.0,2811.0,887.0,7595.0,-0.16668367174090848,0.6960922665563836,-0.5122323888789062,0.47464733202534165
-10419.359810590744,1844.0,-940.0,16844.0,2798.0,1091.0,7955.0,-0.4958681207542285,0.20429855561338256,-0.71907271053875,0.44194043032111285
-10419.37542128563,1944.0,-544.0,16632.0,2948.0,1040.0,8115.0,-0.634238357049125,-0.37659823029719897,-0.6332079738751697,0.23444219160711455
-10419.391015529633,1796.0,-92.0,16276.0,2963.0,1352.0,8084.0,-0.49951184851016533,-0.8078917274475091,-0.30369497025727515,-0.07462060680716746
-10419.406630277634,1868.0,468.0,16076.0,3048.0,1232.0,7821.0,-0.1615483257188491,-0.9161890203004469,0.14008922247958522,-0.33893189180631783
-10419.422220468521,1876.0,512.0,16332.0,2510.0,1119.0,7479.0,0.2025785136498245,-0.6789095657104266,0.5321332548263783,-0.4635492924190398
-10419.437806367874,1588.0,796.0,16184.0,2174.0,1006.0,6975.0,0.47670602383024113,-0.23182998234975027,0.7359582343180301,-0.42115520116361305
-10419.453359365463,1576.0,608.0,16184.0,1912.0,825.0,6479.0,0.6023758981333098,0.253036575334608,0.714468335187886,-0.2503013521834675
-10419.468924999237,1748.0,508.0,16136.0,1868.0,758.0,5963.0,0.5646008412729543,0.6482851860780546,0.5098299442417581,-0.032025544492798784
-10419.484541893005,1972.0,556.0,16452.0,1840.0,949.0,5594.0,0.38491288954994635,0.8785874340381898,0.20830174777011995,0.19114541606958185
-10419.500147342682,2136.0,612.0,16800.0,1652.0,1298.0,4688.0,0.14275007690119457,0.9103079001680839,-0.07307086597512359,0.38160528164835733
-10419.515739679337,2200.0,472.0,16720.0,1484.0,1641.0,4146.0,-0.09510210641255369,0.7842257234554709,-0.30775347865219643,0.5303144354098903
-10419.531307220459,2128.0,396.0,16724.0,1253.0,2053.0,3659.0,-0.27566406672981597,0.5421669691527907,-0.48315254095898474,0.6297840280910061
-10419.54688167572,1992.0,476.0,16708.0,933.0,2095.0,3416.0,-0.3946030226274835,0.2450744420791406,-0.6059615311662788,0.6457844803953332
-10419.562469482422,1684.0,112.0,16512.0,1010.0,2361.0,3120.0,-0.4406389304132724,-0.0828718595823118,-0.6572842074962052,0.6057615524855489
-10419.578031539917,1528.0,136.0,16276.0,714.0,2235.0,2837.0,-0.43538747605609834,-0.37251211626697367,-0.6520250341881644,0.4965237393314885
-10419.593655824661,1144.0,180.0,16328.0,762.0,1843.0,2576.0,-0.4015115238599537,-0.6039915097221122,-0.5821324709245584,0.3675656930217095
