programtime,ax,ay,az,gx,gy,gz,q0,q1,q2,q3
-9207.570052862167,-2412.0,1300.0,-16248.0,788.0,-1189.0,-1506.0,0.9840268772919143,0.06782163217543485,-0.10181660215453325,-0.1293240522945718
-9207.585643529892,-2284.0,1084.0,-16196.0,1424.0,-1234.0,-830.0,0.9401294240730569,0.1809582798658405,-0.21558320572694029,-0.19218389201115235
-9207.601212739944,-2188.0,1612.0,-16056.0,1458.0,-1216.0,-1139.0,0.8590974715409742,0.2963794650707882,-0.3161181329705471,-0.2723601899754701
-9207.616853237152,-2596.0,1532.0,-16224.0,1670.0,-1321.0,-1464.0,0.7262418683103292,0.4202385730625256,-0.40690275629418626,-0.3611127764891308
-9207.632427453995,-2588.0,1096.0,-16480.0,1965.0,-1210.0,-1406.0,0.5515563115780997,0.541890309657389,-0.4808769687717901,-0.41339795398941664
-9207.6480550766,-2708.0,1384.0,-15904.0,2348.0,-1104.0,-1626.0,0.32393571760166245,0.6602881491163174,-0.5235401816462131,-0.4301056721322033
-9207.663623571396,-3316.0,1232.0,-15708.0,2377.0,-1184.0,-3532.0,0.0001003753890727663,0.7879516596998176,-0.4131103528954353,-0.4565873500565832
-9207.679235458374,-4024.0,-688.0,-16524.0,2347.0,-1274.0,-2680.0,-0.2982037269252727,0.7919095756542849,-0.306141405999864,-0.4361550191931238
-9207.694819688797,-3572.0,168.0,-16156.0,4361.0,-1241.0,1007.0,-0.550734738132432,0.5602213228700497,-0.4722044578082302,-0.39983279960749635
-9207.710438489914,-3956.0,1668.0,-15396.0,3654.0,-1238.0,-1362.0,-0.7795384650126257,0.3745562916740028,-0.446224849910233,-0.23002336676035487
-9207.726033449173,-3372.0,-440.0,-15636.0,3730.0,-1332.0,-3180.0,-0.929792659449528,0.19938083388806066,-0.29875392873623924,0.08049213363141547
-9207.741607904434,-2808.0,440.0,-15296.0,3893.0,-1001.0,-3873.0,-0.8957653435816705,-0.007517917500790909,-0.11066614555893997,0.4304659503161553
-9207.757191419601,-2088.0,444.0,-15020.0,3564.0,-652.0,-2703.0,-0.7425053988409042,-0.219182367754022,0.0670661627437862,0.6294020592377135
-9207.772772789001,-2564.0,-1440.0,-15608.0,2230.0,-578.0,-2562.0,-0.5321192864421751,-0.3325241190080278,0.17041814833253074,0.7597594553495974
-9207.78836107254,-3448.0,-2012.0,-15416.0,2301.0,-640.0,-2199.0,-0.29817955083029424,-0.4136480163072567,0.27796748097825874,0.8140751522988016
-9207.80406832695,-4336.0,-2520.0,-15280.0,1729.0,-896.0,-1984.0,-0.07092015872187511,-0.4308777863951547,0.34261350216483105,0.831823690701596
-9207.81968331337,-3728.0,-844.0,-15260.0,1806.0,-1077.0,356.0,0.003338820274327996,-0.34751051283275386,0.485539985728194,0.8021696940230024
-9207.835289478302,-4304.0,-1324.0,-16444.0,388.0,-1323.0,-1184.0,0.1521912367091346,-0.3013917145088481,0.470699083502104,0.8151338753141354
-9207.850854635239,-4028.0,-896.0,-16804.0,1464.0,-1304.0,-212.0,0.2555851464859217,-0.19522342113976984,0.5441362898192349,0.7749062826148795
-9207.866456985474,-4652.0,244.0,-16152.0,1051.0,-932.0,-2295.0,0.46038302674674364,-0.21210254581285573,0.5408301295294173,0.6712397110842043
-9207.882028579712,-3732.0,-76.0,-16808.0,1567.0,-755.0,-1623.0,0.6070469045780841,-0.17785606823598388,0.5605207677192882,0.534488300703751
-9207.897593259811,-3988.0,532.0,-17308.0,1969.0,-692.0,-1451.0,0.7214538728186202,-0.10967960656347822,0.5793399813473665,0.3630976167802916
-9207.91360783577,-2592.0,1220.0,-15676.0,518.0,50.0,-3613.0,0.7986466502167178,-0.2490186569890029,0.5379479430644069,0.10375570886357233
-9207.92936038971,-2436.0,-2228.0,-16740.0,1357.0,187.0,-1935.0,0.8193388028716738,-0.24198020122088698,0.510636107657196,-0.09685181403887014
-9207.944951057434,-3368.0,-1068.0,-15900.0,1761.0,374.0,-1729.0,0.8061782996600877,-0.18570659494177943,0.4751016822219023,-0.29977992144608046
-9207.960528612137,-3016.0,568.0,-14284.0,863.0,624.0,-1619.0,0.7412778828964353,-0.17338698571641806,0.46388208626161115,-0.45305348862836126
-9207.976259708405,-2668.0,-1480.0,-14608.0,102.0,916.0,-730.0,0.6732093419795794,-0.15936318685025358,0.5056678515559074,-0.5154537617004902
-9207.992522239685,-3124.0,-2852.0,-15060.0,-1641.0,97.0,-1131.0,0.5862676233518511,-0.2968937818518817,0.5612488873625637,-0.5031342192112794
-9208.008161306381,-2976.0,-3552.0,-16320.0,847.0,-108.0,4361.0,0.7503887723069061,-0.041791486355489495,0.5890206201920022,-0.29702671774196043
-9208.023866653442,-4684.0,-1620.0,-14320.0,-1696.0,-218.0,-966.0,0.7196981739428168,-0.20515740534051588,0.6065870109073195,-0.26832289439376217
-9208.039464473724,-2648.0,-2068.0,-14792.0,-16.0,-177.0,3428.0,0.7748399111739632,-0.02771987482367178,0.6298061906441452,-0.046892246885763066
-9208.055092811584,-5296.0,-2264.0,-15188.0,-805.0,-302.0,1091.0,0.787993050977877,-0.02329231400151366,0.6110966249254906,0.07131153289409924
-9208.070684432983,-5264.0,-1052.0,-15120.0,-609.0,-236.0,1000.0,0.788660806559985,-0.010349101823780116,0.5901712590874254,0.17206078354685514
-9208.086296796799,-5224.0,-1708.0,-14876.0,-1374.0,-321.0,631.0,0.7871875049138473,-0.06703324733316025,0.5433646836403205,0.28389645371497235
-9208.101891040802,-4708.0,-1396.0,-14788.0,-1512.0,-374.0,149.0,0.7849614465531838,-0.1532183280831261,0.4769320718845173,0.36454830979238745
-9208.117542266846,-4476.0,-936.0,-15764.0,-1536.0,-452.0,-845.0,0.8000656546133563,-0.27590835998859786,0.3813458119620031,0.3719474383505609
-9208.133149385452,-3784.0,-652.0,-15972.0,-2164.0,-312.0,-1591.0,0.7882013151802122,-0.45740850200826405,0.2445396543792308,0.3312348207462889
-9208.14875125885,-2368.0,-524.0,-16464.0,-1639.0,-403.0,-481.0,0.7365220687988981,-0.5624257474277421,0.1486602622316235,0.3451270016034124
-9208.164324522018,-2328.0,-384.0,-16556.0,-1713.0,-280.0,-725.0,0.6687670687975429,-0.6648295614681964,0.04300669439497573,0.3300040698645479
-9208.179934501648,-2244.0,-324.0,-16388.0,-1373.0,-275.0,-77.0,0.5877527668965185,-0.732085429272805,-0.016879885299927094,0.3439661011265517
-9208.195516109467,-2596.0,464.0,-16620.0,-1082.0,-148.0,634.0,0.4961387748913235,-0.7795555307764973,-0.016317356616835296,0.38193354704470417
-9208.211100101471,-3264.0,1024.0,-16376.0,-1135.0,-60.0,495.0,0.3997683094975079,-0.8227802672754275,-0.022898646392952013,0.4033529254846819
-9208.226698637009,-3916.0,568.0,-16016.0,-1394.0,108.0,-74.0,0.3000326520057054,-0.8687586693820285,-0.07292919102290589,0.38719519005371816
-9208.2422747612,-4216.0,-420.0,-16224.0,-1087.0,74.0,104.0,0.2133924328794576,-0.896436965526879,-0.0993602026690496,0.3754889965795437
-9208.257865428925,-4796.0,-676.0,-15580.0,-1169.0,140.0,-993.0,0.15411177043220636,-0.906154719858137,-0.2108146428317683,0.33270162647751805
-9208.27345252037,-4712.0,-844.0,-15852.0,-628.0,36.0,-49.0,0.10618018565072034,-0.9134661463664207,-0.23207605487831698,0.3169322835713899
-9208.289040088654,-4528.0,128.0,-15408.0,-458.0,-248.0,672.0,0.04574565052554187,-0.9220254514575436,-0.19293070818132588,0.3324968333129808
-9208.304707288742,-4204.0,388.0,-15292.0,-833.0,96.0,863.0,-0.04456928136099741,-0.9376018557846996,-0.1464684093663398,0.3121911982195297
-9208.320302248001,-3704.0,-1004.0,-15564.0,-1497.0,102.0,692.0,-0.1826190072507504,-0.9338458882642195,-0.12971940820164798,0.27884588987212194
-9208.335879087448,-3040.0,-2412.0,-16292.0,-1131.0,146.0,1819.0,-0.31172950099638397,-0.9240122136559987,-0.011191670249068105,0.22113546468199674
-9208.351455688477,-2804.0,-1996.0,-15720.0,-803.0,121.0,3002.0,-0.41886910043411024,-0.8759016803187885,0.2046570738086591,0.1243398779809571
-9208.36706662178,-2512.0,-584.0,-15404.0,-645.0,54.0,4073.0,-0.4827403625700173,-0.7342309584333703,0.47708007287048215,-0.016163109035022445
-9208.382676124573,-2912.0,-272.0,-15112.0,-881.0,-38.0,3622.0,-0.5061256114242008,-0.5197157132344954,0.6771607491195302,-0.12323052677610041
-9208.398251533508,-3880.0,-1292.0,-15744.0,-787.0,-892.0,5498.0,-0.3857327860833242,-0.15235440476623782,0.8747886825797779,-0.25048575592048833
-9208.413841247559,-3724.0,-1000.0,-15468.0,-928.0,-796.0,5726.0,-0.18865405958257173,0.2659183221888366,0.8888006342642905,-0.32207223453549166
-9208.429439783096,-4060.0,328.0,-16224.0,-362.0,-584.0,5787.0,0.024892585366203007,0.6278451170020494,0.6902252094239502,-0.3588593436517059
-9208.445039510727,-4644.0,1504.0,-15380.0,-1149.0,-287.0,2352.0,0.1743539665047484,0.7388498771150929,0.5815781084609528,-0.2923498883359691
-9208.460665225983,-5264.0,100.0,-16168.0,-1363.0,-7.0,1619.0,0.2987091087703744,0.7868734805752677,0.5034017163991246,-0.19542186630821998
-9208.476256370544,-4364.0,732.0,-15816.0,-390.0,-37.0,2295.0,0.3586534814388516,0.859429387706738,0.3445491165112941,-0.11846819872480276
-9208.491851091385,-4140.0,1224.0,-15816.0,-826.0,70.0,490.0,0.42178232325960746,0.8461680295632052,0.3174939494051056,-0.0727800083951536
-9208.507439613342,-3688.0,1124.0,-15656.0,-609.0,63.0,-955.0,0.45641859294439086,0.7939371516530969,0.39236259945108476,-0.08600847511505813
-9208.523109912872,-3416.0,472.0,-16032.0,-539.0,140.0,-747.0,0.48148592218742087,0.7456090798500277,0.45234160704447945,-0.08732397904895103
-9208.53867650032,-3188.0,256.0,-16236.0,378.0,80.0,839.0,0.4583517930909921,0.7927628367700273,0.3970489230991561,-0.06158628964641271
-9208.554254770279,-3204.0,1000.0,-16112.0,292.0,228.0,441.0,0.43178368247724774,0.8200259975140769,0.373706719386043,-0.03825575555589212
-9208.569814443588,-3436.0,516.0,-15856.0,371.0,220.0,-378.0,0.3960053583186005,0.8214843113857251,0.40737960047152066,-0.048837930440817814
-9208.585385799408,-3768.0,260.0,-15736.0,337.0,213.0,-904.0,0.3587885096089428,0.7990192822412957,0.4764225287743896,-0.07655433400803476
-9208.60095000267,-4136.0,-92.0,-15692.0,569.0,38.0,-478.0,0.3133735730619967,0.7956028186616239,0.5061577053574718,-0.11232780577976033
-9208.616562128067,-4496.0,260.0,-15468.0,467.0,118.0,-627.0,0.2686439743181653,0.7800345197258056,0.5471138952301811,-0.1415731215475981
-9208.632132053375,-4460.0,164.0,-15624.0,611.0,217.0,-575.0,0.20868817524672648,0.7674400784478411,0.5821963559985786,-0.16891528813621204
-9208.647813796997,-4408.0,-176.0,-15628.0,392.0,363.0,-870.0,0.15029077430522023,0.7328680998780644,0.6388173810134856,-0.1795254440321031
-9208.663427829742,-3880.0,-180.0,-15852.0,685.0,321.0,24.0,0.08856674608089905,0.7466398196215566,0.6294354957116108,-0.19620363906515606
-9208.679013252258,-3820.0,336.0,-15708.0,597.0,278.0,273.0,0.03898808804681417,0.7695886895536876,0.6024344139038702,-0.2080527693778492
-9208.694628477097,-3364.0,708.0,-16100.0,182.0,402.0,-617.0,-0.005466347694710127,0.7435117242577383,0.6405455064525164,-0.19199450277977928
-9208.710204601288,-3036.0,-312.0,-16276.0,104.0,466.0,360.0,-0.032041128259111096,0.7704015834058503,0.6144016868708899,-0.1672283874102926
-9208.725837945938,-3624.0,-124.0,-15736.0,-338.0,410.0,-294.0,-0.03528177889362514,0.7605497150456288,0.6370513535479031,-0.12035322997285369
-9208.741424560547,-3484.0,-176.0,-15612.0,-220.0,294.0,391.0,-0.03257057304064602,0.7852282714624688,0.6118206997906818,-0.08961668804139136
-9208.75700044632,-4228.0,-280.0,-15816.0,-392.0,283.0,663.0,-0.015276066802596485,0.8218704916449493,0.5671717040629086,-0.05110572234797541
-9208.77256989479,-4236.0,252.0,-15620.0,-80.0,284.0,1000.0,-0.018778701597958445,0.8691611360479052,0.49336996492345064,-0.028148848318231078
-9208.788142681122,-4448.0,-52.0,-15840.0,-724.0,445.0,-98.0,0.016907034574901104,0.8648238602524337,0.5004537157649562,0.03660493541874447
-9208.803858041763,-4236.0,-504.0,-15732.0,-111.0,348.0,820.0,0.007514069512617899,0.896630546012384,0.43739845561090057,0.06840901801730873
-9208.819471120834,-4252.0,372.0,-15668.0,-427.0,351.0,-36.0,0.027814535164112544,0.8918628393513188,0.43740752556096313,0.11172145720694526
-9208.835077524185,-3732.0,296.0,-15676.0,-488.0,403.0,-367.0,0.05393391414400043,0.8710019060844294,0.4612883936372141,0.16018686087815381
-9208.850682973862,-3836.0,-184.0,-16040.0,-309.0,398.0,-82.0,0.0624841874253881,0.8598786966356836,0.46466003241381804,0.2019787307393929
-9208.866269826889,-3176.0,288.0,-15916.0,-128.0,445.0,134.0,0.05163263533402783,0.8560734930451421,0.4544271518159549,0.24076588040333166
-9208.881846666336,-3188.0,120.0,-15980.0,-27.0,379.0,625.0,0.0254372476235042,0.8710729312962122,0.40809943413374133,0.27210245617429724
-9208.897422790527,-3428.0,456.0,-15760.0,97.0,458.0,730.0,-0.015507149611098258,0.883966271960694,0.3549668741323461,0.3039106391944229
-9208.913090705872,-3700.0,-12.0,-15792.0,-233.0,468.0,915.0,-0.036101451189274256,0.896531661933893,0.27644752152886337,0.3442447272110773
-9208.928769826889,-3884.0,24.0,-15768.0,218.0,476.0,1263.0,-0.10181786149528474,0.9057071359093277,0.1814300677770942,0.3693383781166652
-9208.944345474243,-3900.0,104.0,-15940.0,-161.0,569.0,380.0,-0.1100698130670607,0.8932688655125093,0.14090738115030194,0.4124323945748449
-9208.959969043732,-3604.0,28.0,-15632.0,-130.0,537.0,370.0,-0.11958931475674817,0.8784092988467814,0.10207280833144376,0.45130548555811884
-9208.975554943085,-3664.0,-64.0,-15852.0,-488.0,533.0,939.0,-0.12319339282965451,0.8664139537925194,0.005287277420301294,0.4838618535638177
-9208.991146326065,-3768.0,-336.0,-16044.0,-179.0,434.0,1479.0,-0.17070989085109275,0.8431639631188819,-0.11770987179753888,0.4960615390701802
-9209.006770133972,-3668.0,280.0,-15696.0,154.0,415.0,1726.0,-0.24944088956924454,0.7957782680802243,-0.24137332960046834,0.4962409761594929
-9209.022367477417,-3600.0,864.0,-15540.0,-223.0,258.0,760.0,-0.2606538356668144,0.771576343953935,-0.3086862551907708,0.4913678044593017
-9209.037993192673,-3716.0,212.0,-15808.0,-436.0,602.0,-95.0,-0.2104707568988829,0.7567778860640307,-0.3340622891238008,0.5209526644909633
-9209.05358672142,-3780.0,-52.0,-16104.0,-251.0,467.0,328.0,-0.1948464135617169,0.7296689361524832,-0.3752618016946963,0.5373980823608233
-9209.069176912308,-3632.0,60.0,-16100.0,-524.0,467.0,338.0,-0.1616138688411001,0.7041299261312666,-0.4284224621491052,0.5427118926748219
-9209.084745168686,-3820.0,-32.0,-16480.0,299.0,401.0,1133.0,-0.2173620763138879,0.6350034842253462,-0.4868301045943312,0.5590355552761008
-9209.100318431854,-3760.0,1168.0,-15696.0,473.0,580.0,-388.0,-0.1994145904798867,0.6127081071967235,-0.4521819595308588,0.6167285237071334
-9209.115933656693,-4096.0,1352.0,-15904.0,1197.0,694.0,-928.0,-0.18411887327818074,0.5851613256446404,-0.34672562897158254,0.7095546502467874
-9209.131550073624,-4816.0,1900.0,-15700.0,56.0,755.0,-3946.0,0.07573814739228127,0.6200902537328634,-0.14533393595387994,0.7672221694628303
-9209.147122383118,-4508.0,-900.0,-16332.0,731.0,614.0,-2007.0,0.17505562674048017,0.5983583494154445,0.01591329491777517,0.7817093963079772
-9209.162692308426,-4240.0,224.0,-16072.0,132.0,755.0,-1722.0,0.2807997881888774,0.5394836711496804,0.12473344625914984,0.7839326596719011
-9209.178275108337,-3532.0,-284.0,-15636.0,532.0,213.0,-393.0,0.27976693685224,0.5329394619854173,0.18460647707786465,0.7769339994645031
-9209.193867206573,-3644.0,156.0,-15880.0,365.0,526.0,-1858.0,0.3747918730822374,0.4696262934439765,0.30430008684937676,0.7391776873804037
-9209.209451198578,-3516.0,236.0,-15696.0,1416.0,641.0,-1974.0,0.41710442532766673,0.41254256592326394,0.48613856126453725,0.6476896084739758
-9209.225035905838,-4104.0,1908.0,-15552.0,1449.0,771.0,-3696.0,0.5101990377639469,0.24989760360131993,0.6877737376471197,0.4519019975414704
-9209.240607738495,-2420.0,2708.0,-15268.0,-1077.0,1558.0,-8386.0,0.6164975435386542,-0.2901429325770097,0.718123626613774,0.1415850076296876
-9209.256188869476,-3844.0,-1604.0,-16388.0,281.0,633.0,-2249.0,0.598982480007873,-0.41519443123345,0.6845938334682001,-0.012839629810242833
-9209.271843910217,-7448.0,2588.0,-13156.0,-3537.0,732.0,-9531.0,0.3109994800001408,-0.8732423110092862,0.28521751013563423,-0.24367634603061583
-9209.287465810776,-2016.0,-5744.0,-16480.0,-1040.0,57.0,-1017.0,0.20690100035805448,-0.9182703369968658,0.22962025025731267,-0.24747950402865337
-9209.303084135056,-3844.0,-1088.0,-14984.0,-1535.0,764.0,-5828.0,-0.05071272764519721,-0.9244897631446376,-0.16824137381654283,-0.33829238423570596
-9209.318700313568,-1320.0,-2512.0,-15880.0,-1543.0,307.0,-1974.0,-0.22352744289973633,-0.8591534350095055,-0.2766866741150356,-0.3678795206983293
-9209.334275960922,-452.0,-756.0,-15364.0,-1307.0,180.0,1522.0,-0.2641146086844469,-0.851732986156572,-0.12229391202752156,-0.4357047083212149
-9209.349840641022,-384.0,40.0,-16276.0,-1967.0,392.0,2470.0,-0.30071253823585176,-0.788231591216823,0.12239967111664318,-0.5227630901910388
-9209.365407943726,-868.0,-972.0,-16812.0,-1477.0,560.0,3076.0,-0.25641180719184214,-0.6618031433121002,0.3702343271219472,-0.5993297319968337
-9209.380981683731,-1488.0,-472.0,-16392.0,-980.0,339.0,4702.0,-0.07184465160502095,-0.43367409240218513,0.6320491778723635,-0.638184114786449
-9209.396565914154,-2204.0,36.0,-16292.0,-2238.0,191.0,4238.0,0.06364918542383176,-0.16173839789737957,0.8449898404066437,-0.5057485951043528
-9209.41215634346,-1964.0,-1648.0,-16508.0,-1177.0,-207.0,7526.0,0.328450641516384,0.3143548757755164,0.8344733038756641,-0.3113767706211704
-9209.427815437317,-3240.0,524.0,-15400.0,-1401.0,-85.0,6328.0,0.47421843143632114,0.6377820487368776,0.606353838410447,-0.02619084267418328
-9209.443441152573,-4508.0,348.0,-15868.0,-1531.0,-75.0,5872.0,0.5095255668886163,0.782173430510727,0.24752809111990132,0.2594576369977438
-9209.459035873413,-5676.0,604.0,-15664.0,-834.0,16.0,5897.0,0.383699225114245,0.7740086044840904,-0.15356315937270235,0.4796915059856627
-9209.474652528763,-5780.0,1564.0,-15540.0,-1434.0,274.0,3533.0,0.31895807551337246,0.63307912222464,-0.4203165941371583,0.5664013874992049
-9209.49022936821,-5088.0,764.0,-16012.0,-1051.0,625.0,2312.0,0.27839853897985284,0.47604675947744607,-0.5681204327823708,0.6108296899628225
-9209.505822896957,-3660.0,1776.0,-15484.0,-1015.0,831.0,643.0,0.32476989638259585,0.37232904137157785,-0.623871303303325,0.6055412424183598
-9209.521396398544,-2740.0,992.0,-16076.0,-1208.0,841.0,305.0,0.39023274447367123,0.27479372071701796,-0.6682550719709286,0.5706504840795045
-9209.536964178085,-2200.0,524.0,-16284.0,-931.0,436.0,1080.0,0.38084619483765475,0.15714048530205532,-0.7198114989467082,0.5586899406117912
-9209.552539110184,-2044.0,256.0,-16340.0,-847.0,325.0,2378.0,0.28971861954156075,-0.035343912132136876,-0.7644946593959012,0.5747711241192212
-9209.568104982376,-2036.0,1636.0,-15880.0,-543.0,309.0,3248.0,0.13989508099210957,-0.2702603752324122,-0.7437327334496753,0.5951893119747036
-9209.583717346191,-3020.0,1092.0,-15756.0,-1077.0,490.0,2168.0,0.03282429964329807,-0.4395644778236783,-0.7260261671648415,0.5278178092679834
-9209.59930896759,-3076.0,1140.0,-15760.0,-676.0,517.0,2467.0,-0.07221164191140869,-0.6061967337114038,-0.6446454884761141,0.46015561823960843
-9209.614880084991,-3832.0,1192.0,-15936.0,-1297.0,788.0,797.0,-0.127110347352741,-0.6671776745967027,-0.6523230452699788,0.3364395261043257
-9209.630491733551,-3268.0,1064.0,-15768.0,-1331.0,929.0,421.0,-0.16231165530076028,-0.6963096687433377,-0.6700859573941982,0.19948077970363717
-9209.64607667923,-3216.0,1000.0,-16012.0,-1630.0,785.0,-45.0,-0.21189880011372314,-0.6759290292154223,-0.7036109864536918,0.05612865325236264
-9209.661661148071,-3120.0,700.0,-16028.0,-1689.0,907.0,468.0,-0.25407092017987537,-0.6680870502228689,-0.6909500419011202,-0.10814666171592008
-9209.677255392075,-2564.0,760.0,-16008.0,-1460.0,829.0,1293.0,-0.2721544343404628,-0.6941574539706684,-0.6099340949866822,-0.2684358261085117
-9209.692861795425,-2596.0,1396.0,-15976.0,-1400.0,742.0,1753.0,-0.2705671761544843,-0.7217549797320088,-0.4786304426780301,-0.4204474423297982
-9209.708452224731,-2916.0,1400.0,-16300.0,-1565.0,998.0,1446.0,-0.26871173706564105,-0.694253011275564,-0.34660489483250295,-0.5706766208424234
-9209.724067211151,-2636.0,1864.0,-16080.0,-1387.0,745.0,1527.0,-0.24958458461595087,-0.659047559314525,-0.1990118237261771,-0.6809979028608178
-9209.739655017853,-2664.0,1584.0,-15924.0,-1775.0,941.0,452.0,-0.30358172225754065,-0.5635277364850649,-0.08674633873683224,-0.7633804430550467
-9209.755210638046,-2460.0,1308.0,-16004.0,-1574.0,959.0,838.0,-0.3130283989187471,-0.45747547876087097,0.033319740765819075,-0.8316364606474251
-9209.770816802979,-2888.0,1880.0,-15804.0,-1728.0,1059.0,43.0,-0.37613257265085714,-0.3284846800208152,0.12947328562440125,-0.8566555731986413
-9209.78643321991,-2904.0,1600.0,-15832.0,-1463.0,926.0,-142.0,-0.434181514322775,-0.21072897708295663,0.20213171278496725,-0.8521868818073699
-9209.802031040192,-2964.0,1744.0,-16132.0,-1347.0,954.0,418.0,-0.43984326580065586,-0.08071778623675971,0.27105943849639147,-0.8523786255631188
-9209.817606925964,-3280.0,1824.0,-16520.0,-1398.0,850.0,177.0,-0.45193266739203175,0.03992596582855804,0.34047528692895196,-0.8235528886399633
-9209.83321261406,-2640.0,1416.0,-15820.0,-1343.0,860.0,590.0,-0.42565259940901284,0.17046605371006232,0.3969527473477147,-0.7951035816307018
-9209.848793506622,-2232.0,2172.0,-15400.0,-1129.0,966.0,34.0,-0.4362054846226221,0.27843710420991546,0.43548384787094185,-0.7365808661836516
-9209.864388942719,-2512.0,1824.0,-16048.0,-1290.0,1040.0,-555.0,-0.47444552489667097,0.3692149968151423,0.48685921214812505,-0.6336796016748716
-9209.880007982254,-2272.0,1716.0,-15676.0,-1095.0,958.0,158.0,-0.46717610833858997,0.4705935483137899,0.4987696790317808,-0.5581370829478912
-9209.895586967468,-2624.0,2388.0,-15812.0,-1420.0,1015.0,-686.0,-0.47987935242318,0.5410388088763219,0.547562990003108,-0.4209128014048235
-9209.911625146866,-2884.0,1648.0,-16688.0,-1485.0,820.0,-443.0,-0.4596400021915686,0.6052839341267969,0.5820156477004762,-0.28917159837217266
-9209.927325963974,-2584.0,1344.0,-16032.0,-1596.0,760.0,467.0,-0.3968639982789169,0.7034223934102064,0.5601337293434354,-0.18424469753820275
-9209.94292473793,-2152.0,1988.0,-15504.0,-1236.0,697.0,1235.0,-0.3304896892561429,0.8071020733515584,0.47377089861796906,-0.12208171079124013
-9209.95849776268,-2668.0,2548.0,-15748.0,-1728.0,877.0,-233.0,-0.24370077116616928,0.8445623703692609,0.4764582341281688,0.017660345997098714
-9209.974053382874,-2408.0,1536.0,-15980.0,-1583.0,778.0,146.0,-0.15741938932022084,0.8728064728784527,0.44149682264974677,0.13604614054688047
-9209.989631652832,-2400.0,2488.0,-15968.0,-1777.0,835.0,-426.0,-0.04817509023178864,0.8578549758109214,0.43477981487261674,0.2696859539110918
-9210.00519990921,-2384.0,2520.0,-16040.0,-1858.0,915.0,-848.0,0.07489771385651488,0.7969790348290834,0.4424035442557949,0.4043437331428314
-9210.02080321312,-2008.0,2472.0,-16004.0,-1695.0,887.0,-499.0,0.1736138540517977,0.7247562529799239,0.4170465740850194,0.5202487467469101
-9210.036361932755,-2244.0,2048.0,-16196.0,-1819.0,1013.0,-728.0,0.2796922267480497,0.6136145520386862,0.38885669920835886,0.627725981064875
-9210.051987409592,-1964.0,2544.0,-16052.0,-1562.0,752.0,-239.0,0.34684715720545406,0.520343413728157,0.33078007741024645,0.7067703458102176
-9210.067556142807,-2156.0,2808.0,-15952.0,-1737.0,803.0,-447.0,0.42389389340890815,0.39971101636732065,0.2645827580514795,0.7684666776556502
-9210.083174228668,-2016.0,2672.0,-15928.0,-1612.0,823.0,-176.0,0.4670551227902385,0.27757081746777107,0.19089188470329368,0.8175415842145846
-9210.098761796951,-1936.0,2972.0,-15948.0,-1476.0,1004.0,-457.0,0.512101284040338,0.13662655534304763,0.1360733844622554,0.837000294683531
-9210.114342689514,-2456.0,3276.0,-15796.0,-1937.0,1012.0,-1555.0,0.6200141743365895,-0.0410724035632975,0.057111421449109634,0.7814305898973454
-9210.130029439926,-2856.0,1700.0,-16364.0,-1834.0,805.0,-439.0,0.6293531320469897,-0.19444279573924228,-0.02527540980345719,0.7519759225048492
-9210.145609617233,-2576.0,1864.0,-15988.0,-1806.0,653.0,1188.0,0.5122576260669531,-0.3329905045202962,-0.08600635918831219,0.7869640110035142
-9210.161175012589,-2124.0,2236.0,-15888.0,-2048.0,466.0,1401.0,0.35149232163145444,-0.4564012276608359,-0.16122317571334224,0.8013477115689023
-9210.176762104034,-2260.0,2804.0,-15828.0,-2266.0,274.0,378.0,0.23383209318463888,-0.5397599377195184,-0.2903773991799763,0.7547600465547872
-9210.192342281342,-2360.0,2808.0,-15680.0,-2473.0,594.0,279.0,0.1111728967277992,-0.6213337249831201,-0.41775568919041806,0.6535022367067993
-9210.207954645157,-2172.0,3408.0,-15664.0,-2271.0,742.0,406.0,-0.007993321780008283,-0.685486279429663,-0.5068890765173621,0.5225974852866927
-9210.223536252975,-2496.0,3032.0,-16116.0,-2503.0,866.0,-90.0,-0.11240871880397536,-0.7008714842162579,-0.6109267516368289,0.3505880013403496
-9210.239127874374,-1476.0,3220.0,-15868.0,-2480.0,1010.0,563.0,-0.22123918338311835,-0.7173557377561118,-0.6441685994770857,0.1466314587395406
-9210.254707813263,-1756.0,2808.0,-16220.0,-2343.0,503.0,1545.0,-0.34857904649047006,-0.7428209599613224,-0.5697901716827124,-0.045264003841014866
-9210.27028799057,-1772.0,3196.0,-15860.0,-2335.0,233.0,2367.0,-0.4596736109036619,-0.7573128456010337,-0.39783224722235144,-0.23855173106994518
-9210.285855054855,-2120.0,3548.0,-15928.0,-2119.0,67.0,2343.0,-0.5286917664897636,-0.7253730115825977,-0.1944343137081371,-0.39561889207464745
-9210.301431655884,-2176.0,4140.0,-15720.0,-1942.0,509.0,908.0,-0.6005121685566778,-0.6224392123780826,-0.09182504401075375,-0.49348021601876946
-9210.317004203796,-1708.0,4500.0,-15332.0,-2043.0,602.0,-904.0,-0.7307510088317348,-0.4729307521841431,-0.08292222312323541,-0.48524568173477134
-9210.332700252533,-2256.0,3860.0,-16060.0,-2295.0,622.0,-1699.0,-0.8651570652883623,-0.2792925021314888,-0.09267647697055878,-0.40609114894452714
-9210.348270177841,-2056.0,3344.0,-16184.0,-1621.0,472.0,-742.0,-0.9153255176988214,-0.13275473957853098,-0.08798046917057287,-0.3698848642663648
-9210.363876581192,-1956.0,3576.0,-15924.0,-1590.0,294.0,589.0,-0.9023501564641694,-0.0010189076566842292,-0.05294141198505042,-0.4277386630330548
-9210.379462957382,-1380.0,3464.0,-15964.0,-1180.0,112.0,1779.0,-0.821365852071911,0.0862089533947636,-0.0175391199446164,-0.5635765544061703
-9210.395082235336,-1936.0,4024.0,-15724.0,-1143.0,81.0,1434.0,-0.7327550988010948,0.16782520105383822,0.02148194499559144,-0.6591230485360399
-9210.410664081573,-1612.0,4024.0,-15724.0,-971.0,107.0,1524.0,-0.623274843205804,0.2362314285195151,0.04736574255330979,-0.7439621418047987
-9210.426275491714,-2300.0,4260.0,-15736.0,-1211.0,308.0,550.0,-0.5598239809663367,0.32236885224021183,0.09706743941883364,-0.7571349586731564
-9210.441889762878,-1872.0,4000.0,-15776.0,-1002.0,324.0,353.0,-0.5085615536114657,0.3941684527787276,0.1368267615316752,-0.7531764828717572
-9210.457521677017,-2100.0,4072.0,-15832.0,-1191.0,346.0,-672.0,-0.5119067459794815,0.45857077240172744,0.22118695930352436,-0.6919108751520261
-9210.473131895065,-1692.0,4168.0,-15792.0,-1097.0,344.0,-897.0,-0.5244383736277713,0.5072068709749182,0.3055375276497521,-0.6118434452539048
-9210.48874282837,-1680.0,3420.0,-16436.0,-412.0,38.0,871.0,-0.45892808889181597,0.5496106639417274,0.2863197294440813,-0.636658573992927
-9210.504330396652,-1764.0,4604.0,-15440.0,-523.0,156.0,170.0,-0.4276035595533674,0.5829839604052155,0.3006555218003612,-0.622005751563836
-9210.519935369492,-1564.0,3980.0,-15844.0,-212.0,46.0,450.0,-0.39306606116802834,0.604855657595446,0.28734065954733923,-0.6301460548186687
-9210.535545110703,-1712.0,4836.0,-15472.0,-369.0,305.0,-820.0,-0.4247161879543795,0.611856572645223,0.3393343360074436,-0.5745432121318016
-9210.551114797592,-1816.0,4124.0,-15648.0,-181.0,273.0,-505.0,-0.44766917833020525,0.616665815209981,0.3648190313258791,-0.534997807011408
-9210.56669664383,-1876.0,4244.0,-15784.0,144.0,186.0,-254.0,-0.47280760187661774,0.6115710264108926,0.36440710246437125,-0.519269982702573
-9210.582259654999,-1956.0,4084.0,-15760.0,-240.0,229.0,-907.0,-0.5064045668837063,0.6010851897554755,0.41285539002001104,-0.4602189003369748
-9210.5978474617,-1700.0,3956.0,-15784.0,437.0,146.0,-440.0,-0.5512261990768156,0.5711023606064237,0.4114001980494466,-0.4480420161167628
-9210.613417625427,-1704.0,4232.0,-15656.0,253.0,168.0,-884.0,-0.602251944122497,0.53219442618127,0.43614904523848214,-0.4047662274447091
-9210.629038333893,-1756.0,4204.0,-15716.0,548.0,118.0,-1024.0,-0.6647516594074931,0.46636278365463507,0.4559266502385469,-0.3643375837587196
-9210.644699335098,-1640.0,3940.0,-15768.0,339.0,217.0,-1413.0,-0.7259952565925551,0.3943232614737192,0.4862549428468399,-0.2845982842935904
-9210.660291194916,-1700.0,3880.0,-15728.0,619.0,83.0,-630.0,-0.7640124641535828,0.32959575372596733,0.48605030157321755,-0.2672203174991868
-9210.675938606262,-1580.0,3948.0,-15672.0,496.0,67.0,-766.0,-0.7962906000726051,0.2648768563003615,0.4907139334340856,-0.23443840719066544
-9210.691534280777,-1928.0,3704.0,-15640.0,543.0,-28.0,-708.0,-0.8194900450211541,0.19575553443843915,0.4966568020115918,-0.208441497460478
-9210.70713686943,-1848.0,4080.0,-15628.0,563.0,35.0,-699.0,-0.8406141532609542,0.12549557448933027,0.49460076691663113,-0.1816281571960751
-9210.7226998806,-1972.0,3728.0,-15632.0,538.0,150.0,-543.0,-0.8594614525818957,0.0648284256061211,0.480183929690721,-0.1629315206644382
-9210.738284111023,-2104.0,3944.0,-15848.0,745.0,174.0,-598.0,-0.8761950849074374,-0.013624525937470948,0.4585586491716858,-0.1477176724257003
-9210.753861188889,-1700.0,3744.0,-15712.0,735.0,141.0,6.0,-0.8788826703551804,-0.0677172075208977,0.43765189510781033,-0.17731455175326438
-9210.769429445267,-1820.0,4220.0,-15556.0,763.0,258.0,-710.0,-0.8911857917355213,-0.14885557499207813,0.4003607318978851,-0.15277822736469882
-9210.785017490387,-1640.0,4076.0,-15844.0,584.0,319.0,-1084.0,-0.9035203502554323,-0.22669521665099257,0.3517465763798335,-0.09238290657327604
-9210.8006067276,-1772.0,3892.0,-15548.0,435.0,292.0,-1674.0,-0.9066758418282037,-0.30668563522476466,0.28891299518138386,0.020300744006613414
-9210.816191911697,-2212.0,3272.0,-16068.0,318.0,218.0,-1598.0,-0.8915570186544833,-0.3690056323890387,0.22726539679220645,0.1315726611951583
-9210.831886291504,-2148.0,3288.0,-15956.0,705.0,156.0,-757.0,-0.8595231891713766,-0.43910392266709397,0.19811184256195546,0.17076103247446076
-9210.847483873367,-2088.0,3800.0,-15592.0,126.0,247.0,-949.0,-0.8415354240059112,-0.46717994686803527,0.14462799950844016,0.229442300253806
-9210.863115549088,-1996.0,3144.0,-15912.0,234.0,161.0,-701.0,-0.8180472903889627,-0.49563165069361437,0.10872096364711031,0.2707907856291324
-9210.878704071045,-2016.0,3840.0,-15524.0,-328.0,332.0,-1732.0,-0.7847438626915167,-0.4907967706807246,0.0023662853257689753,0.37853665681295257
-9210.89429807663,-1952.0,2960.0,-16052.0,-524.0,263.0,-848.0,-0.7759569190298617,-0.4621973561577297,-0.06899924920154489,0.42367861331451717
-9210.90987610817,-2140.0,3480.0,-15948.0,-270.0,251.0,-108.0,-0.7807746477209545,-0.4525753033033733,-0.1003113190797837,0.41893219449041263
-9210.925651073456,-1960.0,3892.0,-15464.0,-526.0,372.0,-642.0,-0.7722717887858113,-0.4236710759609707,-0.1697479638457253,0.44191032168288075
-9210.941349744797,-2044.0,4076.0,-15556.0,-308.0,549.0,-517.0,-0.7535681658095061,-0.41565559541031694,-0.23720763129721678,0.4506639381367842
-9210.956945180893,-2024.0,3964.0,-15788.0,-462.0,685.0,-1251.0,-0.700856397478803,-0.3833182282800164,-0.34297064352789136,0.4942050016535316
-9210.972517490387,-1972.0,3624.0,-15916.0,-109.0,561.0,-811.0,-0.6501834152948873,-0.3754071289019029,-0.4077214647459471,0.5197058987836539
-9210.988103151321,-1652.0,3948.0,-16072.0,377.0,626.0,-290.0,-0.6008745966398372,-0.4141166383987054,-0.4347636920004832,0.5276719255677507
-9211.003727912903,-1660.0,4408.0,-15644.0,679.0,719.0,-828.0,-0.5076109077926416,-0.4487989272052087,-0.4682908071977161,0.5671105792731215
-9211.01932644844,-1996.0,4320.0,-15780.0,1167.0,923.0,-1409.0,-0.34882604851149923,-0.481168814952001,-0.49881363224437447,0.6308580820475506
-9211.03495812416,-1844.0,4156.0,-15624.0,1440.0,1031.0,-2256.0,-0.11566361526912386,-0.4692907915872508,-0.5294394596242619,0.6971957685091449
-9211.05059838295,-1976.0,3640.0,-15880.0,1551.0,1049.0,-2317.0,0.13286430699416335,-0.42770162752229585,-0.5232971766793376,0.7249679017868131
-9211.06616306305,-2040.0,3776.0,-15840.0,2178.0,1163.0,-2423.0,0.40256111346574064,-0.3499781978283872,-0.44287829291194675,0.7206376541906598
-9211.081775903702,-1896.0,3528.0,-15700.0,2442.0,1533.0,-2180.0,0.6422334612923012,-0.2637408574044841,-0.28821442264915426,0.6594766014871737
-9211.097378730774,-1856.0,3876.0,-15128.0,2695.0,1556.0,-2433.0,0.8351642134668473,-0.1335667259802256,-0.09648633337475007,0.5247390339274585
-9211.112951993942,-1868.0,3588.0,-15476.0,2511.0,2041.0,-3504.0,0.9620577588138571,-0.01364477634423812,0.11678558707704043,0.24621091656473149
-9211.128550052643,-2092.0,2784.0,-16012.0,2568.0,1829.0,-3929.0,0.9436392266134964,0.11231492027771979,0.2939763726887326,-0.10250980918949738
-9211.144133090973,-1768.0,2564.0,-16292.0,2277.0,1684.0,-3875.0,0.77784939346963,0.19888136026154862,0.4155269851558497,-0.42747380063196294
-9211.159769773483,-992.0,2480.0,-16136.0,2558.0,1466.0,-2756.0,0.544565789764376,0.30883655217748224,0.4411117995016633,-0.643030687446432
-9211.175354003906,-1472.0,2552.0,-16136.0,2206.0,1311.0,-2758.0,0.26579864093729977,0.36219460809715476,0.4314286533119035,-0.7823269555899951
-9211.190938711166,-1236.0,2476.0,-16052.0,2600.0,1214.0,-1796.0,0.01464443450373271,0.42003617653268177,0.3251361005397202,-0.8471373366035149
-9211.206528186798,-1740.0,2868.0,-16084.0,2314.0,1229.0,-3288.0,-0.3267906249286482,0.3950684384090783,0.2593770488740829,-0.8184450885362605
-9211.222133636475,-1208.0,2928.0,-16188.0,1905.0,1164.0,-3655.0,-0.6367886194646162,0.3198159879028373,0.20255611133669685,-0.6717060441608637
-9211.237747430801,-1464.0,1732.0,-16548.0,1361.0,834.0,-2977.0,-0.8286989695247328,0.2309120657233741,0.15312406942857026,-0.486303048698694
-9211.253377199173,-772.0,1468.0,-16476.0,1510.0,479.0,-1495.0,-0.9125920203626733,0.1201899413831093,0.0831891536761221,-0.381850424998257
-9211.268955945969,-1468.0,1156.0,-16404.0,1088.0,216.0,497.0,-0.9039167788569247,0.0444109680418896,0.024465167569994447,-0.42469233380681126
-9211.284532546997,-1304.0,1564.0,-16416.0,1522.0,-127.0,1578.0,-0.8358419082975663,-0.07545337512622098,-0.027818557092847206,-0.5430480829510554
-9211.30012845993,-1584.0,1820.0,-16504.0,931.0,-267.0,1170.0,-0.7681659621342711,-0.1576994075263352,-0.044603957371069466,-0.6189203813666279
-9211.315751314163,-1040.0,2260.0,-15668.0,781.0,-268.0,1705.0,-0.6574085636215569,-0.2283375358386079,-0.04491520630017659,-0.7166997798570938
-9211.331355333328,-1436.0,2076.0,-16260.0,736.0,-277.0,1478.0,-0.5455556423475892,-0.2908700292341949,-0.04527212370263753,-0.7846745197924174
-9211.346930265427,-1364.0,2608.0,-16188.0,643.0,-367.0,-721.0,-0.5776653720153024,-0.3426506525099558,-0.08989639284974976,-0.7353991343899768
-9211.362503051758,-1424.0,2316.0,-16268.0,178.0,-419.0,-1563.0,-0.6691545121252124,-0.36287630285401157,-0.125808795894597,-0.6361801432023985
-9211.378095149994,-836.0,2188.0,-16876.0,1391.0,-743.0,596.0,-0.5936815332635417,-0.4869029864243571,-0.13940038878807082,-0.6253281142557301
-9211.393687009811,-948.0,2864.0,-16388.0,673.0,-1123.0,-1015.0,-0.6274942717316555,-0.565066476941943,-0.15952539753127046,-0.5113731153696585
-9211.409341812134,-440.0,2176.0,-16524.0,1435.0,-1405.0,12.0,-0.5669480066467257,-0.6961111574490065,-0.14392611982621087,-0.41627453232942324
-9211.424925088882,-1328.0,2076.0,-15640.0,795.0,-1272.0,-846.0,-0.558896600717107,-0.7626498041296492,-0.15954331793223006,-0.2838059119733868
-9211.440514087677,-1872.0,1612.0,-16536.0,1360.0,-1226.0,1153.0,-0.448739181003041,-0.8603507781031481,-0.05577762186624404,-0.23519894334153424
-9211.456094503403,-2616.0,2128.0,-15652.0,1452.0,-736.0,119.0,-0.33723199314041225,-0.9236912129760712,-0.04739361072332304,-0.17556472178642732
-9211.47169470787,-2464.0,2536.0,-15668.0,1320.0,-562.0,-1180.0,-0.2477746479502991,-0.9538888441807213,-0.14434800947291593,-0.08869864115013268
-9211.487308740616,-1824.0,1460.0,-16376.0,2018.0,-626.0,361.0,-0.08317734064915493,-0.9897711437633508,-0.11442679607205501,-0.01846946985181886
-9211.502879142761,-1628.0,2568.0,-15792.0,1934.0,-577.0,-347.0,0.0763275673022051,-0.9856386227376038,-0.14111737951000283,0.05269243814701257
-9211.518446445465,-1612.0,1780.0,-16200.0,1770.0,-579.0,-302.0,0.219564209496348,-0.9546888903930043,-0.16064558016531166,0.12063862582841621
-9211.53405380249,-1608.0,1640.0,-16056.0,1909.0,-518.0,418.0,0.3610850555532616,-0.9046747986930169,-0.1138891415038012,0.19547469072331122
-9211.549628019333,-2236.0,1168.0,-16192.0,1407.0,-425.0,-188.0,0.46699307058284634,-0.844360870399344,-0.11714163592536657,0.23505324864548424
-9211.565196275711,-1916.0,976.0,-16080.0,1394.0,-379.0,477.0,0.5509716417453105,-0.7780289287150237,-0.06824731868057235,0.2940128221148565
-9211.580765485764,-1788.0,832.0,-15708.0,1002.0,-446.0,861.0,0.5896821742593564,-0.7184624283839474,-0.005475686485583941,0.3688586303977595
-9211.596351385117,-1600.0,928.0,-15768.0,1124.0,-357.0,1286.0,0.6113448752496639,-0.6425842751303832,0.09193097772963264,0.4526495202635333
-9211.611959218979,-2188.0,1404.0,-15664.0,935.0,-315.0,829.0,0.629411714141113,-0.5702658108803886,0.1576307005161084,0.5037761023487316
-9211.627562522888,-2208.0,868.0,-16408.0,1102.0,-361.0,1913.0,0.5937561960207013,-0.4591407358475231,0.2763379399835888,0.6002338771662661
-9211.643134832382,-2260.0,1864.0,-16060.0,918.0,-225.0,955.0,0.5818181077839639,-0.374412584101606,0.348817231036734,0.6321625152228747
-9211.658716917038,-1936.0,1140.0,-15884.0,568.0,-94.0,20.0,0.6012532843580776,-0.33954318582902815,0.37576504459367815,0.6180659708050668
-9211.674296855927,-1848.0,1116.0,-16256.0,583.0,-154.0,655.0,0.5863606021641863,-0.2785076854832363,0.41750091923490307,0.6358519448695855
-9211.689890146255,-1908.0,920.0,-16144.0,277.0,-503.0,965.0,0.5551061548314286,-0.2004596556333722,0.4287777232177867,0.6839756921147031
-9211.705503463745,-1880.0,784.0,-15896.0,404.0,-224.0,2017.0,0.4429092175970992,-0.09070861699908113,0.46998390970159504,0.7581019036984685
-9211.721056461334,-2120.0,1036.0,-16272.0,373.0,-324.0,2406.0,0.29325192803671585,0.04277403365941978,0.49032507068773923,0.8196066213753493
-9211.736792564392,-2076.0,968.0,-16192.0,120.0,-373.0,2413.0,0.1331495884736746,0.1718936977929709,0.4700681538247914,0.855429526324701
-9211.752399206161,-2044.0,516.0,-16612.0,335.0,-460.0,3557.0,-0.11308290626599636,0.3397072487377809,0.4165574256187743,0.8356381708773857
-9211.76806807518,-2032.0,1060.0,-16372.0,149.0,-489.0,3144.0,-0.31693212392539905,0.47049063980585415,0.32688764844805634,0.7558684091634692
-9211.783672094345,-1836.0,1188.0,-16100.0,272.0,-494.0,3118.0,-0.5007967353926595,0.5635529990916616,0.22230172728242645,0.6182172668909354
-9211.799287319183,-1972.0,1556.0,-15960.0,114.0,-451.0,2554.0,-0.6196082189007512,0.6170449255108303,0.11962961607624704,0.47013824555062783
-9211.814905166626,-1892.0,1420.0,-16052.0,282.0,-418.0,2298.0,-0.709745435301697,0.6300417028703271,0.029484849464823108,0.3137507185086589
-9211.830502986908,-2112.0,1692.0,-15888.0,797.0,-401.0,1838.0,-0.7902281772083881,0.5873796099698081,-0.02453615799873364,0.17298149810972765
-9211.846142292023,-2032.0,1912.0,-16076.0,1069.0,-357.0,919.0,-0.8526652571985986,0.513235634302895,-0.030682713092734144,0.09278854436524792
-9211.861781597137,-2016.0,2192.0,-16148.0,1316.0,-214.0,-117.0,-0.9049545604035998,0.4148232330289465,0.0010750718861569936,0.09475111167991161
-9211.877379655838,-1868.0,1296.0,-16380.0,1069.0,-266.0,-396.0,-0.935383640316787,0.3311439141054118,0.044981031375733095,0.11566270096724747
-9211.892964601517,-1632.0,1480.0,-16276.0,2031.0,-337.0,-241.0,-0.9744548024756812,0.16543885893825555,0.09836504997371731,0.1157244089592054
-9211.908573150635,-2200.0,1312.0,-16004.0,1286.0,-7.0,-1055.0,-0.972093691176564,0.04689875715582436,0.12595669910185273,0.19227395066240077
-9211.924260616302,-2340.0,1048.0,-16172.0,1644.0,-172.0,-1351.0,-0.9380622391922674,-0.10276520627150802,0.1710313259289823,0.2832434171036248
-9211.93997001648,-2268.0,868.0,-16080.0,1334.0,-88.0,-2083.0,-0.853510772708115,-0.23569852449353978,0.18836843499974587,0.42483278959905063
-9211.955562353134,-2156.0,36.0,-16280.0,1180.0,-119.0,-1295.0,-0.7701558623672732,-0.3368044950240565,0.21199500583995598,0.4984784822756437
-9211.971136808395,-1972.0,580.0,-15964.0,872.0,-144.0,-1419.0,-0.6728740698025399,-0.4113102582525378,0.21572678090042371,0.5757832175792706
-9211.98671746254,-2088.0,176.0,-16164.0,458.0,-147.0,-1259.0,-0.5862286301101564,-0.451673916171347,0.20089063055777465,0.6418485968230421
-9212.002296209335,-2116.0,140.0,-16128.0,199.0,-81.0,-452.0,-0.5509952870277645,-0.4650699781041834,0.1982561444458494,0.6639341912635862
-9212.017890691757,-2400.0,44.0,-15776.0,-198.0,-110.0,-201.0,-0.5451711798787251,-0.4527733023887061,0.1839249565054609,0.6811434002088904
-9212.033532619476,-2252.0,144.0,-15700.0,-448.0,-102.0,90.0,-0.5660030001623426,-0.4238826099524296,0.16563992908186398,0.6874063941227917
-9212.049159526825,-2536.0,476.0,-16052.0,-862.0,-9.0,-405.0,-0.5713941233284426,-0.3855838941180957,0.0991232215385445,0.7176408596047651
-9212.06475353241,-2132.0,464.0,-15860.0,-1186.0,15.0,-446.0,-0.5798864355506121,-0.3295424429158952,0.009083291623972724,0.7450174454297721
-9212.08034491539,-2284.0,516.0,-15900.0,-1401.0,-60.0,-391.0,-0.5899065645561044,-0.2533361241501515,-0.08950974212819891,0.7614585079689745
-9212.095974683762,-2176.0,652.0,-16348.0,-1713.0,-59.0,-399.0,-0.5947076673272774,-0.15658290582171083,-0.20680372458840995,0.7609446783590373
-9212.111562013626,-2392.0,608.0,-16212.0,-1701.0,-156.0,182.0,-0.6258122829512367,-0.060773918090183156,-0.3059803122869628,0.7148717128828792
-9212.1271443367,-2212.0,720.0,-16448.0,-1495.0,-187.0,707.0,-0.6756844776150019,0.013403167286091932,-0.38156235493505186,0.630619545457688
-9212.142797470093,-2356.0,1256.0,-15872.0,-1434.0,-140.0,388.0,-0.6940742621232797,0.09191013505379456,-0.4491738477989502,0.5550281976493661
-9212.158379554749,-2120.0,1124.0,-15948.0,-1319.0,-87.0,88.0,-0.6864783509170733,0.17142683248875895,-0.5054101410909703,0.4938834924427541
-9212.173996210098,-2080.0,1416.0,-15664.0,-1203.0,-86.0,-242.0,-0.6579264781664127,0.25643729896512063,-0.5456150061106363,0.45130580113034724
-9212.18957233429,-2136.0,648.0,-16588.0,-1122.0,-257.0,338.0,-0.6546255640726119,0.31324419080732524,-0.5796807019562452,0.3705586749323153
-9212.205179929733,-2016.0,1520.0,-16116.0,-792.0,-509.0,575.0,-0.674023036818798,0.34434716945493776,-0.5894334610850306,0.28228738490988065
-9212.220760345459,-2264.0,1444.0,-15760.0,-649.0,-179.0,331.0,-0.6702480643752408,0.36919454277144603,-0.6037641748681851,0.22345411818708005
-9212.236356496811,-2320.0,1548.0,-16004.0,-249.0,-230.0,261.0,-0.6787532600316838,0.3743161230327575,-0.6033707999297637,0.1874169944967743
-9212.251985549927,-2472.0,1436.0,-16324.0,-78.0,-84.0,-226.0,-0.6765552671967624,0.3922017305943117,-0.5923597343022613,0.19380587742506256
-9212.267577886581,-2520.0,1328.0,-15944.0,-46.0,-96.0,-249.0,-0.6753340287933194,0.40939220507449886,-0.5789998468806655,0.20268485214783405
-9212.283175945282,-2620.0,1084.0,-16376.0,-42.0,-42.0,-481.0,-0.6666435046900029,0.4366253808005817,-0.559793473257684,0.22710346054931796
-9212.298805236816,-2752.0,1384.0,-15744.0,-83.0,-28.0,-858.0,-0.6458167160011206,0.4826648637083423,-0.5258389326130524,0.27101441958556555
-9212.3144261837,-2476.0,1000.0,-16012.0,-69.0,-102.0,-526.0,-0.6342483212676607,0.5126608712968069,-0.49920699959746534,0.29274608377098554
-9212.33003950119,-2236.0,1140.0,-16168.0,-109.0,-80.0,-728.0,-0.6127844828948077,0.551441856405446,-0.4642103230853628,0.32390713556271283
-9212.345643520355,-1712.0,828.0,-15912.0,-334.0,-189.0,-425.0,-0.5914166296589622,0.5912770914009913,-0.44270307259702196,0.3234683305369687
-9212.36122584343,-1664.0,696.0,-16028.0,-331.0,-388.0,654.0,-0.6059974586119201,0.5926530442579521,-0.4646989268612276,0.25609442918911707
-9212.376799583435,-2168.0,1228.0,-16280.0,-380.0,-533.0,554.0,-0.6183933158501792,0.6006582962350215,-0.47248875722808026,0.18317666982704375
-9212.392380714417,-2628.0,1356.0,-16164.0,-595.0,-567.0,78.0,-0.6100180902724694,0.6370977304789567,-0.45446682857292114,0.12427515071712042
-9212.408004045486,-3028.0,1204.0,-16496.0,-614.0,-680.0,-51.0,-0.600132758960689,0.6771475783002104,-0.42089001265160214,0.06452461603548236
-9212.423583507538,-3056.0,1100.0,-16280.0,-649.0,-525.0,249.0,-0.5805341722599436,0.7030541236634344,-0.41071046739858835,-0.0034476089591749933
-9212.439174413681,-2232.0,1092.0,-16440.0,-642.0,-945.0,210.0,-0.5717540829035518,0.7242011201473079,-0.3737312156943148,-0.09463078080705281
-9212.454779624939,-1672.0,1608.0,-15896.0,-390.0,-969.0,521.0,-0.5711851396961106,0.7151229606654955,-0.35337355731753334,-0.19358154950331058
-9212.470392227173,-1976.0,1480.0,-15892.0,-223.0,-939.0,594.0,-0.5731411679571389,0.6888672630541758,-0.3383394472487208,-0.28722380458521546
-9212.486015081406,-2476.0,2024.0,-15768.0,115.0,-817.0,-44.0,-0.6034806549901399,0.6623979775424966,-0.29707786213369414,-0.3298253511032096
-9212.501603603363,-2368.0,1788.0,-15892.0,53.0,-670.0,-1076.0,-0.6506947881490969,0.6643598533571307,-0.20003163690720346,-0.3085605648152705
-9212.51719880104,-2396.0,1808.0,-15464.0,361.0,-586.0,-1491.0,-0.7144992206183877,0.6477188581722726,-0.08923537852042637,-0.2489742792419335
-9212.532863378525,-2636.0,1192.0,-16052.0,251.0,-691.0,-1749.0,-0.7615072492317772,0.6224537124782301,0.04654689198137995,-0.17461807477003838
-9212.548498868942,-2236.0,1280.0,-16396.0,439.0,-970.0,-1827.0,-0.7956353264607757,0.5618603793631606,0.2001680843445542,-0.10587766241928225
-9212.564092636108,-2152.0,900.0,-17000.0,397.0,-1436.0,-1513.0,-0.7903520189975034,0.4865747559334037,0.36425441295693567,-0.07685971374079417
-9212.579718828201,-1948.0,1272.0,-16260.0,869.0,-1688.0,-33.0,-0.7632062072831127,0.40890458577096267,0.4699863417722311,-0.1715405591909956
-9212.595282793045,-2224.0,1584.0,-16096.0,937.0,-1653.0,-377.0,-0.7240108623865811,0.30217314725483196,0.571581084043308,-0.24040533394295963
-9212.610871553421,-2800.0,1384.0,-16324.0,1398.0,-1537.0,-55.0,-0.6741578286488122,0.1761044718775074,0.6307346556860717,-0.3415731710378254
-9212.626434803009,-3352.0,1488.0,-15956.0,1283.0,-1141.0,-1081.0,-0.6529446934864858,0.007071894339947245,0.6661020474407131,-0.3604459431781332
-9212.642023563385,-2832.0,1792.0,-15096.0,1815.0,-862.0,-2523.0,-0.6575825006934994,-0.2600365934529461,0.6352389233570316,-0.3105442562651422
-9212.657593488693,-3736.0,2548.0,-15380.0,1373.0,-436.0,-5853.0,-0.6732112550918221,-0.597596242538136,0.43401070688755383,-0.03605611222748293
-9212.67318058014,-3644.0,408.0,-16440.0,1969.0,-982.0,-4624.0,-0.49995236649442104,-0.8140529131036539,0.22316221912439263,0.193814627568611
-9212.6887819767,-3464.0,-480.0,-16860.0,1487.0,-1136.0,-3260.0,-0.30098065885115594,-0.8773339140087453,0.06298617102547201,0.3684136107517877
-9212.704351902008,-2684.0,-888.0,-16792.0,1984.0,-1582.0,778.0,-0.1609189928886338,-0.8519034722717242,0.22199001889657116,0.44619052339711035
-9212.71998333931,-3352.0,176.0,-15944.0,1653.0,-1563.0,650.0,-0.0322515292368996,-0.7852650503552127,0.3492710241347376,0.5102238638601473
-9212.735592842102,-3152.0,792.0,-15892.0,838.0,-2005.0,-1205.0,0.13678961242530982,-0.7185643561808435,0.30268844501624415,0.6110102889580434
-9212.751220703125,-3028.0,444.0,-15580.0,216.0,-1807.0,-4617.0,0.4076138122778307,-0.6807196894713026,0.002949671860442428,0.6086567044256908
-9212.766818284988,-3468.0,380.0,-16020.0,-360.0,-1073.0,-4815.0,0.5895459744027791,-0.5857951170380343,-0.3124677712465312,0.4600472984945123
-9212.7824447155,-3780.0,-452.0,-16372.0,1434.0,-1470.0,-2465.0,0.6948526964594252,-0.3717553690323334,-0.4397184563463433,0.43084261043574673
-9212.798035144806,-3688.0,436.0,-15848.0,853.0,-1078.0,-3553.0,0.7729972971268307,-0.13605178113106392,-0.5584121897709184,0.26859061376177495
-9212.813622713089,-3616.0,-684.0,-17380.0,2188.0,-1043.0,-1985.0,0.7663779406759638,0.1279387665366751,-0.5800218217600741,0.2446859422698165
-9212.829181432724,-4196.0,-408.0,-16472.0,2771.0,-787.0,-2470.0,0.7102234918625464,0.4320786523485703,-0.5184617645326072,0.2002199503270099
-9212.84480714798,-3228.0,-136.0,-16428.0,4198.0,-627.0,-2387.0,0.5200111035463891,0.7467235138861079,-0.36271171189262846,0.20107874092993788
-9212.860394477844,-3760.0,1036.0,-17244.0,4899.0,-189.0,-3337.0,0.22476361647608334,0.9574436547796447,-0.060300214628670926,0.17072448197761475
-9212.87599658966,-3348.0,1544.0,-16972.0,4269.0,374.0,-5210.0,-0.04525410394360258,0.9160834749348333,0.38431055752856375,0.10511198028610479
-9212.891575336456,-2144.0,1692.0,-16712.0,4080.0,809.0,-4845.0,-0.309170387956485,0.6377633892309894,0.7040038071058413,0.045278804621139285
-9212.907175064087,-2236.0,2056.0,-16284.0,3193.0,1145.0,-5671.0,-0.4630662977384936,0.17216041714552607,0.8675711744836431,0.05701448826496438
-9212.922832250595,-3080.0,2180.0,-15192.0,2689.0,684.0,-3116.0,-0.5069182737446188,-0.16522507066221923,0.8459547673759491,-0.00975045241740203
-9212.938528299332,-2884.0,3320.0,-14628.0,1927.0,763.0,-2627.0,-0.5158846149250188,-0.4260514312943301,0.7418434419097826,-0.04485030291051716
-9212.95414018631,-2244.0,1568.0,-14960.0,-885.0,363.0,-4190.0,-0.5509422212911188,-0.6143659843970137,0.5367911821863659,0.17570524392191553
-9212.969732999802,-1516.0,436.0,-15908.0,-50.0,403.0,-904.0,-0.5563018171174952,-0.6581898890623931,0.46655191632202747,0.1991071761239447
-9212.985357999802,-2764.0,-96.0,-15868.0,-1515.0,443.0,-4013.0,-0.5534868048325704,-0.7074820503152682,0.17623919143610714,0.40256832061140085
-9213.000947475433,-1504.0,-1708.0,-16264.0,-545.0,537.0,-2235.0,-0.5060247079360716,-0.7194915332136469,-0.00666943469229109,0.4756326809976103
-9213.01655960083,-2476.0,-1236.0,-16300.0,-812.0,1004.0,-3712.0,-0.3803971150130589,-0.6842355371179983,-0.30061627504714694,0.5447472990399896
-9213.03216290474,-2152.0,-2168.0,-16656.0,-388.0,1301.0,-3481.0,-0.1937419353583079,-0.6104129197054978,-0.5420997842950684,0.5440477495656675
-9213.047819852829,-2140.0,-2144.0,-16384.0,116.0,1530.0,-3082.0,0.029917384907319933,-0.5165181679504603,-0.6959990391891137,0.49789483799818385
-9213.063443660736,-2372.0,-1524.0,-16100.0,4.0,1621.0,-3758.0,0.27477927705975,-0.3378971517261509,-0.8109219134512412,0.39080367710457076
-9213.079063653946,-2436.0,-1860.0,-15752.0,-232.0,1659.0,-3171.0,0.4707624925515503,-0.16771508411826921,-0.8328710069731319,0.23786595365754826
-9213.094665050507,-2736.0,-136.0,-15036.0,-395.0,1592.0,-4018.0,0.6208314898979853,0.07014415317659604,-0.7805599385010453,0.019345318126879577
-9213.110249042511,-2592.0,-564.0,-14724.0,-1227.0,1397.0,-3085.0,0.6949626084857213,0.20174608038359906,-0.6566058717936085,-0.21258932471488703
-9213.125844478607,-2904.0,-52.0,-14620.0,-1456.0,1075.0,-2189.0,0.7196178826669686,0.25131757464111465,-0.5106354592266166,-0.39779518272955394
-9213.141422510147,-2656.0,-524.0,-14944.0,-2094.0,924.0,-1668.0,0.7268119105006269,0.2197707401959054,-0.333532365344331,-0.5587498812312968
-9213.157004833221,-2328.0,-872.0,-15200.0,-1988.0,842.0,-497.0,0.7512282471501006,0.1466992612634425,-0.17071795674245302,-0.6204762901789477
-9213.172565698624,-2904.0,-1152.0,-16108.0,-2147.0,864.0,-1071.0,0.7160376575511515,0.06733154581746585,0.015389623124267287,-0.6946363763916943
-9213.188149690628,-3128.0,-1480.0,-16376.0,-1963.0,950.0,-1414.0,0.6246739864617141,0.0005630629646768255,0.19728125028844706,-0.7555542349049175
-9213.203736305237,-3104.0,-1792.0,-16128.0,-1769.0,919.0,-1672.0,0.48626821727021396,-0.0624241491116529,0.3553480265928915,-0.7958481177191234
-9213.219329357147,-2952.0,-1992.0,-16212.0,-1360.0,1007.0,-1264.0,0.35383187924531906,-0.08791565146550284,0.47787609005949294,-0.7991922684852336
-9213.234941005707,-3148.0,-1988.0,-16348.0,-1261.0,1110.0,-1748.0,0.17211035856155554,-0.11968311081668855,0.5742354715339124,-0.7913959822322061
-9213.250545501709,-3252.0,-1544.0,-16308.0,-905.0,917.0,-1035.0,0.044762823381188456,-0.12056254565697436,0.6333983559495631,-0.7630645352183817
-9213.266164302826,-3084.0,-2000.0,-16056.0,-867.0,921.0,-361.0,-0.039016067921135746,-0.08203088772524122,0.6866591207126563,-0.7212821444102882
-9213.281779527664,-3376.0,-1476.0,-16084.0,-266.0,836.0,240.0,-0.0756088321670066,-0.014055520135265013,0.7003047552636775,-0.7096893662773518
-9213.297376155853,-3480.0,-1700.0,-16152.0,-523.0,592.0,714.0,-0.0678418969907596,0.0694396066399369,0.7267518269376816,-0.6800054412172949
-9213.31296992302,-3968.0,-1636.0,-16108.0,-162.0,391.0,1671.0,0.007497047296289387,0.19742591413950308,0.7160694738295135,-0.669485855980201
-9213.328571081161,-4316.0,-1760.0,-15964.0,77.0,273.0,1654.0,0.08488698672506712,0.3135349854814315,0.6762275426134038,-0.661215791534756
-9213.344180345535,-4496.0,-1320.0,-15744.0,150.0,167.0,785.0,0.1159454453542027,0.36979346103216,0.645867776182937,-0.6577721988408903
-9213.359798669815,-4344.0,-1552.0,-15808.0,308.0,65.0,1016.0,0.1599666983114918,0.43217838519070184,0.5936801409751298,-0.6596790045294967
-9213.375371217728,-4944.0,-1176.0,-15760.0,437.0,-191.0,518.0,0.1828351924661639,0.4534208266327109,0.5454560910537303,-0.6807778632593418
-9213.390938043594,-4848.0,-920.0,-15884.0,281.0,-375.0,-506.0,0.1591911150501352,0.4109718640969441,0.5419824064146201,-0.7155525046750904
-9213.406519889832,-4200.0,-944.0,-15640.0,138.0,-490.0,-1113.0,0.10729189439733099,0.3279615742016298,0.563447965108186,-0.7506370933142494
-9213.422132492065,-3444.0,-1228.0,-16144.0,214.0,-554.0,-791.0,0.07630668024017086,0.2539939202807335,0.5649872801112394,-0.7813153987498599
-9213.43774843216,-3144.0,-1020.0,-16028.0,197.0,-579.0,-856.0,0.041956762102405155,0.17303828941412017,0.5645261790050001,-0.8059823656436483
-9213.453394412994,-2724.0,-1180.0,-15972.0,246.0,-588.0,-491.0,0.03261143701870807,0.10824160404735922,0.5513765833665437,-0.8265616205969561
-9213.46898984909,-2736.0,-948.0,-16024.0,259.0,-597.0,853.0,0.11991427418453916,0.10658813413491104,0.5209207894494674,-0.8383919534607767
-9213.484583854675,-3112.0,-396.0,-15764.0,219.0,-543.0,605.0,0.18633096974418117,0.0965012829293164,0.4925238949081161,-0.8446232799607931
-9213.500168323517,-2744.0,-448.0,-15904.0,51.0,-548.0,1018.0,0.2830385197038481,0.10028200600477481,0.46916459362257895,-0.8304922032905987
-9213.515806674957,-2828.0,-444.0,-15632.0,-154.0,-598.0,1100.0,0.3862282779197211,0.0976882488485549,0.453460158701958,-0.7972820127420817
-9213.531433343887,-2792.0,-688.0,-15756.0,-476.0,-639.0,1269.0,0.4995577451706294,0.08675992186566049,0.4506598558683649,-0.7347247576518744
-9213.547102451324,-2640.0,-828.0,-15676.0,-476.0,-668.0,1777.0,0.6341080905312853,0.09181446885540803,0.43262046409028915,-0.6342842949985988
-9213.562685012817,-2460.0,-1016.0,-15748.0,-487.0,-643.0,1523.0,0.7381864539460566,0.08587854773756151,0.4074984772021712,-0.5307076646581856
-9213.578268051147,-2440.0,-980.0,-15776.0,-605.0,-463.0,1060.0,0.8029750948234152,0.0628150885543035,0.39548310291323496,-0.4414503109675673
-9213.593841791153,-2424.0,-1112.0,-15900.0,-448.0,-354.0,1333.0,0.8620120628111917,0.06332737201371438,0.3779144062508237,-0.33182156209311986
-9213.609422922134,-2624.0,-1372.0,-15816.0,-518.0,-272.0,1542.0,0.9090140529087548,0.06668315951014019,0.3605195025154013,-0.19817289461021706
-9213.624991178513,-2980.0,-1064.0,-16320.0,-341.0,-305.0,1750.0,0.9391207421646521,0.08835482326433415,0.3282808846475669,-0.04977265933273026
-9213.640602827072,-3068.0,-1044.0,-16300.0,-475.0,-243.0,689.0,0.9498927851520979,0.06795543154823085,0.30454647359450027,0.018363046050121755
-9213.65617442131,-3004.0,-812.0,-15656.0,-512.0,-169.0,-80.0,0.9563724354627321,0.023661657580268836,0.29017529044808316,0.024293856445758013
-9213.671812057495,-2936.0,-832.0,-15972.0,-613.0,-65.0,-686.0,0.9575488845962525,-0.04459133495862888,0.28426158691039327,-0.0175241736542638
-9213.68738436699,-2728.0,-792.0,-16036.0,-595.0,-70.0,-861.0,0.9515796918339822,-0.11534759799353533,0.2751294272805175,-0.07412705289271722
-9213.702970266342,-2792.0,-968.0,-15736.0,-830.0,44.0,-1248.0,0.9260957033244547,-0.21224495023943024,0.2695812180352309,-0.15692289910808577
-9213.718625307083,-2468.0,-888.0,-15964.0,-425.0,-11.0,228.0,0.9206734182390357,-0.24132692136620246,0.27874551995284524,-0.12815111813081506
-9213.734227180481,-3064.0,-656.0,-15864.0,-732.0,-71.0,-546.0,0.8978901462568144,-0.3133717246440237,0.2691243805974327,-0.1521956478240906
-9213.74984550476,-2732.0,-564.0,-16016.0,-576.0,0.0,-325.0,0.8762251597848225,-0.36571722194720757,0.2676653765932318,-0.16381583899148006
-9213.765444278717,-2928.0,-632.0,-15988.0,-874.0,110.0,-864.0,0.8284676862965021,-0.4487555376648404,0.2597004606860587,-0.2116965538149109
-9213.781023740768,-2760.0,-400.0,-16004.0,-612.0,178.0,-929.0,0.779381120520528,-0.5085233921319245,0.24648370503102102,-0.2705823567511151
-9213.796605110168,-2884.0,-460.0,-16176.0,-959.0,263.0,-1742.0,0.6795271286832628,-0.5961512955031173,0.20672530941096243,-0.3743142539396236
-9213.812187433243,-2612.0,-800.0,-16216.0,-571.0,215.0,-750.0,0.619074364093038,-0.6344812342588534,0.19852409292326711,-0.4180534411114885
-9213.827810287476,-3052.0,-704.0,-15888.0,-620.0,9.0,-1333.0,0.5314430168768923,-0.6853347474590215,0.14673574817930335,-0.47576593398889583
-9213.843428850174,-2616.0,-568.0,-16084.0,-199.0,500.0,-537.0,0.48962278514242136,-0.6794093981388856,0.14583492360651262,-0.5266921045987099
-9213.859019994736,-3012.0,-176.0,-15852.0,-280.0,218.0,-707.0,0.4365844769629329,-0.6889312962780726,0.12588677659050143,-0.5647301859855465
-9213.874642848969,-2960.0,-196.0,-15796.0,-169.0,222.0,-79.0,0.4198451566638369,-0.6852994915960084,0.1379555740809979,-0.5788461892628757
-9213.89024400711,-3152.0,64.0,-15736.0,-402.0,249.0,-513.0,0.36610554015711727,-0.6925624392276515,0.13653103265529343,-0.606368929249669
-9213.905834197998,-3168.0,-56.0,-16128.0,-374.0,115.0,-312.0,0.32521724275655944,-0.7016908632892259,0.14107884288532394,-0.6180294794590141
-9213.921531677246,-3224.0,-84.0,-15892.0,-479.0,101.0,-526.0,0.2656668822135653,-0.7151216276931482,0.1373729877652107,-0.6317838455776509
-9213.93722486496,-2940.0,-304.0,-16060.0,-521.0,103.0,-555.0,0.20079853931983999,-0.7267547044846944,0.13361673986073552,-0.6431594770703234
-9213.95284819603,-2684.0,-644.0,-16124.0,-408.0,198.0,-446.0,0.14730666215865176,-0.7270837860752155,0.1315610712331259,-0.6575268814628034
-9213.968455314636,-2904.0,-560.0,-16080.0,-177.0,153.0,-111.0,0.12788818843836858,-0.7218821950057973,0.13666749542974285,-0.6662227131256676
-9213.98429942131,-2996.0,-976.0,-15984.0,-236.0,169.0,367.0,0.1322169675571559,-0.7099318828258813,0.17531765906707522,-0.6691629948349878
-9214.00011062622,-3340.0,-988.0,-15784.0,96.0,66.0,486.0,0.16536774516727593,-0.6970766963683587,0.20047690099187285,-0.6682414237438149
-9214.01572728157,-3584.0,-956.0,-15924.0,-130.0,-160.0,445.0,0.18601958579693295,-0.7000535607715733,0.23270144752883237,-0.6489774742384857
-9214.031316518784,-3272.0,-740.0,-15740.0,193.0,-181.0,1384.0,0.2777479926977391,-0.6741776101460326,0.3012162263054431,-0.6144992982424543
-9214.046956300735,-3464.0,-240.0,-15576.0,-169.0,-181.0,491.0,0.29848788680458427,-0.6744732192676771,0.33451537092575806,-0.5865921279185667
-9214.062592029572,-3324.0,-352.0,-15588.0,-77.0,84.0,-176.0,0.28237617875188453,-0.6773763902290763,0.33035951545899833,-0.5935381286652155
-9214.078179597855,-3156.0,-568.0,-15680.0,-321.0,159.0,-1458.0,0.1816776176965494,-0.7131663430563082,0.26259941916390267,-0.6240421102895057
-9214.093806028366,-2912.0,-1316.0,-15692.0,-151.0,195.0,-1351.0,0.09353984942158815,-0.730861530574084,0.18859046003837648,-0.6492498425718771
-9214.109419345856,-2580.0,-1624.0,-16100.0,75.0,206.0,-1293.0,0.021533712119347556,-0.7352638973216473,0.10296573520472452,-0.6695680382989422
-9214.125017166138,-2608.0,-1500.0,-16360.0,370.0,138.0,-843.0,-0.005186904667602315,-0.7318858653924855,0.02747645375781157,-0.6808533032508226
-9214.140611410141,-2588.0,-1544.0,-16344.0,706.0,90.0,104.0,0.045806020597741436,-0.7254019990435281,-0.00782601098427007,-0.686755052265891
-9214.156235694885,-2596.0,-1040.0,-16260.0,930.0,38.0,452.0,0.13126481997896378,-0.7170225827951473,-0.0346434162300071,-0.6837016867827522
-9214.17185497284,-2220.0,-1160.0,-15880.0,888.0,95.0,883.0,0.23835498381182202,-0.6998900937221272,-0.03108989269173823,-0.672587672332845
-9214.187451839447,-2452.0,-584.0,-16188.0,1049.0,72.0,1464.0,0.3837801788277164,-0.6698168307666412,-0.0017155158441672913,-0.6356533997125219
-9214.203046798706,-2816.0,-376.0,-15820.0,718.0,187.0,932.0,0.47483664270584636,-0.6323748281865196,0.019121859999168437,-0.6117733190407068
-9214.218655347824,-2500.0,-164.0,-15976.0,656.0,309.0,658.0,0.54357430919621,-0.585721556514332,0.03313203522656827,-0.6002995059618463
-9214.23422908783,-2668.0,-448.0,-15984.0,222.0,391.0,-312.0,0.5367352462378352,-0.5552433856870965,0.02412904323185195,-0.6348526186206183
-9214.249837398529,-2736.0,-712.0,-16116.0,384.0,301.0,334.0,0.5723653674285231,-0.5194589949369725,0.03315013468673635,-0.6336097437048561
-9214.265404462814,-2896.0,-1196.0,-16136.0,507.0,228.0,1112.0,0.6522690660472026,-0.475793203031061,0.0665993046017395,-0.5862852770229854
-9214.280984163284,-3148.0,-672.0,-16256.0,623.0,37.0,513.0,0.7023445638535645,-0.4346519289701504,0.05808996792315023,-0.5607275362371292
-9214.296571493149,-3284.0,-1000.0,-16320.0,672.0,89.0,854.0,0.765639167919061,-0.38332591086860834,0.06288592604408139,-0.5127409393743959
-9214.312134742737,-3368.0,-336.0,-15944.0,724.0,181.0,115.0,0.7922278092737236,-0.3257929825337293,0.0464637421856062,-0.5138824295568426
-9214.327780485153,-3084.0,-316.0,-15968.0,524.0,365.0,-892.0,0.7621065535825818,-0.2758378423325676,0.022870255811984513,-0.5853067888918487
-9214.343447685242,-2976.0,-300.0,-15744.0,424.0,437.0,-1321.0,0.6983279053367322,-0.2264270212970004,-0.0013781871200021889,-0.6790191759109914
-9214.359072685242,-2908.0,-704.0,-15820.0,275.0,218.0,-826.0,0.6528241733039699,-0.1963426833837685,-0.020516624049233798,-0.7313338619052668
-9214.37466597557,-3044.0,-828.0,-15704.0,448.0,122.0,675.0,0.7020015857853754,-0.1641151816735695,-0.03038575466667595,-0.6923414523285502
-9214.390257120132,-2952.0,-184.0,-15600.0,385.0,105.0,457.0,0.7343725025212375,-0.13550227401644357,-0.040497347683995294,-0.6638494754894586
-9214.405846118927,-2752.0,-676.0,-15944.0,466.0,108.0,883.0,0.7883987271981072,-0.10240765079393216,-0.04982238856015896,-0.6045310989597085
-9214.421434402466,-3280.0,-248.0,-15700.0,302.0,11.0,258.0,0.8042872738191138,-0.08236217795680176,-0.06246285244666972,-0.5851810359872025
-9214.43701839447,-2960.0,-892.0,-15740.0,489.0,60.0,1338.0,0.8697676305908784,-0.05213812778678347,-0.07288755804269319,-0.4852558997990558
-9214.452605962753,-3388.0,0.0,-15616.0,145.0,142.0,34.0,0.8726506428158292,-0.03532688161403317,-0.06784312985955579,-0.4823175061714094
-9214.468183994293,-3372.0,-260.0,-15892.0,-49.0,281.0,-278.0,0.861954755864256,-0.025485961092022353,-0.04493221629420519,-0.5043466670546135
-9214.483807086945,-3340.0,-344.0,-15776.0,-337.0,180.0,-1084.0,0.8101435216607145,-0.03836214959175004,-0.018571893624503483,-0.5846801728783659
-9214.499380350113,-2996.0,-1036.0,-16288.0,34.0,-50.0,596.0,0.8394518945567577,-0.039467540299368956,-0.021491517866979903,-0.5415726586964683
-9214.514956712723,-3008.0,-280.0,-15684.0,-246.0,10.0,-31.0,0.836972396080989,-0.05692041369187471,-0.008910226291763511,-0.5442038979748526
-9214.530540466309,-2768.0,-348.0,-16124.0,-133.0,77.0,479.0,0.8582968818328386,-0.06337814187512834,0.005720347434891672,-0.5091924502520699
-9214.546159744263,-2976.0,-236.0,-15908.0,-358.0,91.0,-234.0,0.845255427972427,-0.08628129547268573,0.027449515451480475,-0.5266358548714504
-9214.561792850494,-2856.0,-652.0,-16080.0,-311.0,243.0,356.0,0.857753395731048,-0.09724109271538364,0.06257357449064246,-0.5008870429296792
-9214.57738161087,-3012.0,-368.0,-16040.0,-389.0,-31.0,102.0,0.8585254596479085,-0.12719736081823482,0.07837757936685373,-0.49052198889531506
-9214.592966556549,-2956.0,-584.0,-16324.0,-335.0,108.0,-169.0,0.8463090560791714,-0.1489044415726145,0.09915645621281183,-0.5017533717571279
-9214.608561038971,-2904.0,-632.0,-16204.0,-576.0,207.0,-1063.0,0.7859548807219149,-0.19066037343480793,0.12540798046447757,-0.5746271712222816
-9214.624138832092,-2780.0,-1108.0,-16748.0,106.0,151.0,166.0,0.7941615731491595,-0.17415795851688615,0.13343337188116486,-0.5667203335745995
-9214.639776945114,-3036.0,-720.0,-16272.0,-179.0,308.0,-615.0,0.7559438415171692,-0.1783153004112687,0.15426225006540556,-0.6107010072992041
-9214.655422449112,-2752.0,-848.0,-16032.0,183.0,270.0,282.0,0.76959983141764,-0.14811706330657123,0.16686647778900338,-0.5982750317618725
-9214.67101097107,-3156.0,-412.0,-16064.0,103.0,316.0,-77.0,0.7619328044550547,-0.12587987732144768,0.1819360007416024,-0.608696927555039
-9214.686652183533,-3180.0,-444.0,-15660.0,25.0,339.0,-573.0,0.7251246875053392,-0.11519391722842813,0.19683172510953112,-0.6497552008212478
-9214.702233791351,-3272.0,-948.0,-15632.0,32.0,233.0,-481.0,0.6933767771393949,-0.10816944649391068,0.20501464726281704,-0.6822734130659714
-9214.71780014038,-3452.0,-700.0,-15360.0,-151.0,181.0,-299.0,0.6705051629190726,-0.11186007705437538,0.22232742597152774,-0.6989139183913367
-9214.73337340355,-3120.0,-956.0,-15644.0,111.0,170.0,603.0,0.7039440261086342,-0.0832264827412076,0.23134692824148623,-0.6663443250075166
-9214.748955011368,-3588.0,-988.0,-15432.0,-214.0,188.0,-112.0,0.6917890535908905,-0.08768998758885653,0.2547498985420927,-0.6699558646666807
-9214.764559745789,-3288.0,-1608.0,-15792.0,41.0,190.0,580.0,0.7207084893054622,-0.061166604558434985,0.26819044732729536,-0.6363268058884648
-9214.780144929886,-3672.0,-1972.0,-15696.0,33.0,247.0,928.0,0.7638908488887863,-0.023595993798024625,0.28615165425239064,-0.577954350125746
-9214.795794010162,-3708.0,-2428.0,-15652.0,234.0,-110.0,981.0,0.8133467291818315,0.010898505342725146,0.2683006264443979,-0.5161037633655221
-9214.811420202255,-3992.0,-2452.0,-15944.0,582.0,-368.0,1161.0,0.8676384075832317,0.0623928268576325,0.21370587636087665,-0.44456779826251125
-9214.827013492584,-3948.0,-2832.0,-16080.0,807.0,-437.0,2000.0,0.931909087676798,0.14128979954920326,0.13625408733447086,-0.3049876530835214
-9214.84267616272,-3504.0,-1864.0,-15716.0,999.0,-303.0,628.0,0.9345844797807834,0.22082124072895226,0.07714314848554699,-0.2680275441769847
-9214.858289957047,-3332.0,-2200.0,-16212.0,898.0,-44.0,-878.0,0.8916039690181925,0.28562073845434516,0.06928915257170364,-0.3444737573919034
-9214.873862028122,-3212.0,-2620.0,-16160.0,1107.0,10.0,-1193.0,0.8197436809378736,0.3614501850925515,0.06605808242147597,-0.43932947887181795
-9214.889448165894,-2876.0,-3152.0,-16588.0,1451.0,-63.0,-468.0,0.7496387305064455,0.45635878736938995,0.02066056026776799,-0.4789066424313267
-9214.905029058456,-2804.0,-3040.0,-16544.0,1968.0,-10.0,43.0,0.6631923425463403,0.5765724919195075,-0.06293150021096197,-0.47305359593900626
-9214.92074394226,-3044.0,-2252.0,-16148.0,2111.0,178.0,-766.0,0.5162421354382307,0.697184975100525,-0.09929229940594309,-0.48740969150288377
-9214.93631029129,-2600.0,-2612.0,-15872.0,2434.0,321.0,-82.0,0.35906676499093937,0.8031430110377673,-0.179269792796674,-0.44033476298240165
-9214.952000141144,-2924.0,-2224.0,-15636.0,2722.0,262.0,251.0,0.17679578009518465,0.8700738939755356,-0.2851531031485274,-0.3611126956056084
-9214.967602968216,-3176.0,-2360.0,-15476.0,2740.0,213.0,313.0,-0.015845761692365817,0.8859036637822164,-0.38100867822678786,-0.2641136070889012
-9214.983299255371,-4360.0,-3264.0,-15748.0,2793.0,-886.0,4383.0,-0.1457155926171549,0.6504259341550027,-0.7113036977062164,-0.223069764594593
-9214.998892307281,-3468.0,-1372.0,-14916.0,2850.0,-608.0,4779.0,-0.22655261982451358,0.2747700532159794,-0.9257933285543654,-0.1268149877205627
-9215.014472723007,-3456.0,688.0,-15728.0,2300.0,-217.0,87.0,-0.29211000533389353,0.21555254793313502,-0.9303698651069159,0.0511933390618844
-9215.030043840408,-3020.0,-944.0,-15656.0,1148.0,296.0,-3311.0,-0.26249919630242,0.4338236140932638,-0.8323000581131965,0.22398182305806028
-9215.045649290085,-2816.0,-2040.0,-15760.0,1288.0,43.0,-1802.0,-0.2677860124162966,0.5246915608066097,-0.726580510983118,0.3536526242402478
-9215.06124830246,-2104.0,-2308.0,-15884.0,1443.0,-196.0,1010.0,-0.3729001560252352,0.4279730442802007,-0.7153650413056799,0.4074768762563287
-9215.076869010925,-2368.0,-1240.0,-15664.0,1607.0,-456.0,1608.0,-0.5081301667115949,0.28580315960910735,-0.6896582702936491,0.4295250375131467
-9215.092511177063,-1776.0,-1840.0,-15528.0,1218.0,-11.0,1736.0,-0.5939896428531494,0.12567707844090162,-0.6755669915312935,0.4183190362523615
-9215.10810303688,-2084.0,-748.0,-15180.0,2146.0,-35.0,3713.0,-0.7070815454530013,-0.19025926747959587,-0.5960215326106468,0.32953821004912087
-9215.123715162277,-3072.0,-1424.0,-14968.0,1170.0,66.0,2872.0,-0.7399991110414871,-0.3994097202775915,-0.5009893862077017,0.2046529401518953
-9215.139310598373,-3128.0,-584.0,-14952.0,1573.0,-117.0,4010.0,-0.7129582989806793,-0.631186805379352,-0.30494757139300854,0.017339530878606298
-9215.154906511307,-3748.0,-720.0,-15052.0,352.0,-195.0,2801.0,-0.6822851733652503,-0.7063044006316022,-0.13412379667735455,-0.13278495027387538
-9215.170492887497,-4036.0,-396.0,-15044.0,780.0,-639.0,4299.0,-0.5520903668926149,-0.7564623240462737,0.14908244821314534,-0.3173884098666224
-9215.186067819595,-4464.0,764.0,-14684.0,-259.0,-1035.0,2752.0,-0.46416685356821824,-0.7137554078553984,0.3755373776243815,-0.36616120468006536
-9215.201653718948,-3004.0,-2912.0,-14616.0,-1890.0,-706.0,1057.0,-0.5146991487120558,-0.6132685302837173,0.5203022173031617,-0.2971062078586505
-9215.217225551605,-2500.0,-280.0,-15852.0,694.0,-1067.0,5826.0,-0.2464398196722325,-0.3616604312472868,0.7647748425352492,-0.4728515496169266
-9215.232800722122,-4588.0,652.0,-15500.0,-2640.0,-816.0,-46.0,-0.26930786376193105,-0.3321311807637649,0.8651244843076172,-0.26214839296080356
-9215.248411655426,-2124.0,-1548.0,-16184.0,-641.0,-894.0,5186.0,-0.09211099346280267,0.04900371579829741,0.9540390677562691,-0.28093354715306623
-9215.264059305191,-3724.0,352.0,-16048.0,-1946.0,-796.0,3552.0,0.06562683576589232,0.3207088687426551,0.9342168757847981,-0.14169604417927148
-9215.279634714127,-2840.0,424.0,-16572.0,-1037.0,-1048.0,7889.0,0.22744211946631426,0.7740164433833475,0.5899507731858323,-0.03356654409233348
-9215.295279026031,-4064.0,2800.0,-15540.0,-2399.0,-887.0,6344.0,0.3893570546515138,0.9020409912819493,0.12963509126607653,0.13385767498583104
-9215.310884952545,1148.0,-4048.0,-16944.0,-3813.0,504.0,9030.0,0.43903299903944576,0.659916933890333,-0.46227741661813304,0.3975666688796699
-9215.326474666595,-1568.0,8288.0,-15992.0,-106.0,506.0,4213.0,0.29942908322605516,0.4393782494009603,-0.6463419545796795,0.547294304576497
-9215.342061042786,-976.0,-5888.0,-18792.0,-7529.0,1936.0,-10751.0,0.7913341707097695,0.4945953716182469,-0.35515314083934635,-0.05506264789162357
-9215.357684373856,1516.0,-5172.0,-18512.0,1158.0,1075.0,6488.0,0.6960552794247558,0.32727110384390934,-0.48962289418049965,0.41069464820962237
-9215.373361110687,-4192.0,-284.0,-15684.0,-2202.0,492.0,2709.0,0.652533922890406,0.057584197366489356,-0.5890073691102097,0.47323763462428065
-9215.388949155807,-2388.0,-884.0,-15760.0,-641.0,214.0,9377.0,0.2159368498176929,-0.3631675325238052,-0.5030273937204068,0.7539522938344553
-9215.404538154602,-3152.0,1228.0,-14968.0,-472.0,1017.0,6182.0,-0.14136235480979523,-0.6230127739030283,-0.27984583178503836,0.7166296663052847
-9215.420124292374,-5280.0,-56.0,-15848.0,-1338.0,1283.0,1334.0,-0.26101788460177944,-0.7056241186684551,-0.30096788702611754,0.5859885647778568
-9215.435721158981,-5588.0,-1388.0,-15388.0,-1102.0,1313.0,796.0,-0.3304931988696754,-0.7584740502510967,-0.33378871856213277,0.4517482174366995
-9215.451331615448,-4872.0,-976.0,-15132.0,-1945.0,1418.0,-446.0,-0.3913126540075743,-0.7289758724751436,-0.47034555888009105,0.30699126926417103
-9215.46691250801,-3996.0,-800.0,-15600.0,-2251.0,1052.0,-596.0,-0.46372178293153105,-0.6402269355455671,-0.5900977529900271,0.16387867754181748
-9215.482489824295,-3832.0,-1028.0,-16032.0,-2116.0,1040.0,182.0,-0.5197593390468324,-0.5669974817942849,-0.6389496474288947,-0.010364997010637452
-9215.498061656952,-3320.0,-1680.0,-16428.0,-2035.0,939.0,2426.0,-0.5435228662241238,-0.5853892816278947,-0.5379380397742358,-0.2693045640358573
-9215.513649702072,-2604.0,-888.0,-16036.0,-1315.0,662.0,4112.0,-0.4511370384698008,-0.6547030624961181,-0.3070007682280173,-0.5230581237169621
-9215.529252767563,-2704.0,32.0,-16340.0,-1575.0,675.0,3886.0,-0.32401230295752853,-0.6246962401576801,-0.03730392116057649,-0.7094921088574997
-9215.544877767563,-2920.0,584.0,-17396.0,-1548.0,629.0,3273.0,-0.19391788044140354,-0.5264943420289906,0.20869099417801107,-0.8010291083384967
-9215.560507297516,-3424.0,196.0,-16732.0,-2752.0,670.0,1945.0,-0.18827267584067983,-0.38113670188740517,0.459022327758342,-0.780119680962796
-9215.576091766357,-3164.0,-456.0,-15996.0,-2215.0,622.0,3117.0,-0.07064905444585552,-0.16829992344529537,0.666422549642772,-0.7228864587207601
-9215.591710805893,-3680.0,284.0,-15676.0,-2430.0,642.0,2412.0,0.008184786823115818,0.02626539369880826,0.8145622109204059,-0.5794234573254408
-9215.60730791092,-3392.0,-24.0,-15872.0,-2495.0,754.0,2359.0,0.0761351906674719,0.22019865203266667,0.8948045259981198,-0.3808422857802223
-9215.622900247574,-3780.0,-308.0,-15940.0,-2153.0,561.0,3239.0,0.1715618510841577,0.4516704868044873,0.8587977575989425,-0.17037228103597998
-9215.638474702835,-3216.0,20.0,-15844.0,-2240.0,693.0,3583.0,0.24448513694432084,0.6528761612411906,0.713122744216687,0.07372711561661024
-9215.654054164886,-3352.0,564.0,-16180.0,-2325.0,692.0,2887.0,0.2992993244887006,0.7395505943632674,0.5210778725097939,0.3032534971244563
-9215.669620037079,-3004.0,672.0,-16200.0,-2418.0,760.0,2399.0,0.34168682166717373,0.7323135080609973,0.30826183772637816,0.5019379256560884
-9215.68518781662,-2836.0,544.0,-15908.0,-2436.0,636.0,2511.0,0.3535537542367734,0.6681545420854768,0.057456304322954864,0.6521257730293888
-9215.70074391365,-2684.0,608.0,-16440.0,-2318.0,577.0,2921.0,0.30349090884696833,0.5496748713267672,-0.21555924942912214,0.7478536047012787
-9215.716329336166,-2724.0,1088.0,-16244.0,-2218.0,475.0,3109.0,0.20462579812060716,0.3807936497679662,-0.47110615950837015,0.7688845592890847
-9215.731930017471,-2988.0,776.0,-16328.0,-2553.0,481.0,3144.0,0.09252150616563229,0.16373936279594548,-0.6957398225936525,0.6932353793808951
-9215.74753522873,-3072.0,1024.0,-16064.0,-2137.0,524.0,2982.0,-0.024356235859807104,-0.06304086090292024,-0.821680296588446,0.5659276577705702
-9215.763130903244,-3160.0,1248.0,-15828.0,-2135.0,600.0,2666.0,-0.11943382717721326,-0.2673653696570533,-0.8746699019481018,0.38626918419678374
-9215.778710365295,-2964.0,1336.0,-15828.0,-1830.0,580.0,2678.0,-0.20000678920266918,-0.4539035981444559,-0.845706056937831,0.19685038258286822
-9215.794304132462,-3084.0,1592.0,-16064.0,-1582.0,602.0,1906.0,-0.24485121825316544,-0.5635625473310618,-0.7886406150879139,0.02216114616670966
-9215.80989575386,-2608.0,1968.0,-16052.0,-1263.0,665.0,1408.0,-0.25966656661131987,-0.6253102193659674,-0.7250956479366727,-0.12568494374455338
-9215.825517654419,-2064.0,2520.0,-16128.0,-1000.0,752.0,1097.0,-0.25172730566079404,-0.6569901022015485,-0.6644356324728188,-0.252037020087132
-9215.841135978699,-2660.0,2652.0,-16044.0,-1595.0,912.0,-962.0,-0.30634251547262364,-0.5374644284239599,-0.6934109905610037,-0.3694150099305916
-9215.856742858887,-2628.0,1132.0,-16620.0,-1367.0,822.0,-321.0,-0.32765323612024067,-0.45056712465303655,-0.6797227334243517,-0.47708450897923355
-9215.872316598892,-2356.0,1396.0,-15812.0,-1488.0,803.0,-404.0,-0.35122917995247627,-0.34675248570484973,-0.6493879940007379,-0.5785291782227728
-9215.887931346893,-2884.0,976.0,-15824.0,-1401.0,654.0,456.0,-0.33021505018912484,-0.2938230524771511,-0.5794359908247089,-0.6847481047791159
-9215.903501749039,-3028.0,1680.0,-15784.0,-1028.0,685.0,466.0,-0.29211353477370117,-0.24528533561625657,-0.5225990113246969,-0.7624926624539303
-9215.919159889221,-3012.0,1460.0,-15644.0,-1477.0,891.0,-571.0,-0.3171080835276378,-0.12086637612417628,-0.4538650155303441,-0.823917671956172
-9215.934787034988,-2716.0,1556.0,-15732.0,-1008.0,765.0,-151.0,-0.306386926488439,-0.031818799882933804,-0.4019735310247678,-0.8622829556511352
-9215.95039010048,-2600.0,2016.0,-15684.0,-1242.0,671.0,-522.0,-0.32278694587171847,0.06961169907883501,-0.32542024534296343,-0.886038635075859
-9215.966022729874,-2476.0,1940.0,-15876.0,-940.0,684.0,-374.0,-0.3247066852895167,0.15878735354531062,-0.2685126482984,-0.8928903082608473
-9215.981629371643,-2568.0,2240.0,-16340.0,-930.0,699.0,-500.0,-0.33234218980760566,0.2499514073718268,-0.20793175383468446,-0.8853458920523439
-9215.997237682343,-2496.0,2160.0,-15836.0,-997.0,778.0,-1257.0,-0.3888635906851984,0.357689362421097,-0.1247701478851514,-0.8398070242900575
-9216.01287150383,-2376.0,1832.0,-15928.0,-614.0,699.0,-925.0,-0.42701022648840276,0.43722519056115877,-0.07427890326255221,-0.7880222355639426
-9216.028451681137,-2636.0,2156.0,-16004.0,-467.0,643.0,-1045.0,-0.4736848355348086,0.5025955850813637,-0.02619023635692264,-0.7227270757074565
-9216.044087171555,-2488.0,1856.0,-16348.0,-304.0,633.0,-1170.0,-0.5288361229211008,0.5541118656255607,0.017936485535180863,-0.6426279467572082
-9216.059734106064,-2468.0,2048.0,-15940.0,-76.0,537.0,-1193.0,-0.5889188620051611,0.5823372026437817,0.05469867227028204,-0.5577329214269403
-9216.075323343277,-2488.0,2232.0,-15944.0,40.0,634.0,-1162.0,-0.6460662241421214,0.6018497421384481,0.07866299279299602,-0.462803906071972
-9216.09089231491,-2928.0,2012.0,-16076.0,-237.0,579.0,-1573.0,-0.6934097194489892,0.6213130453182442,0.13669844363506498,-0.3383291240771251
-9216.106461524963,-2440.0,1444.0,-16008.0,23.0,593.0,-836.0,-0.7233237983913666,0.6252133921429965,0.14489646569440295,-0.2547860105951731
-9216.122032880783,-2736.0,1616.0,-15920.0,-383.0,527.0,-1285.0,-0.7316890883396499,0.6400673487494164,0.18878141276651966,-0.13894763496894044
-9216.137606620789,-2468.0,1232.0,-15976.0,-178.0,368.0,-234.0,-0.7298089857275781,0.651730160668395,0.18039339603989743,-0.10042342700597556
-9216.153218507767,-2740.0,1500.0,-15636.0,-294.0,347.0,-346.0,-0.7204619691333417,0.667455542110654,0.18034958547934776,-0.05395996067185706
-9216.168866157532,-2628.0,1772.0,-16096.0,-215.0,260.0,-47.0,-0.7117093207825489,0.6813880457724726,0.16770650806376144,-0.03247615960475209
-9216.184479951859,-2604.0,1664.0,-16024.0,-293.0,224.0,-92.0,-0.697209068248648,0.6987173826237617,0.160029540159282,-0.00916955002498492
-9216.200098514557,-2512.0,2008.0,-15940.0,-225.0,313.0,-578.0,-0.6868284924530337,0.703517955681651,0.17610852111203218,0.048113374231461226
-9216.215724229813,-2436.0,1620.0,-16140.0,-174.0,6.0,-475.0,-0.6733525611241574,0.7061543068513582,0.20401230131300815,0.07950725913893729
-9216.231311559677,-2400.0,1976.0,-15884.0,-98.0,208.0,-499.0,-0.6665556328127842,0.7009966303032645,0.2216487152579288,0.12320373246589023
-9216.24687576294,-2416.0,1556.0,-15948.0,114.0,177.0,105.0,-0.6777125991740027,0.6945652631508747,0.2061601227419834,0.12562934345121732
-9216.26249575615,-2556.0,2000.0,-15948.0,63.0,200.0,-659.0,-0.6764516027929173,0.6757820023069098,0.23458741076947398,0.17521604134733532
-9216.278090238571,-2220.0,1800.0,-16352.0,204.0,53.0,-284.0,-0.6846816293951725,0.6570231068045431,0.25127241788628585,0.1907717890655145
-9216.293670415878,-2404.0,1744.0,-16144.0,107.0,-117.0,-207.0,-0.6844123771700041,0.6480902093092921,0.2719143586895588,0.19396226466090716
-9216.309241771698,-2156.0,1692.0,-16352.0,308.0,-285.0,288.0,-0.6990393275028235,0.6409375494388676,0.27766949991221374,0.1531101732158925
-9216.324805736542,-2464.0,1816.0,-15816.0,-55.0,-1220.0,-2666.0,-0.6108610775651403,0.5775840972383471,0.4849313434057687,0.24101233726926852
-9216.34037733078,-2808.0,2808.0,-15928.0,-1069.0,-97.0,-5114.0,-0.40494094997568525,0.38243170031130286,0.6601279650297551,0.5039840190080136
-9216.356009721756,-2536.0,1184.0,-16172.0,735.0,-463.0,-1878.0,-0.31491815543353247,0.26442982091261613,0.7593889329529754,0.5042141149343252
-9216.371601104736,-2684.0,2128.0,-16128.0,642.0,-471.0,-2110.0,-0.20161704218729773,0.12529625819966372,0.833452106238558,0.4990080185601432
-9216.387216567993,-2168.0,1920.0,-16056.0,931.0,-582.0,-1412.0,-0.10653253807199367,0.031175201872900897,0.8890516196254665,0.4441465329837192
-9216.40281009674,-2360.0,1536.0,-16248.0,1533.0,-777.0,-575.0,-0.02766301678161412,0.0023727828053550573,0.9456042810848977,0.32413218136774496
-9216.418434858322,-2312.0,2004.0,-16104.0,2016.0,-851.0,-744.0,0.06204529270448721,-0.039057033857823026,0.9850395217161158,0.15595534750924436
-9216.43401479721,-2400.0,2188.0,-16372.0,2614.0,-974.0,-884.0,0.16153887178071658,-0.08493001900885944,0.9808279126459784,-0.06832781680619644
-9216.449639320374,-2076.0,3504.0,-16008.0,2862.0,-992.0,-2174.0,0.24207065568948571,-0.2249668967195753,0.8879694634782948,-0.31984672104696643
-9216.465254306793,-2628.0,988.0,-16736.0,3223.0,-1245.0,-2399.0,0.3142646999829926,-0.3544462510989981,0.6804199538168386,-0.559137049277149
-9216.48088669777,-2204.0,1844.0,-16592.0,4226.0,-1599.0,-1088.0,0.45111120530185006,-0.35333046578518534,0.3678364217770596,-0.732360996512912
-9216.496532917023,-3116.0,816.0,-16512.0,4368.0,-1769.0,-1271.0,0.5164515991313239,-0.3085874862425857,-0.018336392076525126,-0.7985707769601867
-9216.512115716934,-2608.0,1532.0,-16720.0,6545.0,-1828.0,101.0,0.5993101649814865,-0.12166723265334788,-0.4766561657652982,-0.6315245919885181
-9216.527735471725,-3244.0,2224.0,-17328.0,7666.0,-1728.0,-1410.0,0.43560721178056283,0.19910231740999726,-0.8243090305445633,-0.30185964687154637
-9216.543328762054,-2236.0,3648.0,-16760.0,8827.0,-1522.0,-2703.0,0.07844881022603646,0.5336951992266792,-0.8270744630588999,0.157996996972559
-9216.558958768845,-3052.0,1972.0,-17572.0,8983.0,-1240.0,-4418.0,-0.2767389340569207,0.6990058800289807,-0.37979871750771727,0.539035505548051
-9216.574576616287,-3324.0,2296.0,-18756.0,10887.0,-922.0,-3623.0,-0.5651003700649136,0.4231239594706492,0.264968238995186,0.6568253337061293
-9216.590170145035,-4696.0,1044.0,-19812.0,9160.0,-842.0,-7736.0,-0.30382909960694154,-0.1097379922348384,0.7710279279918616,0.5487817285122368
-9216.605799674988,-3572.0,-928.0,-21304.0,10207.0,-745.0,-5580.0,0.07811275982792398,-0.5048218731005353,0.859600807677359,0.011820517406788477
-9216.62140250206,-5524.0,348.0,-22044.0,11019.0,-1244.0,-5211.0,0.45248774912805306,-0.5596794876570019,0.43233922027690114,-0.5432278588174444
-9216.6369972229,-4220.0,32.0,-22888.0,10316.0,-1060.0,-7778.0,0.41564875956988717,-0.3286738837829084,-0.3168131366225854,-0.7866632209849602
-9216.652626037598,-4816.0,2612.0,-21944.0,10428.0,-1072.0,-7659.0,0.1053421707385259,0.12413681911487065,-0.8545779288761501,-0.49314261698000406
-9216.66823220253,-4760.0,184.0,-20916.0,9975.0,-2180.0,-9797.0,-0.3693911012490719,0.5365634421199813,-0.7537782091215811,0.08641931700619594
-9216.683868408203,-2576.0,668.0,-19008.0,10456.0,-1843.0,-7110.0,-0.6185316999676831,0.4548312068144997,-0.18878026257228112,0.6122982295465949
-9216.699457645416,-1240.0,812.0,-16212.0,9696.0,233.0,-7792.0,-0.395072550985846,0.032273796013633935,0.42408517257170947,0.8142652196632433
-9216.71510219574,-172.0,-256.0,-14148.0,7048.0,1934.0,-12240.0,0.24013795552943656,-0.501869590910732,0.559434648129143,0.6144050378259108
-9216.730727910995,1460.0,-1028.0,-13452.0,5705.0,3063.0,-9552.0,0.6006648899058838,-0.7137373167436737,0.3602497490730261,0.0009225045879620922
-9216.746314525604,2324.0,3912.0,-11412.0,5286.0,3623.0,-2877.0,0.695724995833632,-0.4497620618542815,0.3167061864822044,-0.4619285760079988
-9216.76194524765,-1008.0,7672.0,-9444.0,-216.0,3478.0,-5100.0,0.33921781199935375,-0.4081854529134587,0.2962105727078652,-0.7940876580505984
-9216.777527570724,616.0,5996.0,-9596.0,-3261.0,3500.0,-1872.0,0.0024515985283859623,-0.28357548417409156,0.5102383518323416,-0.8119333462541743
-9216.793148756027,-280.0,6336.0,-9040.0,-4646.0,3363.0,819.0,-0.1823417199464688,-0.008844721522151638,0.7679821600804196,-0.6139028179332393
-9216.808727264404,-2064.0,6572.0,-9092.0,-8133.0,3038.0,135.0,-0.3067910277317187,0.23304338263132582,0.9209685643580332,-0.05819751351534368
-9216.824324846268,-2740.0,5984.0,-9836.0,-10927.0,2558.0,1148.0,-0.20242621472651273,0.44952526609068233,0.630373271329342,0.5996500658977207
-9216.839961767197,-3508.0,4428.0,-11704.0,-12968.0,1534.0,4526.0,-0.009417355724682145,0.5408939090862299,-0.1613156368264049,0.8254225329126069
-9216.855560302734,-4712.0,4008.0,-12688.0,-14540.0,275.0,6617.0,0.11900342796631316,0.25646369008712244,-0.886621278993162,0.3660153923480437
-9216.87115597725,-5048.0,3456.0,-13580.0,-15715.0,-381.0,8366.0,0.09408697349231153,-0.2932221728707243,-0.8548313764329762,-0.4176502323975548
-9216.88679766655,-4936.0,3204.0,-14656.0,-16231.0,-705.0,9735.0,-0.009948504571907655,-0.6100563564917477,-0.010378688388426198,-0.792227588504801
-9216.902423143387,-5492.0,2772.0,-15908.0,-17118.0,-975.0,10029.0,-0.114353460257336,-0.33573830134482746,0.8534299318954082,-0.38191678476110846
-9216.918039798737,-5292.0,1940.0,-17268.0,-17020.0,-968.0,10931.0,-0.08690011656372278,0.3033208241183852,0.8620944192931492,0.39653254547510075
-9216.933724403381,-5496.0,2144.0,-18328.0,-17186.0,-985.0,10788.0,0.03389187789790493,0.6285907296029618,-0.0052111926063867445,0.7769799731919663
-9216.94934630394,-5944.0,1904.0,-18828.0,-17800.0,-828.0,10028.0,0.16133993797293616,0.30688205174749855,-0.8627391727787075,0.36806786124741503
-9216.964974880219,-5452.0,1528.0,-19016.0,-17749.0,-1016.0,10859.0,0.10178929300789641,-0.35082092308795915,-0.8376029552136348,-0.4061833442794651
-9216.98058104515,-6056.0,1312.0,-19988.0,-17259.0,-1338.0,11938.0,-0.04852641918847413,-0.6815326899495108,0.06110020599094315,-0.7276160690905561
-9216.996178150177,-5868.0,1716.0,-19936.0,-16435.0,-1465.0,12641.0,-0.10405533761882971,-0.3078863907460838,0.8993057333458221,-0.29262203450477536
-9217.011819601059,-5644.0,1392.0,-20164.0,-16728.0,-798.0,9799.0,-0.12228034748044471,0.30136260212929267,0.8120618138175727,0.48454484745711346
-9217.027444839478,-4900.0,524.0,-19760.0,-15294.0,-22.0,8726.0,-0.04764816526638727,0.5912731242545622,-0.03478565826894197,0.8043107004508844
-9217.043064594269,-5116.0,1348.0,-18400.0,-14607.0,89.0,5739.0,0.17899158508902022,0.37064823460719787,-0.7999571179399757,0.436635440736383
-9217.058668136597,-4720.0,1336.0,-17464.0,-13906.0,393.0,3529.0,0.3254273266553305,-0.06730876106193166,-0.8971205571239008,-0.2911035756152346
-9217.074248790741,-4872.0,688.0,-16752.0,-13249.0,678.0,1705.0,0.22365470984764244,-0.36425396334218396,-0.34574144947162216,-0.8353205798193527
-9217.089827537537,-4576.0,152.0,-16808.0,-11703.0,-69.0,1302.0,-0.03878933911957804,-0.44439022062274486,0.3816811319787368,-0.8095259307007803
-9217.105414390564,-4588.0,600.0,-16272.0,-9495.0,-606.0,1277.0,-0.22732584878689843,-0.31630393816468927,0.8463801383917346,-0.3632016499285387
-9217.120986700058,-3740.0,1540.0,-15792.0,-8713.0,-657.0,127.0,-0.33004980830061853,-0.12317550657225092,0.9057686138590507,0.2355379730940391
-9217.136576652527,-2664.0,872.0,-16340.0,-7765.0,-236.0,-1537.0,-0.2986469932625327,-0.013330385167692107,0.6059829822456743,0.7371681622772165
-9217.152186632156,-2524.0,-360.0,-16448.0,-5009.0,-4.0,-3551.0,-0.06674849531696388,-0.06202160700036596,0.24680434075132876,0.9647722923178897
-9217.1678647995,-1932.0,2100.0,-14928.0,-3340.0,436.0,-3307.0,0.1703435509649654,-0.13927848665739878,-0.05042665995901365,0.9741877281943399
-9217.18346786499,-3608.0,2344.0,-14888.0,-2374.0,-494.0,-6822.0,0.6080618743102331,-0.08697004520025771,-0.28950653560028433,0.734086462273289
-9217.199092626572,-1392.0,3312.0,-15164.0,407.0,-519.0,-4142.0,0.8107422376729079,0.06803776876388591,-0.30303286068168955,0.49622471867272977
-9217.214679002762,-4052.0,4028.0,-15020.0,-556.0,503.0,-10772.0,0.9415443476654017,0.2124851764111711,-0.16573909505200513,-0.2021752792904934
-9217.230277776718,-2692.0,-1888.0,-16140.0,164.0,128.0,-12476.0,0.48707073321201366,0.27660739698942427,0.049458498266762206,-0.8269246070399908
-9217.245871067047,-988.0,-3068.0,-17240.0,3124.0,168.0,-9881.0,-0.22410034859040634,0.2811807298519538,0.051788378733423554,-0.9316836344756435
-9217.261509895325,-2048.0,-1396.0,-17068.0,6166.0,-850.0,-7574.0,-0.7502808357094669,0.043750029459213594,-0.187689603786612,-0.6324058942798101
-9217.277117013931,-4132.0,376.0,-15404.0,6848.0,-1043.0,-7696.0,-0.9038441044682713,-0.2492906817546121,-0.34740865626392015,-0.015073697660716145
-9217.292734861374,-288.0,-5328.0,-15472.0,4059.0,2159.0,-18713.0,-0.39585547250469194,0.00034657833606193983,-0.47552858572744205,0.7856022460046832
-9217.30832028389,2940.0,-13376.0,-24724.0,14845.0,499.0,7424.0,-0.5024226568962076,-0.485487006351696,0.2978942238742893,0.6504866423558281
-9217.323920249939,-4616.0,660.0,-14964.0,10852.0,3345.0,-24212.0,0.49028746280014784,-0.7013559112234934,-0.10178226976098306,0.5073050947656247
-9217.33949971199,6368.0,880.0,-21708.0,16014.0,697.0,8712.0,0.5802487357345841,-0.06627272890603228,0.6224720962553901,0.5210065445512028
-9217.35514140129,-8156.0,16568.0,-13548.0,15272.0,-368.0,-7447.0,0.5741275137934153,0.1785041517691544,0.7017974159244122,-0.3820919427420369
-9217.370781421661,144.0,6580.0,-17332.0,4224.0,1409.0,-11187.0,0.03367472313278917,-0.1709161729417571,0.555669424077316,-0.8129484399360499
-9217.386390209198,-1752.0,-3512.0,-21560.0,11566.0,829.0,4419.0,0.3253453965610873,0.09235456765291601,-0.13314291906586007,-0.9316082706120494
-9217.402007579803,-7420.0,5696.0,-15848.0,9022.0,1833.0,-3474.0,-0.0064614389670782126,0.40822542070733425,-0.596779080807822,-0.6907712967436948
-9217.41758966446,-8604.0,2500.0,-12620.0,5584.0,2106.0,-9413.0,-0.4753528185993261,0.7328295502836514,-0.4296129690431099,-0.22898306686456368
-9217.43318104744,-6176.0,-532.0,-13372.0,7962.0,1391.0,24.0,-0.7613590079042787,0.35108208986287226,-0.5296308098676622,0.12870521550992026
-9217.448778390884,-5928.0,-268.0,-14588.0,6189.0,1657.0,1717.0,-0.7733253697704313,-0.13672833265622347,-0.5392581568168111,0.3040951756029849
-9217.464386701584,-5268.0,2948.0,-15224.0,7423.0,1476.0,1835.0,-0.549057035057673,-0.6312823946591226,-0.34756445791395413,0.42334130207446147
-9217.480057239532,-2992.0,3600.0,-16096.0,4060.0,2314.0,-5199.0,-0.05378700519868083,-0.6434927145581868,-0.5078570932422937,0.5701800217701256
-9217.495638370514,-668.0,2252.0,-18620.0,5222.0,2269.0,-2703.0,0.4157828210542714,-0.5794306413843218,-0.3597450197773646,0.6016380126674916
-9217.511283874512,-3300.0,3848.0,-19112.0,3775.0,2035.0,-5108.0,0.8112515025879504,-0.3363620080780508,-0.29911615941967934,0.3731770655392892
-9217.526857614517,-3284.0,912.0,-17724.0,2308.0,1796.0,-4403.0,0.9708980170528363,-0.10604197010719493,-0.20540577393288179,0.062614767377106
-9217.54245877266,-4276.0,752.0,-15544.0,2914.0,1549.0,-4309.0,0.9482013148343083,0.18930012821008066,-0.08882244580984393,-0.23914493748873997
-9217.558071374893,-3848.0,-180.0,-14272.0,1697.0,1589.0,-5435.0,0.7277930415520218,0.3601937067578441,0.08628625594014244,-0.5771762853031416
-9217.573652982712,-2180.0,-1480.0,-13636.0,1398.0,1441.0,-4345.0,0.41893728151440746,0.451298537312547,0.22523360672918744,-0.7550437118317295
-9217.589236974716,532.0,380.0,-13580.0,1408.0,2002.0,-2608.0,0.14529468000138734,0.5571464960001252,0.2944567500795877,-0.762740100093501
-9217.604876279831,-416.0,1260.0,-15884.0,263.0,2006.0,-4309.0,-0.19011539010380382,0.5388480960319456,0.47279873536572636,-0.6707907450800104
-9217.620508670807,-1800.0,60.0,-18244.0,-475.0,1600.0,-1831.0,-0.3331824716448335,0.5522503196637258,0.5476240269676398,-0.5330262189683524
-9217.636100292206,-3772.0,1316.0,-18284.0,1062.0,1202.0,1527.0,-0.3638700630265237,0.6386258679847074,0.3827166946699034,-0.559717347948763
-9217.651725769043,-7000.0,1788.0,-18132.0,613.0,938.0,-1059.0,-0.4765998614041567,0.6242109824972844,0.37863873567569245,-0.4897406755469947
-9217.667339801788,-5812.0,1496.0,-16496.0,284.0,1167.0,-4030.0,-0.659660769132369,0.49694462246886617,0.5046469807348261,-0.2514460910457575
-9217.682939052582,-2772.0,240.0,-15584.0,60.0,1322.0,-3322.0,-0.7571642299568014,0.3593060236908301,0.54550369758203,-0.005217867164047648
-9217.698543787003,-860.0,-540.0,-14744.0,145.0,1229.0,-1032.0,-0.8125047194826978,0.298381282966519,0.4919651368524469,0.09367494283611785
-9217.714158773422,-852.0,-24.0,-15116.0,836.0,1189.0,1914.0,-0.8816315988733342,0.30507776007832715,0.3571239422645634,-0.045997543793725996
-9217.72974729538,-2368.0,620.0,-16496.0,899.0,948.0,2067.0,-0.906284382544858,0.297649106795481,0.22077928657098111,-0.20324894538556953
-9217.745359182358,-3156.0,992.0,-17368.0,1528.0,835.0,3288.0,-0.8594758534384808,0.24276846839219077,0.0402752395824141,-0.44804311532182267
-9217.760947704315,-3028.0,2336.0,-16920.0,1624.0,881.0,863.0,-0.8498121582789094,0.15628945648037423,-0.10602096348526915,-0.49208988684595634
-9217.77652478218,-2152.0,1840.0,-17112.0,1146.0,853.0,-871.0,-0.8854878431173421,0.11496337662671269,-0.2046971324222925,-0.40099100451764824
-9217.79209804535,-632.0,816.0,-15848.0,947.0,1059.0,-1736.0,-0.919272019033255,0.10792709584002502,-0.2969026049110865,-0.23481810024585462
-9217.807725429535,-1408.0,248.0,-15648.0,791.0,966.0,-1307.0,-0.9170141115325303,0.09702481393385552,-0.37395818012821497,-0.09912912915232558
-9217.82332110405,-1552.0,636.0,-15768.0,826.0,935.0,-2458.0,-0.8892486921247046,0.11597190550173843,-0.4233277844709038,0.12876671768649814
-9217.838916301727,-704.0,360.0,-15908.0,1068.0,1381.0,-2275.0,-0.798687850817831,0.09863975539857556,-0.48091841623443093,0.3479732641130205
-9217.85451221466,-1544.0,-620.0,-15968.0,1070.0,775.0,-2396.0,-0.6832663306661876,0.09836871038750351,-0.4689193371576849,0.550985819630833
-9217.870164394379,-640.0,28.0,-16164.0,1719.0,843.0,190.0,-0.6632733037878819,-0.05166531284594202,-0.43240390516197913,0.6086263901043966
-9217.885797739029,-3208.0,84.0,-16248.0,593.0,926.0,-1401.0,-0.5446172606726759,-0.0814001806119348,-0.4556327875138045,0.6994031833757517
-9217.901386499405,-3724.0,-132.0,-16780.0,1188.0,573.0,-122.0,-0.5025348833388442,-0.16696365979662497,-0.4087807806377379,0.743290051538518
-9217.917005777359,-4628.0,52.0,-16612.0,668.0,450.0,-700.0,-0.42943103772106145,-0.19976384629678695,-0.3939296258536953,0.7877200260430693
-9217.932730197906,-3616.0,-268.0,-16144.0,805.0,478.0,319.0,-0.419282531691485,-0.27290061619462075,-0.34988822644588524,0.7920262882591259
-9217.948305130005,-3568.0,-136.0,-16608.0,1036.0,454.0,1107.0,-0.4529021114909942,-0.37264210692799943,-0.26622094258890644,0.7649470225305376
-9217.963918209076,-3316.0,-68.0,-16352.0,1020.0,313.0,1449.0,-0.5029445327542454,-0.4620807199231841,-0.16157169895312018,0.7123361505253599
-9217.97950387001,-2736.0,-708.0,-15464.0,770.0,115.0,2370.0,-0.60335845034278,-0.524414126283788,-0.022778064358139626,0.6003578635597826
-9217.995085477829,-1044.0,812.0,-14720.0,744.0,704.0,215.0,-0.5766354449955534,-0.5986669409333353,-0.010996176441362557,0.5558493874350974
-9218.01065659523,-284.0,216.0,-15552.0,108.0,985.0,-1423.0,-0.4952315803934276,-0.6434399957182126,-0.12820853885121059,0.5694674918349703
-9218.026245117188,-572.0,-908.0,-15392.0,235.0,900.0,-1036.0,-0.41724890702226575,-0.6819369066943021,-0.2120976036589382,0.5620320376980901
-9218.041826963425,-936.0,-1208.0,-15816.0,-77.0,470.0,530.0,-0.43811849219060306,-0.7108274723825053,-0.20114523289292358,0.5121690019821411
-9218.057437419891,-2140.0,-416.0,-15912.0,27.0,3.0,1039.0,-0.48068363570243594,-0.7274538278012918,-0.13512762145088666,0.4706322308407727
-9218.073037862778,-2600.0,-92.0,-16012.0,23.0,-105.0,524.0,-0.5012484898496383,-0.729704933063536,-0.09647211583367765,0.45494372503945013
-9218.088671445847,-2676.0,264.0,-15764.0,-143.0,-201.0,-331.0,-0.49839196104812217,-0.71244191887422,-0.11441106054590269,0.48056432932354437
-9218.10426568985,-2492.0,-508.0,-15972.0,-98.0,-231.0,418.0,-0.5236617465165331,-0.7022551514384338,-0.0824755991050614,0.47519875111967363
-9218.119878530502,-3028.0,500.0,-16348.0,-378.0,-203.0,-603.0,-0.522014271217712,-0.6710587265496535,-0.12561485500742922,0.5112750672270855
-9218.135476827621,-2992.0,-536.0,-16400.0,-727.0,-259.0,-268.0,-0.5538931525845543,-0.6221081034837328,-0.16161266166148155,0.5292118958323864
-9218.151084661484,-2724.0,-320.0,-16260.0,-339.0,-212.0,666.0,-0.6044960552196897,-0.604180811712036,-0.13065548269036759,0.5024730946287234
-9218.166690349579,-2456.0,-660.0,-15716.0,-526.0,-491.0,1221.0,-0.6859834154528962,-0.5647801699285415,-0.06305164065126095,0.454394766684489
-9218.182265758514,-1136.0,404.0,-15636.0,85.0,-140.0,1914.0,-0.7478662347040032,-0.567203294652816,0.042399153036701206,0.34231393390631687
-9218.197838306427,-1332.0,740.0,-15920.0,-1051.0,208.0,-939.0,-0.7665496066102728,-0.5046979730256453,-0.04867194489700014,0.39409732098732186
-9218.213415145874,-1284.0,-564.0,-16712.0,-767.0,-22.0,1283.0,-0.8373153333536472,-0.4545206227566359,-0.016981396831075322,0.3033573275552382
-9218.228967905045,-2120.0,164.0,-15608.0,-1343.0,-81.0,190.0,-0.8893878326975371,-0.35236002956519974,-0.038861112077519556,0.2886546493346126
-9218.244551897049,-1940.0,-476.0,-16444.0,-876.0,-1.0,1075.0,-0.9364814190293769,-0.28620641068074215,-0.027679632265260403,0.20080408426033283
-9218.260165452957,-2800.0,652.0,-16448.0,-1055.0,-245.0,22.0,-0.9594641397781755,-0.1951838251528162,-0.025584710302665528,0.20168604680832297
-9218.275798797607,-2208.0,904.0,-16500.0,-831.0,-761.0,398.0,-0.9769908957937962,-0.11279626579249237,0.030011177701826153,0.1785080423181399
-9218.291407108307,-1848.0,760.0,-16848.0,-1162.0,-394.0,-461.0,-0.973860980836406,-0.009062148166195388,0.04065441670728576,0.22329327324654819
-9218.306998968124,-2520.0,152.0,-17020.0,-890.0,-485.0,216.0,-0.9731108798591772,0.07625610852603291,0.06420865038671461,0.20764746718339797
-9218.322652816772,-2892.0,-116.0,-16396.0,-1517.0,-618.0,-231.0,-0.9455169538046585,0.2130785537520707,0.08969707406513393,0.22923711502075586
-9218.338246583939,-2180.0,-208.0,-16116.0,-1051.0,-712.0,1474.0,-0.9363870921170441,0.3212911003365473,0.09863124901452024,0.10110944208605357
-9218.35384273529,-2412.0,-140.0,-15896.0,-1381.0,-741.0,921.0,-0.8881627549485801,0.44335273750947324,0.11969125797873559,0.016711481935272467
-9218.369451999664,-1464.0,96.0,-15400.0,-1241.0,-842.0,1904.0,-0.8158936826057308,0.5487799526307955,0.10714580333046864,-0.1472339604278476
-9218.38504076004,-1688.0,-388.0,-15804.0,-1330.0,-1070.0,3215.0,-0.6677918846351353,0.6290584995418763,0.0442910257837989,-0.3954462137947415
-9218.400660037994,-1068.0,1476.0,-15748.0,-1134.0,-1018.0,2316.0,-0.5068559733156606,0.6504407039176452,0.015163384791865304,-0.5655033021680835
-9218.416249513626,-2688.0,436.0,-16528.0,-2293.0,-834.0,868.0,-0.3244149425120245,0.6945656140740959,0.11305803008502005,-0.6321008105152918
-9218.431856155396,-2676.0,292.0,-15696.0,-1234.0,-824.0,2781.0,-0.08481563724391393,0.6862243250547118,0.034619427737432366,-0.7215982113373388
-9218.447458028793,-3260.0,460.0,-16096.0,-1903.0,-1096.0,2478.0,0.18111739132716803,0.6139172733742392,0.013614436579200374,-0.7681905487105475
-9218.463104009628,-2968.0,1000.0,-16304.0,-1458.0,-1060.0,2466.0,0.4113979190379545,0.5053778779255692,-0.03624632915411626,-0.757648438484196
-9218.47871017456,-2524.0,1208.0,-16328.0,-2123.0,-929.0,1450.0,0.5815816338622979,0.3535376576235891,0.006618372243463013,-0.7326186763555329
-9218.494299411774,-1596.0,508.0,-15624.0,-2129.0,-877.0,2122.0,0.7556943022043241,0.18421048223916175,0.031616673014730284,-0.6276886217198898
-9218.509895086288,-2172.0,416.0,-15524.0,-1993.0,-1002.0,3307.0,0.9176288808139376,0.006922348201259753,0.02044393455865203,-0.3968518158347052
-9218.525530099869,-2716.0,1368.0,-15476.0,-2139.0,-998.0,2093.0,0.9576005487835803,-0.18797547937881795,0.013087518261441982,-0.21793376284423202
-9218.541161298752,-2960.0,1500.0,-16532.0,-2166.0,-970.0,1399.0,0.9233784931842346,-0.37538258252935436,-0.003540591032316035,-0.0802965707458706
-9218.55675315857,-2308.0,1576.0,-16472.0,-2746.0,-870.0,172.0,0.8089226900561967,-0.5848089180896314,-0.047232799619554455,-0.03757224341425991
-9218.572362661362,-2052.0,672.0,-16032.0,-2529.0,-988.0,1494.0,0.656842393691488,-0.7461405644818717,-0.03130003505462024,0.10417598422808229
-9218.587986946106,-2496.0,1116.0,-15832.0,-2718.0,-1161.0,1662.0,0.4423397428680124,-0.8592457064007378,-0.013724317280711823,0.2566008788498906
-9218.603574037552,-2440.0,1196.0,-15752.0,-2695.0,-1246.0,2580.0,0.17092440533432277,-0.8877311147513698,0.06745006104938576,0.42210046769440157
-9218.619156837463,-3148.0,1200.0,-15512.0,-2837.0,-1029.0,2290.0,-0.1208608865685161,-0.834386153773932,0.11871990813349405,0.5244978321222991
-9218.634736061096,-3228.0,1752.0,-15688.0,-2920.0,-1526.0,1607.0,-0.3725792353909107,-0.6832140080827208,0.1125934030139305,0.6178398320866105
-9218.650312185287,-3484.0,1424.0,-16096.0,-2935.0,-1476.0,2405.0,-0.6244045917102921,-0.45688074063095513,0.1373482150629034,0.6184774551353088
-9218.665906190872,-3792.0,2204.0,-16064.0,-3112.0,-1524.0,1597.0,-0.7745465852358345,-0.17669357740593483,0.11020660201695973,0.5972532728038217
-9218.681539297104,-3580.0,2296.0,-16200.0,-3178.0,-1548.0,1679.0,-0.8480977883989335,0.1274063957128698,0.07113005389964266,0.50935082907219
-9218.697175741196,-2804.0,2240.0,-15828.0,-3178.0,-1476.0,1693.0,-0.8321019887116725,0.4156052921453939,0.019393546392169222,0.36674570465263273
-9218.712775945663,-2600.0,1824.0,-16036.0,-3130.0,-1557.0,2941.0,-0.7522941950323628,0.6483159314407214,-0.06912263386317484,0.09466762196536153
-9218.728370904922,-3044.0,2256.0,-15776.0,-3037.0,-1782.0,3472.0,-0.5689230055588919,0.7727560350986272,-0.15950089341201934,-0.23180636092491977
-9218.744000673294,-3528.0,2020.0,-15304.0,-3572.0,-1436.0,3262.0,-0.2578675279803255,0.8014939483372518,-0.21598554764823158,-0.4944310184435969
-9218.759608507156,-3664.0,2632.0,-15428.0,-3031.0,-1571.0,3441.0,0.06737655154078978,0.6789764151219515,-0.2676551551338427,-0.6803029809878046
-9218.775271654129,-3764.0,2944.0,-16072.0,-3280.0,-1602.0,2830.0,0.363863501673615,0.46257197284296037,-0.23200634618267849,-0.7744698686333445
-9218.790883779526,-3376.0,3412.0,-16008.0,-3152.0,-1475.0,3055.0,0.619039016898955,0.1865752786859718,-0.17548378548335167,-0.7424188857864947
-9218.806451559067,-3196.0,3604.0,-16164.0,-3469.0,-1263.0,1280.0,0.6995601744337534,-0.0965193542884349,-0.03783169427864576,-0.7070136770261004
-9218.822044610977,-2700.0,3304.0,-15956.0,-3374.0,-1213.0,1813.0,0.7351633145322918,-0.361630974714523,0.1050587110609699,-0.5636671059438598
-9218.837626457214,-3000.0,3120.0,-15956.0,-3547.0,-1180.0,2571.0,0.7069592544329972,-0.5800676620069547,0.2650688120690495,-0.30572642171331715
-9218.853197574615,-2956.0,3500.0,-15820.0,-3167.0,-1210.0,3914.0,0.6185936727193911,-0.6536920434278197,0.4311771836979496,0.06414683693683326
-9218.868784427643,-3596.0,4200.0,-16312.0,-3349.0,-1039.0,3580.0,0.4089186383382652,-0.6358833269944828,0.5137116758957212,0.4056331541163966
-9218.884363412857,-3992.0,4560.0,-16532.0,-3428.0,-1004.0,3264.0,0.13627972247959927,-0.5310402000740453,0.49545549592008176,0.6737566286937645
-9218.900008916855,-4060.0,4800.0,-16200.0,-3890.0,-969.0,2763.0,-0.15149776493967193,-0.3691113542742975,0.3529264876866118,0.846314438996092
-9218.915623903275,-3868.0,4808.0,-16176.0,-3863.0,-947.0,3781.0,-0.4744014747373662,-0.1189481642484458,0.1823250664380048,0.8529666729347132
-9218.931332826614,-4712.0,5244.0,-16448.0,-4389.0,-1091.0,3830.0,-0.6996804669522241,0.18178279447785073,-0.052629494992509546,0.6889356980547419
-9218.94693851471,-3976.0,5596.0,-16192.0,-4749.0,-908.0,3624.0,-0.7486852101554973,0.4508585134964545,-0.3010510183872428,0.3815302625352154
-9218.962610721588,-4388.0,5348.0,-15976.0,-5472.0,-802.0,3326.0,-0.5794121645466719,0.651546217425373,-0.48956394276036297,-0.009808979710286658
-9218.978245973587,-4404.0,5204.0,-16416.0,-5862.0,-859.0,4398.0,-0.23436060454070173,0.6384178881762751,-0.5811920633864067,-0.44689315563399823
-9218.993854045868,-4584.0,5312.0,-16240.0,-6519.0,-1273.0,6078.0,0.23705374001356896,0.32548979482515833,-0.5030147302159391,-0.7647470817178981
-9219.009455919266,-4364.0,5352.0,-15468.0,-6899.0,-1280.0,6832.0,0.6330704696931142,-0.15383727780553272,-0.20022763820391176,-0.7317545799372946
-9219.025078296661,-4216.0,4960.0,-15368.0,-7431.0,-1097.0,7415.0,0.7264703815777389,-0.5619685224517098,0.23022211291329728,-0.3216052598908693
-9219.040716409683,-4412.0,5004.0,-15400.0,-7128.0,-1628.0,9339.0,0.4665391572521138,-0.6058799171484321,0.545534518514326,0.34299100550311656
-9219.056309461594,-4584.0,7548.0,-14680.0,-7878.0,-1694.0,8217.0,-0.08153708786230884,-0.34201924343999524,0.4765124870308971,0.8057979834445459
-9219.071962118149,-4744.0,4292.0,-15908.0,-9197.0,-889.0,4033.0,-0.4524907164018933,-0.03496143556835603,-0.03249793569535082,0.8904907263799224
-9219.0875685215,-2812.0,1616.0,-15648.0,-7485.0,-747.0,4509.0,-0.6574321436736302,0.2426423556565073,-0.45343068274714465,0.5507343094901702
-9219.103166818619,-3252.0,524.0,-15408.0,-7741.0,-329.0,414.0,-0.43577049887910224,0.5681756777491309,-0.6752866402122947,0.17682880159002584
-9219.118790626526,-3600.0,-2664.0,-16384.0,-6468.0,229.0,313.0,-0.09242075856941735,0.6895337897849699,-0.6958193551431938,-0.1784292048358128
-9219.13437962532,-2352.0,-3204.0,-16456.0,-2653.0,1959.0,-475.0,0.1716323987600949,0.7397215276313668,-0.616227569579559,-0.2088491411154056
-9219.149987697601,-720.0,640.0,-15568.0,-872.0,1367.0,1807.0,0.326896241444054,0.6402777516487588,-0.6814464615119409,-0.13716401921136617
-9219.16560959816,-1284.0,1928.0,-15968.0,-729.0,1429.0,-1233.0,0.43089478370767537,0.6992124751306639,-0.5545723057512791,-0.13372044603902666
-9219.18119263649,-2876.0,2280.0,-15580.0,566.0,1215.0,-3500.0,0.3935034120382515,0.8593832540264416,-0.28701832592310056,-0.15567905445974234
-9219.196770906448,-4264.0,236.0,-15068.0,-397.0,686.0,-12152.0,0.18849185218250797,0.7946172108059334,0.44767747287997867,-0.36419663676042174
-9219.212345838547,-2360.0,-3324.0,-17200.0,2792.0,1020.0,-7422.0,-0.23047672801550037,0.47819038297053335,0.7302533389227844,-0.430051736968808
-9219.227966070175,-808.0,696.0,-17008.0,6808.0,1204.0,-1934.0,-0.5625483810797806,0.22315270334088072,0.45036220108903036,-0.6564419835495128
-9219.243563890457,-2968.0,2324.0,-15960.0,6809.0,978.0,-4816.0,-0.8142663089490183,-0.1970208954758973,0.08573490633841728,-0.5392612267645062
-9219.259138822556,-2548.0,748.0,-16716.0,8743.0,899.0,-2373.0,-0.6124461840738451,-0.6216637410870149,-0.3369433797106709,-0.35343036584344756
-9219.274800777435,-2544.0,744.0,-18108.0,10779.0,1578.0,-1206.0,-0.013222211880239738,-0.8047760838136725,-0.5919753077614649,-0.04154350773877389
-9219.290427923203,-3880.0,3280.0,-18400.0,12053.0,1852.0,-1435.0,0.6301418131386848,-0.5034304283918051,-0.503967141646586,0.30902462562731864
-9219.306026935577,-4408.0,2156.0,-17296.0,10282.0,2054.0,-6013.0,0.9180281704766516,0.1864073528254656,-0.2601098406444,0.23413553302273218
-9219.32161808014,-2588.0,-1984.0,-18708.0,12089.0,2254.0,-3756.0,0.5649483645757628,0.7945705691948302,0.15191156551792306,0.1625233281546641
-9219.337221860886,-3400.0,-1460.0,-18732.0,15062.0,2595.0,-2642.0,-0.28318385639975363,0.8706857137612002,0.40206832065461,0.007372709996650274
-9219.352811098099,-4540.0,-960.0,-18132.0,15046.0,2786.0,-4985.0,-0.8821476956105919,0.18691900486711152,0.4186397854460816,-0.10778431606718078
-9219.36842918396,-4132.0,-1788.0,-18020.0,16087.0,2830.0,-4293.0,-0.7233365298431974,-0.6634800617614703,0.06721248282312377,-0.17905572985008913
-9219.384064435959,-4300.0,-1444.0,-18368.0,17124.0,2897.0,-3328.0,0.10841440338333375,-0.9346406530167959,-0.31317400212274893,-0.12890000489446735
-9219.39961719513,-5028.0,52.0,-17580.0,17320.0,2906.0,-3767.0,0.8380104182883988,-0.34161745491368073,-0.4237136733152091,0.038765659856817285
-9219.415221214294,-5200.0,-352.0,-17624.0,16541.0,2881.0,-6227.0,0.7862336054853712,0.5867015538565549,-0.18481329687533943,0.05883918427243322
-9219.43082165718,-4696.0,-632.0,-17608.0,17511.0,2696.0,-3911.0,-0.025087654411542776,0.9811554271949378,0.15500561880966637,0.11259616076704713
-9219.446436166763,-5836.0,608.0,-16736.0,17060.0,2541.0,-5370.0,-0.7860318817233636,0.45326219922022937,0.4161512565316017,0.05937500618642833
-9219.462036848068,-5392.0,80.0,-16036.0,16213.0,2277.0,-5903.0,-0.8135613618408143,-0.48667732528497726,0.31765216510386324,-0.018978766503862446
-9219.477672338486,-4656.0,108.0,-15544.0,16189.0,2065.0,-5035.0,-0.10660306100669968,-0.98740917795481,-0.038745820629997395,-0.11026179781917508
-9219.493344545364,-4884.0,880.0,-14608.0,14767.0,1472.0,-6562.0,0.6390198175645164,-0.6278435852875222,-0.4384050079151359,-0.07257516247347733
-9219.508939504623,-4864.0,704.0,-14456.0,14176.0,1535.0,-5707.0,0.8600664759975776,0.2336248745959424,-0.4517467571645452,0.04037254297732292
-9219.524534702301,-5304.0,1996.0,-13552.0,12803.0,874.0,-7123.0,0.4051306316933325,0.9061063909816298,-0.12057621053004004,0.017371152530056562
-9219.540128231049,-4376.0,1580.0,-13640.0,11700.0,730.0,-6680.0,-0.3252373881012141,0.899064598638621,0.292053460882094,-0.024663025821393143
-9219.555748701096,-3852.0,2452.0,-12956.0,10487.0,506.0,-6594.0,-0.7975347578176202,0.29494645911333195,0.524393800017607,-0.044227127788172074
-9219.571346759796,-3396.0,2516.0,-12520.0,8554.0,-91.0,-5102.0,-0.7797138462655051,-0.40319804080514327,0.47493276473998663,-0.06258216047068606
-9219.586928129196,-3552.0,2972.0,-11708.0,7032.0,-884.0,-3292.0,-0.4241299239014234,-0.8452289715829883,0.31469922469343686,-0.08164674657012694
-9219.60252571106,-3172.0,3572.0,-11776.0,5291.0,-1374.0,-1419.0,-0.005387409768468615,-0.9775658331715127,0.20015437280685147,-0.06537770780601662
-9219.618095636368,-3140.0,4260.0,-12092.0,3492.0,-1763.0,-725.0,0.3014035935081777,-0.9465385102388821,0.11260098546993531,0.023275320111962285
-9219.63368344307,-2772.0,3740.0,-13008.0,695.0,-2232.0,23.0,0.37273924938052033,-0.9049506033820968,0.05608666192171169,0.19744402691422486
-9219.649281024933,-2752.0,3416.0,-13600.0,-567.0,-2401.0,722.0,0.31905005932135694,-0.8573068732333974,0.024675416592806053,0.4032655558931184
-9219.664874792099,-2648.0,3408.0,-14776.0,-2646.0,-2291.0,-327.0,0.13125510949537345,-0.8137823624947331,-0.14974956724704033,0.545990320274245
-9219.680507183075,-1820.0,2236.0,-16140.0,-4899.0,-2271.0,-226.0,-0.21315232265566533,-0.6864084025745022,-0.38459900871055414,0.5792177437893925
-9219.696101903915,-1188.0,2792.0,-16344.0,-6367.0,-1167.0,-988.0,-0.5068135043933288,-0.41330544587087703,-0.6459445625779733,0.3937947463514207
-9219.711721658707,1288.0,6832.0,-19648.0,-2488.0,-1106.0,17894.0,-0.6812802499364421,-0.6815016092186212,-0.019914718673154842,-0.2664886145018916
-9219.727323532104,-6624.0,26188.0,-16240.0,-10569.0,-332.0,891.0,-0.94631354947252,-0.04597527287440437,0.21898899893809784,-0.2332825726730017
-9219.74291229248,4148.0,9112.0,-19264.0,-24859.0,4405.0,-14771.0,-0.5219843399404038,0.6617522144055463,0.1102545018060215,0.5267450051190257
-9219.758508443832,1324.0,-22224.0,-31544.0,-13520.0,1524.0,5679.0,-0.010371775510714502,0.7746577614535163,-0.5575627475383511,0.29819718551667684
-9219.774149894714,-3904.0,-2812.0,-23492.0,-3462.0,843.0,14155.0,-0.06406562248876956,0.04146543710354675,-0.9913039465648448,0.10720400676234777
-9219.789761304855,-5104.0,8724.0,-17936.0,-11712.0,529.0,3978.0,-0.008956455082883959,-0.16448203239157938,-0.7594456939310622,-0.6293708611798382
-9219.805382728577,-3576.0,-3108.0,-23276.0,-6808.0,-306.0,13203.0,0.36534478280678956,-0.6419222595715568,-0.11967408525641139,-0.6634283048381702
-9219.82095861435,-8116.0,4360.0,-18556.0,-1234.0,1029.0,8760.0,0.6427621873523093,-0.563248175347203,0.375299706138354,-0.3588291989938756
-9219.836519241333,-6072.0,540.0,-15140.0,-8055.0,1704.0,-1721.0,0.11041592065050976,-0.8207159891320169,0.5148333497738381,-0.2217661191674782
-9219.852093219757,268.0,-3812.0,-14428.0,-1717.0,1318.0,10650.0,0.09745963780024776,-0.24186724611777563,0.9603391334390207,-0.09874514185942883
-9219.86773443222,-3524.0,2212.0,-14648.0,-3873.0,1405.0,563.0,-0.09135423000365672,-0.202548784277001,0.9564655227776634,0.18921442436029795
-9219.883326292038,-1252.0,412.0,-16540.0,-3598.0,1578.0,-641.0,-0.2606343464416644,-0.2394397539830532,0.8249362600586353,0.4407022901096989
-9219.898907661438,-1240.0,756.0,-15508.0,-2907.0,1442.0,-1051.0,-0.36864238342680355,-0.2918712860789227,0.6312202356968211,0.616826523060488
-9219.91452741623,-1208.0,-240.0,-16196.0,-2186.0,1235.0,731.0,-0.51827870650646,-0.24167606775675504,0.48033014631072113,0.6650284288665741
-9219.930189609528,-1352.0,-152.0,-16664.0,-1348.0,951.0,2196.0,-0.6942636392434082,-0.1400353166672289,0.3944820873561747,0.5854673279231927
-9219.945837497711,-2476.0,76.0,-16208.0,-1506.0,928.0,1493.0,-0.8045691689471848,-0.04406928671505526,0.27428874857610114,0.5248733492497205
-9219.961441993713,-2412.0,400.0,-16152.0,-1750.0,962.0,484.0,-0.8430118252951071,0.04547683476286895,0.12671858351373516,0.5207737709455373
-9219.977112293243,-2648.0,120.0,-16272.0,-2405.0,1131.0,-1205.0,-0.7667323180924931,0.15282288267366514,-0.05883768593608376,0.6207292853068155
-9219.992904186249,-2652.0,-76.0,-16288.0,-2651.0,1159.0,-1241.0,-0.6346210095599609,0.26419324623850243,-0.2542517448580864,0.6803044561839034
-9220.008575439453,-2872.0,148.0,-16468.0,-2513.0,1113.0,-959.0,-0.47972663190356657,0.3476631121390843,-0.429562594879495,0.6815194026442835
-9220.024166822433,-2932.0,424.0,-16056.0,-2804.0,1417.0,-2193.0,-0.20012936511906762,0.43918532529118304,-0.5589096948039218,0.6743029291943671
-9220.039793014526,-2156.0,364.0,-16328.0,-2079.0,1302.0,-1639.0,0.038296424676603366,0.4638009328148705,-0.6210915293369548,0.6306087461833431
-9220.055427074432,-1796.0,208.0,-16128.0,-1829.0,1142.0,-861.0,0.2171565372477638,0.43281794139645785,-0.6696372334754211,0.5631142366156954
-9220.071057319641,-1444.0,320.0,-16356.0,-1644.0,973.0,-1011.0,0.37900873699089177,0.40587137948152346,-0.6819438183661612,0.4759972995664097
-9220.086662530899,-1388.0,296.0,-16144.0,-1662.0,886.0,-277.0,0.4951630803174435,0.32621145199634827,-0.702417447827846,0.39371225719297887
-9220.102256774902,-1348.0,596.0,-16076.0,-1753.0,683.0,8.0,0.578719479576081,0.223600880625161,-0.7238626713076507,0.30184307716128667
-9220.117835998535,-1852.0,280.0,-16336.0,-1670.0,589.0,820.0,0.6178039787833891,0.07098291104166969,-0.7436110690009817,0.2456058798129255
-9220.13341140747,-1972.0,656.0,-16052.0,-1352.0,513.0,1356.0,0.6209572667524834,-0.09940706092552672,-0.7425200408439154,0.23063889101923793
-9220.14898777008,-2244.0,468.0,-15952.0,-1324.0,400.0,1676.0,0.5908874912830335,-0.28280693538883434,-0.7203214440859506,0.22805531594582362
-9220.164563655853,-2148.0,508.0,-15996.0,-810.0,460.0,2479.0,0.5360966903076541,-0.47707596372080213,-0.6349821068912735,0.2860010269369087
-9220.180167913437,-2096.0,912.0,-16064.0,-901.0,366.0,2176.0,0.45457431104561247,-0.6354650380667971,-0.5383626424236126,0.31577214312671087
-9220.19579410553,-1708.0,1132.0,-16236.0,-709.0,352.0,2247.0,0.361885760567246,-0.7626833250737182,-0.41063804932412956,0.3445710875863455
-9220.211423873901,-1916.0,792.0,-16288.0,-714.0,202.0,2495.0,0.24021866820772436,-0.8589621209557308,-0.253265096285001,0.3746142779066077
-9220.227024793625,-1884.0,976.0,-16168.0,-435.0,91.0,3127.0,0.10334438721959417,-0.9064904949802738,-0.030079549040104327,0.4082770393619617
-9220.242642879486,-2424.0,1004.0,-16140.0,-626.0,50.0,2897.0,-0.04779692431683223,-0.8922751719949021,0.1715959204915541,0.41486782417774365
-9220.258233308792,-2024.0,600.0,-16304.0,-252.0,21.0,3726.0,-0.192618449085155,-0.7951674335898059,0.43025607494051854,0.3814270514882366
-9220.273830413818,-2408.0,896.0,-16088.0,-240.0,-16.0,3088.0,-0.30050773454281315,-0.6514254657463934,0.6148070263878694,0.3276465845406395
-9220.289439439774,-1728.0,852.0,-16320.0,434.0,-113.0,4391.0,-0.3686913090296829,-0.3957694649818087,0.8210776785097695,0.18238611538984867
-9220.305034399033,-1796.0,1072.0,-16100.0,339.0,-92.0,3800.0,-0.3895524228220055,-0.12619469325173224,0.9115701128983209,0.03692883073086574
-9220.320743322372,-2052.0,1424.0,-16184.0,139.0,-56.0,3300.0,-0.3784891920174752,0.12659351762065257,0.9132039234969044,-0.08233229580333856
-9220.336349964142,-2072.0,1196.0,-16176.0,-232.0,58.0,2443.0,-0.35465685351612364,0.32207710977116044,0.8664335779145478,-0.14063323461292565
-9220.351972341537,-1936.0,1360.0,-15952.0,245.0,92.0,1939.0,-0.3395074106859051,0.4556924267608683,0.7946960295132012,-0.21339482411271415
-9220.367572069168,-1996.0,1512.0,-15996.0,-108.0,127.0,822.0,-0.32757014968454895,0.5169559526035219,0.7583322574558321,-0.224469435347819
-9220.383181333542,-2008.0,840.0,-16100.0,-108.0,120.0,919.0,-0.3113377348403642,0.5813723911724525,0.7132917586645733,-0.2372547674296472
-9220.398804187775,-1840.0,952.0,-16176.0,64.0,74.0,1065.0,-0.29559432409251574,0.6447507581487983,0.6531722351434577,-0.2651159871990712
-9220.414425849915,-2256.0,1352.0,-15912.0,46.0,47.0,138.0,-0.297387824761372,0.6525662638470231,0.6431498660623284,-0.2684697427205645
-9220.430018424988,-1960.0,1288.0,-16272.0,-149.0,133.0,-504.0,-0.30758053080125475,0.6306605876853904,0.6712168140390969,-0.23901763274608148
-9220.445591926575,-1664.0,1364.0,-16184.0,-181.0,133.0,-698.0,-0.3190578088377557,0.5962829516070755,0.7084703170358821,-0.20178841919565454
-9220.461168527603,-1872.0,1312.0,-16256.0,-470.0,186.0,-1631.0,-0.33089369593542217,0.5062989484327235,0.787822233425695,-0.11621904029144414
-9220.476799249649,-1688.0,1128.0,-16212.0,-421.0,129.0,-1731.0,-0.3343836976585487,0.39603546798478184,0.8546195927949098,-0.03112559154994253
-9220.492368221283,-1868.0,1076.0,-16016.0,-662.0,169.0,-2349.0,-0.322903521950649,0.2353584853422475,0.9122100525259574,0.09062294941050997
-9220.50799870491,-1876.0,676.0,-16052.0,-570.0,80.0,-1999.0,-0.2966052929131513,0.09019744462013686,0.9313906695430455,0.19079083281976286
-9220.523579597473,-2076.0,560.0,-16360.0,-463.0,39.0,-1225.0,-0.27367578130693854,0.0019467649841615525,0.9263975856776601,0.2586219056513503
-9220.539185285568,-2024.0,948.0,-16192.0,-127.0,46.0,-589.0,-0.2634594159083186,-0.043636632323572226,0.9213755719970429,0.28240402939021025
-9220.554809331894,-2112.0,1280.0,-16224.0,-387.0,80.0,-1025.0,-0.24473582985864756,-0.11861543985970482,0.9020871200900581,0.33507249779400433
-9220.570432901382,-1896.0,848.0,-16332.0,-111.0,83.0,-310.0,-0.24303370483690567,-0.14305326615812233,0.8936009986765865,0.34921001778148963
-9220.5860414505,-1720.0,1220.0,-15920.0,-291.0,41.0,-749.0,-0.22627264242544165,-0.19610260228925008,0.8725020531801284,0.3861147858625114
-9220.601629018784,-1476.0,740.0,-16180.0,-1.0,-87.0,-58.0,-0.21752177252711263,-0.19760942159787184,0.8732951854888352,0.3885747212241664
-9220.617212295532,-1864.0,652.0,-15992.0,101.0,-171.0,211.0,-0.20965313659624876,-0.17764445758375583,0.8834555688584609,0.37946576506728685
-9220.632799386978,-1912.0,676.0,-16104.0,448.0,-275.0,1007.0,-0.21362017549786447,-0.0986638870102662,0.9145742503673285,0.3289160965737709
-9220.648378133774,-2144.0,1184.0,-16328.0,520.0,-248.0,794.0,-0.21115122635655603,-0.0377696171169706,0.9376412254594552,0.27352796557180564
-9220.66399526596,-2332.0,1212.0,-16188.0,515.0,-203.0,641.0,-0.20733477384078575,0.009978292605513939,0.9532860258208053,0.2194504003364854
