programtime,ax,ay,az,gx,gy,gz,q0,q1,q2,q3
-536.1781947612762,4052.0,-1096.0,15744.0,-191.0,24.0,448.0,0.9990950795897643,-0.016738896608272668,0.0017742353184174125,0.03905999704166826
-536.1937968730927,4060.0,-792.0,15624.0,-121.0,-31.0,422.0,0.9967497451237959,-0.027106314609840428,-0.0010536482442237793,0.07585567301987196
-536.2093636989594,4080.0,-1156.0,16004.0,-55.0,-14.0,334.0,0.9939734269140227,-0.03181244361158819,-0.002174342151172745,0.1048812054491321
-536.2249276638031,4100.0,-1508.0,15968.0,-75.0,0.0,346.0,0.9901265610279648,-0.038369388003465545,-0.0022289772927170572,0.13480435776117883
-536.2405090332031,4148.0,-1336.0,15972.0,-92.0,-14.0,404.0,0.9844218314801306,-0.046166333540590763,-0.0034936840571652824,0.16961757433837077
-536.25608253479,4008.0,-1252.0,16080.0,-115.0,-58.0,387.0,0.977597732873216,-0.05519614064295802,-0.00893492912746375,0.20291925926525076
-536.271726846695,4160.0,-1144.0,16380.0,-183.0,-26.0,335.0,0.9702314961470768,-0.07045207390858275,-0.013080345477019978,0.23133580295403078
-536.2873003482819,4236.0,-1084.0,16148.0,-251.0,-254.0,272.0,0.9621779094889695,-0.08665975460046488,-0.03823899289163634,0.255424229169155
-536.3028857707977,4216.0,-1100.0,16184.0,-345.0,47.0,8.0,0.9591270775355274,-0.1164288261968698,-0.0421452137330941,0.25444716254650845
-536.3184540271759,4196.0,-1268.0,16104.0,-415.0,39.0,241.0,0.9489022893123966,-0.15253536520613206,-0.045815374504394546,0.272430466648183
-536.3340344429016,4184.0,-1336.0,16100.0,-434.0,30.0,224.0,0.9371180643026471,-0.18964244977581826,-0.05078742726325334,0.2885586803973598
-536.3496253490448,4260.0,-1272.0,15984.0,-406.0,7.0,187.0,0.9250820248058379,-0.22340531153242693,-0.05743212787941662,0.3016866998186576
-536.3652396202087,4212.0,-1508.0,15860.0,-453.0,74.0,98.0,0.9133518390637073,-0.261923706081564,-0.06153128978815487,0.3056113392013593
-536.380853176117,4156.0,-1256.0,15732.0,-451.0,68.0,49.0,0.9014656195257096,-0.29944269431565496,-0.06704886275533471,0.3052839000624271
-536.3964276313782,4100.0,-1172.0,15952.0,-399.0,-244.0,-81.0,0.8910948502509407,-0.3233213611889482,-0.09897251205687604,0.3026841705678227
-536.4120481014252,4000.0,-1248.0,16068.0,-323.0,-32.0,-180.0,0.8860916128101474,-0.3456062609477158,-0.11504311624549854,0.2866409731803464
-536.4276080131531,3944.0,-1252.0,15984.0,-275.0,-39.0,-306.0,0.8845854402219709,-0.3623442781088937,-0.1340977811451942,0.26121448688957183
-536.4432091712952,3684.0,-1296.0,16176.0,-295.0,-118.0,-399.0,0.8822011756238756,-0.37714958031228457,-0.16238787283584893,0.2304548948362076
-536.4588043689728,3500.0,-1448.0,16500.0,-385.0,-18.0,-618.0,0.8800345864544378,-0.39664800333456607,-0.19144938775556058,0.17764183072319853
-536.4744231700897,3240.0,-1396.0,16680.0,-504.0,61.0,-862.0,0.8737578801358787,-0.4200966000943285,-0.22352658010901216,0.10050811646036664
-536.4900181293488,3120.0,-1196.0,16836.0,-474.0,304.0,-1182.0,0.8671456464125296,-0.4328436588940178,-0.2461812500535778,-0.009979327887840506
-536.5056052207947,3160.0,-1016.0,16152.0,-365.0,569.0,-1417.0,0.8564503638767859,-0.4253670841515965,-0.2538930780135109,-0.14523747062144396
-536.5211901664734,3348.0,-1172.0,15792.0,-177.0,685.0,-1511.0,0.8371710239526393,-0.39210831174809585,-0.2537887661234109,-0.28458216862921004
-536.5367789268494,3760.0,-1448.0,15728.0,-46.0,615.0,-1561.0,0.8019740427266945,-0.3417753063734023,-0.25827925277782643,-0.4163161086608305
-536.5523631572723,3896.0,-1684.0,15684.0,57.0,396.0,-1319.0,0.7592826015913544,-0.29137620150415966,-0.26989889790773797,-0.5155040494757149
-536.5680124759674,4132.0,-1860.0,15380.0,242.0,229.0,-954.0,0.7251778069488419,-0.24146678720364928,-0.2885749747153266,-0.5766588445124764
-536.5836019515991,4240.0,-2124.0,15584.0,493.0,22.0,-634.0,0.7025794479069973,-0.19260806414614326,-0.3243425476745974,-0.6033955292944468
-536.599217414856,4260.0,-2188.0,15764.0,598.0,-135.0,-226.0,0.6958772226925886,-0.1563471192236442,-0.3670816254605834,-0.5971277497297653
-536.614809513092,4340.0,-1996.0,15888.0,568.0,-139.0,8.0,0.698784289895891,-0.12916530496507886,-0.40426015652768355,-0.5758390105161216
-536.6304161548615,4272.0,-1620.0,16200.0,749.0,-11.0,57.0,0.7082879885975619,-0.0858575913749076,-0.44076617903182047,-0.5446850233239467
-536.64599776268,4148.0,-1384.0,16156.0,460.0,157.0,47.0,0.7194591606650211,-0.05173271136261834,-0.45195364859873083,-0.5248239154502681
-536.6615927219391,4348.0,-1264.0,16480.0,356.0,225.0,-93.0,0.7252718902440217,-0.015423568837534254,-0.4540206995162562,-0.5173084216953625
-536.6771724224091,4056.0,-1160.0,16712.0,231.0,324.0,-250.0,0.7266245566864568,0.02366935748207431,-0.44369615847932387,-0.524013581968337
-536.6927764415741,3876.0,-1128.0,16596.0,74.0,294.0,-331.0,0.7222637059082372,0.0545179794954224,-0.4272172141035733,-0.5411546738345866
-536.7083785533905,3812.0,-1212.0,16600.0,-159.0,327.0,-358.0,0.7176881177255195,0.07312684869224276,-0.3967905824923192,-0.5675680252809779
-536.724050283432,3692.0,-1440.0,16468.0,-290.0,347.0,-281.0,0.7169531793269198,0.08168239095909843,-0.3583003569969069,-0.5923909012097632
-536.7396485805511,3640.0,-1524.0,16132.0,-374.0,385.0,-210.0,0.7199760419935055,0.08450984347761573,-0.3127675849472364,-0.6137336744199622
-536.7552592754364,3484.0,-1760.0,15848.0,-259.0,425.0,-111.0,0.7269027979271213,0.09377606759642193,-0.27088875521429234,-0.6240494001361792
-536.7708849906921,3432.0,-1940.0,15696.0,-111.0,446.0,-20.0,0.7367496231043251,0.11121737108660722,-0.2359919477168152,-0.6238096583390181
-536.7864694595337,3496.0,-1884.0,15444.0,105.0,417.0,144.0,0.751647159057863,0.13737581332024898,-0.21594582730865444,-0.6078830758154272
-536.8021492958069,3352.0,-1748.0,15488.0,179.0,227.0,275.0,0.7679800890103313,0.15564520349203115,-0.2135634075326519,-0.5834139392203878
-536.8177709579468,3620.0,-1776.0,15364.0,192.0,-42.0,386.0,0.7837623201797845,0.15881868446316966,-0.23109854549584516,-0.554154051867794
-536.833366394043,3712.0,-1364.0,15988.0,123.0,-228.0,405.0,0.7964266977250872,0.1476667763524081,-0.25788874818716045,-0.5266805785966101
-536.8489661216736,3780.0,-1192.0,16336.0,-251.0,-335.0,408.0,0.8099011319111801,0.10527726519760455,-0.27437572453017045,-0.5076364996235461
-536.8645963668823,3708.0,-1092.0,16524.0,-66.0,-307.0,374.0,0.8190651267910687,0.07778833554138544,-0.2961254016857653,-0.4851711444478905
-536.880188703537,3532.0,-1048.0,16276.0,-61.0,-91.0,181.0,0.8247361322968132,0.06472349725098188,-0.301008120225404,-0.4743577685102924
-536.8958492279053,3496.0,-1124.0,16028.0,43.0,253.0,115.0,0.8357337886282088,0.07509850618248783,-0.2849160558063238,-0.46339194000119066
-536.9114580154419,3572.0,-1300.0,15900.0,172.0,246.0,98.0,0.8444518166290925,0.0949479938130164,-0.274253224295699,-0.4501901562963385
-536.9270930290222,3564.0,-1412.0,16092.0,294.0,-51.0,192.0,0.848021068685174,0.10977395785929056,-0.29081789495183247,-0.42922592794208886
-536.9426896572113,3356.0,-1460.0,16072.0,336.0,-182.0,304.0,0.850892269530574,0.11981877994948882,-0.319304855460758,-0.3995875559920626
-536.9582750797272,3364.0,-1488.0,16236.0,316.0,-205.0,375.0,0.8541329110281906,0.12538538262325605,-0.3489052300707396,-0.364692495881411
-536.9739775657654,3536.0,-1416.0,16272.0,330.0,-143.0,410.0,0.8583481169602637,0.13264666145681173,-0.37394506594538895,-0.3252821251932396
-536.989574432373,3628.0,-1360.0,16168.0,326.0,-63.0,515.0,0.866006454803978,0.13813287781398179,-0.3931364438701837,-0.27639801881666737
-537.0051608085632,3656.0,-1200.0,16136.0,288.0,-256.0,532.0,0.8652720717393193,0.13511730313673775,-0.42496974845510654,-0.22901587097623735
-537.0207612514496,3756.0,-988.0,16140.0,201.0,-26.0,448.0,0.8701999111276011,0.13292444055882505,-0.435651304116725,-0.18785938623618229
-537.0363602638245,3736.0,-780.0,16284.0,168.0,-86.0,337.0,0.8701222159142754,0.1312824656089573,-0.4484099576398205,-0.15678250376084144
-537.0520098209381,3696.0,-748.0,16216.0,199.0,-62.0,201.0,0.8680001252571481,0.13754174986658496,-0.4578169962911673,-0.1343936289566821
-537.0676074028015,3692.0,-756.0,16280.0,139.0,-29.0,27.0,0.8655320353313517,0.1465493289341279,-0.46175325839067766,-0.12712796061337855
-537.0832555294037,3644.0,-880.0,15972.0,136.0,-19.0,-54.0,0.8624680215995194,0.15868039101049244,-0.46379433394471337,-0.12595340816249345
-537.0988495349884,3672.0,-1128.0,16060.0,204.0,-14.0,-174.0,0.8570408937107049,0.18077674777328404,-0.46438582397254746,-0.130944570202086
-537.1144473552704,3604.0,-1248.0,16072.0,231.0,-130.0,-150.0,0.8462284675539397,0.202472636580255,-0.47405858496160763,-0.13479862818941926
-537.1300549507141,3604.0,-1172.0,16368.0,217.0,-155.0,-136.0,0.8342111834178669,0.22212225414602485,-0.4853420696755551,-0.13855136620293437
-537.1456320285797,3532.0,-1252.0,16084.0,218.0,-127.0,-144.0,0.8227151258458915,0.24237597610657885,-0.49413485202434587,-0.1422127136568306
-537.161208152771,3588.0,-1340.0,16272.0,210.0,-78.0,-154.0,0.8128841761189517,0.2629498546844042,-0.4988123348233908,-0.14581819078874045
-537.1768043041229,3572.0,-1532.0,16280.0,181.0,-76.0,-138.0,0.8036043618905614,0.28066422266167357,-0.5031070631714568,-0.1494352925355116
-537.1923880577087,3644.0,-1048.0,16068.0,152.0,-32.0,-124.0,0.7968541215310395,0.2962035139915541,-0.5041004018402131,-0.15221620203705713
-537.2080090045929,3740.0,-1124.0,16296.0,106.0,65.0,-133.0,0.7952210488199698,0.31014544252505,-0.4973705550077936,-0.15509938428584222
-537.2235908508301,3676.0,-1212.0,16168.0,114.0,135.0,-146.0,0.7959742314082148,0.3260486556156349,-0.4853816952356687,-0.15659472224659188
-537.239223241806,3624.0,-1224.0,16148.0,90.0,134.0,-99.0,0.7977417617392379,0.3381664784231486,-0.47431134890919185,-0.15582123970757594
-537.2548205852509,3668.0,-1520.0,16032.0,156.0,48.0,-61.0,0.794317422470198,0.35204708083349545,-0.4711337666802575,-0.1521698364676383
-537.2704269886017,3640.0,-1380.0,15968.0,126.0,-12.0,-67.0,0.7891153103102343,0.36323112341389235,-0.47144539518683215,-0.1519849248267608
-537.2860305309296,3648.0,-1364.0,16004.0,180.0,-95.0,42.0,0.7800432937861597,0.37246133098715434,-0.481535349649512,-0.14466763209660471
-537.3016068935394,3600.0,-1344.0,16108.0,130.0,-122.0,73.0,0.7716165363239249,0.37653698270905767,-0.49369586243724045,-0.13817458860505868
-537.3172051906586,3700.0,-1040.0,16276.0,125.0,-42.0,16.0,0.7659544682507068,0.3836255095178291,-0.4984332482389824,-0.13307711322349838
-537.3327722549438,3724.0,-1224.0,16308.0,100.0,6.0,79.0,0.7638509291369792,0.38681242515459824,-0.501719359894049,-0.12322982475885368
-537.3483724594116,3740.0,-1180.0,16156.0,145.0,24.0,85.0,0.7609508394296722,0.3928666581617263,-0.5044059423604832,-0.11038230921459898
-537.3639860153198,3860.0,-1152.0,16368.0,93.0,71.0,57.0,0.7615009166163126,0.3970873118269864,-0.5024219410463248,-0.10005105663498381
-537.3795940876007,3732.0,-1132.0,16196.0,86.0,79.0,9.0,0.7621363940430281,0.40297277878937,-0.4981219080869759,-0.09292804266557005
-537.3952083587646,3768.0,-1184.0,16188.0,73.0,145.0,-30.0,0.7656628096046119,0.4101605595831413,-0.48787727625975924,-0.08662875192552952
-537.4107978343964,3824.0,-1172.0,16116.0,72.0,134.0,-70.0,0.7682927561528492,0.41881259408433136,-0.47682608766607976,-0.08342142410958822
-537.4263899326324,3664.0,-1228.0,16076.0,62.0,148.0,-2.0,0.7722077167323013,0.42397802977168186,-0.4671520304219251,-0.07554371557371184
-537.4419975280762,3768.0,-1036.0,16332.0,114.0,142.0,-44.0,0.7734982649258679,0.4342209208041105,-0.4565622098120961,-0.06858261196686624
-537.4575896263123,3828.0,-1320.0,15996.0,144.0,156.0,-17.0,0.7741340382494596,0.4453607601772907,-0.4460945030137567,-0.05805151590440592
-537.4732131958008,3772.0,-1240.0,15956.0,97.0,67.0,-118.0,0.7724047631954029,0.45668312190045734,-0.4373522225747918,-0.05961913596485
-537.4888515472412,3792.0,-1248.0,15916.0,61.0,59.0,-109.0,0.7717141723597158,0.4651108753370101,-0.42924607880320015,-0.06226486693534165
-537.5044431686401,3852.0,-1252.0,16008.0,102.0,23.0,-176.0,0.7674684729219143,0.4785048791335292,-0.4209723670217626,-0.06933606507731764
-537.5200705528259,3796.0,-1272.0,16060.0,126.0,-2.0,-127.0,0.7613833369203654,0.49142124811148397,-0.4164514325928623,-0.07327192815746741
-537.5356619358063,3868.0,-1324.0,16020.0,172.0,-30.0,-105.0,0.7522369438662049,0.5062795982487169,-0.4149181394675604,-0.07525613742897036
-537.5512821674347,3880.0,-1328.0,16184.0,151.0,7.0,-109.0,0.7451145619669128,0.520004514545862,-0.4105248557962873,-0.07660898883431051
-537.5668857097626,3840.0,-1376.0,16020.0,170.0,58.0,-76.0,0.7389721965471431,0.5339822464066118,-0.4043303770272122,-0.07280109522439512
-537.5824763774872,3784.0,-1076.0,16208.0,156.0,58.0,-98.0,0.7331318427461425,0.5476835134180201,-0.39690716066465215,-0.07088847646030126
-537.5980494022369,3780.0,-1268.0,16312.0,135.0,9.0,-92.0,0.726456254969558,0.5593996021275177,-0.39268338339493936,-0.07164604078860558
-537.613617181778,3812.0,-1324.0,16036.0,144.0,11.0,-22.0,0.7197148544032733,0.569199911313706,-0.3917389779504258,-0.0675467428237691
-537.6291923522949,3752.0,-1412.0,15968.0,116.0,51.0,38.0,0.7159793569321458,0.575344859026605,-0.3910413922718488,-0.058638580889897846
-537.6447644233704,3804.0,-1380.0,16008.0,109.0,63.0,254.0,0.7138439927171695,0.5735289983773952,-0.40025739555683415,-0.035850514415991915
-537.660318851471,3812.0,-1360.0,16084.0,81.0,76.0,-45.0,0.7123711734042961,0.5802515931692594,-0.39346101949371537,-0.03199728216721775
-537.6760056018829,3804.0,-1348.0,16048.0,62.0,-242.0,-50.0,0.7007140560896294,0.584901960057281,-0.40601261890754176,-0.0452024557674691
-537.6916120052338,3784.0,-1456.0,16376.0,87.0,-253.0,-30.0,0.6871044074996634,0.5900287057096295,-0.4201466022392677,-0.05683741953989941
-537.7072701454163,3800.0,-1336.0,16048.0,99.0,-18.0,-44.0,0.6812013132625717,0.5973704743024831,-0.4193952033201518,-0.05675341992358181
-537.7228631973267,3860.0,-1360.0,16024.0,97.0,-86.0,-10.0,0.6730070657440123,0.6029483144936534,-0.4244060669096361,-0.058260706125059895
-537.7384576797485,3604.0,-1304.0,16160.0,133.0,-72.0,-247.0,0.6619767585837111,0.6192614077078562,-0.41614427224888534,-0.07159626172596685
-537.7540512084961,3816.0,-1392.0,16268.0,145.0,-47.0,106.0,0.6531110312774874,0.6233285076443151,-0.4254097676510914,-0.06272226055087876
-537.7696757316589,3832.0,-1356.0,16376.0,214.0,255.0,99.0,0.6512807228843953,0.6328748124625574,-0.41720748572999894,-0.03522507062469982
-537.7852802276611,3828.0,-1384.0,16188.0,291.0,74.0,105.0,0.6380780716384813,0.6454918040266479,-0.4195058517147561,-0.014544614316574528
-537.8008930683136,3812.0,-1272.0,16028.0,333.0,22.0,128.0,0.6200815613177003,0.6589820194314348,-0.4256819209528757,0.006038009087499023
-537.8164970874786,3768.0,-1224.0,16372.0,393.0,-59.0,224.0,0.594791214446818,0.6713579570920368,-0.4411792450913717,0.029373089158170204
-537.8320748806,3568.0,-1156.0,16552.0,496.0,-127.0,223.0,0.5596916188801317,0.6879671377514476,-0.45900162331197325,0.052573937710537505
-537.847633600235,3712.0,-1064.0,16620.0,676.0,-243.0,333.0,0.5067131987302356,0.7070250060221261,-0.4865886747657463,0.08117164949475866
-537.8632695674896,3512.0,-776.0,16456.0,954.0,112.0,523.0,0.44693762853271507,0.7228814293423238,-0.5048391386275303,0.151084874899393
-537.8788721561432,3420.0,-916.0,16732.0,1130.0,342.0,697.0,0.3788807139756019,0.7265166737966205,-0.5168690130754527,0.2479301324874418
-537.8944728374481,3380.0,-1040.0,16768.0,1328.0,559.0,1030.0,0.294154933457366,0.7034696788609147,-0.5286601967979043,0.3729901907123232
-537.9100592136383,3312.0,-964.0,16824.0,1400.0,773.0,1286.0,0.19886678587312673,0.6445967910797742,-0.5336734448120602,0.5100388541166048
-537.9257440567017,3240.0,-984.0,16956.0,1479.0,1529.0,1473.0,0.11834501049087351,0.520406386519021,-0.5112359760273785,0.6736537895517726
-537.941394329071,3532.0,-1316.0,16808.0,1497.0,1204.0,1561.0,0.012024470798489338,0.38641088360194353,-0.4707278319187775,0.7930683131944112
-537.9569985866547,4160.0,-1276.0,16600.0,1534.0,1331.0,1448.0,-0.0832935582401201,0.2308890010735907,-0.40240763743740565,0.8819413504712118
-537.9726731777191,4268.0,-264.0,15928.0,1471.0,1582.0,1308.0,-0.1543316132129694,0.05119104039555617,-0.3191553223888329,0.9336493510612981
-537.9888954162598,4148.0,764.0,15312.0,1317.0,1537.0,1212.0,-0.21170316750746535,-0.12292191793071372,-0.23280906243032828,0.941207687712894
-538.0047388076782,4436.0,1056.0,14444.0,850.0,1386.0,1147.0,-0.26468638563492536,-0.27154609063553536,-0.173486239324639,0.9089039347945805
-538.0203454494476,4408.0,964.0,13940.0,151.0,1122.0,1166.0,-0.3333123023436565,-0.3777121167074162,-0.1580828254211733,0.8492622011520546
-538.035970211029,4116.0,528.0,13976.0,-648.0,695.0,1228.0,-0.43221011203315995,-0.4232624620668666,-0.1840816190419242,0.7746981765773568
-538.0515542030334,4160.0,52.0,13984.0,-1388.0,163.0,1342.0,-0.5636681160630048,-0.39766083599431556,-0.23114320583788664,0.6860881378112214
-538.0671310424805,4276.0,-620.0,14680.0,-1842.0,-581.0,1536.0,-0.7149687074574328,-0.29625933100129637,-0.25363272021345795,0.5802763129651544
-538.0828256607056,4460.0,-1272.0,15820.0,-1996.0,-1236.0,1680.0,-0.8524364952604646,-0.14167602714232355,-0.22690984445570392,0.4492124746379061
-538.0984745025635,4416.0,-1664.0,16520.0,-2047.0,-1387.0,1833.0,-0.9436536530320412,0.02788276114243217,-0.17488252938540955,0.27956472536090754
-538.114084482193,3780.0,-2044.0,17368.0,-1118.0,-1504.0,1983.0,-0.9847512297747267,0.12301667260715603,-0.08056558375549153,0.09295751950199586
-538.1296873092651,3488.0,-1620.0,17596.0,-287.0,-1576.0,2180.0,-0.9834115212230936,0.14114283088859086,0.028654605631046597,-0.110269645825879
-538.1453473567963,3368.0,-1260.0,17912.0,717.0,-1325.0,2450.0,-0.9363219092296717,0.07051766181816244,0.10227985606929088,-0.32843168652041915
-538.1609227657318,3152.0,-900.0,16968.0,1373.0,-401.0,2429.0,-0.84634982362814,-0.030887905473367144,0.0783768575114402,-0.5259229806223684
-538.1765429973602,2392.0,-604.0,16012.0,1738.0,478.0,2474.0,-0.7066169216177742,-0.11606545679592424,-0.029198869854243678,-0.6974014352017126
-538.1921257972717,2092.0,-360.0,15272.0,1728.0,1126.0,2113.0,-0.5400265677692283,-0.154234392713585,-0.1764095996743974,-0.8083704047962033
-538.2077417373657,1892.0,-180.0,14148.0,1591.0,1198.0,1775.0,-0.365197483980573,-0.16743520121323213,-0.31261601609831974,-0.860736590117882
-538.2233154773712,1924.0,-232.0,13784.0,1147.0,724.0,1526.0,-0.21073643881968634,-0.18821242796844712,-0.3931421941726638,-0.8749888287703577
-538.2388870716095,2376.0,-412.0,13580.0,703.0,-259.0,933.0,-0.13608033599638983,-0.25152851762177175,-0.4242288774990736,-0.859212084688047
-538.2544577121735,2676.0,-932.0,14804.0,410.0,-1923.0,881.0,-0.1299304953059399,-0.42572761298789447,-0.4055080399484341,-0.7983967030658141
-538.2700235843658,3260.0,-1348.0,16276.0,357.0,-3237.0,867.0,-0.16387475720557765,-0.6581073668684485,-0.3466496851662536,-0.647976661152566
-538.28559923172,3676.0,-1584.0,18132.0,396.0,-3154.0,591.0,-0.19550953999625356,-0.82767401022915,-0.2790270932123083,-0.4459547441334605
-538.3011541366577,4272.0,-1656.0,18924.0,476.0,-1924.0,13.0,-0.20445617584230946,-0.8976503527773244,-0.2598987188922492,-0.291331721988615
-538.3167455196381,4784.0,-1576.0,18532.0,455.0,-30.0,-597.0,-0.18428887656769224,-0.8910570492542578,-0.3170207737314314,-0.26749350266957417
-538.3323173522949,5024.0,-1576.0,17772.0,447.0,1269.0,-721.0,-0.1300996735217332,-0.8412087582386856,-0.40040135594374343,-0.3392943473895179
-538.3479521274567,5068.0,-1980.0,16820.0,351.0,1557.0,-648.0,-0.0683269180355686,-0.767773745472424,-0.47074907173178493,-0.4292437763074369
-538.3635332584381,5248.0,-2700.0,16332.0,279.0,1193.0,-317.0,-0.012388609270904651,-0.7073768383153921,-0.5064492696903063,-0.49292359266463215
-538.3791432380676,5160.0,-2912.0,16448.0,1.0,407.0,213.0,0.014847692320388486,-0.6986885082043941,-0.4933396706452285,-0.5179091463794927
-538.3947305679321,4992.0,-2856.0,16252.0,-498.0,-306.0,713.0,0.0035513396205037076,-0.7414418484386954,-0.42631044007789487,-0.5181802601907006
-538.4103050231934,4684.0,-2848.0,15408.0,-965.0,-1225.0,1248.0,-0.047299186036693835,-0.8310238068443424,-0.29773239460485373,-0.46745870476552603
-538.4259352684021,4276.0,-2428.0,14932.0,-1088.0,-1781.0,1439.0,-0.11109207642582038,-0.9144540987794729,-0.13822132076337096,-0.3637679456291482
-538.4415149688721,4228.0,-2204.0,14964.0,-995.0,-1734.0,1507.0,-0.1598166097822079,-0.9554782466825555,0.02979988294522764,-0.2462355342565362
-538.457132101059,4256.0,-1756.0,14976.0,-841.0,-1463.0,1547.0,-0.18917980869842238,-0.9523239268533794,0.19350089675367757,-0.14088130209119323
-538.4727663993835,4552.0,-1740.0,14912.0,-565.0,-1210.0,1572.0,-0.19329541572760384,-0.9165708692994541,0.34556420538544086,-0.055857889028003045
-538.4883496761322,4548.0,-2216.0,15060.0,-226.0,-1271.0,1862.0,-0.1608697993418247,-0.8463826351511097,0.5072719427080006,0.02079708430611146
-538.5039536952972,4508.0,-2580.0,14448.0,124.0,-1711.0,2167.0,-0.07767289183401023,-0.7281610081437245,0.6723460503452746,0.1081631022038762
-538.5195269584656,4760.0,-2852.0,14312.0,387.0,-2395.0,2559.0,0.06051243812217089,-0.5332825738260133,0.8170720543811948,0.2105735007908327
-538.5351467132568,5172.0,-2708.0,14560.0,570.0,-2920.0,3023.0,0.2248304646427673,-0.24473675917062415,0.8935707466121412,0.3018054036597058
-538.5507860183716,5192.0,-2536.0,14560.0,833.0,-2800.0,3072.0,0.35648937111015894,0.07973197865249211,0.8686079151698168,0.334781166689505
-538.566385269165,5640.0,-2396.0,14716.0,964.0,-2783.0,3410.0,0.4291648788768574,0.41842436591778104,0.7318278651517893,0.3242938983889295
-538.5820114612579,6128.0,-2384.0,14632.0,963.0,-2753.0,3492.0,0.43777687075446936,0.7021577823129704,0.49104404425276726,0.27239971874736274
-538.5975978374481,6136.0,-2332.0,14812.0,995.0,-2799.0,3520.0,0.38328490054560194,0.8884758161909079,0.17808702769841153,0.17885306713387247
-538.6131799221039,6176.0,-2052.0,14924.0,1209.0,-3022.0,3633.0,0.25745006231717954,0.9500303965810694,-0.171080782169132,0.04350950421798019
-538.6287686824799,6052.0,-2480.0,15464.0,1445.0,-2844.0,3897.0,0.07357460305915665,0.8560290701764329,-0.5059712901381107,-0.0761187385177598
-538.6443524360657,6092.0,-2616.0,16068.0,1596.0,-2626.0,4057.0,-0.12310148160067466,0.6119602535879887,-0.7645553339553962,-0.16064188300874696
-538.6599721908569,6056.0,-3028.0,16160.0,1781.0,-1927.0,4152.0,-0.26528215720662884,0.26532599232755455,-0.9104655576285621,-0.17401138823452716
-538.675568819046,5892.0,-2680.0,16000.0,2032.0,-1251.0,4339.0,-0.3174910824726563,-0.13364320066808325,-0.9297071927680153,-0.13032054013449954
-538.6911528110504,5960.0,-2412.0,15844.0,2236.0,-899.0,4427.0,-0.287432536686384,-0.5172736348839406,-0.8041677336980037,-0.05589972796895176
-538.7067258358002,6132.0,-2208.0,15628.0,2440.0,-491.0,4461.0,-0.1734998722481705,-0.8165468261496435,-0.5500927194323454,0.02338963578894085
-538.7222995758057,6732.0,-1912.0,15644.0,2506.0,-444.0,4501.0,-0.023135917785626552,-0.9750136500388643,-0.19816268491902986,0.0976967852684466
-538.737913608551,5944.0,-2080.0,15280.0,2671.0,-468.0,4178.0,0.14717806036067346,-0.9617151294661501,0.16614154913621873,0.16074704959965333
-538.7535333633423,5964.0,-1872.0,15012.0,3034.0,-702.0,4538.0,0.31405441742197093,-0.7635124327745739,0.5233935523482257,0.21089755156640183
-538.7691595554352,5016.0,-1672.0,15648.0,2506.0,-502.0,4413.0,0.3862699091818598,-0.4420990561736617,0.776418826508581,0.22916759726024402
-538.7847735881805,5024.0,-1820.0,15000.0,2490.0,78.0,4239.0,0.360520222740521,-0.06651405208036422,0.9119796589702286,0.18410364335211074
-538.8003649711609,5096.0,-1780.0,15516.0,2524.0,448.0,4343.0,0.2468833298666536,0.3216827570429426,0.9077720367967813,0.10732546046967383
-538.8159582614899,5196.0,-1592.0,15372.0,2445.0,486.0,4197.0,0.09236667797079488,0.646189822322471,0.7573916961926389,0.016276635583869225
-538.8315451145172,5072.0,-1732.0,15956.0,2626.0,670.0,3772.0,-0.09770585192070105,0.8486971113974201,0.5131715350532694,-0.08259391755568998
-538.8471276760101,5128.0,-1360.0,16060.0,2719.0,1100.0,3362.0,-0.3021131316662392,0.9169438073632133,0.21907490902303262,-0.14123701373797823
-538.8627302646637,5084.0,-1524.0,15940.0,2654.0,2038.0,2959.0,-0.48176919605642726,0.8651866264013883,-0.09711777708619185,-0.09959257302211241
-538.8783037662506,5132.0,-1524.0,15668.0,2582.0,2122.0,2798.0,-0.5930563070976809,0.7021690450443565,-0.3926410469690174,-0.03280025957567572
-538.8939065933228,5144.0,-1644.0,15496.0,2539.0,2170.0,2789.0,-0.6229777528195298,0.4499353377249464,-0.6386317936531688,0.04007921523188517
-538.909502029419,5212.0,-1980.0,15104.0,2593.0,2304.0,2829.0,-0.5647785393533965,0.13331548642998803,-0.8065258580335083,0.11299656139499584
-538.9251835346222,5292.0,-2172.0,15376.0,2454.0,2699.0,2762.0,-0.3999121968418162,-0.19385728312626738,-0.8798984782329401,0.1681316644758242
-538.940776348114,5360.0,-2592.0,15504.0,2556.0,2929.0,2419.0,-0.15527808292815512,-0.4753130920974579,-0.8391432180644578,0.21402065559038055
-538.956353187561,4888.0,-2324.0,15992.0,2171.0,2659.0,2257.0,0.08228489296498866,-0.6774929858383577,-0.697477276908067,0.21853580650885307
-538.9719920158386,4380.0,-1660.0,16400.0,1918.0,1877.0,1988.0,0.26123453023239634,-0.7877546400122961,-0.5086494085536589,0.22907406341916994
-538.9875915050507,3640.0,-552.0,17280.0,1563.0,1328.0,1546.0,0.3872064528833171,-0.8267610987318154,-0.3325328840475732,0.23655682086189
-539.0032413005829,2880.0,872.0,18240.0,900.0,1336.0,841.0,0.4677889545747594,-0.8378275624739638,-0.2055160066453189,0.19230611157566244
-539.0188388824463,1576.0,2068.0,18772.0,-195.0,1947.0,-81.0,0.48288160990463413,-0.8644410411830595,-0.13326748440900738,0.0425066434049014
-539.0344612598419,776.0,2648.0,18756.0,-1628.0,2805.0,-1277.0,0.3802602650690735,-0.8883749487770284,-0.11234528913449687,-0.23145327218316958
-539.0500519275665,2372.0,2932.0,17864.0,-2872.0,3845.0,-1802.0,0.1450238765372742,-0.810824893947552,-0.060639235304470906,-0.5637853755913961
-539.0656309127808,4420.0,1812.0,16332.0,-3145.0,5133.0,-2503.0,-0.15085381778666304,-0.5081457661347668,-0.015681955425484197,-0.8478119380455387
-539.0812177658081,5344.0,-936.0,15888.0,-2224.0,5344.0,-2380.0,-0.36707579602402507,-0.07014775713649869,-0.02368532970053735,-0.9272398057131844
-539.0967864990234,5628.0,-3492.0,16588.0,-386.0,4481.0,-1785.0,-0.46487614160675056,0.2841384243550836,-0.1350633729298696,-0.8275949577315209
-539.1123650074005,4888.0,-4656.0,18524.0,717.0,2897.0,-610.0,-0.4761238344701811,0.4555173180187642,-0.27940428415485324,-0.6983862206761512
-539.1279668807983,2788.0,-4228.0,19732.0,544.0,1899.0,-123.0,-0.45233058544404203,0.5435188179637979,-0.38085122089138795,-0.5957656280255058
-539.1434717178345,2616.0,-1500.0,19228.0,305.0,2044.0,172.0,-0.38374524814453403,0.6218776123238812,-0.47775442464293055,-0.48760489081934033
-539.1590278148651,2752.0,680.0,18420.0,-113.0,2781.0,-102.0,-0.25849911138847076,0.727071895051469,-0.5446741320199788,-0.3284429307290986
-539.1746511459351,3008.0,1284.0,17372.0,-491.0,3379.0,-868.0,-0.08754443045080103,0.8375792279559631,-0.5273728722037221,-0.11258269519484179
-539.1902327537537,2492.0,720.0,16732.0,-592.0,3107.0,-1585.0,0.07949143122179979,0.9035025413022127,-0.41028891874307666,0.09501196440128026
-539.2058119773865,1968.0,-608.0,16048.0,-181.0,2518.0,-1568.0,0.19065927431395335,0.9074727244983174,-0.26197235356675524,0.26741873789316445
-539.2213807106018,884.0,-1768.0,16364.0,357.0,1523.0,-1245.0,0.2229236088473462,0.8928130093939869,-0.1277310220746468,0.3699659185318212
-539.2369627952576,472.0,-1808.0,16896.0,942.0,1015.0,-196.0,0.16594772893714446,0.8740229462115705,-0.061821195767664004,0.45246367866394127
-539.2525365352631,152.0,-852.0,16924.0,1338.0,809.0,475.0,0.048992493753545,0.850236529048235,-0.03315910247586243,0.5230660131864946
-539.2681038379669,500.0,688.0,16808.0,1390.0,1120.0,916.0,-0.0913541336905824,0.7903012348465217,-0.03238943179175241,0.605003557977896
-539.2837421894073,684.0,1576.0,16912.0,1107.0,1680.0,624.0,-0.19269935023178955,0.679505724857049,-0.02985989447092529,0.7072816391006682
-539.2993297576904,672.0,1980.0,16892.0,722.0,2303.0,22.0,-0.2259283145160489,0.5137085210979595,-0.02476390024925829,0.8273129403652099
-539.3148729801178,404.0,1728.0,15948.0,449.0,1975.0,-343.0,-0.21362341706820315,0.3570835856867469,-0.01562687977680168,0.909182131996467
-539.330488204956,-12.0,1096.0,15340.0,415.0,1371.0,-409.0,-0.19063216531392946,0.23884421824914293,0.004487500472793502,0.9521516052059069
-539.3460438251495,-232.0,740.0,14940.0,528.0,790.0,-323.0,-0.17444130968504343,0.16336519060558022,0.041815642069660194,0.9701203513235208
-539.3616092205048,-232.0,636.0,15240.0,585.0,377.0,-386.0,-0.15111322400518049,0.12053305853067373,0.09085136621544557,0.976925076241156
-539.3772170543671,-288.0,768.0,15472.0,629.0,170.0,-427.0,-0.12238784229425795,0.09386198347293598,0.14625184131647978,0.9771497034889901
-539.3927986621857,-264.0,928.0,15688.0,854.0,195.0,-407.0,-0.09681867728961731,0.062488552884911966,0.21932980928084528,0.9688218408185617
-539.4083728790283,-480.0,1248.0,15984.0,1211.0,350.0,-223.0,-0.09070165168079351,0.018159278373932806,0.31775122209654977,0.9436512130270714
-539.4239933490753,-364.0,924.0,16252.0,1445.0,928.0,-132.0,-0.10666521632067227,-0.07259062961457523,0.42461200725472403,0.8961349091596298
-539.4395742416382,-316.0,704.0,16444.0,1377.0,1361.0,-75.0,-0.14053466002237733,-0.19189755825210314,0.5117091048698155,0.8255780571591084
-539.4551560878754,-332.0,728.0,15996.0,1040.0,1352.0,52.0,-0.1852282375347099,-0.2964415188840682,0.5645650621738957,0.7477159998783477
-539.4707295894623,-572.0,1028.0,15300.0,686.0,911.0,187.0,-0.22347081073689418,-0.3559160171029876,0.5963100396752652,0.6839582751167096
-539.4863271713257,-564.0,1200.0,15028.0,469.0,490.0,358.0,-0.2552420758456309,-0.3747928154477835,0.6243844134846774,0.6360235313289376
-539.5019733905792,-464.0,1020.0,15084.0,338.0,-176.0,424.0,-0.2578509635317888,-0.3489626099444795,0.6600430963918721,0.6132545053824675
-539.5175542831421,-328.0,968.0,15536.0,197.0,-199.0,267.0,-0.2545713677247373,-0.32713253320296726,0.6827317223612033,0.6017101625672205
-539.5331506729126,-132.0,1092.0,16124.0,66.0,-38.0,224.0,-0.26217119650136245,-0.3131491312253001,0.6932123428022261,0.5938522822424216
-539.5487382411957,200.0,876.0,16356.0,-89.0,62.0,118.0,-0.27448772009253974,-0.307118943184622,0.6902588824015955,0.594875719391253
-539.5643179416656,356.0,688.0,16476.0,-167.0,-212.0,253.0,-0.27922701098861885,-0.2766821225881674,0.6930072567398677,0.6043345277909836
-539.5799236297607,748.0,724.0,16880.0,-78.0,-494.0,73.0,-0.2548764287680577,-0.24402937612160083,0.7019298591991532,0.6186939004166766
-539.5954875946045,824.0,908.0,16952.0,21.0,-669.0,205.0,-0.22413451787871214,-0.1954057555095109,0.7208847806453069,0.626023515247632
-539.6110827922821,1020.0,980.0,17264.0,84.0,-567.0,325.0,-0.20448421356846425,-0.14534384185983298,0.7408017301085491,0.6231164984999922
-539.6266565322876,816.0,916.0,17272.0,74.0,-342.0,240.0,-0.1943864889297735,-0.1124446192982463,0.7533746115993295,0.6180588929139254
-539.6422281265259,964.0,716.0,17292.0,100.0,-183.0,81.0,-0.18573997013997695,-0.09890582629169883,0.7624417085381234,0.6118831114677247
-539.6577851772308,1212.0,600.0,17092.0,109.0,-165.0,-134.0,-0.16665897930679086,-0.10074073554982714,0.7695345677801448,0.608187995449371
-539.6733479499817,1464.0,440.0,17100.0,279.0,-430.0,-288.0,-0.11990650256410339,-0.10116751442240275,0.7869590501780998,0.5967269208031601
-539.6889531612396,1548.0,300.0,17144.0,466.0,-571.0,-431.0,-0.053992426462123204,-0.10560154627670079,0.8110873177566743,0.572774383403261
-539.7045319080353,1412.0,56.0,17084.0,624.0,-763.0,-326.0,0.02197603469366648,-0.09308012706880318,0.8393815750356937,0.5350623471471304
-539.7201089859009,1440.0,-96.0,16752.0,668.0,-199.0,-175.0,0.05005642778988868,-0.09512940826734251,0.867027358809451,0.4865267811698843
-539.7357401847839,1456.0,-232.0,16520.0,631.0,26.0,-31.0,0.0545626243113335,-0.09566872366462674,0.8922871722151805,0.43782875378494585
-539.751303434372,1616.0,-196.0,16304.0,539.0,141.0,47.0,0.04623026628984364,-0.09470954503821907,0.9128356602582497,0.39449197953609794
-539.7668545246124,1728.0,-180.0,16100.0,447.0,25.0,33.0,0.04675986957919291,-0.09106066796775669,0.9278669149939789,0.35858675018154146
-539.7824928760529,1780.0,-164.0,15988.0,465.0,-114.0,19.0,0.05904189255164971,-0.08397623891890334,0.9412663799356712,0.3216825270725024
-539.7980616092682,1840.0,-392.0,15792.0,529.0,-291.0,231.0,0.08021641807265034,-0.054006936917287564,0.9547813291092363,0.28114265172827463
-539.8136172294617,1812.0,-340.0,16124.0,585.0,-422.0,-59.0,0.11936118818249679,-0.0443794238034668,0.963972362842727,0.23353941246381624
-539.8291623592377,1836.0,-348.0,15916.0,575.0,-480.0,55.0,0.16052524526566628,-0.02392037784250566,0.9688178352349851,0.1872203602359171
-539.8447496891022,1932.0,-344.0,16384.0,592.0,-407.0,80.0,0.19450526799243678,-0.0022008805957815076,0.971018052779697,0.138876916813842
-539.8603174686432,1856.0,-172.0,16564.0,450.0,-279.0,147.0,0.21623339242530215,0.02125943884913744,0.9706409599967739,0.10318567263242576
-539.8759241104126,1840.0,-68.0,16708.0,275.0,-153.0,187.0,0.22691348509010636,0.04365195716012122,0.9693804092408973,0.08310474776030194
-539.8915274143219,1920.0,-220.0,16736.0,180.0,-71.0,82.0,0.2316299810514666,0.0546627001543158,0.9687966909253952,0.06922797658418774
-539.9071028232574,1996.0,-204.0,16748.0,196.0,-104.0,4.0,0.2394495208482998,0.059581629641456794,0.967669965216522,0.05223786742051134
-539.922798871994,2212.0,-228.0,16888.0,314.0,-136.0,-83.0,0.24959414465320673,0.05972582737991721,0.9662267710979111,0.023268332822177194
-539.9384436607361,2120.0,-64.0,17268.0,454.0,-51.0,-231.0,0.25177799143911944,0.050186939507192316,0.9662696494748714,-0.020299720034853908
-539.9540312290192,1980.0,-76.0,17316.0,485.0,111.0,-349.0,0.23936751475613754,0.03156009997321257,0.9680093381391137,-0.06830134877603608
-539.9696092605591,1652.0,-168.0,17128.0,450.0,371.0,-231.0,0.20512439418313824,0.02361873371636044,0.9722503126285845,-0.10997939771728132
-539.985253572464,1436.0,-488.0,16276.0,342.0,671.0,-148.0,0.14574856826240737,0.02356925021541837,0.9790851031843757,-0.13997930567116654
-540.0008871555328,1252.0,-644.0,15924.0,180.0,760.0,19.0,0.08048411688810604,0.03668340168200554,0.9842243500279741,-0.15322879553722937
-540.0164811611176,1432.0,-536.0,15604.0,49.0,421.0,73.0,0.045105891554821614,0.048895006944651216,0.9855941096692076,-0.15549594151709972
-540.0320792198181,1680.0,-492.0,15908.0,83.0,-81.0,147.0,0.053707382627526085,0.06076001713885292,0.983385358637174,-0.1624098943618385
-540.0476493835449,1872.0,-508.0,16192.0,71.0,-420.0,105.0,0.09080673093184975,0.06410299916808641,0.9791301755174141,-0.17014418152368557
-540.0632569789886,1940.0,92.0,16892.0,104.0,-263.0,252.0,0.11638898264948441,0.082513398421246,0.973552981508997,-0.17843692441234582
-540.0788457393646,1992.0,292.0,16464.0,100.0,197.0,-120.0,0.0970431340361657,0.07637921433881564,0.9746205560838966,-0.18671801576746713
-540.0944209098816,2036.0,100.0,16008.0,164.0,449.0,-263.0,0.053407078031907,0.06263772732628357,0.9763917052706571,-0.1997083799196971
-540.1100227832794,1920.0,-208.0,15880.0,186.0,440.0,-320.0,0.009295159473402217,0.04384297394753545,0.9757147503401306,-0.21441109955992588
-540.1255934238434,2072.0,-576.0,16120.0,242.0,206.0,-504.0,-0.01859470896884475,0.004957322670364384,0.9719583455214965,-0.23436432390920967
-540.1411483287811,2204.0,-704.0,16504.0,16.0,-107.0,-203.0,-0.013687649569795589,-0.014481487835319383,0.9716863765454402,-0.23543262389763045
-540.1567208766937,2320.0,-520.0,16660.0,275.0,-189.0,-114.0,0.00033462126603242266,-0.02835346989675868,0.9656479219267192,-0.25830226412486307
-540.1723067760468,2452.0,-308.0,16836.0,257.0,-105.0,-246.0,0.004260481569356655,-0.05142634374492467,0.9587257631297804,-0.2796106052656914
-540.1879365444183,2416.0,-156.0,16700.0,281.0,-80.0,83.0,0.01422671045903857,-0.04631459557196845,0.951860572968175,-0.30267806094135274
-540.2035148143768,2292.0,-184.0,16624.0,505.0,-105.0,76.0,0.026963894234499873,-0.04210600647359344,0.9377054275736904,-0.34381472296194476
-540.2190887928009,2228.0,-300.0,16812.0,233.0,-174.0,74.0,0.04426214255813841,-0.04071173625278457,0.9302337011613552,-0.3620064619465972
-540.2346603870392,2212.0,-388.0,16684.0,245.0,-75.0,47.0,0.052690469708857726,-0.038312144512777306,0.9221054752928088,-0.3814149792807241
-540.250226020813,2204.0,-448.0,16696.0,295.0,-108.0,44.0,0.06380798132114002,-0.036998941212782174,0.9115563005184187,-0.4045055387186047
-540.2658064365387,2048.0,-428.0,16608.0,382.0,-105.0,133.0,0.07804075315122526,-0.027980575548500426,0.8972831953870963,-0.43360073283550415
-540.28142786026,1956.0,-288.0,16432.0,394.0,-139.0,244.0,0.09903968947305239,-0.01143967578628172,0.8811964412025287,-0.46211806471829725
-540.2969973087311,1696.0,-176.0,16404.0,336.0,-231.0,354.0,0.1312854071217252,0.00936264114604567,0.8649959770628732,-0.48420908964278897
-540.312557220459,1572.0,-84.0,16380.0,1.0,-189.0,370.0,0.1611014474258506,0.029298997034891344,0.8618733704051392,-0.4799606085883831
-540.3281054496765,1588.0,-60.0,16276.0,274.0,-88.0,427.0,0.18474175295803122,0.06152255803851004,0.8471610081299,-0.49437201161748984
-540.3437101840973,1656.0,64.0,16208.0,282.0,14.0,468.0,0.20217870120583067,0.10116006481917074,0.831706528007547,-0.5071041957370659
-540.3592779636383,1736.0,88.0,16256.0,231.0,46.0,307.0,0.21029150327257717,0.12947646889094105,0.8190609600658345,-0.5178344053371953
-540.374861240387,1772.0,152.0,16200.0,204.0,-85.0,291.0,0.2271253955542253,0.15009437765519335,0.8045247535322,-0.527850029311915
-540.3904695510864,1704.0,208.0,16280.0,201.0,-204.0,204.0,0.24812815158128168,0.15891518824965037,0.7881145324624129,-0.5404200838773361
-540.4060311317444,1704.0,236.0,16388.0,158.0,-273.0,100.0,0.2693526977439397,0.15625477875607927,0.7729732902894171,-0.5527620291166018
-540.4216079711914,1652.0,204.0,16460.0,127.0,-117.0,141.0,0.28229828442151533,0.1630590004318806,0.7619572499001814,-0.5595896624450613
-540.4371733665466,1464.0,148.0,16192.0,54.0,51.0,54.0,0.2808023589048201,0.17044676267691297,0.7597113446702453,-0.5611921320775768
-540.4527401924133,1344.0,32.0,16080.0,-22.0,118.0,38.0,0.2751856120410329,0.17817634751684552,0.7629986035420808,-0.5570989132137963
-540.4683046340942,1060.0,44.0,15948.0,14.0,61.0,-39.0,0.26903973848256146,0.17885744593295175,0.7643031318062171,-0.558093501003895
-540.48393201828,1424.0,-32.0,16164.0,73.0,-154.0,-114.0,0.2726106885531908,0.16541491474592374,0.758717464006707,-0.5680397242071943
-540.4995169639587,1584.0,328.0,16700.0,136.0,-280.0,-173.0,0.2805114036562546,0.14321888686959894,0.7473730633294059,-0.585008723928328
-540.5150804519653,1752.0,496.0,17276.0,226.0,-158.0,-512.0,0.26154499463881353,0.10712244652598522,0.7373341453321975,-0.6135612075065603
-540.5306353569031,1660.0,448.0,17396.0,246.0,228.0,-360.0,0.2251122094938744,0.10166711144319211,0.7319694412772454,-0.634987423988744
-540.5462052822113,1516.0,324.0,17044.0,347.0,670.0,-436.0,0.15463460974914675,0.11740748420764617,0.7275803037759558,-0.6579745600530832
-540.5618064403534,1520.0,424.0,16572.0,332.0,856.0,-461.0,0.07012093870570989,0.14118747403828774,0.7218056423495461,-0.6739033801681641
-540.5773675441742,1100.0,388.0,16336.0,214.0,668.0,-488.0,-0.0032999001357556837,0.15060436182976808,0.71723811531096,-0.6803505881544635
-540.5929582118988,980.0,428.0,16268.0,145.0,269.0,-339.0,-0.04215363745475669,0.14517437751651022,0.712349927923568,-0.6853503127228542
-540.6085305213928,696.0,384.0,16596.0,51.0,25.0,-175.0,-0.05482704699624656,0.13556011260040196,0.7112394440994108,-0.6875724717777748
-540.6241023540497,552.0,324.0,16828.0,175.0,201.0,99.0,-0.06342672313631507,0.15286466446588454,0.698291510228178,-0.6964182736640186
-540.6396996974945,528.0,400.0,16752.0,297.0,600.0,352.0,-0.08239696237411698,0.20867272338309767,0.6706578547924241,-0.7070250893091583
-540.655279636383,676.0,536.0,16860.0,443.0,974.0,532.0,-0.11404989790923425,0.2951080697998925,0.6231389409429916,-0.7152633838009059
-540.6708562374115,636.0,860.0,16612.0,524.0,1187.0,456.0,-0.1624956420017201,0.38598690608388364,0.5627188036256866,-0.7127108970040491
-540.6864395141602,368.0,1284.0,16340.0,606.0,1108.0,300.0,-0.2173068548261845,0.45806655461358414,0.495926443430518,-0.7049891666517643
-540.7020363807678,92.0,1540.0,15568.0,511.0,583.0,74.0,-0.2578546986569056,0.4862573804940961,0.4493374632615973,-0.7036764586123433
-540.7176263332367,-516.0,2184.0,15312.0,167.0,-461.0,66.0,-0.24260618955782895,0.45626426362374717,0.4461489428386226,-0.7306957501806687
-540.7332096099854,-672.0,2164.0,15544.0,-318.0,-1383.0,-19.0,-0.17596880521515415,0.37112587491515053,0.49261131823801574,-0.7672252952708347
-540.7487888336182,-724.0,1912.0,16316.0,-640.0,-1415.0,-68.0,-0.09805973480761498,0.2806237182676695,0.5542168039597719,-0.7774820585477864
-540.764354467392,-836.0,1608.0,17048.0,-827.0,-929.0,-172.0,-0.04427170023768637,0.21499558677000605,0.618682754997785,-0.7543530757515583
-540.779965877533,-1268.0,1436.0,16984.0,-894.0,-367.0,-341.0,-0.030004696157495726,0.17514159042154198,0.6825326824311735,-0.7089247343169907
-540.7955708503723,-1032.0,1524.0,16404.0,-822.0,-138.0,-342.0,-0.030282648517072432,0.14790571208400255,0.7366233900827918,-0.6592365605112105
-540.811133146286,-956.0,1764.0,16004.0,-773.0,-335.0,-253.0,-0.013278499971705757,0.11405758880370892,0.7828779199132697,-0.6114872937249453
-540.8267183303833,-1044.0,1928.0,15860.0,-910.0,-538.0,-340.0,0.014338623390134232,0.0628606761829477,0.8315026583270823,-0.5517664981349392
-540.8423058986664,-1204.0,2060.0,15620.0,-1202.0,-1026.0,-429.0,0.07400230199331671,-0.019006668101740416,0.8814629616796471,-0.46603160091811935
-540.8578968048096,-1376.0,1992.0,16064.0,-1532.0,-1617.0,-482.0,0.17290694820733257,-0.1292371851359166,0.9145892402047011,-0.341946573226812
-540.8735237121582,-1184.0,1680.0,16376.0,-1631.0,-1705.0,-591.0,0.26707051688642836,-0.2464346429242387,0.9105533374748063,-0.1970683267050048
-540.8891699314117,-888.0,1416.0,16324.0,-1508.0,-1644.0,-782.0,0.3446373047344429,-0.3643477241863689,0.8631410091945243,-0.05885118785760039
-540.9047620296478,-540.0,1360.0,16424.0,-1347.0,-1774.0,-827.0,0.4222795716198193,-0.4663599942710925,0.7738941785563838,0.07263690200296646
-540.9204208850861,-292.0,1264.0,16880.0,-1223.0,-1908.0,-704.0,0.4953953454139259,-0.5355102348416745,0.6532431406267789,0.20269592829184774
-540.9360568523407,-816.0,1360.0,16972.0,-1301.0,-2027.0,-632.0,0.5486052186548527,-0.5783918060615054,0.5012702287072862,0.33648683563746734
-540.9516336917877,-1076.0,1440.0,16908.0,-1462.0,-2321.0,-530.0,0.5751297046349066,-0.5861629106610596,0.311239860261657,0.47829762114840585
-540.9672183990479,-808.0,1304.0,16836.0,-1417.0,-2675.0,-451.0,0.5740603091788996,-0.5388454166295551,0.09144944680143556,0.6097026956496573
-540.982803106308,-264.0,1072.0,16828.0,-1203.0,-3031.0,-550.0,0.5485961848890945,-0.4246860063378857,-0.14444082405641526,0.7055642212384436
-540.9984383583069,8.0,1120.0,17624.0,-883.0,-3176.0,-731.0,0.4996437981659764,-0.251270101109815,-0.36250571632451944,0.745526000133186
-541.0140249729156,428.0,1148.0,18060.0,-768.0,-3291.0,-956.0,0.42157774812887794,-0.038463793750681936,-0.5514851619264071,0.7187884633380629
-541.0296003818512,520.0,904.0,18048.0,-512.0,-3380.0,-939.0,0.30200397028664144,0.19105456395386122,-0.6792224043346123,0.6410527910971247
-541.0451843738556,532.0,732.0,17816.0,-95.0,-3582.0,-776.0,0.12827606353184026,0.4142932864949456,-0.7294975125756659,0.5289042478898313
-541.0607712268829,1000.0,-80.0,17732.0,21.0,-3350.0,-720.0,-0.050343838530836446,0.5892384661986919,-0.7089296429136069,0.3842945345333183
-541.076358795166,1464.0,152.0,18552.0,33.0,-3083.0,-743.0,-0.2100143219623566,0.7117197447695223,-0.6322569181353668,0.2227109762581674
-541.0919888019562,2224.0,240.0,19496.0,-186.0,-2698.0,-960.0,-0.3188787576931421,0.7959646707296523,-0.5109651714196348,0.060590217349152695
-541.1075825691223,3304.0,752.0,20212.0,-430.0,-2297.0,-1322.0,-0.3743623487866471,0.8558461785269927,-0.3479988990310532,-0.07922699530376309
-541.1232101917267,4068.0,540.0,20448.0,-817.0,-857.0,-1540.0,-0.345135200921935,0.9103873846333715,-0.1964692691836662,-0.11608759301243762
-541.1387877464294,4140.0,104.0,19448.0,-1223.0,615.0,-2371.0,-0.2543117606441692,0.9668868296416728,-0.013778257065279553,-0.01629560357214204
-541.1544137001038,4388.0,-748.0,17604.0,-1434.0,1744.0,-2725.0,-0.12907978136783047,0.9597181841195356,0.1715527485997784,0.1812431283116574
-541.17001080513,5008.0,-2004.0,15664.0,-1487.0,2321.0,-2752.0,0.004020244437755686,0.8506867458222521,0.33366542282666145,0.406181343400842
-541.1855850219727,5024.0,-3384.0,14092.0,-1251.0,2427.0,-2619.0,0.11305241192838665,0.653170700857296,0.4601669010918881,0.5906213768889945
-541.2011539936066,4692.0,-5056.0,13288.0,-775.0,2291.0,-2394.0,0.18080075405785564,0.41335026400760677,0.5552662858969601,0.6986644389999735
-541.2167191505432,3944.0,-5496.0,13176.0,-1066.0,441.0,-2492.0,0.34021801471704666,0.24196300893464862,0.5708579790850857,0.7069842802242311
-541.2322840690613,3500.0,-3844.0,13632.0,-1390.0,-1468.0,-2509.0,0.5752614127305579,0.1600191763785298,0.4758749592683143,0.6457640384503923
-541.2479381561279,4120.0,-2332.0,14548.0,-1682.0,-2816.0,-2736.0,0.815156193721892,0.11301492014798135,0.2601928792496933,0.5050224482619929
-541.2635378837585,5144.0,-1916.0,16756.0,-1762.0,-2706.0,-3207.0,0.9622152676079464,0.0316458396262387,0.01985596214168212,0.26971477598371657
-541.2791237831116,6836.0,-1728.0,18436.0,-1573.0,-1540.0,-4061.0,0.9875511888124404,-0.06609832223114993,-0.12575537201081352,-0.06752220141393932
-541.2947664260864,7544.0,-1372.0,19064.0,-1207.0,347.0,-5116.0,0.8669976395874838,-0.10160895207623015,-0.10771859170232533,-0.4758018692789783
-541.3103513717651,7620.0,-1460.0,17604.0,-835.0,2176.0,-5817.0,0.5602315543782622,-0.01747882342824486,0.034855559264578215,-0.8274177821384031
-541.3259980678558,6548.0,-2288.0,15840.0,-648.0,3223.0,-6161.0,0.08929951353850156,0.1404976029159146,0.1961397397614972,-0.9663411524627115
-541.3415834903717,6008.0,-3252.0,14508.0,-488.0,3378.0,-6013.0,-0.4021790085483734,0.27259481262977714,0.2887847408431423,-0.824953020884549
-541.3571784496307,5516.0,-3992.0,13568.0,-280.0,2727.0,-5458.0,-0.7565501008932177,0.30087389395597336,0.3027095654495365,-0.49545308936324606
-541.3727405071259,5004.0,-3852.0,13572.0,26.0,1559.0,-4668.0,-0.9191551508166349,0.2232778732786264,0.29507677405314825,-0.1350203593752075
-541.3883209228516,4852.0,-3736.0,14108.0,303.0,755.0,-4081.0,-0.9330370175651895,0.09641555468174079,0.29164615675548766,0.18731920328204976
-541.4039249420166,4552.0,-3204.0,14612.0,504.0,74.0,-3133.0,-0.8558101048770901,-0.024605946248419167,0.30834716714272525,0.4146150459336229
-541.419499874115,4432.0,-2768.0,15088.0,438.0,205.0,-2679.0,-0.7428678073087146,-0.13297043505875092,0.29471831000238274,0.586180349392547
-541.4350550174713,4368.0,-2376.0,15352.0,393.0,411.0,-2344.0,-0.6155644631192533,-0.23443377151657727,0.2552207698462622,0.7078019194353037
-541.4506504535675,4456.0,-1812.0,15648.0,302.0,537.0,-2077.0,-0.484537156166863,-0.3241415264975662,0.19889258352874112,0.7877802709581013
-541.4662156105042,4464.0,-1452.0,15704.0,215.0,833.0,-2154.0,-0.33802166185590216,-0.4191890900373083,0.11510068348309653,0.8347297140821042
-541.4818027019501,4628.0,-1172.0,15420.0,184.0,901.0,-2350.0,-0.16520954114616487,-0.5016556842828317,0.015535790924987915,0.8490029570863299
-541.4974105358124,4724.0,-1124.0,15396.0,104.0,621.0,-2398.0,0.015829611358793166,-0.5397632437427876,-0.08867279540842563,0.8369839899681171
-541.5129992961884,4768.0,-784.0,15600.0,-123.0,287.0,-2640.0,0.19983791497482678,-0.5263251595045607,-0.2159025486319825,0.7977673368252346
-541.528589963913,4776.0,-980.0,15704.0,-353.0,-238.0,-2790.0,0.362624964669344,-0.4497267420666467,-0.36196629881893555,0.7315937335625543
-541.544173002243,4656.0,-904.0,15560.0,-575.0,-588.0,-2865.0,0.48825010335354385,-0.32876138524459086,-0.5126382835075599,0.6250838171235392
-541.5597939491272,4524.0,-896.0,15500.0,-536.0,-528.0,-2829.0,0.5848989030329811,-0.18998481881670023,-0.6253799151487128,0.48031136107590633
-541.575409412384,4200.0,-936.0,15848.0,-379.0,-163.0,-3029.0,0.67325364463232,-0.035831710961020204,-0.6760495629835932,0.2973257588380061
-541.5910201072693,3896.0,-1376.0,16636.0,-205.0,174.0,-3302.0,0.738428266827156,0.1368681337453953,-0.6545257808133899,0.08710230172801049
-541.6066401004791,4020.0,-1800.0,16848.0,-112.0,470.0,-3402.0,0.759182309075949,0.3068953740902661,-0.5596813760492374,-0.1273350236648892
-541.622213602066,3756.0,-2464.0,16472.0,176.0,848.0,-3540.0,0.7210582851523336,0.4772713131437674,-0.39119339644183465,-0.3150472498586547
-541.6377785205841,3480.0,-2700.0,15804.0,368.0,1118.0,-3358.0,0.6223414126247712,0.616669000154115,-0.1823945763817723,-0.4462541079784504
-541.6533765792847,3456.0,-2616.0,15040.0,407.0,1279.0,-3051.0,0.4820544819983643,0.7077231096560621,0.03407243467964821,-0.5153547764783432
-541.668949842453,3316.0,-2708.0,14700.0,433.0,475.0,-2443.0,0.33598209709700405,0.7226000800665333,0.18115210658674938,-0.5763237536292619
-541.6845238208771,3300.0,-2556.0,14604.0,401.0,-979.0,-1939.0,0.22451742411656186,0.6425261577572581,0.24995611989072802,-0.6886755411621144
-541.7001097202301,3164.0,-2080.0,15092.0,114.0,-1953.0,-1511.0,0.16609039258549851,0.48315140637495524,0.283030742693705,-0.8117094915663778
-541.7157363891602,3228.0,-1432.0,15944.0,-143.0,-2182.0,-1234.0,0.13538235437867363,0.28897178595543904,0.3062331388700668,-0.8968769088912912
-541.7313280105591,3468.0,-876.0,16604.0,-147.0,-1834.0,-1072.0,0.10242873941549349,0.1128906144584698,0.31753309660059753,-0.9359149507685928
-541.7469239234924,3604.0,-872.0,17404.0,-138.0,-1103.0,-1267.0,0.030511466643771135,-0.013568370206061968,0.32769183365365323,-0.9441943718800191
-541.7625205516815,3688.0,-772.0,17376.0,-47.0,-733.0,-1598.0,-0.07937012996917919,-0.11849604356906006,0.32367693679279486,-0.9353567825784919
-541.7781457901001,3384.0,-588.0,16840.0,27.0,-367.0,-2009.0,-0.22915840638068125,-0.2021979324288514,0.298277815759046,-0.9042304825278656
-541.7937560081482,3488.0,-392.0,16076.0,147.0,-397.0,-2222.0,-0.38422364634962247,-0.28865773110637266,0.2503360105479202,-0.8404646248839228
-541.8093605041504,3484.0,-224.0,15780.0,314.0,-671.0,-2423.0,-0.5267265084266229,-0.3917274886294496,0.18413630505806894,-0.7315754104207746
-541.82492852211,3872.0,-52.0,16132.0,177.0,-785.0,-2613.0,-0.6565447221890969,-0.4783599356098229,0.11623975860664136,-0.5714972600879878
-541.8405108451843,3840.0,20.0,16504.0,-182.0,-1352.0,-2937.0,-0.7669743033842733,-0.5436873381695945,0.07713244464066306,-0.33197150818409843
-541.8560802936554,3724.0,-236.0,16856.0,-410.0,-1231.0,-3222.0,-0.8341169200297578,-0.5487704691842967,0.017733886672002062,-0.052777316479923175
-541.8716442584991,3644.0,-460.0,16612.0,-253.0,-827.0,-3305.0,-0.8244183948862085,-0.5166327149987953,-0.07586759251278224,0.2183324446172299
-541.8872165679932,3388.0,-612.0,16212.0,139.0,-603.0,-3125.0,-0.7348173637434477,-0.47621662482251337,-0.16445520783409395,0.45410973651753833
-541.9027972221375,3244.0,-868.0,16256.0,487.0,-606.0,-2652.0,-0.6010048915342278,-0.43278418763177684,-0.21041186001456524,0.638136205251704
-541.9184930324554,3228.0,-828.0,16696.0,598.0,-610.0,-2366.0,-0.4472417243011968,-0.3775565819619521,-0.22894156316882078,0.7778249341047874
-541.934136390686,3176.0,-728.0,17028.0,537.0,-936.0,-1992.0,-0.3070969950477343,-0.2893727165201705,-0.21728081707083616,0.8801953834799513
-541.9497072696686,3116.0,-436.0,17008.0,268.0,-1069.0,-1514.0,-0.20162589706949166,-0.18307457410347922,-0.20344731274488204,0.9404466432948966
-541.9653446674347,3204.0,-420.0,16656.0,528.0,-711.0,-1469.0,-0.08429358849500486,-0.10650861054515944,-0.16901687849461924,0.9762088924007554
-541.9809308052063,3264.0,-208.0,16176.0,747.0,-601.0,-1414.0,0.03389745166995407,-0.03927095479453871,-0.11265685696160146,0.9922787851502932
-541.9965260028839,3412.0,-184.0,15776.0,511.0,-630.0,-1316.0,0.14214991317810616,0.029730284922981146,-0.07392423702149901,0.9866330217069792
-542.0121128559113,3584.0,-328.0,15752.0,574.0,-801.0,-1052.0,0.2243224006095799,0.1120009022941424,-0.03129459789775104,0.9675515007545962
-542.0277523994446,3660.0,-832.0,16096.0,561.0,-950.0,-781.0,0.28021854656810213,0.20377817050587307,0.004783339805778121,0.9380453843204188
-542.0433249473572,3680.0,-1184.0,16060.0,428.0,-981.0,-766.0,0.33352688790103574,0.2920738723566963,0.02909381075252654,0.8958829266759749
-542.0588929653168,3700.0,-820.0,15972.0,312.0,-1067.0,-306.0,0.3504494006826405,0.3816459988152937,0.029960511587556974,0.8547712658336537
-542.0744700431824,3808.0,-224.0,15720.0,250.0,-900.0,-56.0,0.34752004008023885,0.4545590823434509,0.022803221545658035,0.8198084382883899
-542.0900597572327,3852.0,352.0,15580.0,146.0,-574.0,169.0,0.3303322355759178,0.49947431629680833,0.009082960024171055,0.8008267736136521
-542.1056396961212,3776.0,652.0,15412.0,-16.0,-216.0,202.0,0.3170104551270925,0.5139083921556873,-0.007086851471568409,0.7970899022997908
-542.1212694644928,3836.0,752.0,15220.0,-286.0,20.0,449.0,0.2983250033319185,0.5035905533172597,-0.04653129958807887,0.8094649993392372
-542.1368706226349,3480.0,244.0,14856.0,-612.0,109.0,757.0,0.2712240855807813,0.4749503736857027,-0.11976616085263977,0.8285624325609385
-542.1524710655212,3372.0,-652.0,15212.0,-997.0,29.0,1198.0,0.22417650247539989,0.4325429507907064,-0.23861830218398322,0.8400671385800059
-542.1680729389191,3424.0,-1268.0,15516.0,-1248.0,-264.0,1725.0,0.1369526046809372,0.3846928577778996,-0.39349961559342755,0.8236585711164575
-542.183652639389,3432.0,-1752.0,15912.0,-1030.0,-584.0,2243.0,-0.009528298479395559,0.32924284886805455,-0.5367367087710527,0.7768024610252937
-542.199253320694,3432.0,-2300.0,16752.0,-1074.0,-1014.0,2679.0,-0.20078367577667824,0.26406955727794995,-0.6623893048965356,0.6717094559549669
-542.214822769165,3940.0,-1952.0,17256.0,-703.0,-1298.0,2916.0,-0.4141023673551714,0.17682198850283146,-0.7192824453191196,0.5290425101903392
-542.2304480075836,4544.0,-1388.0,17728.0,-200.0,-1183.0,2916.0,-0.5977709945386828,0.05360298926858178,-0.7044779351781858,0.3788237010494279
-542.246039390564,4432.0,-624.0,17584.0,182.0,-701.0,2861.0,-0.7131260567991151,-0.10520699429044807,-0.6538210808249995,0.23000154289774702
-542.2616250514984,4172.0,-172.0,16992.0,19.0,-133.0,2573.0,-0.7534719631424266,-0.2444404561916144,-0.6062762321656736,0.07041302753132757
-542.2772009372711,4148.0,460.0,16504.0,190.0,336.0,2151.0,-0.7317625113341123,-0.36620416651980664,-0.5709056089880997,-0.06696955319735827
-542.2927780151367,4152.0,776.0,15960.0,46.0,638.0,1691.0,-0.6802900110258648,-0.44414871222337526,-0.5509533252740378,-0.19075601090981809
-542.3083648681641,3848.0,744.0,15480.0,-123.0,739.0,1114.0,-0.6267676107506823,-0.4748228345456278,-0.5457743557223976,-0.28954445348467367
-542.3239979743958,3692.0,288.0,15152.0,-168.0,473.0,626.0,-0.5939972470820792,-0.48227286589151774,-0.5400518821509942,-0.3506053591559354
-542.3395822048187,3656.0,-116.0,15260.0,-165.0,189.0,230.0,-0.5848082233122185,-0.47851742930143343,-0.5347986520624488,-0.3781677055928254
-542.3551709651947,3700.0,-608.0,15756.0,-147.0,243.0,-12.0,-0.579892064598479,-0.46224058666158613,-0.5426002714294392,-0.39451714652618725
-542.3707809448242,3360.0,-764.0,16124.0,-189.0,-69.0,-135.0,-0.5953722059209003,-0.44850513473087306,-0.5378387773377826,-0.3938331247225424
-542.3863291740417,3648.0,-824.0,16268.0,-151.0,-82.0,-202.0,-0.6119851810918813,-0.43382660470452833,-0.5360594135395442,-0.38718073341802306
-542.401938199997,3904.0,-892.0,16260.0,-41.0,-96.0,-269.0,-0.6269956211127357,-0.4221106814034008,-0.5394661053781563,-0.371046337940068
-542.4175179004669,3980.0,-1020.0,16132.0,49.0,-92.0,-375.0,-0.641374112448455,-0.4098292335737609,-0.5494227052228188,-0.3446939775727741
-542.4330728054047,3912.0,-936.0,16072.0,173.0,-143.0,-380.0,-0.6530721711453551,-0.40524657875623504,-0.559705987736395,-0.3098405347495463
-542.4487013816833,3944.0,-860.0,16068.0,124.0,-200.0,-409.0,-0.6690335056771094,-0.397360953760459,-0.5655530805816978,-0.27321814316133436
-542.4642896652222,3940.0,-772.0,16128.0,93.0,-505.0,-283.0,-0.6966591330248165,-0.40029664586310076,-0.5472830845312291,-0.2343285579476938
-542.4798972606659,3940.0,-740.0,16040.0,103.0,-163.0,-294.0,-0.7066168154624076,-0.3956146488731179,-0.5493947970491095,-0.20578406808626615
-542.4954922199249,3744.0,-868.0,16052.0,45.0,-111.0,-187.0,-0.7137019577032095,-0.39129274284502685,-0.5496143921004166,-0.18826450797617494
-542.5110828876495,3764.0,-956.0,15892.0,41.0,5.0,-163.0,-0.7147558148648263,-0.38585316484074994,-0.5560108904163528,-0.17633306563917553
-542.5266623497009,3756.0,-1072.0,16004.0,54.0,-23.0,-146.0,-0.7163258345724783,-0.38240479511555037,-0.560176278446106,-0.1638487365314334
-542.5422513484955,3756.0,-996.0,16188.0,70.0,-12.0,-220.0,-0.7176701375312698,-0.3760705732794409,-0.5675602817199977,-0.14627311517513322
-542.5578305721283,3772.0,-820.0,16172.0,16.0,-146.0,-248.0,-0.7274077614161315,-0.3664869534097146,-0.5664842763880712,-0.12514322281738421
-542.5734281539917,3744.0,-744.0,16144.0,-45.0,-219.0,-292.0,-0.7425778826373319,-0.3513532868049501,-0.561040377543561,-0.10179710622111854
-542.589005947113,3744.0,-716.0,16076.0,-17.0,-215.0,-323.0,-0.7561603245470995,-0.33610030102917127,-0.5564361458224517,-0.07507973662168296
-542.6046917438507,3792.0,-752.0,16040.0,-11.0,-158.0,-314.0,-0.7659522829297752,-0.32095596729978165,-0.5547787228010261,-0.050248741840858424
-542.6202490329742,3740.0,-856.0,16164.0,60.0,-65.0,-285.0,-0.7685086258589643,-0.3112934332345636,-0.5583816779904304,-0.02647247797234573
-542.6358478069305,3780.0,-920.0,15904.0,106.0,-42.0,-273.0,-0.7681508999326154,-0.30504187517421666,-0.5629300026100783,-0.0018605064708065444
-542.6514508724213,3896.0,-888.0,16264.0,115.0,-251.0,-329.0,-0.7770291100460646,-0.296367595337904,-0.5543784295852865,0.032504882482497485
-542.6670577526093,3824.0,-812.0,15936.0,90.0,-57.0,-300.0,-0.7764096387768408,-0.28762878684556326,-0.5576888582342006,0.05865911006483641
-542.6826493740082,3816.0,-784.0,15996.0,94.0,-97.0,-277.0,-0.7771730716326414,-0.2798642243299573,-0.5572718486871654,0.08441634515936965
-542.698233127594,3764.0,-776.0,16180.0,28.0,-151.0,-337.0,-0.7810433234849016,-0.2640660592124507,-0.5546476926073789,0.1122781381078983
-542.7138249874115,3812.0,-776.0,16120.0,16.0,-183.0,-393.0,-0.7852196506510566,-0.24410675096713047,-0.5505574899806711,0.14397376354699892
-542.7294116020203,3588.0,-740.0,16216.0,-30.0,-165.0,-354.0,-0.7889782042215638,-0.22277873775353663,-0.5467218589481457,0.17022995099729363
-542.7449970245361,3820.0,-756.0,16164.0,-28.0,-74.0,-431.0,-0.7861746782071158,-0.19898213871763917,-0.5498897650402795,0.1998917960328491
-542.7605793476105,3888.0,-968.0,16352.0,238.0,76.0,-377.0,-0.7713140254512815,-0.19833739298785671,-0.5569346122261462,0.23571336489353417
-542.7761588096619,3840.0,-1016.0,16300.0,33.0,174.0,-348.0,-0.7547839495488196,-0.1870592098266582,-0.5735338664019377,0.2576217102896334
-542.7917907238007,3788.0,-1020.0,15924.0,48.0,195.0,-277.0,-0.7377763649869874,-0.18060847951947215,-0.5894376953497027,0.2750087556662208
-542.8074324131012,3820.0,-960.0,16016.0,245.0,115.0,-216.0,-0.7225754097857097,-0.18790097701637917,-0.5939754054462524,0.29961845359434064
-542.8230118751526,3756.0,-848.0,15996.0,254.0,60.0,-234.0,-0.7089380088547776,-0.19322090140462794,-0.5945576060878272,0.32645648393701504
-542.8386137485504,3532.0,-908.0,16048.0,-26.0,-71.0,-223.0,-0.7066459375618279,-0.17792799016807406,-0.5944214558574634,0.34008275766114415
-542.8541796207428,3632.0,-840.0,15916.0,-23.0,-112.0,-259.0,-0.7049976530417085,-0.15964865324152688,-0.5919157629994003,0.3565478176019137
-542.8697769641876,3708.0,-928.0,16088.0,-16.0,-21.0,-272.0,-0.6977280973967935,-0.1438680166879067,-0.5946181074742142,0.3727020286249091
-542.8853797912598,3824.0,-892.0,15924.0,-33.0,-48.0,-332.0,-0.6896186472950218,-0.12296512254733595,-0.596553393257871,0.39170109641462947
-542.9009540081024,3932.0,-836.0,16096.0,15.0,-84.0,-309.0,-0.6830809917022455,-0.10482094878144459,-0.5939394313245207,0.4118845461892685
-542.9165873527527,3992.0,-988.0,16060.0,27.0,-126.0,-221.0,-0.6813297300829316,-0.09037708882495969,-0.5871993396102865,0.4275730537368885
-542.9322421550751,4000.0,-940.0,16116.0,15.0,-126.0,-249.0,-0.6782522437929822,-0.07373933767428421,-0.5808007767042702,0.4440797919843452
-542.9479053020477,3992.0,-916.0,16204.0,-248.0,-174.0,-238.0,-0.6791372322071785,-0.04018203147471314,-0.5811752948821584,0.4465347699733743
-542.9634740352631,3792.0,-968.0,16204.0,-31.0,-147.0,-295.0,-0.6749990263797956,-0.017607194474076382,-0.5743189544996666,0.46284342880880314
-542.9792037010193,3684.0,-888.0,16580.0,-105.0,-11.0,-493.0,-0.6552359276715275,0.013755307480891689,-0.5779621998500465,0.48624722739470094
-542.99485039711,3780.0,-948.0,16336.0,-254.0,101.0,-177.0,-0.6421377850051968,0.032937205662834645,-0.5939205228829959,0.4835624241503183
-543.0104475021362,4084.0,-772.0,16084.0,33.0,165.0,-76.0,-0.6304601156833209,0.028079491829662257,-0.6013386243194933,0.4900239214290471
-543.0260183811188,3768.0,-972.0,15996.0,107.0,184.0,241.0,-0.6311950129126785,0.0016904612583128335,-0.6071009365251907,0.4827198472044981
-543.0415775775909,3764.0,-936.0,16016.0,138.0,149.0,16.0,-0.6239659473627743,-0.01301194360135422,-0.6092656689570193,0.4891753576027175
-543.0571475028992,3832.0,-844.0,16008.0,157.0,99.0,72.0,-0.6215729907830138,-0.029587512404848353,-0.6076459007934542,0.49349575022249603
-543.072696685791,3800.0,-748.0,15948.0,219.0,7.0,137.0,-0.6264474534921267,-0.048995418572054306,-0.5979508874630657,0.49761207094915905
-543.0883140563965,4076.0,-840.0,15968.0,219.0,-52.0,235.0,-0.6382433523316258,-0.07091303502276113,-0.5842174685836591,0.4962929720135579
-543.1039772033691,3840.0,-1072.0,16212.0,215.0,-96.0,339.0,-0.6561381430253902,-0.09591526079491867,-0.5669483072812993,0.4887255025929224
-543.1195492744446,3928.0,-1036.0,16368.0,15.0,-31.0,341.0,-0.6718670783205634,-0.11222859363208203,-0.5612846335909665,0.4700626893670775
-543.1351313591003,3812.0,-844.0,16336.0,307.0,34.0,448.0,-0.6848807762370283,-0.1533552756998126,-0.5455352526228745,0.45805214757895935
-543.1507074832916,3836.0,-780.0,16180.0,420.0,19.0,553.0,-0.6992595470337866,-0.20512269632380575,-0.5213763979160915,0.4439903343891583
-543.1662809848785,3784.0,-964.0,16496.0,442.0,96.0,576.0,-0.7079381085415136,-0.2614324847910267,-0.4986374358360639,0.4264239650318556
-543.1818580627441,3596.0,-992.0,16292.0,433.0,199.0,562.0,-0.7089373615794509,-0.31931949040517843,-0.4808699193506475,0.4052246303815277
-543.1975119113922,3768.0,-924.0,16064.0,225.0,402.0,480.0,-0.7016807798302928,-0.36690937858953354,-0.4834788726425704,0.37318865313412675
-543.2131373882294,3892.0,-648.0,16080.0,173.0,475.0,384.0,-0.68764283137841,-0.4084806353297208,-0.49377784449359385,0.3412833826921138
-543.2287139892578,4004.0,-420.0,15628.0,130.0,410.0,288.0,-0.6733228808356484,-0.4403917490881837,-0.5036406231716596,0.31470228497660424
-543.2442791461945,3984.0,-184.0,16100.0,224.0,300.0,199.0,-0.6566336739127728,-0.47016072965010275,-0.5070387003315472,0.3011525575929797
-543.2599010467529,4040.0,-60.0,16056.0,254.0,297.0,98.0,-0.6353398724309026,-0.4964975781435882,-0.5129697886335017,0.29444082146729667
-543.2754616737366,3916.0,-248.0,16148.0,204.0,334.0,161.0,-0.6153506879784785,-0.5231914653040478,-0.5188506814431868,0.2800146278381842
-543.2910597324371,3824.0,-260.0,16028.0,74.0,555.0,375.0,-0.5950599451593153,-0.5567028468877424,-0.5287536390874277,0.23749777069664918
-543.3066647052765,3740.0,-864.0,15668.0,-78.0,812.0,804.0,-0.5752562376044831,-0.6035412434541092,-0.5307835413954758,0.1519442685022361
-543.3222186565399,3540.0,-1400.0,15580.0,-271.0,945.0,1256.0,-0.5571133606825286,-0.6543123941742978,-0.5106944448658521,0.026290267440180204
-543.3377995491028,3376.0,-1952.0,14916.0,-367.0,830.0,1647.0,-0.5377296632650707,-0.7023581699401148,-0.4517491764550864,-0.11602797910572146
-543.353410243988,3460.0,-2172.0,14760.0,-336.0,469.0,1966.0,-0.5118654651677315,-0.7474654702145594,-0.3443226613948818,-0.2464366475496193
-543.3689765930176,3708.0,-1556.0,14792.0,-354.0,9.0,2260.0,-0.476722596248039,-0.7838568537979685,-0.1859360502867374,-0.35175529020079765
-543.3845641613007,3868.0,-1148.0,15256.0,-404.0,-570.0,2439.0,-0.42840164983894,-0.8045715007847154,0.016707800794917606,-0.41092283452359063
-543.4001586437225,4160.0,-728.0,16008.0,-201.0,-814.0,2808.0,-0.33003484772427805,-0.7964376243310581,0.24373950945785544,-0.44424673478457544
-543.415765285492,3876.0,-300.0,16172.0,93.0,-745.0,2200.0,-0.21801161431999055,-0.7655362557130436,0.40625775415813214,-0.4487536232687555
-543.4313409328461,3740.0,268.0,15752.0,985.0,95.0,1845.0,-0.08196709108500647,-0.7034310470845528,0.481162340460166,-0.516671036636937
-543.4469101428986,3184.0,256.0,15444.0,2229.0,1243.0,873.0,0.04092566641052728,-0.6099161576621872,0.4139769049443871,-0.6745001798547678
-543.4624733924866,3184.0,712.0,14360.0,3436.0,1968.0,-388.0,0.1226926393499876,-0.4682596520834777,0.18700821984493624,-0.8548142138444017
-543.4780216217041,2912.0,740.0,14156.0,4233.0,1364.0,-1096.0,0.1779540918662196,-0.3146435443015346,-0.1477471717577229,-0.9205990193645827
-543.4935870170593,3260.0,332.0,15424.0,4525.0,2.0,-1365.0,0.1780423845640351,-0.20927291789050215,-0.5072271727141255,-0.8168392439132574
-543.5091860294342,4164.0,-512.0,17312.0,4052.0,-1041.0,-1343.0,0.10295771858141248,-0.15036755714009195,-0.7812452211794944,-0.5970303261379902
-543.5247576236725,5440.0,-740.0,18120.0,3096.0,-681.0,-1316.0,0.027409327528913414,-0.06542247907446087,-0.9253094149292794,-0.37251995200176735
-543.5403199195862,6124.0,-1084.0,17616.0,2328.0,22.0,-1059.0,0.007883902401245566,0.025759164809546497,-0.982800336589359,-0.18269594388241098
-543.5559396743774,6900.0,-2652.0,17140.0,1797.0,1269.0,-474.0,0.10321549836146117,0.08624620525023498,-0.9905839664530937,-0.025525641695865305
-543.5715279579163,7568.0,-3256.0,16704.0,1057.0,1152.0,426.0,0.19394147367716869,0.06088970046510917,-0.9760393797546514,0.07762910751356637
-543.5871047973633,7480.0,-3200.0,17036.0,259.0,305.0,1345.0,0.20794534441449986,-0.05101048825304156,-0.9690094430504177,0.12319644111597049
-543.6026747226715,7668.0,-2216.0,17172.0,-613.0,-334.0,1941.0,0.15368525945696052,-0.219205528470931,-0.9576079269920174,0.10638061607020972
-543.6182377338409,6948.0,-1352.0,16132.0,-1252.0,-806.0,2066.0,0.0421938581023634,-0.39165820413546626,-0.9180983004512798,0.043806850837407235
-543.6338102817535,6392.0,-1040.0,15180.0,-1455.0,-870.0,2308.0,-0.0834965603460082,-0.5613909361202012,-0.8226447601483928,-0.03352819489419258
-543.6493864059448,5412.0,-1104.0,14676.0,-1339.0,-1089.0,2506.0,-0.21259996102904385,-0.7101577036863095,-0.6649194727360934,-0.09142968468605889
-543.6649584770203,5076.0,-1480.0,14452.0,-848.0,-1251.0,2899.0,-0.30257320318139014,-0.8391662432780957,-0.4377290722359896,-0.11243990474249188
-543.6805303096771,4812.0,-1928.0,14552.0,-185.0,-864.0,3180.0,-0.30552515338196057,-0.926571025404982,-0.17308628602091639,-0.1347651777069109
-543.6961195468903,5180.0,-2556.0,13752.0,355.0,-805.0,3826.0,-0.2308131084573262,-0.9491130391000504,0.14538607031877465,-0.15739326075724105
-543.711710691452,5180.0,-2848.0,12836.0,705.0,-1026.0,4345.0,-0.09274596299245481,-0.8578915046804197,0.4803378077980599,-0.1571494287152245
-543.7272896766663,5468.0,-2616.0,11992.0,1097.0,-1916.0,4879.0,0.12380322166174806,-0.6236816787839287,0.7665599044594898,-0.08988792316262863
-543.742865562439,6212.0,-2224.0,11608.0,1432.0,-3009.0,6036.0,0.3859654164463811,-0.19527016266642458,0.9008464984939861,0.03709241203702337
-543.7584314346313,6832.0,-1984.0,12512.0,1638.0,-3747.0,6637.0,0.5680295937065691,0.32570990229623636,0.738284458495139,0.161837877409046
-543.7740144729614,7004.0,-2264.0,13560.0,1819.0,-4337.0,6763.0,0.5685819274248664,0.7412656001047302,0.28950702236594805,0.20838806565636322
-543.7896044254303,7404.0,-2416.0,14444.0,2145.0,-4480.0,6505.0,0.3455874052971858,0.8898039637094964,-0.2561479308136187,0.15233676183616812
-543.8052155971527,7280.0,-2136.0,15448.0,2778.0,-4301.0,6157.0,-0.03949850252117066,0.7319997561329863,-0.6779925765156845,0.054242893630939294
-543.8208057880402,7644.0,-1848.0,16240.0,3518.0,-2916.0,5885.0,-0.3895849218010286,0.3230536887971331,-0.8612003199725003,0.04683921155522177
-543.8363935947418,7372.0,-1816.0,16736.0,3933.0,-2026.0,5269.0,-0.5781289576838614,-0.17019257941388638,-0.7927864150616057,0.09105544625988903
-543.852011680603,6696.0,-2048.0,15996.0,4458.0,-625.0,5243.0,-0.511097840769729,-0.6448021213138136,-0.5547493065559387,0.12354120116557066
-543.8675842285156,4700.0,-1132.0,16684.0,4400.0,193.0,4619.0,-0.2655394741545668,-0.9319814174192779,-0.22353680457398853,0.10455009446060033
-543.8832092285156,6128.0,-1456.0,15764.0,4285.0,144.0,5624.0,0.029381270779366125,-0.9720574368717515,0.229573622109191,0.03920500454504128
-543.8988118171692,5112.0,-1540.0,15812.0,2848.0,483.0,5148.0,0.21668126216576997,-0.7673446676682896,0.6021487175729878,-0.040599427982391474
-543.9144642353058,4936.0,-1820.0,15224.0,2271.0,1529.0,4857.0,0.2748474496399593,-0.416902609388783,0.8527209122631305,-0.1533562502813908
-543.9300796985626,5512.0,-2140.0,16068.0,1805.0,1629.0,4798.0,0.2566488616024174,0.004855365536000423,0.9434156226903283,-0.20993987264813482
-543.9456555843353,5316.0,-2092.0,17028.0,1157.0,1538.0,4528.0,0.19524953663312988,0.3968109299893654,0.8772504936564185,-0.1866822853542698
-543.9612355232239,5716.0,-2148.0,17548.0,781.0,1800.0,4437.0,0.09453621336739726,0.7175392600326244,0.6827960417536922,-0.09994938738920793
-543.9769575595856,5964.0,-2444.0,17472.0,974.0,1546.0,4373.0,-0.01892268684291754,0.9237771839149607,0.38175969361526463,-0.02317720284177954
-543.9936385154724,6152.0,-2544.0,17556.0,1555.0,1285.0,3946.0,-0.16711349317850654,0.9842219352335815,0.05435521846459881,0.020634263456846713
-544.0093717575073,6440.0,-1560.0,17328.0,2047.0,2463.0,3092.0,-0.33580989355454477,0.8990782288093669,-0.22700100534926854,0.16541039097444363
-544.0249655246735,6064.0,-728.0,17144.0,2104.0,3197.0,2237.0,-0.43825945959927454,0.6965391635589745,-0.43448487195335833,0.3660392543757977
-544.0405595302582,5524.0,1240.0,17664.0,1742.0,3115.0,862.0,-0.4319706595988764,0.47387469626270795,-0.5240873710753876,0.5605145394786176
-544.056159734726,3088.0,3512.0,20388.0,-695.0,1406.0,-1271.0,-0.2725581077144278,0.4819574648361837,-0.5499797198115957,0.625261055722942
-544.0718212127686,2152.0,6128.0,23420.0,-3342.0,-2176.0,-2625.0,-0.08600333852457329,0.7441990918309144,-0.5262488573798277,0.40228507005243913
-544.0874624252319,4784.0,7956.0,24488.0,-5992.0,-1777.0,-4858.0,0.3227019481588202,0.8841893318919529,-0.33541907188609305,0.03958186754103618
-544.103138923645,7016.0,2940.0,18672.0,-5702.0,2477.0,-5968.0,0.6840584400132361,0.7109838390846263,0.1400808650026658,-0.08332696122654046
-544.118691444397,7564.0,-3092.0,17872.0,-2312.0,5917.0,-4767.0,0.5922088911046132,0.45824240453233356,0.6624124098448987,0.022634647524175856
-544.1343059539795,5444.0,-5728.0,17404.0,-490.0,6408.0,-4343.0,0.20694577172452344,0.14001199599078243,0.965852699723531,0.06854670656410314
-544.1499402523041,4824.0,-6012.0,16736.0,-65.0,3930.0,-2394.0,-0.10140445906027074,-0.08029312055459578,0.9889002404942389,0.07311952423761761
-544.1655352115631,972.0,-4820.0,16652.0,-642.0,9.0,-2269.0,-0.09032389637871796,-0.2649834581931886,0.9489229653121584,0.14550108772832485
-544.1811826229095,-2156.0,-24.0,17968.0,-1182.0,-3074.0,-1933.0,0.15322977355711317,-0.3574048320262663,0.8665449857660759,0.31286132740174777
-544.1967792510986,-2284.0,3332.0,19460.0,-1465.0,-3954.0,-1146.0,0.40918008965278624,-0.33232619353018533,0.6893993313551385,0.4968495921831508
-544.2123756408691,-1240.0,4484.0,19484.0,-1449.0,-1066.0,-1117.0,0.4717944274553055,-0.39826365613729975,0.5467323839455378,0.5655791534060465
-544.2279896736145,-812.0,3984.0,18608.0,-1637.0,1881.0,-1517.0,0.3876848947044731,-0.6113407419317404,0.4753835437308617,0.4999734053149416
-544.2435686588287,-1000.0,2748.0,16924.0,-1242.0,3903.0,-1652.0,0.21609369696359068,-0.8325083734869946,0.43395044531973964,0.2681796659209016
-544.2591564655304,-528.0,1184.0,15428.0,-813.0,3894.0,-1510.0,0.04207198520512594,-0.9338680158810887,0.35494264325124686,-0.011670346054696017
-544.2747790813446,-348.0,-108.0,15228.0,-569.0,2540.0,-985.0,-0.08163625117408022,-0.9366442715806063,0.27650827840379805,-0.19893768618249733
-544.2903640270233,-508.0,-408.0,15144.0,-678.0,407.0,-389.0,-0.15320974009823365,-0.9313738752600866,0.25282678920160445,-0.21248081015481818
-544.3060071468353,-496.0,-240.0,15608.0,-660.0,-226.0,248.0,-0.196895027221231,-0.9193364262446085,0.2876519228555734,-0.18250823245221942
-544.3216152191162,-440.0,764.0,16076.0,208.0,-956.0,396.0,-0.14929102049996573,-0.9242759748668817,0.3311438245741407,-0.11734513593824329
-544.3372175693512,620.0,1160.0,16892.0,816.0,-699.0,283.0,-0.060096091312032425,-0.9295245626694304,0.3530697401414423,-0.0878311209063989
-544.3528108596802,932.0,1396.0,16396.0,1347.0,319.0,-192.0,0.037602603915999955,-0.9331430412879583,0.3230923398997135,-0.15310600436535407
-544.3683981895447,644.0,1464.0,16680.0,1522.0,1843.0,-631.0,0.09888999971306685,-0.90057217438647,0.2516035572940769,-0.3404205878535273
-544.3840711116791,692.0,1980.0,16236.0,1759.0,2362.0,-1163.0,0.14529009328345419,-0.8103239386713011,0.12364434216372149,-0.5540559356787139
-544.3997201919556,712.0,2272.0,15536.0,1871.0,2515.0,-1783.0,0.15667995890031178,-0.6525508846668359,-0.058271003361093074,-0.7390759254412349
-544.4153163433075,760.0,2452.0,14396.0,2063.0,2270.0,-2551.0,0.11442055820118653,-0.4389129132354209,-0.2886266567042146,-0.8431832798958198
-544.430899143219,552.0,2580.0,13588.0,1892.0,1724.0,-3142.0,-0.0008633982265032543,-0.20155881874516432,-0.5005558542125912,-0.841912782859994
-544.4464612007141,760.0,3028.0,13480.0,1911.0,864.0,-3798.0,-0.19509115978513158,0.026008159663109667,-0.6618600842189428,-0.7233285864130661
-544.4620499610901,1336.0,3092.0,13704.0,2033.0,-161.0,-4346.0,-0.4458750007774381,0.21423952453421177,-0.7170949249484839,-0.4909906093014436
-544.477618932724,1632.0,3028.0,14620.0,1842.0,-670.0,-4624.0,-0.6598779194737341,0.3693079813593521,-0.6259125674347775,-0.190804099071539
-544.4932107925415,2180.0,2188.0,14872.0,1156.0,-605.0,-4739.0,-0.7436532052288002,0.5068304313764663,-0.42040291561776305,0.1156036881927253
-544.5087912082672,2548.0,776.0,14668.0,90.0,-412.0,-4619.0,-0.6638852373680512,0.6252603599506465,-0.17454420838468526,0.3712683573892579
-544.5243833065033,2580.0,-488.0,14540.0,-944.0,-513.0,-4420.0,-0.4433513476706022,0.7099065127615873,0.06123830083158957,0.5438034536195983
-544.5400593280792,3100.0,-964.0,14964.0,-1154.0,-2001.0,-4306.0,-0.14423460352056924,0.7601787349620798,0.3226199264122212,0.5451981778587391
-544.555668592453,3664.0,-68.0,15312.0,-1502.0,-1841.0,-4581.0,0.2053977153407897,0.6725529392382054,0.5272553275249449,0.47695507340985244
-544.57128739357,3056.0,848.0,15364.0,-1644.0,-1730.0,-4902.0,0.5288230151493996,0.441947575219825,0.6461007721236326,0.3279974872874191
-544.5868847370148,3232.0,812.0,15404.0,-1626.0,-1773.0,-5230.0,0.7517704125293413,0.10958972097319691,0.6427922131255646,0.09823192275232917
-544.6024994850159,2852.0,312.0,15644.0,-1829.0,-1077.0,-5461.0,0.7804635369005751,-0.27388548673453267,0.5417995757937937,-0.14938750749141583
-544.618085861206,2740.0,-172.0,15472.0,-2251.0,-669.0,-5456.0,0.6101071570014277,-0.6160660590015604,0.35067083535330806,-0.35392348488696584
-544.633686542511,3024.0,-148.0,14676.0,-2539.0,-597.0,-5463.0,0.28570667484628426,-0.8283465597033308,0.09147531309781391,-0.47312359914676916
-544.6493349075317,2728.0,596.0,14152.0,-2960.0,-1061.0,-5418.0,-0.1259831648396403,-0.867915076824168,-0.17944923348090905,-0.4457012835985564
-544.6649007797241,2380.0,692.0,14716.0,-3461.0,-1858.0,-5192.0,-0.5384485083245549,-0.7135757610436415,-0.36316070093629926,-0.2626730713824797
-544.680520772934,2204.0,20.0,16292.0,-3791.0,-2327.0,-5044.0,-0.831391839458092,-0.3697646419181141,-0.4148025466855134,-0.0007524180165621833
-544.6960985660553,2064.0,-764.0,17828.0,-3777.0,-2153.0,-4670.0,-0.9012640914098824,0.06411432262338541,-0.3572263562648498,0.23664682875416357
-544.7117009162903,2240.0,-1060.0,18332.0,-3507.0,-1577.0,-4311.0,-0.7516909601227227,0.45268339954875214,-0.2511220169109919,0.4086271807715675
-544.7272908687592,3056.0,-912.0,17816.0,-2952.0,-1278.0,-4085.0,-0.47119621450735194,0.7115347606612774,-0.10110530445598885,0.5113414996022739
-544.742888212204,2772.0,-528.0,17624.0,-2382.0,-313.0,-4072.0,-0.1334044194293476,0.7943424627054716,0.05397363434348867,0.5901780744957242
-544.7584974765778,2680.0,-400.0,17076.0,-1867.0,-168.0,-4287.0,0.2015229778922636,0.7447428622599529,0.23792379517170467,0.5900329026294886
-544.7741312980652,2664.0,-320.0,17304.0,-1544.0,-394.0,-4605.0,0.5036193331140811,0.590919615044497,0.41483868454899603,0.4744369733389782
-544.7897367477417,2624.0,16.0,17360.0,-1531.0,-503.0,-4437.0,0.725444958590801,0.35475680883462196,0.5160246600023188,0.2856497311571597
-544.8053715229034,2480.0,-236.0,16928.0,-1138.0,-9.0,-4308.0,0.809521164117337,0.08276352545735713,0.578170848381003,0.05953279585549425
-544.820969581604,2092.0,-752.0,16288.0,-1051.0,883.0,-4200.0,0.7412614173772436,-0.19414581808512268,0.6207346532783454,-0.16591384103609488
-544.8365688323975,2044.0,-1280.0,15620.0,-1134.0,1532.0,-4203.0,0.5363807762475811,-0.43879298217961044,0.6167794166373638,-0.37328210896644887
-544.8521625995636,1764.0,-1664.0,15096.0,-1231.0,1769.0,-4054.0,0.24316223340260784,-0.6098671525861089,0.5424230150371347,-0.5241292371173274
-544.8677849769592,1712.0,-1684.0,14676.0,-1117.0,732.0,-3814.0,-0.023981681263923225,-0.7361718317113763,0.3828500161552905,-0.5575856690127233
-544.8833734989166,2616.0,-1624.0,15256.0,-1020.0,-1022.0,-3106.0,-0.19790205646565623,-0.850339941253102,0.22516066303009596,-0.4325036834296133
-544.8989546298981,3324.0,-1344.0,16408.0,-586.0,-1966.0,-2593.0,-0.2888961708461146,-0.9275169970398401,0.08528558212817065,-0.2213088162584328
-544.9146082401276,3540.0,-1184.0,17580.0,-544.0,-1939.0,-2326.0,-0.3510464074166526,-0.9354080813930684,-0.04213765512863394,-0.0015997264330167823
-544.930255651474,3460.0,-1420.0,17776.0,-658.0,-1129.0,-1999.0,-0.40064409320023986,-0.8889176571868864,-0.16707979683646088,0.1462670530715023
-544.9458284378052,2912.0,-1720.0,18152.0,-737.0,-136.0,-1811.0,-0.43049337225426476,-0.8230043494732546,-0.3077815108103546,0.206421507591994
-544.9613990783691,2716.0,-1864.0,17460.0,-680.0,689.0,-1753.0,-0.4228931799685389,-0.7513413314265146,-0.464807582838356,0.20149807185750943
-544.9770333766937,2636.0,-2012.0,16748.0,-524.0,1132.0,-1789.0,-0.3732150922819073,-0.6673080141893443,-0.62196504342108,0.16902660694072763
-544.9927067756653,2440.0,-1836.0,16264.0,-400.0,1067.0,-1714.0,-0.3084033175093838,-0.5678500172172977,-0.7504456677401918,0.13879860037298203
-545.0083429813385,2336.0,-2128.0,15872.0,-233.0,1007.0,-1517.0,-0.23267120510149955,-0.46841369641430247,-0.8447925576229293,0.11304093910179343
-545.0239667892456,2204.0,-2296.0,15720.0,-96.0,467.0,-1082.0,-0.1904908059172982,-0.38920463943750094,-0.8947100952964393,0.10829056688345284
-545.0395648479462,2368.0,-2792.0,15904.0,26.0,270.0,-571.0,-0.16288822169197023,-0.34705860251590515,-0.9169554426912538,0.11050099444177665
-545.0551404953003,2444.0,-2648.0,16044.0,96.0,65.0,-34.0,-0.15445049282667528,-0.34630514989732103,-0.9179293872710848,0.11671944312890657
-545.0707316398621,2788.0,-2476.0,15812.0,213.0,-137.0,481.0,-0.16371328770381285,-0.38588512189789,-0.8983569336624421,0.13132193978035042
-545.0863103866577,3008.0,-2104.0,16188.0,275.0,-177.0,894.0,-0.17797434462932613,-0.4563178898758333,-0.8595932087021286,0.14559749855752077
-545.1019282341003,2944.0,-1928.0,16848.0,161.0,-187.0,1102.0,-0.19864897507545654,-0.5365285169335413,-0.806829023504619,0.14731823393303448
-545.1175165176392,2960.0,-1876.0,17072.0,136.0,-246.0,1346.0,-0.2253140714019101,-0.6260252869636631,-0.732509689728263,0.14406756666426243
-545.1331202983856,2836.0,-2192.0,17200.0,142.0,412.0,1586.0,-0.20903202385495764,-0.7279446281558473,-0.6455304665786544,0.09845124712714641
-545.148708820343,2796.0,-2568.0,16708.0,125.0,700.0,1839.0,-0.17489258260640952,-0.8276984433228827,-0.5325363477800804,0.027072306203761352
-545.1642713546753,2852.0,-2808.0,16248.0,102.0,763.0,2021.0,-0.13446304714710003,-0.9089537361923592,-0.39101060454278214,-0.053230644829422316
-545.1799111366272,2812.0,-2772.0,15680.0,-73.0,561.0,2091.0,-0.10945352411523075,-0.9598507934301126,-0.22731004690998158,-0.12262350094546236
-545.1955099105835,2444.0,-2524.0,15680.0,-239.0,168.0,2170.0,-0.10108897759897965,-0.9810631123809866,-0.04373622830335203,-0.15932146894603258
-545.2111349105835,2504.0,-2108.0,15608.0,-295.0,-65.0,2179.0,-0.09457243692573689,-0.9699527419771216,0.14490966350998025,-0.1710231619588856
-545.2267351150513,2600.0,-2136.0,15216.0,-93.0,-228.0,1981.0,-0.06895397433169449,-0.9334535660753969,0.31122735626655046,-0.16446070082643688
-545.24232172966,3084.0,-2112.0,14824.0,375.0,-271.0,1637.0,-0.007455727176765667,-0.8854088057079856,0.436084795470096,-0.16070379605606414
-545.2579660415649,3416.0,-1912.0,14724.0,1135.0,-445.0,1380.0,0.11509268954300388,-0.8292046989910286,0.5204305720698545,-0.16830109815446642
-545.2735545635223,3676.0,-1932.0,15180.0,1925.0,-600.0,1437.0,0.29598518876530744,-0.7363800402664227,0.5768080361261722,-0.19346755228992607
-545.2891757488251,3716.0,-1856.0,16096.0,2390.0,-809.0,1592.0,0.5005785167675515,-0.5884785143563629,0.5979055757772517,-0.21359566743311767
-545.3047871589661,3500.0,-1688.0,16884.0,2427.0,-1239.0,1856.0,0.696319582132936,-0.3926794451397865,0.5706319346812784,-0.18793905401705152
-545.3203542232513,3148.0,-1344.0,16988.0,2180.0,-1385.0,2059.0,0.8396783363270518,-0.17322672108568976,0.5007493396139654,-0.11909195388905373
-545.3359756469727,3180.0,-792.0,16964.0,1888.0,-1194.0,1934.0,0.9107926966667754,0.036128091468111544,0.4092801401203011,-0.040511623127712386
-545.3515253067017,3384.0,-416.0,17132.0,1555.0,-975.0,1577.0,0.925949553052091,0.2080234488892025,0.314142034398639,0.025660322265289102
-545.367095708847,3632.0,-724.0,16916.0,1260.0,-668.0,1144.0,0.9074377157559228,0.3383342044663682,0.238972389268663,0.07056171255723125
-545.3826777935028,3552.0,-1008.0,17088.0,1166.0,-316.0,737.0,0.868563165589188,0.4444813914660823,0.19770424874950168,0.09459043317618976
-545.3982501029968,3360.0,-1428.0,16696.0,1186.0,166.0,454.0,0.8110010876543822,0.5373690964745406,0.20111266402656783,0.11430392095497904
-545.4138646125793,3184.0,-1808.0,16272.0,1285.0,593.0,225.0,0.7324795842028973,0.6214096736823246,0.24339195371929195,0.1344768866559735
-545.4294912815094,3388.0,-1696.0,16048.0,1242.0,918.0,62.0,0.6391923093387263,0.6850712209590745,0.3104370188271128,0.16043525559428545
-545.4450881481171,3424.0,-1232.0,16012.0,1125.0,999.0,132.0,0.5384281887507518,0.7310451852329581,0.3707875907358642,0.19540876454905537
-545.4606776237488,3384.0,-800.0,16132.0,942.0,928.0,225.0,0.44149890737100805,0.7615307321855005,0.41325703790799995,0.23317006528868037
-545.4762678146362,3140.0,-760.0,16340.0,775.0,675.0,308.0,0.3578535729474496,0.7853049709851626,0.43265069972410414,0.26086451445717995
-545.4918887615204,3324.0,-548.0,16484.0,712.0,304.0,440.0,0.28672456095263493,0.8147611618096686,0.42688699520751844,0.2678073349924791
-545.5075008869171,3264.0,-720.0,16356.0,705.0,-99.0,536.0,0.22708942318282654,0.8521035742870846,0.40153710502324147,0.24722023755190498
-545.523068189621,3148.0,-1092.0,16316.0,815.0,-108.0,567.0,0.15744300336417524,0.8870882888423448,0.3733798808579814,0.22107359195731308
-545.5386371612549,3024.0,-1144.0,16356.0,975.0,49.0,582.0,0.06878798354169412,0.9140169054360723,0.34609255246957266,0.20015307897314366
-545.554205417633,3120.0,-868.0,16292.0,768.0,156.0,763.0,-0.010485724059098213,0.9346964169998089,0.2982067734013617,0.1931460016055853
-545.5698118209839,3188.0,-388.0,16304.0,986.0,324.0,382.0,-0.10533156579410187,0.9339239073721364,0.2820502830846904,0.19271490419261816
-545.5853800773621,3092.0,156.0,16464.0,856.0,457.0,68.0,-0.18686207267592309,0.9167267285506425,0.28567371301798283,0.20756974887158722
-545.6009242534637,2992.0,456.0,16872.0,768.0,483.0,-78.0,-0.2581696776514992,0.8906727593764185,0.29701238865437335,0.22767102194161853
-545.6165435314178,3180.0,356.0,16844.0,968.0,473.0,-128.0,-0.3416651083768593,0.8522949215198456,0.3141313652159544,0.24120490429688568
-545.6321256160736,3240.0,136.0,17400.0,1224.0,748.0,-253.0,-0.4443907027295064,0.7867244279624352,0.3337195534943966,0.2687244636988886
-545.6477401256561,3136.0,-192.0,17116.0,1491.0,1071.0,68.0,-0.5723336103493134,0.6967757904335224,0.3183893093822321,0.2925166388453237
-545.6633186340332,3160.0,-376.0,16488.0,1787.0,1376.0,174.0,-0.710071149677828,0.5661659506680623,0.2792623742151231,0.3118775481612444
-545.6789009571075,2916.0,60.0,15888.0,1961.0,1438.0,365.0,-0.8330695295649871,0.4049965831584768,0.2204055212818019,0.30560486371919415
-545.6944727897644,2964.0,292.0,15752.0,1913.0,1110.0,516.0,-0.9180056663796712,0.24130528393866768,0.1691172729937748,0.2653991416965096
-545.7100720405579,3416.0,292.0,15564.0,1736.0,1019.0,547.0,-0.9664176294901845,0.08501421219493539,0.1142070086649497,0.213930615637993
-545.7256419658661,3688.0,684.0,15588.0,1400.0,360.0,400.0,-0.9794860729326892,-0.0358118849650471,0.10612111935805102,0.16751969989330578
-545.7412648200989,3960.0,1268.0,15844.0,981.0,55.0,107.0,-0.9748756134291402,-0.11882338308718188,0.11591436136611329,0.1485341805846738
-545.756870508194,4068.0,1224.0,15628.0,633.0,-72.0,-250.0,-0.9626821523143759,-0.17365287933018295,0.12747784098377182,0.1638204845976656
-545.7724795341492,3968.0,1412.0,15732.0,347.0,188.0,-666.0,-0.9479044981322354,-0.21212040543350807,0.1063130248037948,0.21255478535301614
-545.7880804538727,3740.0,1472.0,15540.0,58.0,564.0,-1087.0,-0.9266885944605835,-0.23582943434055256,0.04040635245552283,0.2898276271795419
-545.8036804199219,3760.0,1628.0,15356.0,-250.0,876.0,-1600.0,-0.8832073258055768,-0.240063639391722,-0.06870451774965938,0.3969810548705688
-545.8192753791809,3588.0,1352.0,15028.0,-623.0,772.0,-1979.0,-0.8082050596786502,-0.20294855099046494,-0.1876169605560075,0.5200157144475788
-545.8348624706268,3216.0,1144.0,15568.0,-993.0,844.0,-2285.0,-0.6903893466679063,-0.1302398238068352,-0.3240561720982195,0.6335516834696876
-545.850444316864,2744.0,860.0,15804.0,-1213.0,438.0,-2340.0,-0.5477679077966402,-0.01469045203377688,-0.43230979478516046,0.7161304009326426
-545.8660321235657,2244.0,176.0,16344.0,-1209.0,134.0,-2098.0,-0.4042199776849892,0.11147061089869122,-0.505574287623243,0.7540392246033821
-545.8816177845001,1684.0,-644.0,16440.0,-1066.0,55.0,-1544.0,-0.2860259517920269,0.21077706831745724,-0.5550820635342777,0.7520944655530256
-545.8972041606903,1492.0,-1068.0,16720.0,-1019.0,193.0,-994.0,-0.19120481927156352,0.2695635114155927,-0.6036457117917672,0.7255260746768756
-545.9128754138947,1772.0,-1560.0,16644.0,-930.0,336.0,-30.0,-0.14918176585240284,0.2643654445064044,-0.6648605281589522,0.6825072824404799
-545.9285447597504,1872.0,-1756.0,16620.0,-810.0,179.0,656.0,-0.15852444512495664,0.2251918973361832,-0.7274005284565594,0.6285277089143106
-545.9441492557526,2020.0,-1452.0,16424.0,-690.0,-195.0,1264.0,-0.22490626046905238,0.16385159514561898,-0.7810686296025808,0.5590184474780859
-545.9597685337067,2400.0,-748.0,16316.0,-611.0,-419.0,1513.0,-0.315201179222189,0.09214050201709993,-0.8154635987842009,0.47663137072888756
-545.9753274917603,2884.0,-44.0,16140.0,-649.0,-592.0,1787.0,-0.4202096442212639,0.007315692663689844,-0.8280796025050059,0.3710182036766397
-545.9909150600433,3100.0,304.0,16080.0,-626.0,-633.0,1314.0,-0.5033684760769955,-0.043779777973878616,-0.818106749803593,0.2745994432956524
-546.0065240859985,3636.0,256.0,16120.0,-552.0,-450.0,1036.0,-0.559155844445643,-0.08222250642276739,-0.8027324543982632,0.19027560988097855
-546.0221464633942,3776.0,668.0,16536.0,-546.0,-284.0,753.0,-0.5934217516049974,-0.10324190442571889,-0.7896359936222127,0.11690479660334038
-546.0377151966095,3496.0,676.0,16596.0,-399.0,-92.0,426.0,-0.6069799386605862,-0.11084470332730262,-0.7839981623888204,0.06808588090658929
-546.0533263683319,3264.0,464.0,16556.0,-387.0,77.0,236.0,-0.6064528175733856,-0.10685569037941756,-0.787396989152959,0.028334130720654147
-546.0689151287079,2872.0,136.0,16224.0,-329.0,254.0,129.0,-0.5920402971672614,-0.09885552535370191,-0.7998148560077355,-0.0034738662135746384
-546.0845022201538,2808.0,-348.0,15976.0,-366.0,226.0,112.0,-0.5790326799187773,-0.08761817925891013,-0.80974961801329,-0.03673916679462591
-546.1001007556915,2864.0,-1012.0,15996.0,-379.0,-35.0,83.0,-0.5838808993698975,-0.0743892459903411,-0.805607766763745,-0.06742003828180412
-546.1157605648041,2816.0,-920.0,16332.0,-474.0,-300.0,90.0,-0.6068594398052722,-0.0582461614874694,-0.7859157928459749,-0.10327328573493524
-546.1313271522522,2964.0,-756.0,16560.0,-431.0,-543.0,52.0,-0.6447285056943606,-0.04379080891276238,-0.751547286034212,-0.13260541412209884
-546.1469249725342,3004.0,-476.0,16852.0,-284.0,-520.0,-8.0,-0.6791978209860429,-0.033253865696849086,-0.7179809884404568,-0.1486196508611558
-546.1625127792358,2924.0,-192.0,16808.0,-151.0,-366.0,-167.0,-0.7043359374665746,-0.018568568135635816,-0.6942229550739134,-0.14703939648582984
-546.1781404018402,2784.0,-12.0,16520.0,-246.0,-169.0,-180.0,-0.7170486790705904,0.0052915860056238365,-0.6805474925771062,-0.1505599591779956
-546.1937601566315,2584.0,-108.0,16272.0,132.0,31.0,-121.0,-0.7168663464586951,0.004620865288278173,-0.6839732768478778,-0.13513639582631345
-546.2093901634216,2568.0,-492.0,16004.0,202.0,131.0,-98.0,-0.7101992010096498,-0.0006235903120494219,-0.6942305172936205,-0.11687897534890408
-546.2249834537506,2508.0,-824.0,16344.0,220.0,-35.0,-54.0,-0.7128145414002275,-0.01134224857451334,-0.6940667140835356,-0.10019071497369873
-546.2405707836151,2624.0,-920.0,16156.0,273.0,-204.0,71.0,-0.7240453541454922,-0.034394279943798546,-0.6832716356864483,-0.08783638490877244
-546.2561402320862,2672.0,-880.0,16140.0,226.0,-340.0,161.0,-0.7419634235775023,-0.06083511156844495,-0.6624378079719017,-0.08345967794683025
-546.2717669010162,2780.0,-876.0,16216.0,74.0,-538.0,196.0,-0.7703701292527081,-0.08076581831820093,-0.6261797198010234,-0.0889140318311392
-546.2873513698578,3092.0,-844.0,16248.0,-10.0,-537.0,183.0,-0.7974912059761289,-0.09413129096481988,-0.5878505385655057,-0.0978714501797164
-546.3029177188873,3092.0,-940.0,16588.0,-71.0,-373.0,144.0,-0.8155711236019758,-0.09967874905550092,-0.5596011406816698,-0.10841795368441112
-546.3185975551605,3288.0,-836.0,16844.0,-43.0,-17.0,94.0,-0.8159553316423749,-0.10134096479663167,-0.556992741406297,-0.11707259132336674
-546.3341703414917,3192.0,-808.0,16732.0,34.0,224.0,103.0,-0.803628070287556,-0.1064314507350222,-0.5720996693907816,-0.12472465363069073
-546.3497714996338,2864.0,-972.0,16584.0,133.0,349.0,118.0,-0.7833297552586705,-0.11775971919400263,-0.5964440126764536,-0.1295441345802715
-546.3653705120087,2984.0,-1024.0,16352.0,300.0,430.0,369.0,-0.7526159820193826,-0.15235943905163407,-0.6243401778217139,-0.14337059425985027
-546.3809502124786,3064.0,-1200.0,15984.0,338.0,404.0,668.0,-0.7158760845932322,-0.20532348862607902,-0.6443400979550556,-0.17375135882389328
-546.3965435028076,2748.0,-1464.0,15904.0,340.0,375.0,985.0,-0.670723847905018,-0.27497290863161666,-0.6521370467978677,-0.2218934238861324
-546.412139415741,2748.0,-1788.0,15880.0,271.0,234.0,1030.0,-0.628199979257038,-0.34335664360868456,-0.6433687881249708,-0.27119661468728284
-546.4277622699738,2768.0,-1432.0,15908.0,197.0,62.0,1657.0,-0.5736081773250185,-0.4410557300930278,-0.5953950746419021,-0.3492108345257066
-546.4433512687683,2776.0,-1052.0,15912.0,139.0,-53.0,1839.0,-0.5084723494644339,-0.5382329869400023,-0.5194049394071902,-0.4265907060862614
