programtime,ax,ay,az,gx,gy,gz,q0,q1,q2,q3
-1316.0754158496857,2928.0,-1084.0,16524.0,-126.0,-234.0,-2401.0,0.9784873378889343,-0.010871137882995036,-0.0202838709231077,-0.20501929795151014
-1316.090977191925,2584.0,-1592.0,16680.0,146.0,-151.0,-2464.0,0.9132456317055846,0.0029407270651425656,-0.037482467188081105,-0.40567084310865953
-1316.1066207885742,2084.0,-2036.0,16204.0,259.0,-233.0,-2252.0,0.8167141632007641,0.021940864622716084,-0.0633858519758631,-0.5731307074796966
-1316.1222047805786,1720.0,-1936.0,15500.0,241.0,-81.0,-2150.0,0.6959855009279824,0.045856980089377684,-0.07561046800924337,-0.7125899080133894
-1316.137767314911,1560.0,-1664.0,15152.0,-619.0,-470.0,-2312.0,0.5395130428126849,-0.0058544485711534,-0.0550011791415409,-0.8401584805023191
-1316.1533844470978,1868.0,-1272.0,15368.0,-1244.0,-1011.0,-2729.0,0.3218915120718927,-0.12116257729887453,-0.012120669216288068,-0.9389135070367846
-1316.1689956188202,2660.0,-1160.0,16412.0,-1375.0,-1372.0,-3156.0,0.045025113898676083,-0.2555715715384537,0.02739426524819659,-0.9653525082431225
-1316.1845970153809,3456.0,-1576.0,17220.0,-904.0,-1374.0,-3343.0,-0.2410868479067086,-0.36386167582875656,0.022458923206670978,-0.8994317146942803
-1316.2001841068268,3276.0,-2140.0,17540.0,-325.0,-1035.0,-3759.0,-0.5152817407019763,-0.42151670008718845,-0.04691954738929249,-0.7447193802497236
-1316.2158555984497,3020.0,-2184.0,16672.0,-137.0,-716.0,-3734.0,-0.7269898905761792,-0.4236609496393645,-0.13581748136271474,-0.5230207553309861
-1316.2314472198486,2424.0,-1932.0,16356.0,-293.0,-620.0,-3477.0,-0.8636100551066404,-0.37446626862990645,-0.20212519866422307,-0.27036658529124674
-1316.2470717430115,2292.0,-1860.0,15748.0,-482.0,-765.0,-3402.0,-0.930308193948352,-0.28293586516738706,-0.23338395573281084,0.0024268665070570905
-1316.2626943588257,2436.0,-1860.0,16044.0,-607.0,-363.0,-3368.0,-0.91181313043446,-0.15781703921993115,-0.27491314182179294,0.26098536693239316
-1316.2782983779907,2748.0,-1984.0,16488.0,-584.0,-288.0,-3466.0,-0.810360023405707,-0.020510775418553458,-0.29898109291348357,0.503494038334011
-1316.2939291000366,2744.0,-1816.0,17004.0,-441.0,-281.0,-3462.0,-0.6372959143624267,0.10850292628863356,-0.2911348486616869,0.7052102753211261
-1316.3095216751099,2628.0,-1756.0,16568.0,-335.0,-278.0,-3530.0,-0.404878047919281,0.22341826014087443,-0.25078500842925916,0.8504498379656694
-1316.3251554965973,2384.0,-1712.0,16264.0,-383.0,-374.0,-3499.0,-0.13938689965137313,0.32597457916669575,-0.18873986801676632,0.9157997205523092
-1316.3407485485077,2076.0,-1732.0,16012.0,-460.0,-388.0,-3467.0,0.1380647774038701,0.40100946974787843,-0.11664899213402738,0.8980659970442376
-1316.3563418388367,2520.0,-2044.0,16028.0,-540.0,-398.0,-3421.0,0.4028476692974723,0.44037910217599474,-0.04209970225997541,0.8012537780116114
-1316.3720090389252,2708.0,-2032.0,15948.0,-533.0,-403.0,-3299.0,0.6261483430555354,0.44301335872352277,0.031883693511114565,0.6408282504457808
-1316.3876042366028,2812.0,-2100.0,16288.0,-529.0,-372.0,-3204.0,0.7951846334817123,0.40945636914520644,0.10172876438667884,0.43552053790531986
-1316.4032332897186,2908.0,-1980.0,16156.0,-761.0,-384.0,-3150.0,0.9094381790061182,0.32994556186902435,0.15255512566802862,0.20195310941251013
-1316.4188342094421,2756.0,-1956.0,16236.0,-486.0,-473.0,-3185.0,0.9483922378311772,0.24730007678666402,0.19048316217153644,-0.05577634061153743
-1316.4344670772552,2752.0,-1800.0,16336.0,-520.0,-500.0,-3224.0,0.9150244372576406,0.14222892373999987,0.21238607573553234,-0.3120791042456384
-1316.450034379959,2944.0,-1676.0,16256.0,-525.0,-758.0,-3353.0,0.8079175081488714,0.016577923711857272,0.19860179916672108,-0.5545735278929778
-1316.4656257629395,3068.0,-1604.0,16084.0,-579.0,-418.0,-3493.0,0.6177427662865111,-0.10040202862642064,0.19280988218910244,-0.7557364995013887
-1316.4812185764313,2784.0,-1680.0,16268.0,-618.0,-392.0,-3832.0,0.3466377854514406,-0.21210040700841323,0.1690276492546547,-0.8979339156261066
-1316.4967982769012,2760.0,-1820.0,16176.0,-617.0,-760.0,-3654.0,0.05703948877087927,-0.32672103672616715,0.12014594011679189,-0.9357162037470483
-1316.5123991966248,2756.0,-2020.0,16128.0,-591.0,-454.0,-3654.0,-0.24102707415270677,-0.3849457533129809,0.05884929176414165,-0.8889653971840221
-1316.5280702114105,2872.0,-2084.0,16380.0,-531.0,-398.0,-3482.0,-0.5034675848337434,-0.40344428253682835,-0.008168215890722162,-0.7639937055756308
-1316.5436568260193,2832.0,-2120.0,16208.0,-456.0,-329.0,-3572.0,-0.7228494646398931,-0.3839150257621561,-0.08489105808487361,-0.5682353497637168
-1316.5592918395996,2760.0,-2056.0,16332.0,-433.0,-383.0,-3025.0,-0.8597737825331719,-0.34087249389851415,-0.1356927337467029,-0.35522171636930644
-1316.5748760700226,2680.0,-2036.0,16440.0,-456.0,-377.0,-2920.0,-0.93724546630238,-0.2744291522701441,-0.1742125785232574,-0.12613307957947484
-1316.5904650688171,2828.0,-1956.0,16412.0,-264.0,-377.0,-2846.0,-0.9510660437583331,-0.20705726889198955,-0.20216696806486495,0.10830136117483712
-1316.6060891151428,3044.0,-2012.0,16308.0,-395.0,-205.0,-2661.0,-0.9118015904312591,-0.12185563479315614,-0.23047527834022052,0.3172541725969594
-1316.6217005252838,2920.0,-2056.0,16324.0,-353.0,-163.0,-2506.0,-0.8294268827043162,-0.0377600979841381,-0.24770724724948967,0.49926580186080144
-1316.6373569965363,2784.0,-2108.0,16416.0,-501.0,-107.0,-2176.0,-0.7249429109114641,0.049409319328589045,-0.2637325800518313,0.6343986296500828
-1316.6529667377472,2624.0,-2184.0,16408.0,-238.0,-51.0,-1835.0,-0.6155356429682696,0.10818374262862691,-0.26209379115807113,0.7353359740301647
-1316.6685845851898,2596.0,-2144.0,16128.0,-306.0,-38.0,-1545.0,-0.5095857810929079,0.16088877843341337,-0.2623561160685758,0.803496360317548
-1316.6841795444489,2740.0,-2136.0,16128.0,-280.0,-1.0,-1323.0,-0.41006708845175727,0.20224856257601778,-0.2612926517099066,0.8500980249753782
-1316.699820280075,2672.0,-1964.0,16364.0,-286.0,82.0,-1160.0,-0.3153775787704993,0.23149463682656113,-0.2632980126490178,0.8818284257521264
-1316.7154340744019,2644.0,-1832.0,16136.0,-273.0,205.0,-1088.0,-0.22033293741777374,0.24689115797731093,-0.2664351221709215,0.9052681804168553
-1316.7310407161713,2668.0,-1784.0,16204.0,-142.0,240.0,-894.0,-0.1405902112979742,0.25047714023425927,-0.26192593713054224,0.9213524831276819
-1316.746656179428,2800.0,-1996.0,16088.0,-110.0,131.0,-695.0,-0.07914650017529357,0.2565355576807698,-0.25648516050810066,0.9285153211415267
-1316.7622344493866,2720.0,-2080.0,16088.0,-81.0,28.0,-409.0,-0.04352970032806579,0.263648564237551,-0.2537276425310868,0.929632660345173
-1316.7778289318085,2780.0,-2032.0,16164.0,-12.0,31.0,-163.0,-0.029335270616977476,0.264596714437196,-0.25085907149387077,0.9306974518371169
-1316.7934064865112,2800.0,-2036.0,16392.0,-27.0,126.0,43.0,-0.029440628989989746,0.2533035239479613,-0.2541696897700078,0.9329353369459409
-1316.8089764118195,2720.0,-1900.0,16344.0,11.0,221.0,119.0,-0.03445809033603894,0.23242234548634308,-0.25622141418922717,0.9376263009535798
-1316.8245587348938,2648.0,-1908.0,16368.0,111.0,224.0,310.0,-0.05703019700500161,0.20654720006215466,-0.25374280344680444,0.9432393124096404
-1316.8401308059692,2600.0,-1852.0,16304.0,204.0,265.0,405.0,-0.08808218041415959,0.17442504890787883,-0.24508796424076834,0.9496048239090236
-1316.8557522296906,2680.0,-1884.0,16264.0,2.0,186.0,268.0,-0.10629437474818143,0.15308788900395817,-0.2500847089884533,0.950117488770397
-1316.8714163303375,2720.0,-2000.0,16148.0,298.0,135.0,649.0,-0.16081423555654809,0.12462767031082583,-0.23456392942808904,0.9505716640246087
-1316.8870038986206,2836.0,-1924.0,16240.0,361.0,146.0,798.0,-0.22726263978981773,0.09079465993045346,-0.2144186584765329,0.9455858824987823
-1316.9026267528534,2828.0,-1960.0,16420.0,364.0,508.0,898.0,-0.2934020823232713,0.024742811621819717,-0.2003640833126272,0.9344288338229435
-1316.918300628662,2684.0,-1816.0,16532.0,377.0,271.0,874.0,-0.35940443106365816,-0.02209945326163891,-0.17750269681631653,0.9158781915300089
-1316.9339866638184,2700.0,-1696.0,16300.0,415.0,298.0,855.0,-0.42073768839373327,-0.07172620052062814,-0.1512117548471017,0.8916109885594908
-1316.949589729309,2544.0,-1800.0,16020.0,396.0,172.0,924.0,-0.4859705383873878,-0.11116248333746359,-0.12026116256819996,0.8584944908940684
-1316.965235710144,2612.0,-1832.0,16132.0,396.0,97.0,883.0,-0.5453201900927723,-0.14370212737999521,-0.08568770116726213,0.8213605826507114
-1316.980881690979,2576.0,-1896.0,16284.0,388.0,90.0,865.0,-0.5997431536793562,-0.1741962998927703,-0.051037051478703396,0.7793324182239364
-1316.9964909553528,2700.0,-1852.0,16448.0,334.0,112.0,780.0,-0.645456804615311,-0.20191249260882146,-0.022200862586761908,0.7362906901521223
-1317.0120952129364,2656.0,-1664.0,16216.0,276.0,127.0,726.0,-0.685431975256144,-0.2262019401352922,0.0012095730638001683,0.6921085366533879
-1317.0277330875397,2548.0,-1576.0,16088.0,505.0,81.0,612.0,-0.7107768159389157,-0.26032379263370115,0.038876886886778775,0.6523162029097049
-1317.0432796478271,2484.0,-1544.0,16376.0,186.0,251.0,582.0,-0.7393767849327958,-0.283431408026673,0.047031270893138175,0.6089143342085455
-1317.058861732483,2708.0,-1836.0,16288.0,92.0,148.0,758.0,-0.7762774942171811,-0.2931793697468439,0.06097037085737055,0.5547267101954372
-1317.0744738578796,2900.0,-1848.0,16524.0,-60.0,475.0,768.0,-0.8150635486189199,-0.30680551118456895,0.04538116712825425,0.4893693285133289
-1317.0900683403015,3032.0,-1740.0,16896.0,-294.0,857.0,647.0,-0.8500445959299779,-0.3181733833976245,-0.01076078302194461,0.4196118308345268
-1317.1056423187256,2448.0,-1548.0,16936.0,-507.0,1177.0,232.0,-0.8660244492491972,-0.32155770780905235,-0.10947029983806841,0.3669040028462162
-1317.1212344169617,2348.0,-1704.0,16664.0,-609.0,1350.0,-9.0,-0.8628443336477876,-0.31581506465452425,-0.22927554627463953,0.3212370226322454
-1317.136848449707,2520.0,-1596.0,16672.0,-643.0,1519.0,-107.0,-0.8385940417083565,-0.30450768666086825,-0.36079243011354745,0.2717791830667881
-1317.1524538993835,2748.0,-1844.0,16216.0,-691.0,1105.0,197.0,-0.8215235050020986,-0.28434270997953764,-0.44973178811033226,0.2049138179177837
-1317.1680839061737,2668.0,-2392.0,16336.0,-681.0,799.0,446.0,-0.8111335706254734,-0.2658942351156697,-0.5055117548715878,0.12577937837050626
-1317.1837038993835,2600.0,-2720.0,15788.0,-445.0,389.0,693.0,-0.809455933276155,-0.2683073281980947,-0.520091944803902,0.04792325812508565
-1317.1992819309235,2652.0,-2604.0,15520.0,-155.0,30.0,1074.0,-0.8126800889724952,-0.30479809473690417,-0.49536539429461884,-0.03552915095730825
-1317.2148609161377,2592.0,-2656.0,15212.0,-30.0,-312.0,1513.0,-0.8149985125687788,-0.3656669899152743,-0.42887997957932167,-0.13463669675471598
-1317.230429649353,3184.0,-2952.0,15164.0,170.0,-731.0,2153.0,-0.7961165753230616,-0.4578768039768266,-0.30406748769055203,-0.25316041121273875
-1317.2460069656372,3800.0,-3224.0,14952.0,407.0,-1168.0,3026.0,-0.7155063568568719,-0.5694390057528194,-0.10658545733317754,-0.39042209505831577
-1317.26158452034,3912.0,-3380.0,15428.0,665.0,-1441.0,3971.0,-0.5252016470655383,-0.6528861061716251,0.1482169337316626,-0.5252948722792592
-1317.2771649360657,3864.0,-3864.0,15700.0,895.0,-1555.0,4836.0,-0.21188932660369178,-0.6405898848246138,0.41405608360116736,-0.6109869657895207
-1317.292757987976,3688.0,-3636.0,15808.0,1029.0,-1593.0,5586.0,0.17881931715359042,-0.4823969671588354,0.6231913835258981,-0.5890240380389906
-1317.3083436489105,3572.0,-3160.0,15616.0,1584.0,-1579.0,6205.0,0.5637201735650578,-0.1744203633999798,0.6745042087433092,-0.44366786579012296
-1317.3239810466766,3468.0,-2596.0,15736.0,1838.0,-1481.0,6610.0,0.7972244655527585,0.21134042901622327,0.5380187867635274,-0.17408089980483024
-1317.339570760727,2832.0,-2140.0,15616.0,2032.0,-1430.0,6695.0,0.7881392319758902,0.5476763974474479,0.2409965730226102,0.14424897396791586
-1317.3551573753357,3152.0,-1848.0,16164.0,2229.0,-1412.0,6651.0,0.5323350080327185,0.7282326526649481,-0.12393396586377825,0.4134452985833249
-1317.3707842826843,2920.0,-1516.0,16752.0,2303.0,-1343.0,6357.0,0.12171250655645957,0.6982006466483685,-0.4347077197549347,0.555635781022973
-1317.3864006996155,2572.0,-1396.0,16580.0,2231.0,-1420.0,5984.0,-0.3111998894297711,0.4894514337414706,-0.6132972069354228,0.5361515259630678
-1317.4020068645477,2628.0,-1140.0,16236.0,2115.0,-1438.0,5591.0,-0.6522512810403444,0.1761654924250189,-0.6291644976635344,0.3842993892002338
-1317.4175791740417,2508.0,-1136.0,16092.0,2114.0,-1587.0,5168.0,-0.8432695858226744,-0.15592530709976551,-0.48813938029897,0.16218399931447147
-1317.4331555366516,2548.0,-1352.0,15860.0,2130.0,-1750.0,4829.0,-0.8612124871287039,-0.44407846596540107,-0.23685224074730743,-0.07076993805555962
-1317.44873213768,2572.0,-1356.0,15936.0,2079.0,-1843.0,4523.0,-0.7176094220055188,-0.6397791116393696,0.058324183791028286,-0.26891949602800214
-1317.464340209961,2588.0,-1428.0,15900.0,1863.0,-1839.0,4139.0,-0.46632339702674513,-0.7157987669710352,0.3319029925423781,-0.40001877222149984
-1317.4799547195435,2700.0,-1444.0,16452.0,1556.0,-2032.0,3849.0,-0.1631144732379341,-0.6848675325429935,0.5571339099355721,-0.4403997478299513
-1317.4955389499664,2808.0,-1644.0,16452.0,1442.0,-1642.0,3586.0,0.1321861908733096,-0.5577917150962648,0.6942648013053142,-0.43519145118081665
-1317.5111227035522,2840.0,-1808.0,16640.0,1745.0,-1656.0,3831.0,0.43070077120979405,-0.3426183069969329,0.7397724850295235,-0.3870997439718702
-1317.5267071723938,3048.0,-1784.0,16204.0,1996.0,-1843.0,3696.0,0.6817276559635808,-0.08462618582230441,0.6623719679021273,-0.29891334514376194
-1317.5423007011414,3052.0,-1752.0,15776.0,2296.0,-1962.0,3880.0,0.8393872183721794,0.20688985007180324,0.47255354098864405,-0.17122744660181044
-1317.557915687561,3224.0,-1596.0,15708.0,1882.0,-1803.0,4108.0,0.8663720865833808,0.44843809218526337,0.2190411636253272,0.01799037809670665
-1317.5735313892365,3552.0,-1736.0,15980.0,1710.0,-2271.0,4224.0,0.7642465965232279,0.604884694407675,-0.10551269540091443,0.19725292718545295
-1317.5891427993774,3804.0,-1300.0,16112.0,1648.0,-2319.0,4602.0,0.5215062936295605,0.6440262957334805,-0.429372383080563,0.3590273983365179
-1317.604743719101,4020.0,-1192.0,16156.0,1677.0,-2199.0,4213.0,0.19483196625119348,0.5778673235869736,-0.6533241687750884,0.44863948973698425
-1317.6203093528748,4016.0,-1248.0,15916.0,1754.0,-2086.0,4006.0,-0.15607745202719872,0.4244908618611464,-0.7572124917122612,0.47125001810078193
-1317.6359128952026,3596.0,-1188.0,15904.0,1695.0,-1986.0,3340.0,-0.4572587463663982,0.24600125107051335,-0.7353980771488726,0.43541645750811153
-1317.651483297348,3468.0,-1036.0,15944.0,1643.0,-1902.0,3135.0,-0.6924778315114636,0.048552407473000825,-0.626824097805645,0.35384836724774604
-1317.667115688324,3436.0,-836.0,16060.0,1521.0,-1724.0,2690.0,-0.837369234089532,-0.13119471518668482,-0.46520472242587774,0.25531407861701866
-1317.6826930046082,3072.0,-632.0,16376.0,1426.0,-1564.0,2119.0,-0.9015479750413833,-0.27723205183314387,-0.2850750486153162,0.17054575571424116
-1317.6982595920563,3284.0,-420.0,16520.0,1352.0,-1380.0,1339.0,-0.904349724872883,-0.388168681723951,-0.12124774169749868,0.12952078900426556
-1317.7138273715973,3072.0,-324.0,16880.0,1192.0,-1103.0,667.0,-0.8730898778371439,-0.4711558501048338,0.0019777518663656683,0.12538867025320963
-1317.7294118404388,3480.0,-80.0,16992.0,1099.0,-775.0,-126.0,-0.8208150144605636,-0.5425070636266779,0.06746618270974286,0.1655207302480268
-1317.744998216629,3548.0,8.0,17000.0,942.0,-460.0,-724.0,-0.7584846544507998,-0.6037376057575994,0.07927879289150248,0.23219992539705583
-1317.7605862617493,3520.0,-160.0,16532.0,833.0,-349.0,-1062.0,-0.6857044465234206,-0.6542062007414974,0.0628500372606248,0.3128474576302694
-1317.7762463092804,3440.0,-296.0,16004.0,856.0,-434.0,-1118.0,-0.5990834754922039,-0.6938965042574382,0.04797606725165905,0.39661685257002577
-1317.7918875217438,3444.0,-1068.0,15748.0,810.0,-612.0,-999.0,-0.509044245434012,-0.713659217418081,0.04715906075639789,0.47889508305400663
-1317.8074724674225,3684.0,-1444.0,15856.0,658.0,-520.0,-803.0,-0.43021651956837514,-0.7206833141753248,0.047509937487846474,0.5415460394090652
-1317.8230979442596,3816.0,-1564.0,16036.0,512.0,-740.0,-596.0,-0.36520807652054327,-0.7041927894227811,0.06173818867252584,0.6057424966341418
-1317.8386716842651,4048.0,-1428.0,16320.0,474.0,-573.0,-396.0,-0.3112566149960876,-0.6891831758256605,0.08050791531949468,0.6493568705657494
-1317.85422706604,4112.0,-944.0,16508.0,417.0,-341.0,-433.0,-0.25880679136003387,-0.6828857273383909,0.08719892276134728,0.6775562530245745
-1317.8698146343231,4032.0,-540.0,16576.0,365.0,-93.0,-648.0,-0.19763449826462956,-0.6889898382634129,0.0721019883204073,0.6935668036647141
-1317.8853890895844,3928.0,-204.0,16320.0,207.0,10.0,-876.0,-0.1318391584843293,-0.6964340822553223,0.03167574230628913,0.7046947230628852
-1317.9009597301483,3872.0,-60.0,16108.0,139.0,-65.0,-1240.0,-0.046676458000196146,-0.6932546886713281,-0.034206327281246264,0.718365625623682
-1317.9165630340576,3784.0,-104.0,16128.0,137.0,-133.0,-1508.0,0.055290160207333204,-0.6749537292192576,-0.11531605944716884,0.7266929668235694
-1317.9322621822357,3864.0,-536.0,16032.0,83.0,-199.0,-1636.0,0.1603172277783926,-0.6387622713360452,-0.20527403847296707,0.7239777043003923
-1317.9479296207428,3932.0,-708.0,16092.0,103.0,-155.0,-1559.0,0.2594182936163651,-0.5939245501224294,-0.28517753112293104,0.7061370642033121
-1317.9635231494904,3884.0,-948.0,16044.0,112.0,-135.0,-1283.0,0.3388438936685005,-0.5475225960264508,-0.3456165906202904,0.6826074969204724
-1317.9802839756012,3856.0,-1016.0,16100.0,144.0,-146.0,-1346.0,0.41864307051152316,-0.4903818021676783,-0.4028067652322626,0.6496232581262654
-1317.9963104724884,3996.0,-896.0,16004.0,213.0,-142.0,-1255.0,0.4909515643423118,-0.4276290976321903,-0.446795212143306,0.6135747344325168
-1318.0119986534119,4192.0,-868.0,16140.0,294.0,-200.0,-1210.0,0.5556605654913414,-0.3548573692321983,-0.4817981246316696,0.577224523526896
-1318.0276107788086,4120.0,-552.0,16036.0,283.0,-118.0,-1189.0,0.6159361529856332,-0.28343618579389734,-0.5070883032479416,0.532116563110931
-1318.0432906150818,4336.0,-452.0,16092.0,161.0,-115.0,-1121.0,0.6637276575557626,-0.2186290741639839,-0.5307953453979293,0.4795031030448422
-1318.0588896274567,4340.0,-488.0,16176.0,92.0,-142.0,-1049.0,0.6999100949601871,-0.15797722694761435,-0.5526829438917996,0.4239228918917419
-1318.0745224952698,4360.0,-600.0,16012.0,58.0,-124.0,-1278.0,0.7374981165053307,-0.08756490350759577,-0.5719981105582865,0.34820551021278373
-1318.090170621872,4348.0,-728.0,15920.0,71.0,-1.0,-882.0,0.7626364993506886,-0.03876452073559864,-0.574774830551278,0.2941373419935257
-1318.1057896614075,4348.0,-816.0,15884.0,203.0,103.0,-881.0,0.788735149171414,0.01627895571996709,-0.5637454600037851,0.2445872367629504
-1318.1213495731354,4268.0,-908.0,16108.0,312.0,92.0,-801.0,0.8077323808675277,0.07499656312981906,-0.5478823428593557,0.20437430073209703
-1318.136931180954,4172.0,-736.0,15904.0,372.0,133.0,-727.0,0.8225936086745459,0.1332455330142325,-0.525566961755705,0.17136146477670697
-1318.1525242328644,4268.0,-620.0,16108.0,350.0,180.0,-642.0,0.8346914179519137,0.1846830779971777,-0.4986929731297896,0.14313530679005398
-1318.168105840683,4096.0,-280.0,15988.0,346.0,168.0,-601.0,0.8424133379998456,0.23342540224741742,-0.4713622785653839,0.11691856948850736
-1318.1837334632874,4112.0,-620.0,15984.0,344.0,52.0,-593.0,0.8421924171976715,0.28197671354088005,-0.45098387895745623,0.08840026219369618
-1318.1993253231049,3996.0,-688.0,15868.0,318.0,-40.0,-489.0,0.8355903301476469,0.32436926741982586,-0.4387318749221392,0.06393528325248969
-1318.2149331569672,4060.0,-664.0,15872.0,247.0,-163.0,-449.0,0.8240686225699552,0.359964499550757,-0.4359344504720002,0.03602248256998557
-1318.2305309772491,3992.0,-644.0,15912.0,225.0,-7.0,-355.0,0.817413289369753,0.38928810090641375,-0.42418766749364756,0.018844405023694884
-1318.2461581230164,4004.0,-616.0,15988.0,194.0,-320.0,-318.0,0.7988794125658528,0.4149196322720539,-0.4354045289359228,-0.007501940798785031
-1318.261765241623,3920.0,-632.0,15900.0,300.0,-378.0,-510.0,0.7719848120994823,0.4540016238485555,-0.44257731249828314,-0.045247076064632887
-1318.2773809432983,3944.0,-600.0,15988.0,324.0,-404.0,-228.0,0.7418511279652164,0.48234539951818856,-0.4614137338728383,-0.06400926256332659
-1318.292967557907,3948.0,-612.0,16004.0,280.0,-430.0,-117.0,0.7114554643408627,0.5021537797216268,-0.4853238620554321,-0.07831636285228576
-1318.3085598945618,4024.0,-580.0,16356.0,220.0,-394.0,-86.0,0.6840968976335717,0.5162579983006889,-0.5070627573855274,-0.09152307857187894
-1318.3241517543793,4180.0,-548.0,16280.0,193.0,-283.0,-81.0,0.6620251994206564,0.5287717832810246,-0.5215552819302094,-0.1005142996222188
-1318.3398072719574,4296.0,-484.0,16372.0,249.0,-154.0,-31.0,0.6431460466387914,0.5429617463000944,-0.5309842790383303,-0.09803774865729224
-1318.3554167747498,4592.0,-568.0,16308.0,305.0,-22.0,30.0,0.6278091074518067,0.5582285734203561,-0.5360140300031637,-0.08321985374541063
-1318.3710083961487,4224.0,-648.0,16260.0,399.0,75.0,149.0,0.612626357459114,0.5731883442736186,-0.5416351042075276,-0.05268284374771382
-1318.3868899345398,4044.0,-616.0,16192.0,356.0,137.0,234.0,0.6020102140598671,0.5812821046371003,-0.5471964946585944,-0.016456403908604474
-1318.4024889469147,4028.0,-496.0,16160.0,345.0,115.0,227.0,0.5900110896680861,0.5882583733080546,-0.5527408214523147,0.017792824448612132
-1318.4180645942688,4060.0,-456.0,16064.0,311.0,201.0,264.0,0.5829683494590208,0.5906979922371813,-0.5549859755740375,0.05669525916795537
-1318.4336321353912,4040.0,-272.0,15872.0,394.0,283.0,263.0,0.5744921504941871,0.595853890408872,-0.5515161827776198,0.10366682419935087
-1318.449196100235,4100.0,-504.0,16244.0,491.0,227.0,322.0,0.5562239350267842,0.6019515676325589,-0.5515660960439176,0.15506155559292042
-1318.4647719860077,4084.0,-536.0,16244.0,535.0,308.0,349.0,0.5372802817744893,0.6057360109418899,-0.5466221787999134,0.21358365459128104
-1318.4803771972656,4008.0,-496.0,16148.0,557.0,345.0,425.0,0.5152581299413562,0.6036863919311941,-0.5412312743895572,0.27774179978730035
-1318.496066570282,4136.0,-472.0,16316.0,582.0,479.0,422.0,0.49566341818447895,0.5965562668245754,-0.5262749799803679,0.3485298291863521
-1318.5116593837738,4108.0,-348.0,16360.0,675.0,612.0,429.0,0.4738276373531164,0.5851099526938359,-0.4996207209069869,0.42838399664245547
-1318.5272777080536,4156.0,-168.0,16184.0,766.0,610.0,563.0,0.43820468262311685,0.566605149002967,-0.4721527237349196,0.5138161798933502
-1318.5428664684296,4140.0,-84.0,16008.0,658.0,572.0,373.0,0.4111681001741846,0.5487853034496379,-0.4376431522169813,0.5815874443576176
-1318.558453798294,4080.0,-80.0,15668.0,381.0,561.0,264.0,0.40020285321712146,0.5227454122859069,-0.40990906174558195,0.6313077469109413
-1318.5740797519684,4080.0,-116.0,16120.0,350.0,470.0,115.0,0.3942376489409036,0.5041672473102365,-0.3788501264912808,0.6684793523772504
-1318.5896685123444,4332.0,-108.0,16048.0,402.0,461.0,62.0,0.3876745792170082,0.48823119772352613,-0.3416728407094842,0.7032768929233194
-1318.6053230762482,4212.0,-176.0,16308.0,459.0,558.0,58.0,0.3804881590909721,0.4667137358941037,-0.2963961012449345,0.7413207137846173
-1318.6208865642548,4208.0,-292.0,16332.0,443.0,735.0,180.0,0.36877881357464287,0.427805198012344,-0.2498234085449257,0.7864942235993174
-1318.6365005970001,4152.0,-164.0,16212.0,469.0,807.0,405.0,0.33976588731500645,0.3770112004878246,-0.205856745145483,0.8366867376753879
-1318.6520738601685,3872.0,248.0,15932.0,301.0,632.0,213.0,0.3250405677770663,0.33508093614640616,-0.17166920766499902,0.8675246847612359
-1318.667649269104,3680.0,152.0,15836.0,8.0,353.0,-21.0,0.3315660508345824,0.3085364397633224,-0.1602322059431809,0.8770375473437354
-1318.6832721233368,3748.0,144.0,15760.0,-148.0,22.0,-204.0,0.3514297747496161,0.3051335118338239,-0.16525754883690813,0.869528950597856
-1318.6988458633423,3732.0,144.0,15852.0,-159.0,-207.0,-356.0,0.3794590113906631,0.32065279064572455,-0.17392832224729624,0.8502597163489345
-1318.7144820690155,4004.0,-88.0,16004.0,-92.0,-397.0,-290.0,0.39719604030660277,0.3509270159761622,-0.1854900726756197,0.8274533025866868
-1318.7300777435303,4120.0,-380.0,15936.0,-254.0,-377.0,-38.0,0.40134386555438584,0.36946529628401226,-0.2154681141278828,0.809933323316064
-1318.7456645965576,4208.0,-580.0,15996.0,-15.0,-305.0,206.0,0.3813773968508374,0.38623483363216105,-0.23363089794134098,0.8067158966994131
-1318.7612943649292,4256.0,-584.0,15956.0,-5.0,-207.0,412.0,0.3480780467877176,0.3917425768988618,-0.25445059433825995,0.8127941448054318
-1318.7769062519073,4168.0,-588.0,16028.0,-137.0,-225.0,503.0,0.31174274169339183,0.3917198923372662,-0.287739003784727,0.8164424380504364
-1318.7925324440002,4136.0,-560.0,16028.0,-184.0,-272.0,633.0,0.2656242644549986,0.389292607677147,-0.3291358297419228,0.8182692841117547
-1318.8081712722778,4292.0,-576.0,16056.0,-80.0,-367.0,800.0,0.20011066278207063,0.3893790684259604,-0.36931306383755064,0.8197240539300851
-1318.8238098621368,4232.0,-676.0,15960.0,15.0,-422.0,1161.0,0.10237218646943201,0.3800935514690178,-0.41254435425901087,0.8214961858329916
-1318.8394191265106,4224.0,-704.0,16260.0,73.0,-373.0,1408.0,-0.014298492242199173,0.3538425310630135,-0.45355829680609666,0.8178483280712096
-1318.8549966812134,4164.0,-516.0,16192.0,68.0,-261.0,1652.0,-0.14312672558644188,0.3036919221512661,-0.49401349621809354,0.8020203378950862
-1318.8706183433533,3888.0,-580.0,15884.0,5.0,-201.0,1727.0,-0.26973742671437084,0.24042731176806148,-0.5307077247217746,0.7666718589501835
-1318.8862047195435,3692.0,-428.0,15616.0,-76.0,-357.0,1660.0,-0.3915003415523294,0.18713298526778022,-0.5559904103772562,0.7089311616494995
-1318.9018137454987,3852.0,-312.0,15892.0,-168.0,-487.0,1434.0,-0.49678727302906256,0.152065517264008,-0.5680170002061351,0.6383064869577944
-1318.9174273014069,3900.0,-292.0,16128.0,-201.0,-643.0,1237.0,-0.5905238796371642,0.1342598759048487,-0.5633618391846138,0.5620313794182811
-1318.9330911636353,4316.0,-420.0,17136.0,-168.0,-610.0,981.0,-0.6633047558407122,0.12396127976422663,-0.5486638907875149,0.4935872131084984
-1318.948751449585,4336.0,-432.0,16892.0,-130.0,-343.0,823.0,-0.7116574331027453,0.10652005720711138,-0.54148092287559,0.43473622518028626
-1318.9643507003784,3788.0,-608.0,16868.0,1.0,70.0,512.0,-0.7271297116183256,0.07951867928917125,-0.5498323116159491,0.4032909510874475
-1318.980073928833,3504.0,-764.0,16232.0,216.0,480.0,794.0,-0.7311078911149049,0.010770675292640097,-0.5760613689526092,0.36540189285730723
-1318.9957151412964,3236.0,-1000.0,15832.0,281.0,765.0,885.0,-0.7172829202256948,-0.07562976080455076,-0.6132366578228192,0.3220654485278485
-1319.0113101005554,2956.0,-788.0,15420.0,237.0,696.0,676.0,-0.6949270657410896,-0.14564140391932506,-0.6431264034721702,0.28679850753070285
-1319.0268986225128,2796.0,-668.0,15292.0,51.0,767.0,306.0,-0.6572659923077047,-0.184603267631674,-0.6826050076082506,0.26071718877668326
-1319.0424847602844,2816.0,-556.0,15168.0,-162.0,219.0,-88.0,-0.6447126304503172,-0.17496442517316185,-0.6999665943709621,0.2525467101871949
-1319.0580687522888,3028.0,-612.0,15104.0,-237.0,-194.0,-422.0,-0.6502937958362435,-0.13140029641748205,-0.6999060285877717,0.2645439327309946
-1319.0736627578735,3388.0,-752.0,15644.0,-297.0,-282.0,-666.0,-0.6541109146148828,-0.06715615475168911,-0.6966824038391363,0.2868145575830686
-1319.089280128479,3984.0,-812.0,15900.0,-259.0,-84.0,-742.0,-0.6407190077919345,-0.005105785552910406,-0.7009575672117815,0.31322766955769976
-1319.1048741340637,4300.0,-860.0,16844.0,-158.0,403.0,-724.0,-0.5948057883894751,0.0369286072896027,-0.7260800185189192,0.34300168916434093
-1319.1204674243927,4264.0,-612.0,16608.0,37.0,749.0,-840.0,-0.5198709022081334,0.06551704787655196,-0.7574193363704842,0.3895609199688011
-1319.1360664367676,3544.0,-480.0,16144.0,110.0,693.0,-1044.0,-0.4366181744532819,0.105359507544317,-0.7744258431785879,0.4455654355133886
-1319.1516587734222,3196.0,-564.0,15588.0,-89.0,334.0,-1080.0,-0.36945889495446627,0.1679546106345918,-0.7768154516127265,0.48150714204601724
-1319.167296409607,3368.0,-956.0,15576.0,-193.0,67.0,-1269.0,-0.3068594127104355,0.2558106192491247,-0.7636202220150038,0.5072301099502494
-1319.1829071044922,3732.0,-1448.0,16608.0,-197.0,157.0,-1174.0,-0.23873300242436712,0.3305768366831334,-0.7461745883497134,0.5262594344077414
-1319.198493719101,3976.0,-1564.0,17560.0,-123.0,525.0,-1489.0,-0.13135322076483705,0.40217158517182156,-0.712949123451643,0.5592029102612236
-1319.2140724658966,4056.0,-1204.0,17664.0,134.0,762.0,-1834.0,0.0008762383169705786,0.47050414821586034,-0.641083402101676,0.6063308917314211
-1319.2296566963196,3896.0,-876.0,17052.0,410.0,727.0,-1857.0,0.12112551321975024,0.5276669286352663,-0.5346038621675678,0.6489182791595541
-1319.245288848877,3556.0,-916.0,15608.0,472.0,430.0,-1426.0,0.1984178646724066,0.569506925671159,-0.43354558158746226,0.6695748212690026
-1319.2608869075775,3772.0,-1712.0,14908.0,553.0,224.0,-719.0,0.22072463418666982,0.5911467235444201,-0.36033547273650807,0.6870113057247423
-1319.2764973640442,4480.0,-2148.0,15036.0,508.0,-397.0,254.0,0.16651555195273526,0.6155215734580674,-0.34993203749777474,0.6862603971512833
-1319.2920982837677,5068.0,-2284.0,16052.0,353.0,-455.0,1000.0,0.07339679995785779,0.6141529730181684,-0.38711876344303,0.683789513285507
-1319.3077104091644,5396.0,-2160.0,16740.0,55.0,-275.0,1372.0,-0.020569618395341726,0.5801485440434145,-0.45569946753520796,0.6747907475147419
-1319.3232905864716,5324.0,-1736.0,16700.0,-188.0,-161.0,1759.0,-0.11962570154753004,0.5137876008273903,-0.5489329563654801,0.6483707289669618
-1319.3388636112213,5072.0,-1356.0,15788.0,-245.0,-257.0,1501.0,-0.2040621671812293,0.4548170559467093,-0.6217457642638705,0.6040962524012243
-1319.3544435501099,4888.0,-1312.0,15004.0,-239.0,-617.0,1484.0,-0.3032894076142665,0.4069680163962048,-0.6754394064478907,0.5349524998323185
-1319.3700213432312,4900.0,-1552.0,14592.0,-191.0,-777.0,1370.0,-0.40247385185981993,0.3640426752436314,-0.7056494346269416,0.45557283125890785
-1319.3856329917908,5192.0,-2028.0,14684.0,-120.0,-1303.0,1426.0,-0.5281849451669247,0.32758868649695766,-0.6999677387197016,0.35178328688247573
-1319.40123462677,5496.0,-1788.0,14480.0,-29.0,-1591.0,1536.0,-0.6596104890025283,0.2787769666263466,-0.6591747195408002,0.2295345176542422
-1319.4168529510498,5588.0,-1688.0,14692.0,85.0,-1777.0,1618.0,-0.7794305475591065,0.21176236026878564,-0.5817486296516097,0.09598570832982772
-1319.4324550628662,5708.0,-1476.0,14708.0,276.0,-2046.0,1648.0,-0.8792425541227282,0.12319047148918807,-0.45852420990611026,-0.038886857471259244
-1319.4480648040771,6132.0,-1612.0,14604.0,474.0,-1694.0,1703.0,-0.9255345268769706,0.012602332616713698,-0.34054902508807305,-0.16508598451353543
-1319.4636578559875,5924.0,-1956.0,14632.0,838.0,-1658.0,1777.0,-0.9271399673492966,-0.12859461257362886,-0.21503988260433557,-0.2786265519473999
-1319.4793140888214,6020.0,-2240.0,14748.0,1208.0,-1682.0,2118.0,-0.8652388636458139,-0.2971422058901432,-0.0815824431674148,-0.395490231589196
-1319.4948918819427,6348.0,-2504.0,14452.0,1637.0,-1912.0,2401.0,-0.7210637733983734,-0.4819630284657974,0.06581436161724132,-0.4934036316136023
-1319.510460615158,6500.0,-2440.0,14480.0,1906.0,-2174.0,2671.0,-0.48555995690665277,-0.6431336252569458,0.220365221796533,-0.5495906088491984
-1319.5260331630707,6280.0,-2112.0,14392.0,1989.0,-2349.0,2852.0,-0.18023508166048124,-0.7372577035182865,0.36115836550209107,-0.5417850394479714
-1319.5416004657745,6156.0,-1644.0,14892.0,2007.0,-2501.0,2832.0,0.15146945113240226,-0.7473618513302568,0.45699853807358687,-0.45788601720129496
-1319.557169675827,6264.0,-1324.0,15052.0,1965.0,-2693.0,2890.0,0.4690405698262775,-0.6660118522132521,0.4958548209824782,-0.3009271557652265
-1319.5727367401123,6448.0,-1288.0,14540.0,1999.0,-2926.0,2577.0,0.7282041978199812,-0.5131920872596588,0.44207189065904523,-0.10452258770509652
-1319.588338136673,6804.0,-1536.0,15012.0,1759.0,-2674.0,2980.0,0.8758067500772467,-0.29029238512116906,0.36382544001170425,0.12776508466746198
-1319.6039581298828,7140.0,-1584.0,14832.0,1711.0,-2572.0,3193.0,0.8999954160240307,-0.027351193265163068,0.24893752061815025,0.35677762568747406
-1319.6195485591888,7252.0,-1752.0,14868.0,1747.0,-2465.0,3334.0,0.7948425270458225,0.24117177789499938,0.10926143680034883,0.5460068398607288
-1319.6351277828217,7024.0,-1588.0,15236.0,1743.0,-2475.0,3253.0,0.5843384591936863,0.47635582631799417,-0.04485648903632484,0.6554552518909155
-1319.6507217884064,7080.0,-1496.0,15328.0,1604.0,-2436.0,3237.0,0.3018539885572825,0.639960344973216,-0.19816537185547953,0.678281218854836
-1319.6663043498993,7040.0,-1564.0,15280.0,1476.0,-2398.0,3309.0,-0.01679884791172541,0.7138602338649448,-0.3354816518607137,0.6144700370888168
-1319.681936264038,7264.0,-1584.0,15196.0,1413.0,-2461.0,2994.0,-0.31754959548355427,0.711338401006325,-0.4164363935872276,0.46876504110061346
-1319.697541475296,7664.0,-2140.0,15260.0,1414.0,-2400.0,2867.0,-0.5758920484981699,0.6289006286022368,-0.4437791761067919,0.27548573588167824
-1319.7131552696228,7860.0,-2784.0,15436.0,1487.0,-1951.0,2638.0,-0.7599192467401324,0.4758588182281585,-0.43374342166484525,0.08915025356600136
-1319.728725194931,7656.0,-2148.0,15596.0,1821.0,-1195.0,2302.0,-0.8662631307699179,0.2671203313995742,-0.4200253686223171,-0.04258645953079766
-1319.7442920207977,7552.0,-1244.0,15180.0,2080.0,-653.0,1521.0,-0.9089843476678195,0.050263118063772046,-0.4029613644671573,-0.09403836134356423
-1319.75985789299,7452.0,-736.0,14716.0,2009.0,-508.0,456.0,-0.9164252835857924,-0.127194660313548,-0.3745598100203516,-0.06075497271778825
-1319.775463104248,6868.0,-284.0,15444.0,1560.0,148.0,-305.0,-0.8874148949161708,-0.2388805549933929,-0.3940375354135983,0.012857115234274678
-1319.7910668849945,4844.0,536.0,19560.0,-201.0,692.0,-3016.0,-0.8345081127236947,-0.11610287225893562,-0.4928437680812111,0.2173047471066287
-1319.8066627979279,5692.0,2868.0,21252.0,-1170.0,1684.0,-4104.0,-0.6463029540031678,0.10560396618033442,-0.6304698588301512,0.41671099227216346
-1319.8222498893738,5720.0,4296.0,20360.0,-2463.0,2325.0,-5765.0,-0.24702696634471857,0.4121897087574385,-0.6891946438225213,0.5422988703836027
-1319.8378229141235,5504.0,3000.0,17512.0,-2542.0,1941.0,-6254.0,0.21931767232046384,0.6405323102704388,-0.5339123785441179,0.5065132674914948
-1319.8534014225006,5312.0,20.0,15924.0,-1978.0,527.0,-5692.0,0.5360566971381066,0.7468713180836669,-0.25906943918348607,0.296157858849811
-1319.8689758777618,6864.0,-2708.0,15864.0,-616.0,-373.0,-4405.0,0.635226806946845,0.7707965094383818,-0.004903911135457726,0.048328008745428065
-1319.8845987319946,7868.0,-4544.0,17740.0,427.0,-529.0,-2381.0,0.6024877512611264,0.7796634883155839,0.12485609971870373,-0.11638001946605564
-1319.900187253952,8692.0,-4908.0,19436.0,-104.0,-243.0,-600.0,0.605204489331344,0.7638840828802052,0.15368706496412712,-0.16306109308528263
-1319.9158244132996,7616.0,-3520.0,19636.0,-1071.0,709.0,430.0,0.668648190906339,0.7180987299802775,0.17645470882128786,-0.07815079355443116
-1319.9314591884613,5504.0,-1236.0,19272.0,-1362.0,1481.0,984.0,0.7242977650554334,0.6514428754676095,0.20655404875914313,0.09138026307360976
-1319.9470829963684,3692.0,364.0,18520.0,-966.0,2242.0,1187.0,0.7097769528552912,0.5777811133829841,0.2656855003818431,0.3029799945544698
-1319.962658405304,2352.0,1392.0,17368.0,-560.0,2607.0,1327.0,0.6218795945498918,0.4885525028361275,0.3342803031640574,0.5126781649061752
-1319.9782357215881,1576.0,1684.0,15908.0,-386.0,2537.0,1353.0,0.48842183594059235,0.3813830477129014,0.3847761832130597,0.6840602092839706
-1319.9938378334045,1128.0,1168.0,15476.0,-196.0,2308.0,1383.0,0.325986973024335,0.27405239959696315,0.413972475157086,0.8045213269428559
-1320.0094232559204,848.0,240.0,15160.0,-133.0,1817.0,1442.0,0.1590419427407351,0.19079431684464432,0.4132584384513938,0.8760825601264722
-1320.0250129699707,884.0,-308.0,15568.0,-110.0,1552.0,1500.0,-0.009634876526810512,0.12245954318627707,0.39426071519704015,0.9107520616991431
-1320.0406937599182,1384.0,-592.0,15792.0,-108.0,1406.0,1660.0,-0.18551692478522985,0.06667138397768058,0.36007545872255287,0.9118574785581763
-1320.0562748908997,1848.0,-244.0,15632.0,30.0,1465.0,1767.0,-0.3651446340998321,0.005017919466158695,0.32181513763756325,0.8735440652077302
-1320.0718624591827,2020.0,896.0,15952.0,126.0,1624.0,1774.0,-0.534435936860012,-0.07138759848743947,0.27266710899682467,0.7968278909815288
-1320.087467432022,2348.0,1580.0,16048.0,157.0,1888.0,1083.0,-0.6422208442431643,-0.18085786770520412,0.19845565558847603,0.7179541570836346
-1320.1030638217926,2548.0,1856.0,16168.0,239.0,2075.0,620.0,-0.7007653796961623,-0.30777930355505373,0.10490321935661338,0.634976454280848
-1320.1186327934265,2500.0,1576.0,15996.0,340.0,2554.0,95.0,-0.7028156143771238,-0.4575690958627217,-0.029193961612412857,0.5439011374362532
-1320.1342370510101,2316.0,1172.0,15856.0,442.0,2332.0,-237.0,-0.6540613475479785,-0.5821347728514115,-0.15731809538220537,0.4566988906777348
-1320.1497976779938,2420.0,928.0,15924.0,322.0,2316.0,-546.0,-0.5718171290799893,-0.6706662544864942,-0.29793355717695924,0.3666981612875354
-1320.1653671264648,2380.0,640.0,15904.0,177.0,2383.0,-564.0,-0.470831811303608,-0.7245979820706002,-0.4343365560630532,0.2542182643144749
-1320.1809530258179,2224.0,476.0,15732.0,222.0,2347.0,-342.0,-0.3527456827745605,-0.756626781316033,-0.5360183850700627,0.1255813996821626
-1320.1965334415436,2064.0,-144.0,15620.0,2.0,2155.0,45.0,-0.24797261724153416,-0.7689154888949935,-0.5890368305888732,-0.017724678997702317
-1320.2120974063873,2252.0,-456.0,15424.0,325.0,1954.0,459.0,-0.12308098822693711,-0.7842672121586357,-0.5917730954129119,-0.13993074649776874
-1320.2277269363403,1792.0,-648.0,15368.0,393.0,1732.0,852.0,0.0036405362415289117,-0.7996062002206306,-0.548792512037348,-0.24381027418124995
-1320.2433140277863,2020.0,-420.0,15228.0,422.0,1220.0,998.0,0.1116652336811773,-0.8130980671078988,-0.4828402968929431,-0.30539753854388096
-1320.2589104175568,2216.0,-104.0,15536.0,454.0,520.0,1159.0,0.19537966032483697,-0.8378508015483183,-0.4047999182584524,-0.3097900076731686
-1320.274483680725,2404.0,276.0,16040.0,552.0,591.0,1087.0,0.2840862221382231,-0.8449474473666497,-0.32784775552030404,-0.3128492908416353
-1320.2900834083557,2628.0,628.0,16112.0,571.0,388.0,993.0,0.3624556819806456,-0.8438821942250428,-0.2591266898897975,-0.2989014544237428
-1320.3056497573853,2784.0,740.0,15996.0,497.0,4.0,740.0,0.41726015092324037,-0.8422007631511779,-0.2167930238649475,-0.26380414288365606
-1320.3212261199951,2752.0,688.0,16040.0,426.0,275.0,275.0,0.45959597568104044,-0.8244598037281464,-0.19611524423243298,-0.26566215792617487
-1320.3367938995361,2488.0,648.0,15748.0,453.0,149.0,226.0,0.49952821041586937,-0.8057863031002036,-0.18417698282476921,-0.2593430927022938
-1320.3523576259613,2312.0,448.0,15856.0,406.0,114.0,181.0,0.5336625184141616,-0.787714398064098,-0.17551878749200983,-0.25279141354030366
-1320.3679852485657,2288.0,232.0,15700.0,150.0,189.0,177.0,0.550670407993017,-0.7789304030958464,-0.15779262457125523,-0.2552077908776714
-1320.3836026191711,2268.0,348.0,16124.0,-113.0,228.0,-55.0,0.5448435999957808,-0.7782496945509617,-0.14801137833377367,-0.2748917902715704
-1320.3992545604706,2476.0,572.0,16252.0,-190.0,371.0,-367.0,0.5273826140377676,-0.7726580259851152,-0.15055900699234365,-0.31968600017041016
-1320.414841890335,2572.0,428.0,16740.0,-250.0,510.0,-418.0,0.5046796007484229,-0.7629173638752609,-0.14801143384822202,-0.3759630459715804
-1320.430456161499,2708.0,164.0,17076.0,335.0,805.0,-481.0,0.5197141083001047,-0.7127477579266231,-0.15498236740026425,-0.44482394832046573
-1320.4460453987122,2616.0,52.0,17188.0,619.0,1020.0,-300.0,0.5572391276308202,-0.6372264873933958,-0.15052876860402437,-0.5106545292309399
-1320.4616227149963,2368.0,52.0,16732.0,822.0,1306.0,90.0,0.6185907584061401,-0.5352191232988696,-0.11755025751849692,-0.5630878267437868
-1320.4771947860718,1952.0,-16.0,16304.0,846.0,1441.0,361.0,0.6831373824507929,-0.4176098414281361,-0.06372726638758194,-0.5957047696295643
-1320.4928076267242,1708.0,-88.0,16168.0,1019.0,1534.0,740.0,0.7560735496597926,-0.2768476249927456,0.0017199096328089454,-0.5930474027862971
-1320.5083887577057,2024.0,52.0,16236.0,704.0,948.0,1012.0,0.8178571696037982,-0.17925029661732161,0.05175673510216974,-0.5443346596183548
-1320.523994922638,2308.0,248.0,16176.0,519.0,573.0,888.0,0.8610647826480108,-0.11015129434416462,0.08127342554573645,-0.48972314907271947
-1320.5395603179932,2652.0,244.0,16084.0,321.0,343.0,624.0,0.8863540216510328,-0.06665131066996109,0.09881274829469541,-0.4474038353249398
-1320.5551385879517,3132.0,4.0,16396.0,462.0,612.0,456.0,0.89887830266063,-0.003036614787397525,0.13005639779635933,-0.41844224137724545
-1320.5707294940948,3128.0,240.0,16680.0,576.0,944.0,611.0,0.9051963108887904,0.08301337079577203,0.18182709712710554,-0.3750564301178935
-1320.58633351326,2996.0,212.0,16524.0,541.0,1044.0,916.0,0.9071314453303412,0.17289807171865723,0.23768871449874596,-0.30120237829205476
-1320.6019599437714,2772.0,84.0,16320.0,433.0,1218.0,1220.0,0.89678006487978,0.2612551798550624,0.30051683373038424,-0.19292713359655025
-1320.617550611496,2544.0,-124.0,16236.0,443.0,1182.0,1488.0,0.8683446258558256,0.34970665635900694,0.34648380460755535,-0.06026473587582574
-1320.63316655159,2376.0,28.0,16420.0,452.0,980.0,1318.0,0.8229138810200562,0.42420827491323215,0.37390453699912574,0.05527640664079
-1320.6487600803375,2416.0,368.0,16448.0,460.0,815.0,1017.0,0.7689139805288213,0.4829123638314911,0.39403667679910875,0.14248521587561128
-1320.6643431186676,2416.0,500.0,16628.0,689.0,731.0,811.0,0.7003180344759479,0.544429116256363,0.41476318199597917,0.2027882906398465
-1320.6800074577332,2068.0,544.0,16552.0,896.0,656.0,591.0,0.6199030509094094,0.605277963040531,0.43992200272631765,0.23627828179495763
-1320.6956000328064,2280.0,724.0,16596.0,950.0,487.0,467.0,0.5386893076426293,0.6611067960793533,0.45877021152594405,0.24956267153890932
-1320.711195230484,2552.0,448.0,16664.0,914.0,445.0,327.0,0.4590875328032026,0.7043913565279812,0.4786181895426703,0.2529744704752544
-1320.726793050766,2392.0,324.0,16672.0,977.0,446.0,49.0,0.3777057665958554,0.7324932207552847,0.5127698034802747,0.24053931916962615
-1320.742394208908,2380.0,492.0,16732.0,1149.0,433.0,-104.0,0.2854477410176173,0.7522702599023936,0.5546016483124765,0.21219343746546182
-1320.7579863071442,2316.0,552.0,16496.0,1239.0,383.0,-123.0,0.18665849213244348,0.7651525920734461,0.5913485494444946,0.17322531924641257
-1320.7735471725464,2248.0,528.0,16276.0,1207.0,317.0,-109.0,0.09080660015013765,0.7698063553783531,0.6183532352404544,0.12958245659013137
-1320.78915476799,2368.0,388.0,16264.0,1035.0,378.0,-37.0,0.001271491904355243,0.7681868265602282,0.6326174932738395,0.09839964436717616
-1320.8047454357147,2440.0,228.0,16476.0,908.0,454.0,-48.0,-0.0839546060457426,0.7587552359329052,0.6411656896825245,0.07841348380245669
-1320.8203270435333,2440.0,16.0,16348.0,784.0,520.0,-154.0,-0.16339043422882374,0.7382745443289748,0.6506692405825814,0.06988420821650716
-1320.8359472751617,2352.0,164.0,16448.0,679.0,588.0,-132.0,-0.23902719096029376,0.715254494668197,0.6528791358757172,0.07089318568628795
-1320.8514955043793,2552.0,-132.0,16512.0,688.0,712.0,-11.0,-0.32134334995247943,0.6932668246691618,0.6405683138218717,0.07610385392251724
-1320.8671588897705,2520.0,-204.0,16632.0,610.0,667.0,-332.0,-0.392026966490015,0.6508428141913257,0.6437156577147467,0.0913708967506795
-1320.8828279972076,2512.0,-304.0,16140.0,575.0,495.0,-82.0,-0.4509264388861827,0.621204066938497,0.6345900252022131,0.08981288240754645
-1320.8985180854797,2428.0,-152.0,16252.0,570.0,429.0,241.0,-0.5064737572086481,0.6074079013582495,0.6077606809893492,0.07188135550951044
-1320.9141688346863,2468.0,-40.0,16316.0,542.0,418.0,473.0,-0.5589674863245555,0.6042809250596278,0.5660733844892353,0.044281330309632064
-1320.9298219680786,2404.0,64.0,16552.0,458.0,388.0,535.0,-0.6029733756141077,0.6053269771941037,0.5193714538286858,0.015989119095645064
-1320.945390701294,2312.0,0.0,16296.0,393.0,355.0,521.0,-0.6393132196821716,0.6064283724738591,0.4726667588131037,-0.010458073983165677
-1320.960965871811,2252.0,328.0,15896.0,275.0,496.0,447.0,-0.6726898215458076,0.6086938657977893,0.4201931649495107,-0.02044225668867012
-1320.9765331745148,2548.0,272.0,16104.0,135.0,193.0,328.0,-0.6860334622637051,0.6126748139410066,0.3909048513590009,-0.03436652733145722
-1320.9921023845673,2552.0,528.0,16376.0,138.0,143.0,117.0,-0.6979042401658858,0.608616556081467,0.3755526361052567,-0.03841583965508151
-1321.0077550411224,2616.0,292.0,16404.0,156.0,176.0,-170.0,-0.7124073751482871,0.5938417306012473,0.37317695298321113,-0.02380530598436485
-1321.0233471393585,2712.0,168.0,16460.0,192.0,241.0,-342.0,-0.730436376356366,0.5706978655375305,0.3751704668884634,0.0037104098129604377
-1321.0389244556427,2736.0,84.0,16328.0,374.0,346.0,-445.0,-0.7590357859988078,0.5311298155952857,0.3746932352841135,0.03702396509308715
-1321.054512500763,2704.0,-72.0,16164.0,413.0,319.0,-507.0,-0.7854995954414105,0.4850542599534304,0.37757305450609835,0.07177282893508767
-1321.0701262950897,2560.0,-496.0,16176.0,519.0,323.0,-445.0,-0.8136647427298438,0.4317108678565959,0.37661828868184527,0.09866142935940063
-1321.0857336521149,2636.0,-588.0,16572.0,673.0,374.0,-173.0,-0.8479221857103392,0.37398050886818074,0.36141379988244643,0.10269669527997811
-1321.1013510227203,2780.0,-592.0,16856.0,1022.0,579.0,138.0,-0.8961158765564577,0.29578012455207897,0.3213868314207455,0.07874616366999285
-1321.116935968399,2760.0,-340.0,17252.0,846.0,863.0,763.0,-0.9402043703281552,0.24302567282544288,0.23800852473223014,0.01749875762348547
-1321.1325297355652,2476.0,-28.0,16872.0,800.0,907.0,656.0,-0.9701129060476251,0.18805055525621708,0.1496617976734626,-0.033455709599519566
-1321.1480770111084,1796.0,412.0,16448.0,653.0,847.0,763.0,-0.9832717503391889,0.14399209612984415,0.06298010269745523,-0.09206762678194688
-1321.163650751114,1744.0,696.0,16076.0,564.0,651.0,786.0,-0.9825825030873533,0.1042921316204544,-0.007275784711996438,-0.15362889983814182
-1321.1792511940002,1712.0,732.0,16208.0,509.0,471.0,769.0,-0.9726715246734059,0.065905286370206,-0.061115118128212846,-0.2140830228069183
-1321.1948659420013,1748.0,664.0,16540.0,458.0,341.0,988.0,-0.9503580138563807,0.027775996966359153,-0.10354772835786748,-0.29210615783205496
-1321.210419178009,1792.0,624.0,16504.0,366.0,320.0,763.0,-0.9260584930850356,-0.001435769296495924,-0.14053578688463114,-0.3502332059589977
-1321.2259941101074,1684.0,552.0,16176.0,331.0,324.0,943.0,-0.889533643901974,-0.02978206460618933,-0.1756763011492394,-0.42069081545571047
-1321.2415885925293,1572.0,468.0,16168.0,374.0,499.0,1031.0,-0.8384893634358282,-0.05600299501871165,-0.22393104072679548,-0.49361335167611503
-1321.257174730301,1696.0,448.0,16540.0,443.0,217.0,1210.0,-0.7749888464300886,-0.10204360193290511,-0.2510672692394996,-0.570915595802164
-1321.2727546691895,1864.0,528.0,17140.0,539.0,414.0,1337.0,-0.6886800618575032,-0.14587577665961887,-0.2912674157107326,-0.6477679543857428
-1321.2883698940277,1776.0,528.0,17496.0,560.0,699.0,1250.0,-0.5878971076752261,-0.17019624668415095,-0.3456895570677255,-0.7112727736502015
-1321.3040034770966,1676.0,1200.0,17164.0,570.0,950.0,1034.0,-0.48242596897704754,-0.1701181040444275,-0.41066924038259145,-0.7547686997593843
-1321.3195931911469,1500.0,1440.0,16792.0,690.0,1044.0,856.0,-0.3751425310495005,-0.1596345683576609,-0.4829704636332029,-0.7749351051804058
-1321.3352122306824,1048.0,1404.0,16684.0,714.0,1174.0,738.0,-0.2633935690607685,-0.133442916057647,-0.5541426792990272,-0.7782947429545941
-1321.3508126735687,864.0,1188.0,16620.0,857.0,1247.0,548.0,-0.15437884174586006,-0.093987461093743,-0.628334403821106,-0.7566567301974749
-1321.3664174079895,840.0,1184.0,16876.0,971.0,1433.0,423.0,-0.03941947937052301,-0.035189416097950336,-0.6997704198715465,-0.7124108148488778
-1321.3819947242737,728.0,1248.0,16668.0,1080.0,1630.0,347.0,0.08379484397054414,0.04065889047887714,-0.7600415973310266,-0.6431656466848026
-1321.397560596466,628.0,1188.0,16088.0,1038.0,1631.0,480.0,0.21210625248660442,0.10637313589093994,-0.7960680602100219,-0.5567506956711139
-1321.4131791591644,524.0,1064.0,15584.0,1555.0,1428.0,618.0,0.32110881040815714,0.15871211329495474,-0.835612865279334,-0.41647417249016694
-1321.4287395477295,552.0,816.0,15852.0,1628.0,1225.0,818.0,0.41023916623102796,0.18582295521433168,-0.8561672735644991,-0.25328098128879656
-1321.4443173408508,536.0,792.0,15652.0,1477.0,1032.0,864.0,0.47540384513326195,0.19402195279918533,-0.8529602454602455,-0.09383754860874131
-1321.4599335193634,612.0,1240.0,16028.0,1396.0,768.0,902.0,0.509939064524615,0.18868340160399358,-0.8371311459912237,0.059767623696504873
-1321.475517988205,576.0,1536.0,16180.0,1334.0,1145.0,979.0,0.5580678636285797,0.16797117301015202,-0.7832793885220216,0.21637778106634312
-1321.491103887558,432.0,1720.0,16192.0,1204.0,1270.0,876.0,0.6020642379270758,0.14069304654242787,-0.7012753848576597,0.354875970807606
-1321.5066902637482,304.0,1916.0,16296.0,1041.0,738.0,512.0,0.6142741716521587,0.14018316552446222,-0.6318863860172422,0.45137070940709506
-1321.5222656726837,532.0,1932.0,16220.0,1002.0,547.0,718.0,0.5998397582725914,0.13183136822673341,-0.5678078353594836,0.5480939854179431
-1321.5378489494324,748.0,1672.0,16176.0,997.0,444.0,815.0,0.5674657886180674,0.12152290537212389,-0.5025401684758622,0.6408339420522642
-1321.5534398555756,820.0,1504.0,16668.0,1003.0,499.0,1017.0,0.5174065391920117,0.09780716757858073,-0.4285978502973288,0.7341853402868445
-1321.5690214633942,788.0,1424.0,17144.0,960.0,496.0,1027.0,0.4581495505756418,0.07033892435321552,-0.3502735699018111,0.8139163662541817
-1321.584590435028,932.0,1236.0,17036.0,946.0,402.0,1417.0,0.3598386033589947,0.03585385473042777,-0.2722820182924935,0.8916799779899647
-1321.6001515388489,840.0,1432.0,16844.0,854.0,164.0,1777.0,0.2195529689235973,0.007574118073700005,-0.20294576361427338,0.9542285594150173
-1321.615749835968,828.0,1652.0,16808.0,618.0,58.0,1364.0,0.1056954381975363,-0.00945882109112264,-0.14969367221249838,0.9830212660707467
-1321.631314754486,816.0,1856.0,16812.0,486.0,57.0,1159.0,0.007374062895029464,-0.024797587181520087,-0.1055736914722562,0.9940748958379927
-1321.64688205719,640.0,2060.0,16168.0,479.0,1.0,859.0,-0.06585878115097081,-0.03228888668091698,-0.061621155061213316,0.9954008649740754
-1321.662436246872,480.0,2108.0,15768.0,634.0,56.0,689.0,-0.12321484799686447,-0.04425123870409901,-0.004601563572394451,0.9913822445045865
-1321.678030014038,316.0,2032.0,15600.0,802.0,-33.0,657.0,-0.1762603596984441,-0.04989830347450157,0.06767356807511184,0.9807460084513853
-1321.6936202049255,360.0,1780.0,15608.0,840.0,-81.0,743.0,-0.23461343440273796,-0.050933567591772755,0.1433015997592605,0.9601182008464184
-1321.7092080116272,20.0,1600.0,15632.0,651.0,52.0,936.0,-0.3092901452061175,-0.05651459777647467,0.19967540678403134,0.9280492649866028
-1321.7247803211212,320.0,1480.0,15880.0,256.0,290.0,1032.0,-0.39487393238255114,-0.06851863963943834,0.216393333606766,0.890254850431747
-1321.740365743637,100.0,1700.0,16340.0,-178.0,573.0,1767.0,-0.5370039790930655,-0.07249433059802829,0.19058971087283588,0.8185639013411032
-1321.7559883594513,-396.0,1940.0,15876.0,-487.0,524.0,1981.0,-0.6789677574801422,-0.05320323558734195,0.1411124099656188,0.7185119955707908
-1321.771572113037,-868.0,2080.0,15660.0,-634.0,166.0,1812.0,-0.7865448347389018,-0.0037108840921754854,0.09823973126691689,0.6096576149654921
-1321.7871768474579,-1072.0,2268.0,15384.0,-691.0,-390.0,1626.0,-0.8593106032065541,0.07723274559966295,0.08745349978516416,0.49796814717334315
-1321.802787065506,-964.0,2448.0,15152.0,-652.0,-796.0,1323.0,-0.8968440934988097,0.16873763106987028,0.10861228873833054,0.3942101654603139
-1321.8183629512787,-744.0,2664.0,15020.0,-736.0,-1527.0,1111.0,-0.8959345508790224,0.28472673431803686,0.1835107130636145,0.28732522600125826
-1321.8339314460754,-460.0,2836.0,15420.0,-999.0,-1780.0,869.0,-0.848744234085593,0.4135162489505582,0.27093750158739754,0.1876976483440834
-1321.8495140075684,-148.0,2896.0,15560.0,-1269.0,-1730.0,747.0,-0.7596018308879277,0.5428245640516846,0.34457516026394214,0.09805360831139999
-1321.8651130199432,-136.0,2604.0,15732.0,-1518.0,-1669.0,763.0,-0.6306402530054825,0.6663758309776033,0.397550767426537,0.01376628114856852
-1321.8807172775269,72.0,2516.0,15480.0,-1087.0,-1838.0,221.0,-0.49536493047017377,0.7234485640778199,0.47625939404368317,-0.06642853588002856
-1321.8963317871094,228.0,2852.0,15268.0,-1272.0,-2274.0,-471.0,-0.31499351649941354,0.726505382907238,0.595991793582326,-0.1332771366463999
-1321.9119656085968,432.0,3184.0,14856.0,-1176.0,-2569.0,-1221.0,-0.1168560133875021,0.6426275682169218,0.731794014524194,-0.19455590715614154
-1321.9276280403137,436.0,3504.0,14660.0,-1248.0,-3309.0,-1924.0,0.12439638659162595,0.449306457255077,0.8440639969348808,-0.2649626682197926
-1321.9432871341705,760.0,3552.0,14712.0,-1095.0,-3743.0,-2163.0,0.36635031993056927,0.1784189305529594,0.851329455013072,-0.33044256283695317
-1321.9588878154755,224.0,2156.0,15276.0,-884.0,-3967.0,-1921.0,0.576748351214703,-0.09964697490528274,0.7259316742844756,-0.3611855811544605
-1321.9744741916656,92.0,884.0,16076.0,-528.0,-4096.0,-1203.0,0.7431823517816489,-0.3104162074808022,0.4922337543861102,-0.33019342994143225
-1321.9901461601257,248.0,-440.0,16644.0,-81.0,-4258.0,-120.0,0.8628161352370858,-0.41564714039263817,0.20146879990262548,-0.20541687886772458
-1322.0057721138,812.0,-1512.0,17580.0,203.0,-4703.0,757.0,0.8923455948973773,-0.4350159310714368,-0.11910075209097093,0.01718981770298347
-1322.0213797092438,1384.0,-1652.0,17180.0,406.0,-5290.0,1232.0,0.7685945478804567,-0.36853219015951183,-0.4368559150506247,0.28740799444335463
-1322.0369534492493,1868.0,-772.0,16820.0,568.0,-6131.0,1337.0,0.4553329340864004,-0.19933063212217456,-0.6929477393582719,0.522266836734159
-1322.052535533905,2732.0,464.0,17176.0,796.0,-7215.0,910.0,-0.007291180412046218,0.08953910052124696,-0.7817286999936675,0.6171141124397138
-1322.068107843399,3332.0,1552.0,17992.0,1094.0,-8206.0,205.0,-0.4755919841749175,0.4189217177191618,-0.5827775607500161,0.5086129900995975
-1322.0837061405182,5228.0,3000.0,18828.0,1562.0,-7992.0,-386.0,-0.7513423209844351,0.5935406559207382,-0.13641192674442504,0.2541377435737862
-1322.0993118286133,6320.0,3872.0,19616.0,1808.0,-6276.0,-680.0,-0.7849248378824936,0.5397686024883296,0.3041796578529567,-0.004194090055674458
-1322.1149189472198,6396.0,3792.0,19736.0,1283.0,-4545.0,-886.0,-0.6686912940173739,0.39333675709003446,0.6057224708079447,-0.176743987692888
-1322.1305241584778,4680.0,3024.0,18636.0,361.0,-2614.0,-1783.0,-0.5496490342172018,0.22890329780165344,0.7841606887986606,-0.17487490838435052
-1322.1461532115936,4660.0,1264.0,17164.0,-844.0,-1957.0,-3229.0,-0.4246576964763978,0.017489527723102978,0.9051842199521661,-0.0012186849349654554
-1322.1617720127106,6852.0,-1160.0,16512.0,-1588.0,-2621.0,-4412.0,-0.19529254493866666,-0.24676480780368323,0.9137497082198067,0.25696190816774434
-1322.1773688793182,9236.0,-3116.0,18484.0,-1593.0,-2926.0,-6144.0,0.12082893673112241,-0.5497953142582603,0.6791297019518848,0.4710714684576335
-1322.193002462387,11504.0,-3212.0,21940.0,-1042.0,-3319.0,-7510.0,0.4672186028922194,-0.7047951954524467,0.1952021238171863,0.49685676048117716
-1322.2086353302002,11608.0,440.0,22796.0,-1449.0,-2248.0,-8707.0,0.6215449798639175,-0.6376711539666318,-0.3874882135689298,0.23855863377791606
-1322.2242515087128,9512.0,3268.0,19948.0,-2891.0,207.0,-9978.0,0.5003478687780475,-0.3416404534124815,-0.7346748912809208,-0.30526482752316414
-1322.2398617267609,7672.0,3448.0,15856.0,-4004.0,1158.0,-10495.0,0.12507416429965,0.13348771598122605,-0.6340428840756472,-0.7513501875024023
-1322.2554469108582,5748.0,2000.0,13864.0,-4520.0,1247.0,-10377.0,-0.30763920058589106,0.5249548617279983,-0.14394183776674482,-0.780423771262347
-1322.2710592746735,5420.0,-916.0,14240.0,-4877.0,1595.0,-9955.0,-0.5308197003328436,0.636065232493064,0.4302522628074925,-0.358517023446763
-1322.2866477966309,5324.0,-3824.0,15032.0,-4881.0,2060.0,-8227.0,-0.452240641245653,0.4696300216349761,0.718043615877087,0.2435968203466761
-1322.3022422790527,5508.0,-5364.0,14952.0,-4589.0,2759.0,-6872.0,-0.23164767909750883,0.12844492763172896,0.6313731070954506,0.7288410340884041
-1322.3178451061249,5708.0,-5456.0,13684.0,-4204.0,2538.0,-5275.0,0.009424115939140961,-0.20204120082521002,0.314535750000559,0.9274469263410487
-1322.3334357738495,5716.0,-4872.0,13144.0,-4016.0,2331.0,-3940.0,0.17089873949291395,-0.4433182434170072,-0.06914543867860047,0.8772009257880067
-1322.349012851715,5964.0,-3780.0,13400.0,-3788.0,2552.0,-3328.0,0.2642093156764572,-0.6053204965112329,-0.40353403540297444,0.6331988757764526
-1322.3645977973938,6644.0,-2192.0,14544.0,-3622.0,2888.0,-2409.0,0.28007299185734297,-0.6947925598910787,-0.604587879381119,0.2707321814220096
-1322.3801770210266,7404.0,-1068.0,15368.0,-3273.0,3315.0,-1971.0,0.2773383893126119,-0.6852740215094647,-0.6590454929689661,-0.13835451367781304
-1322.3958184719086,7372.0,-304.0,16044.0,-2690.0,3475.0,-1801.0,0.2721866221788269,-0.5586742678459999,-0.6005690561279776,-0.5031046749685064
-1322.4114317893982,7032.0,56.0,15620.0,-1959.0,3216.0,-2393.0,0.2238347134072047,-0.31539423205170924,-0.5169208304536468,-0.7636866860863422
-1322.4270215034485,6316.0,-68.0,14776.0,-1566.0,2872.0,-2533.0,0.13310674108567214,-0.03781758559246423,-0.4006543792015939,-0.9057198761891527
-1322.4426581859589,5504.0,-900.0,14352.0,-1455.0,2590.0,-2458.0,0.023336678563561374,0.2235740927349485,-0.24967258951454732,-0.9418777110307186
-1322.4582550525665,5212.0,-1592.0,14812.0,-1465.0,2345.0,-2200.0,-0.07435876110800092,0.4406433740423309,-0.07776882257890678,-0.8912105260788632
-1322.4738500118256,5216.0,-1808.0,15692.0,-1501.0,2433.0,-1937.0,-0.14439804016945632,0.6248640952956145,0.09360218502933668,-0.761533124271917
-1322.4894433021545,4964.0,-1460.0,16136.0,-1420.0,2731.0,-1820.0,-0.20073434152386366,0.7725765125785319,0.24137291341772735,-0.55187894778947
-1322.5050566196442,4564.0,-824.0,15708.0,-1365.0,3039.0,-1868.0,-0.24926316167580503,0.8571162365308764,0.36036299224340695,-0.27084709178410316
-1322.5207109451294,4196.0,-660.0,15044.0,-1320.0,2848.0,-1789.0,-0.26936277288594146,0.8553445234241507,0.44199757881309715,0.021623671170023135
-1322.5363183021545,3676.0,-796.0,14464.0,-1184.0,2238.0,-1598.0,-0.25575523210341133,0.7907219020668586,0.4899913133698547,0.26316657778978036
-1322.5519347190857,3832.0,-1204.0,14700.0,-1149.0,1633.0,-1523.0,-0.2064577712696434,0.6971290089868055,0.519895454497252,0.44843622724367616
-1322.5675210952759,3728.0,-1628.0,15544.0,-1240.0,1426.0,-1514.0,-0.13354666301925183,0.5820401630621687,0.5261204879944712,0.6054682233539971
-1322.5830874443054,3824.0,-1604.0,15940.0,-1029.0,1454.0,-1572.0,-0.06364455476914058,0.4356652324023153,0.5234421127082136,0.7294885403950059
-1322.5986788272858,3676.0,-1552.0,15980.0,-1127.0,1522.0,-1792.0,0.023155871062579842,0.2565100724597171,0.49850623720032766,0.8277426652253793
-1322.6142518520355,3340.0,-1412.0,15756.0,-844.0,1400.0,-1442.0,0.08379403574702356,0.08926128892896304,0.46414653045493615,0.8772565076068753
-1322.6298441886902,3480.0,-1376.0,15568.0,-614.0,969.0,-1189.0,0.1389103197580811,-0.03720185979106432,0.42884449124857904,0.8918589277562573
-1322.6454191207886,3420.0,-1308.0,15080.0,-438.0,457.0,-779.0,0.1803259328090582,-0.10677338220214073,0.39603747311801607,0.8940001804787041
-1322.6610231399536,3552.0,-1776.0,14960.0,-430.0,-154.0,-410.0,0.2133302858236816,-0.11543709002322282,0.35552614189688486,0.902643689295656
-1322.676671743393,3784.0,-1964.0,15396.0,-445.0,-336.0,-504.0,0.2584299955992271,-0.11253957722043335,0.3082567215195342,0.9085849297515658
-1322.6923098564148,3956.0,-1872.0,15960.0,-333.0,-335.0,-338.0,0.29061117838022077,-0.10232161406179219,0.27040091721679793,0.9121177414481989
-1322.7079129219055,3720.0,-1348.0,16216.0,-133.0,-359.0,-652.0,0.3490516826717458,-0.0921640338236775,0.24411973195096898,0.9000412602573051
-1322.723522901535,3528.0,-860.0,15772.0,212.0,-487.0,-1014.0,0.4386171175888559,-0.06856522841346616,0.23636471392829222,0.8643179713625359
-1322.7391040325165,3224.0,-988.0,15492.0,521.0,-730.0,-1106.0,0.5361232929461281,-0.0161197680219641,0.23900682040511934,0.8094366606717003
-1322.7547001838684,2988.0,-1440.0,15420.0,645.0,-811.0,-1037.0,0.622166313841945,0.04938371027655979,0.24290624273563077,0.7426081633807334
-1322.7702910900116,3060.0,-1860.0,15596.0,831.0,-943.0,-769.0,0.6828345270509294,0.13818110105787276,0.24656099554094596,0.6736843975152055
-1322.7858765125275,3220.0,-2068.0,16184.0,851.0,-1009.0,-578.0,0.7226282900781104,0.2338719907763183,0.24127627338036853,0.6040678821231847
-1322.8015327453613,3400.0,-1980.0,16732.0,792.0,-1104.0,-446.0,0.7474870531449983,0.32995986096310365,0.22057699964799118,0.5326681732186616
-1322.8171555995941,3504.0,-1736.0,17040.0,720.0,-1035.0,-315.0,0.7565450546694763,0.4161771163536473,0.19418227338117397,0.46554208486799636
-1322.8327202796936,3376.0,-1304.0,16476.0,735.0,-1461.0,-171.0,0.7539149801419311,0.515747651355953,0.13229909132070505,0.3848551848086829
-1322.8483078479767,3492.0,-996.0,16276.0,1064.0,-1474.0,262.0,0.7053259864619581,0.6301220019946058,0.05841847771379879,0.31945077380619663
-1322.8639197349548,3628.0,-736.0,16616.0,1378.0,-1260.0,585.0,0.6108984743167473,0.742220868166549,-0.012766938735952313,0.27522398552974475
-1322.87953042984,3780.0,-732.0,16788.0,1554.0,-407.0,953.0,0.4806097849476271,0.8228619378073566,-0.05813344878354607,0.29754490090244945
-1322.8951325416565,4080.0,-764.0,16932.0,1625.0,192.0,1278.0,0.32641777625660295,0.8654085413247666,-0.09808318177170824,0.36728623905527963
-1322.9107856750488,3724.0,-848.0,16576.0,1610.0,568.0,1611.0,0.15483106256882276,0.8613335298040559,-0.14889144720072,0.4603946453311225
-1322.9265160560608,3448.0,-876.0,15584.0,1473.0,503.0,1988.0,-0.02857501146226996,0.815560276167752,-0.22691841798360887,0.5315570865268636
-1322.9421565532684,3324.0,-492.0,14776.0,1402.0,254.0,2240.0,-0.22142759968235853,0.7363302598836902,-0.3136374271386931,0.5571526996940315
-1322.957793712616,2944.0,-244.0,14956.0,1406.0,-247.0,2280.0,-0.4181024079411079,0.6412332829155039,-0.37674425633001385,0.5216071497569772
-1322.9734137058258,3160.0,-236.0,16328.0,1365.0,28.0,2084.0,-0.5750782570648321,0.5096132869285699,-0.4223281260824186,0.48085158828566527
-1322.9890196323395,3320.0,-100.0,17360.0,1303.0,371.0,1537.0,-0.6732557986225326,0.36607659825696437,-0.44743212091749446,0.460997886113394
-1323.0047142505646,3548.0,336.0,17672.0,1273.0,825.0,1386.0,-0.7259699138429617,0.20065642672604286,-0.481160731965845,0.44854100439365746
-1323.0202915668488,3528.0,872.0,17208.0,1469.0,1353.0,1228.0,-0.7279460382533447,0.0029131450555504724,-0.5199471914058057,0.4469239276726628
-1323.0359148979187,3204.0,1100.0,16708.0,1734.0,1602.0,1268.0,-0.6867026737914198,-0.2213348576123351,-0.5396825144174356,0.43381228918221815
-1323.0515003204346,2752.0,768.0,16244.0,1948.0,1611.0,1564.0,-0.6122255821888095,-0.4575886675413714,-0.5150822854547357,0.3879209804354644
-1323.0670940876007,2624.0,164.0,16348.0,2033.0,1549.0,1797.0,-0.5039146711198752,-0.6747899599335563,-0.44106212468789086,0.310149506478441
-1323.0826587677002,2772.0,-172.0,16260.0,2035.0,1550.0,2540.0,-0.37508025960045216,-0.8623440046784194,-0.2904563476645736,0.17695402384404785
-1323.0982797145844,2708.0,-92.0,15908.0,1943.0,1362.0,3079.0,-0.22907263653387136,-0.9706930403923019,-0.06936000514820763,0.02167805828968281
-1323.1139199733734,2532.0,488.0,15456.0,1662.0,882.0,3456.0,-0.08462565544358036,-0.9708363938437258,0.1976657129821964,-0.10603518633215292
-1323.1295125484467,2488.0,676.0,15128.0,1326.0,384.0,3381.0,0.04992591157423548,-0.8753280913030403,0.44692986831810194,-0.1776564908311025
-1323.1451470851898,2456.0,1116.0,15608.0,1000.0,-14.0,3176.0,0.16913568651718314,-0.7175723542488562,0.6472506629835786,-0.19377723094169982
-1323.160743713379,2596.0,1436.0,15788.0,826.0,-436.0,2719.0,0.2827498806014254,-0.542301240941168,0.7731734197301003,-0.16782351478982646
-1323.176332950592,2684.0,1496.0,16016.0,574.0,-659.0,2278.0,0.37929741471666395,-0.3756048211110519,0.8375375948413013,-0.11655585259796217
-1323.1919264793396,2828.0,1500.0,16032.0,279.0,-849.0,1797.0,0.4618135274646579,-0.23995875505580913,0.8525008895926866,-0.048890642932914244
-1323.2075622081757,2696.0,1512.0,16268.0,116.0,-995.0,1393.0,0.5382889633539242,-0.13435426666959968,0.8317590328934885,0.01925705478832136
-1323.2231395244598,2792.0,1040.0,16448.0,32.0,-1040.0,1065.0,0.6073463247164101,-0.05331629984444441,0.7887473585458885,0.0785201783699576
-1323.2387278079987,2880.0,636.0,16752.0,-9.0,-1038.0,901.0,0.6678842815523744,0.015255879792961205,0.7325197530277222,0.1308153508240384
-1323.2542915344238,2940.0,280.0,16716.0,56.0,-976.0,948.0,0.7144467437892982,0.08965546386430004,0.6701810104483855,0.1799587767310253
-1323.2698900699615,2912.0,152.0,16712.0,198.0,-767.0,1066.0,0.7361801785413812,0.1752333321400358,0.6128938890305535,0.227361177026517
-1323.2855050563812,2892.0,344.0,16344.0,255.0,-689.0,1213.0,0.7395122695826275,0.26812095627396654,0.55079025595819,0.2790391547525127
-1323.3011310100555,2872.0,588.0,16000.0,147.0,-823.0,1271.0,0.7382866747849872,0.35559894706050454,0.4672578282608576,0.33189199540412795
-1323.316735982895,2752.0,492.0,15888.0,7.0,-1119.0,1274.0,0.7388328233052398,0.4356104894567023,0.3518300571088195,0.3749468917018853
-1323.3323316574097,2852.0,328.0,16060.0,-89.0,-1288.0,1187.0,0.734446333459362,0.5025142586550269,0.21804903325349473,0.40065274517180677
-1323.3479588031769,2988.0,404.0,16172.0,-14.0,-1240.0,972.0,0.7179925466064775,0.5580881335028661,0.09444149432854128,0.4050989291640061
-1323.3635530471802,3152.0,676.0,16588.0,75.0,-1081.0,710.0,0.6938119921632646,0.6028720720738845,-0.005266766210879912,0.39388125801751833
-1323.3791408538818,3192.0,900.0,16592.0,50.0,-1019.0,439.0,0.6725600376675794,0.637599034863253,-0.08797293704739537,0.36522763972800215
-1323.3947987556458,3108.0,836.0,16424.0,-82.0,-1045.0,230.0,0.6589789272878068,0.6613088087943503,-0.16402011862919577,0.31861392544343237
-1323.41042470932,3004.0,524.0,15900.0,-192.0,-1124.0,70.0,0.64890320412204,0.6770504423611291,-0.23686979183257761,0.25381101610438594
-1323.4260218143463,3220.0,320.0,16128.0,-318.0,-1185.0,252.0,0.6339342411948156,0.6759530003434675,-0.32398217383036676,0.19039556246816222
-1323.4415919780731,3448.0,160.0,16072.0,-290.0,-1150.0,-103.0,0.6170133417436795,0.6781933491841506,-0.3842684042717762,0.10810231593774731
-1323.4571731090546,3700.0,104.0,16068.0,-4.0,-1115.0,-191.0,0.5789383049804399,0.6914706259809926,-0.4309329608441436,0.03155306149851465
-1323.472755432129,3728.0,116.0,16312.0,-227.0,-1083.0,-376.0,0.5501792844516723,0.6934653805700849,-0.46117800931243214,-0.06101937919755913
-1323.4883394241333,3808.0,116.0,16304.0,-278.0,-1017.0,-556.0,0.5203906996957264,0.6932819872932835,-0.47231226850228214,-0.15960804111039065
-1323.5039854049683,3616.0,280.0,16264.0,-384.0,-949.0,-745.0,0.49122346694881086,0.6890820842166918,-0.4621497262434397,-0.2651094439349232
-1323.5195715427399,3624.0,312.0,15984.0,-439.0,-953.0,-898.0,0.45519350194238084,0.6794530332957144,-0.4356623605218787,-0.37595313399304037
-1323.5352184772491,3652.0,268.0,16084.0,-523.0,-938.0,-1075.0,0.4117364012226444,0.6628985354881433,-0.38858301133214435,-0.48994072178166914
-1323.5508165359497,3760.0,124.0,15988.0,-586.0,-907.0,-1167.0,0.3615772422815765,0.6364509620513269,-0.32544451384249334,-0.5985632290558899
-1323.5664422512054,3712.0,-104.0,16288.0,-563.0,-867.0,-1193.0,0.30309075657910595,0.6014901464608343,-0.2546769299038205,-0.6938913880151517
-1323.5820224285126,3660.0,-220.0,16484.0,-508.0,-829.0,-1185.0,0.2374927748989623,0.5590767941383114,-0.18196815564238264,-0.7732515182390065
-1323.5976603031158,3760.0,-84.0,16288.0,-449.0,-907.0,-1099.0,0.16942444090284856,0.501608699751263,-0.11582168936989379,-0.8403983623437804
-1323.6133382320404,3536.0,-304.0,16616.0,-361.0,-957.0,-1006.0,0.10099538340416725,0.43267794399924475,-0.05895657938590142,-0.8939316814246745
-1323.6289513111115,3504.0,-308.0,16056.0,-297.0,-971.0,-869.0,0.03915719421681782,0.3561371172081501,-0.011424428025243585,-0.9335430093638056
-1323.644539117813,3712.0,-512.0,16140.0,-308.0,-982.0,-684.0,-0.007934225042291972,0.2739136547107748,0.03140762249468201,-0.9612085721034723
-1323.6601083278656,3836.0,-336.0,16064.0,-304.0,-915.0,-660.0,-0.05325756828196965,0.1942659434331331,0.07293198522684172,-0.9767831387639725
-1323.6757280826569,3808.0,-364.0,16004.0,-214.0,-896.0,-593.0,-0.0940641768408311,0.11428399056008112,0.10486508020854247,-0.9834095866371124
-1323.6913189888,3712.0,-416.0,16084.0,-168.0,-922.0,-551.0,-0.13067473681335967,0.031052369059930175,0.1316522158947324,-0.9821545487266921
-1323.7069284915924,3740.0,-292.0,15992.0,-181.0,-1072.0,-595.0,-0.1679175812369308,-0.06548168272429106,0.15988040164366532,-0.9705431944583374
-1323.7225046157837,3708.0,-256.0,16104.0,-223.0,-1188.0,-558.0,-0.19858623973440967,-0.16958794361605292,0.19140505008187694,-0.9461329407495441
-1323.7380893230438,3652.0,-248.0,16088.0,-278.0,-1260.0,-518.0,-0.2228378572299185,-0.2753539467792077,0.22660785641196185,-0.9072884727531082
-1323.7537059783936,3508.0,-164.0,16012.0,-508.0,-1430.0,-394.0,-0.235811715186333,-0.382790577025557,0.2823708565474751,-0.8474260489824267
-1323.7693519592285,3588.0,-196.0,16084.0,-303.0,-1522.0,-265.0,-0.2259470119922635,-0.49091624176103127,0.32408543911995996,-0.7764778293663094
-1323.7849538326263,3724.0,-408.0,16156.0,-341.0,-1563.0,-109.0,-0.20180736883124226,-0.5873737564153615,0.3696660022159295,-0.6910954369445734
-1323.8005719184875,3624.0,-420.0,16376.0,-358.0,-1576.0,-97.0,-0.17347514106166032,-0.672506694717878,0.4099215668820459,-0.5912744117567071
-1323.8161680698395,3876.0,-348.0,16312.0,-340.0,-1533.0,33.0,-0.13564358567491147,-0.7383386127961772,0.4483894727834778,-0.4851842858300591
-1323.831772327423,3932.0,-200.0,16100.0,-333.0,-1540.0,29.0,-0.09473948301763262,-0.7910021032761233,0.4780710232899575,-0.3698488876024824
-1323.8474054336548,3860.0,-92.0,15920.0,-356.0,-1499.0,66.0,-0.05416971755868642,-0.8262300566767515,0.5019781282258011,-0.24985494577147194
-1323.8630015850067,4212.0,-48.0,16036.0,-431.0,-1459.0,29.0,-0.020529436592714737,-0.8472959023308358,0.5158332927863815,-0.12483673409585583
-1323.8786125183105,4436.0,-76.0,16148.0,-431.0,-1384.0,-81.0,0.008943972159544485,-0.8583874704533929,0.5129155456180309,-0.0029324041318190713
-1323.8941934108734,4440.0,-132.0,16056.0,-396.0,-1301.0,-234.0,0.037184756271696776,-0.8632686411325077,0.4909189265694806,0.11127962380470673
-1323.9099090099335,4520.0,32.0,16112.0,-379.0,-1248.0,-447.0,0.06596753090939182,-0.8652872074107802,0.44628052186802547,0.2185406812430465
-1323.9256160259247,4676.0,16.0,16108.0,-357.0,-1193.0,-630.0,0.09678186627995113,-0.8627434800943382,0.3821854083253207,0.31660902005042035
-1323.9412484169006,4772.0,24.0,16368.0,-382.0,-1090.0,-865.0,0.12728534103892644,-0.857910558315278,0.2949371962633976,0.40099871090573086
-1323.9568870067596,4940.0,-68.0,16308.0,-350.0,-831.0,-1049.0,0.15805431217065702,-0.8534946281830338,0.1934778195118568,0.4573096187747449
-1323.9725284576416,4996.0,-152.0,16184.0,-323.0,-566.0,-1182.0,0.18944574274988343,-0.84941061479452,0.0841175108367536,0.48532067996219713
-1323.9897284507751,4972.0,-296.0,16256.0,-9.0,-372.0,-1220.0,0.2417329410536282,-0.8375410936441208,-0.01280720877204555,0.4898224954720256
-1324.0054280757904,4984.0,-552.0,15984.0,-118.0,-262.0,-1211.0,0.2829715274946303,-0.8225857697898905,-0.11127457903627096,0.4805181932318792
-1324.0210320949554,4940.0,-540.0,16072.0,-90.0,-151.0,-1306.0,0.327715547544586,-0.8004575438177987,-0.21117231159953775,0.4552762845310929
-1324.0367217063904,4800.0,-520.0,15956.0,-110.0,-115.0,-1385.0,0.37028323232279503,-0.7677818750267539,-0.3133000046612334,0.4186220578520155
-1324.0523238182068,4652.0,-344.0,16060.0,-166.0,-149.0,-1446.0,0.40470603548302037,-0.7222313527929715,-0.4176979043591397,0.37433054721787506
-1324.06795668602,4836.0,-308.0,15804.0,-143.0,-116.0,-1484.0,0.4363284488028094,-0.663694231322837,-0.5156421034693209,0.3213108669246294
-1324.0835492610931,4400.0,-432.0,15796.0,-161.0,-183.0,-1418.0,0.45504413577118447,-0.5961280300969171,-0.6045107440443351,0.26857581158397226
-1324.0991840362549,4748.0,-608.0,16044.0,-180.0,-172.0,-1285.0,0.46379852393842713,-0.527950715466558,-0.6779925221136734,0.21560406116032627
-1324.1148059368134,4724.0,-664.0,15936.0,-172.0,-106.0,-1175.0,0.46926882637538225,-0.46084465954971765,-0.7356654908930692,0.1618803689946236
-1324.130411863327,4540.0,-676.0,15624.0,-132.0,-94.0,-1041.0,0.4707380663526629,-0.39636221319541587,-0.7799296611188504,0.11407187446703457
-1324.1460356712341,4448.0,-556.0,15928.0,-127.0,-127.0,-963.0,0.4656792213134221,-0.33350536903345324,-0.8167111630837497,0.06999934111956799
-1324.1616203784943,4376.0,-552.0,15868.0,-124.0,-207.0,-922.0,0.45147751819880194,-0.27059037162608884,-0.8497484203434374,0.02960613902788396
-1324.1771967411041,4436.0,-480.0,15904.0,-121.0,-226.0,-920.0,0.43282192920236023,-0.2058007049325156,-0.8776138596959843,-0.010254790117002291
-1324.19278383255,4532.0,-436.0,15896.0,-126.0,-182.0,-899.0,0.41454733275849515,-0.1413796985049515,-0.8975620090460035,-0.05044531366508325
-1324.208399772644,4564.0,-432.0,15972.0,-125.0,-185.0,-844.0,0.3937375547463504,-0.08035052941419026,-0.9114418297923194,-0.08825146633372533
-1324.2240116596222,4528.0,-268.0,15956.0,-120.0,-243.0,-805.0,0.3664380055627034,-0.022236351743768167,-0.9219499620283406,-0.12343824470680384
-1324.239610671997,4476.0,-512.0,15972.0,-100.0,-281.0,-672.0,0.3357766027808321,0.025564149104940825,-0.9292222371209204,-0.15214000573647726
-1324.255271911621,4668.0,-488.0,15988.0,-159.0,-249.0,-570.0,0.3079561871318137,0.06372654395896943,-0.931646604845038,-0.1820343870893476
-1324.2708570957184,4572.0,-284.0,16088.0,-132.0,-193.0,-565.0,0.2836835473009823,0.10290702247669295,-0.9302437230906544,-0.20875920426690311
-1324.2864334583282,4396.0,-468.0,16016.0,-107.0,-203.0,-258.0,0.26340567258722175,0.11744597821368317,-0.930556398088725,-0.22558520303078952
-1324.302056312561,4808.0,-480.0,16024.0,-35.0,-157.0,-464.0,0.24171744849956217,0.15109192487989015,-0.9278450777067903,-0.24051489995888267
-1324.317652463913,4804.0,-440.0,15964.0,-14.0,-159.0,-457.0,0.21929545563593797,0.18429724936015568,-0.9240330308362992,-0.25319357207320664
-1324.3332879543304,4816.0,-492.0,15904.0,-5.0,-53.0,-336.0,0.2076415925958747,0.21002783453289076,-0.919106926321629,-0.26079826635405556
-1324.3488850593567,4752.0,-484.0,15956.0,39.0,39.0,-285.0,0.20355835630412528,0.23440088713458282,-0.9137507542656894,-0.26206827119696724
-1324.364515542984,4752.0,-480.0,16000.0,52.0,110.0,-195.0,0.20682138774432943,0.25333127581034925,-0.9087947066393446,-0.2591145681973864
-1324.3800988197327,4736.0,-560.0,16048.0,163.0,163.0,-176.0,0.2121546800745481,0.2738222848819467,-0.9053392537969809,-0.24570833025931782
-1324.395723104477,4700.0,-436.0,15948.0,177.0,149.0,-95.0,0.21766631921202323,0.28772207042089576,-0.9038734520698845,-0.22989164038014284
-1324.4113092422485,4588.0,-384.0,15960.0,144.0,88.0,-55.0,0.2199194823247151,0.29651527173350023,-0.9035854549599149,-0.21736476372154112
-1324.4269037246704,4360.0,-372.0,15964.0,133.0,146.0,243.0,0.23257281797664714,0.2825534038629687,-0.9092407005380753,-0.19838045969520685
-1324.4424777030945,4604.0,-396.0,16008.0,128.0,149.0,55.0,0.24221484238482763,0.2833097216792697,-0.9096285753187061,-0.18342144556776507
-1324.4580392837524,4356.0,-388.0,15904.0,139.0,228.0,117.0,0.25873036174668984,0.2805061974889771,-0.9096157761220048,-0.1642376720203524
-1324.4736025333405,4640.0,-456.0,15964.0,181.0,295.0,128.0,0.2794753079396127,0.27850302778324737,-0.9081933870177977,-0.13969390661286207
-1324.4891538619995,4788.0,-424.0,16008.0,184.0,454.0,106.0,0.3120551125992144,0.27984403490195875,-0.9010559058090319,-0.11138751023857209
-1324.504734992981,4764.0,-452.0,16016.0,280.0,465.0,58.0,0.34203673218840835,0.28709135905317196,-0.8914936885974453,-0.07634414569434224
-1324.5203030109406,4672.0,-396.0,15816.0,267.0,481.0,27.0,0.3726014534174612,0.2958115706466618,-0.8785465652761899,-0.042656819198812285
-1324.535941362381,4464.0,-388.0,15792.0,261.0,341.0,28.0,0.39191914084933,0.30319403312748966,-0.8685079563880863,-0.01291104187893575
-1324.551525592804,4520.0,-444.0,15828.0,272.0,189.0,59.0,0.3990241679756002,0.3080905896025153,-0.863506112349105,0.014734174747476141
-1324.5671002864838,4580.0,-384.0,16092.0,247.0,203.0,17.0,0.4075833353178019,0.3150122905446135,-0.8562070852828583,0.03940188686452241
-1324.5826919078827,4736.0,-408.0,15992.0,250.0,214.0,-32.0,0.416722601557823,0.3254100356286094,-0.8464654029040642,0.06282438817471432
-1324.5982785224915,4760.0,-444.0,16000.0,253.0,509.0,10.0,0.44662447159369506,0.33065693994819056,-0.8257903487804054,0.09624380135306365
-1324.6139345169067,4688.0,-364.0,15900.0,288.0,278.0,41.0,0.45781148151144163,0.3363654346430092,-0.8131701803405479,0.12657487735976394
-1324.6295237541199,4508.0,-308.0,15904.0,173.0,223.0,33.0,0.46814011245249454,0.33834631107884927,-0.8030217380369008,0.14670615914983046
-1324.6451411247253,4344.0,-452.0,15856.0,246.0,59.0,108.0,0.46358182399646447,0.3399515621642754,-0.800371176955649,0.170090584515455
-1324.6607177257538,4288.0,-528.0,15708.0,206.0,-145.0,56.0,0.44648128697762957,0.34641746990053573,-0.8045905854541537,0.18243735013711698
-1324.6762883663177,4288.0,-396.0,15856.0,164.0,-286.0,87.0,0.41994953432503546,0.3510772622454796,-0.8153509395518269,0.18865309413406778
-1324.6919040679932,4296.0,-372.0,16088.0,180.0,-381.0,36.0,0.38654236311916634,0.36112376588923406,-0.8268537301106599,0.19101710977374797
-1324.707503080368,4312.0,-296.0,15804.0,164.0,-480.0,18.0,0.3461658539126273,0.37298084067001114,-0.8400242051115627,0.18818562353357518
-1324.7230668067932,4224.0,-296.0,15760.0,145.0,-645.0,25.0,0.29332151264118883,0.3854704668628662,-0.856491946292944,0.17831588637508894
-1324.7386345863342,4288.0,-288.0,15952.0,106.0,-671.0,-40.0,0.23985160588258986,0.4009043914167228,-0.8691238264599036,0.16239042575849535
-1324.754206418991,4492.0,-312.0,15932.0,59.0,-704.0,-33.0,0.18454921603648425,0.4138290407888488,-0.8801816696044705,0.1413058397674601
-1324.7697968482971,4632.0,-40.0,16088.0,253.0,-645.0,-110.0,0.12702037310364053,0.4334973518706918,-0.8818156466653209,0.1354512312012399
-1324.7853734493256,4844.0,-376.0,16128.0,14.0,-609.0,-18.0,0.07975250583969136,0.44161264842317144,-0.886461043191514,0.1131575250205447
-1324.8009560108185,4648.0,-336.0,16060.0,247.0,-575.0,-34.0,0.026064959434968994,0.45096814687577697,-0.8853851073122028,0.10973404277087512
-1324.8165259361267,4652.0,-364.0,16044.0,34.0,-530.0,-47.0,-0.01574544183576435,0.4592586037116724,-0.8834557258790354,0.09132139064725334
-1324.832111120224,4696.0,-400.0,16032.0,97.0,-452.0,-3.0,-0.05440733993128504,0.4625846410348613,-0.8812215167310028,0.08064694470691969
-1324.8477244377136,4584.0,-344.0,16328.0,63.0,-369.0,-55.0,-0.08489318922987985,0.46886004866077313,-0.8763247416001821,0.07084030245256556
-1324.8633184432983,4496.0,-404.0,16052.0,82.0,-335.0,38.0,-0.11405401119921245,0.4672044804352117,-0.8744873396546868,0.06311536084268343
-1324.878882408142,4796.0,-368.0,15936.0,112.0,-316.0,35.0,-0.14287395751627022,0.4649592748484319,-0.871771877180674,0.05842687012790596
-1324.894448041916,4520.0,-296.0,16004.0,105.0,-311.0,64.0,-0.17106085245054037,0.46017104087313093,-0.8695816823656002,0.05299524124717184
-1324.9104797840118,4536.0,-380.0,15852.0,126.0,-299.0,123.0,-0.19930569916459948,0.4501308814377118,-0.8690723011680297,0.04871101722530659
-1324.9262115955353,4540.0,-308.0,16016.0,150.0,-361.0,181.0,-0.2332053680835979,0.43501815322034204,-0.868646775164912,0.04274625903346164
-1324.9417822360992,4512.0,-76.0,16060.0,130.0,-372.0,209.0,-0.2669463493609386,0.41759565478460775,-0.8678611090047685,0.03421419507888004
-1324.9574120044708,4640.0,-308.0,15892.0,110.0,-340.0,171.0,-0.2970714240732383,0.402852220612236,-0.8653171523233845,0.02617027401150891
-1324.9730105400085,4716.0,-308.0,16340.0,80.0,-291.0,167.0,-0.32213059591502585,0.38865089029080246,-0.8630588686425953,0.017656554277669875
-1324.988656759262,4616.0,-228.0,15976.0,124.0,-178.0,169.0,-0.3399435289856135,0.3725971424153154,-0.863334694587119,0.016216401786913512
-1325.004276752472,4776.0,-256.0,16124.0,158.0,-180.0,196.0,-0.3588299285557535,0.35326134870952497,-0.8638151160560312,0.016460472463016507
-1325.0199234485626,4636.0,-308.0,15652.0,196.0,-169.0,175.0,-0.3777670580637245,0.334042475983657,-0.8632990578101117,0.02055263644303896
-1325.0355122089386,4700.0,-268.0,15892.0,241.0,-175.0,73.0,-0.3980123520631839,0.3207903621861047,-0.8588980449978572,0.031206720950763833
-1325.0511012077332,4772.0,-4.0,16120.0,234.0,-152.0,65.0,-0.41605253735577014,0.3081013358781526,-0.8545114863009211,0.042237101814802204
-1325.066660642624,4888.0,-244.0,15912.0,273.0,-67.0,-4.0,-0.42829548927790995,0.29863909412712936,-0.8506841928979557,0.060943164314606245
-1325.0822539329529,4812.0,-300.0,15988.0,264.0,3.0,-254.0,-0.4334307999756098,0.30745499800641524,-0.842313354177126,0.09009649942288404
-1325.0978307724,4732.0,-368.0,16124.0,297.0,110.0,75.0,-0.4337786449600412,0.28971826553877483,-0.8457829647397564,0.1120294173235865
-1325.1134233474731,4792.0,-424.0,15952.0,290.0,132.0,122.0,-0.43241785922263776,0.2683178824565998,-0.8506244834739984,0.13212984936762268
-1325.1289911270142,4796.0,-432.0,15972.0,301.0,155.0,152.0,-0.4295352569220986,0.24375250084837388,-0.8560847934378608,0.15232533550097818
-1325.1445708274841,4720.0,-360.0,16012.0,277.0,129.0,499.0,-0.43190969775947163,0.1941064361792729,-0.8666961811405116,0.15688987861413278
-1325.160131931305,4712.0,-352.0,15976.0,256.0,142.0,289.0,-0.4292340281080028,0.1605420177292005,-0.8728477951928998,0.16769357794653045
-1325.1757471561432,4720.0,-316.0,15900.0,16.0,153.0,372.0,-0.4230331847281125,0.1292806494385656,-0.8829852564138919,0.15705564381844647
-1325.1913316249847,4692.0,-292.0,15816.0,283.0,111.0,462.0,-0.4235587465659242,0.08160467319102467,-0.8873563805881199,0.16290279110696948
-1325.2069296836853,4596.0,-304.0,16124.0,178.0,68.0,504.0,-0.42630296570530624,0.034980443165817644,-0.8899172706210897,0.15839634300416827
-1325.22256565094,4668.0,-236.0,15872.0,187.0,-225.0,425.0,-0.44982065096718016,-0.0018774138714291735,-0.8793355729851623,0.15629077824194895
-1325.238168478012,4624.0,-312.0,15816.0,197.0,7.0,407.0,-0.4545014232097033,-0.040913234348204784,-0.8761420964505818,0.15533702193199875
-1325.2537813186646,4620.0,-196.0,16000.0,187.0,-45.0,347.0,-0.4617563824566415,-0.07421153411429124,-0.8700278947454325,0.15596523275970767
-1325.269344329834,4592.0,-184.0,15884.0,164.0,-36.0,307.0,-0.46744381207731417,-0.10359340314663106,-0.8639191762793539,0.15623170687133564
-1325.2849612236023,4620.0,-140.0,15988.0,219.0,-100.0,181.0,-0.47536395885794097,-0.12476571042408466,-0.8548854854306512,0.16623306205830155
-1325.300533771515,4652.0,-100.0,15964.0,173.0,-78.0,66.0,-0.48024066911599284,-0.1357089779917218,-0.8482532960091542,0.17725213349653124
-1325.3161387443542,4700.0,-168.0,15868.0,149.0,-81.0,27.0,-0.4848932456607268,-0.1426759681592271,-0.8421006067312001,0.18811878312751748
-1325.3317692279816,4676.0,-244.0,15636.0,169.0,-49.0,-255.0,-0.4820836017314981,-0.1302215210055674,-0.8400816336358876,0.21189762914256793
-1325.34734416008,4736.0,-204.0,15880.0,146.0,-80.0,-17.0,-0.4859807340908048,-0.13361398006565728,-0.8340786338807744,0.22423840644982698
-1325.3629202842712,4792.0,-236.0,15952.0,141.0,-22.0,-27.0,-0.48542735419554983,-0.13717629529075362,-0.8305921424312795,0.23592295509430455
-1325.3785026073456,4676.0,-208.0,15996.0,122.0,18.0,-149.0,-0.4795817370332481,-0.1318822488857576,-0.830465858048258,0.2508682693151495
-1325.3940856456757,4740.0,-300.0,16068.0,131.0,24.0,-169.0,-0.4726052565233453,-0.12560528877963334,-0.830358226733208,0.2671568794427165
-1325.4096884727478,4616.0,-244.0,15980.0,86.0,50.0,-192.0,-0.4635328742679405,-0.11636825421993487,-0.8323290470808362,0.2807562310407614
-1325.4253289699554,4676.0,-156.0,16024.0,80.0,33.0,-235.0,-0.45450771487623287,-0.10330192261169163,-0.8338483614502421,0.2957166887570929
-1325.4408910274506,4624.0,-260.0,15972.0,67.0,252.0,-229.0,-0.42950395153103804,-0.09573932894164651,-0.843752429272939,0.30731445558099135
-1325.4565000534058,4848.0,-8.0,15632.0,78.0,0.0,-262.0,-0.42174944121979513,-0.07933098922501028,-0.8435689355469861,0.32283967222058824
-1325.4720840454102,4616.0,-232.0,15856.0,82.0,-38.0,-490.0,-0.40982830446556556,-0.045140274444062295,-0.8424128753164332,0.346905843108896
-1325.4876763820648,4716.0,-228.0,15956.0,71.0,-63.0,-275.0,-0.40576514964043436,-0.025528541165539063,-0.8387772604457674,0.36215417197973665
-1325.5032739639282,4680.0,-272.0,15952.0,52.0,-16.0,-261.0,-0.3985031797701428,-0.007739207121554621,-0.8368748076068442,0.3752011151092468
-1325.5188825130463,4616.0,-288.0,15924.0,32.0,-54.0,-273.0,-0.39340755788630255,0.012868667356039394,-0.833834981652555,0.3870195268599483
-1325.5344636440277,4664.0,-364.0,16048.0,49.0,0.0,-242.0,-0.385236243661877,0.028806284367845356,-0.8316645185734644,0.3988701080504448
-1325.550034046173,4648.0,-288.0,16048.0,96.0,-44.0,-268.0,-0.3792579315742839,0.04656339200824069,-0.8258556652634256,0.4146778171243156
-1325.565595626831,4652.0,-228.0,16028.0,102.0,-69.0,-228.0,-0.3763331651361742,0.062116362810111465,-0.8186888576989736,0.42925919974926746
-1325.5811700820923,4528.0,-264.0,15956.0,74.0,-54.0,-209.0,-0.3727236551399557,0.07664054200577593,-0.8127907461231177,0.44110600453496174
-1325.5967514514923,4376.0,-240.0,15920.0,134.0,-71.0,-251.0,-0.3689070349979333,0.09280234683043681,-0.8033189211738071,0.45822923830321816
-1325.6123225688934,4652.0,-252.0,15920.0,63.0,16.0,-291.0,-0.3565674467804965,0.11051209927098453,-0.7986242849815924,0.47206565565480196
-1325.6279685497284,4656.0,-224.0,15984.0,18.0,52.0,-312.0,-0.34015969795664786,0.12951928376169636,-0.7961235908608014,0.4834287570002456
-1325.6435332298279,4700.0,-244.0,15952.0,58.0,92.0,-351.0,-0.31947268384807936,0.14823954169017,-0.7919677709471296,0.49874772414060015
-1325.659096479416,4772.0,-232.0,16128.0,46.0,118.0,-371.0,-0.2956084732507628,0.16737676301239746,-0.7879283268125932,0.5135850480223818
-1325.6746513843536,4748.0,-316.0,16040.0,41.0,8.0,-322.0,-0.2811277801695768,0.18803778744379815,-0.7812113740288673,0.5247073001189294
-1325.6902158260345,4752.0,-312.0,16044.0,53.0,306.0,-353.0,-0.2447725230524803,0.19663257627874248,-0.7797742942831,0.541640186728977
-1325.705780506134,4788.0,-228.0,15816.0,-9.0,403.0,-374.0,-0.19928390391452577,0.20299854114696173,-0.7814230193074946,0.5553877769893304
-1325.7213685512543,5116.0,-164.0,16072.0,-250.0,596.0,-404.0,-0.1343172471462481,0.20556104353128285,-0.7949281713487514,0.5547907145018869
-1325.73695063591,4892.0,-184.0,16128.0,23.0,735.0,-424.0,-0.06301293679300349,0.1985766787462098,-0.7925852666272105,0.5730665472528643
-1325.7525131702423,4876.0,-204.0,16064.0,45.0,892.0,-416.0,0.01868171116037851,0.18182075426203262,-0.7850616592235151,0.5918364623820732
-1325.7680826187134,4820.0,-132.0,16100.0,165.0,920.0,-327.0,0.09567813789153035,0.156389160759978,-0.7669106910547809,0.6150090375533334
-1325.7836441993713,4796.0,-120.0,15888.0,202.0,992.0,-177.0,0.16819913440822767,0.11620764090569813,-0.7422967895136814,0.6381224895403204
-1325.7992646694183,4676.0,-40.0,16000.0,181.0,940.0,255.0,0.21232681067080483,0.04980438370869023,-0.718221672529659,0.6607529628707396
-1325.8148064613342,4660.0,-68.0,15812.0,114.0,881.0,48.0,0.26356153060404824,-0.0018806126719015243,-0.6933313379387939,0.6706887793258745
-1325.8304188251495,4600.0,-104.0,15844.0,89.0,836.0,-58.0,0.3167768161392664,-0.045114240531092774,-0.666979273475851,0.6728713122221798
-1325.845989227295,4672.0,124.0,15916.0,56.0,886.0,-187.0,0.3784516449853296,-0.08441159748805774,-0.6378085062472038,0.6654692659891385
-1325.8615510463715,4688.0,400.0,16116.0,73.0,805.0,-276.0,0.4387010147706394,-0.11302749769597233,-0.6071958826758588,0.6527475503326555
-1325.8771603107452,4608.0,416.0,15716.0,-6.0,742.0,-244.0,0.4908180665147687,-0.14220616144651235,-0.5800518042547135,0.6343618349256235
-1325.8927261829376,4504.0,324.0,15464.0,255.0,567.0,-18.0,0.523007739678477,-0.1614501965851502,-0.540929737683986,0.6385857476863704
-1325.9082918167114,4504.0,192.0,15508.0,79.0,344.0,-334.0,0.5585716860310734,-0.1610103563811746,-0.5249150386013981,0.6217214319552639
-1325.9241421222687,4688.0,16.0,15860.0,31.0,190.0,-374.0,0.587709852513488,-0.1524725060178727,-0.5187299896682275,0.6018874163712054
-1325.9397780895233,4812.0,56.0,15684.0,-45.0,24.0,-443.0,0.611109317476874,-0.13578018449094056,-0.5252128317099813,0.5764205279132052
-1325.9553680419922,4888.0,-232.0,15672.0,-152.0,-58.0,-335.0,0.6232790731772956,-0.12545262353467207,-0.5394885485037563,0.552029838161697
-1325.9709494113922,5036.0,-64.0,15828.0,-147.0,-12.0,-5.0,0.621400279694195,-0.13253897841509266,-0.5470844969760963,0.5449712513198026
-1325.9866280555725,4920.0,-296.0,15880.0,-36.0,143.0,240.0,0.6163145941077081,-0.15262558580256444,-0.537953069466333,0.5544981935949169
-1326.0022163391113,5096.0,-260.0,15952.0,-244.0,230.0,447.0,0.6016209944238101,-0.19754730250986297,-0.5306613588566359,0.5634055063238302
-1326.0178124904633,5076.0,-484.0,15820.0,-53.0,449.0,674.0,0.5869926675998799,-0.2528953878872103,-0.4966890360806048,0.5871827078573363
-1326.0333926677704,4976.0,-212.0,15672.0,-131.0,613.0,512.0,0.58308645305459,-0.3123250642061158,-0.4594288712358409,0.5927801909711763
-1326.0489709377289,4652.0,-152.0,15484.0,-303.0,727.0,788.0,0.5606674806829663,-0.39497119422954574,-0.41456587736436157,0.598151205932596
-1326.064537525177,4032.0,-196.0,15308.0,-435.0,745.0,547.0,0.5420205008614192,-0.4729439855799926,-0.3803720977117597,0.5812528111175066
-1326.0801131725311,3396.0,-232.0,14860.0,-317.0,624.0,-86.0,0.5530642171583,-0.5156442607479567,-0.3697232150178298,0.5399404711018149
-1326.095736503601,3068.0,24.0,14552.0,-78.0,755.0,-992.0,0.6171094588367185,-0.5197775953224967,-0.3792998403598242,0.45292250807177514
-1326.1113376617432,3008.0,268.0,14744.0,3.0,345.0,-2014.0,0.6973826319249333,-0.45920546613279867,-0.4448981589519175,0.32381079772670673
-1326.12691116333,3432.0,856.0,15188.0,572.0,380.0,-3062.0,0.7925158875965523,-0.3048603535649455,-0.5094894163061469,0.13928125287822088
-1326.1424839496613,4320.0,1200.0,16160.0,610.0,401.0,-3856.0,0.826410829450665,-0.09075731143586342,-0.5456898706265499,-0.10502769388678629
-1326.1580543518066,5124.0,1068.0,17260.0,412.0,323.0,-4645.0,0.7431035352949787,0.15112381360640142,-0.521082376219858,-0.3917038243191253
-1326.1736755371094,5960.0,84.0,17176.0,607.0,196.0,-4184.0,0.5638372912693062,0.36341006684124944,-0.44443071260300937,-0.5937187667471121
-1326.1893382072449,6240.0,-1056.0,16732.0,907.0,-383.0,-3471.0,0.3247107153167657,0.49859079191374495,-0.3816357361506054,-0.7073360859379964
-1326.2049272060394,6236.0,-2116.0,15780.0,908.0,-942.0,-2434.0,0.10070222640125816,0.5318848586399937,-0.34842955931986563,-0.7652152644449193
-1326.2205564975739,6020.0,-3300.0,15192.0,525.0,-1204.0,-1401.0,-0.053114224299211185,0.49172234641088614,-0.3244509932385266,-0.8062999232319193
-1326.2361340522766,5764.0,-3388.0,15024.0,15.0,-1528.0,-317.0,-0.11825762756209003,0.38937057783189843,-0.3019467745449904,-0.862110104327815
-1326.2517414093018,5836.0,-2992.0,15268.0,-465.0,-1800.0,622.0,-0.10161937258229185,0.2387026116536614,-0.26554027048305034,-0.9285380611786956
-1326.2673308849335,6052.0,-1876.0,15908.0,-903.0,-2509.0,1099.0,-0.05030850497915724,0.017167455129130968,-0.1870051051195051,-0.9809196824768043
-1326.2829117774963,6040.0,-1048.0,16220.0,-1200.0,-2417.0,1324.0,0.024588623426082316,-0.19953322436049994,-0.07294226985841726,-0.9768629981948412
-1326.298479795456,6112.0,-520.0,16288.0,-1172.0,-1943.0,1291.0,0.09938152279729102,-0.36643979836850216,0.04445135890191021,-0.924050466040636
-1326.3140559196472,6136.0,-744.0,16108.0,-904.0,-1540.0,1150.0,0.1663681570274166,-0.48553330058763444,0.1383799145490768,-0.8470124258812081
-1326.3296213150024,5608.0,-1296.0,15100.0,-666.0,-1255.0,1158.0,0.2359300412902114,-0.566635090840126,0.21565737823006031,-0.7594429436503692
-1326.3452179431915,5388.0,-1700.0,14448.0,-449.0,-1234.0,1423.0,0.32667605277766437,-0.6219553198958695,0.2862609164447502,-0.6515435705392564
-1326.360802412033,5224.0,-1932.0,13748.0,-378.0,-1634.0,1823.0,0.44052534228130935,-0.6646665569223332,0.35193583894225283,-0.4902009345002912
-1326.3763885498047,5172.0,-1880.0,13432.0,-414.0,-2394.0,2235.0,0.5628463999192644,-0.6863811315945553,0.39128341577701004,-0.24286243189669438
-1326.3920080661774,5536.0,-1612.0,13336.0,-290.0,-3110.0,2510.0,0.6654529508051429,-0.6426128804780169,0.3728119622843879,0.07233461748110981
-1326.4075791835785,5672.0,-1488.0,13624.0,-216.0,-3577.0,2812.0,0.6988572062611531,-0.5027198527014399,0.2985931299619367,0.4119629809779427
-1326.4232161045074,6468.0,-1508.0,13712.0,-106.0,-3655.0,2378.0,0.6579551478574928,-0.2950035772040011,0.16453276417725884,0.673050430767902
-1326.438797712326,7056.0,-1728.0,13968.0,28.0,-3643.0,2069.0,0.5536275109996595,-0.046476313307681455,0.009455845930297137,0.8314127244295644
-1326.4544019699097,7472.0,-1696.0,14276.0,284.0,-3649.0,1803.0,0.40221198293748495,0.22017610396277904,-0.13106938724440315,0.8789589408798595
-1326.4699959754944,7812.0,-1088.0,14340.0,578.0,-3666.0,1504.0,0.22069282522400005,0.4759950008826603,-0.23071709907981866,0.8194467988964007
-1326.4855682849884,7960.0,-728.0,15048.0,702.0,-3624.0,1527.0,0.008838796938007147,0.6778354539283685,-0.29619399130944796,0.6728522070845794
-1326.5011484622955,7964.0,-844.0,14752.0,863.0,-3837.0,1395.0,-0.20986512589181106,0.8153324607656254,-0.3109743562014893,0.4410040330216422
-1326.5167479515076,7988.0,-1004.0,15372.0,643.0,-3067.0,1150.0,-0.3678808518602845,0.8548271174024523,-0.2994024102004756,0.21045777475330146
-1326.5323221683502,8040.0,-1424.0,14884.0,673.0,-2454.0,992.0,-0.48686602471712226,0.8291140161123344,-0.27453217374772576,0.01278701840034849
-1326.5479428768158,7580.0,-1760.0,14580.0,752.0,-2413.0,686.0,-0.5848647976819148,0.763673661675312,-0.21520091887143386,-0.16859499225304497
-1326.5635092258453,6916.0,-1676.0,13772.0,932.0,-2524.0,894.0,-0.6613787732981937,0.6427001107010647,-0.15492774533766274,-0.35427684042285906
-1326.5790827274323,6484.0,-1348.0,13736.0,1042.0,-2406.0,1345.0,-0.6884551858983005,0.4743972587406516,-0.11973592189483352,-0.5353877164420994
-1326.5946626663208,6304.0,-1052.0,13892.0,1009.0,-2366.0,1629.0,-0.6561359910374494,0.2764051278111882,-0.08897121116008029,-0.6965413772129356
-1326.610258102417,6424.0,-1412.0,14512.0,1037.0,-2359.0,1880.0,-0.5637787588673807,0.056628018472950854,-0.059837942616320285,-0.8218066677736492
-1326.6258280277252,7224.0,-1960.0,14876.0,1028.0,-2039.0,2287.0,-0.399879826733439,-0.14661783852539412,-0.04263652183380203,-0.9037596254556253
-1326.6414034366608,7460.0,-2108.0,15312.0,1436.0,-1080.0,2188.0,-0.2066991094726942,-0.28164575359943683,-0.08726514086204806,-0.9329179721781158
-1326.6569805145264,7228.0,-1712.0,14936.0,1622.0,-590.0,1605.0,-0.03975026493836783,-0.3634638117657924,-0.1654977825342826,-0.915928194756688
-1326.672545671463,7480.0,-840.0,15172.0,1621.0,230.0,885.0,0.08469140234417642,-0.3586495435289485,-0.2641480648604786,-0.8913044772275736
-1326.6881093978882,7564.0,-748.0,15008.0,1729.0,1211.0,195.0,0.1789363292801953,-0.25178357150671715,-0.37699992630546164,-0.8731883409372391
-1326.7037398815155,7652.0,-1056.0,14736.0,2208.0,2096.0,-267.0,0.2668415929402398,-0.04711726493634166,-0.5006947391435522,-0.8221193987590879
-1326.7193577289581,7860.0,-1696.0,14716.0,2784.0,3000.0,-366.0,0.3607446449897528,0.2343053281477907,-0.5948502026835985,-0.6790563678223297
-1326.7349407672882,7688.0,-2188.0,15728.0,2821.0,3758.0,-637.0,0.4255163673515333,0.5348805128310339,-0.5826869185125352,-0.439675577106497
-1326.7505197525024,4748.0,-884.0,20816.0,2195.0,5880.0,-1796.0,0.48069357060093004,0.8109610623404099,-0.3167986457918756,-0.10447231487373265
-1326.7661273479462,2564.0,3196.0,29296.0,-819.0,8189.0,-5833.0,0.5343722145790843,0.7599071412177557,0.33565069958490584,0.15596820470937742
-1326.7816944122314,4416.0,8304.0,22608.0,-2030.0,8374.0,-6739.0,0.3728384685736279,0.2558016378650011,0.828548152124417,0.33024984182958944
-1326.7973353862762,3708.0,6440.0,13064.0,510.0,6450.0,-5575.0,0.04465611538710379,-0.25395492802003117,0.9441268119377,0.205273692599001
-1326.8129453659058,3600.0,1336.0,11800.0,1905.0,3639.0,-3018.0,-0.14524069606477666,-0.5120685725823052,0.8456151311487563,-0.0403232830063614
-1326.8285431861877,7256.0,-5112.0,16352.0,1710.0,2337.0,435.0,-0.2323472697505182,-0.47802636495185746,0.8035570742389816,-0.26795814802106926
-1326.8440957069397,7480.0,-9240.0,21288.0,548.0,3635.0,1049.0,-0.41732409853450464,-0.31350194020449884,0.7216213064520604,-0.45477447195813386
-1326.8596951961517,6756.0,-8340.0,21712.0,15.0,5420.0,1831.0,-0.6134266278851259,0.014767283366874754,0.5131522740745516,-0.6001370203174956
-1326.875277519226,4472.0,-3228.0,19280.0,440.0,6032.0,2187.0,-0.6711326257885971,0.3532522603846268,0.14309696205088251,-0.63585933868039
-1326.8908405303955,3652.0,1052.0,16488.0,1349.0,5524.0,2330.0,-0.5750158459745094,0.5372951136373022,-0.28839243846006324,-0.5454360999959176
-1326.906429052353,3756.0,3284.0,15344.0,2054.0,5311.0,2882.0,-0.34988281213479866,0.5367427124363517,-0.6883153785268604,-0.34016351671297407
-1326.9221730232239,2844.0,3452.0,15536.0,2386.0,5325.0,2449.0,-0.060425962681276604,0.41561975505294146,-0.9073217379851197,-0.019395515549620133
-1326.937824010849,2576.0,2992.0,15716.0,1976.0,4890.0,1873.0,0.23214698793577118,0.23821308307626685,-0.902464168012877,0.27371651118716595
-1326.9534034729004,2688.0,2276.0,15908.0,1469.0,4689.0,1951.0,0.4761610996258431,0.002037670534846744,-0.7380578092685929,0.4780555671462731
-1326.9689724445343,2484.0,1256.0,16224.0,895.0,4677.0,1854.0,0.63929676415101,-0.2514732852761889,-0.46258871745971025,0.5604217274672967
-1326.9845838546753,2636.0,288.0,16060.0,1018.0,4530.0,1737.0,0.6971879573016158,-0.44628789155295984,-0.1117187333912912,0.5497954116362371
-1327.0001776218414,2616.0,1160.0,15828.0,943.0,4188.0,1124.0,0.67225769106858,-0.5601089523264535,0.21653669512213206,0.4329658392858371
-1327.0158822536469,2768.0,2708.0,15144.0,1158.0,3607.0,352.0,0.6144937586891254,-0.5900257598331144,0.4642169546949839,0.24242450833028845
-1327.0314738750458,2676.0,3932.0,14784.0,974.0,2923.0,-712.0,0.5411265420993701,-0.6057792706599088,0.583116383415655,0.01374132695829891
-1327.0470843315125,2564.0,3904.0,14596.0,618.0,2629.0,-1610.0,0.4262228037759956,-0.6380702837217245,0.6006715302257721,-0.22448640793784466
-1327.062651872635,2652.0,3144.0,15324.0,413.0,2683.0,-1989.0,0.25868289492577007,-0.6470559019073339,0.5580094031485183,-0.4505855364717606
-1327.0782260894775,2596.0,1320.0,16588.0,336.0,2760.0,-2151.0,0.05605849433697673,-0.6076785075804625,0.4642104698785241,-0.6419446364700097
-1327.0937988758087,3176.0,-504.0,17780.0,456.0,2640.0,-2143.0,-0.14064400117496784,-0.5213893241254177,0.32362817699561264,-0.7769409505721991
-1327.1093747615814,3288.0,-1176.0,18256.0,374.0,2440.0,-2341.0,-0.3367883553695716,-0.4088464626879312,0.15498976468511125,-0.8339042789660448
-1327.1249678134918,3276.0,-260.0,18172.0,199.0,2085.0,-2534.0,-0.5213153072936271,-0.28547604669341226,-0.010850735103984396,-0.8041243925496572
-1327.1405415534973,3156.0,1216.0,17864.0,255.0,2234.0,-2944.0,-0.6845895669693007,-0.1305679965224321,-0.19382350134382997,-0.6904502685984861
-1327.156126499176,3052.0,1780.0,17472.0,-130.0,2413.0,-3316.0,-0.7956574044803296,0.07413931132404453,-0.3461518536083751,-0.49153997950879624
-1327.1717698574066,2376.0,1228.0,17548.0,-187.0,2166.0,-3336.0,-0.8239012938177869,0.26521314272597757,-0.4408895346463814,-0.23762378923433655
-1327.1873598098755,1568.0,76.0,17532.0,-264.0,1637.0,-3107.0,-0.7831891174687459,0.41832837069041845,-0.4598356751227879,0.01293570401626776
-1327.2029557228088,1204.0,-288.0,18008.0,-322.0,1259.0,-2703.0,-0.6945536064638305,0.5294945207524708,-0.43287916595606246,0.2232632256382169
-1327.2186164855957,948.0,-200.0,18512.0,-57.0,991.0,-2095.0,-0.6015504667717212,0.5809428088853812,-0.3892759727015276,0.3861433746788453
-1327.2342054843903,880.0,328.0,18608.0,252.0,683.0,-1701.0,-0.5270379003220677,0.5946944697311465,-0.3260951428789832,0.5120854392443042
-1327.2498316764832,252.0,840.0,18248.0,754.0,775.0,-1088.0,-0.49116794899851385,0.5513073947796145,-0.2691027875076001,0.6183832889830924
-1327.265412569046,-484.0,596.0,18656.0,895.0,638.0,-502.0,-0.4894994591116932,0.4874500751064299,-0.22268808675679275,0.6878900492263971
-1327.2809808254242,-992.0,56.0,18264.0,769.0,413.0,619.0,-0.5490286003345721,0.4157853825924329,-0.21947546316887784,0.6910286771935961
-1327.2965626716614,-1144.0,-400.0,17228.0,453.0,285.0,1670.0,-0.6531969455734662,0.3407357831034558,-0.26327070879957104,0.6228333728169522
-1327.3121576309204,-1492.0,-532.0,16008.0,-120.0,297.0,2375.0,-0.7556444259958505,0.27080498030011724,-0.34968426966386873,0.4831015169254817
-1327.3278353214264,-1680.0,-200.0,15168.0,-469.0,266.0,2713.0,-0.8271729069991397,0.20176673517936924,-0.43839045270731297,0.2879044589386002
-1327.3434357643127,-1296.0,348.0,15024.0,-262.0,167.0,2728.0,-0.8604642331993909,0.10891492679119663,-0.491004404529018,0.08156909242940505
-1327.3589951992035,-724.0,1108.0,15292.0,492.0,251.0,2603.0,-0.8503862286417447,-0.040370427649745064,-0.5171541850162343,-0.08811946225460814
-1327.3746263980865,-364.0,1688.0,15364.0,1381.0,-331.0,2690.0,-0.8117448872954176,-0.2579260156292858,-0.47701428253131395,-0.21679894527530993
-1327.39022731781,-136.0,1672.0,14900.0,1890.0,-845.0,3014.0,-0.7120590788697294,-0.5080177841956426,-0.36666953770191224,-0.31692782973668915
-1327.4058101177216,52.0,1508.0,14448.0,2027.0,-1086.0,3597.0,-0.522435651498409,-0.7300408491291595,-0.18333746991771568,-0.4006104351740972
-1327.421410560608,216.0,1364.0,14756.0,1790.0,-1277.0,4191.0,-0.2609387553196258,-0.8533755206093484,0.07338898156477686,-0.4452810844644683
-1327.4369921684265,144.0,1392.0,14708.0,1468.0,-1057.0,4365.0,0.022936496754802266,-0.8319121551738767,0.33795054095023946,-0.4395287420203745
-1327.4525785446167,472.0,1536.0,14432.0,1171.0,-1228.0,4161.0,0.2828655317555219,-0.7018377191000551,0.5517908262434242,-0.35062485802734705
-1327.4681661128998,948.0,1644.0,14988.0,1194.0,-1035.0,3859.0,0.4924111861437044,-0.4868728108378295,0.6822919668454317,-0.23444351517074077
-1327.4838089942932,1284.0,1680.0,15988.0,1388.0,-608.0,3896.0,0.6269708265827902,-0.19499883694503756,0.7452176852364323,-0.11633416443602898
-1327.4994010925293,1596.0,1808.0,16180.0,1529.0,-503.0,3686.0,0.6823934334303776,0.11641458921366243,0.7216368872418595,-0.005200807744466886
-1327.514966726303,1228.0,2244.0,15532.0,1302.0,-618.0,3017.0,0.6811351714719097,0.3683695350965576,0.62730103418184,0.08277787331812851
-1327.5306315422058,688.0,2832.0,15068.0,668.0,-1445.0,1877.0,0.7091298119489832,0.5096398565861914,0.4749178244617098,0.10888152456942735
-1327.546199798584,576.0,3520.0,14372.0,-311.0,-2384.0,157.0,0.802830963630951,0.50835311038748,0.3105129493249934,0.02492523412662772
-1327.5617938041687,1508.0,3720.0,14972.0,-1013.0,-2771.0,-951.0,0.8929277570375774,0.4029981671473394,0.15078328997826396,-0.13242695137719146
-1327.5773725509644,2336.0,3292.0,16108.0,-1380.0,-2549.0,-1434.0,0.9224579615602228,0.23763300575841687,0.017679645648576187,-0.30379153026067046
-1327.5929625034332,3016.0,2724.0,16272.0,-1638.0,-1745.0,-1943.0,0.8764649876328531,0.05431741901929041,-0.03790355777554911,-0.4768878943240028
-1327.6085710525513,2752.0,2432.0,15184.0,-1804.0,-1160.0,-2506.0,0.7465708998962017,-0.1189251721086437,-0.03842281752966111,-0.6534618443032366
-1327.6241846084595,2616.0,2440.0,14332.0,-2105.0,-1187.0,-2998.0,0.5211518841096359,-0.297132211368238,-0.025611010675051445,-0.7996607022910404
-1327.6399207115173,2532.0,2448.0,14572.0,-2709.0,-1253.0,-3344.0,0.1999658616417885,-0.46572522816574985,0.01830490023980339,-0.8618460399949799
-1327.6555066108704,2224.0,2100.0,14960.0,-3244.0,-1076.0,-4001.0,-0.21008092157156955,-0.5538715670436749,0.07348345002573055,-0.8023044784771801
-1327.6710982322693,1780.0,1684.0,14720.0,-3755.0,-1225.0,-4579.0,-0.6230218759372929,-0.5306279002202697,0.12159806583072982,-0.5616864641395852
-1327.6866807937622,804.0,1100.0,13988.0,-4189.0,-1975.0,-5164.0,-0.8976272907937916,-0.38860752897886913,0.1669384105050614,-0.12402016909026908
-1327.7022588253021,972.0,900.0,13244.0,-4540.0,-2544.0,-4995.0,-0.9043572135352081,-0.11255703111412257,0.2080792046455805,0.3552069673692665
-1327.7178447246552,1524.0,772.0,14488.0,-4425.0,-2453.0,-4107.0,-0.674523287584565,0.2071698506973615,0.19464291331429115,0.6813318749072794
-1327.7334280014038,2064.0,208.0,17356.0,-4209.0,-2112.0,-3546.0,-0.31276519672950714,0.46250858381332166,0.11793444721710593,0.8211913344485219
-1327.7489914894104,3032.0,-1188.0,19540.0,-3518.0,-1764.0,-2858.0,0.048082841067516965,0.6032892026645584,0.026919345331037087,0.795616444771088
-1327.76456284523,3592.0,-2152.0,19936.0,-2828.0,-1429.0,-2112.0,0.32932509786893255,0.6505665677254769,-0.06100755596813814,0.6816056036934446
-1327.7801275253296,3020.0,-2112.0,18912.0,-2323.0,-1522.0,-1508.0,0.5233528501589133,0.6576859976462401,-0.1516827346351506,0.5201377420878187
-1327.795705318451,1884.0,-1920.0,18388.0,-2032.0,-1526.0,-1088.0,0.6505999842306646,0.6303403216035381,-0.24417761021220527,0.346075185690716
-1327.811303138733,1920.0,-1968.0,18276.0,-928.0,-1796.0,-1074.0,0.6824288169295089,0.6419869518281773,-0.3089848015579057,0.16331581648076224
-1327.826896429062,2616.0,-1640.0,17664.0,81.0,-1716.0,-1059.0,0.6370016945987761,0.6891392030247269,-0.3453659047387282,0.006196109806256774
-1327.8424818515778,3144.0,-996.0,16628.0,801.0,-1406.0,-990.0,0.5397203374785418,0.7539528673589281,-0.35865906784494994,-0.10779936996982477
-1327.858059167862,3012.0,180.0,15764.0,1023.0,-1260.0,-480.0,0.42391986559935324,0.7966273487368878,-0.39179553339611994,-0.17936854463788568
-1327.873645067215,2676.0,864.0,15020.0,46.0,-1462.0,-712.0,0.3560759417046601,0.7918078367851761,-0.3931513470208594,-0.30279083817117586
-1327.8892705440521,2056.0,1196.0,14104.0,-497.0,-1537.0,-1151.0,0.3028173936252912,0.7638276994658293,-0.34311465820493803,-0.4551276776593933
-1327.9048738479614,2424.0,1256.0,13604.0,-710.0,-2110.0,-1421.0,0.22466949816117546,0.6857394173823064,-0.26886610177641074,-0.6379624498038561
-1327.9207940101624,2864.0,788.0,14500.0,-720.0,-2131.0,-1507.0,0.13028507277721363,0.5724441613891996,-0.175497186612037,-0.7902747746158371
-1327.936388015747,3224.0,-136.0,16300.0,-386.0,-1713.0,-611.0,0.08015653201921494,0.45316778862491197,-0.1360065141227015,-0.8773346646768558
-1327.9520070552826,3460.0,-1112.0,18464.0,203.0,-1044.0,111.0,0.06794744104515422,0.37151365457310453,-0.16248611996643797,-0.9115695313794794
-1327.9675855636597,3728.0,-2548.0,19792.0,664.0,-286.0,704.0,0.09799962559466215,0.34119096215318107,-0.23882598567469124,-0.9038511765190134
-1327.983166217804,3364.0,-3436.0,18948.0,738.0,139.0,1327.0,0.1820168583263231,0.3277475644426756,-0.3323273353291464,-0.8654536033086573
-1327.9987976551056,2904.0,-3292.0,17296.0,711.0,107.0,1833.0,0.2988977045539799,0.28957128729658804,-0.4303410356738093,-0.801008879352128
-1328.0144102573395,2784.0,-1804.0,15752.0,738.0,-210.0,2060.0,0.40898208592871,0.21276244084484638,-0.5297007075220219,-0.7119571318596464
-1328.0300605297089,2700.0,-52.0,15500.0,654.0,-720.0,1853.0,0.4709835011030268,0.10388250933309849,-0.6200698525310263,-0.6187861859524216
-1328.0456454753876,3124.0,1292.0,15840.0,531.0,-1031.0,1489.0,0.4843495899910213,-0.010471475702653343,-0.6951426792044659,-0.531104959890769
-1328.061231136322,3660.0,2224.0,15832.0,263.0,-1080.0,317.0,0.43164978268033805,-0.06831814549087592,-0.7487964662203882,-0.49831209927570863
-1328.0768477916718,3944.0,1716.0,15800.0,-67.0,-977.0,-464.0,0.345746119192665,-0.08264397052891206,-0.7818812313816185,-0.5121438618314115
-1328.092435836792,3880.0,716.0,15652.0,-421.0,-827.0,-955.0,0.24201264777225728,-0.06669667525332594,-0.789514131354278,-0.5600436306398936
-1328.1080558300018,3748.0,-480.0,15792.0,-408.0,-565.0,-1147.0,0.1436995067547297,-0.023735786645932268,-0.7827540820490756,-0.6050480239007937
-1328.1236681938171,3504.0,-1476.0,16136.0,-284.0,-306.0,-775.0,0.08107349143879815,0.009451587359575998,-0.7708520702272041,-0.6317632802788881
-1328.139286994934,3568.0,-2012.0,16328.0,28.0,-50.0,-635.0,0.04263377520044748,0.04952608929971568,-0.7709596134958131,-0.6335225347603832
-1328.154850244522,3400.0,-1800.0,16344.0,209.0,-22.0,-184.0,0.03009074132289324,0.06143145970193758,-0.781500869815151,-0.6201428170378905
-1328.1704504489899,3588.0,-1204.0,16332.0,258.0,-246.0,305.0,0.028437110029593655,0.027939944202929817,-0.7970130319626312,-0.6026449345782602
-1328.1860208511353,3864.0,-596.0,16176.0,282.0,-498.0,663.0,0.02792519105985113,-0.04357817395740526,-0.8122648465481989,-0.5809879047973718
-1328.2015926837921,4028.0,-176.0,16508.0,153.0,-611.0,786.0,0.024978065640782553,-0.12943835351606675,-0.815314052764197,-0.563812738629693
-1328.2171535491943,3968.0,296.0,16424.0,173.0,-578.0,795.0,0.02485523337585939,-0.21328775823396776,-0.8129644338708166,-0.5412756957618388
-1328.2327618598938,3904.0,284.0,16264.0,147.0,-410.0,685.0,0.030809967781141073,-0.28024966196407985,-0.8059671595434481,-0.5205072627656698
-1328.2483568191528,3848.0,108.0,16236.0,97.0,-251.0,541.0,0.04007468143975092,-0.3289931481234966,-0.7966535461468512,-0.5054707269535403
-1328.2639954090118,4092.0,-144.0,16220.0,234.0,-192.0,425.0,0.05216947949956149,-0.3658159031699155,-0.7945711126915896,-0.4817819187897913
-1328.279583454132,3784.0,-404.0,15952.0,412.0,-227.0,353.0,0.06437107579111281,-0.39743976884110416,-0.8005619289883766,-0.4438452349630823
-1328.2951769828796,3580.0,-316.0,16052.0,558.0,-352.0,242.0,0.06840778528840147,-0.4240498175384308,-0.8141978272091074,-0.3906200523853426
-1328.3107929229736,3568.0,-300.0,15824.0,623.0,-449.0,269.0,0.06858597197474486,-0.45361055766756136,-0.8260570347652808,-0.3273579107576215
-1328.3264420032501,3732.0,-108.0,15880.0,541.0,-470.0,264.0,0.06354864930007303,-0.48176596855779347,-0.8320107026289576,-0.2676215825051785
-1328.3420147895813,3988.0,-96.0,16068.0,433.0,-266.0,287.0,0.0690829825787551,-0.5057639407992272,-0.8304405261190193,-0.2231566944647329
-1328.3576033115387,4056.0,-128.0,16244.0,274.0,-486.0,289.0,0.051530197469932607,-0.5337251416748306,-0.8246995065883411,-0.17986894041450974
-1328.3731677532196,4060.0,-280.0,16252.0,158.0,-325.0,461.0,0.0427033290501236,-0.5705588896189174,-0.8061028948890364,-0.15111949581830972
-1328.388753414154,3956.0,-744.0,16160.0,163.0,-239.0,536.0,0.04104220111381899,-0.609959206343889,-0.7813381190765715,-0.12560273883140982
-1328.4043295383453,3888.0,-816.0,16140.0,178.0,-345.0,532.0,0.032792424810026345,-0.6483191237990614,-0.754948060582366,-0.09306125087500411
-1328.4199359416962,3928.0,-636.0,16180.0,199.0,-469.0,260.0,0.015261869601441986,-0.6678622258387267,-0.742265690462408,-0.052619078254704646
-1328.4355032444,3956.0,-292.0,16348.0,183.0,-261.0,419.0,0.010950366453817565,-0.6952330661112074,-0.7182666863614523,-0.02498080309909616
-1328.451080083847,4016.0,-4.0,16180.0,304.0,-446.0,371.0,0.0022571819184826094,-0.7180050191543107,-0.6957036720458243,0.021449902120075064
-1328.4666771888733,3976.0,252.0,16108.0,438.0,-375.0,359.0,0.006266131190733772,-0.7377238600364616,-0.6712776456234465,0.07148821174883518
-1328.4822449684143,3852.0,-20.0,16140.0,390.0,-373.0,282.0,0.007767801102892922,-0.7506476204687479,-0.6499704806163505,0.11834773119068565
-1328.4978048801422,3892.0,192.0,15896.0,341.0,-398.0,151.0,0.005977313132587851,-0.7540164702504658,-0.6361028367253219,0.16369671783130565
-1328.5133771896362,3952.0,-96.0,15832.0,232.0,-371.0,159.0,-0.0016095006463122446,-0.7567948737894216,-0.6220022370613423,0.20092821007615738
-1328.528964996338,3860.0,-168.0,15804.0,199.0,-379.0,40.0,-0.009723262441089155,-0.7518127029823299,-0.6153820214298465,0.2366180160148853
-1328.5445153713226,4056.0,-192.0,15884.0,137.0,-468.0,7.0,-0.02598162912521488,-0.7419591190133281,-0.6111404258892824,0.27446129145078424
-1328.5600790977478,4208.0,-228.0,16068.0,84.0,-477.0,18.0,-0.04636832475092534,-0.731017990219742,-0.606334718368868,0.30954948834625345
-1328.575659751892,4188.0,-4.0,16264.0,43.0,-427.0,-71.0,-0.06425473470863631,-0.7153682002985792,-0.6075322446023745,0.3391522354894555
-1328.5912628173828,4216.0,-228.0,16292.0,163.0,-221.0,-253.0,-0.058270970140102775,-0.6959374298996353,-0.6169315589086154,0.3628650428550635
-1328.60684800148,4132.0,-296.0,16232.0,244.0,-14.0,-363.0,-0.0326737135902263,-0.6766750699085523,-0.6307156427996005,0.3784720017813295
-1328.622486114502,4020.0,-512.0,16116.0,311.0,-9.0,-436.0,-0.0003823626064531317,-0.6525267498451205,-0.6454543569653518,0.3969853493642365
-1328.638067483902,3948.0,-380.0,15992.0,310.0,-60.0,-378.0,0.026985733412231577,-0.6285566374757786,-0.6556231793996833,0.41754828500569513
-1328.6536390781403,3944.0,-340.0,16176.0,261.0,-120.0,-361.0,0.047579163470283604,-0.6023935818807773,-0.6656459878897758,0.43791964390577376
-1328.6692082881927,3900.0,-448.0,16356.0,197.0,-161.0,-289.0,0.059621947677043034,-0.5782730839927146,-0.6735827976676232,0.45643365166364386
-1328.6847922801971,3908.0,-400.0,16168.0,236.0,-235.0,-239.0,0.06722378268065042,-0.5532433692597646,-0.6770131111069736,0.48068283181476834
-1328.7003569602966,4032.0,-456.0,16056.0,231.0,-244.0,-235.0,0.07380249526105986,-0.5273889470781383,-0.6796416301922167,0.5044812629847811
-1328.715966463089,4068.0,-416.0,16144.0,250.0,-216.0,-152.0,0.07918158726891382,-0.506955131171687,-0.6766519171496469,0.5280804429573023
-1328.7315638065338,4184.0,-432.0,16168.0,265.0,-104.0,-80.0,0.08845670098781493,-0.4953976349740926,-0.6684400864267899,0.5476718416809226
-1328.7471332550049,4176.0,-440.0,16380.0,232.0,-28.0,-250.0,0.10879312965191114,-0.4774223758531069,-0.6680420477897855,0.5603139765882582
-1328.7626972198486,4028.0,-352.0,16040.0,248.0,-34.0,4.0,0.11695927933189278,-0.47347756337588076,-0.6558719603390318,0.5761696760493722
-1328.7782475948334,4056.0,-272.0,16172.0,267.0,38.0,231.0,0.11853307666061798,-0.48560536606161947,-0.6321617943137577,0.5920378400064803
-1328.7938010692596,3960.0,-192.0,16028.0,288.0,255.0,-19.0,0.1457502528425028,-0.4944228152751536,-0.6150536627712527,0.596667357447518
-1328.8093755245209,3920.0,-504.0,16092.0,271.0,56.0,-21.0,0.1615416933920212,-0.4925616982568696,-0.6009113551635173,0.608434711322334
-1328.8249604701996,3952.0,-512.0,16180.0,272.0,53.0,-59.0,0.17914042711593103,-0.4882348259714158,-0.5880272822997016,0.6194831534050057
-1328.8405377864838,4020.0,-332.0,16088.0,284.0,64.0,-57.0,0.1975925702215772,-0.48410059178120596,-0.5738561682865765,0.6303117414024314
-1328.856106519699,4028.0,-328.0,16064.0,226.0,1.0,-10.0,0.20775257705721548,-0.4795927775990039,-0.5616652403575573,0.6413749232508593
-1328.8717284202576,4100.0,-332.0,16024.0,258.0,-12.0,-5.0,0.21824136656301077,-0.4738017525958341,-0.5474541636592682,0.6543520030151635
-1328.8872900009155,4148.0,-252.0,15944.0,231.0,-59.0,-48.0,0.22771933286677123,-0.46355317463236223,-0.5371909673624535,0.6668494765021284
-1328.9028823375702,4092.0,-244.0,15720.0,239.0,-86.0,-102.0,0.23928115475226241,-0.4488008914731606,-0.528904224497278,0.6793987121729428
-1328.9189200401306,4176.0,-252.0,16088.0,3.0,-48.0,-130.0,0.2449311663509997,-0.43976976398208106,-0.5347194696786958,0.6787388063044708
-1328.9345216751099,4220.0,-248.0,16192.0,243.0,-31.0,-234.0,0.26661713350757865,-0.4215422587138526,-0.5296697222384064,0.6860520487415769
-1328.9500951766968,4200.0,-208.0,16084.0,287.0,-47.0,-284.0,0.2918887678969566,-0.3985731048016056,-0.5236249259053577,0.6940874327309302
-1328.9656748771667,4136.0,-312.0,15976.0,294.0,-48.0,-326.0,0.31950133602918546,-0.37289770523158206,-0.5179135634503255,0.7004510964391243
-1328.9813287258148,4144.0,-296.0,15928.0,364.0,-109.0,-311.0,0.34518719575914086,-0.3416038597613951,-0.5082667990842971,0.711208453147641
-1328.996904373169,4228.0,-348.0,15984.0,340.0,-131.0,-283.0,0.3668556432648856,-0.31030895238943773,-0.49904371016997673,0.7211661850166444
-1329.012527704239,4228.0,-312.0,15996.0,396.0,-91.0,-244.0,0.38871775037726247,-0.280914981675139,-0.4831178456568642,0.7325178706488783
-1329.028128862381,4244.0,-336.0,15980.0,477.0,-159.0,-274.0,0.41078980417373673,-0.24258343506980012,-0.46403332669581954,0.7463766378526662
-1329.0437223911285,4100.0,-284.0,16104.0,503.0,-212.0,-279.0,0.43048854298306216,-0.19902290176537393,-0.44400164397470443,0.7602184153787452
-1329.0593161582947,4164.0,-240.0,16012.0,571.0,-192.0,-167.0,0.4434635677558556,-0.15798688009244913,-0.41545655213679317,0.7783161716670866
-1329.0749037265778,4428.0,-340.0,15808.0,731.0,-83.0,19.0,0.4483940814668523,-0.12434270714585635,-0.36781873461910697,0.8051031097619338
-1329.0904836654663,4332.0,-328.0,15896.0,913.0,-32.0,28.0,0.4539348442199796,-0.08682794836598161,-0.3034556851181792,0.8332578903046726
-1329.106060743332,4108.0,-272.0,16188.0,1072.0,27.0,-12.0,0.46168798965195756,-0.04562772761162475,-0.22332648189211554,0.8572558504727884
-1329.121637582779,4216.0,-32.0,16244.0,1265.0,105.0,-91.0,0.4727204041099768,-0.0005224525170324267,-0.12383542100251049,0.8724677272464574
-1329.137231349945,4056.0,140.0,16144.0,1311.0,-78.0,-290.0,0.4906731102994596,0.06248163079668267,-0.026892449320874298,0.8686844886445053
-1329.1528050899506,3936.0,324.0,15836.0,1224.0,-245.0,-396.0,0.5101062920074383,0.13381107144810706,0.0570424033505912,0.8477218483867927
-1329.1683812141418,3908.0,316.0,15772.0,1109.0,-387.0,-421.0,0.5271084002683034,0.2084227582011957,0.12572193224188163,0.814193271885591
-1329.1839876174927,3896.0,284.0,16124.0,961.0,-267.0,-243.0,0.5277283279831962,0.267732387858783,0.18515513456371732,0.7845634177554965
-1329.1995463371277,3920.0,348.0,16124.0,765.0,-518.0,-176.0,0.5285258644814181,0.33433529091993797,0.2168476814286421,0.7495714821674263
-1329.215121269226,3880.0,228.0,16116.0,591.0,-522.0,-55.0,0.5235504081733525,0.3936341803019055,0.23230697790690208,0.7190136092003578
-1329.2307102680206,3964.0,272.0,16244.0,449.0,-459.0,-79.0,0.5216002447768046,0.4405169699769889,0.24168921409818903,0.6895391994656072
-1329.2462921142578,4064.0,176.0,16120.0,328.0,-458.0,-44.0,0.5207110994377863,0.48137002902381226,0.2418444879411016,0.6623096630220734
-1329.2619144916534,4120.0,148.0,16236.0,238.0,-432.0,-112.0,0.5258419214719404,0.5141679305364194,0.24032482118594256,0.6335342083522704
-1329.2775309085846,4156.0,112.0,16144.0,143.0,-437.0,-99.0,0.5336678674490594,0.5422395913362139,0.23231786970412333,0.6059729699054629
-1329.2931299209595,4180.0,132.0,16352.0,102.0,-459.0,-131.0,0.5446385015163978,0.5679761484080966,0.22223674288627865,0.5756586033551263
-1329.3087320327759,4228.0,112.0,16172.0,67.0,-406.0,-109.0,0.5543455901586369,0.5889228387576972,0.2114745106866797,0.5487707973198622
