programtime,ax,ay,az,gx,gy,gz,q0,q1,q2,q3
-9148.16244006157,5456.0,-1884.0,15764.0,129.0,112.0,520.0,0.998865405576291,0.011137012508363466,0.009451181492304575,0.04532707429009449
-9148.178014755249,5396.0,-2060.0,15732.0,126.0,298.0,690.0,0.9935859426620107,0.021348005521643575,0.03486942675766193,0.10542940900092211
-9148.193578720093,5496.0,-2032.0,15732.0,81.0,357.0,936.0,0.9799967173937193,0.02773125621876875,0.0642660629878832,0.1862989116288686
-9148.20918393135,5404.0,-1824.0,15880.0,7.0,537.0,998.0,0.9561109277416668,0.02500634433456233,0.10705168361772754,0.27159991463658484
-9148.224757671356,5336.0,-1368.0,16276.0,-27.0,513.0,935.0,0.9252563109593803,0.019223117358430297,0.14622714008129015,0.349498003273995
-9148.240372657776,5176.0,-1224.0,15984.0,-12.0,828.0,869.0,0.883426968017717,0.004069478239389265,0.2098090981122217,0.418951517332518
-9148.256045103073,4848.0,-1180.0,15812.0,-29.0,658.0,673.0,0.8440009465834535,-0.009845624255428214,0.2580834909928296,0.47006209964876894
-9148.271637678146,4612.0,-1480.0,15436.0,-107.0,456.0,269.0,0.8217584253350319,-0.030314744216661357,0.28692267526435733,0.49139544675659264
-9148.287284374237,4560.0,-1740.0,15232.0,-168.0,284.0,317.0,0.8000393583130787,-0.04653441492595553,0.3004228060796405,0.517221143191895
-9148.30287694931,4608.0,-1932.0,15208.0,-65.0,119.0,302.0,0.7827656860983787,-0.04846417335566033,0.30663987647143615,0.5393524735508954
-9148.318442583084,4920.0,-1768.0,15108.0,58.0,0.0,243.0,0.7714558636424543,-0.03793817048996643,0.3100714336464249,0.5543214335635958
-9148.334017038345,5096.0,-1304.0,15316.0,181.0,-123.0,502.0,0.7503017453709169,-0.006149998047030768,0.31160097795441155,0.5830216968134477
-9148.349617958069,5440.0,-1324.0,15448.0,166.0,-268.0,125.0,0.7510445220618118,0.0217961024135442,0.30217668803505826,0.586639842670685
-9148.365196228027,5316.0,-1328.0,15584.0,173.0,-171.0,186.0,0.745488672945697,0.046814094639379605,0.29910339865990165,0.5937947759646046
-9148.380778312683,5344.0,-1376.0,15740.0,179.0,-1.0,168.0,0.7359607330080049,0.06290418012870574,0.3072963337743599,0.599978188638131
-9148.396351337433,5288.0,-1284.0,15888.0,140.0,225.0,232.0,0.7167243180885481,0.0663182627639441,0.3273948363834514,0.6121443955423683
-9148.411962985992,5340.0,-1028.0,16232.0,-62.0,359.0,275.0,0.6916361386725306,0.05109165338670587,0.34442523449800677,0.6327719593007877
-9148.427563905716,5088.0,-1508.0,16556.0,-231.0,279.0,182.0,0.6738585020731368,0.027206633652713787,0.3472361654477436,0.6516145821528111
-9148.44316649437,5232.0,-1720.0,16384.0,-328.0,135.0,225.0,0.6573571860326075,0.007078775721503021,0.3355174108380212,0.6747291959965324
-9148.458817720413,5252.0,-1632.0,15928.0,-313.0,62.0,308.0,0.6371645885970358,-0.005464180571979614,0.31996400314220574,0.7011522420001673
-9148.474416732788,4808.0,-1380.0,15608.0,-243.0,153.0,457.0,0.6041814586754198,-0.015507401047731253,0.31322090300188693,0.7325414332502085
-9148.489985466003,4676.0,-816.0,15072.0,-153.0,132.0,404.0,0.5741255004977008,-0.020880868425325494,0.31045530412341055,0.7573383676757103
-9148.505566596985,4908.0,-904.0,15136.0,-42.0,-21.0,368.0,0.5500358224390892,-0.011537701631562045,0.3068879346245487,0.7766255668317225
-9148.521148204803,4936.0,-992.0,15556.0,-109.0,-33.0,302.0,0.530155716824836,-0.006363194699032679,0.29784897461409543,0.7938390353166683
-9148.536744356155,5036.0,-1028.0,15944.0,-190.0,-69.0,223.0,0.5162370670482712,-0.004495164661003355,0.2812622192580859,0.8089317944784256
-9148.552344799042,5224.0,-1688.0,16328.0,-168.0,66.0,161.0,0.503093896576731,-0.012692856686083111,0.2721148112448006,0.8201761713909974
-9148.56798171997,5220.0,-1688.0,16368.0,-86.0,0.0,102.0,0.49568412011063756,-0.013960290006434312,0.26579067229280373,0.8267149943573171
-9148.5835750103,5340.0,-1416.0,16020.0,50.0,412.0,126.0,0.4767763428559593,-0.03847912650163332,0.286911827634346,0.829991131808098
-9148.59918832779,5088.0,-1088.0,15764.0,141.0,446.0,132.0,0.4561330451731319,-0.06145419668362466,0.31560089226763344,0.8297964229923682
-9148.614809036255,5356.0,-952.0,15888.0,134.0,595.0,242.0,0.42226801127785824,-0.09228374748231714,0.34949332080175494,0.8312808522497221
-9148.630427598953,5220.0,-984.0,16048.0,61.0,684.0,324.0,0.37758321458253513,-0.1293865716878576,0.38069652816902516,0.8341224038307764
-9148.646069526672,5140.0,-1348.0,16084.0,-12.0,802.0,475.0,0.31519904205294436,-0.17171444598712257,0.41007564925008416,0.8384519514082865
-9148.661652088165,4988.0,-1528.0,16208.0,-66.0,958.0,476.0,0.24403909510259283,-0.22551462686290477,0.4366635663953178,0.836010169145875
-9148.677293777466,4824.0,-1620.0,15904.0,-166.0,1107.0,471.0,0.1633072202553459,-0.2901515963407917,0.45471209160206905,0.8260627801228146
-9148.69289302826,4968.0,-1716.0,15756.0,-304.0,1086.0,438.0,0.08047778773308209,-0.3533408518048007,0.45670850197972573,0.812459791218545
-9148.708521604538,5116.0,-1628.0,15708.0,-379.0,957.0,359.0,0.005146381278052981,-0.4076173169784405,0.4455160842013519,0.7970803324489524
-9148.724116563797,4588.0,-1512.0,15532.0,-468.0,921.0,232.0,-0.06321006587797506,-0.4608200949970127,0.41974953810624405,0.7793969802855546
-9148.739736557007,4376.0,-1412.0,15528.0,-574.0,934.0,84.0,-0.125681798928133,-0.5156468066191198,0.37711945876579395,0.7590081488771299
-9148.755368947983,4352.0,-1532.0,15700.0,-752.0,769.0,-212.0,-0.17005139979730283,-0.5626503024166097,0.30785170000234513,0.7481540546058291
-9148.770946264267,4492.0,-1904.0,15780.0,-871.0,758.0,-402.0,-0.205808623850368,-0.6064749578227768,0.21868411640332056,0.7362120571653099
-9148.78656244278,4352.0,-2356.0,15436.0,-828.0,936.0,-536.0,-0.23147050565859306,-0.657262557022704,0.11940771538187912,0.707226366627696
-9148.80216550827,4308.0,-2760.0,15280.0,-717.0,1028.0,-629.0,-0.24270853361975925,-0.7074164095267061,0.01812711392487916,0.6635706435499119
-9148.817770242691,4356.0,-2872.0,15360.0,-559.0,829.0,-796.0,-0.2310246974721612,-0.7401750086242346,-0.08048157675982061,0.6263315907474761
-9148.833367109299,4540.0,-2848.0,15520.0,-443.0,530.0,-760.0,-0.2135364612006033,-0.751790089548453,-0.1638400555646854,0.601971990367669
-9148.848982095718,5008.0,-2628.0,16008.0,-474.0,394.0,-565.0,-0.20878035267048367,-0.7535081804544779,-0.2325478021982582,0.5784096351373568
-9148.86458683014,5472.0,-2508.0,16544.0,-556.0,197.0,-202.0,-0.23082736534036533,-0.7480555260578171,-0.27707988905227676,0.5570981892154795
-9148.880180597305,5612.0,-2384.0,17244.0,-888.0,30.0,127.0,-0.29338470054563565,-0.7323931086280557,-0.3116089931068806,0.5295522517512289
-9148.895847320557,5264.0,-2532.0,17264.0,-1216.0,55.0,244.0,-0.378721806745582,-0.7062390067390629,-0.35155545694836227,0.4839473309621744
-9148.911457300186,4732.0,-2260.0,16684.0,-1405.0,122.0,108.0,-0.4626880823041509,-0.6631646163100166,-0.40518595878632147,0.4265639095967981
-9148.927132368088,4264.0,-2168.0,15712.0,-1375.0,86.0,-139.0,-0.530264175716266,-0.6014769966738365,-0.46449357666975377,0.37588700916194284
-9148.942780017853,4264.0,-2288.0,15008.0,-1361.0,20.0,-383.0,-0.5839758793661002,-0.5196004620029618,-0.5261521237841926,0.33489024297862463
-9148.958457946777,4784.0,-2480.0,14736.0,-1311.0,-2.0,-655.0,-0.6194028927615252,-0.4191507859298815,-0.5892303973838383,0.30571263286279343
-9148.974047660828,5040.0,-2708.0,15156.0,-1291.0,0.0,-685.0,-0.6432166312474052,-0.31153089484042346,-0.6434677047249511,0.2741718071258744
-9148.989653348923,5080.0,-3060.0,15684.0,-1144.0,-58.0,-473.0,-0.6624730484095187,-0.21801622172127819,-0.6764346359204311,0.23671622361927763
-9149.005304813385,4880.0,-2852.0,16124.0,-1085.0,62.0,-236.0,-0.6715075024009309,-0.14190689347800145,-0.7035443985169912,0.18429700789229272
-9149.02089881897,4640.0,-2716.0,15832.0,-910.0,167.0,-36.0,-0.669844440634837,-0.08871738293274893,-0.7259714368450234,0.12807468212468417
-9149.036507606506,4300.0,-2528.0,15448.0,-1017.0,184.0,107.0,-0.6646144660441287,-0.03790758324062578,-0.7441389751671453,0.055747755963118976
-9149.0520966053,4132.0,-2780.0,14980.0,-721.0,84.0,117.0,-0.6608394938373815,-0.004058700440433255,-0.7505139584501204,0.0018677545393278702
-9149.067726612091,4280.0,-2616.0,14972.0,-636.0,49.0,243.0,-0.6568151975520237,0.016686588989197226,-0.7519501861861547,-0.053724031002979976
-9149.08333492279,4440.0,-2608.0,15260.0,-601.0,-33.0,-166.0,-0.6579926171827658,0.06180538452621297,-0.7458158554619512,-0.08357344026722292
-9149.098925590515,4580.0,-2728.0,15892.0,-590.0,-62.0,-371.0,-0.6604073603332077,0.11917964356199816,-0.7345024843108916,-0.10081880538514805
-9149.114510536194,4844.0,-2840.0,16208.0,-703.0,20.0,-438.0,-0.6540446236690163,0.1874783388457989,-0.7229447493174921,-0.12011824235953206
-9149.130143404007,4776.0,-2760.0,16096.0,-773.0,75.0,-513.0,-0.6400187807880876,0.2638989148376533,-0.7083142195249962,-0.1379285663114582
-9149.145728111267,4696.0,-2676.0,15796.0,-905.0,20.0,-597.0,-0.6224270830675217,0.3500398339242477,-0.6816609003536441,-0.15935826887676904
-9149.16137433052,4548.0,-2680.0,15440.0,-827.0,-100.0,-645.0,-0.6095940014508381,0.43013136685045966,-0.642233143432859,-0.17583728308541327
-9149.176970243454,4740.0,-2980.0,15308.0,-751.0,-210.0,-672.0,-0.601147534407827,0.5024992782267674,-0.591845286448456,-0.18930207121347997
-9149.19258236885,4840.0,-3296.0,15576.0,-773.0,-243.0,-607.0,-0.5876223863468278,0.5681666049110532,-0.537531689264502,-0.20723494677384238
-9149.208159446716,4964.0,-3556.0,15856.0,-922.0,-173.0,-414.0,-0.5553705893919083,0.6292115645515333,-0.4894256460313934,-0.23689417991974632
-9149.22375202179,5112.0,-3836.0,15740.0,-990.0,-8.0,-215.0,-0.5039045799481412,0.6835290323076811,-0.4549250816935639,-0.26816302195850356
-9149.239327430725,4852.0,-3460.0,15576.0,-997.0,-324.0,-120.0,-0.4582347588026428,0.7214804140312553,-0.40839923571778725,-0.3204636988170413
-9149.254940748215,4712.0,-3240.0,14920.0,-1014.0,-341.0,-202.0,-0.4104084699058389,0.7562633748993405,-0.3520432904651561,-0.3683695389875139
-9149.270553827286,4808.0,-3232.0,14528.0,-1046.0,-236.0,-323.0,-0.3573628266339391,0.7922646922197499,-0.28722319930198087,-0.402630477466474
-9149.286154985428,4844.0,-3076.0,14652.0,-950.0,-315.0,-460.0,-0.3143426437655969,0.8185521646623121,-0.21118775885245325,-0.4319268300858098
-9149.301780462265,4908.0,-3080.0,15144.0,-815.0,-451.0,-424.0,-0.27935681213571834,0.8283900063950566,-0.13721246559952385,-0.46572793356450776
-9149.317378759384,5060.0,-3264.0,15516.0,-1018.0,-436.0,-397.0,-0.22597455232974317,0.8358069987154976,-0.05616446016597658,-0.49719987531356935
-9149.332963943481,4952.0,-3428.0,15144.0,-713.0,-422.0,-309.0,-0.18892592806050626,0.8305548903420101,0.0056554529041122565,-0.5238831775194709
-9149.348582267761,4880.0,-3400.0,15148.0,-647.0,-364.0,-295.0,-0.15500182490936895,0.8223870353105123,0.06250172454676466,-0.5438267489344674
-9149.364181995392,4852.0,-3068.0,15352.0,-594.0,-233.0,-236.0,-0.12212076980334988,0.8165852235384893,0.11061438522265256,-0.5532084128635855
-9149.379859685898,4944.0,-2644.0,15060.0,-615.0,-65.0,-361.0,-0.09494113252291295,0.8148751386520197,0.16642486311367494,-0.5470534294744099
-9149.39545917511,4832.0,-2060.0,14920.0,-651.0,-37.0,-768.0,-0.08447792335063865,0.8041932252643379,0.25148435961452625,-0.5318762579534617
-9149.411085128784,3808.0,-2180.0,15036.0,-899.0,156.0,-952.0,-0.06857259553950971,0.7918905986749304,0.3565514326815119,-0.4909971025617123
-9149.426682472229,4276.0,-3020.0,15472.0,-794.0,-210.0,-1413.0,-0.0670690334884628,0.7361662872148403,0.48460807696890235,-0.4676707752807983
-9149.442254304886,4956.0,-4536.0,16392.0,-147.0,-788.0,-1523.0,-0.08554743702368964,0.6332759270050705,0.5865045919477152,-0.49765007778437115
-9149.457873344421,5640.0,-4804.0,16352.0,305.0,-1143.0,-1113.0,-0.09137651502028754,0.5191145239046514,0.6369279660976179,-0.56257729209127
-9149.473438978195,5980.0,-3912.0,15572.0,437.0,-895.0,-317.0,-0.07672055061562554,0.45210957840074917,0.6343035728686061,-0.622390443112403
-9149.489033222198,5684.0,-2480.0,15316.0,338.0,-690.0,185.0,-0.04175226133408399,0.4215306349829023,0.611760931109573,-0.6680697834899809
-9149.504635572433,5088.0,-2104.0,15416.0,125.0,-565.0,144.0,-0.007810965857689886,0.3952053014560188,0.600363612076838,-0.6952088116583962
-9149.520242214203,4792.0,-2392.0,15988.0,103.0,-443.0,-133.0,0.0037435519880202246,0.36089160470498577,0.5984266972042461,-0.7152822684403626
-9149.535893440247,4696.0,-3152.0,15792.0,131.0,-391.0,-434.0,-0.007082822657195326,0.3133345505696239,0.6028954498926131,-0.7336813814874424
-9149.551521062851,4676.0,-3756.0,15580.0,152.0,-416.0,-482.0,-0.02022417764727782,0.2607141893576132,0.6055287386222974,-0.7516342466975432
-9149.567121505737,5108.0,-3908.0,15468.0,205.0,-506.0,-453.0,-0.02785835371844124,0.2027253603392594,0.6020313477715805,-0.7718060615878511
-9149.582713127136,5112.0,-3656.0,15776.0,296.0,-609.0,-191.0,-0.013980266968942954,0.1505633240201954,0.5857340396210219,-0.796273114216916
-9149.598301410675,5172.0,-3584.0,15908.0,413.0,-375.0,158.0,0.010688191739452195,0.13181233023256506,0.5545709730673605,-0.8215608973089719
-9149.61396431923,5012.0,-2932.0,16020.0,521.0,-130.0,440.0,0.04242241522996608,0.14391623835558465,0.510947035448121,-0.8464169079067426
-9149.629526138306,4820.0,-2700.0,15396.0,542.0,51.0,626.0,0.07934405732843526,0.17703527573018207,0.4618730304201852,-0.8654688529833265
-9149.64513373375,4700.0,-2732.0,15144.0,478.0,255.0,632.0,0.10909984773000046,0.22436226694690858,0.41652357289182557,-0.8742236039030076
-9149.66073179245,4860.0,-2796.0,15280.0,385.0,-170.0,607.0,0.15371020566242488,0.23647455947284474,0.3727370926594923,-0.8840362069242912
-9149.676306962967,4616.0,-3000.0,15588.0,314.0,-240.0,344.0,0.18136743534076133,0.23293841764330597,0.33770955494697835,-0.8937548900460693
-9149.691851615906,4748.0,-2912.0,15804.0,505.0,-152.0,86.0,0.18206970376188486,0.23116538654962004,0.2937152458028888,-0.9094748712396471
-9149.707436561584,4916.0,-2960.0,15800.0,254.0,-186.0,-22.0,0.17987610252128414,0.21957396463902645,0.27082248104395956,-0.9198299003379081
-9149.723002910614,4976.0,-2888.0,15720.0,312.0,-157.0,-84.0,0.17075667259802807,0.209551328644698,0.24468478057705503,-0.9311604360046932
-9149.738633394241,4996.0,-2908.0,15452.0,375.0,-237.0,30.0,0.1712431882645974,0.19612849635458404,0.2098623488903372,-0.9424262188144469
-9149.75424337387,5004.0,-3036.0,15288.0,470.0,-243.0,128.0,0.17795022399977117,0.185038312188464,0.16510149969760513,-0.9522793894642883
-9149.769830942154,5024.0,-3264.0,15456.0,473.0,-241.0,262.0,0.19527483630713321,0.1756117856555011,0.11759318051978983,-0.9577056348060968
-9149.785410642624,5196.0,-3360.0,15640.0,411.0,-91.0,390.0,0.222211380065118,0.1784911926257844,0.07558434440518842,-0.955536500404573
-9149.800995588303,5248.0,-3044.0,15796.0,426.0,-80.0,433.0,0.25184597606378956,0.18237531100992485,0.03170368948714049,-0.9498987979502937
-9149.816587209702,4992.0,-2696.0,15848.0,346.0,-112.0,178.0,0.2612452721396791,0.18077204493115295,-0.00226355949549401,-0.948191569174966
-9149.83218216896,4908.0,-2708.0,15728.0,510.0,-93.0,34.0,0.2557407319319001,0.1842074544834512,-0.04703858383331378,-0.9478669017191282
-9149.847848653793,5096.0,-2876.0,15692.0,206.0,-164.0,-178.0,0.23695386823947345,0.17560984578161892,-0.06477975469175423,-0.9533192695907193
-9149.863457918167,4900.0,-3188.0,15432.0,213.0,-106.0,-163.0,0.21947301519149365,0.17177859541808838,-0.08206858284378667,-0.9568638656930022
-9149.879068613052,5016.0,-3144.0,15500.0,336.0,-55.0,-15.0,0.21271204414369047,0.17337454347620582,-0.11079525529819033,-0.9552063993473027
-9149.894658565521,4944.0,-2980.0,15688.0,411.0,83.0,111.0,0.2164170089096682,0.18645174691988134,-0.14496775079626475,-0.9473034231724222
-9149.910240650177,4836.0,-2816.0,15828.0,349.0,92.0,153.0,0.22444838087466365,0.19834801683483,-0.17433748189493797,-0.9380231505389215
-9149.925880908966,4652.0,-2832.0,15548.0,506.0,4.0,-9.0,0.21483530784997468,0.208286864487684,-0.21517848012460422,-0.929602385041132
-9149.941529989243,4628.0,-2884.0,15324.0,130.0,-98.0,-55.0,0.20617953912635498,0.2035668768985828,-0.22638771183892034,-0.9299457662701299
-9149.957221746445,4820.0,-2896.0,15204.0,51.0,-173.0,-138.0,0.19065115044867664,0.1929186574501029,-0.23098943425699972,-0.9343866500019558
-9149.97285747528,5076.0,-2856.0,15392.0,122.0,-150.0,-185.0,0.17047393532206598,0.1861825376573457,-0.24009764268624006,-0.9373514933170959
-9149.988469362259,5344.0,-2824.0,15680.0,257.0,-93.0,-191.0,0.14869521699520608,0.1861137016598366,-0.2591347679995416,-0.9360024543296057
-9150.0040974617,5028.0,-3228.0,15804.0,284.0,58.0,-160.0,0.13229950920644037,0.1978842406659972,-0.27869958594371563,-0.9304113111708058
-9150.019723653793,4848.0,-3272.0,15688.0,306.0,171.0,-67.0,0.1257028295855788,0.2166515326603995,-0.3001055594398804,-0.9204333572960921
-9150.035314559937,4696.0,-3012.0,15472.0,326.0,142.0,-114.0,0.11406923006994851,0.23432917109610296,-0.32225288158987164,-0.9100720469455628
-9150.050933599472,4832.0,-2788.0,15512.0,278.0,-67.0,-147.0,0.09481490695021885,0.23565423364856963,-0.34171197444695,-0.9048260286392593
-9150.066571950912,5048.0,-2824.0,15768.0,173.0,-188.0,-140.0,0.07459744694801859,0.22618522737439833,-0.35378784151549164,-0.9044941276880899
-9150.082157850266,5148.0,-3036.0,15796.0,94.0,-234.0,-230.0,0.047363509814287975,0.21518131804982754,-0.3578797535340834,-0.9074005622164858
-9150.097764015198,5124.0,-3208.0,15712.0,42.0,-139.0,-174.0,0.02846947575994656,0.20959626607203863,-0.358283795320754,-0.9093358104733196
-9150.113358736038,5112.0,-3256.0,15480.0,73.0,-126.0,-150.0,0.011307341685487129,0.2042918834286101,-0.36142520788965043,-0.9096751010614295
-9150.12893819809,5060.0,-3288.0,15428.0,119.0,-37.0,-124.0,-0.0018082575816845954,0.2052210445493112,-0.3684925582027003,-0.9066941532996876
-9150.144521474838,5052.0,-3484.0,15476.0,185.0,23.0,-107.0,-0.012831569614524448,0.21028410677504084,-0.3809910212071313,-0.9002565117890556
-9150.160114049911,5152.0,-3572.0,15528.0,161.0,39.0,-56.0,-0.01887270182000914,0.2148780984949817,-0.3924536046613436,-0.8941204572659724
-9150.175721645355,5128.0,-3200.0,15388.0,103.0,239.0,253.0,0.00714069708844796,0.2244562045549217,-0.405273905244921,-0.886183662910472
-9150.191309690475,5368.0,-3228.0,15760.0,16.0,-16.0,-28.0,0.004115789743094709,0.22409294229503984,-0.4058229969252235,-0.8860435139737624
-9150.206868171692,4916.0,-3192.0,15428.0,-42.0,0.0,-220.0,-0.012057138018073907,0.23170485344466232,-0.39804483388750433,-0.8875403069880656
-9150.222467422485,4960.0,-3100.0,15188.0,-11.0,-39.0,-329.0,-0.038645903837880385,0.23990060843585664,-0.3901852342020359,-0.8880932806858531
-9150.238058567047,4948.0,-3436.0,15052.0,118.0,-33.0,-1.0,-0.04230639115452262,0.2368413391235458,-0.39902804755515764,-0.8848123906308981
-9150.253670215607,5072.0,-3620.0,14872.0,239.0,6.0,-38.0,-0.049952736119443855,0.23757337670054673,-0.41648304765645056,-0.8761309752839903
-9150.26933312416,5144.0,-3508.0,15276.0,287.0,37.0,177.0,-0.04099581750840365,0.23250133824891717,-0.44192650579859183,-0.8654267352768387
-9150.284928321838,5020.0,-3276.0,15408.0,285.0,20.0,267.0,-0.025811624818135672,0.22245681052633842,-0.4685340145022748,-0.8545891438165352
-9150.3005027771,5084.0,-3236.0,15360.0,193.0,-29.0,500.0,0.006561915475695747,0.19909149872011564,-0.49189916354288993,-0.847558097895639
-9150.316085100174,4992.0,-3200.0,14868.0,236.0,70.0,195.0,0.019908837005497993,0.1958659000253104,-0.512381432333912,-0.8358860300398688
-9150.331706047058,4840.0,-3168.0,15008.0,359.0,76.0,117.0,0.025717652877339025,0.19660487865328577,-0.5400102811496563,-0.8179694494740476
-9150.347292423248,4732.0,-3240.0,15164.0,479.0,28.0,51.0,0.022464045424592575,0.19702331907695747,-0.5743945003427295,-0.7941965351089663
-9150.362899065018,4852.0,-3284.0,14880.0,533.0,80.0,33.0,0.019600631441661465,0.2016668431451078,-0.6109697988295774,-0.7652857012522319
-9150.37851524353,5028.0,-3384.0,15424.0,631.0,-22.0,115.0,0.01500382650893608,0.19477739788405002,-0.6540635283754825,-0.7307787293788883
-9150.394170999527,5076.0,-3556.0,15580.0,643.0,-164.0,84.0,9.09031277933386e-05,0.1800043123746208,-0.6954563874589498,-0.6956571371054193
-9150.40980386734,5100.0,-2924.0,15488.0,678.0,-192.0,19.0,-0.021000563914113368,0.16683744302400924,-0.7354640612176108,-0.6563664057352403
-9150.425402402878,5008.0,-2684.0,15412.0,689.0,-183.0,-11.0,-0.04330910516298567,0.15545846430163537,-0.7728870248206983,-0.6136795859003036
-9150.44098496437,5048.0,-2780.0,15272.0,512.0,-88.0,-141.0,-0.06365994152685567,0.15811764495490718,-0.797136131318944,-0.5792410641042107
-9150.456578016281,5052.0,-2932.0,15300.0,930.0,-136.0,-156.0,-0.09351203939131034,0.1563636035028218,-0.8383151540789304,-0.5138420228339734
-9150.472162723541,5064.0,-3400.0,15368.0,1045.0,-293.0,-36.0,-0.13024189863298874,0.13669470415565468,-0.8783390701803667,-0.4391720431573043
-9150.487790107727,4984.0,-3700.0,15460.0,1047.0,-290.0,158.0,-0.15818901009464895,0.10108409137593065,-0.9128641619436038,-0.362542777331144
-9150.503406763077,4984.0,-3644.0,15708.0,1022.0,-199.0,188.0,-0.17636899375821666,0.0654063156143538,-0.9401054992229011,-0.2842844389855515
-9150.519008398056,5104.0,-3252.0,15728.0,776.0,-100.0,198.0,-0.18364293056817205,0.03463755629394166,-0.9565749935832873,-0.2236957652649039
-9150.534638881683,4984.0,-2804.0,15624.0,1142.0,-162.0,92.0,-0.1978269555534124,0.005453269629965319,-0.9716083089375452,-0.129661295344195
-9150.550229787827,4924.0,-2216.0,15784.0,1026.0,-185.0,49.0,-0.2125798582516207,-0.018439743203854893,-0.9760050507132184,-0.04340415554511747
-9150.565840244293,4868.0,-2488.0,15468.0,1287.0,-295.0,13.0,-0.23405334091382965,-0.04425358791988386,-0.9689674988047698,0.06605028253777763
-9150.581433296204,4924.0,-2604.0,14892.0,1280.0,-572.0,-20.0,-0.27533260188655173,-0.06492657288747873,-0.9429332979988941,0.1756510574872731
-9150.597022294998,4876.0,-3260.0,14800.0,1027.0,-765.0,115.0,-0.33217429745660304,-0.0867905245010652,-0.9024634198868059,0.2601680547881555
-9150.612656116486,5264.0,-3512.0,15516.0,1262.0,-463.0,210.0,-0.3613393815668118,-0.12849265097393583,-0.8527620926177238,0.3545705901070266
-9150.628240346909,5304.0,-3320.0,15856.0,1334.0,-302.0,189.0,-0.3720387746056723,-0.17400779344834788,-0.7940359651279637,0.4481242284149007
-9150.643817424774,5020.0,-2656.0,16076.0,1467.0,-41.0,65.0,-0.35228119494627363,-0.22269474025234853,-0.7283082854508092,0.5439412226471415
-9150.659452915192,4640.0,-2312.0,16104.0,1634.0,239.0,-94.0,-0.2977933050828348,-0.27541166063398254,-0.653054014209276,0.6395217112497624
-9150.675069570541,4380.0,-2148.0,16060.0,1786.0,307.0,-280.0,-0.2189495253724946,-0.3188892289318166,-0.5608369360626553,0.7320059399747273
-9150.69064617157,4684.0,-1964.0,16296.0,1533.0,260.0,-462.0,-0.13270314524036494,-0.33871199509436367,-0.47587047617058126,0.8007567355518745
-9150.706180095673,4788.0,-1988.0,16200.0,1001.0,80.0,-608.0,-0.05697328446283233,-0.32879892599974925,-0.42249548659559133,0.8426997537232838
-9150.721803426743,4788.0,-2172.0,16084.0,935.0,255.0,-749.0,0.03419318445012624,-0.3225983727386494,-0.37425008673252963,0.8687335544482147
-9150.737394809723,4828.0,-2144.0,15256.0,1132.0,15.0,-1007.0,0.14172486009419694,-0.2848082408689389,-0.3138902891373959,0.8945787927005998
-9150.752977132797,4732.0,-2124.0,14788.0,1370.0,55.0,-712.0,0.23084639252238875,-0.25017488875911476,-0.2218300030641446,0.9137362408454233
-9150.768589496613,4660.0,-2072.0,14984.0,1391.0,52.0,-760.0,0.3198421236147244,-0.20932885557807596,-0.12517635666467095,0.9155399095157761
-9150.784174919128,4804.0,-2068.0,15700.0,1285.0,-19.0,-401.0,0.3726400005135464,-0.16612132256248366,-0.030139622651588444,0.9124882132684101
-9150.799800157547,4880.0,-2048.0,16364.0,1049.0,-230.0,-378.0,0.41533751169881844,-0.11184630977411635,0.0401486011588157,0.9018720775091869
-9150.815430641174,4980.0,-1644.0,16400.0,920.0,-413.0,-454.0,0.45938385985160785,-0.04709662479501314,0.09255294780823103,0.8821464329082574
-9150.831054210663,5240.0,-1420.0,16184.0,844.0,-354.0,-265.0,0.4844504730353033,0.012017557663736439,0.14151287707151666,0.8632134284790822
-9150.846655845642,5324.0,-1192.0,15972.0,884.0,-175.0,-674.0,0.5338990763288738,0.05412553751141563,0.20016992331630512,0.8197281282741371
-9150.86226940155,5136.0,-1172.0,15748.0,923.0,34.0,-930.0,0.5916417873905547,0.07801008967504248,0.2701320567731393,0.7555812949151897
-9150.877861499786,5172.0,-1212.0,15372.0,855.0,161.0,-1170.0,0.6539475857121824,0.0833156464874759,0.3397912821296266,0.670785317952239
-9150.893450260162,5100.0,-1236.0,15708.0,775.0,146.0,-1267.0,0.7122037004375132,0.08075609794236889,0.39910386870372516,0.5718045502739157
-9150.909017086029,5100.0,-1364.0,15716.0,722.0,25.0,-1280.0,0.7639412332086772,0.07915523718289452,0.44188055979004326,0.46354051765704685
-9150.924723625183,5316.0,-1180.0,15844.0,666.0,-80.0,-1263.0,0.8073462305148316,0.07748539133484887,0.4683880584861778,0.3504293150846924
-9150.94036269188,5348.0,-1256.0,15784.0,689.0,-127.0,-1204.0,0.8386233713122786,0.08010120681308454,0.4849004723196327,0.2348747957957869
-9150.956028461456,5516.0,-1104.0,15812.0,697.0,-83.0,-1164.0,0.8552281393284303,0.08296073811656146,0.49758596560795654,0.11878784644055072
-9150.971635103226,5300.0,-1196.0,15480.0,637.0,-112.0,-1004.0,0.8613242879522076,0.08756955091603195,0.5002181391139291,0.015292417643556195
-9150.987276315689,5312.0,-1140.0,15476.0,618.0,-160.0,-883.0,0.8609808585110229,0.0952313176730156,0.4933666074329895,-0.07894522203367192
-9151.002871274948,5320.0,-1176.0,15520.0,497.0,-313.0,-822.0,0.8614180171851463,0.0946185745778975,0.47124990275155443,-0.16410318147527778
-9151.01846408844,5316.0,-1168.0,15148.0,512.0,-446.0,-808.0,0.8604082229930461,0.09304737811584451,0.43502965080071365,-0.24857408987246618
-9151.034044504166,5192.0,-1288.0,15392.0,451.0,-542.0,-780.0,0.8568833859150268,0.08511843776292266,0.3890424648668443,-0.32734030461574537
-9151.049627304077,5216.0,-1132.0,15932.0,503.0,-527.0,-702.0,0.8477593662330801,0.08344363235551205,0.33893693652839696,-0.39932814856975674
-9151.065228700638,5384.0,-1068.0,15884.0,443.0,-463.0,-566.0,0.8362419467456007,0.08301742080207301,0.2923166619611811,-0.45646301436849396
-9151.080802202225,5496.0,-1044.0,16060.0,402.0,-295.0,-475.0,0.8205087100257134,0.08821494895350407,0.25750656340041195,-0.5026668373373959
-9151.096376419067,5564.0,-920.0,16020.0,296.0,-253.0,-270.0,0.8114291329377223,0.0920356373769018,0.2280423490568736,-0.5301970300833331
-9151.11197066307,5584.0,-976.0,15832.0,211.0,160.0,-590.0,0.7780635508212893,0.10232934860145776,0.23373583720193855,-0.5740325545695794
-9151.127545595169,5488.0,-1036.0,15744.0,149.0,211.0,-635.0,0.7393448402161259,0.10971257896135707,0.2456000691998169,-0.6172624751857868
-9151.14311003685,5476.0,-1080.0,15936.0,122.0,0.0,-668.0,0.7010045664730787,0.10292503666254182,0.24476944875231452,-0.6618813727318463
-9151.15867471695,5340.0,-1016.0,15924.0,149.0,459.0,-816.0,0.6405787403879488,0.12055117267239944,0.27042902165368454,-0.7085156571154438
-9151.174267530441,5268.0,-896.0,15776.0,219.0,545.0,-771.0,0.5757201513346276,0.1476135405167876,0.2942095460811916,-0.748463287675509
-9151.1898355484,5324.0,-804.0,15676.0,284.0,491.0,-662.0,0.5147573477674133,0.1762914006720566,0.30777614942688986,-0.7805255004242329
-9151.205409765244,5320.0,-1028.0,15548.0,226.0,409.0,-625.0,0.45668777538288163,0.19689703776218456,0.319458312778813,-0.8066066071715663
-9151.220979452133,5488.0,-1048.0,15712.0,180.0,495.0,-542.0,0.400789059181612,0.22315742498359878,0.3349431586658574,-0.8230321829539511
-9151.236580610275,5716.0,-992.0,15764.0,20.0,639.0,-457.0,0.3480927098996291,0.255637776500146,0.36376243395301794,-0.8253227757582912
-9151.252171754837,5904.0,-956.0,16048.0,383.0,908.0,-304.0,0.2876710573805327,0.32158313289521295,0.3689227242304287,-0.823240958000308
-9151.267864227295,5816.0,-784.0,16012.0,532.0,1101.0,-228.0,0.21962280954660537,0.4041989939233661,0.36250520827930516,-0.8105423917405997
-9151.2834482193,5588.0,-764.0,15552.0,537.0,1189.0,350.0,0.18653361271646607,0.506057713986066,0.33257622382980595,-0.7736303101515911
-9151.299056529999,5544.0,-136.0,15044.0,464.0,940.0,629.0,0.18021458730718667,0.5918814379431708,0.2870773909068467,-0.7312903920947834
-9151.314670562744,5240.0,-108.0,14800.0,324.0,587.0,718.0,0.1939041233536145,0.6499603894559268,0.2376217887730911,-0.6953334226002966
-9151.330244064331,5216.0,-164.0,14660.0,195.0,76.0,664.0,0.22118047633312482,0.6703205078804007,0.18902106476350033,-0.6826570520251631
-9151.345822095871,5292.0,-384.0,14800.0,138.0,-470.0,528.0,0.2518530185987944,0.6523078341689705,0.14052502681906917,-0.7009402708804524
-9151.361419439316,5460.0,-788.0,14880.0,225.0,-943.0,558.0,0.2834311804085632,0.6034216120118708,0.07387905906365422,-0.7416812042657364
-9151.377041339874,5412.0,-1068.0,15084.0,260.0,-1325.0,812.0,0.32779705169657625,0.5242351787207163,-0.01835168373831916,-0.7857415516533788
-9151.392713069916,5672.0,-1508.0,15420.0,317.0,-1525.0,1173.0,0.38578872903909545,0.4206082921369319,-0.13545924155106617,-0.8098805560145659
-9151.408329725266,5980.0,-1204.0,15680.0,340.0,-1414.0,1288.0,0.44138874460492683,0.31220331870279205,-0.2507902609420891,-0.8030001923683755
-9151.423955917358,5700.0,-836.0,15992.0,350.0,-1283.0,1727.0,0.5156270989384195,0.19425367730387694,-0.36518224565183066,-0.7503573356441293
-9151.439541339874,5332.0,-532.0,16004.0,361.0,-1106.0,1800.0,0.5821284736134591,0.07913462676037795,-0.4609813678934865,-0.6651017437287398
-9151.455132484436,4532.0,-452.0,15504.0,510.0,-867.0,1744.0,0.6353304751195765,-0.015324931116555404,-0.53826282674135,-0.5535281955049964
-9151.470769166946,4036.0,-780.0,15000.0,206.0,-675.0,1334.0,0.6627262778343375,-0.09838093747436422,-0.5786938975694113,-0.4650037039910903
-9151.486354351044,3656.0,-1452.0,14136.0,292.0,-620.0,789.0,0.6632995486803568,-0.14591463522902104,-0.6169209265841734,-0.3976822830966216
-9151.501988649368,3560.0,-2288.0,13884.0,583.0,-679.0,124.0,0.6366071156363958,-0.14197000332552848,-0.6726714717742689,-0.34941234886291145
-9151.517564058304,4244.0,-2672.0,14680.0,984.0,-763.0,-348.0,0.5897628247385058,-0.08956558372034079,-0.7445599378955952,-0.299646985051077
-9151.53315114975,5332.0,-2388.0,16320.0,1025.0,-278.0,-546.0,0.5624934972073592,-0.008547233910757483,-0.785603234266105,-0.25759574667013596
-9151.548729896545,6860.0,-1820.0,17424.0,1186.0,-195.0,-157.0,0.5435549753739174,0.05573826527371012,-0.8173218412289501,-0.18282845068712994
-9151.564324140549,7752.0,-1392.0,17748.0,667.0,-285.0,506.0,0.5265961305598329,0.04657634360926601,-0.8413779044471867,-0.11229595452848612
-9151.579944610596,7628.0,-1744.0,16424.0,24.0,-568.0,1227.0,0.4934926818774914,-0.047693846827895035,-0.8666305522222536,-0.05605136807491982
-9151.595521211624,6940.0,-2592.0,15028.0,-199.0,-783.0,1681.0,0.4360212737522863,-0.18484180790757876,-0.8807375057066686,0.004516738478968188
-9151.611092567444,6656.0,-3548.0,14676.0,-34.0,-1416.0,1861.0,0.31938846290923384,-0.32201394909641257,-0.8862982721145793,0.09366642511872124
-9151.626673698425,7256.0,-4224.0,15512.0,11.0,-1692.0,2196.0,0.1661288098166538,-0.46436281652977507,-0.8471795591315898,0.1976238542358735
-9151.642276525497,7388.0,-4020.0,16024.0,-289.0,-1554.0,2983.0,-0.01141997207880845,-0.635327611768041,-0.7230357569635776,0.2710123689334917
-9151.657902002335,7132.0,-3220.0,15888.0,-810.0,-1158.0,3705.0,-0.20511180602867765,-0.7947025348054934,-0.5061028413754238,0.265022531406483
-9151.67352771759,6372.0,-2484.0,14964.0,-1008.0,-952.0,4108.0,-0.3854610228565074,-0.8755044050761123,-0.2126663673071412,0.1992105739340202
-9151.689157962799,6396.0,-2304.0,14332.0,-688.0,-1058.0,4335.0,-0.4959774631854426,-0.8507163379952667,0.1323818947995609,0.11297390056705292
-9151.704741716385,6076.0,-2524.0,14056.0,57.0,-1080.0,3753.0,-0.4887170884434453,-0.7563617409723545,0.43389602538842514,0.028403580914339574
-9151.720334291458,6452.0,-2620.0,14180.0,734.0,-1276.0,3830.0,-0.37798199537355026,-0.6019469087631925,0.699511640440722,-0.07397969378009411
-9151.735933542252,6752.0,-2864.0,14344.0,1187.0,-775.0,3627.0,-0.23190097812362978,-0.4020149882461581,0.8596732990055738,-0.2134659329907661
-9151.751535892487,6596.0,-2604.0,14896.0,1301.0,-1086.0,3829.0,-0.03142176973594488,-0.15143208605688485,0.9314895127084851,-0.32925413196075504
-9151.767147779465,6388.0,-2452.0,15016.0,1225.0,-1138.0,3960.0,0.17890755303150513,0.12592242820442426,0.8910609857458018,-0.39767568347222426
-9151.782731294632,6288.0,-2288.0,14912.0,1052.0,-1437.0,3806.0,0.3860823250101441,0.3647306854462431,0.7418985843340627,-0.4092657522585892
-9151.798310995102,6044.0,-2256.0,14692.0,1024.0,-1576.0,3508.0,0.5487303783956201,0.5385179385341681,0.5105398581123081,-0.3850226681396486
-9151.813934326172,5892.0,-2184.0,14588.0,1095.0,-1754.0,3225.0,0.6485679738362743,0.6407990323468467,0.22577502839936991,-0.34316442124514934
-9151.829516887665,6088.0,-2248.0,14332.0,1077.0,-2112.0,3011.0,0.6830155375088578,0.6617088474691926,-0.08964842170804255,-0.2959634051495819
-9151.845136642456,5760.0,-2276.0,13892.0,926.0,-2729.0,2758.0,0.64172798180908,0.589973608543805,-0.41137984351976614,-0.26623854516335355
-9151.860751390457,6276.0,-2528.0,13788.0,771.0,-3300.0,2666.0,0.5106103569648422,0.4311077789271002,-0.703275800014017,-0.24254132724841643
-9151.876344442368,6792.0,-2756.0,13804.0,998.0,-3522.0,2809.0,0.2934955907961005,0.2119703371338845,-0.9155990233401342,-0.17494954363240706
-9151.891960859299,7292.0,-3032.0,14008.0,721.0,-3134.0,2895.0,0.06918637157317414,-0.04567872174931773,-0.9920556491942162,-0.09461653803500496
-9151.907550573349,7512.0,-3196.0,14064.0,516.0,-2562.0,3214.0,-0.11663955020234774,-0.3216812305004834,-0.9394423389213855,-0.019091702758153258
-9151.923206090927,7380.0,-2660.0,13736.0,888.0,-2375.0,3424.0,-0.2631338294317749,-0.5768744452670306,-0.769120032030987,0.08019250922049313
-9151.938817977905,6620.0,-2560.0,13460.0,1001.0,-2660.0,3415.0,-0.3871326747155136,-0.7556824731381206,-0.4932368944516675,0.18918154749113497
-9151.9544506073,6296.0,-2348.0,13088.0,1063.0,-3288.0,3217.0,-0.47313221393098526,-0.8097284133710987,-0.14084181590319073,0.3172528764461861
-9151.970083236694,6528.0,-2792.0,13588.0,1102.0,-3804.0,3317.0,-0.48671973581555,-0.7207288406649401,0.25640019468203373,0.4217970805593934
-9151.985694885254,7064.0,-3640.0,14580.0,1181.0,-3855.0,2909.0,-0.39749533551101635,-0.5171754510270818,0.5932308893347156,0.4718094138961849
-9152.001358747482,7612.0,-3736.0,15288.0,1249.0,-3591.0,2843.0,-0.25157287585815175,-0.24511165731400014,0.8292168445739707,0.4347767108022582
-9152.016942501068,7632.0,-3052.0,15272.0,1259.0,-3472.0,2997.0,-0.08047143015985861,0.07018201626882746,0.9395845260970876,0.3252379926136859
-9152.032523870468,7800.0,-2208.0,14960.0,1229.0,-3332.0,3221.0,0.08651688777385995,0.3877627014556716,0.9022985893468152,0.1673683696296068
-9152.048105716705,8228.0,-2412.0,15212.0,1231.0,-2722.0,3645.0,0.19047648064192652,0.6694976303024599,0.7179572286154071,0.005389918416865962
-9152.06376695633,9688.0,-3136.0,15552.0,1159.0,-1517.0,4256.0,0.1998670807560585,0.8856229714438782,0.41171602284595527,-0.07883539188001668
-9152.0794069767,10112.0,-3420.0,16036.0,1046.0,28.0,5107.0,0.13938399257371617,0.9899306897450826,0.009263318614170696,-0.022880625937408864
-9152.095012426376,9132.0,-2536.0,15796.0,1174.0,884.0,4732.0,0.042841095528752024,0.9268161144458449,-0.35909692826444906,0.10112332395862016
-9152.110644817352,7444.0,-1708.0,15068.0,1286.0,564.0,4049.0,-0.07423024594152382,0.7490128737834167,-0.6305409055562821,0.18944062899608433
-9152.126237869263,6800.0,-1896.0,14724.0,1346.0,-40.0,2611.0,-0.20110511123032596,0.5785081627877466,-0.7543188850654255,0.23640655544768138
-9152.141831159592,7668.0,-2672.0,14812.0,1402.0,-137.0,1948.0,-0.31428731810710037,0.41931596415551203,-0.8038214256665623,0.28154701120906095
-9152.157423496246,8244.0,-3568.0,15660.0,1621.0,489.0,1811.0,-0.37514885381393903,0.23041869712266255,-0.824556958066842,0.35535388615004415
-9152.173023462296,7764.0,-3364.0,16608.0,1948.0,1036.0,1492.0,-0.3760340294545651,0.02640446423234676,-0.8065005157295219,0.45547571953813465
-9152.188643455505,7124.0,-2180.0,17180.0,2276.0,1391.0,1254.0,-0.32271975748922627,-0.18581964029092188,-0.740378991972999,0.5596087630240374
-9152.20423078537,6016.0,-1196.0,18104.0,2210.0,1833.0,273.0,-0.17626060680666664,-0.3444738964869778,-0.6589959652417747,0.6449761630651837
-9152.219813346863,5964.0,-688.0,19316.0,1815.0,2870.0,-717.0,0.08018412376191922,-0.4715217697692664,-0.5957272422784602,0.6452493934421736
-9152.235432863235,5964.0,-356.0,19160.0,1736.0,3927.0,-1374.0,0.4031866882744257,-0.5667408423121479,-0.49036309953956503,0.5251564934984321
-9152.250995635986,6000.0,-396.0,17888.0,1799.0,4311.0,-2159.0,0.7076433337557431,-0.5551054862314294,-0.33106701644371467,0.28547056235255397
-9152.266625642776,6136.0,-736.0,16796.0,1887.0,4478.0,-2722.0,0.8960969107777534,-0.423874076547361,-0.12527904340339832,-0.04057406819162177
-9152.282224416733,6544.0,-1696.0,15992.0,1900.0,4310.0,-3142.0,0.8986795206783863,-0.202078430501476,0.07961220085015477,-0.3810529156365564
-9152.297818183899,6968.0,-2668.0,15716.0,1936.0,4085.0,-3068.0,0.7243185710838965,0.05808297864666473,0.2538311892158783,-0.6384032444746554
-9152.313409090042,7016.0,-2768.0,15520.0,1937.0,4200.0,-2085.0,0.46206858545802953,0.33668649964521064,0.3856791067235918,-0.7241453237619941
-9152.329003810883,6496.0,-2180.0,15400.0,1925.0,4533.0,-1521.0,0.14298188486680455,0.5923565873369017,0.4481868002937904,-0.6540630291347534
-9152.344602108002,5716.0,-1384.0,15064.0,2222.0,5070.0,-761.0,-0.19209761495871525,0.7906978549041205,0.3810238215980232,-0.43899459672304986
-9152.360194921494,4648.0,-756.0,14432.0,2497.0,5787.0,199.0,-0.48125911688598627,0.8560509284097604,0.15291612451282294,-0.11037721344048658
-9152.375904083252,3376.0,-120.0,14252.0,2577.0,6482.0,599.0,-0.643919850722036,0.6981240032071454,-0.16125375387302576,0.2683045449745459
-9152.391498088837,2612.0,328.0,14820.0,2376.0,6636.0,759.0,-0.6064215550283796,0.3387431547372032,-0.44626787400378515,0.5642259807451184
-9152.407064676285,2552.0,596.0,15148.0,2168.0,6630.0,110.0,-0.35678963154783294,-0.09131395435592847,-0.5923607548937673,0.716569366231582
-9152.42264699936,2256.0,760.0,15648.0,1996.0,5823.0,-333.0,-0.01672821755788578,-0.4407086863207322,-0.573618940334982,0.6902588875398584
-9152.438198566437,2548.0,616.0,16292.0,2020.0,5349.0,-715.0,0.33225275345358557,-0.6522417483787343,-0.4352070607430088,0.52419807685053
-9152.453821182251,2388.0,700.0,16452.0,2169.0,5068.0,-777.0,0.6151072638206848,-0.7120286465633253,-0.20971960652827665,0.2658494820492499
-9152.469410181046,2256.0,280.0,16456.0,2195.0,4613.0,-717.0,0.7775112651110478,-0.6273237210287343,0.040447450879347036,-0.017469555731140653
-9152.484990596771,2160.0,116.0,16416.0,1989.0,4175.0,-581.0,0.8066791251494791,-0.451901412428184,0.26761979925189616,-0.2709862460381674
-9152.500587463379,2296.0,-108.0,16556.0,1766.0,3689.0,-507.0,0.7323162547100448,-0.2371177724393913,0.4380082092649481,-0.4643671755166887
-9152.51615691185,2420.0,-244.0,16520.0,1520.0,3392.0,89.0,0.6066371593088005,0.0009525416098103539,0.5658412165209141,-0.5584032300196362
-9152.53175163269,2412.0,240.0,16676.0,1455.0,3326.0,200.0,0.43088872778684706,0.2382769362953279,0.6394547057117939,-0.5904715786885832
-9152.547326087952,2536.0,344.0,16860.0,1531.0,2757.0,282.0,0.2503582620294844,0.437279449748882,0.634500942342419,-0.5861023610492226
-9152.562949895859,2340.0,696.0,17116.0,1663.0,2665.0,547.0,0.06482528465208685,0.6167864962200207,0.5652403855634608,-0.5439443051255122
-9152.578564167023,2208.0,1116.0,17460.0,1703.0,2571.0,592.0,-0.1211409123637121,0.750013133120257,0.450406072595745,-0.4689771308578911
-9152.594167232513,1964.0,1528.0,16904.0,1601.0,2914.0,257.0,-0.3168794361331629,0.8280824000168951,0.32376481736376583,-0.33021705706337307
-9152.60977935791,2036.0,1336.0,16360.0,1378.0,2854.0,-37.0,-0.4802269291517553,0.8396111092506695,0.20023810008021226,-0.15601277196627988
-9152.625376939774,1868.0,964.0,15740.0,1240.0,2563.0,-250.0,-0.6009620295592931,0.7937795379260612,0.09142236196410025,0.02001589195537852
-9152.64096403122,1816.0,568.0,15644.0,1202.0,2309.0,-281.0,-0.6846132317083178,0.706155650666446,-0.007931336984358318,0.1805159657630917
-9152.656553983688,1960.0,456.0,16144.0,1261.0,2314.0,-135.0,-0.7393348644551307,0.5791442490061683,-0.11499905028174935,0.32365276992247505
-9152.672176361084,1884.0,668.0,16980.0,1387.0,2322.0,-45.0,-0.7639374244849931,0.41297202736971383,-0.21736282614964475,0.44565358507435265
-9152.687826633453,1656.0,1132.0,17272.0,1386.0,2884.0,31.0,-0.7324191644887268,0.19995182085141897,-0.3436038291881971,0.5527366872164771
-9152.703454494476,1340.0,1272.0,17080.0,1275.0,2895.0,-80.0,-0.6400951914374933,-0.018250947468727814,-0.4487658445663759,0.6233412111883186
-9152.719079971313,1352.0,864.0,16492.0,1132.0,2637.0,-243.0,-0.5061131061502002,-0.20894957539326103,-0.5185689417384572,0.6567159594453517
-9152.734675884247,1348.0,464.0,16000.0,1005.0,2197.0,-93.0,-0.37481917770839657,-0.3669446711022686,-0.5475192287514182,0.6519853422578621
-9152.750273704529,1544.0,180.0,16372.0,921.0,1930.0,-14.0,-0.24804813304391768,-0.4975948935978357,-0.5491246810174003,0.6239659688286885
-9152.765840291977,1760.0,360.0,16148.0,946.0,1797.0,71.0,-0.12280320939052185,-0.6097894216392005,-0.5251704154122631,0.5807514681824127
-9152.781437635422,1760.0,968.0,16548.0,1071.0,1744.0,-45.0,0.016166821259283398,-0.6965460002192035,-0.484258259852803,0.5292034025148883
-9152.797011852264,1648.0,1060.0,16848.0,781.0,1755.0,-328.0,0.15083369517443002,-0.75181834271518,-0.4590280280306141,0.4486776631829948
-9152.812585830688,1604.0,1288.0,16684.0,898.0,1817.0,-764.0,0.30708423960351416,-0.766928667131014,-0.44222037299983347,0.3492289092037854
-9152.828169107437,1668.0,1060.0,16828.0,647.0,1763.0,-623.0,0.43111620873190687,-0.76787766210182,-0.4108460197080411,0.2360259704009921
-9152.843807935715,1712.0,688.0,16172.0,521.0,1505.0,-603.0,0.5267190928100597,-0.749373938515459,-0.3797024207730654,0.12973730844383596
-9152.859429597855,1832.0,224.0,15788.0,558.0,1181.0,-573.0,0.6042702814800086,-0.7125398012716336,-0.3538108922427897,0.04429798024981535
-9152.875042438507,1864.0,156.0,15788.0,680.0,838.0,-378.0,0.6706655776822241,-0.6648570628555277,-0.3288273622132488,-0.006733107987141007
-9152.890660762787,1968.0,308.0,16324.0,723.0,700.0,-274.0,0.7296338990892489,-0.6116286864847448,-0.3028858802163392,-0.042483723169454854
-9152.90624666214,1736.0,884.0,16820.0,629.0,852.0,-134.0,0.7819532130886897,-0.5623133819551325,-0.25695285154095543,-0.07954913638391836
-9152.921919345856,1432.0,1184.0,17040.0,545.0,1053.0,-176.0,0.8266818170876573,-0.5109247403278683,-0.19638265118699264,-0.13033394542603824
-9152.937551259995,1240.0,1044.0,16760.0,365.0,1130.0,-316.0,0.8539303880208036,-0.4634861257071904,-0.13228229411127487,-0.19617568237739455
-9152.953188419342,1224.0,484.0,16016.0,340.0,887.0,-376.0,0.8681335824868859,-0.416761410431767,-0.08682026735569844,-0.25517886062465006
-9152.968806028366,1316.0,160.0,15572.0,313.0,514.0,-8.0,0.8821062316661267,-0.3807876623566747,-0.055035747782768735,-0.2717727335821535
-9152.984395980835,1668.0,-232.0,15888.0,307.0,279.0,-108.0,0.8905466491985677,-0.3495298409996424,-0.04439218066138218,-0.2877236350182147
-9153.000012636185,1696.0,396.0,16376.0,361.0,168.0,8.0,0.901942131879828,-0.3168390315296876,-0.040139293745191075,-0.29069271737874347
-9153.015586853027,1516.0,896.0,16800.0,428.0,325.0,6.0,0.9141306299025965,-0.27435535656923987,-0.025230537733763846,-0.29741847582373254
-9153.031209468842,1048.0,1212.0,17144.0,333.0,633.0,-45.0,0.9205904426891877,-0.23052705649679492,0.015506140223924107,-0.31484928563934345
-9153.046832323074,820.0,1316.0,17068.0,184.0,857.0,-245.0,0.9135765421304713,-0.1916348504090344,0.07408769839459628,-0.3509487123843448
-9153.062440156937,748.0,912.0,16440.0,65.0,858.0,-459.0,0.8918873757470335,-0.1622871036005177,0.13221961427079768,-0.4008962192265056
-9153.078070640564,896.0,288.0,15904.0,82.0,575.0,-444.0,0.869167676427536,-0.14041622431701997,0.16726887244344305,-0.4436800181590442
-9153.093662023544,996.0,-508.0,15832.0,74.0,176.0,-173.0,0.8606417401793275,-0.1303303538353782,0.17533638466928553,-0.4599640704895852
-9153.109295845032,1208.0,-312.0,16048.0,186.0,-128.0,178.0,0.8716347269466197,-0.11860287807548006,0.15996523054586073,-0.44788099436045986
-9153.124897003174,1204.0,44.0,16536.0,308.0,-98.0,389.0,0.8905724621792991,-0.0933399436102755,0.14409055923020184,-0.42119621944582913
-9153.1405210495,1200.0,920.0,16968.0,368.0,132.0,580.0,0.9115756605712041,-0.05234606727907633,0.1450072216891159,-0.3811333230676516
-9153.156108379364,952.0,1564.0,16852.0,327.0,436.0,477.0,0.9216263813884096,-0.005652683433778824,0.17037272118935193,-0.34863447358722055
-9153.171763181686,796.0,1488.0,16740.0,262.0,548.0,350.0,0.922591521778204,0.037287917761832184,0.20596673420719988,-0.32405585866017766
-9153.187325954437,692.0,1224.0,16444.0,93.0,360.0,222.0,0.9215079804208468,0.058897292768655254,0.2311418973437399,-0.3064760581473725
-9153.202882051468,792.0,908.0,16020.0,-40.0,138.0,263.0,0.9257200048003524,0.06461349963130858,0.24159268174915993,-0.2837261787411935
-9153.21846485138,724.0,756.0,16088.0,-65.0,-178.0,395.0,0.939002446958716,0.06318689808282696,0.22614718430508626,-0.2512752903631699
-9153.234040021896,616.0,408.0,15684.0,-66.0,-385.0,261.0,0.9519482614800379,0.05437712173006866,0.1941555738664551,-0.23052385827517774
-9153.249605894089,564.0,836.0,16404.0,-27.0,-328.0,767.0,0.9705463703164199,0.05833168789410154,0.16307795208980033,-0.16745966318861638
-9153.265204429626,524.0,1304.0,16792.0,-41.0,-193.0,480.0,0.9795609066879426,0.05877283471765371,0.14443120840541016,-0.127066163971768
-9153.280868291855,352.0,1604.0,16940.0,-183.0,-41.0,472.0,0.9853295164650184,0.04855079282110862,0.14008539177405457,-0.08452601676859382
-9153.296506881714,120.0,1508.0,16780.0,-313.0,-50.0,269.0,0.9886451683920798,0.024530543870770822,0.13655107360122468,-0.05773030166864995
-9153.312099456787,-24.0,1652.0,16200.0,-415.0,-149.0,681.0,0.9922951934134688,-0.003842222501455312,0.12370737702112791,0.005654319174604865
-9153.32772564888,-432.0,1636.0,16304.0,-599.0,-388.0,651.0,0.992473000125756,-0.0481839019393803,0.08942495546214214,0.06840199526235638
-9153.343313694,-548.0,1640.0,16288.0,-625.0,-690.0,316.0,0.9897356655284055,-0.09511995207736175,0.026972949059663933,0.1031889873817418
-9153.358901262283,-372.0,1900.0,16928.0,-484.0,-989.0,-402.0,0.986556846443275,-0.12797754679314288,-0.06582726817506293,0.0774216185397702
-9153.37452840805,28.0,2256.0,17592.0,-160.0,-1112.0,-1058.0,0.9767675247082075,-0.12672418899311522,-0.17280490961520442,-0.002155414651379277
-9153.390184402466,396.0,2332.0,17604.0,-31.0,-1030.0,-1517.0,0.9486068946502696,-0.10511615455542042,-0.2737166169396452,-0.11905783084101908
-9153.405797481537,300.0,2284.0,17168.0,-28.0,-835.0,-1032.0,0.9116676184990007,-0.09069922432657228,-0.34947078216609273,-0.1962293976424994
-9153.421380519867,20.0,2120.0,16316.0,-254.0,-823.0,-843.0,0.8654405495282014,-0.09864530279080728,-0.4147808671706151,-0.26313227034863523
-9153.43694472313,-364.0,1696.0,15624.0,-603.0,-961.0,-541.0,0.8082887500652354,-0.145730972158798,-0.47513991308595305,-0.31571164575337435
-9153.452525615692,-260.0,1220.0,15276.0,-859.0,-1162.0,-633.0,0.7249941527808188,-0.21005635800742978,-0.5362795516420231,-0.37770894533345123
-9153.46810388565,92.0,956.0,15320.0,-871.0,-1631.0,-976.0,0.590844335081402,-0.2687640423778755,-0.6183354426293758,-0.44309157249405373
-9153.483722686768,612.0,1112.0,15948.0,-545.0,-2024.0,-1343.0,0.40745075612797527,-0.29571985745537854,-0.7163455015126441,-0.4830970603304375
-9153.499334812164,920.0,1724.0,16408.0,-232.0,-2253.0,-1380.0,0.19722880868054204,-0.30460108822945625,-0.801071853445196,-0.47602821312792315
-9153.51493549347,984.0,1924.0,16652.0,-312.0,-2105.0,-1454.0,-0.01820121691166187,-0.28853798636374817,-0.8419242296051818,-0.455607438187536
-9153.530582904816,964.0,2284.0,15936.0,-543.0,-2096.0,-1296.0,-0.2319100687266129,-0.2693179905068293,-0.829709685088168,-0.43042697230015015
-9153.546190977097,728.0,1852.0,15320.0,-902.0,-2275.0,-1158.0,-0.449060449535493,-0.2458779660953108,-0.7561031953254096,-0.40767229053557164
-9153.56182551384,624.0,948.0,15012.0,-1083.0,-2498.0,-1047.0,-0.6536340711451605,-0.21629167356794146,-0.6221751704273498,-0.3726640179666941
-9153.577429771423,704.0,176.0,15164.0,-1040.0,-2917.0,-1209.0,-0.8365693838753716,-0.1787654284088675,-0.42698684618705457,-0.2930474718393044
-9153.593031406403,1044.0,56.0,15896.0,-789.0,-3201.0,-1285.0,-0.9565151546490874,-0.1481568650532452,-0.18432174280896285,-0.17074483123097245
-9153.608649730682,1864.0,200.0,16680.0,-535.0,-3368.0,-1626.0,-0.9894415740398085,-0.12097247394039792,0.07981870933783866,-7.582880411632242e-05
-9153.624233961105,2396.0,536.0,16820.0,-435.0,-3618.0,-1420.0,-0.9169428155126018,-0.08802394729586446,0.35700326346033184,0.1549720221877176
-9153.639854431152,2696.0,424.0,16892.0,-592.0,-3756.0,-873.0,-0.750472716494005,-0.016061487094990844,0.6084007359547429,0.2576456382711208
-9153.65545463562,2768.0,448.0,16336.0,-884.0,-3892.0,-300.0,-0.5082798608990008,0.10711291134123047,0.7957832659561139,0.3112995355806347
-9153.671103477478,2264.0,308.0,16024.0,-1169.0,-4138.0,143.0,-0.20022207168283707,0.26340013771101445,0.8858241327291064,0.3253415057129633
-9153.68669128418,2040.0,20.0,15872.0,-1323.0,-4517.0,129.0,0.16258543688127128,0.3928918477776691,0.8548270205415135,0.2974436696520769
-9153.702281713486,2184.0,-180.0,15756.0,-1385.0,-5051.0,-108.0,0.5363948342135934,0.451364008306337,0.6828469218554009,0.20559959909302533
-9153.717871904373,2236.0,-456.0,16064.0,-1452.0,-5636.0,-356.0,0.8341528077607154,0.4128607858943003,0.36258217482009597,0.04763644905306111
-9153.733513355255,2792.0,-428.0,16080.0,-1634.0,-6820.0,-687.0,0.9469760561317884,0.25584656691797675,-0.0989345738948282,-0.16730461260114116
-9153.749145269394,3236.0,-344.0,15928.0,-1625.0,-7368.0,-682.0,0.7588362165492459,0.016311723389400023,-0.5579836794761523,-0.3354932750019712
-9153.764742136002,3464.0,-328.0,16796.0,-1455.0,-7433.0,-290.0,0.3256912342920044,-0.23657009968243936,-0.8400053929479828,-0.3638004228418331
-9153.78033542633,3232.0,88.0,16784.0,-1369.0,-6947.0,47.0,-0.17900027249792444,-0.42494301210894797,-0.8447138590246718,-0.2717367021163867
-9153.795980453491,2744.0,844.0,16428.0,-1551.0,-6233.0,443.0,-0.5977216304933924,-0.5066797218311595,-0.6050564675161427,-0.14110699147209532
-9153.811580896378,3704.0,800.0,16060.0,-1960.0,-5545.0,501.0,-0.8633008111485739,-0.4436916092660047,-0.23944401569954554,-0.022716264720085123
-9153.827195167542,4992.0,-312.0,15852.0,-2353.0,-5125.0,-51.0,-0.9525180584752752,-0.247016670729911,0.13418712704507954,0.11698686932895883
-9153.842817544937,5436.0,-1180.0,15832.0,-2410.0,-6203.0,-670.0,-0.7988552310636036,0.007867134464434053,0.5275156931928293,0.2889560891085771
-9153.858420610428,5904.0,-1756.0,15992.0,-1946.0,-6874.0,-513.0,-0.3970073232274293,0.24877278204600756,0.8123085672865017,0.3473500823806325
-9153.874044179916,6604.0,-2392.0,16952.0,-1139.0,-6381.0,73.0,0.06779511001080758,0.42378049842481263,0.8679812584698008,0.24984484617182084
-9153.88962507248,7388.0,-2012.0,17552.0,-610.0,-5353.0,114.0,0.4465175028071517,0.4936733713664501,0.7408932358208897,0.08936405992008119
-9153.905199766159,7280.0,-1180.0,16944.0,-500.0,-3598.0,-97.0,0.6687234293586188,0.4727526169434434,0.5727678630740588,-0.035368251717467526
-9153.9209151268,7364.0,-488.0,15280.0,-929.0,-2722.0,-539.0,0.8153754924669465,0.37120966221856944,0.4252491056753524,-0.12856667951756737
-9153.936537504196,7788.0,-520.0,14360.0,-1137.0,-2783.0,-1028.0,0.9097108567600705,0.21278306799388785,0.26316810162523047,-0.24060771674021517
-9153.952147722244,8872.0,-2004.0,14904.0,-700.0,-3293.0,-1632.0,0.9164741617621823,0.04793004513731473,0.0441989933041007,-0.3947458303596685
-9153.96779203415,8928.0,-2812.0,16480.0,46.0,-2870.0,-1676.0,0.8351472532452526,-0.05180484656485454,-0.17301835009346342,-0.5195286072972665
-9153.98465871811,7704.0,-2540.0,17296.0,143.0,-1073.0,-2082.0,0.710497088318638,-0.0577122206314076,-0.26160918372236036,-0.6507102443274191
-9154.00042772293,6736.0,-1100.0,16756.0,-294.0,96.0,-2569.0,0.5515131978494905,-0.01170583271734204,-0.24547514917437108,-0.7971437243157865
-9154.016087293625,6636.0,-4.0,15664.0,-913.0,451.0,-3765.0,0.28247486100430286,0.053155060659560285,-0.15516142732409188,-0.9451494188209761
-9154.031730651855,7056.0,372.0,15612.0,-1234.0,486.0,-4804.0,-0.09301359634055632,0.11698464160436242,-0.01744136661422017,-0.9886146181678296
-9154.047315120697,7596.0,220.0,15700.0,-1224.0,279.0,-5786.0,-0.5146665050090548,0.14168715662869275,0.1288221288955686,-0.8357320128935198
-9154.062923669815,7956.0,-1280.0,15944.0,-1132.0,353.0,-6198.0,-0.8380554212631938,0.12988819641041088,0.23843727747231458,-0.47322281436571945
-9154.078580617905,7860.0,-2208.0,15940.0,-1205.0,462.0,-5939.0,-0.9535015897369742,0.10000955807406708,0.2842123288255711,-0.007493917963128564
-9154.094185590744,7364.0,-2108.0,15440.0,-1300.0,758.0,-5488.0,-0.8639260188758231,0.06485870568129042,0.24149883038628847,0.4371538597894033
-9154.109801769257,7416.0,-2008.0,14984.0,-1524.0,979.0,-4760.0,-0.6345475873206574,0.0386988403107368,0.12455912199149577,0.7617983882319812
-9154.125388622284,7420.0,-1776.0,14648.0,-1766.0,1023.0,-4156.0,-0.336983655404848,0.02191255475216837,-0.032894128305388536,0.9406805155084529
-9154.140971899033,7148.0,-1748.0,14852.0,-1904.0,1219.0,-3825.0,-0.014768461124119437,-0.010129789869897229,-0.20292536041782694,0.979030427521286
-9154.156550168991,7452.0,-2068.0,15760.0,-2040.0,1418.0,-3771.0,0.3077683480036888,-0.05731211014220193,-0.3556213825981037,0.8806403342097963
-9154.172134876251,7848.0,-2120.0,16300.0,-2116.0,1188.0,-4058.0,0.5972067187804124,-0.073309413036058,-0.4681845869687555,0.6471267708329935
-9154.187765598297,7772.0,-2432.0,15824.0,-2105.0,961.0,-4474.0,0.8017617540565992,-0.04975998506121295,-0.5176245558814905,0.29456213736202236
-9154.203350305557,7688.0,-2656.0,15024.0,-2001.0,1011.0,-4642.0,0.8738240848497928,-0.0054891512710204095,-0.47264395706980133,-0.1140571251616745
-9154.218949079514,7720.0,-2584.0,14104.0,-1676.0,1086.0,-4586.0,0.7994102935050771,0.06103455203215407,-0.3437869624131267,-0.48890540043153163
-9154.234569311142,7416.0,-2776.0,13772.0,-1321.0,1099.0,-3758.0,0.6388887073682556,0.12068057037578175,-0.1792744702699245,-0.7383211251484909
-9154.250174760818,7292.0,-2388.0,13856.0,-1250.0,1111.0,-3133.0,0.4466667324890753,0.16361293533794158,-0.0035620180697972887,-0.8796061331669451
-9154.26578593254,6816.0,-2240.0,14352.0,-1255.0,919.0,-2660.0,0.2517551756731474,0.17938758686779688,0.16085092494659403,-0.9373187318854544
-9154.281396865845,6740.0,-1900.0,15064.0,-1163.0,917.0,-2508.0,0.0503068599603251,0.18741220153762572,0.3055979807886414,-0.9321779662133503
-9154.297160863876,6576.0,-1920.0,15156.0,-1012.0,985.0,-2472.0,-0.15584717352831243,0.19114563580515137,0.4198139372903333,-0.8734593650952909
-9154.31279349327,6184.0,-1996.0,14708.0,-866.0,862.0,-2492.0,-0.35284207325177647,0.17217867179238328,0.5010701103863467,-0.7712235219445872
-9154.328382730484,6564.0,-2060.0,13836.0,-623.0,828.0,-2496.0,-0.5331768469190633,0.13411387789324603,0.5400665865790716,-0.6372315118751671
-9154.34400677681,6696.0,-1944.0,13964.0,-420.0,702.0,-2560.0,-0.6852443032510723,0.0700107399223686,0.5457607665215122,-0.4771623695172603
-9154.359576940536,6848.0,-1896.0,14328.0,-287.0,615.0,-1972.0,-0.782172665575595,0.01847128983283965,0.5241912544076022,-0.3362859816894905
-9154.375203609467,6800.0,-1972.0,15208.0,-326.0,645.0,-1790.0,-0.8517974715796135,-0.021957753296199877,0.4855706013886816,-0.1953973273814017
-9154.390818119049,6632.0,-2100.0,15568.0,-415.0,749.0,-1243.0,-0.8978767719408067,-0.03071710151747365,0.4306481170887636,-0.08611597605220929
-9154.406426906586,6664.0,-2552.0,15564.0,-411.0,768.0,-993.0,-0.929244414362037,-0.029780864706101584,0.3682291389132198,0.005021924883978037
-9154.422002077103,6568.0,-2272.0,14968.0,-300.0,785.0,-721.0,-0.9505867280109573,-0.028699744714455754,0.30093025948021895,0.07072606387969951
-9154.437617301941,6332.0,-1988.0,14696.0,-99.0,860.0,-533.0,-0.9663980270381035,-0.039436660293653863,0.22654000373853478,0.1148879013120555
-9154.453195095062,6640.0,-1892.0,14436.0,120.0,874.0,-529.0,-0.9740830757274641,-0.0681915967603564,0.15155380268874932,0.15343895399531385
-9154.468801736832,6712.0,-1824.0,14724.0,273.0,832.0,-524.0,-0.9726313364276923,-0.10873406547472123,0.08115351500922516,0.18862474229503312
-9154.484433412552,6788.0,-1732.0,15208.0,330.0,754.0,-436.0,-0.9645287647401644,-0.15147113831680706,0.018556856425459834,0.21539823426720187
-9154.500071287155,6716.0,-1772.0,15124.0,549.0,900.0,-302.0,-0.948786891504045,-0.2138659824005495,-0.05045672852084003,0.22697774038198862
-9154.515646457672,6424.0,-1984.0,15040.0,522.0,1125.0,113.0,-0.9309384922954119,-0.2780129565603419,-0.13022178144445165,0.19774884875709411
-9154.531267881393,5980.0,-1988.0,15564.0,885.0,1415.0,366.0,-0.8899728303807625,-0.3741817015431893,-0.21846403671198836,0.14216145777882785
-9154.546865940094,5620.0,-1696.0,15920.0,810.0,1766.0,411.0,-0.8227996897862586,-0.4598605113620016,-0.3271700238713801,0.06699817950896512
-9154.562471628189,5088.0,-1284.0,15976.0,623.0,1757.0,490.0,-0.7401971796023081,-0.5214530513740735,-0.42399096937157155,-0.020652080108583
-9154.57808637619,4744.0,-828.0,16240.0,190.0,1696.0,304.0,-0.6608137112208093,-0.535762041202267,-0.5141501694613037,-0.10924228811350462
-9154.593682050705,4740.0,-396.0,16364.0,-338.0,1586.0,251.0,-0.5970409315994463,-0.507185687817992,-0.5846411086311547,-0.21094923125242812
-9154.60934305191,4732.0,-288.0,16764.0,-760.0,1244.0,-531.0,-0.5718340067352535,-0.4137580475812963,-0.6529630983617652,-0.2746804306473677
-9154.624941587448,5156.0,-272.0,16676.0,-783.0,1132.0,-1164.0,-0.5567198927773177,-0.2777435878348651,-0.7237621645812925,-0.29847912744986116
-9154.640533447266,5632.0,-428.0,16736.0,-1094.0,968.0,-1558.0,-0.553212085860633,-0.09920429240361857,-0.7667941453319504,-0.31006714613300834
-9154.656111478806,5408.0,-520.0,15876.0,-889.0,997.0,-1693.0,-0.53074286967434,0.0825818715775767,-0.7915722322017127,-0.2913857271449462
-9154.671694040298,5460.0,-848.0,14768.0,-643.0,953.0,-1541.0,-0.4926269402765834,0.23973273287388597,-0.7970631762824505,-0.25404174365068527
-9154.687327623367,4952.0,-1456.0,13756.0,-439.0,720.0,-1146.0,-0.455319208635556,0.35160539330106716,-0.7882122273522141,-0.21858533871592312
-9154.702896118164,4856.0,-1640.0,13564.0,-167.0,655.0,-591.0,-0.4151854733194066,0.41014089648208174,-0.7904657507512318,-0.18592838585516172
-9154.71848487854,4324.0,-1344.0,13768.0,156.0,671.0,-181.0,-0.37673206629590195,0.4270360088144573,-0.8092506619344739,-0.14431411420527968
-9154.73407459259,4408.0,-952.0,14864.0,416.0,672.0,-62.0,-0.3447692754958223,0.4251787958812595,-0.8322722770983639,-0.08763558056264723
-9154.74965596199,4816.0,-152.0,15720.0,753.0,352.0,-129.0,-0.3472322150207971,0.41346393462528486,-0.8415600229917747,-0.01594024209393103
-9154.765324354172,5108.0,-72.0,16444.0,496.0,66.0,-168.0,-0.36017315887687595,0.410424991189752,-0.8372845004939762,0.02795151988885991
-9154.780930042267,5332.0,-168.0,16580.0,438.0,99.0,-71.0,-0.3682036903264962,0.401283603264145,-0.8361098863086387,0.06570974203456624
-9154.796524047852,5392.0,-236.0,16244.0,346.0,370.0,-50.0,-0.3527211664730887,0.39130207090633834,-0.8434159324913563,0.10545156635162144
-9154.812098026276,5368.0,-492.0,16124.0,327.0,441.0,124.0,-0.33219757840281705,0.36760091759618463,-0.8571675495950858,0.14063472617708528
-9154.82771396637,5228.0,-108.0,15704.0,263.0,196.0,284.0,-0.32925189134967164,0.3360769546291761,-0.8680956730705106,0.15828889729257703
-9154.84330034256,5128.0,-252.0,15648.0,0.0,-292.0,316.0,-0.35552534630455296,0.315943780142054,-0.8683427597131727,0.14057776345599077
-9154.858892679214,5196.0,-12.0,16028.0,182.0,-666.0,111.0,-0.41165837678800327,0.3094782094412418,-0.8469032339774757,0.13234625412078094
-9154.87445807457,5368.0,24.0,16172.0,257.0,-746.0,-169.0,-0.47067622647767016,0.32055932583021335,-0.8105234803623467,0.1369572788621637
-9154.89005947113,5556.0,188.0,15964.0,61.0,-475.0,-622.0,-0.4974389019940869,0.3668762475898604,-0.7710271134605553,0.15321079611432298
-9154.905628681183,5772.0,316.0,15672.0,-36.0,-85.0,-921.0,-0.48815231294614086,0.4301569711274897,-0.7358816000763064,0.18748485332125378
-9154.921342849731,5924.0,300.0,15544.0,-78.0,410.0,-903.0,-0.4424939684377515,0.482952615581084,-0.7179772944009202,0.23550894616624318
-9154.936928749084,5936.0,252.0,15096.0,-28.0,542.0,-787.0,-0.389852114309479,0.5204003375928986,-0.7038221810645341,0.28606494899443374
-9154.952516794205,5596.0,424.0,15140.0,100.0,512.0,-696.0,-0.3446005169508605,0.545393899461265,-0.6851188989634248,0.33824262361621404
-9154.968094825745,5276.0,60.0,15260.0,123.0,492.0,-519.0,-0.3051250207558725,0.5570769258686158,-0.6701917810577865,0.3839361886773542
-9154.983737945557,4968.0,-256.0,15464.0,174.0,457.0,-298.0,-0.27654234793073385,0.5538513790474979,-0.6611698316540128,0.42382476737296265
-9154.999346971512,4892.0,-352.0,15656.0,145.0,353.0,-128.0,-0.25830465823824594,0.5443231936366961,-0.6576836388322059,0.4521539512312144
-9155.014940738678,4872.0,-424.0,15516.0,133.0,146.0,31.0,-0.2574440585137269,0.5336799131211519,-0.6570473960916934,0.46604401761647574
-9155.030616760254,5064.0,-544.0,15500.0,-37.0,48.0,184.0,-0.2604323451244077,0.5219106115666943,-0.6680543000070867,0.4620473562191675
-9155.046208381653,5152.0,-448.0,15620.0,-204.0,-43.0,373.0,-0.26852071585273984,0.5061614962901287,-0.6917657636594646,0.43949663600522354
-9155.061797618866,5256.0,-468.0,15864.0,-297.0,-51.0,453.0,-0.27556512491911933,0.4871624407270212,-0.7211198475573556,0.4083170137675607
-9155.077425479889,5220.0,-312.0,15892.0,-297.0,-63.0,480.0,-0.2836810866314278,0.465755464785104,-0.7496396322369472,0.3750164128275972
-9155.093019485474,5316.0,-848.0,16060.0,-190.0,-59.0,337.0,-0.29070165504435896,0.45006998553035316,-0.7676123267606485,0.35171134710765545
-9155.108625888824,5460.0,-1016.0,16156.0,-43.0,73.0,356.0,-0.29492285470683827,0.42484354912800854,-0.7843332559218723,0.3425635885363202
-9155.124239683151,5716.0,-904.0,16352.0,175.0,452.0,572.0,-0.2869781986427824,0.36687016212857754,-0.8101790399600202,0.35589285024141065
-9155.139856815338,5628.0,-668.0,16480.0,378.0,740.0,780.0,-0.26966892090234273,0.27787339841298714,-0.837779219172542,0.3849558773111919
-9155.155447006226,5620.0,-732.0,16416.0,454.0,992.0,863.0,-0.2354199308666953,0.16949447424946762,-0.860447745330891,0.4189018463848101
-9155.171027183533,5052.0,-128.0,15836.0,434.0,1056.0,783.0,-0.18978505782463617,0.06269775798492214,-0.8714831476954675,0.4478479052680313
-9155.186658382416,4696.0,-60.0,15396.0,306.0,871.0,612.0,-0.14843565629574446,-0.022863528908023564,-0.8731880280849138,0.4636666718614822
-9155.202255249023,4852.0,-216.0,15116.0,159.0,631.0,370.0,-0.1147477760269174,-0.0784835335065721,-0.8722917292234834,0.4688074466062845
-9155.21783900261,4568.0,-280.0,14888.0,82.0,382.0,495.0,-0.10518802241404074,-0.132412302054346,-0.8680205158960244,0.4668434921779369
-9155.233423233032,4740.0,-900.0,15240.0,85.0,322.0,200.0,-0.08789562395091877,-0.16135670065451246,-0.8646688683170911,0.4675319482210917
-9155.249002456665,4848.0,-1252.0,15628.0,113.0,330.0,174.0,-0.06844302657676787,-0.18869450941646485,-0.8596054394929041,0.4698812856704368
-9155.264602661133,5028.0,-1076.0,15996.0,231.0,339.0,360.0,-0.05388796755827225,-0.23070907652296635,-0.8452326655042114,0.47901059500495874
-9155.280241250992,5228.0,-1016.0,16392.0,350.0,209.0,519.0,-0.05301249171182493,-0.2789009317547344,-0.8197345804599137,0.49743257190000567
-9155.295814037323,5240.0,-864.0,16400.0,330.0,101.0,720.0,-0.06882884679925597,-0.33549324031029054,-0.7864005041897036,0.514082797382451
-9155.311427593231,5084.0,-836.0,15900.0,234.0,-5.0,900.0,-0.10235466720860761,-0.3971199810098476,-0.7470201291495415,0.5232400686384363
-9155.326986312866,4960.0,-992.0,15524.0,129.0,-128.0,867.0,-0.14538595623712516,-0.4475920229130655,-0.7077829007598077,0.5268469133872183
-9155.342609405518,4944.0,-972.0,15584.0,13.0,-130.0,784.0,-0.1885113894286226,-0.48900488670362985,-0.6732523369227881,0.5216023079546953
-9155.35818362236,4892.0,-892.0,15440.0,57.0,-110.0,631.0,-0.22093268749795997,-0.5211596062537976,-0.6408710684444531,0.5185225993485537
-9155.373789548874,4968.0,-936.0,15700.0,-23.0,-12.0,424.0,-0.24168889603814273,-0.543479699390091,-0.6219332124641018,0.5093283549114485
-9155.389362096786,5240.0,-924.0,16076.0,2.0,89.0,156.0,-0.2436847492268549,-0.5558404250046052,-0.6162161052160384,0.5019331395687288
-9155.404940128326,5296.0,-976.0,15732.0,247.0,-77.0,18.0,-0.2365859700435465,-0.5585060537824085,-0.6026992679141108,0.5185090733273146
-9155.420523405075,5268.0,-1112.0,15408.0,79.0,-245.0,-19.0,-0.24471601845170135,-0.5478660775756862,-0.5948094079930338,0.5349379398752302
-9155.436116933823,5132.0,-1280.0,15316.0,41.0,-357.0,41.0,-0.26308948894530365,-0.5338860524558825,-0.5829843493680622,0.5530631538906481
-9155.451745986938,5132.0,-1280.0,15792.0,-35.0,-466.0,181.0,-0.2969077265613837,-0.5192459919980023,-0.5649581891377304,0.5683763244791057
-9155.467343091965,5168.0,-1112.0,15756.0,-57.0,-509.0,202.0,-0.3342533855213871,-0.5018387603662521,-0.5447650248441216,0.5828066579648331
-9155.482941150665,5092.0,-1076.0,15972.0,-58.0,-383.0,315.0,-0.37071096707501994,-0.49510623597471876,-0.5221947751657315,0.5871591017593616
-9155.498614311218,5116.0,-1120.0,15864.0,-32.0,-352.0,454.0,-0.41092666772953557,-0.49602850152750233,-0.4921467901748712,0.5855651426969092
-9155.514214992523,4644.0,-1080.0,15776.0,-15.0,-458.0,588.0,-0.4603770774063609,-0.49621317440467166,-0.45001127634380234,0.5825077538620739
-9155.529807329178,4568.0,-1204.0,15704.0,-23.0,-690.0,659.0,-0.520233542681589,-0.48432318590377926,-0.3934760047373602,0.5830649589547474
-9155.545366287231,4528.0,-1208.0,15748.0,38.0,-796.0,699.0,-0.5791260314772795,-0.4674401437383583,-0.32438002310179975,0.583858161114252
-9155.560949802399,4512.0,-1072.0,15768.0,78.0,-847.0,690.0,-0.6322724104582431,-0.4455926500674026,-0.24821543895311934,0.5831533975246501
-9155.576523303986,4592.0,-1016.0,15472.0,173.0,-882.0,739.0,-0.678845957273141,-0.4239199511888984,-0.1610676710205765,0.5775095208132264
-9155.592138767242,4476.0,-908.0,15648.0,215.0,-786.0,652.0,-0.7119335168372345,-0.4043463339279073,-0.07911385885788993,0.5686789139571136
-9155.607770442963,4412.0,-876.0,15652.0,245.0,-925.0,500.0,-0.7313279404190599,-0.3752358500528787,0.008212871580005705,0.5694647040317073
-9155.623363733292,4712.0,-828.0,15776.0,184.0,-951.0,303.0,-0.736871907802515,-0.337936145510763,0.08769484169980618,0.578902900137887
-9155.638961076736,4800.0,-836.0,15812.0,64.0,-1053.0,87.0,-0.728295293469009,-0.28670661847611584,0.16055019813883528,0.6013392672281278
-9155.654614448547,5048.0,-996.0,16044.0,50.0,-977.0,-88.0,-0.7062235697682037,-0.23870351105987245,0.22223098940175828,0.6283966029993
-9155.670183420181,5260.0,-1060.0,15924.0,8.0,-887.0,-377.0,-0.6659068549227973,-0.19691061996424827,0.26846672829645657,0.6676225611151264
-9155.685824394226,5480.0,-1048.0,15924.0,15.0,-770.0,-611.0,-0.6098505254099372,-0.16638154134300348,0.3023715965914984,0.7134219907826349
-9155.70141839981,5596.0,-972.0,15860.0,-48.0,-740.0,-709.0,-0.5447787421627114,-0.13569685338670845,0.32703109181129814,0.7601665285036369
-9155.71700167656,5648.0,-1032.0,15792.0,-64.0,-713.0,-672.0,-0.47893046178608756,-0.10394688056286287,0.34729789074261413,0.799502866711775
-9155.732621192932,5376.0,-1088.0,15888.0,-48.0,-706.0,-496.0,-0.42223648626244686,-0.06734282385909271,0.3677363213176656,0.8258034219638328
-9155.74824643135,5656.0,-1272.0,15664.0,-36.0,-706.0,-310.0,-0.3766716003988523,-0.024866133064230987,0.38826608761379344,0.8406840227389109
-9155.763833522797,5520.0,-1388.0,15480.0,-16.0,-692.0,-82.0,-0.34667742717696665,0.023741459815976012,0.4087039911111517,0.8439266272737109
-9155.77947306633,5444.0,-1404.0,15448.0,28.0,-610.0,79.0,-0.33039707055569334,0.07063817412785718,0.4282298857299203,0.8381331571366437
-9155.795080184937,5420.0,-1224.0,15736.0,78.0,-450.0,116.0,-0.3223508479212933,0.10561720071812167,0.4456077012016296,0.8284737258276151
-9155.810643911362,5484.0,-1156.0,15808.0,129.0,-300.0,107.0,-0.31954493058062594,0.1278262547926489,0.4619742749217195,0.8173929625562354
-9155.826197385788,5380.0,-1248.0,15760.0,187.0,-216.0,-66.0,-0.3081910850467397,0.1353425148076652,0.4817187828806301,0.8091030051873831
-9155.841805696487,5408.0,-1068.0,15816.0,251.0,-172.0,-154.0,-0.29299674485922206,0.13422426396520507,0.5054760315531723,0.800394112915728
-9155.857403039932,5132.0,-1124.0,15704.0,504.0,-223.0,-312.0,-0.26693423059220617,0.12297957488520748,0.5490297323467918,0.7824247527388246
-9155.872990369797,5384.0,-1072.0,15732.0,249.0,-228.0,-322.0,-0.23656720645694074,0.11724414770183299,0.5741650248039719,0.7749995425486935
-9155.888691663742,5356.0,-1024.0,15852.0,243.0,-227.0,-394.0,-0.20089016797485343,0.10775012799097711,0.5985644095699105,0.7679542290561253
-9155.90428853035,5420.0,-876.0,15708.0,239.0,-102.0,-448.0,-0.16767174937931476,0.08692565756787007,0.619811071786422,0.7616852038785056
-9155.919958353043,5316.0,-948.0,15728.0,224.0,-30.0,-533.0,-0.13220207051392877,0.05676029895571333,0.638238456744757,0.7562754480652927
-9155.935572624207,5600.0,-1016.0,15644.0,0.0,44.0,-634.0,-0.09271361498467105,0.018540882341021254,0.6397604722789831,0.7627364940710932
-9155.951212644577,5192.0,-1184.0,15804.0,203.0,71.0,-725.0,-0.04867877662323216,-0.028216917764811552,0.6523329556124883,0.7558411852235856
-9155.966810703278,5236.0,-1224.0,16124.0,253.0,85.0,-681.0,-0.007988220384786141,-0.0734852980386608,0.6655190450975632,0.7427115859603114
-9155.98248410225,5160.0,-1196.0,15656.0,509.0,54.0,-612.0,0.03170780997216354,-0.11257588689497008,0.6927771093606507,0.7116046382806123
-9155.998099803925,5048.0,-1260.0,15724.0,295.0,-23.0,-589.0,0.07244121903356887,-0.14566538444663693,0.7039975296403291,0.6913185545168434
-9156.013698339462,5084.0,-1128.0,15768.0,267.0,-21.0,-580.0,0.11193765453452717,-0.17803320203065906,0.7114167298641219,0.6705672053876915
-9156.029346942902,5360.0,-892.0,15768.0,200.0,-16.0,-693.0,0.15628437738847265,-0.2177037688344546,0.7107165254951834,0.6504323814260989
-9156.044945955276,5508.0,-880.0,15888.0,156.0,51.0,-749.0,0.1981659452747539,-0.2643048208899465,0.7043926411207537,0.6282549060076058
-9156.060542583466,5524.0,-1004.0,16100.0,94.0,79.0,-866.0,0.2422723427477795,-0.3192889440760657,0.6888673241594788,0.6040037183955517
-9156.07612490654,5584.0,-808.0,15732.0,79.0,181.0,-987.0,0.28454911132816213,-0.38498744215680003,0.6667265373716396,0.5712199199855881
-9156.091772794724,5440.0,-880.0,15576.0,79.0,252.0,-980.0,0.32017551514557235,-0.4508210470746333,0.6414276326624093,0.5318069340210748
-9156.107362985611,5404.0,-1048.0,15580.0,111.0,296.0,-866.0,0.34708567667568074,-0.5082687772884911,0.6187280714465392,0.4882314581059818
-9156.122950077057,5312.0,-1216.0,15376.0,112.0,293.0,-793.0,0.36904831930612414,-0.558614187886131,0.5955064336508322,0.4439883045645578
-9156.138602495193,5244.0,-1264.0,15592.0,71.0,216.0,-643.0,0.38556836293423674,-0.5970358365874688,0.5728104407098394,0.4083790473914076
-9156.154192209244,5152.0,-1240.0,15864.0,35.0,-3.0,-504.0,0.4051674863342335,-0.6203186011244509,0.5471223562125079,0.389488470238949
-9156.169809818268,5252.0,-1180.0,15836.0,43.0,-166.0,-437.0,0.4299762007136678,-0.63346131220295,0.5185781152517999,0.38068881142456373
-9156.185425519943,5216.0,-1060.0,15604.0,75.0,-234.0,-280.0,0.4538403698044639,-0.6351741832336659,0.49650353926883367,0.3795614722053788
-9156.200999975204,5188.0,-928.0,15744.0,119.0,-247.0,-179.0,0.47694281989403914,-0.6297373003309606,0.48049869685006735,0.3808903798322856
-9156.216573476791,5056.0,-864.0,15912.0,254.0,-218.0,-126.0,0.5040600828407013,-0.6168543497349069,0.47266647002666906,0.376829606337239
-9156.232144832611,5108.0,-828.0,16104.0,-30.0,-190.0,-190.0,0.5164613509692055,-0.619544203182893,0.4529139124675934,0.37987055841540857
-9156.247762680054,5024.0,-820.0,15624.0,-10.0,-377.0,-105.0,0.5340681576390155,-0.6112367886235917,0.4296053823552843,0.3957271871890491
-9156.26334643364,4884.0,-876.0,15528.0,-59.0,-618.0,-172.0,0.5592284403795597,-0.5980850139767906,0.38890745177462394,0.42226633950765713
-9156.278915405273,4880.0,-960.0,15520.0,-94.0,-801.0,-6.0,0.5803757575734753,-0.5718647794558814,0.3451087516352262,0.4658697281254349
-9156.294567584991,4912.0,-808.0,15536.0,-206.0,-844.0,-322.0,0.6067101010883981,-0.5557752854544632,0.27692185884481624,0.4963174079248556
-9156.310186386108,5092.0,-1020.0,15828.0,-222.0,-859.0,-365.0,0.6303932456899276,-0.5371513927786558,0.20331191781117297,0.5222422819921918
-9156.325819253922,5116.0,-852.0,15652.0,-203.0,-797.0,-420.0,0.6521351001985981,-0.5176327573832914,0.1300056739578854,0.5384000968717324
-9156.34138417244,5240.0,-1012.0,15680.0,-149.0,-884.0,-403.0,0.6719918684561239,-0.48719900593721327,0.05419411689070392,0.5550919338605772
-9156.356976032257,5316.0,-1092.0,15480.0,-170.0,-1019.0,-290.0,0.6807421935124633,-0.4470330317650108,-0.026106500764823803,0.5797154345889359
-9156.372567653656,5364.0,-1060.0,15868.0,-216.0,-1212.0,-154.0,0.6734933680031424,-0.3956674967223346,-0.11444829086506796,0.6138041251175576
-9156.388185739517,5492.0,-1040.0,15436.0,-251.0,-1337.0,249.0,0.6336170860956387,-0.33859161654829134,-0.19649238780747075,0.6672899272015165
-9156.403854370117,5400.0,-1104.0,15724.0,-508.0,-1319.0,128.0,0.584152402155983,-0.2896058775066338,-0.2929831864535073,0.6993248595785486
-9156.419447422028,5736.0,-1160.0,15724.0,-261.0,-1177.0,140.0,0.5360049777606929,-0.2331235581319772,-0.36328148085096956,0.7255195628860549
-9156.435047388077,5744.0,-1172.0,15396.0,-228.0,-1094.0,132.0,0.48607435625663425,-0.1776464257213606,-0.4240634288665222,0.743198274968458
-9156.45063996315,5836.0,-1228.0,15536.0,-150.0,-1130.0,94.0,0.43376349671993886,-0.11346097975259192,-0.47776326140053116,0.755458867869589
-9156.466223478317,6084.0,-1244.0,15684.0,-118.0,-1196.0,56.0,0.3770470794186943,-0.04104728387008186,-0.5272159142978029,0.7603906891196482
-9156.481851577759,6364.0,-1204.0,15468.0,-76.0,-1131.0,26.0,0.3215219195705393,0.030264053408488333,-0.5664599386448409,0.7581760219219854
-9156.497438192368,6456.0,-1088.0,15844.0,-16.0,-1060.0,130.0,0.2595080462005564,0.0931893884552353,-0.5948724685749095,0.7550483812101728
-9156.513026714325,6520.0,-1204.0,15476.0,37.0,-891.0,113.0,0.20494102870751027,0.14646682687646712,-0.6115047262899489,0.7500724052397215
-9156.528631925583,6652.0,-1248.0,15296.0,155.0,-813.0,232.0,0.1440388114738271,0.18957204010812106,-0.6169873571253068,0.7500945697350309
-9156.544243335724,6340.0,-1312.0,15240.0,252.0,-1023.0,388.0,0.059145074911204645,0.23769344866480752,-0.6166776252793952,0.7481392858655029
-9156.559830188751,6304.0,-1404.0,15176.0,204.0,-753.0,537.0,-0.020572786783120037,0.2581310849849942,-0.6161504639280331,0.7438438742167041
-9156.575443983078,6460.0,-1432.0,15428.0,223.0,-697.0,514.0,-0.09612960437386157,0.27450218559410167,-0.6100154372520056,0.7370812815295413
-9156.591084003448,6268.0,-1528.0,15424.0,231.0,-724.0,895.0,-0.1967455228294893,0.27006621418443943,-0.6072147441077727,0.7208645460422975
-9156.606674194336,6208.0,-1228.0,15292.0,298.0,-780.0,931.0,-0.30189139222682454,0.263115072960364,-0.5933615459600844,0.6982507582926571
-9156.622262954712,6368.0,-1240.0,15128.0,322.0,-874.0,942.0,-0.40924461598253,0.2573933074637203,-0.5684168749485645,0.6657099862822445
-9156.637843847275,6100.0,-1216.0,14964.0,347.0,-886.0,1057.0,-0.5184603984512053,0.242175046913316,-0.5360923038762555,0.6206086557686729
-9156.653422832489,5960.0,-1156.0,15112.0,368.0,-878.0,1202.0,-0.6268831010728771,0.21491459900543008,-0.49724113146271426,0.5599826335747101
-9156.669001340866,5920.0,-1128.0,15328.0,432.0,-1015.0,1314.0,-0.7351167723716876,0.1818231469266734,-0.440151286697888,0.48250442385299147
-9156.684631586075,5844.0,-1192.0,15460.0,490.0,-839.0,1265.0,-0.8205441655941229,0.1358007070143607,-0.38187060524817384,0.40303880846791634
-9156.700236797333,5772.0,-1048.0,15424.0,445.0,-951.0,1165.0,-0.8902547905524621,0.09764130290460867,-0.3088029005726186,0.3202395235810531
-9156.715903997421,5776.0,-948.0,15372.0,409.0,-1053.0,1068.0,-0.9433784983260293,0.06590694587825763,-0.2223509458679626,0.23717786627918797
-9156.731491327286,5860.0,-996.0,15524.0,356.0,-1086.0,831.0,-0.9763394545868546,0.0426383752590162,-0.12907239790108369,0.16817715205217168
-9156.747100353241,6088.0,-956.0,15580.0,362.0,-957.0,753.0,-0.9934432030399026,0.017273990926362292,-0.044427546882574234,0.10391537253597913
-9156.762672424316,6328.0,-956.0,15816.0,345.0,-713.0,818.0,-0.99921857002958,-0.009250219103142231,0.019511492029969747,0.03310565560972141
-9156.778239488602,6304.0,-996.0,15900.0,306.0,-549.0,877.0,-0.9961451973076807,-0.032623816859242476,0.06898735982411727,-0.04325709928872197
-9156.793808937073,6212.0,-780.0,15888.0,222.0,-449.0,800.0,-0.9864205555508025,-0.04851590417508988,0.1093900666638471,-0.11249225726332829
-9156.809391260147,6088.0,-920.0,15784.0,133.0,-376.0,680.0,-0.973259781535459,-0.05684252805078601,0.14325510784242707,-0.17032997013855364
-9156.824967861176,6124.0,-880.0,15584.0,46.0,-338.0,488.0,-0.9602241530661849,-0.059352484883392516,0.1736810637662253,-0.21043228482228407
-9156.840569019318,6216.0,-840.0,15368.0,-38.0,-343.0,195.0,-0.9510502463877905,-0.059178482608192,0.20413680981692467,-0.22434236987177314
-9156.856135606766,6224.0,-868.0,15268.0,-92.0,-246.0,-50.0,-0.9478869175772373,-0.05693076452270496,0.22595299910934313,-0.21728902809455664
-9156.871772766113,5896.0,-968.0,15268.0,-113.0,-183.0,-218.0,-0.9486885839755917,-0.055112960466677484,0.24186317650478037,-0.1960987916179051
-9156.887410879135,6160.0,-1128.0,15112.0,-44.0,-137.0,-509.0,-0.9537629919878964,-0.06427647457054474,0.25104165116108407,-0.15225892195006066
-9156.903000354767,6140.0,-1212.0,15304.0,-247.0,-133.0,-216.0,-0.9547057250771992,-0.04996634695114664,0.26386899847371853,-0.12811516038960336
-9156.918682336807,6348.0,-1140.0,15320.0,-251.0,-186.0,-227.0,-0.9535795492577047,-0.036150201375788935,0.2808068243231247,-0.1025998713036446
-9156.93431854248,6216.0,-1016.0,15564.0,-11.0,-211.0,-361.0,-0.9511227630349038,-0.045815732615779224,0.29688175633406366,-0.07160747892316283
-9156.949985980988,6256.0,-880.0,15468.0,-79.0,-125.0,-504.0,-0.9504347484525749,-0.052912241813590895,0.30517654152972895,-0.02722796540515683
-9156.965584754944,6380.0,-908.0,15504.0,-136.0,-37.0,-602.0,-0.950208485889624,-0.057519088835064666,0.3051179522910401,0.026427692912069204
-9156.98117852211,6256.0,-1076.0,15340.0,-114.0,20.0,-640.0,-0.9483927130306073,-0.06487450553746106,0.2992901411201675,0.08226768399550341
-9156.996804475784,6232.0,-1216.0,15296.0,-128.0,-15.0,-689.0,-0.9420988997551291,-0.07183192786199295,0.2949692410038511,0.1424183418012463
-9157.012400865555,6240.0,-1240.0,15120.0,-120.0,-18.0,-696.0,-0.9320483498388051,-0.07928574522258568,0.2898713231816129,0.20242099734019842
-9157.028013467789,6324.0,-1180.0,15292.0,-49.0,-113.0,-631.0,-0.9170228856543333,-0.08889186318118053,0.29321263647428925,0.25533040096740167
-9157.043610334396,6380.0,-1116.0,15140.0,-4.0,-82.0,-541.0,-0.9019588126867525,-0.1002342858899363,0.29500571651892243,0.2989899920900284
-9157.05927848816,6332.0,-1232.0,15144.0,-253.0,-82.0,-516.0,-0.8875421287717413,-0.09110320786406413,0.2898317105589834,0.3463621727710124
-9157.074871063232,6152.0,-1296.0,15244.0,-22.0,-24.0,-452.0,-0.8728520829071417,-0.09978793099492474,0.2870605344147762,0.3817955732770082
-9157.090460300446,6356.0,-1276.0,15128.0,-1.0,17.0,-339.0,-0.8617008722758283,-0.10847316221207258,0.2825231585739134,0.40729086003519555
-9157.106040716171,6316.0,-1488.0,15416.0,-6.0,101.0,-236.0,-0.8557319145600363,-0.1171494257739206,0.27228292424657136,0.4241001197924742
-9157.121619462967,6280.0,-1268.0,15252.0,10.0,160.0,-407.0,-0.8438407880215201,-0.1331331575013382,0.256239567736202,0.4522715675026546
-9157.137201309204,6452.0,-1200.0,15292.0,41.0,246.0,-260.0,-0.8382757415402442,-0.1513302868106382,0.23651084921877744,0.46739228025372465
-9157.152762889862,6492.0,-1272.0,15184.0,34.0,186.0,-508.0,-0.8201136059344118,-0.17141833982214313,0.2172712429926143,0.5008219574882086
-9157.168350696564,6360.0,-1224.0,15164.0,22.0,181.0,-630.0,-0.7944665366711009,-0.19225297155003918,0.19548290156761508,0.5418931188294538
-9157.183969020844,6332.0,-1240.0,15264.0,39.0,124.0,-650.0,-0.763995727219227,-0.21127421324678697,0.1774933826149968,0.5832408033870763
-9157.199565172195,6308.0,-1128.0,15308.0,-23.0,105.0,-602.0,-0.7344423470817519,-0.2238097147746464,0.15797503997437065,0.6209247435322856
-9157.215145111084,6272.0,-1128.0,15256.0,-75.0,86.0,-607.0,-0.7032594690464782,-0.2314134150258148,0.13633243763558534,0.6582457117147783
-9157.230721473694,6176.0,-1140.0,15252.0,-138.0,29.0,-644.0,-0.6683660155759683,-0.23160584238575194,0.11342711149863688,0.6976961325483797
-9157.246295690536,6076.0,-1152.0,15304.0,-160.0,-10.0,-706.0,-0.627331321758108,-0.2279130245248152,0.08982189459981543,0.7392178929406917
-9157.261875152588,6156.0,-1172.0,15172.0,-161.0,-36.0,-832.0,-0.5750653598358174,-0.22240149722622035,0.06469367588415395,0.7846350325145017
-9157.277517557144,6244.0,-1256.0,15348.0,-68.0,-104.0,-758.0,-0.5227731690658616,-0.21537285463815906,0.05045169020199104,0.8232723572096957
-9157.293180704117,6224.0,-1368.0,15608.0,-48.0,-87.0,-614.0,-0.4785195494369694,-0.2090347529355994,0.039391193149928894,0.8519224417598222
-9157.308764457703,6220.0,-1320.0,15256.0,-37.0,-92.0,-539.0,-0.4383443237580696,-0.20197637600998974,0.0306340754060714,0.8752835830672062
-9157.324347496033,6280.0,-1324.0,15320.0,-54.0,-113.0,-525.0,-0.39848424242822916,-0.19217159918544524,0.02157301861872461,0.8965572987102303
-9157.339977025986,6368.0,-1200.0,15532.0,-78.0,-15.0,-497.0,-0.3605603623563077,-0.18873938952194494,0.007670674126791139,0.9134083581283962
-9157.355565786362,6408.0,-1188.0,15524.0,-135.0,31.0,-535.0,-0.31981126587588427,-0.18680343234225535,-0.012838459012061617,0.9287951366443584
-9157.371136426926,6348.0,-1032.0,15220.0,-100.0,9.0,-423.0,-0.28695731458724466,-0.18383640831912118,-0.0280345550319964,0.9397200318740473
-9157.386773586273,6312.0,-1328.0,15124.0,-46.0,-26.0,-332.0,-0.2604321028028278,-0.1793625121765621,-0.03643217961854546,0.9479857094617259
-9157.402347803116,6240.0,-1372.0,15268.0,-26.0,5.0,-233.0,-0.24150520489452892,-0.1781063622661754,-0.04230007191847393,0.9529764234464846
-9157.41797876358,6296.0,-1408.0,15332.0,-23.0,-14.0,-166.0,-0.22809053287619516,-0.17552456277396528,-0.0464574819654556,0.9565602641991204
-9157.433552265167,6372.0,-1292.0,15368.0,-16.0,43.0,-189.0,-0.21235815326013155,-0.17770347376720153,-0.051497152605276514,0.9595173439957012
-9157.449154376984,6468.0,-1204.0,15424.0,-29.0,47.0,-160.0,-0.1991806274180088,-0.18006403320735012,-0.05722904116276867,0.9615762364233326
-9157.464739561081,6240.0,-1164.0,15392.0,27.0,-64.0,-194.0,-0.18276760731853353,-0.17386682211436047,-0.05684485543572541,0.9659891263846623
-9157.480323791504,6256.0,-1216.0,15216.0,-30.0,-51.0,-249.0,-0.1624427166388844,-0.16751068883289014,-0.062281961325194764,0.9703986243967974
-9157.495980501175,6228.0,-1280.0,15260.0,-36.0,17.0,-343.0,-0.13376316479859246,-0.1661981562245236,-0.0705132534163686,0.9744298177412637
-9157.511571884155,6180.0,-1224.0,15252.0,-20.0,17.0,-362.0,-0.10310401518773762,-0.1647985197889036,-0.07758045701597785,0.9778508488602673
-9157.527148485184,6304.0,-1156.0,15388.0,16.0,21.0,-482.0,-0.06153136377555721,-0.163025464059424,-0.08321629940188735,0.9811786977171818
-9157.542778730392,6264.0,-1048.0,15424.0,254.0,22.0,-581.0,-0.007977880156003215,-0.16150508250972087,-0.0696962372910203,0.9843753838141314
-9157.558362722397,6328.0,-1052.0,15280.0,13.0,24.0,-585.0,0.042571227078375046,-0.15950393562444715,-0.07671473343536932,0.9832909207448698
-9157.573988199234,6336.0,-1148.0,15284.0,21.0,68.0,-461.0,0.08283476791720276,-0.16173485103480548,-0.08098907306185905,0.9800107189359887
-9157.589629650116,6292.0,-1384.0,15164.0,-9.0,26.0,-374.0,0.11484635691883634,-0.1609874034779038,-0.0867929548635603,0.9764017376110952
-9157.605206251144,6240.0,-1344.0,15192.0,40.0,-93.0,-293.0,0.13965162893665642,-0.1500800524352422,-0.08838920769287764,0.9747618931615035
-9157.6207883358,6328.0,-1204.0,15120.0,64.0,-102.0,-319.0,0.1667990809555759,-0.13779121227863494,-0.08831424834944253,0.9723128313200604
-9157.636360168457,6372.0,-1060.0,15440.0,98.0,-42.0,-298.0,0.19290062795645202,-0.13014187836431898,-0.08414688621802667,0.9689023380968919
-9157.65196943283,6408.0,-1228.0,15536.0,27.0,37.0,-231.0,0.2130015965485378,-0.1307774533940721,-0.08384588289409355,0.9646229550830964
-9157.667546987534,6360.0,-1304.0,15348.0,57.0,29.0,-133.0,0.22507821023804367,-0.1308604987432315,-0.08002578537303426,0.9621908349283633
-9157.683123111725,6384.0,-1504.0,15208.0,31.0,-72.0,-94.0,0.23284553142008152,-0.1232268077078675,-0.07992519587101962,0.9613584531405585
-9157.698702573776,6256.0,-1312.0,15268.0,26.0,-79.0,-14.0,0.2337773617715713,-0.11565281262702218,-0.07951127965890924,0.9621073372870542
-9157.714293003082,6252.0,-1184.0,15548.0,76.0,-84.0,15.0,0.23272426040188776,-0.10682968809260134,-0.07469700972859936,0.9637671882254746
-9157.729917049408,6248.0,-1248.0,15416.0,54.0,-131.0,-8.0,0.23306072362588398,-0.09433515702439944,-0.07290078528374869,0.9651264439218179
-9157.74553489685,6228.0,-1248.0,15408.0,52.0,-81.0,-248.0,0.253824299182929,-0.0845325273446952,-0.07220899901950206,0.9608399124857454
-9157.761159420013,6120.0,-1144.0,15228.0,57.0,-107.0,-144.0,0.2656395677614119,-0.07305702727779344,-0.07087285542880921,0.958684165493636
-9157.776744127274,6160.0,-1240.0,15296.0,83.0,-49.0,-232.0,0.2852366562242428,-0.06525859075128683,-0.0665571985178544,0.953913783108633
-9157.79234457016,6248.0,-1172.0,15224.0,133.0,-47.0,-238.0,0.3054726957205608,-0.056312260130391874,-0.05803264649681231,0.9487610729097166
-9157.807976007462,6184.0,-1256.0,15408.0,169.0,-51.0,-296.0,0.3304280542890918,-0.04574225759351991,-0.046891800234535,0.9415551528613382
-9157.823565483093,6320.0,-1036.0,15868.0,113.0,-74.0,-203.0,0.34719781182405607,-0.03524415401212378,-0.04061413551934428,0.9362489097823149
-9157.839128255844,6300.0,-1204.0,15464.0,88.0,-59.0,-242.0,0.36695106337895633,-0.02657841566317512,-0.036045337804634155,0.9291615782674393
-9157.85469198227,6356.0,-1084.0,15288.0,44.0,-46.0,-297.0,0.39086736642284386,-0.020187531370020263,-0.03473742014559438,0.9195697238842107
-9157.870264053345,6312.0,-1148.0,15284.0,73.0,19.0,-207.0,0.407602342412586,-0.01828651297319491,-0.028716251193120695,0.9125246905264909
-9157.885826587677,6324.0,-1156.0,15316.0,23.0,152.0,-5.0,0.40839385061893246,-0.029259102289454324,-0.021624422781750623,0.9120804526187437
-9157.901416301727,6404.0,-1216.0,15368.0,-48.0,229.0,-2.0,0.40879203682917564,-0.048887551762789604,-0.017430429378108,0.911150513383705
-9157.917027950287,6380.0,-1140.0,15380.0,-31.0,241.0,-13.0,0.40998630415603565,-0.06882281672747989,-0.011487283816080511,0.9094188763230613
-9157.932751178741,6604.0,-1184.0,15176.0,-27.0,238.0,-284.0,0.43239721503159145,-0.08804979737068261,-0.00695244437443925,0.897346948026863
-9157.948346853256,6268.0,-1260.0,15060.0,2.0,181.0,-295.0,0.4554425877217429,-0.10163077193115537,-0.00237111908493821,0.8844419784702018
-9157.963977336884,6280.0,-1208.0,14876.0,-16.0,25.0,-204.0,0.4710026937493301,-0.10384742019008027,-0.00456287639357753,0.8759859336540494
-9157.979566335678,6276.0,-1288.0,15192.0,246.0,-52.0,-211.0,0.489168728079809,-0.08935067692143638,0.010045458768263446,0.8675422184312407
-9157.995221376419,6340.0,-1244.0,15300.0,31.0,-87.0,-195.0,0.5041832276399463,-0.08131815075019493,0.006990815453966011,0.8597312137083445
-9158.010809898376,6256.0,-1180.0,15284.0,43.0,-48.0,-209.0,0.5201254117327456,-0.07566046644386155,0.00645146876305047,0.8507076045493768
-9158.026437044144,6164.0,-1196.0,15160.0,19.0,-30.0,-184.0,0.5338775045265508,-0.07239058843515779,0.005108033937730378,0.8424418798088124
-9158.042007923126,6260.0,-1168.0,15468.0,7.0,-79.0,-197.0,0.5483656358049516,-0.06605974690745135,0.0005181909011169268,0.8336251980266339
-9158.057584047318,6344.0,-1168.0,15864.0,4.0,-64.0,-151.0,0.5593382086318704,-0.06094059975178039,-0.0033054250670041785,0.826689836535753
-9158.07315659523,6176.0,-1312.0,15520.0,25.0,-49.0,-143.0,0.5697409188432304,-0.05587188964564076,-0.004844039036999706,0.8199086245606306
-9158.088725805283,6312.0,-1320.0,15316.0,46.0,-102.0,-25.0,0.5716984991743255,-0.04600979604736444,-0.006941380478255432,0.8191432975655478
-9158.104289531708,6212.0,-1292.0,15168.0,81.0,-138.0,255.0,0.5535336390808706,-0.03198615667895745,-0.007210128142165811,0.8321811162475218
-9158.119923114777,6268.0,-1168.0,15276.0,74.0,-126.0,30.0,0.5514443407588228,-0.019016262090004628,-0.008037926150232473,0.8339561814414441
-9158.135560750961,6236.0,-1536.0,15596.0,87.0,-82.0,6.0,0.5510701026209625,-0.008620878013577063,-0.005863343548650601,0.8343938180871353
-9158.151129484177,6204.0,-1224.0,15400.0,105.0,0.0,17.0,0.5498910170494234,-0.00333391988318585,0.0015750625894570818,0.8352282762960089
-9158.166703939438,6300.0,-1192.0,15220.0,120.0,-38.0,35.0,0.5473451946408917,0.005437068498879638,0.008279481443702922,0.8368483293743774
-9158.182274580002,6372.0,-1440.0,15316.0,175.0,-91.0,91.0,0.5405822842778012,0.02072227254750106,0.016419689170709944,0.8408756002840129
-9158.197868585587,6348.0,-1404.0,15340.0,225.0,-66.0,185.0,0.5265085681345008,0.036633692616409315,0.029210955356751674,0.848877741688042
-9158.213495254517,6332.0,-1324.0,15140.0,226.0,-15.0,70.0,0.5205160745126516,0.04848005635888756,0.04475617421778646,0.8512987637596838
-9158.229068756104,6220.0,-1360.0,15352.0,260.0,-7.0,34.0,0.5167687748619054,0.061083302847517125,0.06330377377436422,0.8515935037721272
-9158.244690418243,6284.0,-1400.0,15448.0,290.0,5.0,-2.0,0.5151643440059066,0.07388566463070739,0.0847641601839758,0.849683261206991
-9158.260287761688,6404.0,-1340.0,15336.0,296.0,230.0,-254.0,0.5299631905475537,0.06831721419363165,0.11829372439662034,0.8369458582715225
-9158.275894880295,6264.0,-1304.0,15308.0,310.0,-2.0,50.0,0.5242776596273471,0.08338406416440106,0.1401883621043589,0.8357794305853643
-9158.29149222374,6356.0,-1260.0,15324.0,302.0,30.0,191.0,0.5075233557343873,0.09738293776184716,0.16181455450847074,0.840685825244011
-9158.307080984116,6260.0,-1196.0,15456.0,287.0,90.0,304.0,0.4811642831662123,0.10777191643027881,0.18384289066099227,0.850334015659435
-9158.322658538818,6164.0,-1052.0,15432.0,319.0,49.0,250.0,0.45852339054643587,0.12151866194597644,0.20679305309768342,0.8557021376105114
-9158.338247299194,6164.0,-1428.0,15180.0,278.0,-11.0,293.0,0.43361151492004074,0.13870397499590456,0.22357491586989545,0.8618332312244938
-9158.353831291199,6352.0,-1424.0,15176.0,300.0,-77.0,362.0,0.40389026708185477,0.1628011454543082,0.23835045397771426,0.8680768976789617
-9158.36939573288,6320.0,-1412.0,15224.0,312.0,-79.0,395.0,0.37079064665598643,0.1878281276298291,0.2530606390987756,0.873610441651442
-9158.384969949722,6404.0,-1452.0,15480.0,2.0,-74.0,428.0,0.3394926272505359,0.20283720457071033,0.2433530459382652,0.8856529340080328
-9158.400528430939,6292.0,-1324.0,15480.0,279.0,10.0,458.0,0.29858687356237457,0.21980232425465437,0.25655445883846034,0.8925876017728473
-9158.416110277176,6284.0,-1292.0,15556.0,296.0,-251.0,486.0,0.2602563555030078,0.25754920027235745,0.26309823086145323,0.8925885725108375
-9158.43173623085,6260.0,-1296.0,15196.0,370.0,-254.0,585.0,0.21172778983434595,0.2985138599677135,0.2721906428195262,0.8899286894917662
-9158.44732618332,6176.0,-1028.0,15284.0,413.0,-47.0,596.0,0.1554447730376985,0.3232388927546829,0.2870675910494482,0.8882261755403585
-9158.462920188904,6232.0,-1244.0,15268.0,404.0,-130.0,543.0,0.10497996884247367,0.3516956145705387,0.30054703571858665,0.8803186242233291
-9158.478512763977,6244.0,-1108.0,15132.0,352.0,-83.0,457.0,0.06111813589699134,0.3727242250513049,0.31220230917323444,0.8717057666846545
-9158.494152545929,6260.0,-1144.0,15320.0,286.0,-72.0,301.0,0.030811041555394485,0.3875828223083079,0.3233821247372636,0.8627017079907814
-9158.509758710861,6128.0,-1100.0,15268.0,354.0,-78.0,188.0,0.006833432116831212,0.3993738362081805,0.3430763902334135,0.8501484773980817
-9158.525360584259,6264.0,-1188.0,15296.0,344.0,-79.0,64.0,-0.007582974672981569,0.4070759566181279,0.36597867243755855,0.8368340787512105
-9158.540948867798,6288.0,-844.0,15320.0,306.0,-48.0,-26.0,-0.015061758977377078,0.4093186555009363,0.3889836738243135,0.8251806366932961
-9158.556517124176,6304.0,-1200.0,15564.0,16.0,6.0,-20.0,-0.01444183074082527,0.4081120151058476,0.3906848691447831,0.8249856663436168
-9158.572109222412,6208.0,-1256.0,15432.0,276.0,42.0,133.0,-0.03531636260317081,0.40905470081251666,0.405465435968842,0.8167158542052805
-9158.58773612976,6312.0,-1412.0,15308.0,301.0,-4.0,243.0,-0.06325900792797373,0.41670887892357117,0.4178673413757218,0.8048222742654523
-9158.603365421295,6268.0,-1312.0,15304.0,346.0,-34.0,281.0,-0.09432458014547943,0.4270458865369567,0.4316651030603567,0.7889232682410471
-9158.6189494133,6176.0,-1384.0,15532.0,317.0,-37.0,201.0,-0.11857782943400962,0.4342569638038671,0.4459258333474934,0.7736344995590032
-9158.634602308273,6256.0,-1260.0,15248.0,289.0,-240.0,166.0,-0.13137269491981388,0.4535810274022626,0.46120374563153693,0.7511967595947511
-9158.650174617767,6364.0,-1108.0,15316.0,276.0,-39.0,188.0,-0.1530480065567275,0.4602811214200504,0.47197706446217524,0.7361760982095114
-9158.665791988373,6316.0,-1112.0,15264.0,276.0,-40.0,109.0,-0.16949382649922579,0.4634353928933108,0.4855821366866146,0.721602014910806
-9158.681365966797,6248.0,-1096.0,15140.0,266.0,-23.0,55.0,-0.1827518918776877,0.46308970825979484,0.5001948432395256,0.7084876759094475
-9158.696956396103,6232.0,-1140.0,15440.0,215.0,-48.0,68.0,-0.19357402632877382,0.46544678339029655,0.511292058782154,0.6960379434979101
-9158.712520837784,6396.0,-1188.0,15348.0,177.0,-50.0,-22.0,-0.1972344154375522,0.46439768413207516,0.5236060170765476,0.6864911617938038
-9158.72808265686,6200.0,-1172.0,15112.0,168.0,-5.0,-79.0,-0.19911907351559596,0.4580826430038664,0.5367834771278157,0.6799819008057896
-9158.74370265007,6280.0,-1200.0,15184.0,179.0,26.0,-40.0,-0.20515771704819064,0.4514469589815523,0.5483768179190789,0.6733415329020098
-9158.759274482727,6288.0,-1028.0,15132.0,206.0,46.0,-13.0,-0.2147411011664006,0.44430999512201474,0.55997155715115,0.6655123912341777
-9158.774839401245,6324.0,-1268.0,15236.0,171.0,-60.0,-8.0,-0.2180151233342744,0.44410164791551476,0.5711635709116851,0.6549926011640725
-9158.790462255478,6476.0,-1296.0,15568.0,149.0,-63.0,239.0,-0.23430787500090475,0.45659903104975263,0.5713319231213456,0.6404662193897913
-9158.806049823761,6404.0,-1220.0,15384.0,144.0,-81.0,238.0,-0.2493021313989775,0.4698595500378297,0.5712710958039127,0.6250838228727186
-9158.821632862091,6200.0,-1132.0,15460.0,93.0,-55.0,-10.0,-0.24988510234718017,0.4702724406604118,0.5778322073246324,0.6184749043886759
-9158.837200641632,6172.0,-1152.0,15196.0,53.0,243.0,245.0,-0.2774834593141246,0.46809277201571586,0.5649774110947863,0.6202359321631911
-9158.852790117264,6160.0,-1104.0,15300.0,93.0,-253.0,-15.0,-0.2679914962434443,0.4786191780162417,0.576498823965183,0.6056016399771535
-9158.86836194992,6208.0,-1132.0,15108.0,55.0,-77.0,-247.0,-0.25336040862781395,0.46880408968955073,0.5912789110983351,0.6053267531843161
-9158.884041070938,6228.0,-1228.0,15356.0,89.0,-108.0,-239.0,-0.23879951636782545,0.46003291259882084,0.6078835648920387,0.6015164850961984
-9158.899621248245,6140.0,-1296.0,15340.0,123.0,-106.0,252.0,-0.25132820229607744,0.4762081620306886,0.6061358304510326,0.5853710585512513
-9158.915300607681,6192.0,-1384.0,15324.0,141.0,-109.0,65.0,-0.2547785908431659,0.48202123979860534,0.6128613748336738,0.5719653217354749
-9158.930968761444,6368.0,-1300.0,15428.0,196.0,-14.0,68.0,-0.26569817457907985,0.4818834631135944,0.6199131311914643,0.5593751136575421
-9158.946633338928,6332.0,-1528.0,15460.0,190.0,-64.0,94.0,-0.2748381566297853,0.48556350486440475,0.6265236220990502,0.5442060467837743
-9158.96223950386,6180.0,-1268.0,15600.0,171.0,-84.0,128.0,-0.2835873962293283,0.492318018120219,0.631033511769199,0.528202484619565
-9158.97783613205,6220.0,-1052.0,15360.0,194.0,-91.0,119.0,-0.2924040892340396,0.49811695914775495,0.636897601357634,0.5106278380518419
-9158.993442296982,6196.0,-980.0,15368.0,183.0,-24.0,153.0,-0.3058522999562373,0.5028761452301765,0.638803546465461,0.4954795477041083
-9159.009028434753,6020.0,-1052.0,15296.0,226.0,-78.0,34.0,-0.312898739294414,0.5019649443976177,0.6489559012807229,0.4785204402497217
-9159.02465224266,5976.0,-1128.0,15404.0,167.0,-98.0,-230.0,-0.3050274647541514,0.4882662590765414,0.6683908850310348,0.4709648933842993
-9159.040252447128,6120.0,-1260.0,15540.0,148.0,89.0,-49.0,-0.31455005735018066,0.4777186515529229,0.6740452407541203,0.46744642986782464
-9159.055903434753,6184.0,-1236.0,15552.0,150.0,182.0,-23.0,-0.3305808349997746,0.46469054365298085,0.6759152067168431,0.46681649874364567
-9159.07147526741,6224.0,-1236.0,15556.0,163.0,191.0,-32.0,-0.3471518599593108,0.450175234991775,0.6781076805417776,0.46583024538681655
-9159.08707857132,6380.0,-1304.0,15532.0,198.0,242.0,37.0,-0.3707032689877927,0.4363295978754292,0.6770417849529267,0.4623959232166577
-9159.102668762207,6372.0,-1264.0,15424.0,179.0,191.0,93.0,-0.39253193288643756,0.42816722120545864,0.6742685588217655,0.4560191036941901
-9159.118263959885,6292.0,-1204.0,15328.0,216.0,213.0,189.0,-0.4205470801876479,0.4231727600979803,0.6680995755609065,0.44464359389519814
-9159.133838415146,6208.0,-1228.0,15136.0,216.0,184.0,329.0,-0.4517912749718995,0.42694698527903774,0.6570208656437431,0.4265260809483439
-9159.14943575859,6180.0,-1312.0,14896.0,196.0,170.0,340.0,-0.48126265048089906,0.43204810116885123,0.6444093453363339,0.40799178321589724
-9159.165024995804,6080.0,-1248.0,15420.0,202.0,81.0,299.0,-0.5039184720417592,0.43722574135313164,0.6365086654107234,0.38698390598365057
-9159.18065738678,6240.0,-1296.0,15432.0,188.0,-34.0,299.0,-0.5191543129686407,0.4464577641425257,0.632556704591564,0.3619755235360209
-9159.19625043869,6312.0,-1224.0,15308.0,503.0,-139.0,327.0,-0.5407341263470911,0.44541950872502206,0.6409997896283485,0.3135718985292229
-9159.21188879013,6208.0,-1032.0,15244.0,293.0,-191.0,406.0,-0.5520511543978264,0.45898377654543193,0.6414719560790797,0.27034634334534513
-9159.227483987808,6232.0,-1372.0,15012.0,334.0,-122.0,430.0,-0.5681802444403429,0.4692390157583384,0.6371762101749997,0.22581504180386786
-9159.243089437485,6348.0,-1316.0,15144.0,342.0,-47.0,441.0,-0.5876712895458969,0.4771077004486954,0.6273652238815384,0.18282115162116233
-9159.258657217026,6384.0,-1224.0,15444.0,354.0,-253.0,476.0,-0.595321360092681,0.48822256351501936,0.6251127185412929,0.12831716880502617
-9159.274245977402,6360.0,-1084.0,15724.0,384.0,10.0,420.0,-0.6162833155506696,0.4904074001662266,0.610178587652227,0.08589265397465437
-9159.289803743362,6336.0,-1072.0,15560.0,410.0,-82.0,418.0,-0.6318695712684522,0.4905104398706024,0.5989102422997682,0.03803780949796192
-9159.305391788483,6160.0,-1440.0,15348.0,490.0,-54.0,486.0,-0.6505651228793438,0.4881098228773609,0.5815812982302885,-0.01664377518436694
-9159.320968866348,6320.0,-1608.0,15164.0,277.0,-70.0,628.0,-0.6568261915707536,0.5031705174226635,0.5573230371498165,-0.06920850182869874
-9159.336583852768,6420.0,-1444.0,15224.0,560.0,63.0,678.0,-0.6784983207404318,0.5028544559350722,0.5189539651255684,-0.13215221140452824
-9159.352170228958,6396.0,-1028.0,15436.0,547.0,131.0,567.0,-0.7003152619347287,0.49634929441651326,0.4787777483149632,-0.18430349848002214
-9159.367839336395,6020.0,-808.0,15424.0,463.0,91.0,266.0,-0.7192086087167656,0.47997793219100676,0.45367766366320983,-0.21572375680585387
-9159.383435964584,5896.0,-832.0,15344.0,434.0,253.0,44.0,-0.7459724928796797,0.4586696423984376,0.42730485360612375,-0.22485053056111415
-9159.39909696579,5856.0,-864.0,15292.0,375.0,-193.0,-112.0,-0.7555523423349292,0.4258405982786423,0.4366176194524963,-0.23909307232440888
-9159.414665699005,5652.0,-1052.0,15576.0,258.0,-306.0,-314.0,-0.7594007272044488,0.389950377618863,0.4625565023475881,-0.23935480077121143
-9159.430261135101,6036.0,-1100.0,15448.0,145.0,-291.0,-548.0,-0.7629741266835434,0.3514548648214227,0.49661840858043194,-0.21844934484653147
-9159.445844173431,6172.0,-1292.0,15724.0,183.0,-65.0,-564.0,-0.7755908033916911,0.3130309854762267,0.5139642828341882,-0.19055504138372234
-9159.461420536041,6368.0,-1508.0,15984.0,336.0,333.0,-494.0,-0.8066041398689129,0.2730572950754006,0.49832475950337934,-0.16279406997288304
-9159.476984262466,5792.0,-1604.0,15904.0,396.0,614.0,-418.0,-0.8465151209027925,0.23497226748047015,0.45805687354226376,-0.1355879205486373
-9159.492562770844,5460.0,-1400.0,16004.0,505.0,840.0,-421.0,-0.8916814025951626,0.18982523398458204,0.396770516300041,-0.10697576456198347
-9159.508135318756,5604.0,-1516.0,15416.0,168.0,784.0,-456.0,-0.9229808192629899,0.167600428947392,0.34045285987418217,-0.0640964405623334
-9159.52374958992,5620.0,-1436.0,15112.0,256.0,1179.0,-293.0,-0.9578670353528432,0.14386400916036884,0.24668633004574136,-0.03065524459572365
-9159.539317131042,5760.0,-1624.0,15348.0,491.0,1132.0,-209.0,-0.9831662947238348,0.10051225315188886,0.15228923572606004,-0.009450532646819556
-9159.554899692535,5972.0,-1880.0,15404.0,644.0,1085.0,-171.0,-0.9972379254677096,0.04335159220246115,0.05998921279367828,0.006201113671379122
-9159.57048201561,6476.0,-1736.0,15676.0,709.0,1187.0,-212.0,-0.998621026714268,-0.01992451200411238,-0.04148820124131042,0.025254464621125097
-9159.586065530777,6776.0,-1352.0,16156.0,738.0,1520.0,-222.0,-0.9806201744308802,-0.08576238455791037,-0.1705289926969539,0.044144643433302294
-9159.601670503616,6676.0,-1268.0,15924.0,795.0,1767.0,-140.0,-0.9345987312282756,-0.15620659070906678,-0.3149809297472521,0.053960416057550656
-9159.617331027985,6472.0,-768.0,15496.0,830.0,1878.0,-254.0,-0.8567262835799112,-0.22211440725711676,-0.46008700139448566,0.07074755303191621
-9159.632905006409,6248.0,-560.0,14872.0,776.0,1841.0,67.0,-0.7568494638773325,-0.28978048042716104,-0.5827267757061989,0.06029649299134471
-9159.648528337479,6228.0,-260.0,14620.0,581.0,1607.0,177.0,-0.6541335428928003,-0.3417774147303565,-0.6737373572488214,0.03708746810070216
-9159.664119005203,6288.0,-452.0,15424.0,395.0,1519.0,288.0,-0.5487341592924244,-0.3824785377636152,-0.7433699743997675,-0.0014393528864822206
-9159.679742336273,6476.0,-196.0,16080.0,235.0,1654.0,424.0,-0.4287454237261118,-0.41634872099046943,-0.7994396442106356,-0.06105210420525587
-9159.695333003998,6364.0,276.0,16068.0,-24.0,1936.0,762.0,-0.2858181033958621,-0.4509321160720428,-0.8304672843543085,-0.15903561891338053
-9159.710928916931,6104.0,384.0,16124.0,-8.0,2224.0,458.0,-0.11630207521959672,-0.44441485030897243,-0.8512392035784604,-0.253694868721418
-9159.72651553154,5408.0,400.0,15508.0,-526.0,2289.0,315.0,0.039529667930937165,-0.4032494025286041,-0.8329512949189221,-0.37685470012524025
-9159.74209022522,5304.0,368.0,14956.0,-737.0,2079.0,97.0,0.1649401118974097,-0.3382187103851366,-0.7836517914315135,-0.4942597831291402
-9159.757662057877,5496.0,468.0,14780.0,-867.0,1673.0,-21.0,0.24957748998276844,-0.2733939263418215,-0.713119751443693,-0.5953377676867051
-9159.77332854271,5772.0,392.0,14656.0,-976.0,1531.0,-698.0,0.2813511539373504,-0.16920714068460915,-0.6364841999755748,-0.6979243045638351
-9159.788919687271,6236.0,264.0,14760.0,-978.0,779.0,-1059.0,0.24326877312979475,-0.08606323993612927,-0.5674937949893111,-0.7818978292592008
-9159.80458021164,6472.0,240.0,14708.0,-849.0,263.0,-1330.0,0.15769262540631018,-0.020108655777473873,-0.5088527420288121,-0.84604820476439
-9159.820165157318,6928.0,308.0,14752.0,-565.0,-249.0,-1391.0,0.04261635512663076,0.015286680694115252,-0.46870527633465364,-0.8821935885082894
-9159.835783720016,7536.0,-360.0,14688.0,-358.0,-419.0,-1252.0,-0.06989733658607754,0.03256520418074837,-0.43774254565069237,-0.8957875493341546
-9159.851370096207,7560.0,-548.0,14484.0,-217.0,-472.0,-270.0,-0.108237087786396,0.007165164533269997,-0.4164027549495377,-0.90268606886069
-9159.866942167282,7024.0,-328.0,14400.0,-206.0,-404.0,457.0,-0.08660469376874659,-0.03938727330772118,-0.39581638760539434,-0.9133880101148802
-9159.882549762726,6536.0,-32.0,14660.0,-210.0,-162.0,1052.0,-0.008967847040451228,-0.08677463139963743,-0.3723462905889263,-0.9239848380517848
-9159.898175239563,5732.0,104.0,15128.0,-546.0,-94.0,1535.0,0.10660845893039773,-0.14244458395454843,-0.31320759241277235,-0.932869326884262
-9159.913906812668,4796.0,8.0,15052.0,-1090.0,63.0,1220.0,0.19220927185263473,-0.1789992296489759,-0.2063393813840744,-0.9425703853235528
-9159.92956328392,3704.0,-272.0,15088.0,-1805.0,-25.0,822.0,0.22783122670356468,-0.22273484994963327,-0.044490499085036765,-0.9468382724878772
-9159.945194005966,3236.0,-1784.0,15124.0,-2113.0,-1174.0,-351.0,0.14986670241731326,-0.3522512298877049,0.09792702038802933,-0.9186236123827224
-9159.960776805878,3384.0,-3252.0,14784.0,-1242.0,-2156.0,-1555.0,0.005293862197522187,-0.5371080908651021,0.11769565503475404,-0.8352452373621887
-9159.978777647018,3944.0,-3168.0,13332.0,976.0,-1925.0,-3121.0,-0.14874870891279715,-0.6729614399757334,-0.09557293645121866,-0.7182357104186999
-9159.995351791382,4536.0,-1364.0,12676.0,2473.0,-749.0,-3769.0,-0.2285196438277094,-0.6692138951866575,-0.4293672140793462,-0.5617609192064706
-9160.011126756668,5412.0,-132.0,13848.0,2688.0,-409.0,-3358.0,-0.2353260115483133,-0.5773014814582328,-0.700949631839448,-0.3464307743533119
-9160.026789665222,7488.0,-428.0,17180.0,2123.0,-1805.0,-2320.0,-0.2945529454192536,-0.5086732876905451,-0.8055822869570898,-0.0743453271962634
-9160.042445898056,8404.0,-2080.0,20168.0,1508.0,-3293.0,-584.0,-0.44091507944317826,-0.5026080723857431,-0.7205710571921043,0.18372906637044853
-9160.058059215546,8684.0,-3960.0,20024.0,226.0,-2964.0,871.0,-0.6095514334637046,-0.5005551013664445,-0.5450481650783429,0.2842782759957276
-9160.073669195175,8776.0,-4372.0,17644.0,-813.0,-2662.0,1301.0,-0.7766177181876674,-0.4376092794630038,-0.3541591496363555,0.2827266083227841
-9160.089358091354,8728.0,-3504.0,15060.0,-1278.0,-2832.0,1777.0,-0.9133514990680144,-0.32061508723455723,-0.12000930338356341,0.22043768300628674
-9160.10500049591,8028.0,-1640.0,14012.0,-1305.0,-3024.0,1862.0,-0.966072474547323,-0.16874325946890414,0.14074838424881056,0.13571874828913996
-9160.120647192001,7052.0,-836.0,13952.0,-1847.0,-3004.0,1877.0,-0.9240123781582115,0.043343639444611344,0.3775847773314554,0.04185916694891925
-9160.136230945587,6432.0,-600.0,14008.0,-2015.0,-2993.0,1980.0,-0.7765487661835305,0.26543582049798503,0.5683560631800023,-0.05905272544029687
-9160.151866912842,6128.0,-1068.0,13924.0,-1970.0,-3029.0,1876.0,-0.5381427163822566,0.4488693660414223,0.6975442489152643,-0.14950160480589336
-9160.16746211052,5952.0,-2380.0,13348.0,-1669.0,-3222.0,1773.0,-0.23911450696423264,0.5594087057548582,0.755606976789544,-0.24278436751959942
-9160.183116197586,6444.0,-3484.0,13256.0,-1532.0,-3576.0,1806.0,0.10280135092320392,0.594411910589627,0.7253550692909114,-0.33161180053117917
-9160.198721170425,6628.0,-3988.0,13644.0,-916.0,-3300.0,1881.0,0.39156153200515914,0.5771030045666302,0.591209795934729,-0.40509587255951734
-9160.21434879303,6992.0,-3856.0,13380.0,-482.0,-3277.0,1891.0,0.6184737544432356,0.514522764370764,0.3804245013157843,-0.45610715715475497
-9160.230007648468,6784.0,-3016.0,12928.0,-182.0,-3138.0,2116.0,0.7739098609320377,0.4271615840724463,0.1169254536723228,-0.45268636662527584
-9160.245621204376,6872.0,-2156.0,12128.0,35.0,-3039.0,2436.0,0.8520304979060562,0.3163322652176963,-0.17105091787022336,-0.3804201783764276
-9160.261222362518,6832.0,-2176.0,12344.0,132.0,-3257.0,2702.0,0.8343805603761586,0.1664031052940164,-0.46174325400507393,-0.25082315362757424
-9160.276864528656,6844.0,-2308.0,12684.0,227.0,-3476.0,3016.0,0.70245526430006,-0.013818035193617597,-0.7084099851121082,-0.06723805882075701
-9160.292508840561,6936.0,-2852.0,12864.0,134.0,-3721.0,2951.0,0.45260159944426037,-0.19394381025774998,-0.8624856614274633,0.11685920791805122
-9160.308129310608,7836.0,-3300.0,13676.0,-60.0,-3862.0,2527.0,0.12536036389426333,-0.32201462440269607,-0.9023823793559274,0.25748281935504697
-9160.323781728745,8100.0,-3716.0,13620.0,-220.0,-4501.0,2766.0,-0.2701039869862184,-0.40052283664343713,-0.7979358958182556,0.36044916383029824
-9160.339373588562,7928.0,-3644.0,13436.0,-192.0,-5109.0,3120.0,-0.6476682858176804,-0.4010301809508614,-0.5090370411408603,0.4007266852345435
-9160.354964733124,7992.0,-4296.0,13472.0,96.0,-4644.0,3353.0,-0.8657631919526841,-0.35141392673705535,-0.11240320607226047,0.3381240405824768
-9160.370616674423,8484.0,-4736.0,13644.0,719.0,-3359.0,4573.0,-0.9051472371167869,-0.3142779057196206,0.27111638333168697,0.09183563472575422
-9160.386205673218,7776.0,-4276.0,13060.0,1275.0,-2406.0,4744.0,-0.7682618376459907,-0.2555763886380506,0.5428555355363109,-0.223074709290683
-9160.401855707169,7372.0,-2640.0,13576.0,653.0,-2261.0,4447.0,-0.5127992262757199,-0.12136839435504947,0.7149517801399702,-0.4595112821872691
-9160.417510509491,7940.0,-1532.0,13808.0,199.0,-3030.0,3685.0,-0.1605119142101209,-0.020160423900633953,0.8137062030273087,-0.5583114702920137
-9160.433195352554,9200.0,-2072.0,13924.0,301.0,-4010.0,3232.0,0.25739657379794845,0.008864982654634904,0.7849367993332456,-0.5635092163683663
-9160.448789358139,10312.0,-4236.0,13900.0,767.0,-4590.0,3386.0,0.6593172278863443,0.028834300559178173,0.5731357209317433,-0.48578268960058707
-9160.46441602707,11080.0,-5460.0,14756.0,1168.0,-3195.0,3622.0,0.8897397678885556,0.12998603815561754,0.30319353936438476,-0.3155003217271304
-9160.480072021484,10248.0,-5784.0,15292.0,1496.0,-1877.0,4047.0,0.956425169475366,0.2788171745870207,0.06486274718878798,-0.05748654082871408
-9160.49566745758,9696.0,-3568.0,14492.0,1880.0,-1309.0,4446.0,0.8619040080248904,0.4162244615229016,-0.14868094580236765,0.24854105281806782
-9160.511330604553,9324.0,-2400.0,14104.0,1958.0,-1140.0,4349.0,0.6266865256060039,0.48870894614444604,-0.3218204784252598,0.5146446776645002
-9160.526941299438,9900.0,-2520.0,13968.0,1746.0,-1067.0,3581.0,0.34005185295599627,0.4999669325233605,-0.42762573703080875,0.6719628209307658
-9160.542577028275,11076.0,-2904.0,13980.0,1996.0,-534.0,2935.0,0.05812741942785389,0.45887039424409715,-0.4336097505678714,0.773331590334569
-9160.558185100555,11588.0,-2452.0,14856.0,2053.0,134.0,2631.0,-0.18871435678877607,0.34618296556044065,-0.3836079501895776,0.8350983094516047
-9160.57381439209,10324.0,-2412.0,15516.0,2341.0,674.0,2299.0,-0.38815557730285494,0.17419917060480733,-0.281539372811109,0.8600729494213918
-9160.589389324188,9640.0,-2996.0,15448.0,2193.0,1126.0,1473.0,-0.48921601917786317,-0.0200769786854029,-0.17188308157858687,0.8548220912995166
-9160.605004310608,9936.0,-4144.0,14732.0,2154.0,1176.0,1217.0,-0.5432811675919359,-0.2117930269379062,-0.0574955561833371,0.8103601345695571
-9160.620590686798,10376.0,-5356.0,14888.0,2303.0,878.0,1471.0,-0.5824037870608624,-0.37850956571724903,0.08827184248386293,0.7139638781494547
-9160.636159658432,10800.0,-5208.0,15384.0,2070.0,1357.0,1834.0,-0.6169496653175409,-0.5349742541492736,0.20173539601334353,0.5408128029709931
-9160.651784181595,10572.0,-4132.0,18020.0,2407.0,2606.0,2146.0,-0.6129559177935217,-0.7049623113868275,0.2588224810890653,0.2456096611474054
-9160.66737318039,8812.0,-2124.0,21840.0,2214.0,4412.0,1639.0,-0.5569208645482091,-0.8021073266972528,0.15578014544380994,-0.14898165449130757
-9160.68298125267,7256.0,-340.0,21812.0,1618.0,5984.0,792.0,-0.45191084127539705,-0.6953556037825389,-0.08841307508948315,-0.5517610932090128
-9160.698637723923,7784.0,-872.0,18252.0,1252.0,6444.0,5.0,-0.28282801616145725,-0.3768117073429563,-0.3492673342775001,-0.8099589987710177
-9160.714280366898,9988.0,-2884.0,13376.0,1266.0,6150.0,-770.0,-0.0946212223980619,0.04396181688210384,-0.5390162555764494,-0.8358083866249877
-9160.729892730713,11268.0,-5912.0,11820.0,1287.0,6247.0,-352.0,0.1473789778736624,0.4415734362474681,-0.5965897139208395,-0.6537377536331895
-9160.745525836945,12156.0,-8052.0,13304.0,2091.0,6515.0,1933.0,0.43879110539873295,0.6283586539000481,-0.6003600596395272,-0.22846349091594684
-9160.76114487648,10860.0,-8236.0,15376.0,2017.0,7025.0,3683.0,0.6263840660635646,0.5310350087968178,-0.4666493377519121,0.3284558064482061
-9160.776740074158,8856.0,-6420.0,17836.0,1680.0,8064.0,4295.0,0.5855397246880069,0.16823823992448786,-0.13717732922163187,0.7810387351386765
-9160.792318820953,6368.0,-2572.0,18036.0,1768.0,8528.0,4346.0,0.27847203889092415,-0.28581375200792736,0.27072815288617724,0.8760537026654936
-9160.807961940765,5140.0,-132.0,15968.0,1169.0,7904.0,2886.0,-0.08018144301717212,-0.6373832562536176,0.5013719067412603,0.579603081404725
-9160.823542356491,4920.0,624.0,13976.0,500.0,7491.0,1298.0,-0.37131227211358697,-0.8018932714107675,0.4550052565880635,0.10983894719639745
-9160.839114189148,5048.0,-168.0,13196.0,-350.0,6746.0,130.0,-0.5728531031376394,-0.7321646195913595,0.20851661926133983,-0.30380110522517584
-9160.854693889618,5380.0,-960.0,13872.0,-44.0,5490.0,-254.0,-0.6152385486100217,-0.5309366631259245,-0.07309792835211687,-0.5781388076609035
-9160.870252847672,5948.0,-1756.0,14828.0,652.0,4973.0,115.0,-0.5015371799058288,-0.2890617244502866,-0.33675503982662697,-0.7426303385812496
-9160.885809898376,4872.0,-1944.0,15604.0,1036.0,5333.0,571.0,-0.2542345708023912,-0.0049049915582813925,-0.5621500828017861,-0.7869739566673616
-9160.901421070099,3480.0,-552.0,15628.0,1248.0,5806.0,363.0,0.04981030469177235,0.3091999255855807,-0.6890628561077299,-0.6535340235190837
-9160.917040348053,2244.0,380.0,16036.0,849.0,5298.0,-240.0,0.3005183769124178,0.5700030119669962,-0.6409755856229944,-0.4170558357363408
-9160.932740211487,1936.0,800.0,16120.0,176.0,4659.0,-1072.0,0.47382182478839874,0.7420745024472023,-0.43535221969801624,-0.18784769356033956
-9160.9483294487,1308.0,716.0,15452.0,-113.0,3788.0,-1580.0,0.5641280520962947,0.8091113968653082,-0.1642186313181618,-0.011424947645374661
-9160.963962554932,1744.0,160.0,14992.0,-355.0,3024.0,-1594.0,0.6044319717573309,0.7829524600715287,0.09352255611877525,0.113582429462029
-9160.979564905167,1764.0,-376.0,14828.0,-300.0,2565.0,-1356.0,0.5984333622115635,0.7079588013573432,0.3086944402394164,0.21302485568146895
-9160.995197534561,1460.0,-728.0,15332.0,-147.0,2438.0,-1045.0,0.546828444001109,0.6105150831483477,0.48499337728243863,0.3050105081335172
-9161.010834932327,1036.0,-664.0,16140.0,100.0,2706.0,-674.0,0.43232136881009103,0.500031140047474,0.634155999958805,0.40113995159948934
-9161.026446580887,1040.0,-388.0,16640.0,535.0,2568.0,-86.0,0.2630697802752771,0.41475728444329274,0.7344799012216917,0.4683054136015483
-9161.042024374008,876.0,-264.0,17192.0,861.0,1740.0,263.0,0.10805264659608037,0.37479810578195843,0.788621948853414,0.4753171859426941
-9161.057594776154,908.0,-492.0,17048.0,853.0,1392.0,73.0,-0.01851364107749138,0.3267889754090926,0.826353530921067,0.458264173353552
-9161.073170423508,1144.0,-228.0,16512.0,666.0,1220.0,-351.0,-0.1106234292681582,0.24963008771205955,0.8543371093917043,0.44221643990477055
-9161.088736534119,1812.0,164.0,16236.0,717.0,971.0,-837.0,-0.16502883537998853,0.14163391409017295,0.8836057953384928,0.4146638594293596
-9161.104334831238,2284.0,560.0,16420.0,1099.0,1074.0,-889.0,-0.22661148927137356,0.018135374256071906,0.9080309079805708,0.35184969984750936
-9161.11995959282,2056.0,504.0,16680.0,1652.0,1393.0,-651.0,-0.31366734696265686,-0.10687500292089001,0.9146340436157269,0.23159252030066244
-9161.13555932045,2004.0,52.0,16572.0,1943.0,1726.0,-410.0,-0.4143311487794356,-0.22192206303293593,0.8798910503310572,0.0697999759142337
-9161.15115070343,1404.0,-312.0,15888.0,2038.0,1699.0,-327.0,-0.49025327984068634,-0.3224272211690458,0.8029124130654071,-0.10499555038258637
-9161.166770458221,1040.0,-392.0,15204.0,1973.0,1725.0,-408.0,-0.5450218996665062,-0.4088110414118194,0.6814434050913378,-0.2673191855464543
-9161.182366371155,1320.0,-184.0,14940.0,2045.0,1713.0,-436.0,-0.5685800324180859,-0.47887003211027734,0.5222513552413289,-0.4179159736487057
-9161.197990655899,1588.0,-8.0,15312.0,2019.0,1666.0,-485.0,-0.5629028382727831,-0.526303511096051,0.33658153468901786,-0.5411634497809321
-9161.213599205017,1980.0,196.0,16016.0,1986.0,1523.0,-566.0,-0.5300845839458562,-0.5547000718995678,0.13842303090677596,-0.626224583206492
-9161.229171991348,1988.0,396.0,16216.0,1855.0,1223.0,-552.0,-0.4758761298400231,-0.5689389724562105,-0.04542849704757343,-0.6691685933492031
-9161.244744062424,1868.0,368.0,16240.0,1645.0,973.0,-598.0,-0.4189623389529979,-0.569276155011562,-0.20844847813598966,-0.6759766636778781
-9161.260339021683,1924.0,308.0,16132.0,1521.0,844.0,-691.0,-0.3640252738739715,-0.5550408581823175,-0.35858786458191405,-0.6563764080950805
-9161.275921106339,1744.0,644.0,15676.0,861.0,281.0,-815.0,-0.3582391538533156,-0.5376622683959932,-0.45370479484087045,-0.6137881987527448
-9161.291491985321,1320.0,860.0,15348.0,386.0,-266.0,-1459.0,-0.4250941090024713,-0.5016576769988872,-0.5297535570484017,-0.5357198357294988
-9161.30711197853,1428.0,1268.0,15484.0,239.0,-1258.0,-2472.0,-0.5718230516673914,-0.4421149265070828,-0.5853882088676228,-0.36725118687375957
-9161.322684049606,2008.0,1348.0,15992.0,-466.0,-1720.0,-3538.0,-0.7477497282422405,-0.27705716469893005,-0.5869462864895816,-0.14001331429094602
-9161.338274478912,2692.0,1316.0,16200.0,-797.0,-1685.0,-4487.0,-0.8361838875156019,-0.014455066897738079,-0.529919265000343,0.1406169615721143
-9161.353871822357,3208.0,852.0,16336.0,-1022.0,-1540.0,-4938.0,-0.770498832513901,0.2792920913993336,-0.39616923001332,0.4139775573230449
-9161.369440555573,3128.0,176.0,16820.0,-958.0,-1302.0,-4886.0,-0.5616225132666531,0.5105017198808732,-0.20426533166241187,0.6182587006032049
-9161.385041952133,2780.0,-708.0,17044.0,-835.0,-1265.0,-4726.0,-0.2679234497132783,0.6458272412176777,0.021443403145167246,0.7146078505421374
-9161.400705814362,2744.0,-1200.0,17360.0,-766.0,-571.0,-4599.0,0.05844496585694726,0.6389971043830128,0.22786862155332005,0.7323542707375271
-9161.41629934311,2724.0,-1332.0,17104.0,-861.0,-395.0,-3804.0,0.3382504314095346,0.5526272323240996,0.36231510879047774,0.6700130966535012
-9161.431898593903,2712.0,-1360.0,15936.0,-1071.0,-421.0,-3688.0,0.5865037444256391,0.40640957428469643,0.4406822245934704,0.5446501561844876
-9161.447523593903,2648.0,-1472.0,15460.0,-998.0,-584.0,-3629.0,0.7752433372594737,0.23097119550698822,0.4668296035191928,0.35737962471156576
-9161.463087558746,2716.0,-1772.0,15852.0,-356.0,-745.0,-3399.0,0.878844473371458,0.08755716166511819,0.4530286649241282,0.1213720059266354
-9161.478674650192,2668.0,-1888.0,16488.0,647.0,-462.0,-2832.0,0.893294288493129,0.02910309445966056,0.43188346225198804,-0.12105783358239157
