programtime,ax,ay,az,gx,gy,gz,q0,q1,q2,q3
-9527.183559894562,-1192.0,-5972.0,-15176.0,29.0,1506.0,2419.0,0.9704365888991481,0.002141861082165617,0.12760065551650804,0.20485680869487416
-9527.19914984703,-2000.0,-5980.0,-15096.0,80.0,796.0,2001.0,0.9098178110231285,0.016415953093950466,0.19287815159240493,0.36709683445570235
-9527.214780807495,-2292.0,-5864.0,-15100.0,9.0,-323.0,310.0,0.9046107730878155,0.03244055218100998,0.16717763989531118,0.39074108627925186
-9527.23037981987,-2080.0,-5384.0,-15160.0,-205.0,-1159.0,-1706.0,0.9646248305836062,0.030171802575970845,0.07257498378099658,0.25163757724166325
-9527.24600481987,-1764.0,-5488.0,-15232.0,-495.0,-1560.0,-1955.0,0.9944362314101742,0.009846550913081122,-0.06278206202730377,0.08401214067886938
-9527.261595010757,-952.0,-5860.0,-15296.0,-512.0,-1224.0,-1042.0,0.9851700678845403,-0.02000547580450167,-0.17010840977209443,-0.0101413612012937
-9527.277209043503,-596.0,-5852.0,-15304.0,83.0,-546.0,739.0,0.974660721648381,-0.02451081870503577,-0.21531853075190205,0.055440308053870895
-9527.292845249176,-720.0,-5696.0,-15044.0,22.0,358.0,1782.0,0.960737502384536,-0.057375302757956,-0.17892986764772317,0.20414609623728996
-9527.308435678482,-1176.0,-5776.0,-15152.0,92.0,633.0,2432.0,0.9061339145872701,-0.09687271632043541,-0.10962005310884629,0.39688845992780425
-9527.324072360992,-1964.0,-5988.0,-14984.0,161.0,1237.0,2326.0,0.8173206790717727,-0.14571754966739783,0.012967593529285268,0.5573016640910425
-9527.339646100998,-2972.0,-6192.0,-15208.0,445.0,-190.0,668.0,0.7886448106849725,-0.10403754209984847,0.029455977181083556,0.6052667988761598
-9527.355277776718,-3192.0,-5828.0,-15136.0,-96.0,-1323.0,-1848.0,0.871764619878075,-0.044965708575945784,-0.08184967727267839,0.48094195378596044
-9527.370869159698,-2732.0,-5236.0,-15040.0,-413.0,-1840.0,-3788.0,0.953060934826193,0.025878168369644853,-0.23840040680921232,0.18485243017947464
-9527.386454343796,-2144.0,-5364.0,-15268.0,-479.0,-1983.0,-4098.0,0.9090650398796067,0.09573260176422453,-0.37336125683760546,-0.15823208941547048
-9527.402030944824,-1480.0,-6036.0,-15280.0,-376.0,-2450.0,-5781.0,0.6595931539371634,0.19316708960396656,-0.4510324328726477,-0.5693795669587549
-9527.417590618134,-516.0,-6324.0,-15876.0,59.0,-3118.0,-8156.0,0.10375621266469542,0.28849697939271995,-0.39465833864189676,-0.8661691156784413
-9527.433191776276,1080.0,-5816.0,-16004.0,246.0,-1433.0,-7672.0,-0.43946971496107257,0.3692421916137963,-0.19272777899588076,-0.7958533638601958
-9527.448769807816,2188.0,-6172.0,-16680.0,294.0,1270.0,-4749.0,-0.6958313389615656,0.48354499997197004,-0.09996816200480652,-0.5215451536602016
-9527.464342355728,2716.0,-6028.0,-15648.0,-254.0,6411.0,2938.0,-0.4218008891769962,0.6516996890536656,-0.5122390689081785,-0.36739986589672735
-9527.479948759079,-104.0,-6548.0,-15428.0,1594.0,9853.0,14239.0,0.21164046294577923,0.14999579962104512,-0.9551418042720182,-0.1428765490629347
-9527.49552154541,-3776.0,-5448.0,-15180.0,3337.0,7073.0,5976.0,0.6310358129766984,-0.1504523337392995,-0.716403572437807,0.2567563424953386
-9527.51115489006,-5180.0,-3560.0,-14660.0,1690.0,1267.0,201.0,0.7155734119469114,-0.09681743615140247,-0.5961950406843702,0.3509024788101202
-9527.526817560196,-4180.0,-2480.0,-15664.0,-787.0,-3639.0,-9108.0,0.6056470096417191,0.33324520070957825,-0.7015620179727937,-0.17306088770723912
-9527.542408943176,-1780.0,-2876.0,-15560.0,-3776.0,-6604.0,-12967.0,0.06973196919022671,0.501861783783186,-0.3738003391883615,-0.7768819143688942
-9527.55803990364,1076.0,-7952.0,-16220.0,-2588.0,-5537.0,-12935.0,-0.5467876570923088,0.33312387557558987,0.20909730912196958,-0.7391414322651343
-9527.573623418808,3392.0,-9008.0,-15196.0,-165.0,-4107.0,-133.0,-0.44765465458680587,0.0695127389413497,0.3951297318358432,-0.7991531670280572
-9527.589240550995,3664.0,-6464.0,-14972.0,1464.0,282.0,6686.0,2.367165348820157e-05,0.22535903138517419,0.20752200275840796,-0.9519180241932222
-9527.604852199554,1920.0,-5524.0,-15108.0,833.0,4362.0,9495.0,0.5116032897743092,0.5606176812933874,-0.03549064095522594,-0.650161751964784
-9527.620441675186,-1488.0,-6064.0,-14716.0,807.0,5352.0,11018.0,0.7599410183043196,0.5912199194938799,-0.26018198402634907,0.07248441681048723
-9527.63606595993,-3948.0,-6304.0,-14576.0,1074.0,2994.0,8244.0,0.5702777966482623,0.3614775814180492,-0.38032196731665685,0.6320382851999937
-9527.65166592598,-4908.0,-5540.0,-14696.0,720.0,-309.0,2393.0,0.39569718438959,0.3271804862407054,-0.42165841631254586,0.7473826647991256
-9527.667263507843,-4808.0,-5084.0,-14612.0,-265.0,-2993.0,-2733.0,0.4441509026817909,0.5785750888621393,-0.43782705461934607,0.5256313465143286
-9527.682896137238,-3076.0,-5732.0,-14804.0,-965.0,-4104.0,-4666.0,0.48205559944992704,0.7958271073447607,-0.35568707428561347,0.08813807032368409
-9527.698489427567,-1480.0,-6280.0,-14916.0,-441.0,-3806.0,-2856.0,0.38415608693054765,0.8263201106615098,-0.29617779811453865,-0.28617806955562375
-9527.714077472687,-468.0,-5924.0,-14988.0,127.0,-1606.0,131.0,0.3332219640850295,0.7795092920407811,-0.35912002921629366,-0.3903347164794386
-9527.729662179947,-244.0,-5776.0,-14980.0,89.0,799.0,3036.0,0.4392344169110594,0.6889032946973922,-0.5261000341029237,-0.2360172274915167
-9527.745301961899,-1468.0,-5972.0,-15036.0,331.0,2627.0,6021.0,0.5756436190742799,0.4157317417096669,-0.688880277775381,0.14575838104968838
-9527.76088142395,-3028.0,-6168.0,-14904.0,554.0,2174.0,4803.0,0.5671470022253886,0.11542371426906164,-0.678012281293065,0.45312359292676724
-9527.77647447586,-3884.0,-5440.0,-14836.0,256.0,618.0,1504.0,0.5359414096206838,0.014456007127201503,-0.646048830126611,0.5433035416815999
-9527.79209113121,-4252.0,-5668.0,-14628.0,-510.0,-1535.0,-3400.0,0.5805149013434547,0.24222660542039096,-0.7010896870591494,0.33586004770442246
-9527.807725906372,-3508.0,-5984.0,-15192.0,-710.0,-3128.0,-5801.0,0.49678410574055504,0.5651086623325091,-0.6560719996644704,-0.058543003822682224
-9527.823308706284,-1668.0,-6132.0,-15152.0,-405.0,-2820.0,-5305.0,0.29027710534799234,0.7408872206272538,-0.4556540770165412,-0.39900462468525044
-9527.838900566101,-556.0,-5816.0,-15192.0,-244.0,-2528.0,-2666.0,0.10709565707753264,0.7167433675617954,-0.322624170396101,-0.6088703556320808
-9527.854500293732,72.0,-5680.0,-15020.0,-284.0,-421.0,-1041.0,0.05728493282585407,0.7175705747183265,-0.24512718932083868,-0.6494024698330103
-9527.870094537735,-184.0,-6244.0,-14996.0,-87.0,633.0,1771.0,0.17420515236828674,0.7058708854341219,-0.343329962182159,-0.5945783338238856
-9527.885704040527,-740.0,-6456.0,-14924.0,141.0,1335.0,2857.0,0.3409325036310448,0.6670235793145339,-0.48819058452901276,-0.4477884833082649
-9527.901368618011,-1576.0,-6256.0,-15096.0,418.0,1306.0,3379.0,0.4803696275488295,0.5590522921091694,-0.631248705207614,-0.2413102314237698
-9527.91751241684,-2328.0,-5796.0,-14744.0,296.0,1725.0,3437.0,0.6000457877631646,0.3966709396133072,-0.6946847936862137,0.0032024483012417595
-9527.933183431625,-3096.0,-5728.0,-14936.0,503.0,767.0,1597.0,0.6204880793453458,0.32189486106065984,-0.7008432408251333,0.14211612717347272
-9527.948773622513,-3200.0,-5492.0,-15064.0,-161.0,-893.0,-610.0,0.5750935527191008,0.3599498670814392,-0.7309261952113083,0.07382679705159632
-9527.964351177216,-2740.0,-5788.0,-14856.0,-544.0,-1758.0,-3102.0,0.47670716130164187,0.516877084526441,-0.691915674663633,-0.16383241745743274
-9527.9799990654,-1912.0,-6252.0,-15220.0,-330.0,-2050.0,-4008.0,0.2886558275521581,0.6661140537906234,-0.550616598968265,-0.41205732793316774
-9527.995592355728,-916.0,-5844.0,-15000.0,-224.0,-837.0,-830.0,0.23016554906517112,0.6667475618532287,-0.5126731592040153,-0.4895280794991003
-9528.01122713089,-528.0,-5976.0,-15000.0,91.0,358.0,1457.0,0.30041007155067145,0.6135712806345914,-0.5891804165493744,-0.43145163025077743
-9528.026813983917,-1152.0,-5852.0,-15152.0,148.0,1354.0,1980.0,0.4271946781700269,0.5546812661001134,-0.6512056254406923,-0.292855994261991
-9528.042418956757,-1804.0,-5740.0,-15336.0,52.0,892.0,1939.0,0.5158430065374607,0.4613797037336491,-0.7011992723524675,-0.1713310889518117
-9528.058015584946,-2472.0,-5780.0,-14992.0,-6.0,392.0,177.0,0.5421123015168618,0.45589608988053093,-0.6902511355552509,-0.14773752955975947
-9528.073614120483,-2532.0,-6280.0,-15000.0,-281.0,-241.0,-1138.0,0.5210429072791015,0.5053770037255195,-0.6493713308009834,-0.22677135536332083
-9528.089250087738,-2380.0,-5960.0,-14652.0,-209.0,-720.0,-732.0,0.4727732121077913,0.5210304393003113,-0.643141948368287,-0.3022932441931997
-9528.104875802994,-2092.0,-5760.0,-14928.0,-255.0,-945.0,-1655.0,0.38210440128550505,0.5706022514755167,-0.5919973878965288,-0.4218392938703127
-9528.120508670807,-1608.0,-5728.0,-14964.0,-471.0,-811.0,-2070.0,0.2817718702334067,0.6200475414155658,-0.48919873558285626,-0.5448213070666519
-9528.13609457016,-1180.0,-5924.0,-15088.0,-410.0,-682.0,-1140.0,0.21887435730512592,0.6218243246085864,-0.42177583175600675,-0.6225220259443613
-9528.151717662811,-856.0,-6292.0,-15060.0,-129.0,198.0,968.0,0.28455033293473153,0.592446656855548,-0.4618426487128663,-0.5956000626572349
-9528.167316436768,-1104.0,-5928.0,-15092.0,164.0,1125.0,3068.0,0.4622755734892968,0.5110902956701046,-0.5780457705999881,-0.436979508579582
-9528.182942152023,-1832.0,-5548.0,-15036.0,104.0,1429.0,2813.0,0.6139583624930596,0.4126350524109076,-0.6266241296971837,-0.24521346359434604
-9528.198535203934,-2512.0,-5680.0,-15192.0,-178.0,1136.0,1264.0,0.7016010125602012,0.35446213748217836,-0.6009998929816649,-0.14460892400572273
-9528.21408867836,-3024.0,-6004.0,-15088.0,-126.0,4.0,-33.0,0.7050565082234097,0.3485829101577603,-0.5983028497085907,-0.1530325945292035
-9528.229678153992,-2760.0,-5708.0,-14920.0,-324.0,-548.0,-1332.0,0.6628355239504149,0.3877537163575378,-0.5825571963531445,-0.26631416901370664
-9528.245304822922,-2356.0,-5780.0,-14960.0,-382.0,-874.0,-2428.0,0.5603644278466375,0.4571924890183993,-0.5287255857796351,-0.44431519322576996
-9528.260887622833,-1708.0,-5812.0,-15036.0,-438.0,-841.0,-2086.0,0.44908049396216837,0.48986653432904087,-0.46066879558373186,-0.5883381249439675
-9528.27650308609,-1432.0,-5940.0,-15224.0,-432.0,-763.0,-1398.0,0.36121567461210397,0.4851461875983804,-0.4045738978366667,-0.6859128036875577
-9528.292112350464,-1212.0,-5908.0,-15072.0,-237.0,-110.0,-269.0,0.3509490411505378,0.4805455389501579,-0.3823648280477497,-0.7069002007232953
-9528.307723999023,-1204.0,-5708.0,-15248.0,-178.0,470.0,101.0,0.37982595603623853,0.5004412097274951,-0.36096083917964195,-0.6892010674007747
-9528.32331442833,-1332.0,-5720.0,-15156.0,-302.0,798.0,542.0,0.44888264813855894,0.5195651729693423,-0.33878500812840573,-0.6432582043821036
-9528.338901281357,-1828.0,-6168.0,-15096.0,-107.0,259.0,918.0,0.5109970893794712,0.5012464884598078,-0.36305775495842296,-0.5965090100048533
-9528.354484319687,-2180.0,-5896.0,-15084.0,249.0,185.0,270.0,0.519531447007624,0.5133155017705261,-0.3794223188303907,-0.5680079006366079
-9528.370069026947,-2176.0,-5604.0,-14868.0,-314.0,86.0,-189.0,0.5266361736151107,0.509542958228178,-0.3513939202070215,-0.5827028635605404
-9528.385695934296,-2236.0,-5912.0,-15264.0,-292.0,-17.0,-831.0,0.49522081294134324,0.519434336270309,-0.2995668725865453,-0.6286525316753725
-9528.401342391968,-2008.0,-5780.0,-15104.0,-233.0,-616.0,-1269.0,0.4166706507859858,0.5050689494618368,-0.2539646420194824,-0.7118938724746939
-9528.416908740997,-1640.0,-5720.0,-15184.0,-215.0,-405.0,-1181.0,0.34157792992711183,0.49550202562212503,-0.20207750154109522,-0.7726363593321173
-9528.432523727417,-1440.0,-5788.0,-15320.0,-256.0,-254.0,-523.0,0.31230162482037427,0.4795021836328427,-0.1695115625719761,-0.8023784525897344
-9528.448104143143,-1376.0,-5920.0,-15068.0,-137.0,561.0,821.0,0.3822435597246482,0.5012614339715828,-0.17827724407190712,-0.7555422292022514
-9528.463729143143,-1688.0,-5944.0,-15124.0,32.0,720.0,1372.0,0.47803015689172046,0.5239559014517556,-0.2144179851889471,-0.6715521648118392
-9528.479314088821,-2124.0,-5644.0,-15152.0,16.0,363.0,632.0,0.5199327309126818,0.5332536429946844,-0.2286568399842517,-0.6269183017642688
-9528.494932413101,-2316.0,-5472.0,-14916.0,-503.0,254.0,-282.0,0.5320236513905889,0.529411945948638,-0.17623641386428668,-0.6368787579093506
-9528.510512828827,-2272.0,-6052.0,-14860.0,-362.0,-484.0,-1714.0,0.44037337132421706,0.5059959640363519,-0.09814717219214925,-0.7351234663634065
-9528.526159763336,-1900.0,-6096.0,-15172.0,-201.0,-937.0,-1506.0,0.3403629894627954,0.4459477610457805,-0.05403792718555161,-0.8260529839227588
-9528.541787147522,-1408.0,-5608.0,-15052.0,-168.0,-427.0,-628.0,0.29881840886456873,0.4124653563920666,-0.03000275885412308,-0.8600463491935504
-9528.55738401413,-1304.0,-5796.0,-15152.0,-228.0,222.0,-25.0,0.3055093531583415,0.42335285528664446,-0.006074623583676573,-0.8528771857669392
-9528.572960615158,-1428.0,-5824.0,-15104.0,-112.0,400.0,869.0,0.37311878971131385,0.4483609157265456,-0.018975791955180375,-0.812031266228642
-9528.588571071625,-1696.0,-5816.0,-15048.0,-122.0,543.0,557.0,0.41716039379158215,0.4810732138829747,-0.014285049620761039,-0.7709356043751581
-9528.604151964188,-2044.0,-5916.0,-15104.0,251.0,386.0,455.0,0.4368867494481923,0.5150489574100756,-0.03604189009550305,-0.7365836828125711
-9528.619762659073,-2252.0,-5660.0,-15112.0,-21.0,152.0,129.0,0.4463923026639727,0.5237936804743296,-0.0345891713070393,-0.7246914389212864
-9528.635341405869,-2220.0,-5436.0,-15004.0,-88.0,69.0,-384.0,0.42593421413288945,0.5258270673144083,-0.00868057398476857,-0.736213683753448
-9528.650918722153,-2100.0,-5940.0,-15132.0,-139.0,-217.0,-971.0,0.3682063940679757,0.50576496521281,0.03671659494955436,-0.7792802724219664
-9528.666484832764,-1904.0,-5800.0,-15256.0,-229.0,-157.0,-911.0,0.3156451430711439,0.48339006374208787,0.08729036548918861,-0.8118390123810145
-9528.682100057602,-1700.0,-6144.0,-15072.0,-155.0,-195.0,-515.0,0.28670721273105737,0.46104039605092617,0.11465116005642195,-0.8319229765278213
-9528.69768834114,-1532.0,-5772.0,-14988.0,-104.0,300.0,231.0,0.30437228949753653,0.48247112359720723,0.12052140727324222,-0.8124368988849249
-9528.713349103928,-1744.0,-5692.0,-15212.0,252.0,393.0,-251.0,0.2714266446000948,0.5140595413476589,0.12370084420311854,-0.8042191652118249
-9528.72895693779,-1572.0,-5756.0,-14912.0,-173.0,470.0,292.0,0.2941116138782911,0.5456206697746645,0.13386967288165416,-0.7732239998726842
-9528.74454498291,-2004.0,-6052.0,-15056.0,-30.0,323.0,-411.0,0.26362626825332014,0.5614683861497924,0.16374534930887674,-0.7670996692874338
-9528.760127067566,-2028.0,-5908.0,-15024.0,-104.0,35.0,4.0,0.2683504155117238,0.5616592476938431,0.17147405514445896,-0.7636252958008831
-9528.77575135231,-1900.0,-5696.0,-14988.0,-187.0,-57.0,-380.0,0.25274385122519477,0.5476227584926461,0.20125054301833717,-0.771834230248689
-9528.791363954544,-1564.0,-5796.0,-15164.0,-174.0,-174.0,-943.0,0.1997564717798661,0.5138480947068772,0.25345664920141064,-0.7948693065679193
-9528.806957006454,-1596.0,-5832.0,-15224.0,-287.0,-260.0,-874.0,0.1571030983768117,0.47003386062766694,0.30714590040910394,-0.8124334940201182
-9528.822680711746,-1772.0,-5940.0,-15140.0,-6.0,-225.0,-264.0,0.1445114753606381,0.44689259368226264,0.3153788582494313,-0.8245845129338272
-9528.838274002075,-1340.0,-5760.0,-15028.0,15.0,137.0,739.0,0.19283630278572583,0.4764216348842239,0.2868080307110997,-0.8084415499353036
-9528.853862524033,-1420.0,-5600.0,-14884.0,-14.0,577.0,1172.0,0.2598782834994681,0.5428822693852878,0.24738295829393717,-0.7593048078987711
-9528.869448423386,-1728.0,-5804.0,-15028.0,94.0,893.0,1170.0,0.3109785915170855,0.6244704975227369,0.20447574194384602,-0.6866721082862395
-9528.885066270828,-2060.0,-5888.0,-15068.0,107.0,419.0,1262.0,0.3706350017794965,0.6706632738797699,0.1398776355007688,-0.6271161898815045
-9528.90072107315,-2228.0,-5524.0,-14956.0,-123.0,197.0,124.0,0.3819347737212826,0.6789989967974821,0.14581711592269683,-0.6097733674689904
-9528.916731595993,-2076.0,-6052.0,-15076.0,-147.0,-84.0,-602.0,0.35895665813396327,0.6611760963541332,0.18636979146791935,-0.6318722877444549
-9528.93238568306,-2056.0,-5992.0,-15036.0,9.0,-259.0,-481.0,0.3355662949372241,0.6388158489620672,0.2054296445770676,-0.6611416141386934
-9528.948018074036,-1696.0,-5644.0,-14940.0,-160.0,-137.0,-88.0,0.34163277920481844,0.6247162196828026,0.21566729843129037,-0.6682097765113655
-9528.963611364365,-1636.0,-5884.0,-15268.0,-37.0,160.0,-146.0,0.331898113319599,0.6302635500752711,0.23067222854041466,-0.662873911691813
-9528.979238986969,-1668.0,-5860.0,-15156.0,-96.0,89.0,477.0,0.36247790387241763,0.6418201753976489,0.2125332631422539,-0.6414875242083005
-9528.994849681854,-1744.0,-5704.0,-15312.0,-25.0,155.0,400.0,0.38295404603299477,0.6568511855299674,0.19644845607910755,-0.619112851424496
-9529.010429859161,-1900.0,-5920.0,-15048.0,-250.0,-46.0,-131.0,0.39069107298217004,0.6437517213719468,0.21601181487644283,-0.6215167757643245
-9529.026027441025,-1796.0,-5708.0,-14988.0,-17.0,114.0,75.0,0.3933549340773545,0.6509054712209785,0.21674770576243857,-0.6120575098945488
-9529.041604042053,-1868.0,-5920.0,-14864.0,36.0,338.0,735.0,0.42293406369054193,0.6825753544013501,0.1843746390399769,-0.566765962115717
-9529.057206869125,-1960.0,-5840.0,-15000.0,66.0,122.0,392.0,0.4359425204641209,0.6970790933236977,0.1622969527680566,-0.5456139254313478
-9529.072789430618,-1956.0,-5640.0,-15028.0,-75.0,214.0,-171.0,0.4289938686465012,0.7019620776432379,0.18448462298230908,-0.5377535923613831
-9529.088396072388,-1932.0,-5976.0,-15020.0,-114.0,203.0,-245.0,0.42081753235179736,0.7031454214225874,0.21248610890935854,-0.5323051515046199
-9529.10402059555,-1940.0,-6052.0,-14684.0,102.0,-82.0,302.0,0.4297207401598172,0.7085629924378146,0.18627218513123545,-0.5278079615452037
-9529.119597434998,-1880.0,-5620.0,-15084.0,253.0,251.0,-22.0,0.4085714290362249,0.7290745355299877,0.185431581260851,-0.5168508853510169
-9529.135203838348,-1968.0,-5832.0,-15120.0,-185.0,213.0,235.0,0.42706137372293496,0.7356844805675249,0.1864510271648861,-0.49155156656766924
-9529.15080165863,-1952.0,-6044.0,-15188.0,93.0,13.0,-140.0,0.4146053592887014,0.7375185370500765,0.19204021750796157,-0.4972819707330002
-9529.166428565979,-1796.0,-5868.0,-15080.0,84.0,123.0,49.0,0.40900460472840905,0.746814428156759,0.189799223280867,-0.48883504175726855
-9529.18202328682,-2040.0,-5748.0,-15236.0,21.0,107.0,-10.0,0.4051949214187848,0.7520950458841648,0.1934880832408839,-0.4824235475769084
-9529.19762635231,-1656.0,-5684.0,-15188.0,-13.0,651.0,-27.0,0.39305524380249457,0.7774865632953324,0.2185913133510276,-0.4395907835044402
-9529.21321439743,-1672.0,-6120.0,-15204.0,36.0,1098.0,630.0,0.39120909778260365,0.8279569106184353,0.2109583439969747,-0.34196399382003906
-9529.228794336319,-1544.0,-6400.0,-15092.0,224.0,1882.0,2038.0,0.3896022432698691,0.9031501649390397,0.11793474443392046,-0.1364597657369283
-9529.244371414185,-2220.0,-6732.0,-14604.0,333.0,4647.0,4286.0,0.3206072367367316,0.8875748647226852,-0.05759668452137239,0.32573682812462296
-9529.26000905037,-3512.0,-9492.0,-11620.0,730.0,12623.0,16732.0,-0.07115043812417574,0.22297431571958976,-0.4697822411417669,0.8511901759254141
-9529.27561545372,-9104.0,-13472.0,-7448.0,3485.0,8740.0,32767.0,-0.7055975656056568,-0.5706986574149112,-0.287704473119363,0.30604126189665726
-9529.291232347488,-13800.0,-10060.0,-9292.0,9054.0,-1115.0,10743.0,-0.3592373183838323,-0.8631934064992953,0.35178491363236214,-0.04575004477819523
-9529.306818008423,-11528.0,3968.0,-15992.0,11963.0,-22327.0,-93.0,0.5057776725982355,-0.5482333410936605,0.41085336168782727,0.5242410369326362
-9529.32243347168,-6132.0,12708.0,-32768.0,2896.0,-26898.0,-32768.0,0.8091942193836181,-0.09500390725855792,-0.5758158300648799,0.06793454767964177
-9529.338012933731,7756.0,12876.0,-20608.0,-30052.0,-25281.0,-32768.0,-0.1128457129058698,-0.09194406500430008,-0.6145471019402068,-0.7753347622067154
-9529.353586673737,14244.0,-21900.0,-18980.0,-26946.0,-629.0,-32768.0,-0.6726807951054433,0.4923242984391871,0.24823836873745794,-0.4934521712884002
-9529.369173526764,12900.0,-22252.0,-7156.0,2786.0,-7262.0,32767.0,0.24995034434830127,0.23387686178748748,-0.27476777634969335,-0.898514945874829
-9529.384769201279,12756.0,-15796.0,-21380.0,22565.0,7688.0,32767.0,0.6920070195176474,0.14777854100909044,-0.6925948412662898,0.1400006200230905
-9529.400334358215,8640.0,5312.0,-14692.0,16597.0,21985.0,32767.0,0.36367083153038154,-0.28416402079485636,0.10731825003702639,0.8806117923288852
-9529.415962696075,2316.0,5880.0,-18412.0,5846.0,29789.0,32767.0,-0.5686453909415158,-0.517118586747054,0.5751674307873792,0.2800235939401277
-9529.431538105011,-6728.0,1776.0,-15372.0,-2359.0,32649.0,32212.0,-0.7507054135020327,0.10138456416698459,0.08499065492367956,-0.6472550817591598
-9529.447141885757,-17132.0,-3624.0,-13456.0,-5155.0,17892.0,22625.0,0.1603029524644765,0.5891720271392007,-0.3628290400597847,-0.7039420242869093
-9529.462721824646,-21308.0,-8972.0,-14176.0,-4811.0,-277.0,-15253.0,-0.3134726358904991,0.5753184810450193,0.4152921986385409,-0.6310910724022969
-9529.478303194046,-17820.0,-9416.0,-15180.0,-1905.0,-19257.0,-32768.0,-0.38188544334047064,-0.46722718336859737,0.7762770062216455,-0.18236303599594586
-9529.493992090225,-7768.0,-4844.0,-15828.0,545.0,-26535.0,-32768.0,0.24039854570043057,-0.8201172264890643,0.08282176798582579,0.5125981162555174
-9529.509566545486,1460.0,-360.0,-16128.0,-1069.0,-24023.0,-31857.0,0.48637316480860543,0.0004569745031476357,-0.7586022655321739,0.4335476195965303
-9529.525148391724,8084.0,444.0,-16348.0,-6605.0,-13938.0,-23424.0,0.17021784697664114,0.6800696352599744,-0.6048830918835852,-0.3776871998378504
-9529.540745735168,10768.0,-7520.0,-16136.0,-5625.0,956.0,-14370.0,0.048133786983286214,0.82567024804966,0.26653272832210334,-0.4948859310683991
-9529.556336164474,9696.0,-11784.0,-16236.0,-399.0,8883.0,15269.0,0.28814015612869653,0.8503451979637563,-0.42391860274584464,0.11908531803762124
-9529.571955442429,4956.0,-8720.0,-16104.0,5388.0,14885.0,31903.0,0.032808456253714216,-0.10693941454693841,-0.7231633901836373,0.6815587120070541
-9529.587557792664,-1900.0,-3800.0,-16164.0,6057.0,17674.0,23823.0,-0.07513593210063732,-0.936048371032189,-0.031947456858995124,0.34226802187115957
-9529.603157997131,-7704.0,-1300.0,-14392.0,2963.0,12338.0,15016.0,-0.12437781223997595,-0.6878716232080503,0.6053620271996643,-0.3806568084669344
-9529.618772983551,-10772.0,-2924.0,-13992.0,-1659.0,3293.0,-762.0,-0.4020116769726868,-0.5707666658062719,0.550168394665536,-0.4581776536379169
-9529.634351730347,-10540.0,-5232.0,-14148.0,-3397.0,-6030.0,-16681.0,-0.5081539330734643,-0.800216258629188,0.035733086755393134,0.316475380145763
-9529.64997291565,-6568.0,-8464.0,-15708.0,-2027.0,-12122.0,-23433.0,0.014135875740207079,-0.17830215419755455,-0.44475557566043605,0.8776109597905686
-9529.6655626297,-1472.0,-7092.0,-15532.0,166.0,-13851.0,-18751.0,0.4037253878425483,0.7103813105726454,-0.326965575049988,0.474823880541728
-9529.681173324585,2792.0,-4428.0,-15600.0,-122.0,-10080.0,-13108.0,0.3796675216156208,0.8531538544592341,0.07136369728284346,-0.35055427020894614
-9529.696791410446,4796.0,-4480.0,-15272.0,-1440.0,-2932.0,-7402.0,0.22750570006305434,0.5471495354550154,0.4651867128255813,-0.6576244099033357
-9529.712385892868,4660.0,-6960.0,-15436.0,-1064.0,2452.0,4099.0,0.38059145275826806,0.7662820020982267,0.3489209614501268,-0.38238227208959835
-9529.728003263474,2964.0,-8180.0,-15748.0,1114.0,5637.0,14604.0,0.36651422834354375,0.8468922170792386,-0.28162151969747085,0.2629262495751149
-9529.743589401245,-152.0,-6400.0,-15440.0,3007.0,7412.0,17139.0,-0.03477824507621142,0.18230810315030635,-0.6437343904846948,0.7424016862201045
-9529.759179353714,-3288.0,-3936.0,-14744.0,2048.0,7472.0,12245.0,-0.2735296058766036,-0.617719674177225,-0.452071765608605,0.5824389045924829
-9529.77480173111,-5612.0,-3984.0,-14844.0,-389.0,4877.0,5435.0,-0.3187915382577892,-0.9026415511390218,-0.24904125337138736,0.14693072997770662
-9529.790437459946,-6708.0,-5912.0,-14624.0,-1282.0,998.0,-2713.0,-0.34994125653593555,-0.7912751920037879,-0.4887918402933066,0.11183570251087982
-9529.806037664413,-6176.0,-7292.0,-14848.0,-575.0,-3944.0,-7100.0,-0.39805282144121124,-0.35242630904915334,-0.7045700485295816,0.47003265285265516
-9529.821625232697,-3652.0,-6340.0,-14788.0,-77.0,-6562.0,-8390.0,-0.33660511288672046,0.31877126013037216,-0.5405991931592199,0.7020216478492762
-9529.83720755577,-640.0,-5668.0,-15116.0,-463.0,-6038.0,-6226.0,-0.18098386901803284,0.7938206922815311,-0.17426385246071166,0.5538281839943556
-9529.852789878845,2080.0,-5932.0,-15308.0,-474.0,-2770.0,381.0,-0.20255613299308622,0.9022588244980466,-0.17462931874392423,0.3382375313848586
-9529.868367910385,3612.0,-7044.0,-15600.0,913.0,1878.0,10991.0,-0.4079910948722804,0.47464053747636303,-0.7486568607898807,0.21856928302327408
-9529.884082078934,3604.0,-6460.0,-15676.0,2350.0,6544.0,20821.0,-0.21965453064734033,-0.5062797206005264,-0.8326884416522607,-0.0454168560501398
-9529.899710178375,2540.0,-5572.0,-16108.0,3311.0,11232.0,25378.0,0.32005424415583983,-0.8987902936957768,0.022818152594538354,-0.29869821001851693
-9529.915514945984,-608.0,-5944.0,-15656.0,4379.0,13943.0,26884.0,0.4686916649560878,-0.1261409508291778,0.8440778279459286,-0.22792368041667965
-9529.931189060211,-4108.0,-5552.0,-15596.0,5347.0,12398.0,23110.0,0.029032581570528113,0.8034165588229001,0.5901371812661442,0.07360060803940678
-9529.946816682816,-6956.0,-4492.0,-14392.0,3926.0,8191.0,13566.0,-0.4339024201954921,0.8384326903986916,-0.18104058519710406,0.2756512650629351
-9529.962439775467,-8620.0,-3740.0,-13844.0,980.0,2008.0,4415.0,-0.5324672876763755,0.6273536649740359,-0.5110616256228092,0.24843908994757802
-9529.978037834167,-7632.0,-4672.0,-14332.0,-2233.0,-2992.0,-4975.0,-0.3828878308155815,0.8946336573038028,-0.1303223706595643,0.1898515418379094
-9529.993652820587,-5320.0,-5692.0,-14356.0,-3320.0,-5979.0,-7493.0,-0.05047452220890464,0.8909245869389573,0.4487384858541662,-0.04836811251994061
-9530.00925731659,-2424.0,-7324.0,-15236.0,-3209.0,-6342.0,-9633.0,0.28111640376632124,0.34640617786183847,0.8568795576469179,-0.25832876564460483
-9530.024897575378,448.0,-7316.0,-15128.0,-1282.0,-3919.0,-5869.0,0.4071445925085042,-0.1799667278500525,0.8198346999502589,-0.3601615226748936
-9530.040521621704,1372.0,-6956.0,-15600.0,241.0,-405.0,-849.0,0.411488224847448,-0.24409911104399998,0.7818837986779168,-0.3996883663110749
-9530.056108951569,692.0,-6284.0,-14868.0,694.0,2138.0,1485.0,0.32314997784730715,-0.04224743240740647,0.8432384859568042,-0.42747877382806154
-9530.071696996689,-612.0,-6084.0,-15328.0,469.0,3414.0,1716.0,0.13031467896911153,0.21284204727694436,0.8801364429043169,-0.403826929795268
-9530.087308645248,-2236.0,-5912.0,-14856.0,981.0,3991.0,3292.0,-0.07135921670432445,0.5610502625364604,0.7541264554534297,-0.33380196866459666
-9530.10291671753,-4004.0,-5844.0,-14668.0,1498.0,2643.0,2509.0,-0.23206321945505687,0.750763844629292,0.5402429535009701,-0.3010612279356927
-9530.118507623672,-5100.0,-5032.0,-14684.0,566.0,164.0,-2880.0,-0.3412245702300844,0.5889229028650328,0.6884766819503508,-0.2504704884072231
-9530.134098291397,-4492.0,-4528.0,-15112.0,-1388.0,-2743.0,-8066.0,-0.22452701467380304,0.06855253728973257,0.9705423302090251,-0.054182604083278366
-9530.149693727493,-2896.0,-5140.0,-14876.0,-2598.0,-4218.0,-9105.0,0.07825409276164416,-0.4980854114893526,0.8305709985914618,0.23651434655495235
-9530.16536617279,-1144.0,-6192.0,-15200.0,-2464.0,-4259.0,-8471.0,0.34567537315735575,-0.7913442053820181,0.29067454580050905,0.4120572695930666
-9530.180966615677,568.0,-6584.0,-15212.0,-1714.0,-2576.0,-4807.0,0.4164913636808611,-0.7807678474759223,-0.1616507650926006,0.43681293761981055
-9530.196560621262,1548.0,-6676.0,-15328.0,-747.0,763.0,216.0,0.3663643627963873,-0.8364194584927217,-0.14711523057714915,0.38017989433920807
-9530.212145328522,972.0,-6564.0,-15288.0,606.0,3506.0,5255.0,0.24596582570665518,-0.8756555234103283,0.32239495233246884,0.26227792819063617
-9530.227766752243,-1096.0,-6308.0,-15176.0,942.0,4673.0,4717.0,0.06772334653909429,-0.7161294362719931,0.6944516911003192,-0.0175791799072017
-9530.243371248245,-3304.0,-5772.0,-14772.0,546.0,3588.0,2639.0,-0.10361689895827478,-0.5097483781892251,0.8191910787735186,-0.24154938551278607
-9530.258942127228,-4636.0,-5776.0,-14696.0,-281.0,940.0,-2633.0,-0.23169939920667199,-0.6562096912091417,0.6794572878479951,-0.23246940349370074
-9530.274535179138,-4892.0,-5608.0,-14544.0,-1393.0,-2319.0,-7451.0,-0.267164613572992,-0.9185763204801911,0.26971381436435493,0.10997759339291435
-9530.290169239044,-3832.0,-5536.0,-14656.0,-1813.0,-4691.0,-11662.0,-0.12717599480979996,-0.7407701493357381,-0.38399914596327195,0.5363119503579271
-9530.305790662766,-2148.0,-5420.0,-14544.0,-3251.0,-5549.0,-12175.0,0.029861958761919532,-0.02376164821894852,-0.8071259070467244,0.5891446491879755
-9530.32139825821,-148.0,-7752.0,-15900.0,-949.0,-5257.0,-9378.0,0.1017236707076978,0.6584361739966114,-0.6473520028466295,0.370201950293233
-9530.33697605133,2272.0,-6728.0,-15812.0,335.0,-3118.0,-2871.0,-0.0010651752454394294,0.8665852370357129,-0.4681655642941297,0.17277122666292882
-9530.352570772171,3148.0,-5564.0,-15620.0,746.0,2275.0,1719.0,0.008937525297828394,0.7379340040134645,-0.5686726853083331,0.36329726581191935
-9530.36816740036,1592.0,-5184.0,-15124.0,427.0,6042.0,7810.0,0.02540023799016312,0.12057911367767299,-0.797779349414066,0.5902233601808892
-9530.383799791336,-1140.0,-6236.0,-15528.0,383.0,7117.0,6764.0,0.12783773265620976,-0.543548931999546,-0.6328722101749192,0.5363625995721414
-9530.399378538132,-3732.0,-6212.0,-15388.0,643.0,4754.0,3873.0,0.21093340501361693,-0.8567149655959687,-0.32246921872691925,0.34287048479988774
-9530.414972543716,-4712.0,-5740.0,-14736.0,584.0,1644.0,216.0,0.29082509779391613,-0.8909114755625003,-0.25563863124960906,0.23737395690562627
-9530.430630683899,-4392.0,-5284.0,-14784.0,-102.0,-1139.0,-4480.0,0.32459602364452206,-0.7141799998085587,-0.5888185211156667,0.1946203958961422
-9530.446226596832,-3084.0,-5872.0,-15184.0,-1063.0,-2273.0,-8163.0,0.22443079434182273,-0.22963759262117917,-0.9461827560639198,0.040442387831739125
-9530.461821556091,-1436.0,-6696.0,-15424.0,-551.0,-1945.0,-7584.0,0.06542892491341327,0.32392898741300025,-0.9390832468445549,-0.0944019194410366
-9530.477396249771,180.0,-6304.0,-15144.0,261.0,-203.0,-3274.0,0.013760469846081678,0.5690837861669841,-0.8168429723625218,-0.09339085765440779
-9530.492991685867,428.0,-5384.0,-14944.0,635.0,3411.0,437.0,0.21886135987913113,0.5418246430888729,-0.8030489884774222,0.11678220497516757
-9530.508576154709,-796.0,-5336.0,-14872.0,306.0,6163.0,2138.0,0.5336853070746286,0.2910892578842576,-0.6806706107814212,0.40882093461012786
-9530.524128437042,-2812.0,-6416.0,-15176.0,156.0,6607.0,12.0,0.7983763255799992,0.053636610971516785,-0.318736091691044,0.5080606859129998
-9530.53976225853,-4080.0,-6740.0,-15332.0,437.0,4453.0,-1302.0,0.9058487114742314,-0.07161662723490696,0.015498787332975526,0.41721572143817687
-9530.555328130722,-4176.0,-5920.0,-14444.0,741.0,2334.0,-5964.0,0.9799724435708791,-0.09273468274879716,0.16538269599092928,-0.06085106674473191
-9530.570922136307,-3344.0,-5264.0,-14908.0,-360.0,677.0,-9833.0,0.6935122112376759,-0.19861138278154747,0.11054363679041082,-0.6836478887987445
-9530.586525440216,-1972.0,-5152.0,-15552.0,-814.0,-132.0,-12701.0,-0.051557988518066915,-0.25325404169121296,-0.046022594192761314,-0.9649280206371897
-9530.60221028328,180.0,-6100.0,-15264.0,-1030.0,-3.0,-13390.0,-0.7801228824019313,-0.12681287345927114,-0.16555106538163492,-0.5898471227605598
-9530.61783528328,2192.0,-6968.0,-16040.0,-1242.0,2028.0,-12224.0,-0.9437459472795725,0.16169591851264117,-0.2538821553909912,0.1369009426693638
-9530.633432388306,3648.0,-7272.0,-15608.0,-1078.0,5785.0,-5623.0,-0.597634917555366,0.24964605505234416,-0.5412650838224152,0.5362289264391715
-9530.649011135101,4092.0,-7736.0,-16620.0,-902.0,9650.0,1477.0,-0.14523093858029734,-0.17052913469613076,-0.8503142656779589,0.4762283467869467
-9530.66460609436,3164.0,-7248.0,-17904.0,102.0,12944.0,5740.0,0.3638416580727276,-0.7143555841620275,-0.5817827999552375,0.1372738901017257
-9530.680236816406,1572.0,-6780.0,-18388.0,-793.0,15005.0,7410.0,0.5573324175121672,-0.7314755191263844,0.19587122201524745,-0.34052695296420127
-9530.695884466171,-56.0,-7920.0,-20168.0,-1493.0,16526.0,5171.0,0.18334181360225799,-0.12377630225294763,0.7564068890654784,-0.6155597652217913
-9530.71147108078,-1740.0,-8748.0,-20368.0,-899.0,16018.0,5874.0,-0.3164875441376981,0.618260833071273,0.626461215312528,-0.353744996296562
-9530.72708272934,-2960.0,-9020.0,-19500.0,146.0,16401.0,6321.0,-0.5601234433832671,0.8007406704489192,-0.09387997030663899,0.19042756637816846
-9530.742659568787,-4516.0,-8360.0,-20500.0,575.0,15779.0,3379.0,-0.305016678618935,0.2795195440779762,-0.6318910021130987,0.6553986662263034
-9530.75823354721,-5888.0,-8660.0,-20188.0,-296.0,15028.0,-3385.0,0.4323563340470361,-0.22999296165007388,-0.5768014665727003,0.6538128984353379
-9530.773815631866,-6424.0,-9784.0,-17068.0,-53.0,11063.0,-4370.0,0.8584642942645093,-0.4464084908726549,-0.17368815222413592,0.1832783143928979
-9530.789388895035,-6724.0,-9128.0,-13808.0,1962.0,7923.0,-2087.0,0.8767986535147719,-0.31810001883211036,0.29806002295135814,-0.20296975620010416
-9530.804977178574,-6148.0,-6560.0,-9908.0,1422.0,9628.0,8220.0,0.5425882188238281,0.11691137678175059,0.8278293773921476,0.08141422909486007
-9530.82056927681,-8480.0,-6884.0,-8444.0,2197.0,10634.0,22670.0,-0.16976925384606834,0.7396408617313907,0.462847725176882,0.4581285620918876
-9530.83615231514,-13656.0,-6404.0,-9152.0,4063.0,8528.0,24487.0,-0.7024182157647636,0.5311751698630428,-0.4328426617276735,0.19263649516983175
-9530.85187792778,-17360.0,-5532.0,-8992.0,2969.0,581.0,19912.0,-0.5700074145675198,-0.2040730902019651,-0.663471140235562,-0.4396041028789377
-9530.86745762825,-18812.0,-4616.0,-9180.0,-17.0,-9774.0,11974.0,-0.40316925087815614,-0.7572427386741213,0.02173713634638728,-0.5133862939104641
-9530.88306760788,-17560.0,-7020.0,-11416.0,-2768.0,-18949.0,-2222.0,-0.3318891178723963,-0.773029802239326,0.3400810816837507,0.4202611047533676
-9530.898669481277,-13520.0,-9712.0,-13868.0,-2346.0,-26994.0,-7247.0,0.21824532368252833,0.026414107511033538,0.20682753502971168,0.9533591371401637
-9530.914716959,-7976.0,-10664.0,-16540.0,-406.0,-31522.0,-8648.0,0.4987840778902751,0.8220710095260362,-0.13479385273097988,0.23925784460688165
-9530.93037223816,-3032.0,-9296.0,-18252.0,2347.0,-32314.0,-5500.0,0.0213448006283022,0.5477421441783854,-0.36144026548036723,-0.7542439111232417
-9530.946004152298,864.0,-7644.0,-19160.0,1901.0,-28635.0,-1207.0,-0.38993986730901387,-0.47999403586325506,-0.17870888200297588,-0.7652553566699023
-9530.96158695221,1972.0,-8512.0,-19240.0,2023.0,-25600.0,2010.0,-0.23168338121362664,-0.9307275890764538,0.2607531669939195,0.10989427511929145
-9530.97717165947,1972.0,-9496.0,-19644.0,3306.0,-23699.0,3844.0,0.23063256809695803,-0.29185825762040624,0.4632938180695276,0.8043545326100562
-9530.992799758911,1872.0,-9216.0,-19888.0,4184.0,-22370.0,4528.0,0.40908053505093955,0.6844085400174603,0.18695044312560266,0.5738358632995557
-9531.008397340775,1904.0,-8432.0,-20480.0,4046.0,-20709.0,4522.0,0.1306602386491915,0.9096880134883605,-0.2906797184688455,-0.2662722693458886
-9531.024018764496,1940.0,-8444.0,-19916.0,4397.0,-19717.0,5164.0,-0.28840771972991996,0.17853105850832046,-0.4949561990477956,-0.799978755575575
-9531.03960776329,2028.0,-7008.0,-18872.0,4589.0,-19488.0,5897.0,-0.38019857960869397,-0.7470314169795028,-0.20064246975717975,-0.5070854971687392
-9531.055234909058,2508.0,-4908.0,-19096.0,5104.0,-17987.0,3390.0,-0.10955993322614388,-0.9149207830405162,0.2020464228888168,0.33180389507937547
-9531.07081913948,2840.0,-2748.0,-17772.0,3227.0,-14554.0,4516.0,0.16242671433600653,-0.26360324403435825,0.47128844436533285,0.8258438680599842
-9531.086438417435,2624.0,-3604.0,-17316.0,259.0,-10794.0,3483.0,0.25676081496835923,0.4698814363261808,0.29656348126151466,0.7907815256282109
-9531.102033138275,1568.0,-5560.0,-16288.0,-1074.0,-9024.0,2566.0,0.27559757863894824,0.8760017300630756,-0.06553949342964432,0.39034794526913125
-9531.11763215065,724.0,-8064.0,-16308.0,-987.0,-7887.0,-627.0,0.26844178858084355,0.9230821494185915,-0.19780822836565998,-0.19165139279199045
-9531.13319349289,652.0,-8340.0,-14916.0,1142.0,-7966.0,3284.0,0.07456443579896416,0.6054878524427137,-0.5323124419119939,-0.5869140223610122
-9531.148778676987,976.0,-6944.0,-14532.0,2095.0,-6375.0,755.0,-0.2530701011560028,0.2219688900612868,-0.6212569203835155,-0.7076193712875879
-9531.164346694946,1340.0,-4876.0,-13548.0,1405.0,-4337.0,3937.0,-0.24100342129010996,-0.2569442752104742,-0.6096288110492796,-0.710105416893624
-9531.179939508438,1052.0,-4984.0,-12720.0,-484.0,58.0,5893.0,0.10356507375299508,-0.49481810707433194,-0.39889884779107154,-0.7650549167483777
-9531.195544242859,-812.0,-6504.0,-12524.0,-1447.0,3070.0,9399.0,0.5845148636339915,-0.47505623242272704,0.09896648180670797,-0.6502842345513712
-9531.2111287117,-2836.0,-8556.0,-12100.0,-443.0,4048.0,8633.0,0.784501054813798,-0.14875836768293638,0.5291027066262193,-0.2871922159132378
-9531.226722717285,-5404.0,-8888.0,-11944.0,1216.0,2519.0,7499.0,0.71471715462104,0.28177256038803966,0.6301672008558473,0.11257402927975495
-9531.24231004715,-6892.0,-7516.0,-11492.0,1864.0,-288.0,2182.0,0.6430944628203134,0.5050553059617725,0.5596445742739492,0.13470931777513848
-9531.257900714874,-6688.0,-5568.0,-11164.0,412.0,-3729.0,-4117.0,0.7692187394499366,0.333609707637271,0.4828325059310022,-0.2527446637727762
-9531.273514270782,-5360.0,-4748.0,-11076.0,-1940.0,-6011.0,-10273.0,0.5870468030446727,-0.2493545796182488,0.29033055914506406,-0.7133768366613469
-9531.289128303528,-2672.0,-5092.0,-11868.0,-3107.0,-6241.0,-12505.0,-0.06306687778976174,-0.6961129989676877,-0.06735752014729536,-0.7119776864998438
-9531.30476307869,-128.0,-5476.0,-12092.0,-3169.0,-3668.0,-8774.0,-0.6188452990524534,-0.6436937755215253,-0.2884307818405305,-0.3456826626870139
-9531.320348262787,736.0,-5868.0,-12844.0,-2624.0,276.0,-4748.0,-0.8154415855892463,-0.33823964815215357,-0.44367991188603917,-0.1542630762638932
-9531.335982322693,20.0,-6276.0,-12920.0,-1681.0,3772.0,-765.0,-0.6845836228694071,-0.12980388571723395,-0.6687780865541378,-0.2592915067962907
-9531.351569890976,-1332.0,-6124.0,-12552.0,-1122.0,6320.0,2527.0,-0.23222570049621336,-0.05755510808882963,-0.8503069496094227,-0.4687608398830309
-9531.367142677307,-3348.0,-5952.0,-11992.0,-1126.0,7545.0,3465.0,0.374413388317468,0.013605830717039951,-0.7586997829719422,-0.5329203836760799
-9531.382697343826,-5600.0,-5804.0,-11744.0,-1881.0,6444.0,1102.0,0.7348194182434594,0.15386092224147097,-0.39735288407968733,-0.5277100763609716
-9531.398270130157,-6596.0,-6240.0,-13264.0,-3612.0,4280.0,-4663.0,0.6049127715922703,0.23725705736900077,0.0895046305834636,-0.7548367695053536
-9531.413849592209,-6108.0,-7652.0,-11100.0,-3219.0,228.0,-10163.0,0.0001901133746002032,0.0022656591913628554,0.3837926632735417,-0.9234164944718798
-9531.429420471191,-3244.0,-7048.0,-11116.0,-1544.0,-3537.0,-15530.0,-0.6593250264474546,-0.4674165008598491,0.29782143840152225,-0.5080499139380364
-9531.444981336594,2168.0,-1816.0,-21572.0,-843.0,19265.0,4751.0,-0.4916446033482942,0.2791413215723927,-0.28954283639903367,-0.7723539683845217
-9531.46057343483,-8908.0,-10268.0,-18088.0,-22023.0,32767.0,32767.0,0.6716201538433003,0.5677905507754101,-0.2199936936854699,-0.4220699398681242
-9531.476146936417,-29496.0,-32768.0,-28916.0,10841.0,12582.0,16698.0,0.4335051522919775,0.5889623444568484,-0.3102550230495466,0.6074030461075473
-9531.491776704788,-22184.0,-11528.0,-14764.0,17379.0,-18330.0,-32768.0,0.20838629206746098,0.8288251095973797,0.42753108971512893,-0.2946884088427316
-9531.50735116005,-7240.0,4828.0,-15700.0,21302.0,-17275.0,-32768.0,-0.39644752559025803,-0.11667330377157953,0.5013969383274498,-0.7601432824647244
-9531.522913694382,508.0,7848.0,-12248.0,-5656.0,-16644.0,-25816.0,-0.49536026587144066,-0.7421703724725439,0.40974070852799765,0.1895096224330452
-9531.538484096527,6380.0,4876.0,-22960.0,-12856.0,-11652.0,-1805.0,-0.4839228777922826,-0.03208241263179019,0.3207053270181913,0.8135953910704719
-9531.554067611694,7908.0,3380.0,-13664.0,-19025.0,3496.0,-13299.0,0.13563982069152747,0.06625785870224758,-0.5328773907839232,0.8326184129565484
-9531.569658041,7560.0,740.0,-13088.0,-24244.0,7333.0,-3568.0,0.3581726662711969,-0.24014853726366864,-0.8941580769587231,-0.1205087324461609
-9531.585242986679,5620.0,-16028.0,-18416.0,-17449.0,15197.0,-14406.0,0.397957705182903,0.1931410213035336,-0.20832600035176707,-0.872311004374484
-9531.600856781006,5084.0,-20800.0,-14796.0,-8377.0,13043.0,15716.0,0.9088457879384094,0.2807034380885187,0.2845808787073598,-0.11924192662836261
-9531.616479873657,1208.0,-18668.0,-20488.0,4332.0,19844.0,30615.0,0.1870706045054625,0.47372062605678344,0.31669775564056907,0.8001849092244593
-9531.632073163986,-7328.0,-10440.0,-17004.0,9064.0,20385.0,30441.0,-0.8358202102472022,0.011491344466994404,0.0069661496880232465,0.5488387722302311
-9531.647640228271,-14988.0,-4464.0,-12952.0,8624.0,13563.0,2644.0,-0.563447858535886,-0.728149640509321,-0.3292193770305695,0.2096168254818173
-9531.66328573227,-17692.0,-1732.0,-11288.0,4062.0,-2986.0,-28279.0,0.04682740746233767,-0.022525591092203708,-0.7058756802163061,0.706427148215207
-9531.678867816925,-11764.0,1028.0,-14920.0,-5037.0,-18893.0,-29828.0,0.21774399156124477,0.9051317237388317,-0.3525099161373597,0.09518863296307566
-9531.69446182251,-3444.0,1736.0,-16928.0,-11005.0,-21977.0,-32768.0,0.18397498321090158,0.508258283014016,0.46518875970650647,-0.7010179321122357
-9531.710050344467,3800.0,-2364.0,-16536.0,-13799.0,-15513.0,-32768.0,-0.16401323840563536,-0.5644523374945669,0.712172502229702,-0.3838014374549696
-9531.725621700287,8360.0,-7268.0,-15656.0,-9808.0,-6618.0,-18939.0,-0.3971672803076553,-0.8321929813165616,0.09254770344601032,0.3756965742289152
-9531.741193294525,9036.0,-11348.0,-16984.0,-4670.0,3707.0,-720.0,-0.6577097653484513,-0.7066183282406756,-0.21380180870402213,0.14965690546889757
-9531.756769895554,6580.0,-9712.0,-15840.0,1012.0,11578.0,22337.0,-0.2778143141181047,-0.552020437298157,0.21219962693440841,-0.7570098823695344
-9531.772353887558,24.0,-6496.0,-16540.0,3880.0,17343.0,25731.0,0.4431363071387173,0.33578900463004757,0.26670448653168566,-0.7872386388693661
-9531.788005113602,-7028.0,-3520.0,-14800.0,3056.0,15548.0,17012.0,0.5129805582087227,0.8480225308927415,0.07061848396259732,0.11279079625998399
-9531.80363869667,-11720.0,-3136.0,-13608.0,-1177.0,6602.0,-1993.0,0.4940698896026125,0.6129481991820919,0.4286662035753023,0.44320958385376835
-9531.819230794907,-11936.0,-3876.0,-13172.0,-4931.0,-3567.0,-16781.0,0.8320366404220416,-0.0483472215798827,0.5304241912703785,-0.15500887870013405
-9531.83482503891,-7584.0,-6740.0,-14484.0,-5328.0,-10168.0,-27970.0,0.3196035635821997,-0.6618682474504611,-0.08983977591188637,-0.6720958263718917
-9531.850441217422,-1624.0,-7628.0,-15476.0,-3979.0,-12302.0,-25070.0,-0.5559215560718168,-0.4885468382676831,-0.6200749401782771,-0.26034645931190675
-9531.86602473259,2556.0,-6888.0,-16048.0,-1952.0,-9338.0,-18525.0,-0.7542026797796431,0.19102269901519855,-0.43976740974510065,0.44865718717105035
-9531.88159418106,5112.0,-5024.0,-15916.0,-1644.0,-3914.0,-7644.0,-0.4591378195199495,0.5930707944405817,-0.09483019833763331,0.6545737001677723
-9531.897203683853,5356.0,-4596.0,-16244.0,-1059.0,2762.0,2043.0,-0.4752397266737201,0.43996191761027703,-0.35469989726164675,0.6743654025277046
-9531.91290807724,3160.0,-4528.0,-15944.0,-734.0,7527.0,9631.0,-0.5334801933909282,-0.18476535437930927,-0.7379370435782892,0.36974256827636215
-9531.928567647934,-180.0,-5004.0,-15860.0,-162.0,9775.0,12130.0,-0.17642365041747093,-0.7546762411969375,-0.5941905926684938,-0.21511858620421345
-9531.944146633148,-3876.0,-5548.0,-15240.0,-219.0,7929.0,8931.0,0.2687162923808376,-0.7377186116195018,-0.08582591948225396,-0.6133487717639261
-9531.959801197052,-6052.0,-5760.0,-14608.0,-262.0,4061.0,2277.0,0.3743718838761067,-0.503640761240621,0.15757488480019957,-0.7624708727946443
-9531.975393295288,-6424.0,-5952.0,-14740.0,-1278.0,-478.0,-5729.0,-0.05017743109333691,-0.583614319559091,-0.02187162868838091,-0.8101840428402487
-9531.99225449562,-4688.0,-5836.0,-15184.0,-1382.0,-3666.0,-10705.0,-0.627000620533858,-0.5788842713888535,-0.32133878595355003,-0.4104931264109689
-9532.00798869133,-2132.0,-5516.0,-15520.0,-981.0,-5228.0,-11833.0,-0.8254385995307411,-0.25208548506746964,-0.39590017596116966,0.31363526156499416
-9532.023579597473,716.0,-4680.0,-15448.0,-954.0,-3923.0,-8494.0,-0.5792280378405136,0.168068770606358,-0.2524318045464789,0.7566544472741201
-9532.039184570312,2276.0,-4780.0,-15944.0,-924.0,-905.0,-3813.0,-0.3148960623303528,0.3384398715649738,-0.2000025829908723,0.8638853454370562
-9532.054822444916,2356.0,-5088.0,-15788.0,-576.0,2330.0,2382.0,-0.41890347362043134,0.1316835832892023,-0.3625196124171606,0.822045524465503
-9532.070429801941,1192.0,-5576.0,-15420.0,122.0,4193.0,5481.0,-0.5831663574170712,-0.29707847248539193,-0.4885273492698523,0.5770636098195959
-9532.08600115776,-796.0,-5380.0,-15164.0,122.0,4095.0,5110.0,-0.5752320105544269,-0.6315034249812683,-0.4849269569088665,0.18750307926417034
-9532.101652145386,-2156.0,-5524.0,-15228.0,-428.0,3428.0,2795.0,-0.46543493362890387,-0.7314020980704368,-0.47562146254867455,-0.1490151598297334
-9532.117247343063,-3200.0,-6308.0,-15632.0,-857.0,1580.0,685.0,-0.4392864190828992,-0.6948630333430734,-0.4783609666401333,-0.30880996178508124
-9532.13286113739,-3232.0,-6732.0,-14868.0,-459.0,-673.0,-2619.0,-0.5500969258529319,-0.5700601433338379,-0.5826703694272061,-0.18143882093124705
-9532.148442268372,-2312.0,-6180.0,-15448.0,292.0,-2498.0,-5094.0,-0.6657100634021303,-0.32671194838329215,-0.6459158983421354,0.18133412954432182
-9532.1640791893,-656.0,-4944.0,-15596.0,-63.0,-2696.0,-3986.0,-0.697191636940414,-0.051394271913288464,-0.557044918789988,0.448311731549716
-9532.179701805115,468.0,-4940.0,-15796.0,-295.0,-1793.0,-3161.0,-0.6306862529530507,0.18144818091865547,-0.45163984891208764,0.6044277085409124
-9532.195324420929,1376.0,-5212.0,-15064.0,-556.0,-398.0,-269.0,-0.6219604370603758,0.24329816382644737,-0.45409624004064575,0.5897184268710736
-9532.210951805115,1472.0,-6064.0,-15072.0,-565.0,1354.0,2594.0,-0.6674516729670844,0.09840432970552192,-0.5922324733725214,0.44055141542357196
-9532.226560354233,892.0,-6568.0,-15788.0,575.0,2404.0,6618.0,-0.683037349218806,-0.31445264553352403,-0.6530913356776373,0.08972859383671754
-9532.242161750793,-412.0,-6016.0,-15588.0,1377.0,2581.0,8554.0,-0.4434893060043023,-0.7099564611903842,-0.44093285808500854,-0.32381672800341005
-9532.257767677307,-1284.0,-5372.0,-15232.0,1335.0,2502.0,6840.0,-0.05960919964804932,-0.8014715262255131,-0.12747209831234413,-0.581240914009771
-9532.273379325867,-2268.0,-4912.0,-15416.0,682.0,2014.0,5131.0,0.24374926365905425,-0.6840053365716673,0.1677118292458327,-0.6667801274319487
-9532.28895330429,-2608.0,-5204.0,-14988.0,224.0,672.0,1814.0,0.3478542417357619,-0.6051052206359773,0.27346462309500197,-0.6618626733553057
-9532.304530143738,-2460.0,-5544.0,-14296.0,-365.0,-999.0,-354.0,0.33036293889750934,-0.6792501490323338,0.244528651637632,-0.608017517980226
-9532.320118665695,-1588.0,-5996.0,-14328.0,-572.0,-1880.0,-2980.0,0.17035369885008383,-0.8203587874313615,0.04219116798785803,-0.5442526825988657
-9532.335743188858,-540.0,-6276.0,-15148.0,-728.0,-1659.0,-1561.0,0.049175093484832094,-0.8965490456522216,-0.058304161102075924,-0.43632813766594486
-9532.351323604584,140.0,-5932.0,-15416.0,407.0,-734.0,1626.0,0.1375526198857599,-0.9194737064795235,0.049692827631020835,-0.36493561450946954
-9532.36690235138,-72.0,-5228.0,-15588.0,772.0,633.0,2960.0,0.2807989148301807,-0.8464304214338695,0.26075917635616747,-0.36974607915098695
-9532.382479429245,-500.0,-4208.0,-15616.0,633.0,1307.0,4228.0,0.4044381482648838,-0.6453171963553525,0.5447507941999902,-0.3510585030085719
-9532.39807510376,-1160.0,-4172.0,-14692.0,-280.0,1315.0,1853.0,0.37532220213783063,-0.5167374822420567,0.6905506588311947,-0.3394928668121797
-9532.413670301437,-1404.0,-5280.0,-14188.0,-1763.0,628.0,-326.0,0.24478673186480754,-0.5678287293713498,0.738658594434949,-0.26839051933861374
-9532.429255008698,-1372.0,-6728.0,-15024.0,-1377.0,101.0,-852.0,0.14845528736443714,-0.6434050150008738,0.7237073560574666,-0.20059580532398702
-9532.444880485535,-1224.0,-6948.0,-15512.0,-7.0,-88.0,1375.0,0.17648846700077797,-0.5541901147778848,0.7942357452761907,-0.1758258189907394
-9532.46049451828,-1356.0,-5760.0,-15376.0,646.0,-463.0,1124.0,0.2550471330335552,-0.4701123187573206,0.8256948311158266,-0.17936948891209475
-9532.4760992527,-1404.0,-4524.0,-15504.0,-373.0,-274.0,-518.0,0.2506521281215027,-0.5191266814826541,0.8027872602505973,-0.15236014577411078
-9532.491703033447,-1520.0,-5056.0,-15820.0,-1050.0,-398.0,-1522.0,0.2076382738782017,-0.6453190489100666,0.7292844229701902,-0.0927033049449953
-9532.507328510284,-1792.0,-5816.0,-15612.0,-704.0,-1205.0,-2033.0,0.2228255247710582,-0.7794224575395929,0.5853002445486511,-0.016523980293285535
-9532.522905111313,-1240.0,-5716.0,-15452.0,-66.0,-1710.0,-2126.0,0.2941613842601454,-0.867585044361183,0.3964535046185463,0.059915686482185065
-9532.538481235504,-976.0,-5180.0,-15208.0,14.0,-1953.0,-2169.0,0.36232182187673495,-0.9033362055031537,0.17655721395113255,0.14674517852693267
-9532.554078817368,-588.0,-4876.0,-14828.0,-598.0,-1540.0,-2066.0,0.3557789909432543,-0.9105407177794804,-0.041559850896591054,0.20642114635492553
-9532.569676876068,-484.0,-5444.0,-15076.0,-1695.0,-1679.0,-2563.0,0.24958069690668788,-0.8834144305674552,-0.31357419665291014,0.24281606781725323
-9532.585309743881,-272.0,-6484.0,-15028.0,-2633.0,-2545.0,-5042.0,0.07353045573344237,-0.6579504286425092,-0.7146834971959211,0.22565904449983482
-9532.600899934769,716.0,-7292.0,-15728.0,-1780.0,-2160.0,-1957.0,-0.11942464177788997,-0.4837364163887096,-0.8395649529353056,0.21648908563336342
-9532.616527080536,1036.0,-6576.0,-15776.0,822.0,-170.0,6858.0,-0.193925852464962,-0.8491745643859272,-0.45631371124624254,0.18186016571638114
-9532.632098197937,216.0,-4040.0,-15992.0,3288.0,1952.0,11727.0,-0.03971396348611924,-0.954783477689381,0.2939080376890043,-0.02072141929003943
-9532.647732973099,-1760.0,-1704.0,-15368.0,1926.0,4245.0,9211.0,0.021420211490999513,-0.533108582732091,0.7750825678401498,-0.33850173793849536
-9532.663296699524,-4300.0,-2412.0,-15844.0,-1017.0,4512.0,6126.0,-0.12463237590714231,0.010496986224669063,0.9128186804020642,-0.3887398112683782
-9532.678874731064,-6324.0,-4988.0,-15236.0,-2117.0,2776.0,-279.0,-0.33763451600581457,0.10094963673490044,0.9131203796686846,-0.2049957967333183
-9532.694454431534,-6928.0,-8864.0,-15392.0,-808.0,-1920.0,-5809.0,-0.2475448206175047,-0.3279138767668695,0.9116199024337361,0.011966816446956909
-9532.710027456284,-5408.0,-7864.0,-14396.0,1803.0,-6135.0,-8021.0,0.2241143079676331,-0.7439887143780834,0.6083169077196428,0.1618768347375476
-9532.725603818893,-2988.0,-4884.0,-15388.0,1613.0,-6864.0,-10095.0,0.5693685658200778,-0.7844634582951916,-0.10801676996452396,0.22083680911923856
-9532.741185426712,-192.0,-3360.0,-15304.0,228.0,-5979.0,-10175.0,0.5046508117613928,-0.39162592511302097,-0.764313776155338,0.0882107960915528
-9532.756785392761,1852.0,-4276.0,-15316.0,-2179.0,-2598.0,-8098.0,0.25320039944541045,0.05747547569047105,-0.9306221326016038,-0.25793133529465123
-9532.772379159927,2992.0,-6484.0,-15324.0,-1863.0,1503.0,336.0,0.3836752135932291,0.022314694843026492,-0.8388422051544127,-0.3855374686329917
-9532.7880153656,1968.0,-8232.0,-16064.0,1234.0,3139.0,7321.0,0.7011705595298714,-0.2999766572533127,-0.6458305188203164,-0.035732233515085955
-9532.803618431091,324.0,-6244.0,-15940.0,2843.0,3853.0,11246.0,0.7028306591394292,-0.5115816814632822,-0.08530233774911157,0.4868642099593815
-9532.819304704666,-1628.0,-3776.0,-14996.0,2903.0,4305.0,10838.0,0.27873480238897835,-0.4122673877717261,0.5423139816084769,0.6769328299536189
-9532.834894418716,-3912.0,-2844.0,-14904.0,523.0,2918.0,4601.0,-0.10138220564339961,-0.31975948475167104,0.7307534192056766,0.5945376023511366
-9532.850480794907,-5164.0,-4524.0,-14648.0,-1536.0,688.0,-2320.0,-0.06559180570737146,-0.47532619306549834,0.5630136994377916,0.6728880289136369
-9532.866074323654,-4796.0,-7328.0,-14984.0,-1504.0,-2657.0,-6553.0,0.32774810512765745,-0.5352325814555232,0.18447618721713913,0.7563569261159138
-9532.881642341614,-2832.0,-8148.0,-15264.0,331.0,-5208.0,-7511.0,0.7212716431071916,-0.23698872864163714,-0.22938464713261,0.6090864002800591
-9532.897213459015,-500.0,-6284.0,-15340.0,1008.0,-4882.0,-5058.0,0.7762061471122448,0.15890213260586936,-0.499710533324731,0.35006215494221016
-9532.91303563118,1360.0,-5116.0,-14088.0,339.0,-1670.0,-1379.0,0.7274247809026909,0.2877745399774741,-0.5732196838282598,0.2438405141506534
-9532.928771734238,1496.0,-5904.0,-15772.0,-289.0,1982.0,2797.0,0.7414251556120041,0.08367532963580077,-0.5019259901312831,0.4374442573251897
-9532.944359779358,700.0,-6716.0,-15304.0,868.0,4980.0,8795.0,0.4622402382004402,-0.32613170768862004,-0.15805889523024708,0.8093141893400231
-9532.959985256195,-1960.0,-6628.0,-16488.0,3410.0,4249.0,11007.0,-0.10880254958193473,-0.43712719528808724,0.3869805401801174,0.8045668908586443
-9532.975589513779,-3756.0,-3652.0,-14908.0,3108.0,2109.0,7289.0,-0.46610120562426666,-0.29992219277198107,0.7020752523767343,0.4470868868560074
-9532.991208553314,-4120.0,-2424.0,-14272.0,797.0,128.0,-554.0,-0.42968875522757155,-0.370041317057035,0.7110283440819991,0.4157832262293477
-9533.006818294525,-3908.0,-3680.0,-14880.0,-1319.0,-1960.0,-5543.0,-0.13214877613761622,-0.52532406780628,0.49369293829218375,0.6803224290211396
-9533.022464990616,-2480.0,-6836.0,-15592.0,-1915.0,-2954.0,-6948.0,0.2646400086232378,-0.5188814655490062,0.07905281722012121,0.8089983576220476
-9533.038051366806,-980.0,-8820.0,-15824.0,207.0,-2933.0,-2832.0,0.4655665391052429,-0.30789473782443166,-0.09646487059637716,0.8241014238711245
-9533.053644895554,-232.0,-8380.0,-15656.0,2454.0,-2803.0,-496.0,0.5165332272316252,-0.0025624369492903286,-0.0450272949173203,0.855078593928647
-9533.069245100021,436.0,-5700.0,-15076.0,3534.0,-1540.0,4219.0,0.17581102421898126,0.22816050560296178,0.13415017671422433,0.948175615344339
-9533.084871530533,-60.0,-3964.0,-15172.0,3342.0,-965.0,4217.0,-0.20617191721961367,0.36909446608929336,0.2815186914987877,0.8613998154103926
-9533.100497245789,-564.0,-3296.0,-14872.0,1598.0,-458.0,3865.0,-0.5040216496466063,0.44117575399358994,0.26800114976350353,0.6924604786564653
-9533.116104602814,-1148.0,-5032.0,-14836.0,372.0,-335.0,3402.0,-0.6858119019751369,0.5027351168638726,0.1669228095392934,0.49905532061748625
-9533.131724357605,-1580.0,-7212.0,-15536.0,433.0,-1398.0,3660.0,-0.797826914987528,0.5591121761600876,0.10292746231638371,0.20067816446271527
-9533.147316455841,-1524.0,-8632.0,-15996.0,2552.0,-926.0,6254.0,-0.8795103486556575,0.3902581457375462,-0.07997746095592811,-0.260314678864137
-9533.162899494171,-2048.0,-7616.0,-14640.0,5258.0,-331.0,11272.0,-0.5452207046159507,-0.06718207068228263,-0.37798131456209766,-0.7452188124831762
-9533.178469896317,-3304.0,-5280.0,-15884.0,6304.0,-9.0,10266.0,0.10967250130397774,-0.48675247057989657,-0.5014693729456543,-0.7068043879600553
-9533.194102525711,-4412.0,-3796.0,-14772.0,3532.0,-909.0,8365.0,0.5756367605929703,-0.684631904300101,-0.29162290371137745,-0.3389359194588166
-9533.20971751213,-5276.0,-4576.0,-13400.0,2637.0,-1576.0,3581.0,0.7386820480476469,-0.6381221892558596,-0.21712621173791452,0.002260895350343119
-9533.225372314453,-5328.0,-5740.0,-14584.0,3053.0,-5463.0,-1987.0,0.6988225218046095,-0.3495472837069849,-0.58941948595636,0.20505718482085666
-9533.240974664688,-3992.0,-5924.0,-14220.0,1749.0,-7505.0,-2761.0,0.33794229108492324,0.027036811034599793,-0.8951750509608226,0.28935384373227313
-9533.256572008133,-1336.0,-6936.0,-14656.0,1567.0,-6774.0,-3679.0,-0.084355319674146,0.4382586820007538,-0.8629827114268446,0.23680022692558023
-9533.272161483765,148.0,-7784.0,-15000.0,2262.0,-5075.0,3204.0,-0.5404775852728746,0.2488126787597698,-0.7865848272095123,0.16510766278332345
-9533.287785053253,716.0,-8444.0,-14728.0,3330.0,-816.0,9232.0,-0.6079640795799599,-0.40203403071095917,-0.6831682891625254,-0.04504891534254375
-9533.303402900696,-1176.0,-8104.0,-14456.0,5705.0,802.0,16423.0,-0.16231904957585924,-0.9242649356340513,-0.09462956640525017,-0.3323132559259818
-9533.318994045258,-3952.0,-6536.0,-15132.0,6987.0,843.0,16966.0,0.4765903804242499,-0.6028121129478562,0.5606792296161153,-0.3084120089223009
-9533.334628105164,-6212.0,-4864.0,-13676.0,5313.0,-937.0,13980.0,0.715606980948341,0.16816871616036574,0.6768912784414498,0.03800169592103425
-9533.350222349167,-7808.0,-5244.0,-12976.0,3078.0,-4527.0,6168.0,0.7445407077774522,0.6004179809396554,0.25499454385814063,0.14189843279323694
-9533.365804195404,-7648.0,-7008.0,-14360.0,1682.0,-7466.0,585.0,0.677263421006736,0.6773887140584365,-0.19923557109232456,-0.20679452566261508
-9533.381391525269,-5956.0,-8968.0,-16528.0,1986.0,-8937.0,2778.0,0.3487649916975003,0.449302207523578,-0.7120022323300548,-0.4117563940459223
-9533.396982908249,-4436.0,-10272.0,-17192.0,3993.0,-7429.0,7988.0,0.012222116188518886,-0.13514322132764278,-0.9795429938389147,-0.14860165822142746
-9533.412583589554,-3628.0,-9732.0,-17420.0,4438.0,-4844.0,19524.0,-0.04685093953096715,-0.9052423875181337,-0.39468243673200687,0.15022311220587944
-9533.428175449371,-5292.0,-10312.0,-17812.0,3354.0,-1793.0,24849.0,-0.07015298966786596,-0.7263822270310314,0.6718259336370366,0.1268752662532129
-9533.44381737709,-7280.0,-12240.0,-17348.0,2395.0,-1612.0,28043.0,-0.05048436040993295,0.3468258568217655,0.9360461344631148,-0.03131754381347005
-9533.459420681,-9580.0,-14332.0,-16052.0,2233.0,-4027.0,26715.0,0.11057092470446155,0.9765588295275759,0.05408630142109222,-0.17658311097134385
-9533.475026845932,-10360.0,-15572.0,-13316.0,4632.0,-12999.0,13575.0,-0.007069205763675785,0.4507493045979783,-0.6620393384314884,-0.5987311626293615
-9533.490640640259,-6220.0,-11180.0,-15580.0,6411.0,-25767.0,-12820.0,-0.8758647973593713,-0.057510443906006715,-0.17271535411004454,-0.44690358249067935
-9533.5062353611,3568.0,-3596.0,-22596.0,5853.0,-32768.0,-28298.0,-0.6200294096824462,-0.3441351606387478,0.49761960284010326,0.4995090121411608
-9533.521842718124,12876.0,2248.0,-27964.0,4149.0,-32768.0,-32768.0,0.5634223860361057,-0.13470927091363613,0.35098977861488034,0.7356730269292027
-9533.537441015244,23308.0,6932.0,-24784.0,3210.0,-18185.0,-31899.0,0.9518025613104313,0.06346231588633221,-0.21137638713167745,-0.21298929951620896
-9533.55302810669,27196.0,3984.0,-17876.0,-13128.0,8557.0,-15258.0,0.4171374588513887,-0.27218317757685356,0.3840789133018704,-0.7774291264314884
-9533.568667173386,23108.0,-5296.0,-24112.0,-11349.0,28443.0,2229.0,-0.22891057057571315,0.4611210327135299,0.7840832832843241,-0.3466709516847115
-9533.584277153015,15540.0,-9308.0,-27108.0,-3728.0,32767.0,21983.0,-0.4599424039597847,0.8418551648073526,-0.17836633691606518,0.21890252712571415
-9533.599928617477,6992.0,-7828.0,-23772.0,4108.0,32767.0,27531.0,-0.20021310400822734,-0.09716224466514478,-0.8853436199441016,0.40821671428212686
-9533.61552786827,-2912.0,-3620.0,-20124.0,3252.0,32767.0,22997.0,0.4224581400186349,-0.8499621503127535,-0.3147413915838443,-0.0055963730738061495
-9533.63112616539,-12640.0,-3820.0,-18288.0,3674.0,31088.0,-6448.0,0.5216255051064099,-0.17627159711931276,0.11860141364434915,-0.8262982882428423
-9533.646718502045,-15080.0,-192.0,-16796.0,-1530.0,14106.0,-29787.0,-0.5891777561571422,0.15194021271215777,0.1355372681044915,-0.7819292758078511
-9533.662299156189,-11760.0,24.0,-14656.0,-11048.0,3482.0,-32768.0,-0.8516495982657598,0.17858448370360164,0.3584695510638018,0.3380830148265426
-9533.67788028717,-6112.0,-1640.0,-15884.0,-15415.0,-5257.0,-32768.0,0.1554120508219686,0.1358018983673692,0.24062745223115017,0.94842151393348
-9533.693493127823,2200.0,-4120.0,-18068.0,-14796.0,-7250.0,-32768.0,0.9528345607555262,-0.04552590806937144,-0.20691265376109605,0.217303578520519
-9533.709079742432,9980.0,-1760.0,-16972.0,-13543.0,-2535.0,-32768.0,0.45243880052334556,-0.1631933711650638,-0.2469917510551114,-0.8412265630016137
-9533.724727153778,13824.0,-2772.0,-17840.0,-16246.0,13788.0,-19856.0,-0.34393900580109893,0.23259821280099133,0.44196428326291387,-0.7951550817357802
-9533.740335941315,13056.0,-5976.0,-17348.0,-17988.0,27687.0,5776.0,-0.2089458712637948,0.9434271930545067,0.2400921062706925,0.09296523432773487
-9533.755965471268,8684.0,-13580.0,-18964.0,-13267.0,32767.0,20202.0,0.008850036096506832,0.36371926168791324,-0.576593765776156,0.7315528721878967
-9533.771561145782,1044.0,-13004.0,-18472.0,-7400.0,32767.0,32767.0,-0.047310319572222176,-0.8023977631392379,-0.48963130195981175,0.3379064241950152
-9533.787164926529,-7812.0,-10340.0,-18716.0,-2371.0,32767.0,32767.0,0.05294108283426002,-0.7573785549714537,0.38349005769970623,-0.525842506710103
-9533.802835702896,-15524.0,-8260.0,-16728.0,-2473.0,32767.0,29708.0,0.03913967582772512,0.4330468538814838,0.6541375965844697,-0.618904284081265
-9533.818465471268,-21760.0,-8744.0,-15196.0,-2142.0,22195.0,8654.0,-0.2934829292969496,0.9153429592023534,0.22408008556145653,0.16063359706092195
-9533.834060430527,-23064.0,-9504.0,-13728.0,-3238.0,8420.0,-7927.0,-0.060955585749687256,0.5006533867539886,0.41163295222794577,0.7590710872756115
-9533.849657058716,-20136.0,-11056.0,-13276.0,-2445.0,-3510.0,-18970.0,0.7253221763879445,0.03280557537247304,0.5570045123348142,0.4032090126757988
-9533.865225076675,-13964.0,-9688.0,-12744.0,-1022.0,-8897.0,-15808.0,0.9158856572084506,-0.2600094736684253,0.0017897986574790818,-0.3058518156612424
-9533.880843162537,-7744.0,-8420.0,-12012.0,279.0,-9848.0,-4515.0,0.5836274740636198,-0.36438705912689273,-0.6502919747788853,-0.32205805407899796
-9533.896433353424,-3556.0,-5508.0,-11556.0,-1705.0,357.0,12825.0,0.6031679370150498,-0.7749921299725077,-0.11693922037889196,0.1479893812908937
-9533.912261486053,-6068.0,-9812.0,-16552.0,-3986.0,10448.0,32767.0,0.005301432188687172,-0.4569619920985961,0.8161553091247479,0.35362146991029625
-9533.927983045578,-14032.0,-15260.0,-16756.0,18.0,13173.0,32767.0,-0.5997740713235006,0.4538184049819631,0.657221955962935,-0.04877724129051596
-9533.943567752838,-22396.0,-14344.0,-15384.0,4923.0,3141.0,32767.0,-0.27186659934327856,0.6799839038902942,-0.26887184334711856,-0.6256343776254298
-9533.959167480469,-25344.0,-8440.0,-18936.0,5491.0,-23540.0,-15556.0,-0.7404130277484529,-0.13709062074537245,0.33805489870402994,-0.5645472482496263
-9533.974796295166,-13296.0,612.0,-22024.0,-5545.0,-32768.0,-32768.0,-0.3467350890215426,-0.5626818791516763,0.557136533922366,0.5027551725089794
-9533.990420341492,4072.0,-1836.0,-18204.0,-11793.0,-32768.0,-32768.0,0.49060431110675107,-0.08423253745873277,-0.1346209288815732,0.8567902281561082
-9534.006035804749,12520.0,-10132.0,-17144.0,-5545.0,-19844.0,-17917.0,0.602234011922816,0.5311262860139391,-0.5923434429261033,0.06594170767306017
-9534.02162694931,14452.0,-8884.0,-20388.0,7069.0,-10519.0,14569.0,-0.18023665291713858,0.10718848403506102,-0.9082466690475797,0.36209579671610187
-9534.037207126617,12124.0,1132.0,-19600.0,12229.0,5588.0,24477.0,-0.2372431851470531,-0.8358620025824037,-0.3183853918685946,0.3790529329591005
-9534.052785158157,5624.0,4648.0,-16032.0,5914.0,12293.0,23726.0,-0.09617949366936544,-0.7817309319738145,0.5226788122027022,-0.32627153456473706
-9534.068385362625,-1968.0,416.0,-17184.0,-9019.0,10019.0,9856.0,-0.5023124871614741,0.016255815778682646,0.7739622406908653,-0.38522767771773414
-9534.084005832672,-6872.0,-10792.0,-17424.0,-15290.0,11118.0,-3038.0,-0.6847646118208993,0.4391833157422921,0.41343020733615277,0.4090121089079943
-9534.099582195282,-12068.0,-22880.0,-14700.0,-3156.0,-2133.0,737.0,-0.486003572339025,0.692113343992331,0.3787666394635606,0.3759195120912726
-9534.115207910538,-12140.0,-17080.0,-15960.0,8302.0,-18501.0,-10746.0,-0.0104040206492488,0.26436693308497733,0.9312980497366378,-0.25037137137122545
-9534.130788087845,-5832.0,-1788.0,-15712.0,8919.0,-21406.0,-30794.0,0.2424715106214371,-0.7733471584834437,0.4178143973493873,-0.41057626376851125
-9534.146378278732,1044.0,5884.0,-15268.0,2808.0,-22344.0,-20333.0,0.1829887977109304,-0.7970501474665326,-0.5397968617550729,0.1996134022936876
-9534.161978006363,5188.0,4888.0,-16260.0,-7728.0,-14508.0,-22947.0,-0.24012744833337182,0.15544772059932566,-0.9411966421012294,0.1797879184337706
-9534.177582263947,5920.0,1596.0,-15372.0,-13634.0,-6311.0,-14068.0,-0.17147696212296654,0.8248385518922154,-0.40471764915277203,-0.3555849254927512
-9534.19316983223,5060.0,-12468.0,-18076.0,-8539.0,-505.0,-20077.0,-0.0919083147932243,0.7652310892496997,0.610436733845182,-0.18259582604762326
-9534.208784341812,4872.0,-15604.0,-15864.0,-1123.0,-2435.0,806.0,0.12184035597913172,0.7561184648258861,0.5771088457377082,-0.28352279445489725
-9534.224376916885,2912.0,-11084.0,-16040.0,6239.0,-1529.0,15217.0,0.09313828315457151,0.8841173422696567,-0.3406604029422021,-0.30596123149234833
-9534.240005016327,684.0,-4204.0,-16264.0,5941.0,2559.0,9501.0,-0.025161823658899032,0.5071409735057275,-0.8553409645663876,0.10279469809510043
-9534.255581855774,-1988.0,-12.0,-14580.0,1015.0,3295.0,8943.0,0.07330677583305495,-0.1474274498741256,-0.9583098695523583,0.2335239978227429
-9534.271168231964,-4124.0,-2392.0,-15544.0,-2982.0,4584.0,-82.0,0.3787884128835702,-0.22844226283473096,-0.8942509774116542,-0.06818108399251985
-9534.286800384521,-5992.0,-6464.0,-14664.0,-2362.0,-518.0,-4747.0,0.23830326882314876,0.05514796608444601,-0.8995948714735341,-0.3618001121109091
-9534.302428007126,-4916.0,-7536.0,-15512.0,17.0,-5863.0,-10179.0,-0.37961993519636184,0.46751663963648366,-0.6794909521040745,-0.41905720668331015
-9534.318031787872,-2324.0,-5332.0,-15904.0,318.0,-8821.0,-11894.0,-0.826430970879894,0.513923615337122,0.052787572047280684,-0.22384780590099734
-9534.333612680435,624.0,-4044.0,-15708.0,-242.0,-8004.0,-13591.0,-0.6136269649485838,0.1837897432574633,0.7313180254500425,0.2342161903310617
-9534.349194049835,2732.0,-4116.0,-15192.0,-1548.0,-4631.0,-9856.0,-0.06609750825003252,-0.19301499959853058,0.7978424964991894,0.5672950556042746
-9534.364791631699,3152.0,-5200.0,-15468.0,-1822.0,-2531.0,-4521.0,0.27350612865354573,-0.33548815813058425,0.5827896231333531,0.6877487539146709
-9534.38036942482,2764.0,-7528.0,-15952.0,47.0,197.0,1936.0,0.14652982760915273,-0.24436800171683343,0.638016345862206,0.7153659425569487
-9534.395985841751,1368.0,-6444.0,-15396.0,1841.0,622.0,8662.0,-0.3080327183487335,0.17594709511987572,0.7476787067841704,0.5613688765572225
-9534.411578655243,248.0,-4676.0,-14824.0,1935.0,1717.0,7358.0,-0.6697388920284435,0.42986843009251785,0.5650172077846592,0.21775790277630339
-9534.427170276642,-1528.0,-3996.0,-15056.0,-77.0,1723.0,6620.0,-0.7533688486908389,0.6252748822627991,0.18430282414719024,-0.08659773925947602
-9534.442789554596,-2580.0,-5660.0,-15760.0,-615.0,1207.0,3152.0,-0.6851362145063513,0.6952519471981924,-0.05973438789700278,-0.20891361944976028
-9534.458409547806,-3556.0,-6404.0,-15152.0,482.0,-1312.0,1469.0,-0.6836241440950915,0.6253837825442341,-0.07802532639875004,-0.36805597751060704
-9534.474022865295,-3208.0,-5364.0,-14660.0,798.0,-2653.0,-1260.0,-0.7592531221646763,0.4846292153536996,0.11921108295435631,-0.41768162254245533
-9534.489610671997,-2792.0,-4336.0,-14932.0,-107.0,-2574.0,-3442.0,-0.7989054729863353,0.33929242875008325,0.41126125932090085,-0.2783790035314019
-9534.505226373672,-2036.0,-4824.0,-15136.0,-770.0,-2669.0,-5536.0,-0.7166448821172536,0.11409110700736834,0.6862657287683457,0.04942349395816274
-9534.520848751068,-1020.0,-5700.0,-15220.0,-1536.0,-1771.0,-2794.0,-0.5555535512568566,0.048195871796145734,0.7798562335363233,0.2843618551111312
-9534.536430597305,-620.0,-6572.0,-15452.0,-265.0,-826.0,-1252.0,-0.46290614033531097,-0.0035583265083960216,0.8116332908227583,0.3563097595920508
-9534.552014827728,-720.0,-5448.0,-15228.0,216.0,-275.0,1553.0,-0.4868082991308135,0.10530388469023762,0.8222088988904429,0.27550190262841223
-9534.567595481873,-1104.0,-4924.0,-15428.0,-60.0,316.0,681.0,-0.5239875702561018,0.14886911961782684,0.7995262395249374,0.25304703861620714
-9534.583177089691,-1084.0,-5156.0,-15504.0,-739.0,-30.0,-96.0,-0.5089066353981804,0.17634196353164022,0.7843378332330216,0.3077851713530689
-9534.598784208298,-680.0,-6040.0,-15388.0,-728.0,-261.0,-695.0,-0.4591222676291504,0.16752713260118798,0.7840168662793292,0.3826995644092518
-9534.614379644394,192.0,-6412.0,-15332.0,-382.0,-243.0,1364.0,-0.47858430191156187,0.28216825852998034,0.755286058622046,0.34767960753135396
-9534.630009412766,708.0,-6436.0,-15448.0,601.0,1109.0,5588.0,-0.6582055313161156,0.5293902641310144,0.5274731234995993,0.09101390428797874
-9534.645587444305,692.0,-5468.0,-15600.0,1256.0,3210.0,9918.0,-0.6949399152502557,0.6550716138125939,-0.07740217348124241,-0.2862666563002243
-9534.661181211472,-96.0,-4788.0,-15440.0,1221.0,5004.0,11584.0,-0.2959903781861213,0.4211498725556876,-0.7198793162958828,-0.4656138430469369
-9534.676770210266,-1740.0,-4692.0,-15820.0,947.0,5671.0,9939.0,0.3033135674482755,0.002017804324910894,-0.8972644753215955,-0.3208009812849218
-9534.692359685898,-2908.0,-5112.0,-15392.0,503.0,4494.0,7712.0,0.6866487306518021,-0.3648726316218727,-0.6259132938864496,-0.06011681897616682
-9534.707978725433,-3872.0,-5400.0,-15380.0,704.0,1542.0,2942.0,0.7752135336391532,-0.45589098894358737,-0.425378737785144,0.10129320264979731
-9534.723588466644,-3592.0,-5300.0,-14924.0,372.0,-1212.0,-2001.0,0.7467334563642182,-0.33881540697695084,-0.5717001870745425,0.027425558158854977
-9534.739185333252,-2152.0,-5024.0,-15104.0,-27.0,-2438.0,-4203.0,0.5838279089548283,-0.11530225446938086,-0.7872087567583906,-0.16171807605403846
-9534.754796981812,-720.0,-5472.0,-15192.0,-737.0,-2143.0,-3914.0,0.3476306753282362,0.0797172535602172,-0.8609079315215538,-0.36281621587097
-9534.770390510559,704.0,-6276.0,-15108.0,-462.0,-818.0,-1260.0,0.24704921824907228,0.1331947473640721,-0.8544886439245599,-0.4371212651440213
-9534.786001443863,936.0,-6580.0,-15308.0,255.0,984.0,3110.0,0.4192711510949223,-0.05356785964236069,-0.8454962370745951,-0.3263101275865881
-9534.801570653915,252.0,-5908.0,-15412.0,526.0,2452.0,5405.0,0.6711183755798154,-0.3224016605683496,-0.6615392850362514,-0.08957158910952603
-9534.817230463028,-1472.0,-5188.0,-15172.0,594.0,2880.0,5387.0,0.7898533999360895,-0.5079960884615106,-0.3051026350592525,0.15806316078424368
-9534.832807779312,-3000.0,-5068.0,-14864.0,130.0,1603.0,2269.0,0.7840449940929501,-0.5653948845381617,-0.08970478945057812,0.23990648704337297
-9534.848403453827,-3660.0,-5096.0,-15244.0,-312.0,-649.0,-2278.0,0.7940125165896922,-0.5438941939021809,-0.24769534227413612,0.11122161100298417
-9534.864009857178,-3304.0,-5276.0,-15272.0,-660.0,-2361.0,-5452.0,0.6777228496159855,-0.39820943926790703,-0.5997880564093587,-0.14958365209811972
-9534.879603147507,-1824.0,-5464.0,-15280.0,-754.0,-2980.0,-6063.0,0.3579459440997252,-0.14150994586238358,-0.8402781772531841,-0.3818143805000646
-9534.895226240158,-768.0,-5668.0,-15384.0,-520.0,-2489.0,-5118.0,-0.0015060497416392964,0.12042011797162905,-0.8627075622264125,-0.4911541398372155
-9534.91106557846,236.0,-5616.0,-15440.0,-385.0,-640.0,-1962.0,-0.12763717491788265,0.23684966621959494,-0.8121370468681046,-0.5177300496349446
-9534.926797866821,96.0,-5700.0,-15392.0,-150.0,863.0,966.0,-0.019572623684963018,0.20777623551205485,-0.8297315035427401,-0.517679032207438
-9534.942432403564,-352.0,-5504.0,-15460.0,191.0,1616.0,1846.0,0.17341572262852462,0.14356434047260166,-0.8552363612022683,-0.46678371197739604
-9534.958036661148,-1436.0,-5284.0,-15220.0,132.0,1558.0,2301.0,0.3709218464890575,0.03625824659760849,-0.8415688826226516,-0.39097843821888245
-9534.973619699478,-1796.0,-5364.0,-15120.0,-57.0,797.0,531.0,0.44605402871346644,0.022513862085929585,-0.8128338905164098,-0.37393849214866764
-9534.989202022552,-2284.0,-5320.0,-15244.0,-86.0,-102.0,-912.0,0.40774174924902246,0.08025460013535313,-0.8097702647032498,-0.41421972850033417
-9535.004786729813,-1572.0,-5392.0,-15216.0,-210.0,-505.0,-1406.0,0.31978268480222743,0.15256978119336614,-0.8035459025985491,-0.47830479694894396
-9535.020412921906,-1224.0,-5656.0,-15324.0,-219.0,-545.0,-1235.0,0.231156998043774,0.20885794615639425,-0.787753887699009,-0.5314024962284434
-9535.036060094833,-552.0,-5716.0,-15280.0,-34.0,-65.0,-67.0,0.22409748138090463,0.20979798751433876,-0.7864094477956998,-0.5360273348359494
-9535.051655292511,-444.0,-5768.0,-15420.0,36.0,294.0,1195.0,0.29771817135860124,0.1414641643718816,-0.7997920993019528,-0.5016815509221273
-9535.067270755768,-688.0,-5740.0,-15252.0,193.0,908.0,2182.0,0.44472416680322446,0.0332360960380255,-0.7949203202532885,-0.41136050105684474
-9535.082857608795,-1088.0,-5696.0,-15060.0,308.0,1032.0,2389.0,0.5859259932500432,-0.08142932734456718,-0.7535784502101733,-0.28666969574929824
-9535.098478078842,-1652.0,-5376.0,-14976.0,202.0,816.0,1578.0,0.672199798720736,-0.1526986944398082,-0.6974460640661577,-0.19595797262373768
-9535.11409330368,-1796.0,-5288.0,-15104.0,-154.0,418.0,529.0,0.7031727732380508,-0.1865623972704525,-0.662234379014825,-0.17941056310111644
-9535.129691839218,-1856.0,-5532.0,-15228.0,-208.0,27.0,-408.0,0.6942210082254479,-0.17532301567129896,-0.6636259453315854,-0.21660941022292604
-9535.145351171494,-1768.0,-5692.0,-15252.0,-103.0,-408.0,-616.0,0.6558029397575149,-0.15341024029647932,-0.6945421888615755,-0.252980138091806
-9535.160958766937,-1392.0,-5460.0,-15172.0,64.0,-345.0,-518.0,0.6232037539730232,-0.12589617885048737,-0.7217517138310106,-0.27357210524243303
-9535.176552772522,-1064.0,-5316.0,-15260.0,-85.0,-251.0,-157.0,0.6023131282386962,-0.1266781893404604,-0.7350249299174635,-0.2844466282038972
-9535.192127466202,-1260.0,-5152.0,-15264.0,-131.0,382.0,-31.0,0.6240380939871525,-0.12211343661784907,-0.7117911588317236,-0.29835903213955556
-9535.207744598389,-1080.0,-5556.0,-15368.0,-135.0,543.0,293.0,0.6627934209567604,-0.13343103527556407,-0.6747619036449105,-0.2959686019685573
-9535.223306894302,-1208.0,-5668.0,-15284.0,77.0,668.0,433.0,0.7123261289722287,-0.13700800885650377,-0.6317423009498155,-0.2733531720746052
-9535.238883018494,-1368.0,-5676.0,-15152.0,-27.0,564.0,204.0,0.7467933485478694,-0.1364264265060919,-0.5929996246742634,-0.2684007635078956
-9535.254452466965,-1412.0,-5876.0,-15076.0,252.0,367.0,-26.0,0.7674571807677196,-0.11012560765091098,-0.5750741695807701,-0.2610967746039176
-9535.270043611526,-1448.0,-5540.0,-15256.0,8.0,239.0,-350.0,0.7708878987682176,-0.086658242581642,-0.5624567155532277,-0.2861199742318925
-9535.285630941391,-1420.0,-5480.0,-15212.0,-73.0,115.0,-457.0,0.7637755352193986,-0.06633937339394316,-0.5561069400031239,-0.3209222501142327
-9535.301213026047,-1360.0,-5548.0,-15212.0,-156.0,-124.0,-775.0,0.7332351613561009,-0.04261733546934512,-0.5633564032743866,-0.3783907025262815
-9535.316855669022,-1184.0,-5444.0,-15308.0,-79.0,-332.0,-1170.0,0.674055324628867,-0.0012101655436227937,-0.5832971461306613,-0.4532244412591358
-9535.332463264465,-904.0,-5412.0,-15312.0,-217.0,-169.0,-1251.0,0.6120215226672785,0.04268438870013301,-0.581416405441677,-0.5343806342267665
-9535.348082780838,-952.0,-5568.0,-15204.0,-230.0,198.0,-156.0,0.6152799770250879,0.04748589980060452,-0.559535765005476,-0.553258860635662
-9535.363682985306,-832.0,-5688.0,-15612.0,-72.0,371.0,498.0,0.6566736487803431,0.03711681705401538,-0.5376552488812477,-0.5275688526057364
-9535.379287958145,-1000.0,-5616.0,-15196.0,-105.0,452.0,543.0,0.7017734199225856,0.026325108026728133,-0.5079459863020379,-0.4988105159047765
-9535.394867181778,-1028.0,-5568.0,-15296.0,-44.0,370.0,486.0,0.7382911655203533,0.01809669618011348,-0.484055219491632,-0.4693497725416204
-9535.410447359085,-1480.0,-5504.0,-15216.0,-132.0,101.0,-167.0,0.7356808831468836,0.020699948901295905,-0.47203764469848497,-0.4853098106109252
-9535.42602944374,-1524.0,-5508.0,-15244.0,-297.0,-8.0,-948.0,0.6930523970992807,0.04011882867824041,-0.4568092846860215,-0.556232084552008
-9535.441597700119,-1320.0,-5524.0,-15316.0,-5.0,-265.0,-1243.0,0.6182930480430805,0.07598449826723298,-0.4656522380481177,-0.6285762133309316
-9535.45717549324,-1116.0,-5468.0,-15308.0,-235.0,-271.0,-1045.0,0.5488898558843911,0.09047055337984647,-0.45859240825356573,-0.6929848542143989
-9535.472747087479,-976.0,-5472.0,-15292.0,-266.0,-358.0,-875.0,0.481906408324047,0.09077130720475685,-0.451353560930269,-0.7455244774252032
-9535.488332271576,-928.0,-5552.0,-15260.0,-190.0,-159.0,-587.0,0.43821876728846404,0.09542997117227411,-0.4406072627472866,-0.7776391660742027
-9535.503947734833,-1048.0,-5460.0,-15152.0,-120.0,-157.0,-397.0,0.40587590832857073,0.09541750725243046,-0.43509213573406147,-0.7980320042270003
-9535.519526958466,-1196.0,-5472.0,-15152.0,-144.0,-111.0,-487.0,0.3685057981951842,0.10102395159236177,-0.42475621815682624,-0.8207190707168348
-9535.535096645355,-1292.0,-5492.0,-15388.0,-152.0,-230.0,-727.0,0.3084787571171112,0.1064340349653854,-0.4141541400044392,-0.8496993591416042
-9535.550679206848,-1352.0,-5492.0,-15208.0,-5.0,-301.0,-959.0,0.2256030452885268,0.11827666981927197,-0.4116403580027801,-0.8750234916825657
-9535.566238164902,-1040.0,-5612.0,-15360.0,-104.0,-543.0,-1317.0,0.10571938951569197,0.12124417726054612,-0.39795148212116366,-0.9031931565498112
-9535.581811189651,-1124.0,-5500.0,-15216.0,-146.0,-584.0,-1148.0,-0.0035383929730005217,0.11315117299002166,-0.3775033756549801,-0.9190622901605995
-9535.597409248352,-996.0,-5524.0,-15280.0,-168.0,-441.0,-1032.0,-0.09874513997588845,0.11144310142914648,-0.3521997514441954,-0.924004960786273
-9535.613014936447,-912.0,-5484.0,-15256.0,-209.0,-184.0,-654.0,-0.15484586940195935,0.11846421939821017,-0.32698197102581306,-0.9247009116874484
-9535.62860417366,-1144.0,-5596.0,-15168.0,-166.0,-98.0,-410.0,-0.18890442060716595,0.12461981238618507,-0.3079677868894274,-0.9240892080715645
-9535.644193649292,-1324.0,-5628.0,-15596.0,-77.0,-264.0,-496.0,-0.23491502849792156,0.11802386232975615,-0.2918260219227946,-0.9196319210615213
-9535.659813165665,-1432.0,-5448.0,-15376.0,-92.0,-498.0,-915.0,-0.31880010820628385,0.10306703776155747,-0.26387631504898845,-0.9044959740600764
-9535.67541217804,-1252.0,-5460.0,-15328.0,-133.0,-453.0,-747.0,-0.38589012560222385,0.08821528242731476,-0.23351239767445134,-0.8881322170945596
-9535.69100356102,-1180.0,-5496.0,-15320.0,-137.0,-369.0,-835.0,-0.45563043085173527,0.08126430603670994,-0.20350650178551227,-0.8627758264910169
-9535.706691503525,-1020.0,-5548.0,-15352.0,-101.0,-132.0,-426.0,-0.4889725119514237,0.0831415833313082,-0.18757766368662473,-0.8478254417997523
-9535.7223174572,-956.0,-5556.0,-15180.0,-64.0,143.0,382.0,-0.45763148951275545,0.09045124611049667,-0.19166378330930442,-0.8635143230143661
-9535.737920045853,-1172.0,-5672.0,-15264.0,-256.0,345.0,748.0,-0.3923872628396533,0.11414993459919968,-0.19158169379728737,-0.8923555810292026
-9535.75353217125,-1356.0,-5584.0,-15216.0,97.0,352.0,783.0,-0.325597108016575,0.12510712493792703,-0.21842768033318805,-0.9113858014064468
-9535.76915192604,-1484.0,-5540.0,-15248.0,8.0,196.0,633.0,-0.2711819765841782,0.12849061441406492,-0.2312436040817603,-0.9254603682247406
-9535.784728765488,-1440.0,-5508.0,-15088.0,32.0,42.0,217.0,-0.2531573359406124,0.1270181176599171,-0.23730539772731857,-0.9292275874375784
-9535.80029797554,-1408.0,-5496.0,-15096.0,-22.0,-240.0,-40.0,-0.2611095495157374,0.10913671523091628,-0.22982681798988028,-0.9311770048024923
-9535.815952301025,-1144.0,-5536.0,-15200.0,-57.0,-32.0,224.0,-0.2429944109485861,0.10361004366556639,-0.22665559958650136,-0.937467820394627
-9535.831553936005,-1096.0,-5648.0,-15224.0,-64.0,106.0,413.0,-0.20642445665874568,0.10568466329029451,-0.22733763497014192,-0.9457998178074161
-9535.84712600708,-1136.0,-5684.0,-15372.0,253.0,195.0,865.0,-0.13310163769050687,0.10002481355270687,-0.25897241549256184,-0.951426444204595
-9535.862724542618,-1264.0,-5676.0,-15420.0,195.0,203.0,1376.0,-0.015881711492322977,0.08315058174861825,-0.2875248648439467,-0.9540247397690539
-9535.878315448761,-1144.0,-5448.0,-15168.0,247.0,180.0,1250.0,0.09031758354617596,0.06621009380248452,-0.3156205431845102,-0.9422540158051651
-9535.893944740295,-1224.0,-5344.0,-15044.0,67.0,164.0,1156.0,0.18850219557640052,0.048268140279675964,-0.32505648269820003,-0.9254595571675149
-9535.909523010254,-1132.0,-5520.0,-15344.0,250.0,324.0,1139.0,0.2870169039308945,0.046058342511689464,-0.34305137241534334,-0.8932052853778627
-9535.925270795822,-1056.0,-5668.0,-15196.0,110.0,495.0,1540.0,0.4172712277117719,0.04092080394235036,-0.342255063501828,-0.8408755447960072
-9535.940876722336,-1248.0,-5712.0,-15220.0,196.0,677.0,2369.0,0.5969043356802385,0.026367092887257616,-0.3330325138154769,-0.729451393309076
-9535.95650434494,-1392.0,-5648.0,-15232.0,327.0,692.0,2366.0,0.7494231908171582,0.018188784694866834,-0.31613386404301463,-0.5814580201372976
-9535.972095489502,-1664.0,-5548.0,-15228.0,271.0,456.0,1861.0,0.8440270832304683,0.007474536213650719,-0.299024830945397,-0.445136568437076
-9535.987718820572,-1772.0,-5440.0,-15276.0,169.0,148.0,1084.0,0.8857231078712082,-0.002771472704621431,-0.2942634023901428,-0.3590208143489631
-9536.00331401825,-1600.0,-5496.0,-15268.0,-11.0,-83.0,497.0,0.8982409489250354,-0.019158108635353825,-0.300157109375855,-0.32047133138379025
-9536.018904209137,-1412.0,-5560.0,-15164.0,134.0,97.0,826.0,0.9215646009077275,-0.02770732039290873,-0.2943530113017127,-0.2516094105713049
-9536.034510850906,-1392.0,-5676.0,-15288.0,359.0,182.0,1251.0,0.9483008489899762,-0.027012802022974087,-0.2829408429519926,-0.1412100836391431
-9536.050159692764,-1340.0,-5508.0,-15260.0,393.0,331.0,1215.0,0.9659304577766903,-0.0204915942357751,-0.2560638871497756,-0.031459990507577223
-9536.065764188766,-1308.0,-5408.0,-15004.0,178.0,430.0,1047.0,0.9738156187669255,-0.02778732772078417,-0.21757576461207423,0.05976446868499047
-9536.08138012886,-1660.0,-5500.0,-15348.0,-25.0,279.0,346.0,0.9764571049644757,-0.038157017657313545,-0.1932149604505009,0.08799740465494107
-9536.096958398819,-1644.0,-5612.0,-15272.0,-75.0,-5.0,-184.0,0.9773385139255385,-0.04166877746607347,-0.19498146994742546,0.07110111503657222
-9536.112567424774,-1524.0,-5792.0,-15228.0,-15.0,-50.0,-54.0,0.9766964331613979,-0.04198795681239268,-0.19970911566588556,0.06646320826196817
-9536.12815284729,-1456.0,-5664.0,-15320.0,54.0,-144.0,-170.0,0.9751237009506623,-0.0338452109073028,-0.2124353437305844,0.05347423937740473
-9536.143790245056,-1428.0,-5460.0,-15140.0,-74.0,9.0,-202.0,0.975787696086701,-0.03668559094460261,-0.212773978344001,0.0349252590902282
-9536.159381628036,-1520.0,-5580.0,-15192.0,-242.0,81.0,-553.0,0.9767709569315259,-0.04746265257199924,-0.20828339109954302,-0.016847056062580548
-9536.174966573715,-1500.0,-5712.0,-15116.0,-236.0,-17.0,-606.0,0.97297678191099,-0.05676876993133121,-0.21172928635878974,-0.07255479254063854
-9536.19053196907,-1628.0,-5756.0,-15184.0,-162.0,-235.0,-846.0,0.959519634263492,-0.05648701115967606,-0.23430043201835032,-0.14572095452993636
-9536.206173419952,-1664.0,-5540.0,-15172.0,-124.0,-408.0,-1260.0,0.9282610981807332,-0.0462515197355222,-0.2714520567037298,-0.25001182259598986
-9536.221782684326,-1448.0,-5476.0,-15152.0,-8.0,-420.0,-1503.0,0.8773385469874448,-0.020507449850595327,-0.3087234200257929,-0.36680562754429263
-9536.23740029335,-1272.0,-5564.0,-15180.0,-343.0,-336.0,-1388.0,0.8165104584247207,-0.02016249150348275,-0.32354008857218186,-0.4777300035649101
-9536.252985239029,-1176.0,-5596.0,-15176.0,-343.0,-197.0,-1288.0,0.7514268637675532,-0.01652005562225996,-0.323551782998861,-0.5748034445694934
-9536.268590927124,-1240.0,-5648.0,-15204.0,-174.0,34.0,-971.0,0.7008026423756812,0.001017876285456012,-0.3130706418524156,-0.6409847061960583
-9536.284187555313,-1320.0,-5716.0,-15268.0,-496.0,181.0,-413.0,0.6815053692030868,-0.008045484333950314,-0.27398535145114583,-0.6785408824230036
-9536.299818992615,-1504.0,-5632.0,-15164.0,-154.0,149.0,-489.0,0.655286001280724,0.0031287351921660397,-0.25627842204231166,-0.7105714868590769
-9536.315464019775,-1364.0,-5576.0,-15248.0,-136.0,-254.0,-819.0,0.5971333722406877,-0.0022496402782090945,-0.261604292169788,-0.758280864319697
-9536.331104755402,-1548.0,-5524.0,-15292.0,-198.0,-214.0,-1150.0,0.5133490157668251,-0.0006221190834767327,-0.25870618066426493,-0.8182563858994238
-9536.34668302536,-1440.0,-5564.0,-15272.0,-245.0,-357.0,-1486.0,0.3955489825983278,-0.0036351013433812192,-0.25517530690221557,-0.8822773663372598
-9536.362292051315,-1076.0,-5604.0,-15152.0,-283.0,-225.0,-1506.0,0.2720008199053295,0.0026761997746789458,-0.23965239404562652,-0.9319737775033129
-9536.377880811691,-1184.0,-5884.0,-15176.0,-160.0,-57.0,-846.0,0.20144974634513935,0.01186482814274968,-0.2273134270615276,-0.9526834896376475
-9536.393506526947,-1204.0,-5720.0,-15124.0,-159.0,117.0,-434.0,0.16768457990809485,0.027425745481635896,-0.2115522965323432,-0.9624839406336678
-9536.409076213837,-1260.0,-5620.0,-15276.0,-127.0,134.0,-164.0,0.15661902580422649,0.03997229671179515,-0.19860048113422718,-0.9666594773471022
-9536.424726963043,-1328.0,-5548.0,-15204.0,-134.0,169.0,-16.0,0.15859925761419372,0.052857335349441745,-0.1849683650744372,-0.9684209216583836
-9536.440309286118,-1416.0,-5584.0,-15192.0,231.0,52.0,-179.0,0.14314875232146398,0.0635516409788463,-0.20289720855125115,-0.9665931648836619
-9536.455909729004,-1456.0,-5440.0,-15232.0,-195.0,254.0,-368.0,0.11752510731658454,0.08922064183091637,-0.18114508357399062,-0.9723240123119847
-9536.471519947052,-1424.0,-5516.0,-15216.0,-214.0,40.0,-262.0,0.09749147788346452,0.09480390980116518,-0.16046998310860336,-0.9776282601007578
-9536.487121343613,-1368.0,-5808.0,-15336.0,-247.0,-25.0,-575.0,0.04999337012810077,0.09876243435536326,-0.13458739117736285,-0.9846993849086678
-9536.502709388733,-1268.0,-5876.0,-15228.0,-33.0,-174.0,-176.0,0.033049322840103854,0.08599724451954358,-0.13084357128595003,-0.9871130513006071
-9536.5183198452,-1100.0,-5564.0,-15192.0,86.0,-4.0,311.0,0.05907964586185172,0.08260140671348067,-0.140424708950084,-0.9848692827832923
-9536.533953428268,-1100.0,-5516.0,-15268.0,-113.0,172.0,590.0,0.11250053057887299,0.08972414657654391,-0.13378308676673267,-0.980507671482354
-9536.549547672272,-1208.0,-5588.0,-15304.0,-205.0,354.0,892.0,0.19381339966494102,0.10747481018465124,-0.11919325211802904,-0.9678215227693684
-9536.56515622139,-1376.0,-5756.0,-15172.0,-107.0,331.0,785.0,0.2637766298063242,0.1253695332137626,-0.11144619649797854,-0.9498863695179095
-9536.580746889114,-1540.0,-5692.0,-15132.0,-21.0,46.0,721.0,0.3235310377240442,0.12170955657111977,-0.1161394179579736,-0.9311423559611322
-9536.596331596375,-1624.0,-5588.0,-15220.0,-37.0,-234.0,221.0,0.33932683536879293,0.09963075517277643,-0.1218793474357955,-0.9274030602121857
-9536.611957788467,-1528.0,-5480.0,-15176.0,-110.0,-358.0,18.0,0.33770854846410325,0.06741269094271632,-0.12350242881073648,-0.9306748172546515
-9536.627591609955,-1392.0,-5520.0,-15224.0,-149.0,-484.0,-93.0,0.3254573687537298,0.02486500954108225,-0.12478702393917551,-0.9369564723512102
-9536.643218040466,-1352.0,-5620.0,-15128.0,-149.0,-68.0,180.0,0.3396841483322157,0.013137467213096209,-0.11464501791445574,-0.9334337717237556
-9536.658829689026,-1352.0,-5712.0,-15232.0,-152.0,-13.0,548.0,0.3839118033858084,0.0020522007931838906,-0.10287128022323064,-0.9176192104561642
-9536.674444913864,-1380.0,-5652.0,-15244.0,-64.0,119.0,647.0,0.43610244814109556,0.0035279414570932336,-0.09343534390627055,-0.8950262816607876
-9536.690031766891,-1440.0,-5568.0,-15232.0,-22.0,200.0,732.0,0.49385659063886445,0.012207480347901567,-0.08385814462023289,-0.8654042158939168
-9536.70562672615,-1500.0,-5472.0,-15336.0,-127.0,267.0,744.0,0.5508107108798512,0.021296598080456156,-0.06310158998379714,-0.831968872633916
-9536.721237897873,-1540.0,-5508.0,-15580.0,-175.0,242.0,225.0,0.5685105467840538,0.02910411432436632,-0.03885212855577009,-0.8212424860121257
-9536.73687696457,-1560.0,-5500.0,-15176.0,-163.0,507.0,335.0,0.5937559962473399,0.05606082544090601,-0.0025435855195323886,-0.8026858233106637
-9536.752505540848,-1584.0,-5564.0,-15304.0,-119.0,278.0,303.0,0.6151779981251637,0.06923333732741509,0.01902978717280521,-0.7851118664403068
-9536.768104076385,-1596.0,-5564.0,-15128.0,-139.0,225.0,28.0,0.6173702625063066,0.07720765802489421,0.04078097516583171,-0.7818119010220612
-9536.783733844757,-1568.0,-5520.0,-15284.0,-233.0,234.0,-239.0,0.6013863101495875,0.07972537012482542,0.07117757900484475,-0.7917778246264117
-9536.799344301224,-1516.0,-5524.0,-15184.0,-242.0,163.0,-440.0,0.5710094174446272,0.07548437530205716,0.099734520119722,-0.8113589709686425
-9536.814960241318,-1400.0,-5568.0,-15400.0,-241.0,165.0,-362.0,0.545037370776743,0.07195499423626868,0.12762389093096055,-0.8255112874606114
-9536.830680847168,-1240.0,-5568.0,-15196.0,-103.0,213.0,-53.0,0.5393273867679688,0.08179283137164775,0.14579799051463962,-0.8253355975481342
-9536.846246480942,-1252.0,-5584.0,-15296.0,-22.0,288.0,149.0,0.5462815880282414,0.1033653157924457,0.1601308217645272,-0.8156286887999268
-9536.86183977127,-1308.0,-5560.0,-15224.0,-20.0,335.0,292.0,0.5620827419975113,0.1302673303788824,0.17507737532774117,-0.797772728559248
-9536.877420902252,-1460.0,-5532.0,-15312.0,-63.0,284.0,201.0,0.5721137934045409,0.1499992775178912,0.19133158128375638,-0.783312357967008
-9536.893012523651,-1452.0,-5608.0,-15240.0,-77.0,193.0,93.0,0.5760685316629377,0.1609281624291721,0.20528366260793815,-0.7746649541777059
-9536.908614635468,-1516.0,-5648.0,-14892.0,-97.0,33.0,-211.0,0.562379718260938,0.15453266980657596,0.2167266730063535,-0.7828654135027278
-9536.924731016159,-1532.0,-5576.0,-15328.0,-253.0,-88.0,-320.0,0.5451556743743835,0.13002820029422094,0.23415997637113223,-0.7943972956219878
-9536.940331220627,-1428.0,-5528.0,-15268.0,-142.0,-179.0,-486.0,0.5160949430875046,0.10086580779909489,0.24104917060844258,-0.8157005552808722
-9536.955936908722,-1276.0,-5628.0,-15276.0,-178.0,-173.0,-368.0,0.4946681041624048,0.07276144249114956,0.249292870572909,-0.829374646280255
-9536.971524000168,-1112.0,-5592.0,-15232.0,-172.0,-12.0,-90.0,0.48937364930527666,0.06250289064386906,0.262069124708654,-0.8294134034974578
-9536.98710989952,-1200.0,-5664.0,-15164.0,-153.0,45.0,140.0,0.49916258039846656,0.062412200550541655,0.2745645477300467,-0.8194850484799453
-9537.0026948452,-1216.0,-5648.0,-15308.0,-156.0,135.0,441.0,0.5277702225225223,0.07576232505634102,0.2892471013391917,-0.7950187272558176
-9537.018322467804,-1396.0,-5632.0,-15160.0,-244.0,234.0,747.0,0.5737571012104464,0.09935893079840344,0.31152314899248346,-0.7509220461026501
-9537.033984184265,-1564.0,-5696.0,-15176.0,-245.0,88.0,411.0,0.5997919661739388,0.1039450548716912,0.3284283578788166,-0.7222048439479937
-9537.049568653107,-1812.0,-5512.0,-15240.0,-217.0,-157.0,360.0,0.6283743408695555,0.09295104859604814,0.33067206636067903,-0.6979697520884452
-9537.065193414688,-1948.0,-5460.0,-15008.0,-398.0,-636.0,-436.0,0.6215284234893144,0.01975741402614318,0.3229557970395093,-0.7134505004164355
-9537.08078455925,-2020.0,-5532.0,-15324.0,-354.0,-990.0,-1935.0,0.5199794560873667,-0.11356354555441336,0.28964225630348023,-0.7955074165157895
-9537.096364974976,-1368.0,-5480.0,-15544.0,-344.0,-994.0,-1301.0,0.4465942576433678,-0.22873493936723716,0.25313027087365253,-0.827139022486587
-9537.111993074417,-1024.0,-5492.0,-15236.0,-295.0,-793.0,-1006.0,0.3830625567416612,-0.3177647954625504,0.22223638059656456,-0.8383910802999541
-9537.127611160278,-832.0,-5476.0,-15360.0,-52.0,-144.0,431.0,0.4155887943455917,-0.3216179502061373,0.23321676822680154,-0.8182040009297353
-9537.143290042877,-944.0,-5536.0,-14892.0,-123.0,0.0,928.0,0.47677190652686346,-0.306362830666536,0.2673754906374305,-0.7793206734965527
-9537.158879756927,-1276.0,-5684.0,-14956.0,-216.0,605.0,1868.0,0.5753766037773954,-0.22744652022034115,0.3522071745232911,-0.702253480218908
-9537.174468517303,-1892.0,-5812.0,-15120.0,-67.0,593.0,1343.0,0.6328554073086174,-0.15208853271415232,0.4096371033978917,-0.6391874178806127
-9537.190054893494,-2344.0,-5648.0,-15256.0,-107.0,-77.0,266.0,0.648706006347582,-0.15283524143956667,0.4150099828196513,-0.6193453160093428
-9537.2056350708,-2400.0,-5888.0,-15456.0,-79.0,-517.0,-1136.0,0.6013096078693718,-0.22515534210307936,0.3729165112578399,-0.6698246808215632
-9537.221274137497,-2076.0,-5348.0,-15484.0,-96.0,-1221.0,-2213.0,0.4977482917502078,-0.3649227125104272,0.26486670723570194,-0.740893838111709
-9537.236899852753,-1424.0,-5124.0,-15672.0,-18.0,-1280.0,-2049.0,0.3857544960962573,-0.4853419075484014,0.14227344174400514,-0.7716184091201537
-9537.252523422241,-1040.0,-5280.0,-15504.0,70.0,-472.0,-584.0,0.354461406136527,-0.5211247167521205,0.09688349554857736,-0.7703244312885494
-9537.268074274063,-928.0,-5216.0,-15576.0,295.0,181.0,426.0,0.39451155588304754,-0.49591089640025343,0.10203981811537925,-0.7668252021322817
-9537.283649682999,-940.0,-5104.0,-15412.0,280.0,675.0,1153.0,0.4743938426915608,-0.4280620420720393,0.15547611998959676,-0.7533528696875263
-9537.299278736115,-1292.0,-5332.0,-15192.0,81.0,1084.0,1598.0,0.5598214213564549,-0.32737895675592765,0.2513412206003844,-0.7185058007357686
-9537.314852237701,-1748.0,-5844.0,-15280.0,237.0,977.0,1509.0,0.6318573520943345,-0.21891895929726635,0.3235153789415707,-0.6694539382607516
-9537.330503702164,-1796.0,-5836.0,-15352.0,415.0,751.0,1140.0,0.6798531881254565,-0.11921694274910222,0.3599316221566855,-0.6277230205503593
-9537.346089363098,-2148.0,-5544.0,-15164.0,743.0,170.0,362.0,0.7000948012899151,-0.0544200547808455,0.33246572409371616,-0.6295810266735531
-9537.361680746078,-1964.0,-5316.0,-15192.0,327.0,-71.0,-479.0,0.6764296723370967,-0.0522599262638634,0.30778183065781833,-0.6670698188388869
-9537.377338409424,-1744.0,-5244.0,-15072.0,181.0,-82.0,-911.0,0.6242886863219101,-0.07067129400357143,0.28759537229436993,-0.7228818065003347
-9537.392922878265,-1432.0,-5440.0,-15296.0,71.0,-41.0,-707.0,0.5799733357707711,-0.08706482155664136,0.2762823377635584,-0.7613926165140672
-9537.408539295197,-1260.0,-5528.0,-15080.0,54.0,293.0,333.0,0.5949312444137662,-0.05690181894601918,0.29012070973280984,-0.7474282381640747
-9537.424133062363,-1380.0,-6128.0,-15304.0,-236.0,87.0,-225.0,0.5765606904955479,-0.06923846318005215,0.30906806676329346,-0.7531671364969147
-9537.439753293991,-1200.0,-5764.0,-15140.0,358.0,255.0,876.0,0.6270651148821986,-0.01089863434244847,0.3028481314168742,-0.7176026552100767
-9537.455338001251,-1340.0,-5616.0,-15160.0,188.0,903.0,982.0,0.6602444579107906,0.08125481201760644,0.33938098675388906,-0.6650529731923814
-9537.470901727676,-1660.0,-5884.0,-15504.0,218.0,788.0,324.0,0.652141633530754,0.14868290846828447,0.36904670310109305,-0.645297771168834
-9537.486468076706,-1692.0,-5784.0,-14788.0,209.0,857.0,498.0,0.6472252516074246,0.22400909768979188,0.3983261602668404,-0.6101275832815517
-9537.502054691315,-1736.0,-5628.0,-15444.0,121.0,960.0,760.0,0.648082751253366,0.30665440433762603,0.4290607841754543,-0.5494166609331645
-9537.517673492432,-1676.0,-5464.0,-14824.0,-52.0,961.0,30.0,0.6125939051707743,0.3497427127397952,0.4836528462716921,-0.5181589201454709
-9537.533304214478,-1528.0,-5576.0,-15356.0,83.0,1207.0,-1069.0,0.5055837773542537,0.3601409257248934,0.5716339683783905,-0.5365800628892153
-9537.548891305923,-1528.0,-5920.0,-15980.0,479.0,1324.0,-875.0,0.3793567470122997,0.3955469193025551,0.628783089498467,-0.5516003258585573
-9537.56451010704,-952.0,-5560.0,-14712.0,681.0,2526.0,1636.0,0.28562037741339547,0.6078234545950622,0.6019053573651751,-0.4320666485919212
-9537.580078601837,-1216.0,-5400.0,-15232.0,842.0,3977.0,2213.0,0.10687554060283122,0.8298642067450505,0.5118437821665092,-0.1947279123334497
-9537.595654726028,-1868.0,-5192.0,-15140.0,418.0,4987.0,1643.0,-0.10770559664756056,0.9011871353111652,0.3927905366834206,0.14824589671353172
-9537.611239433289,-2632.0,-5888.0,-15296.0,282.0,5333.0,-107.0,-0.2822293977861585,0.7486506322628202,0.32151926668757225,0.5064525239214704
-9537.626852273941,-2976.0,-6264.0,-15288.0,611.0,5188.0,-2059.0,-0.33830289221574816,0.40117760466225677,0.31906257592826154,0.7891810662186063
-9537.64245557785,-2760.0,-6172.0,-15928.0,682.0,5615.0,-5232.0,-0.13127825180248764,-0.12543110404296975,0.3182858015953955,0.9304446287904621
-9537.65804386139,-1332.0,-6256.0,-15864.0,-313.0,6940.0,-7125.0,0.18962032540761986,-0.6670328377725834,0.10230948801567706,0.7131928870840851
-9537.673620223999,-124.0,-7088.0,-15856.0,-1057.0,9731.0,-5945.0,0.29083956730351446,-0.9501122741492524,-0.10507221946769764,0.0407288754788626
-9537.68920969963,516.0,-7768.0,-16888.0,-1517.0,13387.0,-1306.0,0.18878890415754399,-0.6618421917754344,0.07815952917479402,-0.7212591426471193
-9537.704796552658,-124.0,-7640.0,-19076.0,-2339.0,16490.0,3367.0,0.0856515580809775,0.20145277785265805,0.38674688238326493,-0.8958277947577724
-9537.720399141312,-1308.0,-7024.0,-24200.0,-2343.0,19211.0,2164.0,-0.17869239680794455,0.891948520431356,0.34267679943440915,-0.23466886319394126
-9537.736061096191,-2896.0,-7820.0,-27388.0,-4706.0,20333.0,403.0,-0.19826441269624961,0.6706998120319075,0.04363600487132262,0.7134065347874555
-9537.751711130142,-2996.0,-10640.0,-27176.0,-3844.0,21720.0,-204.0,-0.019965825496897183,-0.2838092850675429,-0.2580103374486764,0.9233007750951461
-9537.767325401306,-2976.0,-12996.0,-25320.0,-953.0,24322.0,5040.0,0.04102714423284271,-0.9860679987716782,-0.10575390913917726,0.12166670019482756
-9537.782907009125,-5584.0,-13348.0,-20408.0,1925.0,23625.0,13216.0,0.11073269481855694,-0.525852699825621,0.44210207789228584,-0.7181663881773144
-9537.798504114151,-9924.0,-11088.0,-16932.0,6367.0,19603.0,9712.0,0.11475703143031132,0.511749259908405,0.30482049738513073,-0.795001876157776
-9537.814092636108,-12828.0,-5848.0,-11760.0,6318.0,12907.0,5403.0,-0.08127542926875529,0.9655637835838512,-0.1467440833953514,-0.19886442219983796
-9537.829685688019,-13448.0,-3080.0,-8080.0,3654.0,9051.0,2747.0,-0.1690277557185369,0.7949586231647541,-0.3788600612707036,0.4426459750485845
-9537.845297574997,-15188.0,-1904.0,-6208.0,907.0,6843.0,20689.0,-0.37439103325587403,-0.0776594112563806,-0.8744446191440944,0.2985749120586845
-9537.860887050629,-18788.0,-4320.0,-6028.0,509.0,889.0,19093.0,-0.4116122568923865,-0.8093825355798865,-0.39097476288398675,-0.15037950612380785
-9537.87651348114,-20808.0,-4564.0,-6940.0,123.0,-10107.0,9554.0,-0.3957438294308817,-0.8090487099121616,0.41036512265386943,0.1429247094316542
-9537.892096042633,-18588.0,-5684.0,-8232.0,-3161.0,-20844.0,1791.0,0.05021398832007738,-0.17889080366017604,0.5796292610930569,0.7934144915663717
-9537.907692193985,-13388.0,-9192.0,-11260.0,-4073.0,-28207.0,-3227.0,0.6073728946162302,0.591001608349502,0.04586342492291544,0.5288778801085785
-9537.92390871048,-6900.0,-12732.0,-14896.0,-783.0,-31742.0,-1211.0,0.2817242422999273,0.6817622384004589,-0.5462876226369635,-0.3967386229564526
-9537.939536094666,-848.0,-13324.0,-17140.0,2431.0,-29976.0,8261.0,-0.3470099629727375,-0.23802604683800446,-0.6410938859003245,-0.6418148612221076
-9537.955126047134,1832.0,-12656.0,-18368.0,4696.0,-25506.0,18693.0,-0.212341655774689,-0.9632249421772395,0.08656260037927947,-0.14005587530016048
-9537.970704555511,1092.0,-11028.0,-18532.0,5526.0,-22854.0,25954.0,0.23084614865861905,-0.35725244838543685,0.8160550760986467,0.391324490091951
-9537.986434698105,-1252.0,-8684.0,-18884.0,5225.0,-23060.0,23501.0,0.40094345929846237,0.7181299917066192,0.4104636571173204,0.39376800738900564
-9538.002047777176,-2992.0,-5648.0,-18740.0,2872.0,-23836.0,14635.0,0.21573959841519022,0.815932416482376,-0.4687132023826342,-0.26080385603188205
-9538.017627477646,-3620.0,-5088.0,-20016.0,-969.0,-26166.0,4848.0,-0.26700749491951914,0.001546434557071221,-0.5077399765295142,-0.8190877379321291
-9538.033345460892,-3168.0,-6304.0,-21212.0,-3553.0,-29058.0,-4186.0,-0.6696522111408245,-0.6529977525082433,0.15308318095967932,-0.31894418170058153
-9538.048922300339,-1084.0,-8776.0,-21164.0,-4188.0,-30624.0,-11954.0,-0.2717649933265323,-0.46417721436245307,0.450357911427626,0.7126437073906495
-9538.064546585083,2608.0,-10988.0,-20784.0,-401.0,-30904.0,-11978.0,0.54620261937062,0.32558666052685115,0.21996559851161357,0.7397777778164699
-9538.080104112625,6572.0,-9788.0,-19992.0,4029.0,-28994.0,-4988.0,0.47164714161506455,0.8258174065401043,-0.27371000883804075,-0.14372687961406203
-9538.09576845169,9588.0,-5720.0,-18960.0,5821.0,-22234.0,2890.0,-0.19639855184688626,0.31814593753644776,-0.6518958626004343,-0.6597291532029916
-9538.1113717556,10764.0,-2804.0,-18060.0,4406.0,-11951.0,9442.0,-0.2664573171179554,-0.5756076701925738,-0.564100918595398,-0.5286458756195934
-9538.126964330673,8708.0,-2576.0,-16392.0,2525.0,-3183.0,16125.0,0.25408292115079073,-0.8936889002052661,0.11539763399020879,-0.35134798263095895
-9538.142627000809,4924.0,-4364.0,-15704.0,947.0,2211.0,15152.0,0.46084253232450656,-0.3904943620295357,0.78817294011979,-0.11799038133173485
-9538.15822172165,688.0,-5732.0,-13984.0,-251.0,3743.0,12376.0,0.21355175510901478,0.32433975198531534,0.9040370950821464,0.17865134728682502
-9538.173815011978,-3104.0,-8004.0,-13156.0,-1040.0,2025.0,3334.0,0.029361776738321868,0.505965006496414,0.7840466731558116,0.35834077716770774
-9538.189402103424,-4892.0,-9488.0,-12924.0,-294.0,-3449.0,-6367.0,0.40353590821148105,0.14992845540151647,0.8850467404850989,0.17712282800800283
-9538.20500421524,-3716.0,-8320.0,-12688.0,836.0,-7466.0,-14528.0,0.6849074490682637,-0.4747606222161156,0.4734707974098103,-0.2851833476973875
-9538.220598459244,-392.0,-5196.0,-12484.0,431.0,-7827.0,-17074.0,0.3130008533208744,-0.7026913827019493,-0.37088576153517244,-0.5202874574572236
-9538.236164093018,2404.0,-3464.0,-12680.0,-843.0,-4363.0,-15593.0,-0.33932734415263444,-0.24203183920692664,-0.8126395371563211,-0.40730151604283577
-9538.251778125763,3956.0,-2928.0,-13496.0,-2153.0,1053.0,-9637.0,-0.4930974159277453,0.41003523421629234,-0.7337990263453321,-0.22419864861593852
-9538.267339468002,3588.0,-3668.0,-14440.0,-2766.0,6888.0,-3158.0,-0.0119214323654974,0.7081972955594044,-0.7057470416950872,-0.015348718230955714
-9538.282916784286,1308.0,-4892.0,-14584.0,-2206.0,10052.0,1825.0,0.5510533780123995,0.45180682045287135,-0.6102728073604453,0.3460893991005667
-9538.29848241806,-1340.0,-4416.0,-13444.0,-1311.0,11243.0,5237.0,0.7058153512035149,-0.15540466389843557,-0.21373133225036045,0.6572617424272915
-9538.31407380104,-4072.0,-3692.0,-12772.0,-1534.0,11613.0,6304.0,0.3523951651404974,-0.6746942593927648,0.325597410724672,0.5608846851692774
-9538.32966184616,-6584.0,-3444.0,-11976.0,-1358.0,10769.0,5322.0,-0.20227221651903982,-0.751541988269017,0.6216161496843354,0.08867893066985764
-9538.345295906067,-8208.0,-3036.0,-13760.0,-2307.0,6420.0,2023.0,-0.609419046250791,-0.5529306210608798,0.5294089738837336,-0.2064032284906856
-9538.360888242722,-7496.0,-2708.0,-13740.0,-5086.0,3324.0,-9417.0,-0.8421086045360415,-0.4702580803169331,-0.007248707180414239,0.2639278164711073
-9538.37651014328,-4860.0,-3728.0,-13328.0,-7154.0,-3265.0,-18996.0,-0.3408190043596735,0.06936501825669258,-0.346536355536437,0.8711736077275607
-9538.392088413239,128.0,-4260.0,-14760.0,-7381.0,-2936.0,-30403.0,0.6599802067061774,0.49044639758760006,-0.21809957937387145,0.5256624690106358
-9538.407694101334,10744.0,-4128.0,-16972.0,-18747.0,32767.0,32767.0,0.13021703797913686,-0.606843290832679,-0.13262104226798835,0.7727848358625168
-9538.423341751099,-32768.0,-32768.0,-32768.0,-12091.0,32767.0,32767.0,-0.5446426721891295,-0.77569965643195,0.26979660064057337,-0.16989466420353036
-9538.438937187195,-32768.0,-22476.0,-15468.0,22480.0,-20265.0,-16570.0,0.3809771559205426,-0.7988296021638691,-0.06999182404963712,0.46024864794979436
-9538.454516172409,-26652.0,-1152.0,-28500.0,32767.0,-29247.0,-32768.0,0.7783647333544096,0.3408653771907841,-0.41154819191960046,0.32952575351618735
-9538.470131874084,-2908.0,10384.0,-1912.0,12108.0,-31942.0,-32768.0,0.05017239113701385,0.7667366424272896,-0.29600851119559407,-0.5674298314564447
-9538.485711336136,3404.0,9472.0,-22172.0,-5971.0,-32768.0,3882.0,-0.06611278011435216,-0.3176304490633163,-0.1305501558011063,-0.9368546605283524
-9538.501346349716,11740.0,7440.0,-16544.0,-15068.0,-20101.0,-14958.0,-0.7063081978249084,-0.6217521987650876,0.2928448300901405,-0.16969041960460202
-9538.516925573349,16480.0,5400.0,-15480.0,-19915.0,7214.0,-21903.0,-0.8080930361225652,0.05373333749598765,-0.36791755590665537,0.45687530625700246
-9538.53259396553,17096.0,3652.0,-11756.0,-28144.0,11507.0,28603.0,-0.3830102222616158,0.1750926116587089,-0.6447114282529783,-0.637959968388021
-9538.548173189163,13040.0,-17076.0,-23460.0,-22346.0,32767.0,-947.0,0.4854568572118867,0.7768644940345506,-0.13357512952805958,-0.37811490643184353
-9538.563788414001,6608.0,-20776.0,-20232.0,-6535.0,32767.0,32767.0,0.5687671712151768,0.285215109837566,-0.17865997413670132,0.7504910790340577
-9538.579342603683,-8000.0,-20540.0,-25644.0,15307.0,32767.0,32767.0,-0.3308938003659538,-0.3684892204960236,0.37360904753750795,0.7843094203538072
-9538.594934463501,-20992.0,-6220.0,-15436.0,22583.0,26503.0,27102.0,-0.5840641558315768,-0.49046174610314924,0.5091194439563471,-0.3988906231885848
-9538.610532283783,-26708.0,-5076.0,-11740.0,22650.0,7709.0,-23057.0,-0.24762546248285514,-0.7827660810399403,-0.5409679487818068,-0.18251731724505016
-9538.626175880432,-21432.0,240.0,-11652.0,14041.0,-16817.0,-29854.0,-0.1649257787236849,0.016413854238728584,-0.7214277912876449,0.6723630082472162
-9538.6418030262,-13400.0,4324.0,-15728.0,3408.0,-31242.0,-32768.0,-0.05240291700632518,0.9454548263811108,-0.00611062557284962,0.3214525871991082
-9538.657380104065,-1824.0,6760.0,-16536.0,-8179.0,-32768.0,-32768.0,0.36063920565736485,0.45414000334012633,0.6193684392226898,-0.5292248644989238
-9538.67296218872,7892.0,8092.0,-15108.0,-19103.0,-30612.0,-28143.0,0.35768795675188925,-0.7486814235864008,0.401680413782779,-0.38754134844503296
-9538.688546419144,12636.0,6580.0,-16440.0,-29063.0,-16498.0,-8068.0,-0.3908118314382869,-0.7894335254944983,0.108261100674519,0.4608040313559777
-9538.704120397568,13764.0,-2640.0,-20396.0,-32768.0,12498.0,-32768.0,-0.33638086414864476,-0.11241048258906867,-0.9040846890808502,0.23841701409145713
-9538.719717979431,11368.0,-18844.0,-16944.0,-11861.0,14677.0,30463.0,0.021842501546813685,-0.7532507223374691,-0.39073090115520265,-0.5286450768773902
-9538.73532986641,7160.0,-26968.0,-22640.0,9487.0,15549.0,32767.0,0.7855564079180544,-0.33180198980478515,0.3961505827757666,-0.3404016529144493
-9538.750901460648,-6616.0,-7512.0,-15772.0,17117.0,14068.0,32579.0,0.4922438697046281,0.6662420318137641,0.5014885412729659,0.24965330110934544
-9538.76648926735,-11976.0,1436.0,-14644.0,15119.0,12089.0,-9504.0,-0.3326140692519693,0.29859557492812855,0.8928384493344032,-0.05520930138233091
-9538.782074213028,-12968.0,2744.0,-13480.0,2037.0,-2568.0,-11227.0,-0.1675592842801926,-0.4533255544861707,0.8748862038546771,0.031527102722386256
-9538.797659635544,-9688.0,2812.0,-13028.0,-7264.0,-15081.0,-14455.0,0.33881116271759615,-0.6482503007664195,0.23158844846821766,0.6413620928229863
-9538.813226938248,-4776.0,336.0,-15760.0,-14724.0,-15089.0,-29507.0,0.44058065080086145,-0.2517957767620173,-0.8158746546377091,0.27719329873664056
-9538.828809261322,1776.0,-15628.0,-19376.0,-10625.0,-6189.0,-32768.0,0.17390232079197085,0.5670296380006903,-0.6319832025939133,-0.4988312380867036
-9538.844405412674,5596.0,-13688.0,-14540.0,1414.0,-11753.0,3425.0,-0.26920077391809316,-0.07633976281568201,-0.7091941338799279,-0.6471065325009817
-9538.860063314438,6740.0,-5588.0,-16216.0,6741.0,-3258.0,22675.0,0.36978060635993215,-0.7882926814037978,-0.3730770840672226,-0.32042228535042594
-9538.875646591187,3808.0,-356.0,-15892.0,2146.0,10036.0,10910.0,0.6982217209711561,-0.48237025952193047,0.38962779432258277,-0.3577646474767198
-9538.89127254486,-864.0,-556.0,-14260.0,-3403.0,12120.0,18608.0,0.32879776440422764,0.1459259656573959,0.9168028755381287,0.17340741066850895
-9538.906842947006,-5624.0,-5496.0,-15680.0,-4584.0,11587.0,7811.0,-0.4045750653207817,0.2851531905804057,0.6641349930704539,0.5602958016992527
-9538.922717094421,-8344.0,-9052.0,-14388.0,-894.0,4326.0,7282.0,-0.7938630885840884,0.4232525822115025,0.2299415245460554,0.3711678104637617
-9538.938334465027,-8000.0,-6960.0,-15492.0,1292.0,-295.0,-1337.0,-0.7818482502117147,0.3125639601410874,0.3370523318987356,0.42120400048364376
-9538.95398926735,-6020.0,-3444.0,-14852.0,363.0,-2512.0,-7604.0,-0.35908386090523786,0.12839819531643845,0.5976046975674432,0.7052951933213455
-9538.969603061676,-3136.0,-2752.0,-15136.0,-2454.0,-2547.0,-8618.0,0.257474673257482,-0.06778190451242826,0.48354237717864046,0.8338460142760474
-9538.98521900177,-808.0,-5504.0,-15744.0,-2379.0,183.0,-12456.0,0.7656658103495887,-0.44266519390644,0.16161194676658422,0.4378184231251542
-9539.000859737396,756.0,-6964.0,-15644.0,-948.0,548.0,-2388.0,0.7918748431622021,-0.5466971746535491,0.06799283034244995,0.2635021954646443
-9539.016470432281,936.0,-4784.0,-15704.0,565.0,3267.0,3973.0,0.645207274447373,-0.5098998279656217,0.4522798833368925,0.34518494400768485
-9539.032088756561,-424.0,-3956.0,-15488.0,-1275.0,5382.0,4079.0,0.21697112244632216,-0.49995765600630887,0.7704944376743829,0.33061185057087233
-9539.047721624374,-2024.0,-5216.0,-14816.0,-1008.0,4964.0,1606.0,-0.18793199213865802,-0.5029159490384668,0.8214627972747444,0.19223940081857774
-9539.06332373619,-2888.0,-6052.0,-15996.0,-400.0,3317.0,-312.0,-0.42020721544545847,-0.5512906082365386,0.7166395329906528,0.07702169248140668
-9539.078901290894,-3128.0,-5656.0,-16612.0,14.0,1691.0,-1043.0,-0.5104192765093784,-0.6192543827909578,0.5957695510474863,0.03247789412061048
-9539.094483852386,-3100.0,-5356.0,-16284.0,784.0,967.0,-2585.0,-0.4954441550679709,-0.7677371616266081,0.40288003860080385,0.05293783489640254
-9539.110069274902,-2860.0,-5052.0,-15752.0,881.0,-270.0,-4846.0,-0.3713038964230658,-0.8956197025009842,0.08631770825328529,0.22923354517827058
-9539.125679731369,-2148.0,-4976.0,-15220.0,627.0,-1908.0,-6154.0,-0.1606554533053136,-0.8046907724509273,-0.27891585793558343,0.4988672471185611
-9539.141306400299,-696.0,-5308.0,-14664.0,-117.0,-2416.0,-7350.0,0.0766479068851362,-0.4301988750939637,-0.6351461807169222,0.6369013701969267
-9539.156894207,660.0,-5780.0,-14580.0,130.0,-1868.0,-4712.0,0.21938534774334567,-0.05892530539015698,-0.7475854297111789,0.6241104893075903
-9539.172513246536,1584.0,-5680.0,-14656.0,37.0,-206.0,-209.0,0.21737028248801193,-0.033369086974851844,-0.750544895821008,0.623152488306497
-9539.188102006912,1288.0,-5420.0,-14876.0,340.0,1860.0,4249.0,0.10104948968786875,-0.37652728145356246,-0.6343801233764447,0.6675163413879077
-9539.203732013702,172.0,-5328.0,-15360.0,337.0,3596.0,6993.0,-0.07925154465914375,-0.7997473766902096,-0.2913824485496762,0.5188637536227243
-9539.219327688217,-1336.0,-5004.0,-15396.0,13.0,3754.0,6915.0,-0.24389042792702462,-0.9445265450540592,0.13661940883571683,0.17240128184904754
-9539.234941482544,-3200.0,-5200.0,-14960.0,159.0,2650.0,2808.0,-0.2883792248655783,-0.9043518584208362,0.29758575115674185,-0.10211689157620278
-9539.25053191185,-3704.0,-5444.0,-15416.0,-190.0,30.0,-1416.0,-0.3140696599470584,-0.9289740279757628,0.18535536113234918,-0.06333162043341346
-9539.266163825989,-2804.0,-5400.0,-15584.0,-181.0,-1672.0,-4617.0,-0.30046442095183556,-0.9264270839683169,-0.13062747008264422,0.18544663354142427
-9539.281780481339,-1028.0,-5292.0,-15328.0,-303.0,-1497.0,-4270.0,-0.2534995134513639,-0.7863262744789795,-0.41058121324141533,0.3858134964942748
-9539.297394990921,308.0,-5536.0,-15684.0,-296.0,-72.0,-2462.0,-0.18887780274008062,-0.673615305538247,-0.5746964664114856,0.4246075449999039
-9539.3129799366,880.0,-5540.0,-15424.0,-162.0,2159.0,1956.0,-0.1573553437288993,-0.8228234590928957,-0.4859167544648609,0.2491701400583502
-9539.32853269577,264.0,-5536.0,-15368.0,-83.0,3617.0,4514.0,-0.09623778027922097,-0.9746010292264237,-0.1904289445839062,-0.06802896840599403
-9539.34412240982,-1212.0,-5508.0,-15204.0,-44.0,4121.0,4467.0,-0.004148210607688898,-0.904671436131494,0.1370891061544666,-0.4034339623411791
-9539.359764575958,-2460.0,-5396.0,-15016.0,43.0,2894.0,2182.0,0.03964109546585005,-0.7406600267079534,0.2926002573618358,-0.6035200061133255
-9539.375346899033,-2872.0,-5332.0,-15160.0,-206.0,1244.0,-1667.0,-0.09164768264954111,-0.7069303249297034,0.19690126348107387,-0.6731122569076495
-9539.39093542099,-2484.0,-5156.0,-15208.0,-251.0,-651.0,-4615.0,-0.3398347160635119,-0.7618849133725039,-0.0627382589924331,-0.547820824167905
-9539.406551122665,-936.0,-5492.0,-15212.0,-445.0,-1331.0,-5651.0,-0.5765551505105251,-0.696783810441617,-0.3367298030026843,-0.2620868552522615
-9539.422181606293,376.0,-5744.0,-15288.0,-281.0,-1095.0,-3929.0,-0.6738735211120496,-0.5579447702175114,-0.4843146654383631,-0.005604977457850318
-9539.437833070755,1484.0,-5560.0,-15512.0,-134.0,493.0,-473.0,-0.6583478605264712,-0.5289830597252627,-0.5354438887774463,-0.007406688518030029
-9539.453426599503,1188.0,-5164.0,-15484.0,-21.0,2250.0,2851.0,-0.5262770261265522,-0.6288182725190409,-0.5083167481576436,-0.2631238405390134
-9539.469014883041,-32.0,-5388.0,-15460.0,-245.0,2800.0,3854.0,-0.3016835687073975,-0.6687383751696051,-0.38765872444221255,-0.5581189150273644
-9539.484594345093,-1432.0,-5584.0,-15352.0,-341.0,1882.0,2339.0,-0.13909091293486267,-0.6260150106339708,-0.27477684866112684,-0.7164192961107037
-9539.500193119049,-1988.0,-5608.0,-15276.0,-158.0,449.0,353.0,-0.11464560253067269,-0.6039079280427813,-0.25077010050155885,-0.7478408633940061
-9539.51584649086,-1740.0,-5364.0,-15416.0,-355.0,-729.0,-1748.0,-0.25967434677309476,-0.6014671388760092,-0.30814392314336897,-0.6898215980310326
-9539.531492233276,-836.0,-5260.0,-15336.0,-322.0,-1125.0,-1694.0,-0.40226383734162957,-0.6068407671705803,-0.3466948735439697,-0.5913803793882066
-9539.547120332718,-52.0,-5212.0,-15364.0,-199.0,-397.0,-429.0,-0.4461646341403049,-0.6066916092167512,-0.3447882154001791,-0.560342303480289
-9539.562717676163,376.0,-5132.0,-15476.0,-140.0,571.0,1405.0,-0.36432254678989895,-0.6104354011333586,-0.28337116748301416,-0.6436912958732555
-9539.578305006027,80.0,-5156.0,-15484.0,-85.0,1420.0,2635.0,-0.17953570526901788,-0.5740774114391841,-0.17746020608079022,-0.7789158693123446
-9539.593889951706,-496.0,-5184.0,-15252.0,-171.0,1639.0,2504.0,0.0073485569219866155,-0.4827811384676906,-0.06391336700734007,-0.8733747492163888
-9539.609524965286,-1160.0,-5236.0,-15440.0,-213.0,1288.0,1430.0,0.11301286535042543,-0.38751221697040283,0.013282820371091754,-0.9148147029027022
-9539.625168800354,-1672.0,-5148.0,-15296.0,-416.0,527.0,-43.0,0.09478266993392254,-0.3492576449620155,0.05029958048159783,-0.9308626617923609
-9539.640791654587,-1420.0,-5724.0,-15368.0,-197.0,-23.0,-1498.0,-0.03247994969656225,-0.35649064336829006,0.02046978811105869,-0.9335097545463892
-9539.656393051147,-984.0,-5164.0,-15304.0,-253.0,-755.0,-2001.0,-0.19848057304733652,-0.41386897110017484,-0.018544719972602316,-0.8882421011438385
-9539.672009468079,-540.0,-5196.0,-15444.0,-402.0,-304.0,-2061.0,-0.36693942755639547,-0.4202701352608518,-0.05550078262117446,-0.8280387267760171
-9539.687603473663,-288.0,-5124.0,-15440.0,-427.0,-55.0,-1835.0,-0.5085494323158228,-0.396639175032928,-0.08891601273395447,-0.7590446511239954
-9539.703227996826,-324.0,-5408.0,-15552.0,-358.0,254.0,-1412.0,-0.6073829987299723,-0.350347851039749,-0.12428006950867627,-0.7020660513431303
-9539.718808412552,-348.0,-5304.0,-15356.0,-289.0,167.0,-1166.0,-0.6819606989935995,-0.31069245863564066,-0.1502484825029057,-0.6448450935540071
-9539.734459877014,-484.0,-5272.0,-15268.0,-415.0,496.0,-786.0,-0.7280105405692694,-0.247055976184571,-0.17710332342786858,-0.614490366305553
-9539.750059366226,-532.0,-5364.0,-15300.0,-326.0,365.0,-1014.0,-0.7799720409343486,-0.19037604883670256,-0.2038494112288665,-0.5602195934914064
-9539.765637397766,-652.0,-5276.0,-15348.0,-272.0,293.0,-707.0,-0.8117702846697008,-0.14468055628262388,-0.2219348032229469,-0.5204243313676018
-9539.781236886978,-752.0,-5196.0,-15544.0,-351.0,125.0,-1189.0,-0.8626654307908309,-0.09056266152755266,-0.2287989206792277,-0.4418798623512239
-9539.796885490417,-684.0,-5144.0,-15112.0,-399.0,-96.0,-1882.0,-0.9272655428707716,-0.026165453528760256,-0.2182784599960579,-0.30306516782361664
-9539.812530755997,-596.0,-5268.0,-15496.0,-321.0,-501.0,-1947.0,-0.9737481526846781,0.023475890027080545,-0.17126270303075405,-0.14809626693881464
-9539.828133821487,-420.0,-5268.0,-15468.0,-292.0,-200.0,-1589.0,-0.986720896843008,0.06901159924669323,-0.14597509770774733,-0.017622194867760593
-9539.84378528595,-196.0,-5136.0,-15440.0,-431.0,-35.0,-1315.0,-0.9794137071475916,0.12220592230971941,-0.13357686490939813,0.08928451133773946
-9539.859374761581,-72.0,-5408.0,-15336.0,-342.0,92.0,-728.0,-0.9665442658754219,0.15909386822956145,-0.1361424489048357,0.14814370321174905
-9539.874962568283,-204.0,-5200.0,-15552.0,-162.0,268.0,-85.0,-0.9595532542404489,0.17051725940512558,-0.1597387668276037,0.15705076534014634
-9539.890579223633,-420.0,-5060.0,-15600.0,-306.0,326.0,-458.0,-0.9426221985369619,0.19801701486525083,-0.18428524678499902,0.19568239692571096
-9539.906152486801,-516.0,-5180.0,-15516.0,-344.0,160.0,-632.0,-0.9213104450370825,0.2335215471583507,-0.19216734707712071,0.2443899785091128
-9539.921897411346,-280.0,-5164.0,-15420.0,-214.0,-38.0,-606.0,-0.9031361258688647,0.26154803465211934,-0.1811994678851393,0.28827853988518537
-9539.937559366226,-388.0,-4880.0,-15304.0,-190.0,-83.0,-803.0,-0.8775123414476614,0.29080896362680114,-0.1608431093837213,0.34573361341519127
-9539.953199386597,-276.0,-5152.0,-15408.0,-301.0,-242.0,-726.0,-0.8490773840840259,0.3307643380602626,-0.13276737016956328,0.3899171372520602
-9539.968790769577,-68.0,-5240.0,-15472.0,-239.0,171.0,-291.0,-0.8296486271682677,0.3460738595529878,-0.1451924295245169,0.4133221474596732
-9539.984399795532,-264.0,-5276.0,-15388.0,-264.0,216.0,-103.0,-0.8147197154285845,0.35879431663568545,-0.1672854074063184,0.4236909440981718
-9540.000072956085,-428.0,-5200.0,-15520.0,-169.0,-37.0,-394.0,-0.7947283426429939,0.37792178309570473,-0.15859143865502415,0.4476949216229877
-9540.015676498413,-564.0,-5084.0,-15304.0,-1.0,-25.0,-1008.0,-0.7526470678550246,0.39166535753150616,-0.12331339988619525,0.5146984013647786
-9540.031339168549,-280.0,-5160.0,-15572.0,-291.0,-153.0,-1170.0,-0.6878394246241287,0.4281029322151377,-0.085985614743466,0.5798372870200199
-9540.046927690506,-404.0,-5176.0,-15496.0,-196.0,-157.0,-1108.0,-0.6224923188195135,0.45416633546846275,-0.044977508763431984,0.6357776942008018
-9540.062501907349,-328.0,-5196.0,-15496.0,-197.0,-14.0,-627.0,-0.5789262826632772,0.46760826365040564,-0.03034319707957605,0.6672826697873412
-9540.078087091446,-300.0,-5144.0,-15424.0,-159.0,99.0,-727.0,-0.5286450224898136,0.471065341896716,-0.014997149057333794,0.7059794397718866
-9540.093697071075,-388.0,-5076.0,-15572.0,-204.0,113.0,-896.0,-0.46335028774471104,0.47342081434507227,0.003952031450064962,0.7491085534414621
-9540.109340190887,-432.0,-5176.0,-15456.0,-185.0,131.0,-861.0,-0.3982349057335731,0.4708996195869341,0.021977812014503904,0.786879586663238
-9540.124918460846,-264.0,-5224.0,-15592.0,-166.0,-59.0,-1082.0,-0.3155435013389693,0.47674831508002224,0.05675057583320125,0.8184880664821594
