programtime,ax,ay,az,gx,gy,gz,q0,q1,q2,q3
-59.733888149261475,6236.0,10476.0,11492.0,-158.0,-610.0,-374.0,0.9979566340976541,-0.013476943125878086,-0.05329221909761653,-0.032570966336822584
-59.74168086051941,6268.0,10308.0,11392.0,-189.0,-477.0,-300.0,0.9933215213804599,-0.029564486477437917,-0.09467205676329712,-0.0589533541873655
-59.74946737289429,6304.0,10260.0,11524.0,-135.0,-474.0,-307.0,0.9862040917595308,-0.04081605092063042,-0.13581530741803988,-0.08537998392449284
-59.75726532936096,6340.0,10376.0,11444.0,-124.0,-385.0,-226.0,0.9787074747786306,-0.05132935338870936,-0.1688055041194255,-0.10488888440687881
-59.76505374908447,6380.0,10260.0,11372.0,-83.0,-368.0,-197.0,0.9704337700461532,-0.05853457950270101,-0.2003181372708263,-0.12126271000104927
-59.77286410331726,6364.0,10176.0,11500.0,-121.0,-414.0,-187.0,0.9597859737540514,-0.0695226152778051,-0.23493398126775547,-0.13705296419852997
-59.780651569366455,6360.0,10152.0,11292.0,-95.0,-358.0,-181.0,0.949087295384575,-0.077687338804705,-0.26476920532006953,-0.151971217811841
-59.788440227508545,6244.0,10172.0,11376.0,-21.0,-328.0,-124.0,0.9392804012052355,-0.08056203549351464,-0.2923971942987257,-0.16051780933935844
-59.79622268676758,6196.0,10200.0,11280.0,-18.0,-287.0,-177.0,0.9289502295935452,-0.08119766917947009,-0.3167952680699442,-0.17349111673631346
-59.80404281616211,6236.0,10148.0,11304.0,15.0,-264.0,-155.0,0.919086708533694,-0.07936100948038598,-0.33940397932884386,-0.18381074828937663
-59.81183433532715,5892.0,10220.0,11240.0,65.0,-228.0,-132.0,0.910419198912466,-0.07357680095453438,-0.35952915555069115,-0.19095057717086764
-59.81962299346924,6096.0,9988.0,11312.0,42.0,-239.0,-138.0,0.9006337723805382,-0.06958023545028828,-0.37995937464137536,-0.19911873971180633
-59.82741141319275,6128.0,10288.0,11212.0,26.0,-249.0,-151.0,0.8896333832433901,-0.06654954884361934,-0.4007272633174327,-0.20866542934025045
-59.83518052101135,6156.0,10248.0,11012.0,-253.0,-292.0,-86.0,0.8758828316072038,-0.0881741248671644,-0.41899108692698134,-0.2224883324478013
-59.842963457107544,5896.0,10256.0,11236.0,12.0,-322.0,-41.0,0.8630835881931546,-0.09171106809016258,-0.4439162396098464,-0.22274238930218035
-59.85075664520264,6240.0,10264.0,11176.0,0.0,-410.0,-64.0,0.8454314753584069,-0.09688809050370327,-0.4749354747602813,-0.224264605335037
-59.85854458808899,6324.0,9992.0,11124.0,9.0,-413.0,-80.0,0.8263054050911397,-0.10069362855835155,-0.5058430112445909,-0.22628084024045228
-59.866336822509766,6432.0,10252.0,11096.0,18.0,-429.0,254.0,0.8118213518157192,-0.11875819579400747,-0.5343185748723098,-0.20333775894868697
-59.87420439720154,6452.0,10300.0,11036.0,10.0,-459.0,-64.0,0.7887935755892594,-0.12291566356515676,-0.5671369818282285,-0.20261312544407406
-59.881996631622314,6536.0,10376.0,11332.0,25.0,-271.0,-67.0,0.7742919263525143,-0.12246014369429675,-0.586691395186684,-0.20314707186072564
-59.88979411125183,6512.0,10392.0,11436.0,-58.0,-524.0,-59.0,0.745061736125687,-0.13234778880657389,-0.6209536815464984,-0.20441036552297798
-59.89758801460266,6488.0,10376.0,11248.0,-59.0,-462.0,-62.0,0.7177004287186398,-0.14080582707648234,-0.650030224747351,-0.20625353474133956
-59.90543246269226,6480.0,10416.0,11272.0,-85.0,-486.0,-94.0,0.6868011813694279,-0.1492750058473136,-0.6793657375196023,-0.21091065545223037
-59.913227558135986,6532.0,10340.0,11176.0,-150.0,-527.0,-149.0,0.6501281135141218,-0.15882409414890436,-0.7091890977627152,-0.22171866577005822
-59.92102885246277,6340.0,10328.0,11476.0,-203.0,-518.0,-158.0,0.6114851046936606,-0.1702723946426861,-0.73583375213151,-0.2358854967658921
-59.928815841674805,6328.0,10224.0,11116.0,-177.0,-568.0,-107.0,0.5694488161592622,-0.18419760339401037,-0.7629659231685163,-0.24429958813377364
-59.93661069869995,6216.0,10228.0,10816.0,-138.0,-608.0,-78.0,0.5243561552375354,-0.1984508568761063,-0.7902485848708831,-0.2473359132419219
-59.94438362121582,6220.0,10484.0,11076.0,-53.0,-668.0,-7.0,0.4764607681726234,-0.21438163163764357,-0.818346840324637,-0.2394454036715221
-59.952181816101074,6240.0,10300.0,11172.0,39.0,-704.0,25.0,0.42668153096363043,-0.22876998893354172,-0.8463234969823656,-0.22213442271160874
-59.959991216659546,6396.0,10208.0,11172.0,96.0,-741.0,80.0,0.3746666757020155,-0.24489996196858282,-0.8722731934947601,-0.19694762414571176
-59.96777009963989,6288.0,10004.0,11388.0,141.0,-770.0,137.0,0.3206971503812059,-0.26328817718117326,-0.8947718279934757,-0.16497287450730633
-59.975566148757935,6392.0,10212.0,11364.0,200.0,-818.0,215.0,0.2637965057252947,-0.28541264275203515,-0.9129665340588554,-0.12427040924123678
-59.98335886001587,6408.0,10176.0,11400.0,279.0,-817.0,226.0,0.20750919812292218,-0.304916076894411,-0.9263581505276103,-0.07633279568290906
-59.991137981414795,6416.0,10084.0,11308.0,183.0,-835.0,346.0,0.14673192672620036,-0.3340482149930981,-0.9304791846170581,-0.0330154317481429
-59.998926401138306,6392.0,9984.0,11268.0,187.0,-518.0,389.0,0.11107369037233004,-0.36410222245458884,-0.9247093796495353,0.002184055601972566
-60.0067081451416,6392.0,10280.0,11456.0,173.0,-688.0,391.0,0.06083640792025634,-0.39286841860027477,-0.91663507229318,0.041635097933792976
-60.01448392868042,6440.0,10128.0,11196.0,138.0,-653.0,404.0,0.011841396661243439,-0.42111142609711705,-0.9036589675314297,0.07697674022452228
-60.02227282524109,6512.0,10164.0,11176.0,103.0,-660.0,379.0,-0.038884903055917505,-0.44546880343815687,-0.8877306070156343,0.10945263288455893
-60.03009533882141,6608.0,10056.0,11328.0,147.0,-575.0,319.0,-0.08063413638072019,-0.4643969238030137,-0.8704707170655459,0.14182511746453022
-60.0378782749176,6664.0,10296.0,11236.0,141.0,-470.0,311.0,-0.11434166660271618,-0.4825901939330072,-0.8517186724737674,0.16913896936465977
-60.04566478729248,6700.0,10356.0,11220.0,160.0,-371.0,2.0,-0.1351436566852456,-0.47857033091794915,-0.8450459544831931,0.19647891804062398
-60.05344033241272,6672.0,10384.0,11020.0,199.0,-270.0,208.0,-0.15024210064137006,-0.49135014434478314,-0.8292670860705578,0.21981457369172594
-60.06121754646301,6736.0,10376.0,11356.0,179.0,-502.0,236.0,-0.18321598859559124,-0.5005129489151982,-0.8080797114001036,0.25085029303287154
-60.06899833679199,6768.0,10456.0,11096.0,208.0,-153.0,214.0,-0.1895522416604596,-0.5153769670748737,-0.7913845410142362,0.2686392334226071
-60.076815366744995,6776.0,10528.0,11348.0,217.0,-133.0,214.0,-0.19394385106624618,-0.5304217971430958,-0.7741350441424101,0.2859255727977318
-60.08460354804993,6624.0,10276.0,11420.0,208.0,-109.0,203.0,-0.19670543662850173,-0.5447531365313382,-0.7574124742558818,0.3014586792275898
-60.09239053726196,6504.0,10620.0,11344.0,249.0,-167.0,208.0,-0.2013132858497202,-0.5581161623087078,-0.7377168659309628,0.3221073361958509
-60.10018038749695,6428.0,10632.0,11508.0,233.0,-101.0,189.0,-0.20174148150863175,-0.5713362148459372,-0.7198949253725375,0.3385655042485698
-60.10799956321716,6472.0,10528.0,11436.0,233.0,-118.0,174.0,-0.202642503626342,-0.5826797250246026,-0.7019749287262828,0.3558813751926779
-60.11579656600952,6416.0,10504.0,11040.0,282.0,-94.0,132.0,-0.1981216045842032,-0.5926097368219665,-0.6845456496912808,0.375444780373256
-60.1235773563385,6444.0,10428.0,11020.0,278.0,-40.0,100.0,-0.18938624519944408,-0.6018896827980301,-0.6693257104858337,0.3922559791171791
-60.131367444992065,6408.0,10332.0,10924.0,219.0,-69.0,30.0,-0.18294349924969752,-0.6047870277675902,-0.6589571081603534,0.40809295109235144
-60.13914704322815,6452.0,10256.0,11024.0,127.0,-88.0,-26.0,-0.18039938620440069,-0.6021372401353261,-0.6543199755746932,0.42041904697958304
-60.14693856239319,6388.0,10356.0,11180.0,43.0,-81.0,-74.0,-0.18008266356245567,-0.5955915465343542,-0.6553011914097597,0.42827712117041333
-60.15472412109375,6280.0,10424.0,11236.0,32.0,-81.0,-97.0,-0.17945694185183078,-0.5874873090673217,-0.6578112228802928,0.4358190711278703
-60.16251564025879,6272.0,10488.0,11340.0,8.0,-76.0,-150.0,-0.17772717579539166,-0.5760530321522416,-0.6639159918433125,0.442483345343882
-60.17030143737793,6248.0,10464.0,11488.0,38.0,-117.0,-168.0,-0.1761199486289649,-0.5623005382349885,-0.6689491395998924,0.45310806329631415
-60.17809176445007,6276.0,10444.0,11312.0,63.0,-85.0,-131.0,-0.17283079551609928,-0.5522040360022656,-0.6714865043461166,0.46293206113328733
-60.18587255477905,6320.0,10376.0,11280.0,58.0,-80.0,-80.0,-0.17151918591388635,-0.5451288677434645,-0.6717287358071415,0.471376910663967
-60.1936469078064,6340.0,10232.0,11408.0,117.0,-133.0,-116.0,-0.16898558981218867,-0.5345189263063979,-0.670305938457141,0.48623382926856673
-60.20144438743591,6376.0,10140.0,11356.0,111.0,-94.0,-97.0,-0.16520620525074659,-0.5264324085923191,-0.6686323661087424,0.49850435095609985
-60.20922613143921,6480.0,10100.0,11364.0,214.0,-42.0,-85.0,-0.15412686105892318,-0.5226224903158916,-0.6624575621966036,0.5140628576396784
-60.21701121330261,6484.0,10068.0,11136.0,223.0,-93.0,-49.0,-0.14713113892226276,-0.5184963351157382,-0.6532580720031522,0.5317592216348582
-60.22477459907532,6464.0,10080.0,11340.0,226.0,-4.0,-38.0,-0.13537114294833685,-0.5189409977823012,-0.644279283216297,0.5452330691510424
-60.23255920410156,6528.0,10084.0,11556.0,191.0,-19.0,-18.0,-0.12694298679698038,-0.5192041853799236,-0.6356604549008941,0.5569993519405745
-60.24033975601196,6540.0,10124.0,11272.0,158.0,43.0,52.0,-0.11994033398790382,-0.5258677544394526,-0.6259975378602289,0.5632091118906094
-60.24814772605896,6640.0,10196.0,11648.0,119.0,54.0,76.0,-0.1152822711223889,-0.5338692969991252,-0.6171390118245175,0.5664212317443458
-60.25593113899231,6632.0,10212.0,11572.0,142.0,108.0,158.0,-0.11066401215118406,-0.5490253148397073,-0.6036793806566161,0.5673586920545125
-60.26371908187866,6588.0,10288.0,11572.0,133.0,135.0,178.0,-0.10599464049335018,-0.5662245225899104,-0.5896817718482356,0.5660656624053776
-60.271499156951904,6584.0,10360.0,11544.0,98.0,194.0,208.0,-0.10143932248446506,-0.5872163592350113,-0.5761226520837897,0.5594369500279829
-60.27928137779236,6592.0,10396.0,11360.0,146.0,192.0,230.0,-0.09552395759801381,-0.6091901999994261,-0.5586353327613953,0.554697249623646
-60.28706765174866,6440.0,10288.0,11344.0,148.0,203.0,197.0,-0.08729367746315012,-0.62961152341884,-0.5424436261822668,0.5492941433033856
-60.294878005981445,6644.0,10188.0,11360.0,121.0,202.0,223.0,-0.08177207132084627,-0.6505134038539895,-0.5256840214619637,0.542035007483624
-60.30269527435303,6160.0,10176.0,11296.0,166.0,201.0,226.0,-0.07381858303029065,-0.6712710652266547,-0.5061703482282064,0.5364117377196445
-60.310487270355225,6400.0,10108.0,11360.0,148.0,173.0,248.0,-0.06912095793259605,-0.6909805034039616,-0.4855833556181959,0.5310151050927466
-60.31826829910278,6364.0,10112.0,11228.0,164.0,150.0,311.0,-0.06728689698034235,-0.7117053120928909,-0.45984150282593916,0.5267768166048118
-60.32608771324158,6388.0,10152.0,11192.0,155.0,111.0,329.0,-0.06833253959745923,-0.7305193748251809,-0.432657184846774,0.5239082624254486
-60.33388161659241,6416.0,10056.0,11064.0,157.0,95.0,327.0,-0.06969250153926915,-0.7477451144040456,-0.4049427511493542,0.5215760418248446
-60.341673374176025,6428.0,10168.0,11248.0,158.0,45.0,311.0,-0.07195941923325248,-0.761383664515696,-0.37751223688733243,0.5221123139637542
-60.349459648132324,6172.0,10124.0,11148.0,156.0,55.0,301.0,-0.07351243843944212,-0.7744341581000183,-0.35055000250816365,0.5215000977028954
-60.357253551483154,6404.0,10160.0,11140.0,179.0,40.0,295.0,-0.07363299655519331,-0.7860614502545253,-0.3225316248317586,0.5221675298459689
-60.36503338813782,6468.0,10148.0,11252.0,171.0,3.0,266.0,-0.0739630229214796,-0.7944739960293378,-0.2963550628980372,0.5248944823182972
-60.372836112976074,6384.0,10216.0,11028.0,127.0,-20.0,300.0,-0.07944095403098994,-0.8018019482846258,-0.2694538463558697,0.5274442105414103
-60.38062047958374,6460.0,10000.0,11388.0,127.0,-27.0,210.0,-0.08089264869849218,-0.8061778603899159,-0.24862476706354236,0.5307724201635563
-60.38841485977173,6472.0,10376.0,11076.0,128.0,-86.0,198.0,-0.08296464112672455,-0.807186264817612,-0.22805733771879846,0.5381050575167639
-60.39619183540344,6448.0,10288.0,11456.0,131.0,-103.0,175.0,-0.0840461716842276,-0.8065834459252149,-0.2087388278748014,0.5466145694381785
-60.40402936935425,6456.0,10276.0,11436.0,89.0,-168.0,156.0,-0.08832569791236558,-0.8018574841899562,-0.19218796626344767,0.558826387852585
-60.41182255744934,6144.0,10244.0,11456.0,150.0,-161.0,150.0,-0.08788461302768649,-0.7974370379288543,-0.1730367959605507,0.5713394197637124
-60.41960549354553,6152.0,10264.0,11376.0,107.0,-152.0,132.0,-0.0893632641562125,-0.7924867479224578,-0.15726594191119075,0.582448611382515
-60.42738461494446,6368.0,10216.0,11356.0,121.0,-202.0,81.0,-0.0879293361311783,-0.7840570366156747,-0.14385074662647135,0.5973524569933426
-60.43514394760132,6340.0,10208.0,11336.0,146.0,-230.0,72.0,-0.08462050498212804,-0.7738206994837207,-0.12945292081973275,0.614233535781249
-60.44291830062866,6364.0,10112.0,11288.0,131.0,-218.0,26.0,-0.07967632948014201,-0.7631655391634088,-0.11897825692403889,0.6301382520791072
-60.450727462768555,6628.0,10088.0,11316.0,138.0,-229.0,5.0,-0.0731826598585643,-0.7513347171106614,-0.10937567361737607,0.6466663770299284
-60.45852041244507,6304.0,10048.0,11228.0,202.0,-231.0,251.0,-0.07632964676858614,-0.7414904591725328,-0.07992786612300008,0.6617984740064858
-60.466301918029785,6376.0,9764.0,11224.0,224.0,-227.0,65.0,-0.06721070829934897,-0.7299745317833437,-0.061182046536259964,0.6774043554770097
-60.47419476509094,6416.0,10192.0,11152.0,250.0,-265.0,76.0,-0.057229755823217175,-0.7157410160094296,-0.03991550858995499,0.6948714307152148
-60.48198938369751,6452.0,10040.0,11192.0,280.0,-5.0,161.0,-0.049568762659530745,-0.7170478534585709,-0.012776161574664848,0.6951417720970859
-60.48978066444397,6500.0,10164.0,11100.0,286.0,-277.0,168.0,-0.04221140723904594,-0.7010970385014436,0.01634680213851696,0.7116276566879965
-60.49759793281555,6580.0,10152.0,11288.0,1.0,-275.0,266.0,-0.05832045684218377,-0.6831793190793897,0.03374942882624523,0.7271352820141809
-60.50542330741882,6628.0,10260.0,11336.0,209.0,-301.0,205.0,-0.058018799415367056,-0.664001944183465,0.06080323012972309,0.7429927349851881
-60.51321077346802,6636.0,10484.0,11332.0,158.0,-500.0,11.0,-0.04695088047015701,-0.6315579698023382,0.0742171253783694,0.7703388630354808
-60.52100396156311,6660.0,10388.0,11348.0,138.0,-153.0,503.0,-0.07217318945874183,-0.617771577252695,0.11180632590376209,0.7750152608497279
-60.52880263328552,6652.0,10332.0,11536.0,85.0,-114.0,157.0,-0.07717064668553926,-0.6088407829312545,0.12679739566357195,0.7792817287622803
-60.53659415245056,6716.0,10316.0,11652.0,99.0,-115.0,98.0,-0.07738032264160906,-0.6004033118280779,0.13957450525570286,0.7836115787151069
-60.54438614845276,6564.0,10248.0,11672.0,123.0,-67.0,41.0,-0.07300459353515128,-0.5959769408708261,0.15065353416735996,0.7853568156678232
-60.55219507217407,6632.0,10000.0,11508.0,147.0,-10.0,55.0,-0.06907760407574344,-0.595320706861219,0.1637149348655153,0.7835936196137596
-60.56001400947571,6600.0,10208.0,11548.0,167.0,7.0,-41.0,-0.05777770900196189,-0.597196795888334,0.17301891632816996,0.7810775748386443
-60.56781196594238,6440.0,10168.0,11432.0,185.0,235.0,1.0,-0.05182201823016694,-0.6138016085760888,0.18450805042687293,0.7658451821769416
-60.57559323310852,6504.0,10492.0,11348.0,166.0,250.0,-252.0,-0.030179703785157722,-0.6348351164205226,0.1809364023058665,0.7505568457881064
-60.58338379859924,6580.0,10188.0,11192.0,162.0,-2.0,71.0,-0.025903034016588274,-0.6338222080882456,0.19553003107894595,0.7479080480307339
-60.59115934371948,6540.0,10132.0,11404.0,148.0,-245.0,63.0,-0.017722810974401322,-0.616770507208045,0.2092225894117958,0.7586210855818072
-60.59895300865173,6428.0,10184.0,11436.0,160.0,-6.0,154.0,-0.019276663282626935,-0.6135723426991697,0.22813463014093008,0.7557195121589768
-60.606722354888916,6412.0,10156.0,11340.0,153.0,51.0,167.0,-0.023194345982763702,-0.6136210609704548,0.2470923549310933,0.7495842741030069
-60.614511013031006,6412.0,10196.0,11024.0,184.0,113.0,160.0,-0.026325683986436275,-0.6176460094843771,0.2674555320616538,0.7391129167456679
-60.62230038642883,6340.0,10200.0,11264.0,118.0,211.0,133.0,-0.033548917231854894,-0.628125168306346,0.2817235257274119,0.7245447523406755
-60.630104064941406,6288.0,10232.0,11288.0,117.0,189.0,120.0,-0.039450615981272225,-0.6372017291192722,0.29512514053230987,0.7108577612517797
-60.63788676261902,6388.0,10168.0,11156.0,91.0,171.0,22.0,-0.040243468661461695,-0.6473567420964146,0.30140823245458265,0.6989011297036328
-60.64566516876221,6264.0,10180.0,11196.0,98.0,120.0,37.0,-0.04020563709055432,-0.6538801895176752,0.3090692982157028,0.6894203169351225
-60.65344858169556,6248.0,10188.0,11208.0,140.0,47.0,58.0,-0.03705866835449074,-0.6554698721875458,0.32065029487046015,0.6827659116810982
-60.661221504211426,6240.0,10184.0,11324.0,155.0,-8.0,109.0,-0.034545810835958674,-0.6522526989951714,0.3361426321440951,0.6785139161892261
-60.66900396347046,6284.0,10236.0,11008.0,158.0,-58.0,148.0,-0.032697380103592,-0.6447261409855969,0.3540715573609068,0.6766774835416084
-60.67681169509888,6344.0,10312.0,11500.0,227.0,-75.0,143.0,-0.02613123517015637,-0.6362335394940736,0.3756635120078354,0.6733505532167208
-60.68457365036011,6368.0,10340.0,11188.0,206.0,-84.0,163.0,-0.021599905395822724,-0.6261362798292072,0.39693166298446775,0.6707697504277585
-60.6923713684082,6448.0,10268.0,11432.0,199.0,-122.0,148.0,-0.015245436745615435,-0.6139576765892405,0.41680736637772564,0.6701456314480019
-60.70015549659729,6540.0,9996.0,11332.0,163.0,-120.0,174.0,-0.012405901336507551,-0.6005565332375378,0.43573123845979134,0.6703105487966271
-60.707974910736084,6560.0,10328.0,11332.0,181.0,-114.0,142.0,-0.00697700826139468,-0.5884267551409487,0.45379580823904475,0.6691596518131429
-60.71579551696777,6492.0,10392.0,11096.0,192.0,-122.0,86.0,0.002603793907201339,-0.5777730525576399,0.46941518094134166,0.6676982161855183
-60.723588943481445,6496.0,10384.0,11180.0,200.0,-62.0,67.0,0.0112357289537579,-0.5711561345985575,0.4843632855395884,0.6626059431718125
-60.731390714645386,6144.0,10376.0,11024.0,199.0,11.0,32.0,0.01875104897338074,-0.5700494113050222,0.4974153311385424,0.6536589746813929
-60.73915719985962,6344.0,10420.0,11044.0,183.0,35.0,-248.0,0.040387245715338776,-0.582200290607831,0.4954053243420014,0.6434168606846437
-60.74695634841919,6272.0,10428.0,11076.0,111.0,36.0,-32.0,0.04618442339558537,-0.5850838206432135,0.5001252382070636,0.6367249547218053
-60.75473690032959,6336.0,10440.0,11180.0,105.0,-14.0,-38.0,0.05418753702933309,-0.5854171684737276,0.5039518206089896,0.6327582573082572
-60.762521743774414,6372.0,10340.0,11048.0,106.0,-44.0,-13.0,0.06217577812401461,-0.582933043910506,0.5089203406949769,0.6303358832866918
-60.77030920982361,6336.0,10248.0,11188.0,93.0,-128.0,-32.0,0.07427122292549747,-0.5766557289002211,0.5116737840356448,0.6325676995408082
-60.77813148498535,6376.0,10244.0,11160.0,108.0,-494.0,13.0,0.10088060920926332,-0.5474674830945148,0.5145959638103786,0.6521452688395374
-60.785908699035645,6460.0,10136.0,11292.0,95.0,-290.0,64.0,0.11468959781067527,-0.526948953494529,0.5203215510983268,0.6621454372172911
-60.79369044303894,6556.0,10148.0,11424.0,158.0,-282.0,25.0,0.13319691597877112,-0.5076217590297699,0.52757240217229,0.6680165355733539
-60.801472187042236,6600.0,10156.0,11352.0,195.0,-9.0,31.0,0.1403548251205283,-0.5032175717727005,0.5401337521933166,0.659794004418153
-60.809250354766846,6576.0,10160.0,11452.0,205.0,-196.0,-11.0,0.15911897944303255,-0.48967824862467046,0.5488867645969229,0.658498050760369
-60.81704902648926,6556.0,10216.0,11488.0,228.0,-138.0,-26.0,0.17685899046169656,-0.4795855253764772,0.5588088759618745,0.6530323586840581
-60.82483887672424,6516.0,10244.0,11192.0,247.0,-80.0,-9.0,0.19150276925502738,-0.4714217333174416,0.5711269817884517,0.6441290316364017
-60.83260798454285,6548.0,10280.0,11088.0,0.0,-46.0,23.0,0.19243979908907186,-0.46757689561252663,0.571293363297633,0.6465003197740807
-60.840415716171265,6516.0,10000.0,11112.0,207.0,-35.0,15.0,0.20169409213357203,-0.4611920116476514,0.5828949160086564,0.6378518154572175
-60.84819674491882,6612.0,10288.0,11372.0,225.0,-45.0,233.0,0.19992911548858272,-0.44258368587361613,0.6037556632184565,0.6321606828252757
-60.85603713989258,6676.0,10244.0,11092.0,204.0,-37.0,4.0,0.209446148205034,-0.43659567283123857,0.6144106946154577,0.6229093255115578
-60.86382794380188,6664.0,10276.0,11072.0,194.0,-28.0,-3.0,0.21841522464015167,-0.4315225284508487,0.6242304502763396,0.61353031060623
-60.87161111831665,6788.0,10188.0,11208.0,198.0,-250.0,48.0,0.2367767519429752,-0.4114806484537939,0.631612129488436,0.6129327561572014
-60.879430294036865,6860.0,10220.0,11204.0,232.0,-24.0,6.0,0.2460090068253579,-0.4048866315228026,0.6435957472660252,0.6011080587348716
-60.887216091156006,6788.0,10168.0,11328.0,216.0,24.0,42.0,0.24999555234793092,-0.39897665763999857,0.6567897100550867,0.5890221788951785
-60.894994020462036,6732.0,10464.0,11304.0,218.0,66.0,-50.0,0.25627352968639094,-0.4003025918096864,0.6675426160735836,0.5731217747548616
-60.90277886390686,6636.0,10284.0,11288.0,175.0,123.0,-12.0,0.25573173007843986,-0.4030807396584537,0.6784945998066235,0.5583657202772495
-60.91056275367737,6400.0,10248.0,11336.0,136.0,216.0,-25.0,0.2488371185116696,-0.4118654697681171,0.6888764204679313,0.5421219425431767
-60.9183509349823,6440.0,10276.0,11332.0,135.0,215.0,-11.0,0.24118016787789917,-0.4195858783285186,0.6993529548909626,0.5260088039329316
-60.92613697052002,6360.0,10336.0,11276.0,121.0,268.0,229.0,0.21857666368978734,-0.4150681223581542,0.7185440548771643,0.5134560712397904
-60.93390488624573,6468.0,10384.0,11040.0,77.0,315.0,254.0,0.1900532475662209,-0.4114472185817923,0.7367181271696309,0.501833987002187
-60.941683530807495,6724.0,10420.0,10972.0,100.0,235.0,-72.0,0.18158523056950562,-0.42453157440886174,0.7421999789571522,0.48573546051833155
-60.94947099685669,6780.0,10388.0,11052.0,78.0,110.0,-130.0,0.1827846461169968,-0.4362602355209869,0.7423234932010125,0.47457624412617144
-60.957255363464355,6444.0,10576.0,11144.0,132.0,53.0,-117.0,0.18914926143253477,-0.4438127115540106,0.7440761755782833,0.4621725639838425
-60.96503305435181,6428.0,10508.0,11172.0,131.0,18.0,-179.0,0.20019085471954706,-0.45385837966188036,0.7425757667446392,0.45001935907354135
-60.972840547561646,6824.0,10272.0,11120.0,109.0,58.0,-200.0,0.2085157016684632,-0.4670425656380506,0.7397869291657789,0.4371587165725995
-60.98064589500427,6816.0,10348.0,11028.0,141.0,42.0,-206.0,0.21931403364507052,-0.47921175914248626,0.7373511728126273,0.4225762564292222
-60.988444566726685,6868.0,10084.0,11236.0,252.0,44.0,-130.0,0.2317050066475461,-0.48417640166128173,0.7418176593198463,0.40198577374083544
-60.99621629714966,6792.0,9992.0,10920.0,312.0,83.0,-138.0,0.24420566759463236,-0.48943838170645254,0.7482622033518973,0.3753895809185341
-61.0040500164032,6836.0,9996.0,10764.0,338.0,64.0,-95.0,0.2574175037404612,-0.4902551137638271,0.7562800739224235,0.3484632003301645
-61.01183247566223,6404.0,9952.0,10964.0,369.0,46.0,22.0,0.2693295469753628,-0.48161622965857087,0.769076095024332,0.3225358313701489
-61.019630432128906,6704.0,10008.0,11104.0,409.0,55.0,45.0,0.28135210538882377,-0.47018309590311685,0.7832663298528414,0.293705133831699
-61.02741026878357,6784.0,10100.0,10984.0,335.0,24.0,128.0,0.29000992407771625,-0.4535619683626817,0.7973101078310126,0.27289627469407884
-61.03519892692566,6712.0,10208.0,11068.0,353.0,20.0,198.0,0.2976676280388794,-0.4310191194551629,0.8135598833581175,0.25246151800250555
-61.04297614097595,6776.0,10328.0,11216.0,340.0,-6.0,220.0,0.30582574498327053,-0.40614329198680227,0.8286599102808376,0.2341815389241959
-61.05076885223389,6728.0,10292.0,11120.0,340.0,-40.0,172.0,0.3170615781893888,-0.3835623091777052,0.8401735878926299,0.21554640526333507
-61.05854868888855,6776.0,10260.0,11148.0,295.0,-4.0,175.0,0.32377896771176257,-0.36229579494780484,0.8510937784997632,0.1988675871770955
-61.0663423538208,6796.0,10416.0,10936.0,267.0,40.0,107.0,0.32727430040991257,-0.3473538983528374,0.8599697306552223,0.1808006193215983
-61.074129819869995,6784.0,10356.0,11040.0,319.0,68.0,92.0,0.33023377788616887,-0.3322347025463687,0.8693591903959806,0.15741776405793498
-61.081918478012085,6788.0,10300.0,10980.0,352.0,58.0,29.0,0.3354685961243096,-0.3205020601146374,0.876285201118687,0.12985952709385767
-61.08969831466675,6676.0,10336.0,11064.0,370.0,251.0,11.0,0.32623996328739185,-0.31141019313496754,0.887465781160891,0.09484548083262984
-61.09748411178589,6664.0,10252.0,11092.0,410.0,-39.0,42.0,0.33983059582719044,-0.29594406111324084,0.8903152857713816,0.06535266447025742
-61.10526704788208,6768.0,10200.0,11144.0,439.0,-47.0,55.0,0.3542407204801214,-0.27814985273802884,0.8921787594068378,0.034106196487048844
-61.113044023513794,6724.0,10144.0,11036.0,501.0,-76.0,108.0,0.371623897681087,-0.25374233741105323,0.8930343790522487,0.0003204812889427727
-61.12083196640015,6792.0,10180.0,10932.0,478.0,-91.0,96.0,0.3889437690161583,-0.2305155971200368,0.8913910328939159,-0.031738470413928646
-61.128623962402344,6760.0,10192.0,10964.0,517.0,-100.0,119.0,0.40701659241882643,-0.20373542102855585,0.8879749587155652,-0.06580155323527381
-61.13639807701111,6836.0,10092.0,10768.0,558.0,-72.0,112.0,0.4226498147594518,-0.17540372375305194,0.8830977976963156,-0.10362889308142449
-61.14418601989746,6800.0,10088.0,10888.0,577.0,-13.0,114.0,0.43296752329050364,-0.14523534341514827,0.8779852575314647,-0.14348416761503271
-61.15200424194336,6452.0,10120.0,10920.0,573.0,11.0,119.0,0.4403308890723354,-0.11415263390077346,0.8715906908614196,-0.18277732875276437
-61.15979218482971,6740.0,10092.0,11068.0,546.0,69.0,205.0,0.44323931374428044,-0.07634892413472875,0.8664281857443252,-0.21682239617430188
-61.16757678985596,6652.0,10152.0,11048.0,569.0,53.0,246.0,0.4470524684803648,-0.03465472851354017,0.8580729790913105,-0.2503076162856983
-61.17536640167236,6764.0,9988.0,11172.0,556.0,107.0,237.0,0.4452951945006784,0.007140929819808068,0.8495830260104967,-0.28261259489053087
-61.18316578865051,6736.0,10284.0,10784.0,582.0,130.0,229.0,0.4402945038649049,0.04989570817786326,0.8388151063154281,-0.3162916147937276
-61.19095778465271,6908.0,10264.0,10976.0,647.0,202.0,261.0,0.4290701101154908,0.0992697768780285,0.8258991502731405,-0.3520439540485982
-61.19875121116638,6884.0,10220.0,11172.0,630.0,195.0,283.0,0.417473112936333,0.1489861515386996,0.8097775190973298,-0.38442124835850205
-61.206533670425415,6920.0,10100.0,11156.0,674.0,246.0,342.0,0.40187267677018934,0.20549962001876593,0.7897495016309373,-0.41540821189691446
-61.214311361312866,6912.0,10096.0,11488.0,738.0,287.0,360.0,0.38085273823689075,0.2658623264465244,0.7643648866307511,-0.4472300696955238
-61.22210741043091,6936.0,10096.0,11180.0,783.0,303.0,404.0,0.35710402256043844,0.32960219131982776,0.732040780645002,-0.4774467593574993
-61.229902029037476,7088.0,10184.0,10952.0,898.0,353.0,394.0,0.3238412152701978,0.3958593092094557,0.6913877986339364,-0.510299114740221
-61.237685203552246,6760.0,10164.0,10936.0,908.0,389.0,397.0,0.28549214198939543,0.460836671058489,0.645394734573203,-0.5381351466455445
-61.245471477508545,6636.0,10068.0,11136.0,944.0,464.0,320.0,0.23537770707081476,0.5217916993708376,0.5969522838943182,-0.5621198521980315
-61.25324106216431,6420.0,10088.0,11180.0,964.0,435.0,318.0,0.18360378172576303,0.5768382016580759,0.5415459534712103,-0.5833312272824365
-61.26103496551514,6284.0,10044.0,11464.0,979.0,460.0,274.0,0.12596564702176788,0.6259352804846,0.4829374589084854,-0.5992571161013172
-61.26881814002991,6260.0,10272.0,11080.0,1005.0,485.0,301.0,0.0660621994518721,0.6716260886617915,0.4170873653490859,-0.6087629362063715
-61.27660822868347,6312.0,10432.0,10916.0,772.0,481.0,361.0,0.02243319370547068,0.7121744160832193,0.3563286151188132,-0.6044288799720006
-61.284390687942505,6376.0,10956.0,10876.0,1038.0,385.0,437.0,-0.03080697988989022,0.7440922654858924,0.27362992224658106,-0.6086906407079592
-61.292179107666016,6416.0,10504.0,10796.0,971.0,311.0,578.0,-0.07018922261988983,0.7677811327327425,0.18265923087247138,-0.6100993448814049
-61.29999375343323,6528.0,10528.0,10912.0,1012.0,259.0,623.0,-0.1083186049421712,0.7808893520214434,0.08490013192612118,-0.6093200040387966
-61.30777621269226,6672.0,10240.0,10600.0,1136.0,277.0,682.0,-0.15044853632905142,0.7844426519278521,-0.024503756673396115,-0.601177619062566
-61.31555938720703,6728.0,9988.0,10744.0,1345.0,307.0,681.0,-0.20428468886527326,0.7744371087612384,-0.14449391787279098,-0.5810649173427385
-61.32336711883545,6696.0,9616.0,10408.0,1610.0,327.0,689.0,-0.2707658564115855,0.7446243663120508,-0.275292989633274,-0.544457687938054
-61.33114218711853,6532.0,9244.0,10416.0,1868.0,377.0,611.0,-0.34878167085006534,0.6931583719856431,-0.4065697118245371,-0.482269516818306
-61.33892607688904,6224.0,8772.0,10680.0,2096.0,355.0,413.0,-0.4378556025958108,0.6186214459030737,-0.5213883593539492,-0.39210222732655703
-61.34671068191528,6004.0,8524.0,11208.0,2090.0,387.0,125.0,-0.5199320516054341,0.5370466496657847,-0.6041246940723664,-0.2761972335272202
-61.35448932647705,6016.0,8516.0,11744.0,2047.0,501.0,-58.0,-0.5811444120494825,0.45164636413190984,-0.6623685256740619,-0.13983801452558398
-61.36227321624756,6504.0,9692.0,11668.0,1589.0,491.0,85.0,-0.6080124015385494,0.36820050792603126,-0.7026273936215959,-0.03261979875568938
-61.37008833885193,6928.0,11400.0,11120.0,1413.0,311.0,549.0,-0.6271336468907198,0.2580287840059965,-0.7341192059764169,0.034547459797903954
-61.37786531448364,7176.0,13024.0,11156.0,1116.0,-102.0,832.0,-0.6565048050677516,0.14281662152662125,-0.7384241169424206,0.057746662730257345
-61.385685205459595,7136.0,13820.0,11308.0,793.0,-352.0,931.0,-0.6895820890121069,0.038834392945451816,-0.7213823736130224,0.05075335928486579
-61.39347195625305,6628.0,13968.0,11392.0,445.0,-380.0,803.0,-0.7159476075682993,-0.036767850615522284,-0.6965828010365102,0.02897498366647768
-61.40126013755798,6648.0,13672.0,11324.0,277.0,-331.0,651.0,-0.7351873727511771,-0.09268837459177766,-0.6714693746196004,0.006105007020359489
-61.40905547142029,7016.0,12984.0,11008.0,240.0,-160.0,623.0,-0.7416888835274024,-0.1443409395305312,-0.654766116636058,-0.018564097948860957
-61.41684007644653,7488.0,11792.0,11180.0,317.0,120.0,446.0,-0.7293100880153831,-0.19000624749151102,-0.6565445743982199,-0.030881114964474033
-61.42462921142578,7276.0,10616.0,11220.0,459.0,320.0,188.0,-0.7019926555309078,-0.22889716379677325,-0.6740419032498143,-0.021906908723635248
-61.43240141868591,7020.0,9784.0,11172.0,617.0,423.0,3.0,-0.6634328972803986,-0.2655585930199556,-0.69950217592682,0.005668364229824913
-61.44019150733948,6972.0,9392.0,11152.0,833.0,453.0,-64.0,-0.6143956129213374,-0.3090960070993644,-0.7242430609828364,0.04949422023282366
-61.44800281524658,6848.0,9272.0,11108.0,1064.0,489.0,-102.0,-0.5515098565988905,-0.3599697191404045,-0.7446524405798811,0.10840397647077603
-61.455793619155884,6548.0,9440.0,11116.0,1188.0,564.0,-60.0,-0.4739028006207645,-0.41589231580777025,-0.7574152160989186,0.16962283937510944
-61.46357440948486,6176.0,9764.0,11064.0,1208.0,722.0,-9.0,-0.3793915370356667,-0.4724340906809589,-0.7639441431768913,0.22194016692319318
-61.47139286994934,6432.0,10152.0,10968.0,1070.0,512.0,88.0,-0.3012618431171423,-0.5208795302241573,-0.7524720614076987,0.26779024193568357
-61.47922921180725,6360.0,10432.0,10744.0,857.0,728.0,320.0,-0.22085739177288813,-0.5784685297745071,-0.7332069277301425,0.2810760994612005
-61.48702788352966,6404.0,10636.0,10724.0,669.0,667.0,524.0,-0.1565879126242313,-0.6384537252874858,-0.7000727320640634,0.2788462589078002
-61.49486541748047,6392.0,10768.0,10608.0,263.0,518.0,642.0,-0.1255804988141324,-0.6919314340486094,-0.6630697618410496,0.25651300127884785
-61.502684116363525,6340.0,10784.0,10716.0,431.0,399.0,708.0,-0.09204720214425141,-0.7441882190127092,-0.6130466475113225,0.2487669898423737
-61.510478496551514,6328.0,10836.0,10660.0,413.0,301.0,720.0,-0.06459095756659324,-0.7902423761110998,-0.5580602549415944,0.24477284786805145
-61.51826858520508,6336.0,10916.0,10644.0,398.0,264.0,595.0,-0.036945280972748046,-0.8252959981351011,-0.5088648213625292,0.2420292446290591
-61.52608346939087,6572.0,10916.0,10472.0,389.0,235.0,408.0,-0.007129742370509753,-0.8484457511430367,-0.47133478162356557,0.24069170690516964
-61.53387808799744,6616.0,10904.0,10608.0,387.0,245.0,258.0,0.026129024458716198,-0.8635519221638852,-0.44377554930462004,0.238030698959772
-61.54165744781494,6636.0,10928.0,10696.0,359.0,270.0,43.0,0.06267593968038966,-0.869345623427862,-0.43212047653882546,0.2314774446201191
-61.549442291259766,6660.0,10900.0,10852.0,338.0,204.0,-114.0,0.0982342391970987,-0.8667708257443055,-0.4325469737782667,0.22795062044917852
-61.557233572006226,6440.0,10996.0,10896.0,265.0,167.0,-188.0,0.12824364349452558,-0.8602945714922191,-0.4398442213133029,0.22357074750861855
-61.56501865386963,6704.0,11028.0,10988.0,219.0,127.0,-227.0,0.15391202050650482,-0.8512385411122515,-0.45100067496216806,0.21977813187931142
-61.572800397872925,6408.0,11252.0,11064.0,152.0,101.0,-280.0,0.1744671595320175,-0.8397598658400507,-0.46733970918282014,0.21437857679825717
-61.58062028884888,6628.0,10904.0,10968.0,154.0,32.0,-209.0,0.19091575357781923,-0.829275755807521,-0.47917323804329526,0.21504860801405265
-61.58839464187622,6568.0,10844.0,10952.0,61.0,46.0,-227.0,0.20146910087212197,-0.8194519303583965,-0.4935939538422674,0.2104132694390591
-61.596184730529785,6500.0,10508.0,10976.0,32.0,29.0,-147.0,0.20768910878990243,-0.8130172794523085,-0.5029749058080903,0.20708544499642087
-61.60400176048279,6416.0,10640.0,10932.0,46.0,25.0,-162.0,0.2149569150021299,-0.8054350388008994,-0.513139644624319,0.2043419391103755
-61.611791372299194,6388.0,10460.0,10884.0,101.0,9.0,-180.0,0.22563860320284612,-0.795508728428832,-0.5237490992146553,0.20479249207441289
-61.61958575248718,6360.0,10364.0,10988.0,112.0,69.0,-102.0,0.23837552066412657,-0.7897886725842452,-0.5274249298616589,0.20306133843286533
-61.62737202644348,6300.0,10252.0,10928.0,108.0,113.0,-227.0,0.25498290770217874,-0.7788654252592783,-0.5386635050702004,0.19543283864517697
-61.63515496253967,6172.0,10368.0,10944.0,91.0,148.0,-251.0,0.2723260476966643,-0.7672858587848119,-0.5506974183470342,0.18396545349787746
-61.642945766448975,6196.0,10268.0,10868.0,79.0,168.0,-365.0,0.29138410236984164,-0.7500734959673617,-0.5695300239068152,0.16769200160450237
-61.65074324607849,6108.0,10440.0,10792.0,76.0,134.0,-406.0,0.3087617688730347,-0.7293837617741131,-0.5911802411682667,0.15222161671348922
-61.658522605895996,6004.0,10456.0,10748.0,48.0,57.0,-408.0,0.3199928488782484,-0.7073162257502358,-0.6145937210610466,0.13993888483748995
-61.66631031036377,5932.0,10600.0,10864.0,51.0,24.0,-413.0,0.3292808122894448,-0.683560016962483,-0.6383908195258172,0.12952610321247526
-61.67408323287964,5980.0,10580.0,10880.0,91.0,-93.0,-364.0,0.3334817083736201,-0.6592154706215956,-0.6613913547896321,0.12956229884844891
-61.6818904876709,5968.0,10676.0,10756.0,121.0,-182.0,-282.0,0.33299466218564544,-0.6370258945237773,-0.6812312817720563,0.13869572955664758
-61.6896858215332,6016.0,10616.0,10828.0,144.0,-300.0,-275.0,0.3262925257484018,-0.6124004368667444,-0.7030140061837892,0.1557889587729777
-61.69748139381409,6064.0,10704.0,10872.0,112.0,-380.0,-273.0,0.312431073045045,-0.5867523981324564,-0.7262805045911153,0.1750002186644587
-61.705262184143066,6168.0,10640.0,11080.0,71.0,-402.0,-236.0,0.2939730001679516,-0.5632169079767122,-0.7476256528727787,0.19344888965294355
-61.713051557540894,6356.0,10712.0,11044.0,89.0,-399.0,-194.0,0.275406006445198,-0.5410944054144423,-0.7653140963427117,0.2136883477923793
-61.7208514213562,5896.0,10708.0,11092.0,102.0,-406.0,-75.0,0.25435790344467196,-0.5256806085750545,-0.7761903823009242,0.2376771868458075
-61.72862505912781,6292.0,10996.0,11244.0,98.0,-339.0,-150.0,0.2388971543147679,-0.506009573672468,-0.7881362251599812,0.25636644008662346
-61.73641657829285,6404.0,10760.0,11072.0,120.0,-275.0,-183.0,0.22929938546020937,-0.48451988486788683,-0.7989026161055702,0.27279458017866876
-61.74420785903931,6576.0,10852.0,10768.0,73.0,-237.0,-200.0,0.22057085747465593,-0.46327293135598346,-0.8100635682287411,0.28376698774566544
-61.752031564712524,6584.0,10864.0,11008.0,66.0,-176.0,-3.0,0.210875788491831,-0.4573538768693655,-0.8118382958468919,0.2954275114760374
-61.7597975730896,6908.0,10776.0,11068.0,40.0,-123.0,-315.0,0.21182214353886397,-0.43091592538235757,-0.8252904558518159,0.29721794736921425
-61.76758694648743,6556.0,10808.0,11048.0,53.0,-78.0,-375.0,0.2178388011629449,-0.4006515705142717,-0.8389928328346595,0.2968427230107078
-61.77537965774536,6572.0,11000.0,11096.0,33.0,-37.0,-375.0,0.22591685576528825,-0.37138021364173085,-0.8514987263680815,0.29323749792631076
-61.783188581466675,6500.0,10676.0,11004.0,71.0,-57.0,-486.0,0.23624589976275476,-0.33206681353913664,-0.8657595250368374,0.2904822731239212
-61.79098033905029,6432.0,10624.0,10892.0,115.0,-58.0,-460.0,0.24669380174365524,-0.2931824154066272,-0.8766148793291728,0.2910886339524402
-61.79876470565796,6380.0,10564.0,10896.0,143.0,-66.0,-410.0,0.25558550300049915,-0.2568379742207516,-0.884246925955005,0.2946483999503242
-61.80653619766235,6388.0,10512.0,10756.0,151.0,-132.0,-420.0,0.25942685958603645,-0.21744800953288185,-0.891987869606155,0.2996192719952901
-61.81433153152466,6272.0,10444.0,10760.0,171.0,-179.0,-392.0,0.25883489853707464,-0.1781966066051002,-0.8982716772070662,0.30717821964021735
-61.822131395339966,6196.0,10572.0,10608.0,116.0,-200.0,-307.0,0.253107769792727,-0.14602843869393217,-0.903942945268879,0.3122487848844072
-61.82992935180664,6204.0,10596.0,10684.0,129.0,-206.0,-287.0,0.24625010017335577,-0.11482531936293773,-0.908142051009862,0.31851852282938425
-61.83772134780884,6384.0,10632.0,10672.0,65.0,-274.0,-238.0,0.23174276830049448,-0.0868674625160369,-0.9141307306538496,0.3211142173288304
-61.845521688461304,6220.0,10672.0,10844.0,67.0,-279.0,-212.0,0.21588909533439155,-0.060716543745885726,-0.9190523261696342,0.32411143391345587
-61.853302240371704,6236.0,10676.0,10852.0,63.0,-345.0,-147.0,0.19266099077863877,-0.037926648407980615,-0.924035874218903,0.3280259366715358
-61.86110186576843,6308.0,10692.0,10928.0,79.0,-329.0,-160.0,0.17093682828186418,-0.014237863310983036,-0.9273362746432718,0.3326038450108663
-61.86892628669739,6348.0,10680.0,10752.0,77.0,-382.0,-103.0,0.14307216838323047,0.00636096850506342,-0.9303485568815805,0.33755215215157314
-61.87673091888428,6476.0,10740.0,10700.0,156.0,-404.0,-101.0,0.11312477228533432,0.028418335877374534,-0.9300375780084331,0.34846131431417143
-61.884538650512695,6436.0,10764.0,10496.0,152.0,-357.0,-163.0,0.08871827857188276,0.053998148528809374,-0.9279060880411476,0.3580552454285182
-61.89233422279358,6544.0,10604.0,10924.0,243.0,-343.0,-151.0,0.06451403634729755,0.07879339612467784,-0.9215512773379794,0.37466355984810906
-61.90015697479248,6492.0,10584.0,10872.0,263.0,-345.0,-182.0,0.04092072761115288,0.10613065825372407,-0.9128663914800289,0.392092755271805
-61.90798759460449,6416.0,10552.0,10876.0,288.0,-337.0,-115.0,0.015370840529775847,0.12777663066029785,-0.9024202802749071,0.41118670657873674
-61.91577649116516,6468.0,10532.0,10868.0,289.0,-361.0,-115.0,-0.012105662493529507,0.15007209624330048,-0.8904706811203973,0.42941097439365694
-61.92355561256409,6448.0,10660.0,10916.0,499.0,-344.0,-122.0,-0.04070686814728201,0.17169310444322744,-0.8685300700861698,0.46316298009275275
-61.93136930465698,6448.0,10764.0,10900.0,241.0,-302.0,-101.0,-0.06305345596451835,0.1906089708593528,-0.8556654584259528,0.4770001102469192
-61.939178466796875,6404.0,10848.0,10880.0,186.0,-284.0,-123.0,-0.08216124873409093,0.21051335156101464,-0.8438755036122891,0.4866290090244405
-61.94696545600891,6400.0,10920.0,11060.0,163.0,-246.0,-151.0,-0.096787776035779,0.230840161348888,-0.8320451818726333,0.49502097091032776
-61.95475888252258,6360.0,11048.0,10860.0,163.0,-207.0,-162.0,-0.1080327535557569,0.25010222166923307,-0.8196691641062734,0.5039050151453129
-61.96254777908325,6460.0,11060.0,10552.0,106.0,-230.0,-186.0,-0.11854205137042076,0.2724457944898127,-0.8084503050755726,0.5080641449117628
-61.97032856941223,6488.0,11048.0,10840.0,92.0,-226.0,-223.0,-0.1267017955450931,0.29715022399133273,-0.7963715059832871,0.5113128434192333
-61.97812795639038,6484.0,10956.0,10876.0,77.0,-242.0,-236.0,-0.13489215055395157,0.32337723373209576,-0.7837504984061847,0.5128025240487457
-61.98595309257507,6448.0,10892.0,10836.0,77.0,-499.0,-278.0,-0.1585255801640797,0.36338691796704764,-0.7655831177858752,0.5066577523785764
-61.993736743927,6448.0,10756.0,10860.0,65.0,-217.0,-325.0,-0.16058600894080657,0.3935864884295138,-0.7489174731908737,0.508354628392016
-62.001516342163086,6456.0,11004.0,10712.0,126.0,-170.0,-404.0,-0.15793982821723734,0.4254558201923195,-0.726454235153723,0.5160490286343049
-62.009310245513916,6484.0,10696.0,10816.0,87.0,-175.0,-372.0,-0.15536784713788548,0.4554399567925519,-0.7057944534584923,0.5198937076939528
-62.017077922821045,6476.0,10684.0,10768.0,86.0,-184.0,-362.0,-0.15355278265638805,0.48462512412969266,-0.6845145844027727,0.5224938427777491
-62.02487850189209,6412.0,10680.0,10824.0,113.0,-166.0,-351.0,-0.15210544241621898,0.5113512842214705,-0.6618315337310369,0.5266524655516603
-62.032668352127075,6436.0,10680.0,10892.0,121.0,-173.0,-325.0,-0.1524280071238465,0.5361809500849055,-0.6390530442837098,0.529987639480416
-62.040451765060425,6424.0,10660.0,10836.0,131.0,-202.0,-303.0,-0.15567447622088193,0.5603785278606364,-0.6157229951380179,0.5316263313873464
-62.04824423789978,6472.0,10720.0,10832.0,98.0,-181.0,-318.0,-0.15530632339248124,0.584229790564938,-0.5927849190999962,0.5321292487905259
-62.05608558654785,6584.0,10728.0,10540.0,76.0,-147.0,-293.0,-0.15306128006182604,0.6049384743222295,-0.5720191436584382,0.5323680926941393
-62.06387495994568,6476.0,10660.0,10876.0,26.0,-168.0,-300.0,-0.1487629378196976,0.6271015479446445,-0.552419496260871,0.5286264626818915
-62.071677684783936,6520.0,10772.0,10572.0,-253.0,-176.0,-279.0,-0.13038534440638977,0.6515412092381828,-0.5461217088714,0.5101419348846511
-62.07950234413147,6448.0,10804.0,10888.0,26.0,-109.0,-349.0,-0.12139995845046772,0.6723981477188534,-0.5235535622449992,0.5089542695498797
-62.08736538887024,6508.0,10812.0,10892.0,-38.0,-119.0,-345.0,-0.10916489910415741,0.6935030595033578,-0.5034188640178147,0.5036923452009912
-62.09516215324402,6536.0,10916.0,10928.0,-48.0,-132.0,-333.0,-0.09730725430252508,0.7140447470205478,-0.4838176999655219,0.4965801352375442
-62.10296440124512,6440.0,10828.0,10900.0,-56.0,-151.0,-324.0,-0.08604174233866259,0.7343837174559396,-0.46448214029039453,0.4873743073472135
-62.11074757575989,6436.0,10800.0,10980.0,-100.0,-108.0,-337.0,-0.06957025729653975,0.7530036700284789,-0.4460388590643711,0.47874292519878464
-62.11854577064514,6404.0,10748.0,10868.0,-39.0,-117.0,-295.0,-0.059141223324432154,0.7693130583402971,-0.4273485525011276,0.4712037230816193
-62.1263325214386,6432.0,10680.0,10872.0,-26.0,-116.0,-247.0,-0.0514766120207618,0.783203472544321,-0.41106246553458536,0.4636487123221727
-62.13412570953369,6408.0,10624.0,10852.0,253.0,-138.0,-193.0,-0.06581181062215172,0.7942071173214258,-0.38677980673914336,0.4640099583817741
-62.14191126823425,6644.0,10564.0,10784.0,27.0,-111.0,-209.0,-0.06288096780805616,0.8054220628694604,-0.37042735020366374,0.4583937856818279
-62.149702310562134,6360.0,10596.0,10736.0,48.0,-112.0,-221.0,-0.06094801187229728,0.8165789130074839,-0.35221824772998667,0.4532400298366728
-62.15748572349548,6368.0,10560.0,10848.0,35.0,-92.0,-159.0,-0.05990179980016329,0.8248005362693984,-0.33891592161277667,0.4486110206267521
-62.16527557373047,6416.0,10500.0,10796.0,57.0,-109.0,-166.0,-0.06064881674608233,0.8335347667699998,-0.32406063334822865,0.4433127784385728
-62.173054695129395,6372.0,10796.0,10548.0,40.0,-100.0,-74.0,-0.06344730296837683,0.8392204083841153,-0.31653022266598785,0.4375981764549047
-62.180848598480225,6144.0,10844.0,10712.0,18.0,-139.0,-74.0,-0.06570238572003209,0.846383116478704,-0.3095756862318299,0.4283476521992202
-62.188655376434326,6428.0,10872.0,10748.0,1.0,-158.0,-89.0,-0.06663866838867491,0.854572289435719,-0.30197333148178573,0.41722607430237313
-62.19645619392395,6492.0,10820.0,10736.0,37.0,-225.0,-39.0,-0.07382387040206029,0.8633935632388351,-0.2963037923540892,0.4016287511535897
-62.20423746109009,6492.0,10796.0,10664.0,25.0,-240.0,-85.0,-0.078846921450941,0.8736181611347129,-0.28736159471139594,0.38470480293107245
-62.21206188201904,6428.0,10864.0,10616.0,66.0,-194.0,-73.0,-0.08621148234692137,0.8813427629604103,-0.2781540384672706,0.37206564659103486
-62.219850063323975,6496.0,10780.0,10576.0,48.0,-251.0,-102.0,-0.09259290170005668,0.8913455666121685,-0.2667447993520166,0.35465031714951023
-62.22763252258301,6524.0,10816.0,10996.0,20.0,-149.0,-184.0,-0.09183924323514993,0.8998792804169693,-0.2505162509160838,0.34499919145583846
-62.235414266586304,6508.0,10792.0,10792.0,238.0,-124.0,-212.0,-0.10675093835703778,0.9059298538200163,-0.2255672459738334,0.34207419467319633
-62.243194818496704,6540.0,10852.0,10836.0,26.0,-91.0,-170.0,-0.10544620225548625,0.9116113965650644,-0.21043537118918917,0.33699067440369374
-62.250981092453,6580.0,10816.0,10688.0,12.0,-63.0,-157.0,-0.10286701443004122,0.9161277789459202,-0.19695433843280635,0.3336723820731351
-62.258774518966675,6548.0,10764.0,10920.0,35.0,-12.0,-129.0,-0.10204747569500365,0.9183067933097668,-0.18546607052594544,0.3345164909971942
-62.26656889915466,6504.0,10792.0,10516.0,21.0,-65.0,-114.0,-0.10138512105534563,0.9217903163524223,-0.17509104802175646,0.33070650856936146
-62.274346113204956,6588.0,10736.0,10820.0,80.0,-16.0,-109.0,-0.10485230689005214,0.9231330109560115,-0.16382599244612753,0.3316511450638518
-62.28215575218201,6484.0,10840.0,10756.0,55.0,-246.0,-125.0,-0.1090902791849752,0.9312473376933597,-0.1498323759700892,0.31373231605547397
-62.289961099624634,6488.0,10836.0,10760.0,37.0,49.0,-135.0,-0.10769186598094492,0.9312288952451662,-0.13826995763024236,0.31952562569994386
-62.297760248184204,6432.0,10880.0,10700.0,59.0,57.0,-201.0,-0.106114809746715,0.9313300447315382,-0.12076870021719902,0.3267704331493559
-62.30558156967163,6404.0,10752.0,10696.0,64.0,45.0,-187.0,-0.10543350966972892,0.9312642122064553,-0.10410985399583636,0.3328541428361362
-62.31340932846069,6392.0,10960.0,10736.0,73.0,60.0,-163.0,-0.10601212907971756,0.9301882146398083,-0.08924664914559063,0.3399210929752303
-62.321197509765625,6340.0,10976.0,10592.0,94.0,-253.0,-183.0,-0.11008076247246279,0.9378555072200819,-0.06919643466898746,0.3217469918111819
-62.328991651535034,6332.0,10912.0,10752.0,82.0,-33.0,-177.0,-0.11194753636268741,0.9389071160247356,-0.05204803339523605,0.32126652299940406
-62.33681106567383,6232.0,10920.0,10796.0,79.0,-249.0,-163.0,-0.11488427037362435,0.9455015446366299,-0.03399814906707753,0.302774766733424
-62.344608306884766,6396.0,10528.0,10556.0,52.0,-20.0,-141.0,-0.11544397481667064,0.9458277451623975,-0.020756542271752672,0.3027403691489849
-62.35239219665527,6336.0,10516.0,10864.0,76.0,0.0,-119.0,-0.11851222858447064,0.9451884661949033,-0.008895717998569936,0.3041290536094147
-62.360188245773315,6372.0,10772.0,10968.0,54.0,-14.0,-118.0,-0.119785302067492,0.9450141270707335,0.0024452846855108866,0.30429229636674354
-62.36799955368042,6456.0,10776.0,10776.0,38.0,-4.0,-63.0,-0.12119009665171948,0.9446718520004377,0.00872024439466011,0.3046834584438539
-62.37579822540283,6500.0,10740.0,10760.0,82.0,7.0,-50.0,-0.12657048397175893,0.943528283752937,0.014976596304715106,0.3057940351094465
-62.383594036102295,6460.0,10780.0,10948.0,73.0,-8.0,-26.0,-0.1318244677363717,0.9428608644942058,0.01918137187174505,0.30539773228427736
-62.391416788101196,6548.0,10696.0,10872.0,81.0,21.0,-2.0,-0.13841928004347875,0.941321510879809,0.021290031284254322,0.3070841100335774
-62.39920401573181,6584.0,10988.0,10848.0,130.0,46.0,-25.0,-0.1484552104234351,0.9383820171622367,0.026299059808905068,0.310980063376791
-62.406991958618164,6672.0,10784.0,10980.0,112.0,128.0,-33.0,-0.15696200531566734,0.933252799064808,0.03040836132582569,0.321679146800758
-62.4147732257843,6416.0,10804.0,10908.0,98.0,174.0,-25.0,-0.16463297700288645,0.9267927373121805,0.03283690793004837,0.33596568638204133
-62.42253661155701,6884.0,10776.0,10832.0,94.0,214.0,-78.0,-0.17047715927146462,0.9187044414583256,0.03885090667796161,0.35413315922372735
-62.43033003807068,6600.0,10780.0,10708.0,113.0,284.0,-112.0,-0.17692120860896576,0.9074690625990977,0.047113901694989156,0.3781257286101185
-62.43812394142151,6472.0,10536.0,10804.0,101.0,242.0,-96.0,-0.18264828684658937,0.8972277111651847,0.05433368102713335,0.39833389102024885
-62.445905923843384,6452.0,10796.0,10732.0,110.0,212.0,-121.0,-0.18796285657265657,0.8872506002633421,0.06427544247019307,0.4163231970196315
-62.45369601249695,6412.0,10808.0,10656.0,106.0,193.0,-78.0,-0.19433246437207644,0.8778384107582644,0.07102699939540064,0.4319603954593131
-62.461482524871826,6316.0,10784.0,10724.0,142.0,114.0,-65.0,-0.2033935021479566,0.8705625576207443,0.07945826009989489,0.4409515862934556
-62.46928906440735,6368.0,10792.0,10680.0,148.0,60.0,-31.0,-0.21379555018248558,0.8652797519589548,0.08647941079451309,0.44508844635718386
-62.477132081985474,6412.0,10992.0,10716.0,142.0,61.0,-20.0,-0.22413807052296347,0.859984476344112,0.09240388170963057,0.4490549503505992
-62.48497414588928,6420.0,10684.0,10816.0,127.0,8.0,-57.0,-0.2314425499271639,0.8566162022159536,0.10154065767117638,0.44981387597986994
-62.49282932281494,6520.0,10704.0,10716.0,114.0,233.0,-91.0,-0.2383480629553702,0.8440648905896888,0.10812684391951424,0.46803124573391963
-62.5006206035614,6436.0,11000.0,10984.0,119.0,30.0,-82.0,-0.24398660718152015,0.8394674427452103,0.11844241018896667,0.47088888663409356
-62.50842094421387,6480.0,10800.0,10536.0,123.0,-20.0,-116.0,-0.24795480288475907,0.8363241382340263,0.13245709973970118,0.470675544576134
-62.51620578765869,6452.0,10808.0,10880.0,76.0,29.0,-109.0,-0.2493023559983624,0.8321127107164195,0.1429445182685132,0.4743454823805333
-62.524043798446655,6448.0,10780.0,10856.0,62.0,13.0,-166.0,-0.24702483240223264,0.827996104519856,0.15731246226380138,0.47817776223188463
-62.53185057640076,6628.0,10752.0,10888.0,46.0,23.0,-108.0,-0.2461041127694923,0.8244557232514013,0.1665774739267388,0.4816196333790147
-62.539880990982056,6452.0,10836.0,10864.0,42.0,71.0,-134.0,-0.2444619922402075,0.818480765023538,0.17648861214557493,0.489059650164846
-62.54780578613281,6584.0,10816.0,10884.0,44.0,3.0,-164.0,-0.24058329848846532,0.8147329865697124,0.19004281626810948,0.49215197354932205
-62.555625438690186,6368.0,10860.0,10908.0,57.0,-24.0,-117.0,-0.239155677396671,0.8125064479593358,0.20134536450940596,0.4920344278442486
-62.56343483924866,6316.0,10864.0,10856.0,71.0,-30.0,-118.0,-0.23853693199136222,0.8101113410003302,0.2134153516666443,0.4911961267475524
-62.571226358413696,6360.0,10824.0,10896.0,77.0,-83.0,-173.0,-0.2349397015613634,0.8086451622575179,0.23068115762287042,0.48752696510607757
-62.579039573669434,6308.0,10796.0,10796.0,78.0,-64.0,-227.0,-0.22940238529432508,0.804940997986842,0.2513150130421136,0.4860918633353814
-62.586930990219116,6256.0,10792.0,10992.0,53.0,-97.0,-286.0,-0.21874587161135944,0.8013653910413712,0.27553739192048954,0.483779804609237
-62.59474420547485,6312.0,10772.0,10724.0,34.0,-111.0,-274.0,-0.20677380617496757,0.7984742217299404,0.2981904218889623,0.48038108060826606
-62.602540254592896,6284.0,10836.0,10760.0,25.0,-134.0,-313.0,-0.19177803374422425,0.7950718489566136,0.32335769901915334,0.4759430000062501
-62.610344648361206,6296.0,10812.0,10756.0,36.0,-149.0,-275.0,-0.1785385338430808,0.7925285879948971,0.34632628242945324,0.46912741898398197
-62.618144273757935,6304.0,10936.0,10976.0,-10.0,-136.0,-314.0,-0.16076581615799096,0.788340532103908,0.3696133365069792,0.4648220511909487
-62.62595272064209,6268.0,10992.0,10984.0,-250.0,-159.0,-230.0,-0.12899082762525446,0.7903879079172146,0.377341055080447,0.4650398365275556
-62.63374376296997,6244.0,10940.0,10776.0,-23.0,-153.0,-200.0,-0.1141747781968024,0.7900109149146276,0.3918458700260201,0.4574972005193205
-62.6415855884552,6368.0,10976.0,10748.0,-46.0,-178.0,-225.0,-0.09585469532646695,0.7895625961604913,0.407177525679828,0.449009183324159
-62.649415254592896,6448.0,10900.0,10880.0,-66.0,-155.0,-292.0,-0.07427745779695634,0.7854076621828159,0.42583372667013275,0.4430387123920119
-62.657209157943726,6428.0,10936.0,10636.0,-101.0,-122.0,-284.0,-0.05177016825396465,0.7798467580054883,0.442013020553141,0.44020832950862493
-62.66502070426941,6392.0,10872.0,10776.0,-49.0,-137.0,-369.0,-0.028908372337649285,0.770571577951625,0.46558692616855046,0.4342954794179319
-62.67282223701477,6432.0,10828.0,10732.0,-55.0,-131.0,-319.0,-0.007744912792549874,0.7622977984077071,0.48505686995067177,0.4284412629314027
-62.68061923980713,6400.0,10912.0,10628.0,-56.0,-168.0,-374.0,0.017114517506724877,0.7522340870941342,0.5076204790320917,0.4197289849073998
-62.68841600418091,6480.0,10864.0,10736.0,-80.0,-172.0,-332.0,0.04217185426958812,0.7432358633663796,0.5259234614326787,0.4113714851908997
-62.6962034702301,6500.0,10848.0,10788.0,-101.0,-185.0,-321.0,0.06874769198457284,0.7343054464323492,0.5421163066250564,0.4027147579587699
-62.70404529571533,6480.0,10772.0,10808.0,-90.0,-154.0,-296.0,0.09220928123600183,0.724792076002611,0.556723446213415,0.3952630762593749
-62.71184492111206,6592.0,10996.0,10704.0,-111.0,-174.0,-317.0,0.11860311554579171,0.7140598292383101,0.5712092262113313,0.3870037223878333
-62.71963620185852,6520.0,10748.0,10668.0,-91.0,-167.0,-299.0,0.14267645864245035,0.7034696757482467,0.5847310781309606,0.37797276319823675
-62.727437019348145,6456.0,10696.0,10792.0,-46.0,-113.0,-289.0,0.1607855289267144,0.6915733485453974,0.5992925160042984,0.36976045966368626
-62.73522925376892,6452.0,10760.0,10688.0,-37.0,-96.0,-274.0,0.17686889693776783,0.6795584639187224,0.613053498842488,0.36205399454974574
-62.743011474609375,6504.0,10752.0,10724.0,-64.0,-51.0,-29.0,0.18434610234495294,0.6785748063982372,0.6119046270070294,0.3621125158278946
-62.750802755355835,6484.0,10748.0,10752.0,-82.0,-31.0,-297.0,0.20021499540307794,0.6620932382469865,0.6261354003124894,0.359862418097366
-62.758602142333984,6488.0,10500.0,10844.0,-92.0,-5.0,-224.0,0.21283335182477525,0.6482212550254696,0.6359166215282054,0.3607231893687871
-62.76639938354492,6504.0,10980.0,10868.0,-117.0,-31.0,-212.0,0.2278381115952463,0.6350788453687117,0.6434579813149112,0.3615611723512296
-62.77423048019409,6540.0,10840.0,10828.0,-91.0,-39.0,-178.0,0.2406919846172462,0.6243729009468494,0.6495241242894996,0.3610322161112301
-62.782050132751465,6560.0,10764.0,10864.0,-69.0,-11.0,-202.0,0.2514366247421533,0.6116819870124416,0.6579600757221651,0.360157339587114
-62.78987264633179,6540.0,10716.0,10796.0,-72.0,11.0,-179.0,0.26027685742413065,0.5993634120471782,0.6653452462144367,0.36101961321849807
-62.79767155647278,6564.0,10776.0,10736.0,-18.0,53.0,-201.0,0.2644671505937106,0.5854888295380809,0.6763287279247127,0.360332358423042
-62.805461168289185,6448.0,10652.0,10796.0,-57.0,83.0,-249.0,0.2702731632447374,0.5666835041778386,0.6889301251207597,0.36221196283875495
-62.81325340270996,6476.0,10652.0,10840.0,-89.0,141.0,-218.0,0.2730436398946036,0.5468384139181008,0.6999647882062411,0.36941063201812946
-62.82105803489685,6220.0,10680.0,10844.0,-47.0,104.0,-292.0,0.2782771635210333,0.5243081031734976,0.714536886617597,0.3702699972616315
-62.82884454727173,6480.0,10624.0,10816.0,-50.0,97.0,-307.0,0.28435161202264586,0.5005932827116959,0.72896921980225,0.37034362776339147
-62.83663821220398,6332.0,10716.0,10528.0,-39.0,102.0,-255.0,0.28775135900184406,0.47995013424802446,0.7411002562938146,0.37096823873363793
-62.844425201416016,6144.0,10688.0,10844.0,-61.0,98.0,-304.0,0.29371976105391934,0.455386193525713,0.753953450414512,0.37135739028682646
-62.85222792625427,6380.0,10980.0,10808.0,-65.0,111.0,-233.0,0.29649432424424915,0.43466553021348137,0.7636808391927282,0.374097003977671
-62.86004829406738,6332.0,10804.0,10812.0,-56.0,42.0,-242.0,0.3036696086455357,0.41561078421898323,0.7718668807819125,0.3731942700229332
-62.86784338951111,6360.0,10796.0,10504.0,-43.0,56.0,-228.0,0.3088356415321399,0.39720144163261223,0.7799842130393762,0.3721238889049602
-62.87564444541931,6304.0,10800.0,10856.0,-57.0,242.0,-217.0,0.3012774461112669,0.3728794646237736,0.7917836056956072,0.37851225485870854
-62.88344955444336,6288.0,10804.0,10728.0,-74.0,-27.0,-259.0,0.3140372444880026,0.35383352025543524,0.7967680817335033,0.37595621147780295
-62.89124655723572,6304.0,10852.0,10548.0,-89.0,-47.0,-508.0,0.3363972932401717,0.31729252388762436,0.8073569460888665,0.36652022725596756
-62.89904570579529,6304.0,10860.0,10784.0,-93.0,-43.0,-340.0,0.3527259849606266,0.2918539435371663,0.8120780306167321,0.3618493158277491
-62.90686583518982,6276.0,10864.0,10864.0,-131.0,-36.0,-378.0,0.3703412893891063,0.2620237048918739,0.8158929613957772,0.35848233288849757
-62.91468906402588,6352.0,10984.0,10716.0,-148.0,-37.0,-423.0,0.3893108372237002,0.2281237572616376,0.8190426806439715,0.3543525231694457
-62.92247462272644,6280.0,10988.0,10844.0,-205.0,-48.0,-507.0,0.41204739329782075,0.18621363496242174,0.8201589255378613,0.3505435275270875
-62.93027400970459,6336.0,10796.0,10948.0,-224.0,-66.0,-556.0,0.43683511997348645,0.1402163501474256,0.8187703066446567,0.34515161605604416
-62.9380989074707,6228.0,10984.0,10864.0,-205.0,-99.0,-513.0,0.46133584228968644,0.09864605153308999,0.8140583896520353,0.33874346543207556
-62.94589972496033,6256.0,11016.0,10864.0,-203.0,-84.0,-503.0,0.4833857172997522,0.057199594013791766,0.8080166929093693,0.33192691776212935
-62.95368838310242,6180.0,11028.0,10784.0,-156.0,-77.0,-512.0,0.5038847448354401,0.01677594538757317,0.801853644327194,0.32070151957493825
-62.96148610115051,6232.0,10960.0,10780.0,-179.0,-184.0,-468.0,0.5295693510223474,-0.01862029254236889,0.7885246230986058,0.3121514150706479
-62.96926927566528,6300.0,10940.0,10580.0,-147.0,-175.0,-454.0,0.5532205092621635,-0.05177670292035146,0.7748772445474472,0.3013826422489623
-62.9770667552948,6232.0,10864.0,10584.0,-169.0,-193.0,-484.0,0.5776062437952045,-0.08742584277599409,0.7580072750917418,0.2900908824001443
-62.984856605529785,6232.0,10820.0,10628.0,-160.0,-222.0,-452.0,0.6019057109734205,-0.11957588855812355,0.7384794727407734,0.2793907484395743
-62.992671966552734,6284.0,10848.0,10696.0,-204.0,-183.0,-458.0,0.6220976711660319,-0.1551072876165602,0.7182825560967816,0.2701969401475657
-63.00045943260193,6292.0,10944.0,10692.0,-252.0,-207.0,-737.0,0.6474813126419101,-0.20951918558243693,0.6893725125895148,0.24826437428354547
-63.00824022293091,6348.0,10924.0,10656.0,-260.0,-192.0,-463.0,0.6635463887095533,-0.24752996470370828,0.6635726448936596,0.24105279826860365
-63.016080141067505,6288.0,10924.0,10604.0,-316.0,-277.0,-501.0,0.6822361706872111,-0.2884684571333265,0.6289919867673514,0.23602719594917243
-63.023865938186646,6212.0,10956.0,10712.0,-386.0,-243.0,-479.0,0.694616185701769,-0.33210666389330057,0.5934812967681711,0.23450686289564715
-63.03166222572327,6256.0,11044.0,10704.0,-430.0,-329.0,-262.0,0.7036353921892022,-0.3644237053923679,0.5563343772344885,0.25016925973020393
-63.039427757263184,6368.0,11076.0,10592.0,-448.0,-360.0,-495.0,0.7161572336495471,-0.4071312528152269,0.5075504796447037,0.252498456005107
-63.04721808433533,6396.0,10904.0,10628.0,-456.0,-360.0,-497.0,0.7252953276684887,-0.4486283699782818,0.45628696901059684,0.253932028747876
-63.05501317977905,6436.0,10892.0,10808.0,-415.0,-375.0,-497.0,0.7334904864868831,-0.4852553590493761,0.4029959777896469,0.2532058147682691
-63.06279969215393,6492.0,10800.0,10696.0,-433.0,-330.0,-766.0,0.7412608702665234,-0.5307536639736862,0.3386859181910916,0.23264719901447578
-63.07059025764465,6504.0,10812.0,10784.0,-384.0,-1.0,-492.0,0.7324725031943523,-0.56919142334315,0.3075477954250806,0.21194223077520782
-63.07837891578674,6504.0,10752.0,10924.0,-374.0,-156.0,-488.0,0.7260614086935806,-0.6023144688682533,0.2659762990267761,0.19826426746609174
-63.086204290390015,6448.0,10720.0,10520.0,-319.0,-50.0,-473.0,0.7178062542133865,-0.6317846504392575,0.2321058823564989,0.17812691053572838
-63.09407091140747,6176.0,10868.0,10940.0,-306.0,-53.0,-462.0,0.7084183241175842,-0.6586471330827329,0.1982933970242022,0.15813652592912358
-63.10186839103699,6316.0,10964.0,10968.0,-499.0,17.0,-411.0,0.6840841690065143,-0.6956839650331234,0.16853715886096202,0.14017095488557446
-63.109668493270874,6256.0,10784.0,10748.0,-297.0,27.0,-391.0,0.6698781445660595,-0.7187872453786065,0.14261977861114453,0.11944775453174748
-63.11746287345886,6300.0,11048.0,10832.0,-289.0,33.0,-344.0,0.6544717429100483,-0.7396948161858097,0.11983955485319399,0.10078093933236279
-63.12526249885559,6284.0,10928.0,10780.0,-323.0,86.0,-275.0,0.6347361314150161,-0.7611969309414994,0.10405996270995915,0.08282994604817424
-63.13305044174194,6196.0,10952.0,10608.0,-334.0,76.0,-285.0,0.6134979726384092,-0.7822149592718453,0.08683290206807043,0.06496185171578904
-63.140849113464355,6284.0,10884.0,10724.0,-312.0,46.0,-209.0,0.5927520393843836,-0.8003024454146153,0.07319574067967473,0.0529471360452517
-63.14863181114197,6196.0,10812.0,10796.0,-328.0,34.0,-203.0,0.5702737580201948,-0.8182351341106154,0.059203362775086775,0.042119687280757434
-63.156431674957275,6208.0,10748.0,10728.0,-360.0,-255.0,-218.0,0.5462120662641894,-0.835553359371337,0.029567099574970647,0.051271326620262764
-63.16419696807861,6212.0,10780.0,10696.0,-378.0,-50.0,-221.0,0.5194071235108265,-0.8532742263539143,0.00934629819452703,0.04529880126887544
-63.172039270401,6172.0,10788.0,10968.0,-387.0,-85.0,-218.0,0.4911577646468344,-0.8699706429511387,-0.012284042003437131,0.042002773031849024
-63.17982721328735,6228.0,10952.0,10836.0,-408.0,-90.0,-210.0,0.4604844091601143,-0.8861599736136869,-0.03357609428735632,0.03933517481665505
-63.1876266002655,6196.0,10972.0,10792.0,-437.0,-127.0,-251.0,0.4267459669304507,-0.9016199182140616,-0.05955341373152319,0.03771993771449912
-63.19542384147644,6232.0,10980.0,10664.0,-443.0,-147.0,-289.0,0.39162641647880864,-0.915081871306582,-0.08914789015738837,0.03614654067123156
-63.20323061943054,6196.0,11044.0,10720.0,-416.0,-178.0,-325.0,0.3576169670174553,-0.9251173494380968,-0.12237765101762955,0.035940300517300114
-63.21101927757263,6224.0,11064.0,10692.0,-415.0,-234.0,-282.0,0.32210996659191243,-0.9332366759252443,-0.1535934675887045,0.0415153326403075
-63.218849182128906,6260.0,10992.0,10600.0,-401.0,-264.0,-293.0,0.28661223308264466,-0.9384977714328929,-0.1861288365699143,0.04930940133486881
-63.22663712501526,6316.0,10860.0,10976.0,-404.0,-317.0,-317.0,0.24937304836157825,-0.9407881544715437,-0.22147433378817039,0.0606617723938787
-63.23442101478577,6344.0,10828.0,10684.0,-385.0,-326.0,-497.0,0.21366122545859034,-0.9360503946180435,-0.27091962956134935,0.06900067962911412
-63.24223804473877,6368.0,10724.0,10736.0,-314.0,-370.0,-278.0,0.1806952835237903,-0.9319976906349109,-0.30207770545187107,0.08647877793067095
-63.250059366226196,6476.0,10712.0,10632.0,-307.0,-379.0,-508.0,0.14925670932810284,-0.91885343666461,-0.35104871846553753,0.10097323365073226
-63.25784993171692,6440.0,10628.0,10804.0,-333.0,-373.0,-199.0,0.11272400755563412,-0.9128047345888439,-0.3743993072829218,0.1179235911039677
-63.265631914138794,6488.0,10664.0,10788.0,-301.0,-371.0,-150.0,0.07805778590089214,-0.9061860808454497,-0.39273024649917526,0.13600265595535774
-63.273452043533325,6484.0,10692.0,10668.0,-289.0,-314.0,-114.0,0.04572076948993858,-0.8998575182926731,-0.40701841968635827,0.15000687999361598
-63.28124141693115,6460.0,10856.0,10744.0,-283.0,-295.0,-42.0,0.01351564857744004,-0.8950635384591291,-0.41493354602872595,0.16281505380210234
-63.28905940055847,6500.0,10972.0,10716.0,-281.0,-503.0,5.0,-0.026735750887394882,-0.8873134426585484,-0.41859820287801336,0.19166532980489628
-63.29682922363281,6652.0,10784.0,10660.0,-250.0,-165.0,62.0,-0.053191047808215076,-0.885927026580692,-0.4174381949859893,0.19506247556564368
-63.30462837219238,6484.0,10916.0,10572.0,-220.0,-149.0,147.0,-0.07815856890739994,-0.8874207940048433,-0.40897120896339845,0.19778301927409567
-63.31242394447327,6460.0,10792.0,10936.0,-153.0,-170.0,498.0,-0.10460986325917664,-0.9001973893273499,-0.37143810301589403,0.20182956271337896
-63.32022190093994,6336.0,10676.0,10956.0,-47.0,-230.0,364.0,-0.12214403493499901,-0.906875179949834,-0.34130364796912616,0.21487220063033002
-63.328038930892944,6636.0,10556.0,10604.0,60.0,-225.0,459.0,-0.1326344180841055,-0.9160499980499792,-0.3011216579760746,0.2293169407389343
-63.335845947265625,6300.0,10520.0,10560.0,140.0,-208.0,563.0,-0.13804312629360527,-0.9269677560266533,-0.2505082106743105,0.24273547527041436
-63.3436381816864,6256.0,10308.0,10488.0,205.0,-153.0,631.0,-0.13799660621427984,-0.9383385735959997,-0.1928990247973588,0.25153056316756783
-63.351438760757446,6144.0,10436.0,10484.0,310.0,-172.0,713.0,-0.13091311131831457,-0.9480124499081658,-0.1252923932842556,0.2616026916703638
-63.35923624038696,6156.0,10508.0,10308.0,406.0,-83.0,802.0,-0.11625295164463793,-0.9565582527406744,-0.04852796707477793,0.2629193731150426
-63.367032051086426,6200.0,10540.0,10488.0,394.0,-64.0,895.0,-0.10386409966576379,-0.9593678545463857,0.03579060727431888,0.2598934414228658
-63.37485885620117,6640.0,10580.0,10580.0,469.0,-85.0,1075.0,-0.08832454189740849,-0.9533143500922463,0.13653398998170246,0.2544582378043348
-63.38268685340881,6436.0,10640.0,10664.0,548.0,-103.0,1244.0,-0.06872146037048249,-0.9338238290105255,0.2512715875910992,0.24517953937088155
-63.39049935340881,6324.0,10680.0,10532.0,600.0,-95.0,1395.0,-0.04725118702064926,-0.8969005619559315,0.3751226306244017,0.2293898848722472
-63.398303270339966,6272.0,10760.0,10436.0,629.0,-12.0,1505.0,-0.027552181749707538,-0.8414687349456127,0.500564753554928,0.2015097339791686
-63.40609622001648,6300.0,10968.0,10420.0,713.0,56.0,1677.0,-0.007116637266122385,-0.7612943695871407,0.6282602248655111,0.16021649777996566
-63.413883209228516,6248.0,10600.0,10288.0,717.0,153.0,1540.0,0.010411883181858197,-0.672001599605282,0.7324689099952003,0.10860358514797212
-63.42167091369629,6220.0,10624.0,10252.0,680.0,135.0,1988.0,0.022376511903187596,-0.53655539193426,0.8415669463282509,0.058074761721956435
-63.42945384979248,6256.0,10576.0,10372.0,594.0,138.0,2136.0,0.028634346482207224,-0.37223758579742,0.927618518461897,0.011964034762585634
-63.43724012374878,6252.0,10592.0,10376.0,530.0,89.0,2298.0,0.0354497903904121,-0.18111800854463142,0.982438078648907,-0.027477280847036527
-63.44502520561218,6348.0,10716.0,10432.0,381.0,-256.0,2374.0,0.06758985584099321,0.022548299670526822,0.9963192568286734,-0.047656311667202904
-63.45281744003296,5924.0,10876.0,10480.0,231.0,-133.0,2368.0,0.08667408189557539,0.22450796189640776,0.9691702226477006,-0.05284749857549248
-63.460612297058105,5856.0,10892.0,10508.0,246.0,-341.0,2272.0,0.11878437808742581,0.40878841029122176,0.9027500383646538,-0.06184395982289143
-63.46842050552368,5956.0,10668.0,10564.0,-478.0,-727.0,2216.0,0.20081494796114835,0.5625265108913176,0.8015825129635799,-0.02650954791757325
-63.47626519203186,5836.0,10176.0,11472.0,-812.0,-1047.0,1838.0,0.31218687475633045,0.6616657476426098,0.6816285558248607,0.010968386870276963
-63.484150409698486,6364.0,9636.0,11412.0,-1587.0,-1666.0,1510.0,0.4877032480748156,0.6902134778373867,0.5323063482059205,0.048998453940625575
-63.49202609062195,5924.0,9216.0,11540.0,-1803.0,-2120.0,1135.0,0.667461822996531,0.6531250498974226,0.35390698840201956,0.05169359340236646
-63.49982810020447,5844.0,9056.0,11284.0,-1691.0,-2503.0,714.0,0.8088763650029236,0.5674271759651247,0.15406974818847055,0.0028175892251500138
-63.50761556625366,5520.0,8988.0,10984.0,-1471.0,-2650.0,216.0,0.8867221190641047,0.45139907511769706,-0.04277137136071601,-0.0901851891236858
-63.51540160179138,5220.0,8852.0,10620.0,-1113.0,-2511.0,-411.0,0.8921753538490642,0.3370946433700635,-0.206372271454268,-0.2186339977458052
-63.52320861816406,5044.0,8736.0,10292.0,-650.0,-2368.0,-1003.0,0.8276688197195824,0.25245879360547074,-0.34003283177260885,-0.36824795411782607
-63.53101444244385,5004.0,8596.0,10200.0,-294.0,-2246.0,-1310.0,0.7072847599494253,0.19278976778374338,-0.4521622262901064,-0.5080646562176401
-63.53884792327881,5484.0,8788.0,9296.0,85.0,-2217.0,-1867.0,0.5193000786286757,0.16801845072763397,-0.5440497681751326,-0.6372653123306817
-63.546658754348755,5936.0,9044.0,9428.0,358.0,-2340.0,-1891.0,0.2879664671731936,0.1389873325196261,-0.6208253576170699,-0.715774902132302
-63.55444407463074,6880.0,9624.0,9544.0,553.0,-2636.0,-1608.0,0.03671758768613532,0.0725353302914532,-0.6771047278796029,-0.7313820014856189
-63.562254667282104,7384.0,9844.0,10404.0,591.0,-3131.0,-1134.0,-0.21519953521912194,-0.056149004389389884,-0.6882287541864355,-0.6905632710031293
-63.57007884979248,7836.0,10488.0,11084.0,750.0,-3477.0,-647.0,-0.4380499941807255,-0.22987574200932662,-0.6400660452502233,-0.5878646132841023
-63.57788681983948,8728.0,11084.0,11580.0,333.0,-3535.0,-1.0,-0.6007009327883062,-0.40500595142503776,-0.4984719660110751,-0.4760822069334376
-63.58567786216736,8988.0,11320.0,12060.0,362.0,-3449.0,526.0,-0.6847338798062985,-0.5643549730314046,-0.300147379638964,-0.35007788955602404
-63.593520641326904,9800.0,11488.0,12480.0,381.0,-2931.0,931.0,-0.6895616430728357,-0.6767009626487287,-0.08743605667313256,-0.24276631468642382
-63.60131478309631,10464.0,11316.0,12628.0,279.0,-2185.0,1207.0,-0.6488523750392009,-0.731515385254411,0.10702339504295616,-0.18006062716640264
-63.609113693237305,10548.0,10896.0,12536.0,185.0,-1439.0,1274.0,-0.5952921475600121,-0.7421215216485626,0.2632838778214976,-0.1598890422720867
-63.61694121360779,10600.0,10540.0,12340.0,87.0,-698.0,1265.0,-0.5517006134494133,-0.7214721385454256,0.37727182089016686,-0.18102585335926163
-63.624778270721436,10476.0,10176.0,12524.0,-30.0,-86.0,1238.0,-0.5282322466081955,-0.6765698435017701,0.4571340879430964,-0.2329213733165808
-63.632569789886475,10412.0,10060.0,12368.0,-100.0,402.0,1293.0,-0.5203790127845174,-0.607865176204866,0.5133328201428734,-0.3101532304764903
-63.64036512374878,10248.0,9980.0,11968.0,-209.0,754.0,1465.0,-0.5202874407457624,-0.506962166123752,0.556562840076593,-0.40314779692715047
-63.648152112960815,9904.0,10080.0,11740.0,-353.0,922.0,1672.0,-0.5146632740156485,-0.37193577038711234,0.592531897126856,-0.49567272264397166
-63.6559419631958,9324.0,10036.0,11152.0,-500.0,1129.0,1820.0,-0.5015310423315547,-0.20282621902196324,0.6112404730133975,-0.5776791692673683
-63.66371989250183,8820.0,10148.0,10912.0,-678.0,1183.0,1945.0,-0.46874947549433854,-0.009600463689015092,0.6148790330068794,-0.6341179189151365
-63.67151236534119,8268.0,10168.0,10708.0,-738.0,1152.0,2010.0,-0.4109161570520504,0.187950973248365,0.5968963191053651,-0.6629759631894909
-63.67931771278381,7724.0,10084.0,10176.0,-688.0,1013.0,2005.0,-0.32961697990802025,0.3679692835898199,0.5558609417562704,-0.6685580500753414
-63.68711590766907,7244.0,10084.0,9756.0,-658.0,772.0,1948.0,-0.2281646081168346,0.5169965903866897,0.5003323661953126,-0.6559900612576598
-63.6949257850647,6860.0,9852.0,9332.0,-578.0,763.0,1855.0,-0.12711452175298296,0.642599554665931,0.4274512578368102,-0.6230514688822957
-63.70272636413574,6648.0,9620.0,9184.0,-501.0,76.0,1680.0,-0.010347821392167075,0.706713387466182,0.3554417003961399,-0.6116455739952761
-63.71051859855652,6780.0,9428.0,9100.0,-338.0,-387.0,1575.0,0.10554069540428519,0.7276341135137793,0.27378580145215314,-0.6200412029758979
-63.718311071395874,6856.0,9220.0,9136.0,-152.0,-534.0,1556.0,0.2100611743963832,0.726967724165489,0.1763793346635577,-0.6295097785868797
-63.726104736328125,7212.0,9124.0,9204.0,65.0,-1148.0,1569.0,0.30553404594359385,0.6794569860171905,0.05138223889453075,-0.6650917353628435
-63.733898639678955,7660.0,9032.0,9380.0,271.0,-1440.0,1497.0,0.37667909905208674,0.5997667930353565,-0.0901418091716768,-0.7001907629700986
-63.741700649261475,8076.0,8884.0,9572.0,467.0,-1503.0,1359.0,0.41676318028480847,0.504193036973768,-0.23550552291173119,-0.7187732477660342
-63.74949550628662,8360.0,9012.0,9824.0,505.0,-1496.0,1279.0,0.43732302298526066,0.3960472240748705,-0.3721789449180388,-0.716504014524216
-63.757296323776245,8576.0,9108.0,10072.0,496.0,-1324.0,1188.0,0.4458378232141956,0.28962571865818076,-0.48854221498446,-0.6918613175062165
-63.76508712768555,8764.0,9256.0,10064.0,475.0,-1184.0,1127.0,0.4466357426454964,0.18628998435928368,-0.585336260463352,-0.650533640410473
-63.77292776107788,8800.0,9456.0,10216.0,497.0,-1276.0,1195.0,0.43590179638915777,0.07111107407379731,-0.6741972400072843,-0.5919382743287819
-63.78073453903198,8912.0,9540.0,10028.0,547.0,-945.0,1237.0,0.43642344200215216,-0.029458837021085812,-0.7383443554277026,-0.5133365065923224
-63.78853487968445,8912.0,9524.0,9996.0,577.0,-896.0,1316.0,0.4345064942224705,-0.1310177468875664,-0.7862902695118112,-0.4192684921980745
-63.79633855819702,9140.0,9424.0,9932.0,620.0,-1044.0,1374.0,0.4150336171138733,-0.23696800023776607,-0.8223163672433261,-0.30885118696943353
-63.80416536331177,9360.0,9228.0,10092.0,709.0,-1162.0,1474.0,0.38032252535822947,-0.3431517366917853,-0.8402040638599259,-0.17792918081027717
-63.811962604522705,9328.0,8972.0,10176.0,828.0,-1249.0,1601.0,0.33242580691655693,-0.44438135199732814,-0.8314617535711748,-0.02626117364570384
-63.81980037689209,9280.0,8780.0,10232.0,919.0,-1254.0,1594.0,0.27562176945004957,-0.5264052781860838,-0.7932847453640086,0.13277588665045825
-63.827593088150024,9316.0,8640.0,10092.0,783.0,-1148.0,1564.0,0.21055069427711565,-0.5927452909959586,-0.72793832143576,0.27281353582040085
-63.835387229919434,9276.0,8652.0,10096.0,1191.0,-1077.0,1620.0,0.16202035004500173,-0.6356613927857325,-0.6233268110304431,0.4256144811253682
-63.84317326545715,9192.0,8712.0,9508.0,1401.0,-780.0,1567.0,0.13653668270495412,-0.6596073984565775,-0.4861392015152761,0.5567265854325284
-63.85098457336426,9160.0,8788.0,9360.0,1624.0,-542.0,1288.0,0.1420017618106305,-0.6571546743688287,-0.3337162631676044,0.6607697702644438
-63.8587691783905,9468.0,8904.0,9056.0,1565.0,-302.0,1645.0,0.12561259885341616,-0.6552454098478065,-0.14982958241205202,0.7296752867659018
-63.86654305458069,9148.0,9156.0,9088.0,1975.0,-154.0,1736.0,0.12276530487137041,-0.6299779100828415,0.07175328380482535,0.7634841052639659
-63.87431287765503,9092.0,9124.0,9312.0,2003.0,-130.0,1949.0,0.10082629203163125,-0.5707621596703131,0.30220289300948666,0.7567945740954602
-63.88210105895996,9348.0,9280.0,9684.0,1954.0,-142.0,2177.0,0.05622895823002122,-0.47146300653705764,0.5217546760453535,0.7087545384321803
-63.88987898826599,9244.0,9300.0,9960.0,1966.0,-172.0,2440.0,-0.005860699072137111,-0.32783609915071943,0.7165577219778281,0.6156575146735164
-63.89770722389221,9716.0,9348.0,10388.0,2034.0,-76.0,2570.0,-0.07798206564518732,-0.15761572437060603,0.8647069675721799,0.470486919160314
-63.905489683151245,9572.0,9284.0,10388.0,2105.0,73.0,2561.0,-0.15349970179967887,0.017690374073329428,0.9469830753252303,0.2816876767984793
-63.913259744644165,9572.0,9192.0,10744.0,2055.0,217.0,2910.0,-0.23510062669438328,0.21518280436916032,0.9452694210615357,0.06992694500492072
-63.92105197906494,9660.0,8972.0,10416.0,2661.0,315.0,3096.0,-0.31079664866356865,0.3899460317964198,0.844559629341138,-0.19510655538161595
-63.92883849143982,9544.0,8752.0,10004.0,2653.0,870.0,3088.0,-0.3879057548584313,0.5267175771287264,0.6303309510087751,-0.41806771161108336
-63.936625719070435,9264.0,8364.0,9696.0,2843.0,1111.0,3203.0,-0.4318460176511502,0.603723654090775,0.3187424004359187,-0.5894319712184548
-63.94441080093384,9644.0,8832.0,9560.0,2658.0,1564.0,3230.0,-0.41862090440732436,0.6277790399826518,-0.04398581820249856,-0.6547635169652556
-63.95218515396118,9644.0,8728.0,9712.0,2823.0,1637.0,3431.0,-0.3428234128710352,0.5590415212215339,-0.4188257476081072,-0.6281159751815576
-63.96000957489014,9968.0,8880.0,9320.0,2807.0,1794.0,3556.0,-0.2017205561106564,0.4079320313558179,-0.7361381739544989,-0.5009998641549308
-63.967814922332764,10096.0,8800.0,9156.0,2785.0,2033.0,3706.0,-0.007418926417797997,0.19170577229732913,-0.9381845671420692,-0.2881034091695899
-63.97560000419617,10296.0,8884.0,8984.0,2781.0,1718.0,3768.0,0.16648680869303564,-0.0692278432724276,-0.9831132301198928,-0.031273391410070454
-63.98338866233826,10364.0,8936.0,9156.0,2799.0,1665.0,3761.0,0.30877889431683564,-0.31806318087866253,-0.8657022336877889,0.23248881689619474
-63.99116778373718,10412.0,9164.0,9348.0,2939.0,1674.0,3796.0,0.4021049507007807,-0.5115324987979686,-0.5991819756708132,0.46650516752405874
-63.99899649620056,10296.0,9316.0,9436.0,3007.0,1691.0,3738.0,0.4320067114010734,-0.6126284236226002,-0.22891153478574913,0.6210121779129217
-64.00678896903992,10244.0,9376.0,9708.0,3099.0,1805.0,3704.0,0.3949077765841594,-0.6087351377847654,0.18716577896270176,0.6621618768887284
-64.0145833492279,10228.0,9424.0,9820.0,3183.0,1926.0,3542.0,0.2991452647626154,-0.5040145912404885,0.5709977399481156,0.5748417028721315
-64.02236104011536,10196.0,9372.0,9908.0,3157.0,2182.0,3430.0,0.14332105283393756,-0.3283942386836783,0.8549723436897523,0.37501812134827733
-64.03015613555908,10372.0,9360.0,10072.0,3059.0,2494.0,3248.0,-0.05617877267353819,-0.11809258027303379,0.9857433818458327,0.10586818753758345
-64.03793525695801,10416.0,9252.0,10288.0,3014.0,2714.0,3180.0,-0.26274370538304603,0.10550217720969032,0.9421038456419524,-0.17965349958252042
-64.04572582244873,10376.0,9000.0,9968.0,2953.0,2855.0,3153.0,-0.43317716662323413,0.31147591550183024,0.730134183662731,-0.4269008904016492
-64.05350518226624,10272.0,9184.0,9784.0,2889.0,2993.0,3155.0,-0.532333695901127,0.46842626997955955,0.3853676627069191,-0.5904993059615644
-64.06130051612854,10080.0,8892.0,9736.0,2857.0,2947.0,3125.0,-0.5355087795107087,0.5403205535755325,-0.02428261633815074,-0.648609590581696
-64.06907963752747,9744.0,8796.0,9500.0,2912.0,3066.0,3174.0,-0.4419038896473052,0.518387317867236,-0.43780849393641086,-0.5867872388064752
-64.0768690109253,9708.0,8860.0,9248.0,3051.0,2598.0,3099.0,-0.2944259351127986,0.37976506787978365,-0.7632486910204055,-0.4319065843522823
-64.08464741706848,9456.0,8884.0,9164.0,3089.0,2443.0,3039.0,-0.10955433946938017,0.17422722010354386,-0.9569178907283246,-0.2048191223554907
-64.09243297576904,8992.0,8732.0,9172.0,3075.0,2392.0,2925.0,0.08819993371694937,-0.052240965110569366,-0.9931787358519996,0.055566643843820714
-64.10021471977234,8808.0,9040.0,9164.0,3067.0,2472.0,2867.0,0.27852123859570427,-0.26610821233225707,-0.8707176281845228,0.305717436449353
-64.1080379486084,8708.0,9144.0,8988.0,3137.0,2585.0,2811.0,0.4342435015671096,-0.43379962522341864,-0.6049541003685488,0.5072287481502177
-64.1158275604248,8476.0,9052.0,8940.0,2974.0,2613.0,2595.0,0.5268260094207615,-0.5302437322859275,-0.25503208872227934,0.6133959356657303
-64.12360548973083,9068.0,9136.0,8712.0,2821.0,2512.0,2532.0,0.5370510228620501,-0.5495580001535031,0.11966262342423273,0.6286835928074938
-64.1313796043396,9264.0,9068.0,8792.0,2694.0,2244.0,2538.0,0.47109250504148287,-0.48622961448921387,0.46255102636608975,0.5724501390471384
-64.13916802406311,9600.0,9204.0,8756.0,2652.0,2033.0,2460.0,0.3559944189935942,-0.35665731055131666,0.7362785693465708,0.4516164354811303
-64.14693880081177,9620.0,9364.0,9068.0,2668.0,1860.0,2553.0,0.20583161964549992,-0.1720551295397347,0.9206102798457083,0.2837377123252778
-64.15471172332764,9780.0,9636.0,9384.0,2577.0,1882.0,1991.0,0.04173672340976713,-0.011712469204370184,0.995849664838791,0.08002692687227857
-64.16249418258667,9888.0,9944.0,9732.0,2423.0,1909.0,1577.0,-0.12712558992787937,0.11570341210685413,0.9776160199264836,-0.1213207418186249
-64.17027449607849,10076.0,10136.0,9912.0,2255.0,2083.0,1032.0,-0.30485304117621354,0.19322134687679945,0.8854852346181367,-0.2926534361151303
-64.17809820175171,10120.0,10104.0,9976.0,2058.0,2146.0,757.0,-0.46963433642911784,0.24317676587902082,0.7370408356220209,-0.42080810021789633
-64.18588757514954,10208.0,9964.0,10196.0,1831.0,2172.0,38.0,-0.6279171331549519,0.24289840692210182,0.5628482732274602,-0.4795020950215313
-64.19369959831238,9932.0,9604.0,10080.0,1704.0,2208.0,-381.0,-0.7657885023540117,0.21660357745792036,0.367597620230561,-0.48116821330555365
-64.20148396492004,9692.0,9460.0,10148.0,1558.0,2071.0,-524.0,-0.8611466979708197,0.1777214071941266,0.16915873916012977,-0.4452266691974421
-64.20928072929382,9136.0,9264.0,10340.0,1357.0,2011.0,-985.0,-0.9263360456271924,0.1355405705976808,-0.018929842603854014,-0.35095860917325367
-64.21706175804138,8876.0,9444.0,10388.0,1118.0,2016.0,-1030.0,-0.9451568256686262,0.10577536755391931,-0.19909124075060416,-0.23633202145969168
-64.22485685348511,8512.0,9440.0,10472.0,1033.0,1838.0,-1070.0,-0.9254024347546234,0.0752443056551726,-0.35451235395323494,-0.11085855452432332
-64.23263692855835,8128.0,9672.0,10792.0,965.0,1737.0,-1129.0,-0.8718369554257258,0.04792946292631178,-0.4869873688261186,0.021127998992098624
-64.24042630195618,8044.0,9856.0,11088.0,1006.0,1743.0,-1240.0,-0.7832743767534825,0.020331440305678235,-0.5998289698396251,0.16208975969404837
-64.24820446968079,7872.0,10600.0,11960.0,585.0,1878.0,-1028.0,-0.6592799751257717,0.007383396513128286,-0.7049369820273894,0.2614560215872025
-64.25603818893433,7456.0,11672.0,12404.0,760.0,2157.0,-1128.0,-0.48939725454775235,-0.015827750193642718,-0.7915769671028625,0.36557586725215296
-64.26382541656494,7128.0,12984.0,12608.0,633.0,2371.0,-868.0,-0.2896570310102801,-0.05712436305276974,-0.8521230873451487,0.432113243890415
-64.27161312103271,7120.0,13964.0,12808.0,498.0,2644.0,-784.0,-0.05919931069888335,-0.10795740905186861,-0.8781977282815155,0.46217895828863736
-64.27939701080322,6196.0,14784.0,13160.0,503.0,2544.0,-982.0,0.1751408342500711,-0.13403720289866058,-0.8555895005840249,0.46832288317748383
-64.2871904373169,6556.0,15224.0,12948.0,-40.0,2320.0,-1409.0,0.3946657304674996,-0.12088397745547202,-0.8156357166788455,0.40541879935060465
-64.29501390457153,6852.0,15432.0,13224.0,-592.0,2070.0,-2001.0,0.587651114435614,-0.06975465615773349,-0.7616752239525866,0.26391534412321394
-64.30284261703491,6996.0,15588.0,12160.0,-813.0,1751.0,-2393.0,0.7285397924600703,0.007139556180101214,-0.6809821244796148,0.07377088639171603
-64.31063866615295,7500.0,15428.0,11296.0,-521.0,1555.0,-2692.0,0.8086284634299085,0.11968447075729303,-0.562740962137332,-0.12295627321646306
-64.31841278076172,7732.0,14388.0,10280.0,-204.0,1502.0,-3254.0,0.8107342591887968,0.2685149984483803,-0.4011459306173079,-0.33119722060282053
-64.32621240615845,8856.0,12976.0,9828.0,-145.0,832.0,-4087.0,0.6813861378408145,0.3996433250369487,-0.2279666999693866,-0.5692357399328136
-64.33400821685791,10208.0,11444.0,9948.0,-54.0,406.0,-4681.0,0.42462898469830007,0.4714885897647722,-0.03523173307572838,-0.7721058606565538
-64.34179282188416,10800.0,10608.0,10516.0,25.0,22.0,-4821.0,0.09114587785871442,0.45036086303241296,0.14944952114942417,-0.8755183394003077
-64.34961414337158,11220.0,9960.0,11576.0,23.0,-235.0,-4476.0,-0.23162618712456293,0.3483571007444014,0.2995602844642563,-0.857473192450228
-64.35743165016174,11088.0,9908.0,12940.0,-21.0,-87.0,-3901.0,-0.4929227947813512,0.2272871364680011,0.39891555364249937,-0.7390764893048731
-64.36522197723389,10832.0,10308.0,14256.0,-745.0,355.0,-3569.0,-0.6865870733598854,0.1502931531991812,0.4785454889826404,-0.5263120498059305
-64.37301063537598,10368.0,10968.0,14712.0,-913.0,1259.0,-2750.0,-0.8229149721342329,0.1424766929215167,0.46370418812800046,-0.29578669091765175
-64.3807966709137,9392.0,11508.0,14704.0,-787.0,2113.0,-2450.0,-0.9237553260992011,0.14806077508591275,0.3482150657649151,-0.05916394475230069
-64.38858270645142,7720.0,11876.0,13732.0,-755.0,3716.0,-2797.0,-0.9631348742396401,0.13210517062194216,0.08195426313309068,0.21955167198783151
-64.39640617370605,6016.0,12836.0,12796.0,-208.0,4728.0,-3202.0,-0.8351426516204058,0.0320427586572641,-0.2527112646837914,0.4874905432559574
-64.40418744087219,4700.0,13248.0,12048.0,-204.0,5295.0,-3593.0,-0.4932363332368999,-0.08667434532967434,-0.5561697250929932,0.6632350370167989
-64.41200637817383,4256.0,13304.0,11168.0,-310.0,5419.0,-3922.0,-0.004755038700998783,-0.16980913233237496,-0.7226183224463006,0.6700485118619189
-64.41980743408203,3700.0,12396.0,10644.0,-491.0,5256.0,-3888.0,0.47469609597649054,-0.20115319297942347,-0.7039741688097609,0.4884888730231913
-64.42759466171265,3328.0,11696.0,10040.0,-691.0,4723.0,-4274.0,0.8161274339993887,-0.1470341572549044,-0.5347602623727662,0.16232199438438302
-64.43538784980774,2920.0,10952.0,9956.0,-673.0,3996.0,-4281.0,0.937833722969556,-0.045885639682077095,-0.2796249985336381,-0.2004302280772331
-64.44318103790283,2460.0,10388.0,10092.0,-559.0,3165.0,-4180.0,0.8536196970496135,0.05998723640803,-0.024981779749565707,-0.5168276840085072
-64.45097255706787,2216.0,10016.0,10432.0,-375.0,2450.0,-3948.0,0.632546153347575,0.14022544445273202,0.1805010536231912,-0.7400280793687074
-64.45875716209412,2256.0,9900.0,10804.0,-500.0,1883.0,-3605.0,0.3542842605548181,0.1671404918707174,0.33953049627335413,-0.8551407841991344
-64.46655893325806,2028.0,10108.0,11236.0,-205.0,1507.0,-3563.0,0.04427354339145234,0.15885559432671634,0.42932215027209475,-0.8879680426639327
-64.47441506385803,2148.0,10384.0,11420.0,-304.0,1369.0,-3014.0,-0.22705075359084528,0.14483111336216165,0.48000134006577977,-0.8349075502300608
-64.4822359085083,2540.0,10652.0,11524.0,-404.0,1428.0,-2845.0,-0.4710274629151502,0.1325376836005383,0.49780839306863944,-0.716068219791899
-64.49008584022522,2768.0,10908.0,11992.0,-469.0,1599.0,-2611.0,-0.6741526747598584,0.13342128365255831,0.4744180996786104,-0.5501312560471076
-64.49793076515198,2620.0,11112.0,12276.0,-516.0,1789.0,-2429.0,-0.8298521317058045,0.1439246604885978,0.4077759393645829,-0.35263283296072373
-64.50572443008423,2656.0,11216.0,11948.0,-559.0,1986.0,-2253.0,-0.9304310971087367,0.15958813846973294,0.2988627889883794,-0.1396804673205436
-64.51356315612793,2652.0,11500.0,11884.0,-527.0,2155.0,-2139.0,-0.9709255364431666,0.16668192363947537,0.15449882472337448,0.07517215025186927
-64.52135419845581,2628.0,11680.0,11648.0,-1012.0,2288.0,-2060.0,-0.9368353652276331,0.20144655250890933,-0.015441408910313441,0.2855176839215867
-64.52915167808533,2612.0,11812.0,11624.0,-545.0,2436.0,-1807.0,-0.8488362975692331,0.1810367836183075,-0.18957784562762056,0.45908916710513303
-64.53694248199463,2520.0,12168.0,11224.0,-620.0,2567.0,-1891.0,-0.6935491563515463,0.1493186132674893,-0.36035456594815446,0.6056716158581724
-64.54473352432251,2440.0,11996.0,11380.0,-606.0,2369.0,-1966.0,-0.4892739786562444,0.11813741229450243,-0.4919054141556237,0.7104108593980191
-64.55252480506897,2472.0,11984.0,11384.0,-578.0,2122.0,-2046.0,-0.25670762368753586,0.0957953403695567,-0.577620292755758,0.7689468421815202
-64.56032061576843,2356.0,11888.0,11168.0,-534.0,1821.0,-2062.0,-0.02140830765129522,0.08692276004012642,-0.6186776821749348,0.7805280544151918
-64.56813883781433,2204.0,11972.0,11020.0,-391.0,1637.0,-2103.0,0.20761000144227915,0.08732249461224194,-0.6155336835866406,0.7552424469043653
-64.57591533660889,2212.0,11964.0,11192.0,-309.0,1577.0,-2090.0,0.4215229297970435,0.08779476364267919,-0.5762198540686722,0.6946806308724327
-64.58370232582092,2264.0,11672.0,11228.0,-246.0,1478.0,-2034.0,0.6065952606215627,0.08934060331061788,-0.5088038879297979,0.6043004633616249
-64.59151721000671,2348.0,11532.0,11224.0,-159.0,1447.0,-1957.0,0.7584188891729443,0.08959677215737624,-0.4158235014433216,0.49382590314003644
-64.59937119483948,2948.0,11224.0,11188.0,-148.0,1530.0,-1927.0,0.8781455296140152,0.08206149644794837,-0.2988130427780885,0.3644682497630545
-64.60716485977173,3120.0,10952.0,11340.0,-202.0,1195.0,-1815.0,0.9514261056595574,0.0747805082471452,-0.19691419044736444,0.22454630403604126
-64.61496043205261,3056.0,10820.0,11620.0,-276.0,1101.0,-1742.0,0.9901181541886901,0.05954342711496427,-0.09780494535575704,0.08096180394076789
-64.62274670600891,2956.0,10864.0,11880.0,-358.0,1042.0,-1640.0,0.9977247085743598,0.0350558330497839,-0.001742847660937767,-0.05756263502850702
-64.63054466247559,2952.0,11196.0,11928.0,-472.0,1086.0,-1528.0,0.9778531567675832,-4.0580874826167285e-05,0.09835991615666316,-0.184739083700551
-64.6383409500122,3004.0,11408.0,12024.0,-748.0,1190.0,-1358.0,0.9323365026079626,-0.055279417424833825,0.20877401184738076,-0.29001076512962953
-64.64613747596741,3020.0,11420.0,12096.0,-269.0,1301.0,-1264.0,0.8644271023483784,-0.06621244949568983,0.31119454701724086,-0.38928093989315865
-64.65391206741333,3128.0,11388.0,12188.0,-522.0,1429.0,-1147.0,0.7731184383300119,-0.08684863651342144,0.42410886775069684,-0.4635481236561584
-64.66171503067017,3284.0,11328.0,12436.0,-550.0,1521.0,-1099.0,0.6587611960545061,-0.1015336364954999,0.5328164178216717,-0.5213744068637414
-64.669504404068,3456.0,11368.0,12616.0,-639.0,1560.0,-959.0,0.529461154807439,-0.11025134931637166,0.6339709473132601,-0.5528077093227084
-64.67729830741882,3608.0,11464.0,12296.0,-623.0,1657.0,-838.0,0.3858013986752646,-0.10391681088883212,0.7220018800635997,-0.5648644637251767
-64.68508219718933,3736.0,11656.0,12036.0,-766.0,1739.0,-716.0,0.23039669870611892,-0.08770891700134499,0.799336931011916,-0.5479826437253503
-64.69287776947021,3608.0,11616.0,12212.0,-367.0,1918.0,-571.0,0.06543020268534137,-0.04251578260107053,0.8379547446768089,-0.5401325232570222
-64.70068264007568,3444.0,11604.0,12092.0,-194.0,2034.0,-553.0,-0.10832582809470107,0.01162476790068701,0.8423843450528213,-0.5277489885814861
-64.70846915245056,3348.0,11588.0,11732.0,-95.0,2157.0,-533.0,-0.2860944808554278,0.0713492270593586,0.811724283434962,-0.5041457363740102
-64.7162594795227,3140.0,11760.0,11704.0,55.0,2244.0,-514.0,-0.45893982264470823,0.12968170193341602,0.7415912867495347,-0.471804258979999
-64.72412371635437,3096.0,11464.0,11544.0,175.0,2240.0,-416.0,-0.6110978981255363,0.1843073232203335,0.6367552644008905,-0.4325886068444931
-64.7319164276123,2812.0,11328.0,11656.0,213.0,2288.0,-310.0,-0.7385144850963975,0.23721220523504138,0.50140652819615,-0.3832991240175415
-64.73970651626587,2648.0,11112.0,11388.0,256.0,1807.0,-255.0,-0.8209721225354828,0.26644664556506426,0.37670525935897575,-0.33630953994496804
-64.7475221157074,2960.0,10964.0,11108.0,244.0,1618.0,-190.0,-0.8765025601654931,0.2870757636518259,0.25530926136374754,-0.29008265892492513
-64.75533723831177,3224.0,10804.0,10848.0,271.0,1391.0,-122.0,-0.9104761318720432,0.2963462033972422,0.14392371215113403,-0.2499962121793042
-64.76311373710632,3568.0,10752.0,10964.0,304.0,1039.0,-62.0,-0.9286758997076394,0.29252546407402,0.056050919885721556,-0.22101633548326302
-64.77089881896973,3300.0,10668.0,10812.0,340.0,670.0,-18.0,-0.9390395227373951,0.2769489561788472,-0.0043486669748722265,-0.20367901095624502
-64.77871632575989,3428.0,10840.0,11116.0,348.0,498.0,-71.0,-0.9472467102537581,0.2566751433569247,-0.04954592253169971,-0.18543662598477653
-64.78650069236755,3528.0,11152.0,11196.0,299.0,413.0,-152.0,-0.9536595686162055,0.23876894667572476,-0.08499772861449742,-0.1621672082157611
-64.7942886352539,3488.0,11524.0,11184.0,235.0,287.0,-228.0,-0.9590286139629882,0.22452819128108292,-0.10733442433780524,-0.13539028869290046
-64.80208587646484,3644.0,11880.0,11040.0,223.0,191.0,-281.0,-0.9643877470492881,0.21034773955135158,-0.12031238942225889,-0.1059954280067853
-64.80986881256104,3760.0,12056.0,10924.0,178.0,128.0,-381.0,-0.9691871829393107,0.2001315605511598,-0.12557161436267833,-0.06968021644535403
-64.81766033172607,3896.0,12060.0,11036.0,199.0,77.0,-490.0,-0.9738034458469412,0.18866156648605234,-0.12451344127665555,-0.024699496535300316
-64.82544684410095,3988.0,11820.0,11096.0,151.0,23.0,-762.0,-0.9755042112971347,0.18346833039205848,-0.1138825378108436,0.04197228926884248
-64.83322930335999,3980.0,11628.0,11188.0,65.0,25.0,-507.0,-0.9735318673612378,0.18243454001027287,-0.10743060242334285,0.08609301659449067
-64.8410336971283,4116.0,11328.0,11376.0,6.0,46.0,-468.0,-0.9689272638056888,0.1855500528442,-0.10362611386115446,0.12654154997300576
-64.84882044792175,4200.0,11024.0,11264.0,-28.0,241.0,-295.0,-0.9625669247067271,0.18756512407976494,-0.11933385864135386,0.15506021369565343
-64.85661101341248,4204.0,10768.0,11364.0,-34.0,-44.0,-208.0,-0.9595495390383044,0.19290305268708388,-0.112524701187918,0.17143886962398983
-64.8643970489502,4180.0,10580.0,11432.0,-252.0,-36.0,-104.0,-0.9538993502182719,0.21526187524956236,-0.1113487621329923,0.1770305281262264
-64.87218236923218,4332.0,10376.0,11260.0,136.0,-88.0,-116.0,-0.9554366228140412,0.206155742938506,-0.09957901577404309,0.1863456172187722
-64.87997889518738,4324.0,10280.0,11016.0,238.0,-165.0,-63.0,-0.9598644669246141,0.18923301171212717,-0.08063725188115776,0.19065336614636222
-64.88777041435242,4416.0,10288.0,10912.0,267.0,-252.0,-103.0,-0.9638496092807142,0.17143688210419553,-0.05319713800658224,0.19690960020200968
-64.89555644989014,4512.0,10296.0,10940.0,238.0,-500.0,-122.0,-0.9664921991625973,0.16011848104089316,-0.005057070300205019,0.20057249818203526
-64.90338373184204,4468.0,10544.0,10884.0,190.0,-284.0,-198.0,-0.965265680485513,0.14878709891311712,0.02512281048893184,0.2132918415387597
-64.91117978096008,4436.0,10676.0,10960.0,121.0,-330.0,-221.0,-0.9613942413921294,0.1438747601225027,0.058147244370106,0.22724450266157675
-64.91896080970764,4488.0,10684.0,10960.0,53.0,-393.0,-493.0,-0.9488612151047753,0.14421178906470664,0.0983462201111187,0.26304633689618506
-64.92673945426941,4548.0,10720.0,10688.0,3.0,-462.0,-244.0,-0.9383696977762487,0.15202597602951118,0.1397267842054142,0.2771765478593019
-64.93452954292297,4492.0,10732.0,10752.0,80.0,-555.0,-348.0,-0.9227224930727221,0.15410480059957513,0.19152160856990197,0.29690804074767435
-64.94231939315796,4524.0,10612.0,10880.0,166.0,-639.0,-371.0,-0.9026913453708327,0.15046566952324875,0.2518059790235385,0.31480496536032243
-64.95011854171753,4600.0,10640.0,10884.0,3.0,-737.0,-330.0,-0.8752971360682579,0.16252335874813265,0.31356261933915786,0.3303325070366192
-64.95790338516235,4712.0,10652.0,10796.0,384.0,-752.0,-327.0,-0.8480897269397917,0.14517742633578012,0.385540248743978,0.33320571204608734
-64.96569323539734,4748.0,10716.0,10656.0,450.0,-722.0,-289.0,-0.8185811935432031,0.12249100450077612,0.45431790001294303,0.32941771221597255
-64.97347593307495,4884.0,10836.0,10800.0,491.0,-711.0,-351.0,-0.7829691973226626,0.09338165116367445,0.5212024726519657,0.3264767767718376
-64.98126602172852,4944.0,10796.0,10892.0,516.0,-767.0,-309.0,-0.7408331467676215,0.06547803997691347,0.5886237734200958,0.31686105518957863
-64.98904800415039,4892.0,10864.0,10888.0,491.0,-1015.0,-12.0,-0.6878895726250063,0.06073436344871239,0.6645932661171304,0.28536829466854036
-64.99684357643127,5136.0,10892.0,10892.0,491.0,-802.0,-182.0,-0.6372777880647645,0.04041626369080893,0.7233212209693921,0.2627735865034834
-65.00465965270996,5196.0,10912.0,10892.0,421.0,-790.0,-103.0,-0.5847908831840581,0.02844130352192331,0.7748024894936224,0.2385200567526102
-65.01245260238647,5364.0,11052.0,10924.0,487.0,-846.0,-57.0,-0.5257646176095936,0.017212648643295955,0.8251899137647073,0.20575932012308754
-65.02023386955261,5324.0,11112.0,10956.0,260.0,-874.0,13.0,-0.4620524273951951,0.021795903892751912,0.8671440864912107,0.1846445942209777
-65.02806830406189,5356.0,11072.0,10936.0,574.0,-887.0,253.0,-0.39837366979697214,0.03191019240993476,0.9075701662543605,0.12882760635006152
-65.03584957122803,5332.0,11068.0,10888.0,615.0,-859.0,-82.0,-0.32977814577499037,0.01359754536719707,0.9405377603342194,0.0803131540576415
-65.04363632202148,5340.0,11148.0,10912.0,684.0,-938.0,-58.0,-0.2519483046031226,-0.00428076572806936,0.9674167765117713,0.024667942272649016
-65.05142164230347,5372.0,11112.0,10892.0,811.0,-927.0,-68.0,-0.17228253177181618,-0.025732786296272483,0.983829540647315,-0.04166518817210499
-65.0592110157013,5392.0,10780.0,10804.0,876.0,-852.0,-31.0,-0.09676301672238444,-0.044429245778526916,0.9877801044952722,-0.11381311821421902
-65.06699132919312,5356.0,11096.0,10920.0,904.0,-808.0,244.0,-0.021085135615683412,-0.03883804261638424,0.9808775186901781,-0.1895423879505472
-65.07478260993958,5460.0,11184.0,11008.0,826.0,-713.0,-19.0,0.042224904949103,-0.05354837581035144,0.9641031568423405,-0.25662176801032693
-65.08256936073303,5556.0,11232.0,11080.0,656.0,-673.0,68.0,0.10308006366490956,-0.06028709520038576,0.944065407579023,-0.3073767604094216
-65.09034991264343,5476.0,11328.0,11452.0,540.0,-580.0,103.0,0.15608911336615294,-0.062355546280573854,0.9226624603245203,-0.3470474878810138
-65.09815073013306,5284.0,11280.0,11624.0,369.0,-522.0,168.0,0.2048843291796616,-0.05951388268944617,0.9037835701438718,-0.37101990211014874
-65.10595917701721,5068.0,11588.0,11840.0,268.0,-263.0,243.0,0.23472178944944339,-0.04403244072569504,0.8909807012037068,-0.38616086777914277
-65.11373782157898,5104.0,11680.0,11860.0,162.0,-258.0,205.0,0.2621973726445038,-0.03344537393797558,0.8805633577621562,-0.39337274652307186
-65.12155985832214,5056.0,11720.0,11672.0,126.0,-499.0,161.0,0.3061281127785908,-0.035276474122417474,0.864319884887792,-0.39748243423787005
-65.12934517860413,4996.0,11652.0,11624.0,167.0,-503.0,104.0,0.3478397278678296,-0.040366509934792925,0.844452784279827,-0.40531168711815685
-65.13712525367737,4928.0,11616.0,11508.0,0.0,-494.0,8.0,0.3842122424058692,-0.05719033125968541,0.8286925918064203,-0.4029625380615654
-65.14493823051453,4884.0,11504.0,11052.0,339.0,-262.0,-77.0,0.40189463215545435,-0.06054841728264757,0.8069924406785987,-0.42845979332581113
-65.15271377563477,4948.0,11480.0,10848.0,411.0,-463.0,-146.0,0.43059740523443335,-0.07360254624890315,0.7733861633890945,-0.4593934937168221
-65.16050601005554,5032.0,11152.0,10692.0,429.0,-496.0,-175.0,0.45905858442811015,-0.08900957694417197,0.7350867154058425,-0.49090735593279616
-65.16831922531128,5004.0,11168.0,10560.0,468.0,-525.0,-205.0,0.4866503230651974,-0.10567256341041452,0.6909386827958727,-0.5240310191382906
-65.17615008354187,5032.0,11180.0,10456.0,470.0,-453.0,-276.0,0.5047671760015322,-0.12281792074890603,0.6463482905729173,-0.5588915312006626
-65.18393898010254,5028.0,11192.0,10496.0,366.0,-438.0,-378.0,0.5140964701866108,-0.14909571124646043,0.603982237352037,-0.590491951844229
-65.1917335987091,5076.0,11176.0,10628.0,282.0,-353.0,-415.0,0.5143002015683765,-0.17623584020210603,0.5672958317217656,-0.618556117588449
-65.19951176643372,5092.0,11200.0,10984.0,181.0,-428.0,-442.0,0.5136570932411127,-0.2127447416914312,0.5305693378071945,-0.6398376694323118
-65.20732879638672,5128.0,11264.0,10828.0,106.0,-493.0,-533.0,0.507691451998272,-0.2596480919927621,0.4915204396766652,-0.6582096286689082
-65.2151210308075,5100.0,11188.0,10864.0,85.0,-760.0,-584.0,0.5069215607323408,-0.32342911515119765,0.438049560600778,-0.6682340317543446
-65.22291326522827,5092.0,11148.0,10888.0,105.0,-492.0,-641.0,0.4900964922528888,-0.37101097431563235,0.39093463247806803,-0.685074009394618
-65.23073172569275,4984.0,11232.0,11080.0,142.0,-487.0,-621.0,0.4730363155878247,-0.4141864747428562,0.34052355915355303,-0.6990922070346501
-65.23853039741516,5172.0,10852.0,11032.0,189.0,-543.0,-598.0,0.4583209562489276,-0.4560426158778301,0.28405720603694135,-0.708010266355553
-65.24631524085999,5060.0,10648.0,11232.0,206.0,-609.0,-561.0,0.44571085689871226,-0.497901545147031,0.22386023461760154,-0.7094522385191036
-65.25410795211792,5104.0,10708.0,11132.0,214.0,-590.0,-466.0,0.4366521236640948,-0.5339001631670286,0.16686437092589573,-0.7045862760410264
-65.26188921928406,5232.0,10760.0,10900.0,203.0,-513.0,-450.0,0.4250650217794345,-0.5630968573010422,0.11349151537648164,-0.6995436601777536
-65.26969265937805,5320.0,10772.0,10932.0,237.0,-258.0,-437.0,0.41206304384653347,-0.5736073627681438,0.06774851186404866,-0.7046905564957654
-65.27748942375183,5292.0,10936.0,10876.0,232.0,-471.0,-371.0,0.40297367117578203,-0.5953906826405284,0.017796919803718326,-0.6948420144244721
-65.28527212142944,5384.0,11176.0,10980.0,206.0,-457.0,-362.0,0.39182353931330965,-0.6154222871143802,-0.02966921857677376,-0.6832638290089271
-65.29306101799011,5372.0,11392.0,11036.0,170.0,-411.0,-359.0,0.37796755126989884,-0.6322936608941799,-0.07317495013780935,-0.6723025236100196
-65.30086421966553,5276.0,11512.0,11288.0,85.0,-302.0,-368.0,0.35877124814719036,-0.6441739633328138,-0.10844362472703,-0.6667556349391168
-65.30865454673767,5108.0,11576.0,11396.0,67.0,-180.0,-390.0,0.3378480693375801,-0.648277301205759,-0.13990108377286203,-0.6678494662312952
-65.31643295288086,5040.0,11484.0,11344.0,33.0,-48.0,-294.0,0.3218319072420037,-0.6461717701894772,-0.15990751252878485,-0.6732873490034016
-65.32422065734863,4752.0,11304.0,11276.0,-46.0,40.0,-299.0,0.30206599732198064,-0.6405897068637078,-0.17296371270086855,-0.6844592864523626
-65.33204436302185,4704.0,11192.0,11244.0,15.0,126.0,-266.0,0.2887653481195774,-0.6283148627391977,-0.18542799081556072,-0.6981772462695319
-65.33983159065247,4704.0,11052.0,10880.0,7.0,15.0,-283.0,0.27200306911481026,-0.6223203577122474,-0.20101602004325536,-0.7059208613258243
-65.34760236740112,4680.0,10984.0,10768.0,6.0,-135.0,-238.0,0.25516053513844444,-0.6260064153891846,-0.21753544951133888,-0.7040507065583742
-65.35539841651917,4632.0,10896.0,10824.0,58.0,-287.0,-218.0,0.23929998860627766,-0.6377550642966352,-0.23935433964011535,-0.6918912439917666
-65.36318325996399,4672.0,10876.0,10664.0,51.0,-420.0,-202.0,0.2209180308443715,-0.6571556971572178,-0.26229696883453635,-0.6712241901793101
-65.37096333503723,4800.0,10948.0,10696.0,65.0,-574.0,-142.0,0.20285178943011078,-0.6852386369595284,-0.284990208196329,-0.6388111952486923
-65.37875437736511,4976.0,11156.0,10888.0,130.0,-648.0,-103.0,0.18838704918406501,-0.7151821316637506,-0.30939159872361366,-0.5977471680299797
-65.3865532875061,5108.0,11140.0,11004.0,83.0,-690.0,-130.0,0.16778009241827266,-0.7447969769726295,-0.3325862005852376,-0.5536368149435373
-65.39432644844055,5244.0,11220.0,11088.0,92.0,-739.0,-164.0,0.1440139663798092,-0.7726109844974438,-0.3577528732095578,-0.5043264080253502
-65.40215015411377,5180.0,11272.0,11040.0,77.0,-668.0,-203.0,0.11913860528234839,-0.7931522184169945,-0.3825329017066792,-0.45867649848607345
-65.40994811058044,5528.0,11328.0,11204.0,51.0,-595.0,-225.0,0.09360273520090864,-0.807619465361897,-0.40572575088703283,-0.41758345536985264
-65.41774439811707,5544.0,11328.0,11284.0,85.0,-441.0,-220.0,0.07584082443400315,-0.8143806449557981,-0.4275392683916924,-0.38502273758006195
-65.42556929588318,5364.0,11460.0,11448.0,82.0,-356.0,-172.0,0.06252045748076086,-0.8188290359775121,-0.4446097633536527,-0.3576763349274638
-65.43336963653564,5140.0,11140.0,11292.0,72.0,-161.0,-84.0,0.05874417138576461,-0.8200417390022431,-0.4536784993873042,-0.3438844105452599
-65.44115924835205,5132.0,11184.0,11360.0,46.0,34.0,-111.0,0.06000555622833663,-0.814300156153233,-0.46280577286339464,-0.3451454845639213
-65.44895124435425,5064.0,11096.0,11152.0,54.0,203.0,-17.0,0.07147881343560468,-0.8070359917439385,-0.46450073851999174,-0.35752307782029685
-65.4567666053772,4992.0,11060.0,11044.0,83.0,327.0,87.0,0.0932158434641798,-0.799426277778919,-0.45871148473177886,-0.37657961535241274
-65.46455883979797,5112.0,11060.0,11060.0,72.0,340.0,127.0,0.1159295606838608,-0.7922874995790152,-0.44921792179134945,-0.3962879176961364
-65.47238850593567,4784.0,11020.0,11032.0,65.0,305.0,218.0,0.13981037717063258,-0.7891406767739791,-0.4330697536351667,-0.4125053201868889
-65.48022818565369,4864.0,11156.0,11112.0,80.0,495.0,244.0,0.17257771169588354,-0.7785860946557622,-0.4126205329521732,-0.44018737194604435
-65.48807549476624,4920.0,11172.0,11232.0,91.0,153.0,244.0,0.19354590863619656,-0.7797933091156313,-0.3971036605740741,-0.44358884010686445
-65.49586939811707,4916.0,11252.0,11028.0,61.0,27.0,278.0,0.20929805618456454,-0.7870480713207477,-0.3799846365891835,-0.4385901652611924
-65.50370383262634,4908.0,11228.0,11248.0,90.0,-16.0,234.0,0.22382256921700167,-0.793528149941775,-0.36757680366436557,-0.430236941890132
-65.5115213394165,4944.0,11244.0,11012.0,103.0,-107.0,195.0,0.23476137354864354,-0.8015505945215452,-0.3599677967626174,-0.4157245809494294
-65.51933908462524,4620.0,11340.0,11084.0,102.0,-158.0,187.0,0.24362345931075002,-0.8107998247997681,-0.3537515156565828,-0.39763188925034576
-65.52713704109192,4964.0,11372.0,11192.0,140.0,-154.0,215.0,0.25612393259242916,-0.8194777797549921,-0.3465745042078075,-0.37781319812088343
-65.53492093086243,4876.0,11360.0,11184.0,174.0,-168.0,256.0,0.2717773894218334,-0.8284361492028606,-0.3376214280909206,-0.3547426793985131
-65.54274582862854,4936.0,11340.0,11164.0,207.0,-178.0,359.0,0.29236931637058255,-0.8389266995655339,-0.32206874129578594,-0.3270992226851457
-65.55053520202637,4788.0,11380.0,11228.0,505.0,-124.0,456.0,0.33825239758034015,-0.8408323197198627,-0.30572884633022845,-0.2917468048963927
-65.55831599235535,4660.0,11224.0,11012.0,287.0,-81.0,258.0,0.3635009464824025,-0.840774350522181,-0.2963448340617489,-0.27045386433792534
-65.56610894203186,4488.0,11152.0,11264.0,259.0,-51.0,577.0,0.39420496237158226,-0.8473563843079747,-0.26135613298838495,-0.2414178480632547
-65.57389807701111,4368.0,11204.0,11140.0,501.0,15.0,642.0,0.4440154782336585,-0.8422929682491742,-0.22337451481404275,-0.20855847347571865
-65.58167266845703,4160.0,11040.0,10752.0,216.0,118.0,686.0,0.4737387242181354,-0.8434166042298761,-0.17197507022691286,-0.18613067481198908
-65.58944988250732,3928.0,11008.0,10848.0,201.0,253.0,747.0,0.5032193155995773,-0.8400643454898603,-0.10953205720548877,-0.170484440018786
-65.59723424911499,3668.0,11276.0,10912.0,122.0,326.0,885.0,0.5266620389456512,-0.8354174170094273,-0.032044436971293,-0.15387654190973601
-65.60503220558167,3356.0,11292.0,10820.0,36.0,312.0,924.0,0.5406379982789401,-0.8291304496879014,0.04899878568110783,-0.13361276592846955
-65.61284136772156,3212.0,11252.0,11000.0,-55.0,180.0,1024.0,0.5456109265258317,-0.8218389511160187,0.13168743399103475,-0.09771322844427396
-65.62062549591064,3308.0,11164.0,11188.0,-139.0,-112.0,1068.0,0.5436444065928667,-0.8134930244766692,0.2032374768285167,-0.03707271665887747
-65.62842273712158,3376.0,11108.0,11272.0,-181.0,-365.0,1024.0,0.5381274386662324,-0.8013789877505594,0.258018769870025,0.040458523714642355
-65.6362099647522,3696.0,11132.0,11472.0,-125.0,-733.0,974.0,0.5394049725054152,-0.7782636681107405,0.28962551824237814,0.13951701587290816
-65.64402866363525,3924.0,11376.0,11336.0,-8.0,-1130.0,798.0,0.5537148229840826,-0.7393022105124797,0.2884409647605487,0.25225769797385944
-65.65183186531067,4072.0,11736.0,11352.0,58.0,-1417.0,575.0,0.5753871666366948,-0.684688729709524,0.25606722934047693,0.36682492545688106
-65.65963077545166,4244.0,12248.0,11240.0,146.0,-1636.0,503.0,0.5979117198444452,-0.6068672657391279,0.20634028017214678,0.4812872176003141
-65.66741800308228,4192.0,12752.0,11228.0,213.0,-1709.0,32.0,0.6315514281078416,-0.5174473926828713,0.1263898946000594,0.5633973588894697
-65.6752188205719,4052.0,13048.0,11272.0,308.0,-1723.0,-218.0,0.6673487716049645,-0.4131150854748935,0.03631750362040031,0.618597269733062
-65.68300247192383,4060.0,12840.0,11440.0,305.0,-1615.0,-299.0,0.6923154554528667,-0.30565898869218605,-0.05146375746975184,0.6516313178783342
-65.69080233573914,4080.0,12488.0,11128.0,496.0,-1477.0,-409.0,0.7151723298752236,-0.18775802059850166,-0.1221209248698767,0.6620890755711825
-65.69858717918396,3952.0,12052.0,10988.0,217.0,-1244.0,-351.0,0.7210922313892727,-0.0976898951612557,-0.19160352997042943,0.6586127583916768
-65.7064163684845,4000.0,11652.0,10972.0,265.0,-1041.0,-211.0,0.7148721442086455,-0.017314848773287234,-0.24241988883904905,0.6556604387499331
-65.71423625946045,3452.0,11288.0,10920.0,212.0,-853.0,37.0,0.6930590084973058,0.04403566916002134,-0.2824260559953264,0.6617896897635118
-65.72205257415771,3160.0,11032.0,11060.0,136.0,-777.0,274.0,0.6559050785523206,0.0903372844936499,-0.3215545206165778,0.6769271698126985
-65.72982287406921,2792.0,10744.0,11192.0,15.0,-792.0,530.0,0.6002749934428875,0.12284014498813015,-0.36869017310186736,0.6990334664982438
-65.73762273788452,2776.0,10508.0,11480.0,-99.0,-842.0,817.0,0.5217583465339304,0.1421018159967055,-0.42515330511783,0.7258236485951687
-65.745441198349,2948.0,10352.0,11000.0,-226.0,-931.0,958.0,0.42646398085494147,0.15425850786556336,-0.49014910683833496,0.744369961007313
-65.75322580337524,3476.0,10400.0,10692.0,-376.0,-1178.0,968.0,0.3153939670581095,0.1738388433240658,-0.5660155685749554,0.7415747286861041
-65.76102089881897,3652.0,10256.0,10436.0,-376.0,-1297.0,1043.0,0.18753040372316665,0.19383268745058577,-0.63476691777065,0.7241078628623354
-65.76880478858948,3616.0,10804.0,10700.0,-308.0,-2047.0,953.0,0.018784307390831496,0.26031445654558405,-0.6902579354837466,0.6748536997090108
-65.77658486366272,3620.0,11168.0,10336.0,-196.0,-2422.0,801.0,-0.16575690470407226,0.345913201484584,-0.7065139685775781,0.5947324758127572
-65.78437113761902,3600.0,11456.0,10472.0,-247.0,-2756.0,654.0,-0.3515443557297005,0.43892831943421967,-0.6785801285223143,0.47253307347515977
-65.79215860366821,3760.0,11732.0,10276.0,227.0,-2979.0,495.0,-0.5386306870699826,0.5080662962061543,-0.5769164081436107,0.3448377584032141
-65.79999709129333,3588.0,11968.0,10316.0,263.0,-3149.0,285.0,-0.69146580101301,0.5552106426787302,-0.41781436557335605,0.19760400857837304
-65.80781316757202,4184.0,12000.0,10552.0,212.0,-3214.0,269.0,-0.792707417282957,0.565890696311086,-0.22439465190322555,0.032089104231316425
-65.81561255455017,4504.0,11864.0,10808.0,35.0,-3263.0,364.0,-0.8261738774909104,0.5434950154603868,-0.015808698443530927,-0.14764815398395434
-65.82343459129333,4644.0,11600.0,11004.0,-21.0,-3122.0,424.0,-0.7945950441645312,0.4860035966457715,0.18273486271885583,-0.3146858588873385
-65.83122706413269,4564.0,11556.0,10852.0,-55.0,-2950.0,601.0,-0.704844090145915,0.40448214954183437,0.3514150058542086,-0.4648617998382755
-65.83902597427368,4312.0,11524.0,10656.0,-101.0,-2748.0,713.0,-0.570852341674452,0.3114885645521455,0.4846889956794602,-0.5849607299855902
-65.84684109687805,4024.0,11484.0,10820.0,-100.0,-2443.0,851.0,-0.41103929148818186,0.22202637102994727,0.5738558597121847,-0.6726369330434919
-65.85463261604309,3876.0,11300.0,10904.0,-175.0,-2193.0,973.0,-0.23559674972427241,0.14504142716360752,0.6301439538105463,-0.725517576218326
-65.86241888999939,3608.0,11180.0,10824.0,-232.0,-2064.0,1044.0,-0.051994647180127467,0.07494337645667194,0.6605305752511123,-0.7452378185172316
-65.87022495269775,3388.0,10928.0,11144.0,-257.0,-2043.0,1137.0,0.1385410519882898,0.008556199615246509,0.6651309696187018,-0.7337124515886367
-65.87801194190979,3288.0,10796.0,11260.0,-312.0,-2088.0,1249.0,0.3324738585469799,-0.05518822347953338,0.6442430111300149,-0.6865612397901496
-65.88580250740051,3348.0,10752.0,11012.0,-232.0,-2230.0,1350.0,0.5242037031979333,-0.116630658269641,0.584771801792288,-0.6079882457200668
-65.89360213279724,3356.0,10740.0,11152.0,-251.0,-2418.0,1475.0,0.7021107820193226,-0.17577641220055243,0.48755773281522014,-0.4882935181406762
-65.90143728256226,3596.0,10812.0,10996.0,245.0,-2649.0,1779.0,0.8615126592581364,-0.190574994271158,0.3293153319779255,-0.3361971469551622
-65.90923118591309,4084.0,11056.0,11092.0,440.0,-2811.0,1537.0,0.957379535734124,-0.18828259674533623,0.1255191670119948,-0.1794965933742506
-65.91703057289124,4136.0,11196.0,11096.0,709.0,-2874.0,1612.0,0.9840932318957382,-0.1498062488158017,-0.09535353225492668,-0.00512860987478206
-65.9248275756836,4356.0,11376.0,10968.0,872.0,-2802.0,1685.0,0.9331087558057393,-0.0862009949450431,-0.30154144818639883,0.17592667033397624
-65.9326171875,4460.0,11532.0,10768.0,1010.0,-2602.0,1785.0,0.8116419957712515,-0.010272330701677186,-0.46537527156516173,0.3529271972207117
-65.94040107727051,4536.0,11456.0,10880.0,1032.0,-2384.0,1879.0,0.6336274026300721,0.05791387119809375,-0.5784519117490634,0.5104465534734984
-65.9481897354126,4512.0,11384.0,11056.0,1007.0,-2069.0,2044.0,0.41829187023471975,0.09918531482414675,-0.6357027724590383,0.6411522203865999
-65.95601081848145,4196.0,11144.0,10980.0,894.0,-1725.0,2280.0,0.18123551140042807,0.09860598836510932,-0.646565359640545,0.7344275213925863
-65.96379613876343,3940.0,11076.0,11212.0,823.0,-1544.0,2467.0,-0.06873306046210914,0.06905062776760107,-0.6181950237166461,0.7799632618632671
-65.9715838432312,3900.0,10780.0,11184.0,711.0,-1411.0,2744.0,-0.32382778010073787,0.012333182500274724,-0.5568771442791511,0.7647687935735481
-65.9793746471405,3844.0,10556.0,11080.0,630.0,-1462.0,2841.0,-0.5629564561634206,-0.04423102525542945,-0.4582574964440554,0.6863845218400562
-65.98715496063232,3964.0,10412.0,11224.0,629.0,-1569.0,2901.0,-0.7649737980384049,-0.09328614222036971,-0.31867635030238434,0.5518678897546864
-65.99494624137878,4136.0,10364.0,11168.0,721.0,-1547.0,3005.0,-0.9065728116654919,-0.14414585919835265,-0.14929034297337637,0.3675052406698238
-66.00272393226624,4284.0,10232.0,11464.0,889.0,-1808.0,3069.0,-0.9688360002093727,-0.18721263216002315,0.05824752081385487,0.15137853671197832
-66.01050925254822,4720.0,10424.0,11444.0,1194.0,-2406.0,3025.0,-0.9212327502812601,-0.2274394551859626,0.30838355888807767,-0.06709019780461091
-66.01830124855042,5040.0,10656.0,11664.0,1281.0,-2724.0,2904.0,-0.7567412906677468,-0.25216896214047274,0.5423464873442473,-0.263844122915152
-66.02609300613403,5612.0,10956.0,11820.0,1972.0,-2951.0,2890.0,-0.47103319601787175,-0.29128301536299384,0.7014386771857996,-0.4486264764345353
-66.0338864326477,5664.0,11428.0,12144.0,2277.0,-3045.0,2871.0,-0.10561188674004958,-0.3032379854899631,0.7482796662685822,-0.5804915112076791
-66.0416750907898,6112.0,11664.0,12256.0,2531.0,-3146.0,2865.0,0.2863943781467698,-0.2743558744952582,0.6653499346976951,-0.6324686385060053
-66.0494749546051,6156.0,12160.0,12540.0,2684.0,-3084.0,2796.0,0.6279745793685262,-0.19746416198724923,0.4653231831820593,-0.5917179797766093
-66.05725884437561,6568.0,12304.0,12644.0,2800.0,-2925.0,2894.0,0.8663175355706333,-0.07103990673761985,0.19269144724549797,-0.45532105746601514
-66.06505513191223,6584.0,12736.0,12632.0,3118.0,-2557.0,3010.0,0.9597524271546868,0.10425493829978674,-0.09717269356984061,-0.24199928519559158
-66.07284617424011,6796.0,12576.0,12328.0,2932.0,-2223.0,3091.0,0.9031836768871698,0.25532086751132455,-0.3444953269153164,0.019836082056356973
-66.08064341545105,7084.0,12008.0,12740.0,2885.0,-2276.0,3096.0,0.7056628533357004,0.3631409530476184,-0.5419730516266693,0.2764666290029608
-66.08843064308167,7056.0,11640.0,12804.0,2873.0,-1704.0,3568.0,0.4120997163202262,0.3793944727725905,-0.6351887910572307,0.5317601504002073
-66.09621930122375,6996.0,11372.0,12640.0,3037.0,-1524.0,3817.0,0.045631855390477254,0.31761825625018286,-0.6167828883128053,0.7187595187228683
-66.10406756401062,7048.0,11440.0,12228.0,3216.0,-1300.0,4185.0,-0.3397294263033834,0.16867783828344815,-0.48436124526055185,0.7883691317303362
-66.11184406280518,7108.0,11032.0,12048.0,3282.0,-1312.0,4649.0,-0.6801609197934878,-0.031106811268039884,-0.2564800502336786,0.6860258546953905
-66.11964559555054,7072.0,11016.0,11700.0,3113.0,-1367.0,4876.0,-0.8825472000424032,-0.21590101391550737,0.021816941446620244,0.41715849859913556
-66.1274471282959,7236.0,11392.0,11512.0,2576.0,-1474.0,5367.0,-0.905028717868487,-0.3089604338779837,0.29140336637556635,0.02346376347131922
-66.13523650169373,7436.0,11640.0,11120.0,2806.0,-1616.0,5542.0,-0.6976859255053297,-0.33727865170679183,0.5008279971905386,-0.3855499678183541
-66.14302468299866,7780.0,11724.0,10812.0,2247.0,-1537.0,5593.0,-0.33068858135370843,-0.24732727475342778,0.6005305015870793,-0.6847170203732964
-66.15084743499756,7796.0,12108.0,10720.0,2016.0,-1471.0,5504.0,0.1050786861259431,-0.09286536250282841,0.5671566501324328,-0.8115835313631129
-66.15863823890686,7884.0,12708.0,10700.0,1530.0,-1299.0,5260.0,0.49756725032056714,0.08033309155399251,0.4392029268058406,-0.7436895957958477
-66.16642808914185,7912.0,13008.0,10376.0,693.0,-1040.0,4882.0,0.7776279565455564,0.2106042030413509,0.2879940225869506,-0.5176872355141537
-66.17424201965332,7852.0,13124.0,10032.0,194.0,-643.0,4441.0,0.9225691010895369,0.2852490630311643,0.14308843864030962,-0.21685231029934826
-66.18205618858337,8184.0,13540.0,9696.0,-98.0,-478.0,4124.0,0.948612851200953,0.30075165126526665,0.003294585553663781,0.09834250608787419
-66.18984532356262,7744.0,13800.0,9332.0,-256.0,88.0,3856.0,0.8737518696023959,0.2654270324367983,-0.08813466257059252,0.3979176322703986
-66.19762325286865,7680.0,13636.0,8924.0,-414.0,306.0,3600.0,0.7250424391661183,0.1866760498373993,-0.15491749206424815,0.644566586535227
-66.20545840263367,7952.0,13216.0,8540.0,-511.0,526.0,3191.0,0.5394631904218405,0.0787531808396916,-0.19443778520198973,0.81545775511259
-66.21326518058777,8328.0,12124.0,8624.0,-520.0,633.0,2851.0,0.3397658102757382,-0.03765464143088926,-0.21400730298218307,0.9150640395167293
-66.22104525566101,8472.0,11608.0,8664.0,-921.0,575.0,2345.0,0.15633470832909516,-0.15068197556567334,-0.2561869234458948,0.9419249765594975
-66.22883939743042,8752.0,11036.0,8488.0,-1080.0,632.0,1926.0,-0.0020100932894574356,-0.25519619835548896,-0.3047911247905719,0.9175909928278347
-66.23663234710693,9028.0,10484.0,8868.0,-1241.0,723.0,1605.0,-0.13658125722583764,-0.349346555278974,-0.36207760256636506,0.8533477334645695
-66.24441766738892,9552.0,9720.0,9644.0,-1511.0,681.0,1346.0,-0.25700270820909693,-0.41733568884445804,-0.4341186300605163,0.7558581519202474
-66.25220680236816,9592.0,9236.0,10068.0,-1652.0,547.0,1166.0,-0.36734924812821107,-0.45299686768817465,-0.5044618134838419,0.636684102597932
-66.2600450515747,9892.0,9328.0,10568.0,-1814.0,322.0,1223.0,-0.4840010226817296,-0.45810313094801164,-0.556889990150342,0.49573992206500844
-66.26783108711243,10136.0,9472.0,11200.0,-1902.0,-102.0,1368.0,-0.6116056378639586,-0.43089051168405523,-0.5683222816858159,0.34246415113570877
-66.27562999725342,10376.0,9920.0,11408.0,-1889.0,-264.0,1507.0,-0.7247437103840655,-0.38827041332825935,-0.5418552522384629,0.17431444579905703
-66.28341817855835,10608.0,10468.0,11096.0,-1718.0,-655.0,1761.0,-0.8207874647763654,-0.34452431529200905,-0.45562846580656213,0.0036925580993556364
-66.29121351242065,10936.0,10668.0,10928.0,-1638.0,-724.0,1306.0,-0.8829349653435797,-0.2738414874293903,-0.3581868384333974,-0.13091552814421226
-66.29900097846985,11300.0,10752.0,10572.0,-1641.0,-764.0,1268.0,-0.9147037051435372,-0.1922967005573668,-0.24549381690035063,-0.25704454208392086
-66.3068335056305,11824.0,11092.0,10728.0,-1809.0,-286.0,525.0,-0.9266886686970556,-0.06483282101609426,-0.1706795227469261,-0.3285016242615175
-66.31463027000427,12340.0,10796.0,10568.0,-1978.0,-51.0,115.0,-0.9216781130307152,0.09037870795484726,-0.10739405898198665,-0.36167341788404367
-66.32243061065674,12612.0,10688.0,10968.0,-2118.0,66.0,-44.0,-0.8906978559574383,0.258597756454804,-0.04458506829081343,-0.3712097808987097
-66.33022499084473,12732.0,10304.0,10840.0,-2040.0,166.0,-33.0,-0.8320051769476735,0.41588154379861497,0.009318722210007194,-0.3670464391276998
-66.33804559707642,12556.0,10172.0,10624.0,-1887.0,3.0,-8.0,-0.7537188723186536,0.5454918028558915,0.06899776362886549,-0.3599803649394524
-66.34583783149719,12720.0,9720.0,10352.0,-1794.0,262.0,-82.0,-0.6642684930995574,0.66288445908172,0.11071582995216002,-0.32722097729391286
-66.35364079475403,12588.0,9064.0,10424.0,-1769.0,856.0,-193.0,-0.5674086172557489,0.776529958611385,0.12103821752573109,-0.24576092924041787
-66.36143207550049,12184.0,8856.0,9860.0,-1733.0,1168.0,-264.0,-0.4602800737819265,0.8700191833318206,0.11634633304875626,-0.13293759851917072
-66.36920547485352,11548.0,8848.0,9596.0,-1631.0,1448.0,-289.0,-0.3481346273437204,0.9323677100272941,0.09729346711172698,0.00516873292863451
