programtime,ax,ay,az,gx,gy,gz,q0,q1,q2,q3
-282.9046096801758,-10116.0,1600.0,-11008.0,232.0,3088.0,4216.0,0.9096291961974027,0.018463083095559375,0.24542230942780974,0.3346665953198705
-282.9203026294708,-10268.0,1720.0,-10924.0,286.0,3242.0,3917.0,0.6627499959999915,0.027721634471794317,0.46154206299142275,0.5890440372958926
-282.9359791278839,-10328.0,1892.0,-10700.0,219.0,3510.0,3578.0,0.30861044770193824,0.0036455116118570413,0.6113443932774464,0.7287004423098205
-282.95169973373413,-10200.0,2184.0,-10952.0,-221.0,3828.0,2967.0,-0.07750186768391783,-0.08066460746896913,0.6443549056503179,0.7565007846471486
-282.9674401283264,-10048.0,1464.0,-11484.0,-109.0,4257.0,3054.0,-0.4721113389804629,-0.1722703870522782,0.5729813187453735,0.6473995719181047
-282.9831430912018,-9356.0,1660.0,-12708.0,239.0,4986.0,3150.0,-0.7962454574414455,-0.2725058473835176,0.3809936513290223,0.38285450538374743
-282.9988760948181,-10824.0,1912.0,-12892.0,250.0,4575.0,1318.0,-0.9106508790849535,-0.3685667824922704,0.09489676712674305,0.16083565168826727
-283.0145764350891,-9184.0,2168.0,-13980.0,-106.0,4829.0,1365.0,-0.8913173462665976,-0.38185319389172695,-0.22585463821929722,-0.0934409383182113
-283.03026723861694,-9552.0,1892.0,-14112.0,-424.0,4808.0,1220.0,-0.7342829085593117,-0.30620256409869245,-0.5098811224750274,-0.32724584165527554
-283.0460453033447,-9692.0,764.0,-14584.0,-367.0,4909.0,1218.0,-0.4487692652969464,-0.17988868419959242,-0.7147571844379323,-0.5053398610006318
-283.06174325942993,-9684.0,-120.0,-14304.0,-35.0,5082.0,1798.0,-0.047966615628615795,-0.06016338664899951,-0.8000937592624919,-0.5949197820557603
-283.0774395465851,-11044.0,-1116.0,-13756.0,-98.0,5183.0,1292.0,0.3447625276216571,0.1080805915657436,-0.7342132897082885,-0.5747940765965303
-283.09314155578613,-11064.0,-1284.0,-14052.0,-59.0,5278.0,584.0,0.6466041540160214,0.3028635008731255,-0.5245101284399724,-0.463751973593626
-283.10883831977844,-9668.0,112.0,-14408.0,369.0,6017.0,1644.0,0.8592221019712607,0.43212549959360724,-0.21373852896624385,-0.17123309645162116
-283.1246280670166,-9068.0,1820.0,-14464.0,1142.0,6506.0,2264.0,0.8293390663211807,0.48932853044226055,0.14663794984265807,0.22638819323160808
-283.14032793045044,-9004.0,5292.0,-13860.0,790.0,7242.0,1740.0,0.5595210555132346,0.3564861980892386,0.5124811740924429,0.545175958026459
-283.15601801872253,-10332.0,4116.0,-14044.0,372.0,7368.0,-1944.0,0.25876556168558773,-0.052265482517635346,0.7912728791108562,0.5515396034795301
-283.17173767089844,-9140.0,2224.0,-14580.0,744.0,7458.0,-3061.0,-0.08612596762106282,-0.4947958576569815,0.801721382410614,0.32404043255810216
-283.1874873638153,-7068.0,2300.0,-14804.0,1906.0,7792.0,-1169.0,-0.42097519141384665,-0.6623775974030941,0.6095093224574873,-0.1119562080011398
-283.2031919956207,-7640.0,2408.0,-14492.0,2799.0,7915.0,-693.0,-0.5533768974387949,-0.5840693698605572,0.20250860493763484,-0.5582358332263508
-283.2188878059387,-7728.0,1664.0,-14780.0,3095.0,7681.0,-943.0,-0.46682557788912404,-0.30424928029815723,-0.29708672908901906,-0.7754003679814232
-283.2345862388611,-9036.0,136.0,-16044.0,2959.0,6586.0,-2210.0,-0.30647575756589157,0.06524055827167093,-0.6884889462723139,-0.6540636440298851
-283.2502739429474,-7172.0,-436.0,-17076.0,3395.0,6461.0,-364.0,0.03508412292094639,0.3078676169737095,-0.8878954946660234,-0.3400415052454258
-283.26602935791016,-7216.0,500.0,-16528.0,3130.0,5560.0,-367.0,0.3237483738747117,0.4462458745205498,-0.8331085510934322,0.04451687300195107
-283.2817225456238,-7096.0,1276.0,-15100.0,2700.0,5009.0,-858.0,0.5235986497509738,0.5054134946488646,-0.5788824657745324,0.3678270574938399
-283.2974576950073,-6608.0,1364.0,-14264.0,2171.0,3700.0,-1347.0,0.6124268420956637,0.5157836414633962,-0.2614102506322163,0.5390410737076478
-283.31318068504333,-5048.0,1888.0,-14044.0,1971.0,2712.0,-291.0,0.5749080451171248,0.4801714469505433,-0.010239023902495831,0.6624283233547246
-283.3288960456848,-3244.0,944.0,-15516.0,1519.0,2629.0,1599.0,0.40340092288101775,0.3863103485116947,0.13654377318941432,0.8181612359765732
-283.34459614753723,-6668.0,-1036.0,-15848.0,1600.0,2128.0,2281.0,0.154156546771345,0.3041419175647708,0.2381097567531837,0.9094158547147163
-283.36030101776123,-7140.0,-308.0,-15544.0,1678.0,2682.0,2202.0,-0.1145444102643907,0.1513549533090581,0.3309675009049067,0.9243547855292125
-283.3759729862213,-7984.0,740.0,-14636.0,1418.0,2682.0,607.0,-0.2506388238797709,-0.05961499142301077,0.39659370982625874,0.8811013914913792
-283.3917181491852,-7092.0,1544.0,-14656.0,1424.0,3145.0,-403.0,-0.30715305516161395,-0.331783029982382,0.4166566351426423,0.7886534537502562
-283.4074549674988,-6156.0,1996.0,-14780.0,1512.0,3384.0,-845.0,-0.3114347684898479,-0.6037489889303636,0.38502953647254984,0.6246981666252688
-283.4231598377228,-5672.0,1188.0,-14516.0,1552.0,3414.0,-756.0,-0.287388934946216,-0.8134490792718285,0.31971463413113044,0.391778953269176
-283.4388222694397,-6344.0,260.0,-15024.0,1382.0,2954.0,-805.0,-0.23406396456563883,-0.9324220352364447,0.2261931203091919,0.1569709559827319
-283.45452332496643,-5824.0,4.0,-15220.0,980.0,2423.0,-820.0,-0.1853762937152925,-0.9744292308403856,0.11997569911762951,-0.04158287428055301
-283.47022223472595,-4968.0,388.0,-15076.0,720.0,1847.0,-313.0,-0.1422481756045544,-0.9679950398522181,0.059923865863863696,-0.19788933689971255
-283.4859344959259,-4004.0,232.0,-15264.0,519.0,1658.0,731.0,-0.09308183452987039,-0.9296014433426568,0.09090138493323593,-0.34483889982573357
-283.501629114151,-6076.0,60.0,-14960.0,296.0,1234.0,13.0,-0.07793734430392212,-0.8894609728889902,0.07258353683088173,-0.44442837246438605
-283.5173888206482,-5604.0,496.0,-15724.0,60.0,859.0,-444.0,-0.09557390715242081,-0.8564648762905941,0.02984260511557245,-0.506401977555453
-283.53307032585144,-5628.0,820.0,-15424.0,453.0,665.0,-368.0,-0.07945145874941895,-0.82951234508861,-0.02317564138380281,-0.5523220298835029
-283.54875445365906,-4204.0,1352.0,-15332.0,698.0,934.0,754.0,0.0092509295666451,-0.7853048659034139,-0.0086767822222097,-0.6189793222239678
-283.5644872188568,-6392.0,656.0,-14740.0,566.0,476.0,-371.0,0.02827658553993195,-0.7570718421734264,-0.0641417821522059,-0.6495602299099571
-283.5801680088043,-5212.0,132.0,-15000.0,620.0,618.0,39.0,0.07468147368088857,-0.718835397993293,-0.0949340707741822,-0.6846063615589014
-283.5961182117462,-5540.0,236.0,-15344.0,620.0,299.0,126.0,0.12332731490627576,-0.6968866293536776,-0.12193164165839285,-0.6958965971957095
-283.6118564605713,-6076.0,904.0,-15172.0,507.0,-53.0,-680.0,0.11194294157190376,-0.6857311168623557,-0.19417026171189955,-0.6924879223969673
-283.62755608558655,-5136.0,1168.0,-14932.0,592.0,61.0,-522.0,0.1165204133274645,-0.6660248036954575,-0.2600566532647755,-0.6893507751741118
-283.6433072090149,-4920.0,724.0,-15264.0,762.0,74.0,-111.0,0.1554000695301537,-0.6500153498454811,-0.3109933891931915,-0.6757321771481746
-283.66101932525635,-5656.0,144.0,-15192.0,823.0,-104.0,-170.0,0.18865765917673014,-0.6388063607791138,-0.3696822875003157,-0.647819208862037
-283.6769223213196,-5844.0,172.0,-14972.0,713.0,-30.0,-214.0,0.21480401219107992,-0.6207086833309092,-0.42164740992206345,-0.6251347282708253
-283.69271874427795,-5800.0,448.0,-14944.0,685.0,-168.0,-552.0,0.2148553702024066,-0.5950479910624292,-0.49070549473047936,-0.599135356717553
-283.7084918022156,-6068.0,268.0,-15232.0,580.0,-93.0,-1257.0,0.173882401099498,-0.5314418728645606,-0.5839301650038338,-0.5885235838542727
-283.72420167922974,-6068.0,244.0,-15432.0,15.0,-335.0,-2485.0,0.02906149221012112,-0.41211115943423876,-0.6888895460746728,-0.5956097843801088
-283.7399456501007,-4252.0,728.0,-15416.0,644.0,100.0,-1274.0,-0.008001996854106724,-0.32620118436803597,-0.7621803628759549,-0.5591152383985926
-283.75564789772034,-4372.0,248.0,-15456.0,1189.0,576.0,259.0,0.07620239569179814,-0.31401172536095995,-0.807834338120337,-0.49294372232572425
-283.7713735103607,-5260.0,760.0,-15372.0,1656.0,1145.0,1054.0,0.2427904569703532,-0.3217858445007514,-0.8266328226736895,-0.39266377571860894
-283.7870743274689,-5292.0,268.0,-15632.0,2339.0,1554.0,2402.0,0.4784511957818644,-0.3733506473151752,-0.767626572717346,-0.20601745620812045
-283.80280232429504,-5000.0,188.0,-15872.0,2738.0,2187.0,3538.0,0.7131570698745836,-0.41896433091160834,-0.5598421632837997,0.049524088294507856
-283.81853222846985,-4924.0,44.0,-15208.0,2776.0,2141.0,3705.0,0.825035982865303,-0.39891985840706623,-0.2551415348156945,0.30835267269453276
-283.8342318534851,-6296.0,108.0,-15012.0,2396.0,1943.0,1833.0,0.8610343925932266,-0.30518965595551245,0.012426987490989264,0.40660130183174276
-283.8499188423157,-6604.0,60.0,-14948.0,2023.0,1845.0,-768.0,0.9123896060127399,-0.21328584472685377,0.1965745662054871,0.2888127337916286
-283.8656041622162,-5804.0,144.0,-15484.0,1512.0,1491.0,-2181.0,0.937307653532382,-0.16243211056367335,0.30255553771197763,0.05941648497905807
-283.8813486099243,-5080.0,40.0,-16192.0,1735.0,1389.0,-1965.0,0.9054442839740485,-0.07716258312643155,0.3848988210461641,-0.16146046556743301
-283.8970754146576,-4492.0,44.0,-15488.0,2045.0,1399.0,-1975.0,0.8137342055161058,0.0364000498953096,0.43720872719916165,-0.38126133819413216
-283.91278767585754,-5812.0,108.0,-14816.0,1114.0,972.0,-3843.0,0.6071411668068355,0.0012129442414081399,0.45327919158045016,-0.6526224841475162
-283.9285840988159,-5268.0,-504.0,-14680.0,489.0,848.0,-5230.0,0.250006782569313,-0.11916675488478594,0.4273795538315847,-0.8606059552235769
-283.94430017471313,-5112.0,-1064.0,-14764.0,183.0,932.0,-5195.0,-0.15710858340274375,-0.2169709209889898,0.3453437373173889,-0.8994321628461097
-283.96000695228577,-5328.0,-1360.0,-15164.0,479.0,1239.0,-4310.0,-0.48726139448053746,-0.23841924865414782,0.19489606038993784,-0.8171585653742823
-283.97571325302124,-4748.0,-932.0,-15220.0,662.0,1312.0,-3218.0,-0.6929998553260687,-0.2177596878381819,0.02403515480671589,-0.6868436723185871
-283.99146461486816,-3900.0,-560.0,-15416.0,993.0,1439.0,-1800.0,-0.7668403658940252,-0.19107851963487493,-0.153220230035601,-0.5932692590026049
-284.0071668624878,-4276.0,-292.0,-15280.0,830.0,1027.0,-2002.0,-0.8249752175480205,-0.1632474748603988,-0.2922560753584154,-0.4553597904947209
-284.022864818573,-3924.0,-320.0,-15544.0,885.0,1064.0,-1548.0,-0.8330638977041054,-0.1429296867893996,-0.4195252362384055,-0.33101997392217575
-284.0385584831238,-4632.0,-712.0,-15520.0,607.0,482.0,-2048.0,-0.8514561093820916,-0.09643464999880821,-0.4890689112155349,-0.162893990552047
-284.05424761772156,-3980.0,-1368.0,-15840.0,637.0,380.0,-1525.0,-0.8422139005245648,-0.07249304999066344,-0.5336498553718486,-0.025265298887102626
-284.06993651390076,-4608.0,-1424.0,-15208.0,533.0,164.0,-879.0,-0.8295491958287932,-0.07008086083691106,-0.5504381572845575,0.06288592568564938
-284.0856342315674,-4448.0,-1440.0,-15584.0,759.0,293.0,-44.0,-0.8083669917852743,-0.12420840447311814,-0.566584302104364,0.10048535942703059
-284.1014244556427,-5180.0,-1348.0,-15284.0,483.0,-207.0,-856.0,-0.8026001771780586,-0.11373368014250117,-0.5551576952200975,0.18627275440305574
-284.117139339447,-4472.0,-1044.0,-15508.0,438.0,31.0,-688.0,-0.7834038994843097,-0.11133996751344476,-0.5558906113650269,0.2546907342309476
-284.13287591934204,-4744.0,-832.0,-14908.0,244.0,-176.0,-1043.0,-0.7628069332266225,-0.07323551232174803,-0.5463861024191599,0.3379709594618534
-284.1486175060272,-4352.0,-764.0,-15272.0,403.0,-11.0,-625.0,-0.7406089406298008,-0.06983441472894358,-0.5369001072399592,0.3979445016888537
-284.16430950164795,-4016.0,-816.0,-15424.0,628.0,88.0,397.0,-0.7447117857736973,-0.13184085288514272,-0.5175280133615254,0.4002338079502299
-284.17998814582825,-4336.0,-1016.0,-15120.0,721.0,208.0,950.0,-0.7558448120074903,-0.2276607333964839,-0.49245719746417804,0.36654483940776483
-284.1957037448883,-4332.0,-1224.0,-15220.0,751.0,252.0,1320.0,-0.7652777652325392,-0.33902477390147245,-0.45499898612219714,0.30395405466866027
-284.2114655971527,-5076.0,-1248.0,-15528.0,784.0,108.0,1349.0,-0.7662931606909715,-0.4438116923546669,-0.39805270621189465,0.23954126301101938
-284.22716307640076,-4840.0,-1388.0,-15276.0,674.0,-95.0,1010.0,-0.7601279657106745,-0.5192024409471864,-0.3368141310663213,0.1979660126715542
-284.242830991745,-4120.0,-1404.0,-15544.0,612.0,73.0,1353.0,-0.7471596869959053,-0.5960048814721158,-0.26772584011746436,0.12187476327356646
-284.25850772857666,-5456.0,-1504.0,-15292.0,507.0,-304.0,26.0,-0.7269844021906666,-0.625779553374788,-0.2410094517123952,0.1476755691873944
-284.27418518066406,-4820.0,-1084.0,-15256.0,52.0,-228.0,-357.0,-0.7236173090693921,-0.6183956263662517,-0.24535009216473422,0.18376118083267629
-284.2898733615875,-4988.0,-1188.0,-15240.0,-317.0,-454.0,-1211.0,-0.7259247859362187,-0.5615854668326916,-0.2853504904329772,0.2760979286691991
-284.30559492111206,-4728.0,-1072.0,-15332.0,-486.0,-394.0,-1585.0,-0.7133213112671166,-0.4767909559603338,-0.3461387565867626,0.3795142321378241
-284.3213539123535,-5116.0,-1052.0,-15140.0,-727.0,-587.0,-2433.0,-0.6636040990004396,-0.33035645566465854,-0.4242647982364673,0.5200899854523916
-284.33705282211304,-4964.0,-1064.0,-15200.0,-886.0,-743.0,-2936.0,-0.5623456582941851,-0.13188383388298452,-0.48814885809176206,0.6542818255933095
-284.3527443408966,-4704.0,-1260.0,-15240.0,-800.0,-695.0,-2567.0,-0.4417264751883436,0.05471287928394544,-0.5146298250337726,0.7328303795175598
-284.36845874786377,-4228.0,-1352.0,-15744.0,-655.0,-535.0,-2553.0,-0.2913938056941596,0.2227428204712582,-0.5101253560880749,0.7779764822972465
-284.38416600227356,-4880.0,-1300.0,-15592.0,-471.0,-349.0,-1956.0,-0.16241641695048903,0.3401553630065488,-0.4877979586801679,0.7873807135244736
-284.3998553752899,-5448.0,-1236.0,-15272.0,-441.0,-505.0,-2285.0,-0.01355290678365007,0.4684371229681205,-0.4340966338567052,0.7693783809136705
-284.4155464172363,-4624.0,-1104.0,-15368.0,-394.0,-272.0,-2027.0,0.1262344032361528,0.5549972271036582,-0.3714880919943652,0.7335117932611914
-284.4312901496887,-4620.0,-1180.0,-15488.0,-293.0,-119.0,-1774.0,0.24702301206200303,0.609579624526245,-0.30208377097053685,0.690027324234684
-284.4469861984253,-4192.0,-1092.0,-15436.0,-114.0,64.0,-945.0,0.3105187888159928,0.6262134032705841,-0.25653157385685227,0.6675525499696996
-284.4626495838165,-4724.0,-1184.0,-15376.0,48.0,9.0,-820.0,0.35486053859533184,0.643902555136305,-0.20824096751789037,0.6450575145550834
-284.47833490371704,-4168.0,-1072.0,-15472.0,95.0,11.0,-318.0,0.36736431090451055,0.6519500148265183,-0.18467897323138455,0.6371014974770961
-284.494021654129,-5060.0,-1192.0,-15404.0,55.0,77.0,-834.0,0.4106474264415244,0.6613205993774824,-0.13140535716642715,0.61380484529199
-284.5097029209137,-3960.0,-1152.0,-15336.0,214.0,496.0,141.0,0.3958526780751185,0.6402793862882757,-0.11021204309106979,0.6489963561629277
-284.52537775039673,-5008.0,-1456.0,-15244.0,144.0,338.0,-174.0,0.40056601344284687,0.6276221267108412,-0.08063574226879956,0.6626727789838855
-284.54107642173767,-4748.0,-1452.0,-15284.0,215.0,659.0,132.0,0.38497479410450913,0.5952133816393445,-0.05231476713156625,0.703405006636729
-284.55675768852234,-5316.0,-1360.0,-15216.0,163.0,502.0,-342.0,0.3991227853723785,0.5708204120818926,-0.007667341802459052,0.7175000147853215
-284.57249426841736,-5116.0,-1244.0,-15560.0,84.0,610.0,-580.0,0.43043159030407635,0.5347354227888105,0.047630779338611914,0.725615588685064
-284.5886709690094,-4736.0,-1264.0,-15236.0,24.0,606.0,-547.0,0.46020767031665766,0.4939900127823818,0.09725925086903191,0.7312478414145037
-284.60451793670654,-4244.0,-1300.0,-15312.0,33.0,393.0,-282.0,0.4729654189835138,0.4676774617139415,0.12729167894650284,0.7357841617767634
-284.62021923065186,-3904.0,-1380.0,-15600.0,197.0,603.0,504.0,0.4247443295873666,0.44183753945099136,0.1440204202894533,0.7769362662116638
-284.6359488964081,-4808.0,-1336.0,-15316.0,61.0,371.0,160.0,0.4065871981466229,0.4209195953733163,0.1557881824385083,0.7957660376935852
-284.6516754627228,-4432.0,-1288.0,-15392.0,29.0,266.0,301.0,0.3807341188690753,0.4075500614974463,0.15624345056535674,0.8151886053287593
-284.66737055778503,-4552.0,-1412.0,-15408.0,21.0,228.0,471.0,0.34298481553083815,0.3982654249428097,0.1485644427464506,0.8376602377825014
-284.6830585002899,-4824.0,-1320.0,-15300.0,-106.0,-108.0,169.0,0.33563126238386604,0.40532782485202445,0.1318406027880991,0.8400470615196567
-284.69879698753357,-4224.0,-1316.0,-15308.0,-138.0,-160.0,575.0,0.2997437408146585,0.4192811550643296,0.09669105222469149,0.8514739240106172
-284.7145173549652,-4260.0,-1416.0,-15528.0,-162.0,-323.0,749.0,0.2520436187759614,0.44445876892239106,0.048758731593665956,0.8582266618182444
-284.73020792007446,-4296.0,-1316.0,-15388.0,-172.0,-199.0,1002.0,0.1837267588309368,0.45824587721700405,-0.007298801596146424,0.8695987129695841
-284.74589943885803,-4976.0,-1272.0,-15296.0,-141.0,-199.0,774.0,0.13013551802099754,0.4696809008849222,-0.05202959865782885,0.8716407053120223
-284.7616069316864,-4872.0,-1220.0,-15156.0,-510.0,-191.0,273.0,0.12918724456564698,0.4767621775062712,-0.10409726354150675,0.8632335962323201
-284.7773127555847,-4804.0,-1316.0,-15184.0,-296.0,-120.0,137.0,0.12998721016466672,0.481245483199754,-0.13348593430947903,0.8565556697815779
-284.7930130958557,-4920.0,-1232.0,-15300.0,-344.0,-80.0,-23.0,0.14510609393717094,0.483598781216571,-0.15917939006944445,0.8483739517955886
-284.8087592124939,-4744.0,-1284.0,-15180.0,-356.0,-21.0,-35.0,0.16229876634116014,0.4811284497200235,-0.18436246097242348,0.8415372887153224
-284.82449555397034,-4604.0,-1208.0,-15352.0,-433.0,148.0,3.0,0.1824400234787949,0.4639360579130176,-0.2141598889541137,0.8400086392200664
-284.84019708633423,-5068.0,-1240.0,-15236.0,-262.0,85.0,-522.0,0.2325358054531452,0.46288857531657196,-0.21075593255231254,0.829001328658559
-284.8559238910675,-4884.0,-1312.0,-15104.0,-581.0,499.0,-710.0,0.315185646279369,0.42650609538430273,-0.21325192992266945,0.8205328594052462
-284.8716366291046,-4764.0,-1460.0,-15212.0,-689.0,223.0,-836.0,0.4029057522153387,0.4054742268661459,-0.22446020592253343,0.7892244434483179
-284.88733553886414,-4068.0,-1344.0,-15376.0,-455.0,276.0,390.0,0.39681199225856273,0.3624457500794748,-0.2596349851839746,0.8023484252602697
-284.90303349494934,-5104.0,-1080.0,-15168.0,-342.0,360.0,332.0,0.3919265415304951,0.31762103678780446,-0.2814358736524354,0.8162746547916797
-284.91876769065857,-4548.0,-900.0,-15268.0,-352.0,570.0,381.0,0.3875870870460935,0.25520241310718617,-0.2971368956961873,0.8344804632317202
-284.93449115753174,-4676.0,-884.0,-15172.0,-497.0,430.0,-155.0,0.42028453792906506,0.21083632579793973,-0.3150548459891265,0.8244085121591996
-284.9501864910126,-4540.0,-1176.0,-15424.0,-561.0,462.0,-182.0,0.4553433206519391,0.1617414502204859,-0.33469511153143555,0.8090002138041741
-284.96587800979614,-4716.0,-1312.0,-15396.0,-569.0,361.0,-175.0,0.48528274694612794,0.11854199316144466,-0.35768795421547783,0.7889916214909248
-284.9815618991852,-4340.0,-1068.0,-15560.0,-503.0,491.0,38.0,0.5021503919375888,0.06210794586946408,-0.3715181750930628,0.7784355031165535
-284.99727511405945,-4368.0,-992.0,-15744.0,-479.0,384.0,-138.0,0.5256759918801183,0.0194066258524016,-0.38619236105409455,0.7577226370495622
-285.0129690170288,-4492.0,-984.0,-15472.0,-474.0,475.0,-207.0,0.5550245132596485,-0.026826913549899908,-0.3949335156011409,0.7316116624584383
-285.02873945236206,-4636.0,-992.0,-15508.0,-555.0,508.0,-568.0,0.6053377046517779,-0.0664814499803448,-0.4059852204622267,0.6814121226553463
-285.0444691181183,-4256.0,-1132.0,-15472.0,-496.0,0.0,-110.0,0.6082760040845551,-0.08885087164886572,-0.4359424806178364,0.6573126950355749
-285.0601556301117,-4148.0,-1224.0,-15480.0,-354.0,206.0,415.0,0.5886650084093215,-0.13522390606158105,-0.44177132794371565,0.6633446290660293
-285.0758361816406,-4428.0,-968.0,-15548.0,-302.0,95.0,582.0,0.5540064636971334,-0.17855064405011864,-0.44698647475132713,0.6792640113243641
-285.0915381908417,-4436.0,-924.0,-15424.0,-292.0,119.0,614.0,0.5166234747452959,-0.2234552133684139,-0.44837414562120564,0.6943547929546012
-285.1073091030121,-4828.0,-812.0,-15260.0,-394.0,7.0,358.0,0.4868508600940043,-0.25557951692689385,-0.464639268734757,0.6940934378761796
-285.1230127811432,-4644.0,-932.0,-15420.0,-471.0,-81.0,79.0,0.46771151698793023,-0.27384488073721597,-0.4945886749261492,0.6794387101171561
-285.1387028694153,-3924.0,-864.0,-15652.0,-303.0,-13.0,684.0,0.41831523397501114,-0.31447875243187057,-0.495871952718354,0.6929837557985127
-285.1543962955475,-4416.0,-892.0,-15520.0,-498.0,-97.0,645.0,0.3603735836138612,-0.3539902208700483,-0.5106870654969964,0.6957158363123153
-285.1700713634491,-4372.0,-840.0,-15472.0,-248.0,48.0,507.0,0.32353348078665134,-0.3870192937304292,-0.5081120657869905,0.698114805524242
-285.18576288223267,-4792.0,-908.0,-15480.0,-204.0,130.0,437.0,0.2953647571679749,-0.41987536570049067,-0.5017804714063625,0.6961901292148512
-285.2015380859375,-4728.0,-900.0,-15476.0,-221.0,112.0,190.0,0.28038927240655087,-0.4407320143368117,-0.5053085323068154,0.6868773068284274
-285.21723532676697,-4404.0,-824.0,-15560.0,-133.0,189.0,310.0,0.2647443444909863,-0.4689135148938646,-0.4965867590255026,0.6807585022388387
-285.2329249382019,-4468.0,-808.0,-15380.0,-117.0,124.0,364.0,0.24342646241056884,-0.4946500671543364,-0.4856055809150515,0.6784188147793674
-285.24864506721497,-4492.0,-896.0,-15416.0,-108.0,499.0,262.0,0.2439676147102952,-0.5371105766548767,-0.46961914235322394,0.6568484547850114
-285.2643361091614,-4768.0,-920.0,-15444.0,-121.0,4.0,203.0,0.22664499771839777,-0.5483187504956545,-0.4669590641568136,0.6556888174019017
-285.2800204753876,-4624.0,-796.0,-15480.0,-151.0,229.0,-6.0,0.22890216579629338,-0.5641991037129694,-0.4713224382283992,0.638073921333324
-285.2957043647766,-4252.0,-832.0,-15700.0,-78.0,296.0,355.0,0.2171603945113987,-0.596531019469955,-0.45199744649862855,0.6266501529757328
-285.3114650249481,-4544.0,-772.0,-15464.0,-85.0,288.0,84.0,0.21929078280639658,-0.6171676240239555,-0.44673676071538526,0.6094603703755542
-285.3271667957306,-4440.0,-908.0,-15872.0,-103.0,239.0,-69.0,0.22653652933311347,-0.6291748669563559,-0.4513163239114812,0.5908754212515412
-285.3428566455841,-4292.0,-904.0,-15508.0,-62.0,166.0,119.0,0.22335730190476277,-0.6437204739858028,-0.44470188139372474,0.58135677835749
-285.3585431575775,-4320.0,-904.0,-15268.0,-86.0,223.0,348.0,0.2092429567444167,-0.6699419475029081,-0.42495645515603114,0.5716705198364571
-285.3742289543152,-4856.0,-1092.0,-15140.0,-282.0,5.0,-282.0,0.2067429726828184,-0.6646638203275858,-0.4552054580100855,0.5552182815718861
-285.3899006843567,-4336.0,-860.0,-15400.0,-233.0,34.0,-106.0,0.1995207618870279,-0.6663104132676658,-0.47197839278084447,0.5417179113663341
-285.40562987327576,-4080.0,-856.0,-15544.0,-100.0,7.0,285.0,0.18031723256432014,-0.6800541073817308,-0.4599258159174426,0.5417382675483218
-285.4213442802429,-4280.0,-692.0,-15560.0,-43.0,-34.0,375.0,0.15844922695676325,-0.6939654579515631,-0.44006684337120594,0.5474001817794584
-285.43704175949097,-4480.0,-568.0,-15608.0,-39.0,-128.0,202.0,0.1413634256654424,-0.6961663638278784,-0.43143374642216775,0.5560878511592693
-285.452755689621,-4192.0,-808.0,-15852.0,248.0,-8.0,282.0,0.14225801612563474,-0.7031339591180266,-0.4022214622142532,0.5688437287315703
-285.4684603214264,-4720.0,-872.0,-15120.0,254.0,-73.0,314.0,0.13949304075249946,-0.7071078856556929,-0.3710776022040057,0.5855267225052011
-285.48412227630615,-4536.0,-896.0,-15540.0,-41.0,-6.0,293.0,0.12165768849473525,-0.7167319850870589,-0.355108285055156,0.5877012627759687
-285.499840259552,-4556.0,-844.0,-15460.0,-102.0,-60.0,164.0,0.10490167450031491,-0.719891066932026,-0.3507221202955796,0.589700334724233
-285.5155346393585,-4520.0,-724.0,-15560.0,-40.0,-56.0,124.0,0.09420464848797815,-0.7212994432237912,-0.345534881569224,0.5928391375636796
-285.53130984306335,-4476.0,-796.0,-15580.0,-49.0,-77.0,48.0,0.0862378727957344,-0.7193215384394842,-0.34572685236508244,0.5963325390974843
-285.5470082759857,-4264.0,-704.0,-15544.0,-2.0,-14.0,185.0,0.07598409531281498,-0.7242784773135968,-0.3343412161692,0.5982165625676796
-285.5627019405365,-4684.0,-876.0,-15588.0,-48.0,-57.0,-14.0,0.07195302580857364,-0.7213818655178373,-0.33816077559781205,0.6000652098114686
-285.57838249206543,-4444.0,-884.0,-15576.0,-22.0,-32.0,105.0,0.06406343631570949,-0.7230923937416741,-0.3329499457555381,0.6018119306409128
-285.5942602157593,-4640.0,-872.0,-15444.0,-28.0,237.0,-35.0,0.07094741624102474,-0.734695335777058,-0.33528740108933297,0.5854669814660082
-285.61003160476685,-4412.0,-736.0,-15400.0,-44.0,-9.0,-13.0,0.06846390323579307,-0.7343020551881467,-0.3384781784110504,0.5844191205288557
-285.62572717666626,-4604.0,-808.0,-15432.0,-79.0,-58.0,-230.0,0.07333796276739941,-0.725031274414886,-0.3575624440557287,0.584037920805103
-285.64144372940063,-4444.0,-832.0,-15452.0,-81.0,-35.0,-214.0,0.07794609943178156,-0.717121930678747,-0.3754379371480261,0.581985306921912
-285.6571514606476,-4608.0,-876.0,-15820.0,-63.0,-99.0,-46.0,0.07302176861347104,-0.7111516590203857,-0.38222978208998587,0.5855181746663001
-285.6728298664093,-4440.0,-848.0,-15464.0,7.0,-91.0,125.0,0.06396128725872612,-0.7107412478295158,-0.3747274854568224,0.5918911589212636
-285.688636302948,-4408.0,-532.0,-15480.0,-20.0,-160.0,120.0,0.05121822731816656,-0.7065873664257739,-0.3692190654989834,0.6014883776682065
-285.7043673992157,-4408.0,-1016.0,-15432.0,-15.0,-208.0,217.0,0.03214217794201205,-0.7026696574796752,-0.35750499527196794,0.6143390034908497
-285.7200937271118,-4360.0,-928.0,-15604.0,22.0,-278.0,386.0,0.004085130792831845,-0.6993313407118074,-0.33322432678133523,0.6323610801162239
-285.7358078956604,-4544.0,-856.0,-15500.0,42.0,-355.0,355.0,-0.023263219799648294,-0.6895793170730279,-0.30914546107189783,0.6544984888968753
-285.7515163421631,-4384.0,-1024.0,-15452.0,27.0,-326.0,487.0,-0.058173115162497076,-0.683458819953588,-0.27735333435698334,0.6727369902279815
-285.76719975471497,-4272.0,-784.0,-15352.0,77.0,-341.0,769.0,-0.10667544225234357,-0.6808055003407331,-0.2247072151098043,0.688934603720605
-285.7829022407532,-4356.0,-828.0,-15456.0,74.0,-410.0,684.0,-0.1510347470597493,-0.6688465623043854,-0.17545341453133803,0.7064339180726659
-285.7986125946045,-4548.0,-736.0,-15384.0,34.0,-384.0,607.0,-0.1919179323705875,-0.6538598440824526,-0.1326770407066837,0.7197441312024618
-285.8143286705017,-4688.0,-844.0,-15140.0,-74.0,-503.0,339.0,-0.22287107494471703,-0.6243064564231163,-0.10946943011184476,0.740666170614256
-285.8300213813782,-4244.0,-864.0,-15488.0,-29.0,-164.0,890.0,-0.28258485232522895,-0.6199576122817043,-0.059548146236810276,0.7295562887742495
-285.84571075439453,-5292.0,-984.0,-15288.0,-39.0,-328.0,307.0,-0.3056107920870142,-0.599495856578398,-0.03736705509056513,0.73878986518437
-285.86138796806335,-4700.0,-736.0,-15448.0,-65.0,-73.0,351.0,-0.33161282420141064,-0.5941554609692175,-0.021289617017361526,0.7325018602248564
-285.87706995010376,-4844.0,-652.0,-15356.0,-123.0,-103.0,-49.0,-0.33490997639021003,-0.5841158345558277,-0.028757030966770163,0.7387943101469001
-285.89275336265564,-4756.0,-744.0,-15440.0,-125.0,-72.0,-241.0,-0.32572506560283654,-0.5753012881836745,-0.04703335501413619,0.7488120411480753
-285.9085068702698,-4576.0,-928.0,-15332.0,-168.0,-84.0,-73.0,-0.3295849884075292,-0.5649092391342668,-0.059338967724472676,0.7541420117368789
-285.92422366142273,-4412.0,-1260.0,-15516.0,-74.0,-37.0,368.0,-0.35734961427368495,-0.5622062219683397,-0.04504927313660627,0.7444434029181788
-285.9399552345276,-4716.0,-776.0,-15192.0,-116.0,-75.0,278.0,-0.3811530406703417,-0.5548678385688873,-0.036656089285769584,0.7385799702320105
-285.9556517601013,-4648.0,-740.0,-15356.0,-179.0,20.0,-28.0,-0.3877958340540757,-0.5503066689167166,-0.050267250873837904,0.7377331256800644
-285.9713704586029,-4688.0,-800.0,-15476.0,-180.0,-123.0,-61.0,-0.39287015764705197,-0.5361888169713775,-0.060676837980277794,0.7446293797037088
-285.98706102371216,-4560.0,-660.0,-15504.0,-101.0,-32.0,147.0,-0.4071641771154653,-0.531623430115173,-0.05932626829366243,0.7403203734308629
-286.0027811527252,-4404.0,-660.0,-15460.0,-63.0,11.0,296.0,-0.4288979172256876,-0.5317077416178031,-0.05010762224545815,0.7285757889856548
-286.01851058006287,-4640.0,-1008.0,-15284.0,-69.0,53.0,7.0,-0.43218606568974627,-0.53277310501225,-0.056226885058022466,0.7254009653949297
-286.03418588638306,-4756.0,-900.0,-15324.0,-119.0,19.0,165.0,-0.4478851337870934,-0.5304762638743001,-0.05687273736288886,0.7174673038845278
-286.049870967865,-4848.0,-820.0,-15324.0,-167.0,10.0,-35.0,-0.45320850222967946,-0.5246064456033847,-0.06940916159252575,0.717337088839784
-286.06554532051086,-4560.0,-832.0,-15472.0,-140.0,42.0,7.0,-0.45964905535537876,-0.5219614068467493,-0.07958817860063748,0.7141041643209367
-286.08124709129333,-4564.0,-612.0,-15324.0,-118.0,127.0,156.0,-0.47365003228406644,-0.5263778261485371,-0.08499493025574198,0.7009692524549594
-286.0969433784485,-4680.0,-736.0,-15264.0,-117.0,162.0,129.0,-0.4854881063026172,-0.5325509097404026,-0.09299001936989881,0.6870543526322747
-286.1127302646637,-4864.0,-976.0,-15308.0,-137.0,132.0,-80.0,-0.48578139960266664,-0.5341784154705971,-0.11059122319649486,0.682963713236142
-286.12846207618713,-4724.0,-680.0,-15268.0,-148.0,189.0,-221.0,-0.4773661066686104,-0.5370686191620221,-0.1377645482852421,0.6816889523464607
-286.1441490650177,-4836.0,-728.0,-15576.0,-175.0,65.0,-260.0,-0.4690135235635019,-0.5305597004694677,-0.16310721446254003,0.6869707093774584
-286.15982460975647,-4528.0,-692.0,-15496.0,-118.0,110.0,-7.0,-0.4723246571270877,-0.5324154960018055,-0.17509934912370875,0.6802818355824182
-286.1755132675171,-4472.0,-840.0,-15236.0,-161.0,24.0,94.0,-0.4848310717642385,-0.5288107587631738,-0.18137062257185563,0.672608883777306
-286.19120025634766,-4616.0,-732.0,-15364.0,-138.0,66.0,98.0,-0.49572044102326435,-0.5285701521221103,-0.1878348750446903,0.6630180226466358
-286.2068922519684,-4516.0,-712.0,-15508.0,-109.0,-63.0,203.0,-0.5132893937834154,-0.5236640184841413,-0.18213432071012647,0.6550855541026346
-286.2225787639618,-4516.0,-580.0,-15432.0,-54.0,-107.0,342.0,-0.5366140816292111,-0.5205470458397107,-0.16483876184219562,0.6433539329631246
-286.2382571697235,-4564.0,-676.0,-15348.0,-49.0,-72.0,293.0,-0.5559965028728973,-0.518485611612215,-0.1509752639577244,0.6318599757993153
-286.2540054321289,-4648.0,-760.0,-15376.0,-39.0,-162.0,349.0,-0.5786760910725323,-0.5122157188785852,-0.12952203117008435,0.6212834155168512
-286.2696805000305,-4608.0,-612.0,-15604.0,-14.0,-130.0,259.0,-0.5944879997525234,-0.5074791695083426,-0.11221745639443989,0.6135602278063078
-286.2853891849518,-4616.0,-696.0,-15476.0,36.0,-91.0,559.0,-0.6228147997498548,-0.5095806680904743,-0.08082712950755218,0.5881294441333331
-286.30108642578125,-4740.0,-672.0,-15344.0,-32.0,-119.0,362.0,-0.6431561601170763,-0.5042684920148962,-0.05997537016429226,0.5731198798141068
-286.3167884349823,-4716.0,-672.0,-15400.0,-39.0,-49.0,317.0,-0.6605760520717232,-0.501354103239291,-0.04530683738351941,0.5569835123958028
-286.33258390426636,-4764.0,-748.0,-15372.0,-56.0,7.0,510.0,-0.6869520972495221,-0.5002489928177825,-0.026189853187433103,0.5264616347458739
-286.34827709198,-4720.0,-608.0,-15492.0,-59.0,26.0,128.0,-0.6951434247020256,-0.49843021580330144,-0.02495763744156989,0.5174167134922768
-286.36396312713623,-4724.0,-592.0,-15432.0,-72.0,39.0,-39.0,-0.6962552434675227,-0.495992831578273,-0.03235838890880406,0.5178539192032579
-286.3796422481537,-4576.0,-660.0,-15572.0,-38.0,-256.0,86.0,-0.7021635424779624,-0.4824943092537067,-0.01488633978249592,0.5233965972763556
-286.39533734321594,-4652.0,-756.0,-15360.0,-58.0,-55.0,86.0,-0.7084214358646613,-0.4767898112706638,-0.010632199640528413,0.5202859804057192
-286.411013841629,-4700.0,-688.0,-15404.0,-23.0,-52.0,174.0,-0.7170899391890446,-0.473384214633182,-0.0013092322406037305,0.5115541910305478
-286.426705121994,-4572.0,-712.0,-15296.0,-43.0,251.0,333.0,-0.7330639670395966,-0.48188998467941163,-0.005258904753599297,0.4799704228539904
-286.4423756599426,-4840.0,-744.0,-15380.0,-85.0,-73.0,71.0,-0.739446344087875,-0.47367118568321065,-0.0012528479682556873,0.4783859764254235
-286.458055973053,-4712.0,-680.0,-15476.0,-78.0,26.0,-23.0,-0.7415377122618685,-0.4699846698618246,-0.007223203514011063,0.47873171685120425
-286.4737296104431,-4560.0,-704.0,-15432.0,-36.0,44.0,239.0,-0.7526506437267709,-0.469813097840183,-0.0018598049456938091,0.4612908006031034
-286.4894046783447,-4708.0,-644.0,-15456.0,-14.0,29.0,45.0,-0.7548728026088797,-0.4703394082387372,-0.002570781217585832,0.4571009560512661
-286.505095243454,-4716.0,-756.0,-15444.0,-9.0,6.0,-248.0,-0.7450219814311563,-0.47009513646132534,-0.013590410569193925,0.47304134132268205
-286.52079725265503,-4552.0,-592.0,-15380.0,24.0,62.0,164.0,-0.7504952940697363,-0.4746279188001863,-0.009991654902849497,0.459766591986506
-286.536630153656,-4804.0,-712.0,-15480.0,21.0,62.0,104.0,-0.7535486475917993,-0.47882740706929733,-0.008994398643855522,0.45034192647909094
-286.5523331165314,-4708.0,-592.0,-15436.0,28.0,250.0,151.0,-0.7577122611435342,-0.4907230968783807,-0.01810769500360252,0.4298081931332862
-286.5680100917816,-4360.0,-732.0,-15456.0,47.0,65.0,306.0,-0.7666246588166737,-0.496835027281884,-0.007626234210245125,0.40667361447701333
-286.5841226577759,-4672.0,-640.0,-15332.0,55.0,56.0,326.0,-0.775279522896976,-0.5027748739068908,0.004621949297453993,0.3822796425775762
-286.5999686717987,-4808.0,-740.0,-15420.0,53.0,127.0,288.0,-0.7821447648002965,-0.5105537895008645,0.010343001986633913,0.35703979782609685
-286.6157159805298,-4856.0,-668.0,-15352.0,40.0,173.0,155.0,-0.7850129066961891,-0.5186937883327746,0.006601266524645782,0.3386265103999771
-286.6314449310303,-4768.0,-992.0,-15404.0,-5.0,234.0,19.0,-0.7855975083152681,-0.5254113445450188,-0.00880195534618628,0.3266527200779474
-286.6471815109253,-4812.0,-664.0,-15376.0,-67.0,155.0,-237.0,-0.7813680264708583,-0.5251488392363711,-0.03228524471864977,0.33561937791370866
-286.6628930568695,-4468.0,-708.0,-15512.0,-26.0,218.0,-251.0,-0.7740906336982826,-0.5290902566223027,-0.05948451006736767,0.3425036995858326
-286.67867398262024,-4624.0,-688.0,-15348.0,-8.0,212.0,136.0,-0.7770608084654196,-0.5357176966702198,-0.0678572769995844,0.32338589854788696
-286.69436025619507,-4828.0,-572.0,-15220.0,-73.0,231.0,-145.0,-0.7745992953087154,-0.5365155536870603,-0.09244509199149877,0.3218709327133969
-286.7100656032562,-4712.0,-1012.0,-15152.0,-155.0,296.0,-302.0,-0.770209365529395,-0.5317490745689841,-0.1309700890569571,0.32690562968270936
-286.7257568836212,-4704.0,-740.0,-15548.0,-152.0,230.0,-277.0,-0.7661057549618294,-0.5248608599121793,-0.1636572199975852,0.3328954254556155
-286.74150490760803,-4492.0,-692.0,-15612.0,-75.0,236.0,73.0,-0.7679161570738333,-0.5278432175142166,-0.17836683707782672,0.3160246586265809
-286.7572042942047,-4420.0,-624.0,-15116.0,-114.0,288.0,-97.0,-0.7655185355831795,-0.5266517667532779,-0.20534166710604215,0.3073338380399182
-286.77288842201233,-4864.0,-668.0,-15360.0,-146.0,299.0,-118.0,-0.7631572086571605,-0.5227713171619425,-0.2346995207072466,0.2986927515142737
-286.78862619400024,-4716.0,-712.0,-15388.0,-170.0,270.0,-235.0,-0.7586150405847817,-0.513576477664379,-0.26783528787418753,0.2983398738984626
-286.8043520450592,-4468.0,-1020.0,-15352.0,-193.0,315.0,-33.0,-0.7584553184822523,-0.5081623931578968,-0.29521075358268045,0.2817217120052521
-286.820086479187,-4696.0,-664.0,-15464.0,-253.0,233.0,-240.0,-0.7570732686207929,-0.49082701848830534,-0.3274524964257532,0.28054191566725184
-286.8357810974121,-4660.0,-732.0,-15616.0,-305.0,260.0,-370.0,-0.7526047065612537,-0.46612483891476486,-0.36771277168579536,0.28478256222543524
-286.8514895439148,-4420.0,-688.0,-15472.0,-253.0,329.0,-79.0,-0.7496726084717767,-0.45501200733560626,-0.3987428406855485,0.26825212075501564
-286.8671612739563,-4600.0,-480.0,-15420.0,-188.0,204.0,-74.0,-0.7478769476167051,-0.4449361954489437,-0.419493428441845,0.2583352796213601
-286.8828706741333,-4404.0,-492.0,-15144.0,-173.0,507.0,55.0,-0.7362594286562185,-0.4467473527065069,-0.4540420131806385,0.22843972253401834
-286.8985502719879,-4572.0,-664.0,-15480.0,-189.0,179.0,16.0,-0.7364574714866773,-0.4388352481329067,-0.4687681707935683,0.21286244323137915
-286.91425037384033,-4508.0,-668.0,-15616.0,-159.0,201.0,218.0,-0.7378471783688213,-0.44121500634400973,-0.4762909295394323,0.18454758190907736
-286.9300329685211,-4524.0,-664.0,-15432.0,-153.0,214.0,346.0,-0.7396724763011587,-0.44900096725198313,-0.47907368116647603,0.14755055819242724
-286.94573068618774,-4712.0,-692.0,-15424.0,-120.0,201.0,356.0,-0.7398299272782067,-0.458538677694237,-0.47951935148129143,0.11160264923784569
-286.9614281654358,-4524.0,-628.0,-15420.0,-189.0,146.0,292.0,-0.7435093758119243,-0.4598594265756789,-0.4790481182518854,0.0789684510964867
-286.9771234989166,-4444.0,-656.0,-15492.0,-166.0,133.0,399.0,-0.7465655243936814,-0.4664529746501667,-0.4726493045668049,0.04079430253496476
-286.99279975891113,-4428.0,-552.0,-15384.0,-159.0,143.0,426.0,-0.7477969227177863,-0.47389633135460296,-0.4649962844796551,0.0006963638224680225
-287.0086212158203,-4560.0,-584.0,-15380.0,-212.0,106.0,393.0,-0.7514761219554617,-0.47576697992921857,-0.4555177559388162,-0.037854893531427104
-287.0242965221405,-4564.0,-632.0,-15496.0,-240.0,173.0,390.0,-0.7523854487623032,-0.47466098394309514,-0.44967802641614196,-0.0800172442127572
-287.03998947143555,-4516.0,-580.0,-15420.0,-299.0,127.0,454.0,-0.7555247902919034,-0.4715354402675186,-0.43681848324749484,-0.12659475707726117
-287.05567955970764,-4744.0,-480.0,-15208.0,-284.0,39.0,273.0,-0.7620681697759377,-0.462647003830658,-0.4249825936223982,-0.15684275430776873
-287.07141876220703,-4412.0,-468.0,-15416.0,-317.0,76.0,483.0,-0.7642714777830002,-0.45798969531509043,-0.405892477946873,-0.20343510901200554
-287.08715057373047,-4628.0,-408.0,-15352.0,-378.0,-88.0,1.0,-0.7818643570731582,-0.4342731057395181,-0.39327061046689454,-0.21315070657383853
-287.10286116600037,-4360.0,-556.0,-15512.0,-444.0,-145.0,388.0,-0.7951800617402576,-0.4195537107750547,-0.360139987996863,-0.24892276358593904
-287.1186213493347,-4480.0,-976.0,-15464.0,-524.0,-385.0,447.0,-0.8146928922871985,-0.40480033230010026,-0.3051920919112701,-0.28154923061743614
-287.13432693481445,-4328.0,-584.0,-15444.0,-581.0,-608.0,630.0,-0.8323261036617905,-0.39373610140815996,-0.2247304978038805,-0.31890647997164595
-287.1500165462494,-4160.0,-740.0,-15500.0,-607.0,-812.0,1061.0,-0.8326901763031727,-0.3900743707322902,-0.11171321343848653,-0.3768145611958833
-287.16569781303406,-4208.0,-520.0,-15616.0,-626.0,-1014.0,1437.0,-0.8059359236862947,-0.38708770458576314,0.03088947697214526,-0.4468514698228387
-287.1813967227936,-4104.0,-380.0,-15360.0,-740.0,-1316.0,1532.0,-0.7543950602479749,-0.37595803817081563,0.2004899286279077,-0.49934700872938304
-287.19708132743835,-4168.0,-552.0,-15472.0,-513.0,-1559.0,2078.0,-0.6365003942616361,-0.36441900157797497,0.3836481969705712,-0.5611417827563047
-287.2127766609192,-3972.0,-360.0,-15472.0,-827.0,-1632.0,2647.0,-0.4605617064255976,-0.29839829540428126,0.5768516160399196,-0.6050484153737566
-287.228586435318,-4648.0,-260.0,-15320.0,-822.0,-1984.0,2888.0,-0.2188771549168446,-0.21445995238995375,0.7397611008556771,-0.5990435990286541
-287.24428057670593,-4088.0,-388.0,-15168.0,-700.0,-1729.0,3945.0,0.08038702257089723,-0.03439049819963339,0.8255335450665819,-0.5575388651973683
-287.25996804237366,-4996.0,-412.0,-15112.0,-814.0,-2149.0,4060.0,0.3985672799163381,0.136962081692098,0.7987236354263488,-0.42944856009768545
-287.2756471633911,-3600.0,0.0,-14940.0,-559.0,-1297.0,5664.0,0.630647745421834,0.41322397843662617,0.6300175831929978,-0.18603013118045797
-287.29135632514954,-6012.0,-100.0,-14840.0,-641.0,-1073.0,4686.0,0.7262576132086427,0.5693725298178505,0.3799920665202295,0.06301452949115663
-287.3070499897003,-6788.0,-108.0,-15000.0,-1133.0,-891.0,2931.0,0.7653479391952352,0.5768578093874779,0.16529109065198197,0.23271539499862257
-287.3228144645691,-6512.0,112.0,-14928.0,-1468.0,-742.0,1766.0,0.7965123676082125,0.5084292626918117,-0.0027523972837296983,0.32720048501647014
-287.3385100364685,-4852.0,564.0,-14964.0,-1316.0,151.0,2142.0,0.7751927444994935,0.40279766914683274,-0.12187529824412313,0.4711439889069238
-287.35420060157776,-6712.0,324.0,-15048.0,-1702.0,-315.0,233.0,0.8126740201536135,0.2949909222187348,-0.21878642884599417,0.4524088762709251
-287.36989426612854,-5120.0,312.0,-15656.0,-1801.0,137.0,-272.0,0.8614700725047938,0.16521934651812104,-0.2698693908176292,0.39716796650086483
-287.38558530807495,-5776.0,328.0,-16128.0,-1893.0,-750.0,-1549.0,0.9024947917733068,0.08348484734039119,-0.3608469307778313,0.21982475664680318
-287.401287317276,-2540.0,1004.0,-16328.0,-858.0,79.0,1902.0,0.8604679611736142,-0.04467317953974385,-0.37898901628851345,0.3375892776084546
-287.41703820228577,-5348.0,1140.0,-15768.0,-745.0,-698.0,1431.0,0.7830150677106815,-0.12599891346893966,-0.44284281415725235,0.41821276820772535
-287.43273401260376,-5332.0,628.0,-15604.0,-819.0,-918.0,713.0,0.7069150794714627,-0.1748228576173729,-0.5238235546866817,0.441946741616861
-287.4484612941742,-5184.0,744.0,-15496.0,-909.0,-1211.0,238.0,0.6227640635695982,-0.19349111141817527,-0.62459666663222,0.42965697359679894
-287.4641602039337,-4760.0,636.0,-15636.0,-728.0,-1383.0,200.0,0.5224518245879693,-0.19042202306883485,-0.717118069449517,0.4201490432978183
-287.4798483848572,-5884.0,492.0,-15660.0,-633.0,-1616.0,-1139.0,0.44508288943935476,-0.08742406744048327,-0.8197546458236931,0.34965779643953077
-287.49553632736206,-5844.0,932.0,-15288.0,-879.0,-1508.0,-2262.0,0.38740979744922716,0.08366645927316747,-0.8951430363919789,0.20404047841540796
-287.51130843162537,-6716.0,612.0,-15160.0,-1070.0,-1483.0,-3828.0,0.32566144480393827,0.3497452003788791,-0.8782221779480116,-0.01867416237479605
-287.5270073413849,-4728.0,1000.0,-15236.0,-780.0,-876.0,-2407.0,0.27080673988258297,0.49728473035815224,-0.8067073949395476,-0.16909992766596812
-287.54270362854004,-5864.0,940.0,-14692.0,-674.0,-1165.0,-2398.0,0.17730553772139873,0.6155819827227864,-0.7003627974724921,-0.3148229990914164
-287.5583939552307,-4408.0,800.0,-15344.0,-260.0,-1340.0,-916.0,0.08310880064010245,0.624442328192092,-0.6580553585835385,-0.412465575603218
-287.57414269447327,-1284.0,1028.0,-14948.0,908.0,396.0,4660.0,0.20685706695710684,0.34883200805114295,-0.8697064146168602,-0.2813132353501989
-287.59005856513977,-7160.0,740.0,-14360.0,531.0,-1281.0,2957.0,0.15942689282342015,0.09868334652079744,-0.9578025271977587,-0.21785082478088705
-287.60589933395386,-4212.0,356.0,-14544.0,774.0,-293.0,5098.0,0.20506122391688275,-0.2937571107010232,-0.9304355022054374,-0.07711310260916976
-287.621622800827,-6224.0,144.0,-15172.0,686.0,-1623.0,3599.0,0.10835154788444036,-0.5518805734760891,-0.8229789546551101,0.07995883244227132
-287.6373960971832,-5888.0,456.0,-15048.0,418.0,-1914.0,3436.0,-0.03145417220329789,-0.7385993516887053,-0.6358252130948681,0.22182860755298198
-287.65306520462036,-5100.0,540.0,-15000.0,71.0,-2455.0,3393.0,-0.21506120446181165,-0.8261364131743696,-0.38414682034919406,0.35167957799455213
-287.6687548160553,-4944.0,820.0,-14856.0,290.0,-2467.0,4986.0,-0.3864955151972281,-0.8302839394284314,0.027363117970636414,0.4006258309627063
-287.68449568748474,-5332.0,300.0,-15512.0,365.0,-2702.0,5508.0,-0.4811299281057772,-0.6479079538053522,0.46733813328701634,0.3610046327299666
-287.7001860141754,-5848.0,568.0,-15060.0,619.0,-2425.0,5978.0,-0.46596383503846345,-0.3080462799655282,0.806664493671763,0.19307404922703977
-287.7160837650299,-6652.0,1404.0,-14920.0,401.0,-2560.0,5186.0,-0.32306732820195233,0.07476089780565164,0.9431998536373055,0.020306297208265992
-287.7318308353424,-8384.0,772.0,-14596.0,-194.0,-2386.0,2031.0,-0.12412587519416121,0.2427028684587441,0.9614803287413198,-0.03526559502779419
-287.7475416660309,-6680.0,612.0,-15100.0,-907.0,-2478.0,606.0,0.10237000424583848,0.28782797078852024,0.9520301449219511,-0.01772130419462085
-287.7633056640625,-6472.0,528.0,-14796.0,-1242.0,-3048.0,283.0,0.3723649295916703,0.2839317984252296,0.883520191320689,0.010916253105265767
-287.7790105342865,-5136.0,576.0,-14896.0,-1430.0,-2859.0,1152.0,0.6010132804541681,0.3154735833853934,0.7295125096973627,0.084088959434363
-287.79470467567444,-6412.0,976.0,-15184.0,-2041.0,-4149.0,62.0,0.8538235178167775,0.22524845945919109,0.4594872110344826,0.09549887344883827
-287.81041407585144,-5896.0,964.0,-14988.0,-1945.0,-4021.0,565.0,0.9759083171334113,0.12713765369773736,0.12366829323011225,0.12706347552156216
-287.82615900039673,-5728.0,1088.0,-15200.0,-1888.0,-4155.0,1702.0,0.9413809147622072,0.028457609221798363,-0.24823057413983846,0.22665771520302508
-287.84187602996826,-7220.0,1376.0,-14736.0,-1677.0,-4754.0,1574.0,0.7368315280321777,-0.04481778048187913,-0.6139358092598467,0.2795594533527734
-287.857581615448,-6132.0,2036.0,-15072.0,-1780.0,-4443.0,2293.0,0.395281112256731,-0.15766892794890425,-0.847730832486584,0.3166161510474915
-287.87327456474304,-7908.0,1696.0,-14640.0,-2214.0,-4519.0,812.0,0.007107867048582935,-0.15468592846439078,-0.9626918028445374,0.2219149262601853
-287.88898372650146,-8608.0,844.0,-14624.0,-2674.0,-4550.0,-439.0,-0.36581001901345916,-0.028495258022231677,-0.928750442750099,0.052855135522617884
-287.90472769737244,-8172.0,824.0,-15160.0,-2614.0,-4568.0,-585.0,-0.6713953012481014,0.11200346434325548,-0.7231524315788097,-0.11719272220891176
-287.9204943180084,-8584.0,1164.0,-15160.0,-2484.0,-4264.0,-828.0,-0.847273427134357,0.24397048582714212,-0.40334443148601706,-0.24478441802224915
-287.9362154006958,-8792.0,1928.0,-15176.0,-2622.0,-4860.0,-2361.0,-0.8971624758050081,0.36956306076840945,0.05488875829458414,-0.2356053062555932
-287.9519565105438,-7240.0,1676.0,-14840.0,-2281.0,-4248.0,-1120.0,-0.7584420086014373,0.41835612192181454,0.4318018254734524,-0.2515771419603761
-287.967661857605,-6580.0,3472.0,-14296.0,-2014.0,-3846.0,-58.0,-0.5059100005593995,0.43502647740285805,0.6852374448489359,-0.291987464575708
-287.98333501815796,-9248.0,2304.0,-14240.0,-2059.0,-4407.0,-1800.0,-0.19111374027701378,0.27885532968268323,0.911617802530544,-0.23381237241487948
-287.9990291595459,-8920.0,1940.0,-14636.0,-2021.0,-4309.0,-2905.0,0.1275856470976454,-0.005791501596828206,0.9849703075423005,-0.11628350882199401
-288.01480197906494,-9828.0,1344.0,-15220.0,-2337.0,-5053.0,-4859.0,0.429995516546592,-0.420802397919472,0.7982780235091907,0.027953440527275754
-288.0305428504944,-7908.0,1328.0,-15488.0,-1950.0,-4394.0,-2881.0,0.6030282694757437,-0.6144344098443986,0.46985801698898144,0.19509153257749945
-288.04623341560364,-9028.0,1148.0,-15600.0,-1754.0,-5319.0,-3233.0,0.6809795470655944,-0.6522174538884826,-0.01136474352569015,0.33279136395970144
-288.0619852542877,-9292.0,1988.0,-14532.0,-1675.0,-5223.0,-3617.0,0.5945424257984311,-0.517680820368636,-0.4998405099416648,0.35872738502856105
-288.07769322395325,-9448.0,1656.0,-14492.0,-1886.0,-5458.0,-4531.0,0.34764442571316995,-0.2081558202811239,-0.8814934631799506,0.24245367005815763
-288.09339475631714,-9328.0,1096.0,-14524.0,-1680.0,-6015.0,-4644.0,-0.039400431353838826,0.18642589379223287,-0.9793608389438638,0.06741913138026787
-288.1090922355652,-7140.0,784.0,-15852.0,-448.0,-5872.0,-1865.0,-0.46056689231320996,0.3361281752307248,-0.8198109096691183,-0.05297225602622477
-288.1247892379761,-8744.0,3120.0,-14992.0,-309.0,-6104.0,-331.0,-0.7846259027998519,0.30344409922836746,-0.4970993325565177,-0.21254675925750227
-288.1405155658722,-10444.0,764.0,-15260.0,-381.0,-7141.0,-2662.0,-0.943603046230887,0.26026992508349733,0.057533694127568,-0.19637395774607302
-288.1562156677246,-8676.0,1432.0,-16984.0,238.0,-7584.0,-1024.0,-0.7720276825434295,0.0879894825527267,0.5829618503485152,-0.23745860562413873
-288.17195558547974,-8928.0,1656.0,-16600.0,-418.0,-7556.0,298.0,-0.3153092463175413,-0.021035622237182347,0.9164516026625994,-0.24546698711010345
-288.1876549720764,-11972.0,-804.0,-15852.0,-709.0,-8334.0,-590.0,0.27242666643065633,-0.18334944655286714,0.9359954934107905,-0.12680350224235923
-288.2033417224884,-11840.0,-1816.0,-16764.0,-947.0,-9283.0,-2078.0,0.762178481171597,-0.36720638931628463,0.5317616085108193,0.03837997131630961
-288.2190351486206,-10160.0,-596.0,-17584.0,-60.0,-8844.0,134.0,0.9263093155587679,-0.26558300511587013,-0.04124747277547982,0.2640366741426399
-288.23473167419434,-7212.0,1368.0,-19092.0,720.0,-7897.0,4553.0,0.6328466333387478,-0.03289879598768029,-0.4356778294554458,0.6392242461103653
-288.25043058395386,-9392.0,3484.0,-16484.0,-359.0,-8300.0,4809.0,0.03660339660010196,0.17425944178397657,-0.6902391914278074,0.7013299486857517
-288.26615476608276,-7856.0,5392.0,-16828.0,-2418.0,-9885.0,4639.0,-0.5768470250652764,0.3521333372235373,-0.6730223911798634,0.3004837490775397
-288.28186798095703,-8360.0,5752.0,-16584.0,-3590.0,-10292.0,5576.0,-0.8316616274944094,0.3247250495282102,-0.28740392598978215,-0.3468307409788116
-288.29757165908813,-9732.0,5504.0,-16192.0,-5358.0,-10806.0,5755.0,-0.5055288189574446,0.1577328882488463,0.32265105710958764,-0.7845108313555867
-288.31328320503235,-9328.0,3644.0,-16740.0,-6499.0,-12264.0,6064.0,0.20788853964508294,-0.1352494235530663,0.739222393637669,-0.6261311374284091
-288.32899141311646,-7316.0,2176.0,-15736.0,-6642.0,-12285.0,7764.0,0.7845128619040114,-0.2483002835534248,0.5658875836598872,0.051553674496009276
-288.3447563648224,-7144.0,1312.0,-13916.0,-6760.0,-10879.0,5716.0,0.7272697824351084,-0.24040116269764036,-0.05388493952530105,0.6406109254631608
-288.36049127578735,-4004.0,-512.0,-12876.0,-6145.0,-9376.0,3987.0,0.2298429278609713,-0.08693330129929973,-0.6304233891051925,0.7363295322792809
-288.3761875629425,-540.0,-5552.0,-11260.0,-4707.0,-5710.0,-117.0,-0.09451925596802421,0.1611972407259233,-0.8806968299665392,0.43526388952047096
-288.39194893836975,4840.0,-4884.0,-12592.0,-3175.0,-1998.0,275.0,-0.20297561458496305,0.23015162841475456,-0.9394280858657136,0.15266302534855963
-288.4076478481293,6628.0,-1840.0,-9464.0,740.0,2952.0,6600.0,-0.05358845589079022,-0.306859940330492,-0.9411009764548607,0.13150743907215157
-288.42338037490845,112.0,-1332.0,-9204.0,1167.0,4057.0,2390.0,0.261210095915743,-0.5111872072050967,-0.8128281091086662,0.09883010687220771
-288.43908405303955,-1060.0,-1860.0,-9580.0,2075.0,6503.0,-523.0,0.7033899554467132,-0.414655357477551,-0.575319978562786,-0.04806690502155163
-288.4547996520996,-1912.0,-1884.0,-9932.0,2791.0,8305.0,-2990.0,0.9402695112831465,-0.045552398508469726,-0.1443753117837846,-0.30491637294316176
-288.47050952911377,-2764.0,-1040.0,-9844.0,4219.0,10843.0,-2908.0,0.702075904076571,0.4322309511566778,0.42946700809195176,-0.36854296728849206
-288.48619270324707,-3236.0,8.0,-11236.0,5398.0,12780.0,-1925.0,-0.026933983650961186,0.6977012416708414,0.7038212830082317,-0.13085541440957904
-288.5018765926361,-4484.0,-220.0,-12020.0,7128.0,14471.0,-572.0,-0.7850629746504619,0.46957577339205386,0.36079446183375685,0.18166473291839683
-288.5175974369049,-7708.0,352.0,-12032.0,7839.0,15314.0,-2711.0,-0.8494785216914034,-0.21741581592762974,-0.24904863794326168,0.41120722283067596
-288.5333516597748,-8164.0,680.0,-12768.0,8579.0,16439.0,-2996.0,-0.11555023679766875,-0.7177431052475879,-0.6336855793126897,0.26445333088598744
-288.5490458011627,-9872.0,836.0,-12668.0,8980.0,17210.0,-3910.0,0.7456795398237958,-0.4955379586118371,-0.4231660802576105,-0.13904899849475724
-288.56474328041077,-10544.0,1292.0,-13160.0,9788.0,17779.0,-4433.0,0.8557283056933571,0.25157134652549473,0.20450677424139285,-0.403259102478674
-288.58047914505005,-11572.0,2544.0,-15008.0,10040.0,17893.0,-4269.0,0.07950652169177619,0.7459318082901357,0.6146411897611425,-0.24388656838475195
-288.59627771377563,-12484.0,3372.0,-15848.0,10301.0,18060.0,-2721.0,-0.7757193268886987,0.5063668761733325,0.3346223621299254,0.17285828695319858
-288.6120066642761,-13488.0,4000.0,-16108.0,10197.0,17861.0,-1674.0,-0.8362950522182592,-0.2438372197683495,-0.3140311220359134,0.37754264697351236
-288.6277310848236,-15868.0,5556.0,-16284.0,9726.0,17258.0,-1045.0,-0.060996622730000234,-0.7470841190249711,-0.6379339204013859,0.17659287731257758
-288.64345240592957,-17628.0,6620.0,-15168.0,8140.0,15682.0,-1349.0,0.7404164562368339,-0.5196723161473151,-0.3713468486891371,-0.2093458218652109
-288.65915966033936,-17416.0,6084.0,-13884.0,7295.0,14618.0,-644.0,0.8799364166900281,0.13756613446830507,0.23580995620834325,-0.3888201715230072
-288.67484998703003,-18284.0,4876.0,-13444.0,5507.0,12762.0,-3520.0,0.269525272796602,0.5750305463123432,0.668800173440319,-0.3865259708452267
-288.69054079055786,-17088.0,3720.0,-12392.0,4602.0,11442.0,-5505.0,-0.5271424866689586,0.48400386077465385,0.6851008646827487,-0.13600686274834273
-288.7062289714813,-15404.0,4244.0,-12524.0,3849.0,10550.0,-3831.0,-0.948880140857883,0.1411185537217761,0.21941883535879317,0.17767218907524363
-288.7219867706299,-16392.0,4792.0,-12116.0,3842.0,10110.0,-410.0,-0.8602309547004899,-0.24844520459389316,-0.4023102664864251,0.19085107903547135
-288.73768973350525,-16740.0,3704.0,-13088.0,3838.0,8610.0,1950.0,-0.388272961931579,-0.5730420501159144,-0.721688570602368,-0.0057028846857846306
-288.7533824443817,-19356.0,2824.0,-11576.0,3009.0,6208.0,-622.0,0.13083171053005369,-0.5414162466176047,-0.8256048975755702,-0.09015577916871252
-288.7690601348877,-15380.0,2244.0,-11548.0,1795.0,5083.0,-1475.0,0.5124817539954983,-0.3367344797708678,-0.7652851082436707,-0.19573207467253217
-288.7847409248352,-15752.0,2232.0,-11744.0,616.0,3503.0,-4564.0,0.6127717689509522,0.04956384359827527,-0.6724725496003308,-0.4121102457092241
-288.8004915714264,-13320.0,2460.0,-13200.0,-122.0,3088.0,-3429.0,0.6224164769113524,0.32975337395255916,-0.4528370788130597,-0.5466251198840191
-288.8162112236023,-14688.0,2876.0,-12008.0,-481.0,1869.0,-2058.0,0.5940034255188549,0.4606093106507371,-0.26132338983107445,-0.605565090919973
-288.83196663856506,-14288.0,2208.0,-12548.0,1528.0,1579.0,5493.0,0.7630367988442024,0.4427573674311724,-0.4273686343853589,-0.19772912668244805
-288.84765911102295,-21236.0,2208.0,-10336.0,1034.0,-1773.0,2235.0,0.6722618035720799,0.38458253693563177,-0.6279619362532313,-0.07631609502104064
-288.86334443092346,-10360.0,944.0,-15156.0,457.0,-1336.0,2374.0,0.5826178549198802,0.2649430966605724,-0.7672055231693792,0.04191987450915808
-288.879017829895,-10952.0,1328.0,-12992.0,-110.0,-1787.0,-688.0,0.461385899472446,0.3077442372585316,-0.8310927418921171,-0.04124791602504941
-288.89471673965454,-1156.0,-636.0,-15524.0,-206.0,-196.0,2229.0,0.45182950160684243,0.13456667933077762,-0.8814586353805333,0.02779540258187037
-288.91042828559875,-3612.0,-2980.0,-14444.0,341.0,978.0,393.0,0.5194182963651458,0.11486965378445729,-0.8429125400117065,0.08067246080033567
-288.92616724967957,-5140.0,-944.0,-15288.0,-556.0,1256.0,-1496.0,0.618050194762402,0.18796477694501196,-0.7631846771854226,-0.015242962033382887
-288.9418888092041,-10112.0,1388.0,-15904.0,-1698.0,-386.0,-5122.0,0.5544550908014572,0.3952601819623241,-0.6310370265696781,-0.37167352870167936
-288.9575915336609,-7640.0,-3136.0,-17832.0,-2120.0,-1468.0,-6973.0,0.2687101029598931,0.527851074692748,-0.32958030172633884,-0.7352176196385463
-288.9732985496521,-1468.0,-3380.0,-17920.0,-1271.0,-760.0,-364.0,0.27948694782132144,0.4559884935200678,-0.24700915952598299,-0.8080519877366114
-288.9889953136444,-5220.0,-2304.0,-16132.0,-316.0,-547.0,1053.0,0.3524068150844953,0.3850961599070996,-0.2784245338653328,-0.8062196743125785
-289.00470447540283,-5796.0,-532.0,-16120.0,-1126.0,-1314.0,-1015.0,0.28251923217507435,0.2787340834171645,-0.2025151193360608,-0.895252936679406
-289.0204830169678,-4984.0,20.0,-15276.0,-1244.0,-1079.0,-922.0,0.21867762265238772,0.17796710820046985,-0.10814766794195069,-0.9533162579483158
-289.0361828804016,-4672.0,76.0,-14856.0,-1234.0,-1152.0,-845.0,0.1545620321863544,0.06598650750584065,-0.014228167117100834,-0.9856743469798195
-289.05191707611084,-4656.0,-164.0,-15260.0,-986.0,-1135.0,-60.0,0.15235770192675402,-0.044158878495735174,0.05516971806016225,-0.9857958339954372
-289.06760692596436,-4584.0,-964.0,-15464.0,-777.0,-1040.0,1001.0,0.23808408659543942,-0.1375211092995868,0.11115728223603585,-0.9550120265278991
-289.0833144187927,-4636.0,-904.0,-15484.0,-557.0,-771.0,1956.0,0.3948742507820305,-0.19096435372509815,0.16245242842572255,-0.8838643279227141
-289.0990173816681,-5748.0,-880.0,-15420.0,-510.0,-948.0,1400.0,0.5018937471168476,-0.2587917582616818,0.190515871522783,-0.8030150653373518
-289.1147074699402,-4988.0,-392.0,-15384.0,-511.0,-384.0,2325.0,0.6455091973748991,-0.2637656989486722,0.2566716109316839,-0.6692273278223674
-289.13040256500244,-6460.0,-248.0,-15068.0,-285.0,-594.0,981.0,0.7057701647979575,-0.29106361861613256,0.26134476244841925,-0.5906516397504756
-289.14613342285156,-5276.0,132.0,-15396.0,-208.0,-32.0,973.0,0.7484861242802489,-0.28238255921510813,0.293978405296646,-0.5230729482876161
-289.1618649959564,-6216.0,-536.0,-14680.0,-335.0,105.0,-152.0,0.7301222949845841,-0.30328904679895896,0.31249264254476133,-0.5265790888495425
-289.1775496006012,-6408.0,-608.0,-15192.0,-754.0,-71.0,-1469.0,0.6379281790994539,-0.39070175859364403,0.3009040917468327,-0.5914866876884911
-289.19322896003723,-5196.0,-536.0,-15216.0,-710.0,116.0,-1214.0,0.5438282851515432,-0.4528401132671661,0.30059197283020983,-0.6393990099737051
-289.20890736579895,-4388.0,-324.0,-15600.0,-484.0,147.0,-117.0,0.5137132098415181,-0.47036334211300407,0.32982359033932895,-0.6372389376727414
-289.2246518135071,-5364.0,-196.0,-15072.0,-369.0,151.0,5.0,0.49413585449178926,-0.4782216975878375,0.35732132973225605,-0.6320247088368052
-289.24033665657043,-5544.0,-268.0,-15124.0,-541.0,25.0,-635.0,0.43454152125438833,-0.5187359421210788,0.3610009487241142,-0.6416891799601799
-289.2560176849365,-5256.0,-556.0,-15164.0,-652.0,-75.0,-789.0,0.3616995566674626,-0.5703782683742318,0.35772072449181946,-0.6448859937555023
-289.2717139720917,-5000.0,-576.0,-15316.0,-377.0,-30.0,54.0,0.34666709785140576,-0.5821089771615766,0.38064646743700264,-0.6293483366172645
-289.28745007514954,-5152.0,-432.0,-15360.0,-512.0,-93.0,133.0,0.33063783856673656,-0.5977724024623299,0.4124317508856806,-0.6026996145873188
-289.30316162109375,-5244.0,-344.0,-15140.0,-239.0,-113.0,66.0,0.325568346678792,-0.6081968255076291,0.425238116516239,-0.5858962513491635
-289.3188920021057,-5004.0,-312.0,-15252.0,-136.0,36.0,534.0,0.3438653102818985,-0.5898489791474987,0.46119122611749214,-0.5666899356223221
-289.33464550971985,-5580.0,-468.0,-15336.0,-106.0,3.0,391.0,0.3573489909754079,-0.5768970482849272,0.4865256075704871,-0.5502584188426057
-289.35034441947937,-5500.0,-512.0,-15260.0,-139.0,123.0,147.0,0.35205350392340823,-0.5690684831546812,0.5045128446773114,-0.5456062512571571
-289.3660364151001,-5508.0,-380.0,-15048.0,-206.0,95.0,-254.0,0.32534544005402805,-0.5819011908844769,0.5045883754923192,-0.5485726205356048
-289.38174200057983,-5216.0,-464.0,-14912.0,-105.0,194.0,468.0,0.3334827429582529,-0.5545231256991481,0.5385186117637867,-0.5397138760471986
-289.397421836853,-5292.0,-220.0,-15296.0,-17.0,235.0,597.0,0.3491301122801211,-0.5151769379017564,0.5743318614616802,-0.5318306123789802
-289.4131031036377,-5664.0,-184.0,-15128.0,-120.0,190.0,24.0,0.3352042226950826,-0.5087874300224882,0.5868482305141862,-0.5332753833441647
-289.4288229942322,-5344.0,-244.0,-15176.0,-171.0,311.0,-164.0,0.30381897039409866,-0.5074946825960885,0.5964669518294488,-0.5425590804148901
-289.4446144104004,-5348.0,-380.0,-15492.0,-125.0,2.0,-10.0,0.29764186497104994,-0.5112761205074388,0.6021479854684267,-0.536119252043548
-289.4603021144867,-4924.0,-276.0,-15312.0,170.0,537.0,762.0,0.31154735646443216,-0.44026783963313104,0.6401446777136672,-0.5470989541752612
-289.4759771823883,-5628.0,-112.0,-15172.0,158.0,639.0,317.0,0.29641465023401975,-0.38701906822410315,0.6610151806009794,-0.5704502844005298
-289.4916658401489,-6036.0,-336.0,-14856.0,-20.0,698.0,-742.0,0.21765697974087894,-0.39406928217755316,0.6526463536699005,-0.6094157669896059
-289.5073778629303,-5392.0,-332.0,-15468.0,-27.0,758.0,-927.0,0.12358077406614887,-0.404910624158629,0.6333657972312827,-0.6477831007538422
-289.52306270599365,-5012.0,-212.0,-15112.0,238.0,985.0,-297.0,0.060527763021608214,-0.3616069564100756,0.6176411084410235,-0.6957702639112894
-289.5387966632843,-5468.0,-304.0,-15276.0,284.0,929.0,-652.0,-0.020018311292588714,-0.3371436248022719,0.581937301319853,-0.739785388339581
-289.5545229911804,-5456.0,-392.0,-15256.0,205.0,952.0,-1190.0,-0.1378611839700849,-0.33354383918335667,0.5275438811728075,-0.7690515293101784
-289.570219039917,-5332.0,-308.0,-15480.0,159.0,856.0,-1427.0,-0.26552978063513893,-0.340181975330173,0.460411789588169,-0.7757519856658673
-289.5859878063202,-4924.0,-352.0,-15204.0,128.0,853.0,-1288.0,-0.3796627636171517,-0.33421750268715317,0.39042996871732355,-0.7692329207382765
-289.60182428359985,-5148.0,-520.0,-15040.0,-66.0,588.0,-1549.0,-0.5003172755556153,-0.34190590573675084,0.32702658004790713,-0.725145910382944
-289.6175444126129,-4264.0,-736.0,-15280.0,-75.0,463.0,-781.0,-0.5633287156290652,-0.33075196387676753,0.28756173763505083,-0.7004085547647739
-289.6332268714905,-4444.0,-648.0,-15432.0,27.0,229.0,-35.0,-0.5702284673282317,-0.3190869892505228,0.27378538539713826,-0.7057368851650543
-289.64895606040955,-4524.0,-516.0,-15432.0,28.0,73.0,457.0,-0.5425131933913911,-0.30501098922218256,0.28112007636349845,-0.73049245999898
-289.6651875972748,-4800.0,-444.0,-15312.0,-102.0,-241.0,328.0,-0.5179671510546618,-0.30746993275895984,0.3077644361242116,-0.7365143058587958
-289.68094849586487,-4540.0,-448.0,-15472.0,-248.0,-283.0,825.0,-0.4624475366780699,-0.29154395925005544,0.357735382118568,-0.7570797791683972
-289.69674468040466,-4800.0,-448.0,-15444.0,71.0,-318.0,1257.0,-0.3652165997932157,-0.2745429747368126,0.39556807704185937,-0.796723845936313
-289.7124993801117,-5200.0,-748.0,-15208.0,22.0,-300.0,894.0,-0.2910800906887032,-0.264425482896836,0.4238435694760298,-0.8159094149556366
-289.7282543182373,-5336.0,-460.0,-15216.0,-91.0,-409.0,540.0,-0.23907391015088666,-0.2708428814464315,0.4526294605015617,-0.8152388426351049
-289.7439594268799,-5228.0,-444.0,-15268.0,-91.0,-338.0,530.0,-0.18977639020768017,-0.2716971813753524,0.47820709053563265,-0.8133163848797565
-289.7596650123596,-5244.0,-384.0,-14944.0,-30.0,-394.0,569.0,-0.1333194383701638,-0.27496668123494017,0.4996971337392525,-0.8105072646781657
-289.7753782272339,-5116.0,-416.0,-15144.0,21.0,-289.0,689.0,-0.07123933984880042,-0.26509012028579865,0.5172635476546853,-0.8106112550738837
-289.79109382629395,-5140.0,-332.0,-15288.0,-41.0,-261.0,645.0,-0.014674077281048165,-0.2537511286097131,0.5359731692585283,-0.8050638471700339
-289.80680084228516,-5252.0,-400.0,-15144.0,16.0,-244.0,578.0,0.037713599468947714,-0.24353920093647372,0.5473975976180622,-0.7997638477352512
-289.8225927352905,-5236.0,-448.0,-15272.0,14.0,-192.0,594.0,0.08856658364738186,-0.2281979775111504,0.5578430073624984,-0.7930276303241997
-289.8382923603058,-5492.0,-324.0,-15192.0,-54.0,-191.0,216.0,0.11174986093451812,-0.23124917446069634,0.5644793906653679,-0.7844735849003569
-289.85404109954834,-5264.0,-328.0,-15360.0,-159.0,-144.0,8.0,0.11620121764767316,-0.24223269743617734,0.5742779284509305,-0.7733210576494731
-289.8697340488434,-5136.0,-416.0,-15220.0,-169.0,-194.0,43.0,0.12525767266652982,-0.2548332100298908,0.5847263255333642,-0.7599116229748538
-289.8854253292084,-5040.0,-404.0,-15224.0,-107.0,-194.0,241.0,0.14873212592189541,-0.2564859811697051,0.5950668933920027,-0.7469866722846921
-289.9011163711548,-5032.0,-380.0,-15208.0,-122.0,-229.0,383.0,0.18273756562119794,-0.25292102843914255,0.6083696050090678,-0.7297426664141514
-289.9167947769165,-5144.0,-476.0,-15256.0,-68.0,-141.0,555.0,0.22380021521049048,-0.23323818142194463,0.6221568029667862,-0.7130458098333303
-289.9326169490814,-5620.0,-340.0,-15200.0,-169.0,-186.0,51.0,0.233584495115937,-0.24528164491585702,0.6301636308373411,-0.6986909164134766
-289.9483132362366,-5332.0,-308.0,-15240.0,-177.0,-84.0,-120.0,0.22705536285389494,-0.26056528615134383,0.6367873054818056,-0.6892412650366894
-289.9639868736267,-5372.0,-280.0,-15208.0,-117.0,-65.0,-245.0,0.213212128696149,-0.28033624004138247,0.6370148236578977,-0.6856852741137253
-289.9796953201294,-5200.0,-328.0,-14876.0,-57.0,-81.0,107.0,0.2227127330676799,-0.28029036169501953,0.641718087555284,-0.678258245637153
-289.9954471588135,-5208.0,-352.0,-15264.0,-74.0,-132.0,193.0,0.23966555549041058,-0.27868777586842874,0.648336690768308,-0.6667481387274964
-290.0111622810364,-5008.0,-436.0,-15312.0,-20.0,-161.0,344.0,0.26814893912811444,-0.26888243840898285,0.6543690671830033,-0.6539109302296091
-290.0268838405609,-5032.0,-392.0,-15612.0,110.0,17.0,736.0,0.3110842997615702,-0.22285672555042937,0.6645890906750583,-0.6417809430596183
-290.0425932407379,-5140.0,-324.0,-15264.0,95.0,35.0,612.0,0.34464146648001004,-0.18255695799232619,0.6713710591804269,-0.6302032351281991
-290.05829429626465,-5436.0,-284.0,-15148.0,153.0,141.0,426.0,0.36189729380607094,-0.14510313820901413,0.6736434555308211,-0.6278374971584868
-290.0740361213684,-5712.0,-300.0,-15188.0,64.0,127.0,-215.0,0.34333455679412694,-0.14869580864575663,0.6714939875615861,-0.6396145427292953
-290.0897333621979,-5224.0,-304.0,-15192.0,53.0,185.0,-118.0,0.32649195378033324,-0.14364594712134823,0.6726556076526943,-0.6483080128192897
-290.1054961681366,-5148.0,-444.0,-15304.0,92.0,189.0,21.0,0.31764931578698136,-0.1290546961179948,0.673223030069757,-0.6551446781998995
-290.12123680114746,-5268.0,-484.0,-15248.0,112.0,158.0,42.0,0.3119521757749267,-0.11440310813173402,0.6718109866955551,-0.6620179506888259
-290.13692593574524,-5360.0,-472.0,-15052.0,103.0,112.0,73.0,0.3105716208517303,-0.10080183931249237,0.6698046001396689,-0.6668928363271612
-290.152649641037,-5132.0,-388.0,-15184.0,64.0,59.0,124.0,0.3148457777732049,-0.08834062336664815,0.6689507161589364,-0.6675125540632355
-290.1683564186096,-5272.0,-448.0,-15236.0,-52.0,-41.0,-133.0,0.30903573557313785,-0.09987043763707533,0.6700108114681893,-0.6675390043590614
-290.1840844154358,-5040.0,-452.0,-15304.0,-48.0,-40.0,-256.0,0.295935174123926,-0.11839580852638613,0.6695604235862217,-0.6708901880387462
-290.1998188495636,-5088.0,-448.0,-15212.0,-30.0,-141.0,184.0,0.3145457367281143,-0.1166184268389627,0.6696758208820915,-0.6625672923965308
-290.2155306339264,-5096.0,-356.0,-15188.0,-47.0,-127.0,450.0,0.3471836393097971,-0.09883838123630623,0.6731577241552652,-0.6454093068745563
-290.2313220500946,-5592.0,-376.0,-15272.0,-83.0,-236.0,155.0,0.3689003834983903,-0.10546263896914203,0.6720341553771224,-0.6333721124607262
-290.247034072876,-5080.0,-396.0,-15344.0,-83.0,-2.0,355.0,0.387623859633335,-0.08734982826693054,0.6797157828949117,-0.6165259162665033
-290.26278257369995,-5072.0,-404.0,-15308.0,-55.0,-210.0,471.0,0.42450242148361966,-0.0724606911291113,0.6787013722347989,-0.5949046896119041
-290.2785153388977,-5288.0,-380.0,-15280.0,-91.0,-215.0,338.0,0.45384002100077536,-0.06689065542674597,0.6773976373466165,-0.5750541856832434
-290.2942142486572,-5304.0,-384.0,-15212.0,-82.0,-218.0,322.0,0.48202930544476463,-0.06196555035930869,0.6745879671802524,-0.5556429553199794
-290.30990171432495,-5608.0,-356.0,-15236.0,-53.0,-154.0,248.0,0.5025698623890877,-0.05700053413441522,0.6720310800443527,-0.5408777125940997
-290.3256175518036,-5320.0,-248.0,-15128.0,10.0,-52.0,250.0,0.5172358132577282,-0.04430342447320095,0.6705917414859948,-0.5299160653484141
-290.3413956165314,-5352.0,-464.0,-14892.0,17.0,-238.0,213.0,0.5407587845534493,-0.04201896532648421,0.6598685586079069,-0.5199882968316606
-290.3570854663849,-5412.0,-356.0,-15168.0,-23.0,24.0,110.0,0.5441401611000127,-0.035637620641045115,0.6626530504927637,-0.5133540491178888
-290.37277364730835,-5632.0,-336.0,-15292.0,-47.0,31.0,-78.0,0.5385712827247485,-0.04094436951802047,0.6662015564327572,-0.514237317039091
-290.38848185539246,-5308.0,-436.0,-15200.0,-53.0,21.0,48.0,0.539183981089152,-0.03966162917428029,0.6699607509982142,-0.5087830400377
-290.4041669368744,-5272.0,-320.0,-15168.0,-16.0,47.0,189.0,0.5445713474349937,-0.027233715880373384,0.6736737729158884,-0.4988627265665922
-290.419869184494,-5468.0,-296.0,-15108.0,-75.0,60.0,247.0,0.5513458131978979,-0.013616655511558499,0.6804264597799261,-0.48254762852301436
-290.43561267852783,-5272.0,-316.0,-15264.0,-28.0,78.0,-251.0,0.5358379004936893,-0.02653045847335257,0.685109671572517,-0.49274599651900436
-290.4513201713562,-5264.0,-304.0,-15296.0,-14.0,117.0,-27.0,0.5274928720986309,-0.02372423566418313,0.6913114123691344,-0.49323114424727893
-290.4670169353485,-5308.0,-312.0,-15248.0,-55.0,71.0,18.0,0.5237273594940446,-0.02206896931299493,0.6971894242498566,-0.48902916091477755
-290.48271346092224,-5340.0,-308.0,-15316.0,-33.0,71.0,50.0,0.5213333385755127,-0.017459982213556945,0.7021415414985506,-0.4846689125710988
-290.4984083175659,-5252.0,-360.0,-15196.0,-247.0,101.0,68.0,0.5173630079056315,-0.02020794314022668,0.7172997895447005,-0.46627048909834196
-290.51409792900085,-5368.0,-356.0,-15160.0,-12.0,91.0,40.0,0.513119460323709,-0.014498776366627072,0.7221582901967104,-0.4636654061078309
-290.5298388004303,-5416.0,-364.0,-15156.0,-72.0,81.0,-137.0,0.5021880986086003,-0.023030042522393497,0.7286572697576603,-0.46511860206468586
-290.54554533958435,-5232.0,-356.0,-15188.0,-26.0,49.0,-110.0,0.49439389547652784,-0.029130392159183203,0.7318132325896312,-0.46816181921949884
-290.56124448776245,-5212.0,-432.0,-15244.0,-9.0,20.0,66.0,0.49564917397403874,-0.02444564911437322,0.7334139005745728,-0.46458406884246556
-290.57693338394165,-5216.0,-336.0,-15216.0,-15.0,-245.0,121.0,0.5159247513824855,-0.0272326222739751,0.7236957899362795,-0.457541734515561
-290.5927736759186,-5180.0,-352.0,-15128.0,15.0,13.0,298.0,0.5267201644789267,-0.007176732236606181,0.7243624333952805,-0.44476221504458324
-290.60851860046387,-5380.0,-324.0,-15288.0,-8.0,-22.0,135.0,0.5331641730982802,0.00017982699565696194,0.7239119582787356,-0.4378212064847076
-290.62425541877747,-5316.0,-320.0,-15172.0,-22.0,52.0,128.0,0.534582673431093,0.009273375580663922,0.727331473478852,-0.4302607319517867
-290.6399643421173,-5336.0,-432.0,-15232.0,-46.0,17.0,13.0,0.5338727479393991,0.008636343437562767,0.7300488937748358,-0.4265371206328961
-290.6557059288025,-5308.0,-312.0,-15188.0,-21.0,26.0,103.0,0.5358903546034759,0.015232900404199758,0.7321453815427821,-0.4201816593734319
-290.67147731781006,-5192.0,-384.0,-15244.0,-9.0,57.0,197.0,0.5392407087617022,0.029528022404736887,0.734973635964043,-0.41007475945836624
-290.6871871948242,-5336.0,-408.0,-15204.0,-41.0,28.0,73.0,0.5399869525680736,0.033329384080953595,0.7377590365843747,-0.40375097170300994
-290.70288944244385,-5312.0,-312.0,-15200.0,-45.0,30.0,86.0,0.5410333111271188,0.03784979057198135,0.7406882261636,-0.39652402351825206
-290.7186300754547,-5280.0,-372.0,-15196.0,-26.0,32.0,106.0,0.5425265177713344,0.044626456695611716,0.742920278026577,-0.3895419327551504
-290.7343668937683,-5288.0,-452.0,-15188.0,-34.0,54.0,105.0,0.5425269192882632,0.05170396781176221,0.7463873060928358,-0.38196496025628607
-290.75007033348083,-5288.0,-408.0,-15176.0,-74.0,56.0,55.0,0.5408505070016991,0.05369574965432546,0.751427972123491,-0.3741035929464498
-290.7657673358917,-5256.0,-272.0,-15328.0,-39.0,68.0,102.0,0.5396956674541507,0.06080860730047286,0.755587598055009,-0.36622162890093973
-290.7815086841583,-5284.0,-372.0,-15140.0,-40.0,41.0,88.0,0.539816640373511,0.06608357087451176,0.758498986820824,-0.35904072669839593
-290.79723072052,-5316.0,-396.0,-15160.0,-71.0,59.0,73.0,0.5383988590838888,0.06946472924265058,0.7632402921030986,-0.35037918950586755
-290.81291699409485,-5152.0,-316.0,-15276.0,-53.0,49.0,139.0,0.5394713119779665,0.07777152656030456,0.7664463484442107,-0.3398268502719982
-290.82865500450134,-5268.0,-360.0,-15176.0,-34.0,18.0,182.0,0.5436354478288606,0.08891421690553289,0.7671618242893438,-0.32866015464159287
-290.84436988830566,-5268.0,-28.0,-15068.0,-33.0,-14.0,160.0,0.5491717482941566,0.09770207559809943,0.7663192077646965,-0.3187782412747937
-290.8600935935974,-5188.0,-272.0,-15184.0,-25.0,58.0,285.0,0.553057474783937,0.11718713916052101,0.7673092202717846,-0.30270639981158876
-290.8757858276367,-5392.0,-332.0,-15272.0,-54.0,-13.0,53.0,0.5556653967646226,0.11783541586369271,0.7677420679846325,-0.2965179567131226
-290.89147782325745,-4896.0,-344.0,-15284.0,-46.0,-253.0,213.0,0.5781495605386109,0.12332540092669875,0.7543539755303805,-0.2854540431256667
-290.9072062969208,-5316.0,-428.0,-15280.0,-54.0,40.0,206.0,0.5809157607373756,0.13518191159917078,0.755562134975369,-0.270903285131009
-290.92290019989014,-5412.0,-408.0,-15360.0,-95.0,-32.0,99.0,0.5862293796854194,0.13617627458263076,0.7551576438047906,-0.2598616355633155
-290.938681602478,-5300.0,-348.0,-15156.0,-57.0,-11.0,136.0,0.5904506324338332,0.14200982514454102,0.754405458040184,-0.24914587112790657
-290.9543752670288,-5256.0,-324.0,-15216.0,-58.0,34.0,241.0,0.5938096012460674,0.15563678213422275,0.7544478509185302,-0.23232690278851084
-290.9700663089752,-5148.0,-332.0,-15204.0,-18.0,25.0,137.0,0.594916504142873,0.16426589697987204,0.7543865123323332,-0.22358903863758467
-290.9857714176178,-5352.0,-296.0,-15196.0,-83.0,86.0,-252.0,0.5851284688988163,0.1450530658811896,0.7640488869612386,-0.22981205646329042
-291.0014989376068,-5288.0,-228.0,-15248.0,-52.0,71.0,12.0,0.5810509663769656,0.14466499842792044,0.7687332819854356,-0.224724172865638
-291.0172288417816,-5196.0,-324.0,-15296.0,-7.0,54.0,126.0,0.579718329815144,0.15385489163870242,0.7701535494686065,-0.21706874633647663
-291.03294038772583,-5140.0,-400.0,-15368.0,-21.0,42.0,354.0,0.5833684491786364,0.1773358868133892,0.7677407387328866,-0.196995923411889
-291.04871225357056,-5632.0,-404.0,-15220.0,-37.0,-32.0,241.0,0.5898579080743456,0.19104923060364304,0.7630317862451031,-0.18262073526168981
-291.0644257068634,-5208.0,-356.0,-15152.0,-10.0,-45.0,331.0,0.5978037752485913,0.21181239997637083,0.7552266531691786,-0.1655259975280703
-291.08012676239014,-5112.0,-372.0,-15276.0,53.0,38.0,584.0,0.6017226557070756,0.2533262225690988,0.7448613781058105,-0.1376124920710622
-291.0958526134491,-5212.0,-312.0,-15232.0,43.0,-29.0,650.0,0.609231658472689,0.29705417716317173,0.7274676663900961,-0.10670705928604633
-291.11153745651245,-5176.0,-228.0,-15352.0,32.0,25.0,817.0,0.6126153888202643,0.3500160524216276,0.7057153575293681,-0.06447466614859448
-291.1272168159485,-5816.0,-344.0,-15084.0,-172.0,-26.0,92.0,0.6196481269040337,0.3463458853107492,0.7025693958896535,-0.04976917230458289
-291.142915725708,-5392.0,-260.0,-15280.0,-179.0,42.0,-44.0,0.6219584951611913,0.3341652057271515,0.7070414726379863,-0.03991993922921666
-291.1586751937866,-5184.0,-272.0,-15068.0,-94.0,58.0,255.0,0.6215781118055826,0.34495283406034105,0.7030661004740433,-0.01860783604204961
-291.17437291145325,-5276.0,-244.0,-15216.0,-86.0,137.0,324.0,0.615731988490852,0.3602633916575621,0.7007246931669602,0.008325344831352588
-291.19006538391113,-5496.0,-4.0,-15108.0,-50.0,154.0,-10.0,0.6075853029120509,0.35687230501756556,0.7093925783526629,0.015634173303435642
-291.20576333999634,-5204.0,-288.0,-15168.0,-56.0,246.0,197.0,0.5933500343745854,0.3656698825828438,0.7161300930566314,0.037134397776563716
-291.2214868068695,-5368.0,-252.0,-15064.0,-142.0,168.0,25.0,0.5869432065457411,0.35931534783607166,0.7236196835149007,0.05258047859273984
-291.237263917923,-5128.0,-424.0,-15260.0,-148.0,507.0,-28.0,0.558850222722234,0.34731248995606523,0.7491662944355367,0.0762254955087499
-291.25296115875244,-5208.0,-344.0,-15252.0,-160.0,201.0,-39.0,0.5504280652808956,0.3355717933885313,0.7590680411766838,0.09075365170243746
-291.2687237262726,-5152.0,-264.0,-15236.0,-75.0,501.0,144.0,0.517501817864406,0.33721315925142925,0.777670688876957,0.1170788341090936
-291.2844521999359,-5240.0,-176.0,-15216.0,-107.0,238.0,138.0,0.502679796474977,0.3392258502518573,0.7831730251057808,0.13740035474277507
-291.3001534938812,-5164.0,-272.0,-15228.0,-133.0,497.0,139.0,0.4702376432317349,0.33658762506752005,0.7985647378122217,0.16697212061349573
-291.3158438205719,-5156.0,-288.0,-15092.0,-151.0,208.0,207.0,0.45674999557397694,0.3416576082632505,0.7986518740277329,0.19184552215519027
-291.3315453529358,-4880.0,-396.0,-15288.0,-122.0,10.0,402.0,0.4524438903920264,0.3644154993915542,0.7846614148719306,0.21633847059945732
-291.34730792045593,-5596.0,-176.0,-15224.0,-163.0,90.0,-22.0,0.4516260530938885,0.35473903526337763,0.785897879225712,0.22925673044814296
-291.36300563812256,-4892.0,-224.0,-15252.0,-158.0,213.0,344.0,0.43451801822807284,0.3675970329002189,0.7800904481815897,0.25985651020120676
-291.37868905067444,-5304.0,-236.0,-15288.0,-151.0,115.0,212.0,0.4264201432474959,0.3735949810371924,0.7741570637016264,0.2815554870669032
-291.3943793773651,-5240.0,-204.0,-15240.0,-250.0,79.0,81.0,0.42695792096918156,0.3677349509955208,0.7682657402021672,0.3037197589384205
-291.4100646972656,-4784.0,-332.0,-15220.0,-202.0,128.0,598.0,0.40820518853475685,0.3963058163802305,0.7474894942697065,0.34288435355513275
-291.4257643222809,-5436.0,-300.0,-15336.0,-160.0,89.0,475.0,0.3932024848819851,0.4185379212120367,0.7289068155591214,0.3727098987437821
-291.44150710105896,-5108.0,-188.0,-15268.0,-203.0,94.0,617.0,0.3738384422146861,0.4470636241195654,0.702027506839175,0.40931200172087423
-291.4572103023529,-5256.0,-228.0,-15004.0,-282.0,63.0,390.0,0.36662537715843374,0.4591362289791997,0.6783727836033805,0.441123704337454
-291.4729001522064,-5180.0,-120.0,-15224.0,-266.0,-254.0,544.0,0.3706837783209305,0.49185343441273155,0.6373546583632923,0.46309046093471923
-291.4886312484741,-5036.0,-160.0,-15188.0,-282.0,71.0,715.0,0.3490688465139943,0.5185250414630918,0.5964067390329153,0.5035689857459579
-291.5043306350708,-5332.0,-196.0,-15284.0,-326.0,-72.0,532.0,0.34360908311117017,0.5387202475702344,0.5551736146677566,0.5324430020557164
-291.52006363868713,-5072.0,-4.0,-15132.0,-383.0,24.0,575.0,0.3330704867301208,0.5530721445489434,0.5103302629778415,0.5681005865886433
-291.53584027290344,-5508.0,-132.0,-14876.0,-505.0,-45.0,34.0,0.35737014056285027,0.5417133580940003,0.4820648518999479,0.5885972297414347
-291.55154752731323,-5184.0,-284.0,-15160.0,-548.0,-34.0,226.0,0.37254954088020814,0.5352809861774553,0.44177774230653105,0.6160466961435482
-291.5672914981842,-5068.0,-188.0,-15204.0,-489.0,35.0,498.0,0.3665407429215958,0.5358422403392027,0.3928346841555989,0.6513078290417823
-291.5829961299896,-5500.0,-264.0,-14864.0,-641.0,198.0,375.0,0.36755524809235807,0.5159289692903215,0.34462662535267446,0.6927863504319488
-291.5988039970398,-5800.0,-540.0,-15096.0,-736.0,122.0,-141.0,0.40464065801954857,0.4798093223532716,0.3099140271967295,0.7141444166323125
-291.61451292037964,-4920.0,44.0,-15596.0,-588.0,314.0,496.0,0.38880595298792353,0.45188354983573475,0.26310682045937756,0.7585551986090165
-291.6302273273468,-5168.0,48.0,-15032.0,-544.0,678.0,776.0,0.34154549670145146,0.4044597602720415,0.21858490285351354,0.819743628366919
-291.64598774909973,-6524.0,-256.0,-14624.0,-721.0,569.0,-816.0,0.41217682202503086,0.3249865073150377,0.2117824501376929,0.8244041674216563
-291.661700963974,-4936.0,88.0,-15912.0,-599.0,794.0,-313.0,0.43521390392290144,0.23970520952906535,0.20553023231088935,0.8431415029299925
-291.67741417884827,-4204.0,576.0,-15876.0,-172.0,1113.0,966.0,0.34489215680994406,0.16733693043497042,0.21344522412804542,0.8986038549775508
-291.69311809539795,-5604.0,764.0,-15308.0,-374.0,874.0,-338.0,0.3592155353034604,0.08093422030205595,0.21484360443678557,0.9045750808049914
-291.70881271362305,-4776.0,332.0,-15444.0,-428.0,832.0,-445.0,0.38022969483553815,-0.006545946206850499,0.20973859277471546,0.9007731415036822
-291.7246036529541,-4760.0,108.0,-15608.0,-313.0,686.0,-64.0,0.3717181521498105,-0.07202442189749478,0.20768710190113057,0.9019446577903608
-291.7403492927551,-4756.0,96.0,-15352.0,-286.0,594.0,295.0,0.33526596264573366,-0.1226643770314523,0.20613487074080966,0.9110755182548728
-291.75608134269714,-4316.0,396.0,-15432.0,-60.0,581.0,1003.0,0.24317547479371143,-0.15200897447894784,0.22815729554481054,0.930431732383623
-291.77181005477905,-4424.0,700.0,-14756.0,-45.0,942.0,1168.0,0.12789428550957574,-0.2046648228091554,0.257993962627659,0.9355182934000652
-291.7875061035156,-5328.0,-136.0,-14388.0,-244.0,992.0,438.0,0.06515908600759225,-0.277456836149493,0.2559341192328611,0.9237260006068185
-291.803204536438,-5928.0,-732.0,-15480.0,-312.0,887.0,-62.0,0.04267630755065428,-0.35119231125707023,0.2336638843969798,0.905673165339613
-291.8188970088959,-5208.0,-80.0,-15612.0,-288.0,1285.0,62.0,0.0027502359741406303,-0.4498434011872547,0.21627108019671845,0.8665218811322157
-291.8346586227417,-6004.0,500.0,-15860.0,-740.0,838.0,-1569.0,0.07548317350777077,-0.5357289654382781,0.09764639983253426,0.8353214630951207
-291.8503487110138,-4928.0,452.0,-15444.0,-831.0,1035.0,-2518.0,0.20510064678400072,-0.6195224317773962,-0.0715923830884312,0.7543210270813916
-291.8660349845886,-3908.0,-256.0,-15640.0,-645.0,930.0,-1944.0,0.2982346018374919,-0.6676314130059356,-0.19870906201673275,0.6525635044246352
-291.881742477417,-4860.0,-120.0,-15268.0,-228.0,1254.0,-891.0,0.35404552455566096,-0.7231081446413237,-0.22888307884933623,0.5471552923183123
-291.8974459171295,-4980.0,28.0,-15532.0,-207.0,1150.0,-970.0,0.40652294224196195,-0.7586053357349668,-0.2621594525750285,0.43649680806500524
-291.9131484031677,-5320.0,388.0,-15512.0,-338.0,1025.0,-1347.0,0.4535524104534892,-0.7703248624297394,-0.3241841485371257,0.30950679335305664
-291.92896151542664,-4264.0,220.0,-15476.0,-193.0,1274.0,-995.0,0.49822870690878684,-0.77660651873501,-0.34243978259651753,0.1771594365692575
-291.9447581768036,-5444.0,188.0,-15504.0,-253.0,1156.0,-1905.0,0.5346690134595953,-0.7347948295717394,-0.4172974922114598,0.008270881138573707
-291.9604947566986,-4704.0,52.0,-15832.0,-9.0,969.0,-2159.0,0.5588950677205804,-0.6438844153933457,-0.5000439035911816,-0.15167484093438277
-291.9762074947357,-3592.0,988.0,-15872.0,-98.0,1155.0,-1050.0,0.5842459826966838,-0.5823251363009804,-0.49692004262379724,-0.2694894034532602
-291.99195766448975,-4576.0,452.0,-15732.0,-459.0,848.0,-1701.0,0.5495460912914875,-0.5048919803820989,-0.5219164052850529,-0.4131421638932764
-292.0076630115509,-3268.0,1100.0,-15636.0,-334.0,771.0,-359.0,0.5550598795194281,-0.475405927750247,-0.4873425007044926,-0.47790691668451163
-292.0234513282776,-4356.0,-560.0,-15540.0,39.0,578.0,-443.0,0.5615034991013717,-0.429873243346781,-0.47854503265797643,-0.5204973264771026
-292.0392153263092,-4328.0,504.0,-15288.0,76.0,1073.0,63.0,0.609207532683365,-0.37853107331578206,-0.425371148763294,-0.5519418397404244
-292.05490827560425,-5224.0,-168.0,-16592.0,-467.0,989.0,-938.0,0.5806247417281272,-0.31856489663916204,-0.3784947400872435,-0.6466320805904359
-292.07066559791565,-5116.0,516.0,-14832.0,-368.0,650.0,-1288.0,0.514742414557262,-0.2559756796644813,-0.3578125895349013,-0.7358578999007859
-292.0863480567932,-4512.0,-676.0,-15468.0,-270.0,759.0,-2073.0,0.3918829895779133,-0.15192847962738948,-0.34646337023304874,-0.8386349579193229
-292.10204339027405,-5836.0,-572.0,-16084.0,-691.0,772.0,-3840.0,0.1180048927604103,-0.0027788996120655133,-0.3029469274841666,-0.9456692244804485
-292.1177155971527,-3176.0,-84.0,-15456.0,-454.0,1107.0,-2398.0,-0.04944822971348105,0.14353147266894756,-0.2482571706110784,-0.9567246030973949
-292.13342666625977,-5404.0,1208.0,-15524.0,-467.0,1016.0,-3805.0,-0.3206104815832903,0.29580785764966133,-0.15706064070700695,-0.8860240321753992
-292.1491050720215,-5236.0,656.0,-15340.0,-1403.0,2509.0,-4612.0,-0.5480186183735455,0.5353418929917786,0.0001120799118861298,-0.6427166085935719
-292.1647775173187,-7792.0,-352.0,-16244.0,-1677.0,443.0,-8403.0,-0.7531271036050604,0.5127740356678787,0.37259103857420484,-0.17617682065051887
-292.1805753707886,-1396.0,1336.0,-16848.0,-1130.0,1973.0,-4704.0,-0.763237950319896,0.42276274618930765,0.42849045316581275,0.23480933365544773
-292.19627571105957,-3544.0,460.0,-15800.0,-503.0,1703.0,-4077.0,-0.6755714965124696,0.2508799392967455,0.4245049074227025,0.5481404863102218
-292.2119679450989,-3196.0,916.0,-15140.0,-465.0,2139.0,-3366.0,-0.5506754484409576,0.04849100596405724,0.3304177863205781,0.7650027838563417
-292.227676153183,-5164.0,-576.0,-15844.0,-338.0,1736.0,-5013.0,-0.23994690839380553,-0.1776332396605311,0.22307172878339346,0.9279606226222896
-292.2434332370758,-2224.0,444.0,-16488.0,-2.0,1428.0,-2201.0,-0.08724372366243606,-0.32781970838149604,0.1550816625794095,0.9278321235060734
-292.25916051864624,-3760.0,180.0,-15460.0,1051.0,1233.0,-1781.0,0.06885333201972023,-0.45019102352075346,0.17607953887098934,0.8726873764425027
-292.2748522758484,-2816.0,412.0,-15680.0,1017.0,914.0,-1188.0,0.1829460425196003,-0.5256628723931993,0.20983242454179216,0.8038529988279328
-292.29053354263306,-3224.0,1588.0,-14560.0,1231.0,845.0,-1116.0,0.29824009481353336,-0.5783409081889763,0.255234701108235,0.7151432633472503
-292.3062438964844,-5272.0,-1460.0,-17252.0,966.0,2747.0,-919.0,0.3315060057377081,-0.7201460411803783,0.32919679191712037,0.512955085483647
-292.32193326950073,-4876.0,928.0,-15408.0,351.0,419.0,-2478.0,0.44158417440823705,-0.78117297601874,0.19664981485699554,0.3950962525346575
-292.33764910697937,-3456.0,-952.0,-16108.0,1192.0,1340.0,-912.0,0.5230730090023299,-0.7852536544342429,0.22384842397458385,0.24426053413314636
-292.3533842563629,-3644.0,-764.0,-15324.0,695.0,1071.0,-1365.0,0.5710704320306297,-0.7927201387399295,0.19156385308426344,0.09368368848421615
-292.36906456947327,-4316.0,-692.0,-15512.0,870.0,1085.0,-1988.0,0.6154753795581703,-0.7744878933192336,0.11281769917386593,-0.09290170618872728
-292.3847498893738,-4088.0,-1556.0,-14832.0,688.0,1059.0,-2471.0,0.6135714592836613,-0.7323262308384835,-0.002722351638868537,-0.2953319230628025
-292.4004611968994,-2224.0,-268.0,-15736.0,565.0,1822.0,-481.0,0.6283457781075151,-0.6457996019253381,0.04885140452692387,-0.4309733142124732
-292.41616010665894,-4560.0,-144.0,-15476.0,741.0,1359.0,-1996.0,0.5753207957331529,-0.5496261863062096,-0.016512233696767204,-0.6055116707890997
-292.4318690299988,-2208.0,184.0,-16224.0,849.0,1636.0,-608.0,0.577958959214316,-0.41406882286896807,-0.008263819231026587,-0.7031658130793393
-292.4475803375244,-2536.0,108.0,-15528.0,1473.0,1609.0,159.0,0.630686146302566,-0.23717589537604208,-0.011510390635934493,-0.7388166825552868
-292.46332359313965,-4376.0,-1432.0,-14856.0,907.0,1045.0,-1379.0,0.5536280655378601,-0.11705396190010708,-0.040249483578652545,-0.8235133964447372
-292.4790234565735,-1232.0,-100.0,-16400.0,1477.0,598.0,215.0,0.5805806826126366,-0.003755014995379685,-0.11425478414551649,-0.8061375906998078
-292.4947135448456,-2980.0,264.0,-15556.0,1522.0,1320.0,95.0,0.5917611361610337,0.16301330336300193,-0.15227803563477252,-0.774633345860672
-292.51040482521057,-3636.0,-372.0,-15696.0,926.0,1154.0,-482.0,0.5561459363391932,0.29285683862550904,-0.14715483526019815,-0.7637290252591024
-292.5261380672455,-2812.0,-516.0,-15816.0,1257.0,1661.0,375.0,0.5607455112138444,0.45237552277584975,-0.1572973801478059,-0.6754097957872964
-292.54186487197876,-3152.0,-1676.0,-15456.0,960.0,1476.0,430.0,0.561320591644298,0.5735797422266867,-0.1566937532707453,-0.5756496681048199
-292.55755257606506,-3568.0,-2268.0,-15040.0,726.0,2051.0,467.0,0.565722087541944,0.6930767584368913,-0.11393324705475821,-0.43199808077971297
-292.5732409954071,-3016.0,-604.0,-15968.0,708.0,1671.0,568.0,0.5531365371022133,0.7749843094068998,-0.09122799830833209,-0.2917477400432393
-292.588969707489,-3876.0,-1556.0,-15620.0,708.0,1707.0,-314.0,0.5038829841055658,0.8440759127522289,-0.005514728396394401,-0.18332315623258105
-292.60476517677307,-2092.0,-1096.0,-15912.0,482.0,1899.0,351.0,0.46762048186741356,0.8824212103136583,0.04379341660062568,-0.027313534906902807
-292.6204960346222,-3076.0,-1228.0,-15524.0,504.0,1982.0,213.0,0.41482537047219986,0.8943802781675569,0.10543052694775855,0.1299547383708788
-292.63623094558716,-4028.0,-608.0,-15316.0,29.0,1894.0,-974.0,0.39910605016730755,0.8505587644511062,0.24619191717078287,0.23802035386712767
-292.6519582271576,-2376.0,-1076.0,-15784.0,-124.0,2334.0,-299.0,0.3566944999779965,0.775268898723551,0.3400589814506143,0.3950785459781258
-292.6676642894745,-1836.0,-1372.0,-16252.0,220.0,2224.0,274.0,0.26120141414243714,0.7003455615993486,0.3909503223795873,0.5370733292850995
-292.6833653450012,-2472.0,-1216.0,-15960.0,338.0,2487.0,1012.0,0.10526966079778309,0.6094275033191721,0.3909971545073316,0.6816433392037584
-292.69905138015747,-2780.0,-732.0,-16092.0,485.0,2347.0,168.0,-0.010397370143918451,0.46997602317748405,0.42342163882423894,0.7744214279755971
-292.7147934436798,-3180.0,-1244.0,-16048.0,708.0,2156.0,-518.0,-0.08239952939369821,0.2985593211036176,0.4809345669809453,0.8202283777221406
-292.73052406311035,-2060.0,508.0,-16360.0,870.0,2692.0,-83.0,-0.20588500552627598,0.0934334848717054,0.5109184684731546,0.8293635312558785
-292.7462911605835,-3232.0,-740.0,-16392.0,1373.0,2356.0,-1244.0,-0.2244628830572772,-0.15211093148134114,0.5595493127517935,0.7831878735351366
-292.76203203201294,-2448.0,-460.0,-16656.0,1416.0,2798.0,-1997.0,-0.19567433476786122,-0.44580846635577515,0.547152914800432,0.6808744773187329
-292.7777223587036,-3144.0,-1452.0,-17236.0,1636.0,2430.0,-3865.0,-0.016849511451895498,-0.7393114022028132,0.4168212586005363,0.5285780764611863
-292.79340982437134,-2364.0,-1732.0,-17004.0,1806.0,3550.0,-4035.0,0.14045141326115632,-0.9433864689794914,0.21028468483247645,0.21465256109410144
-292.8090989589691,-4240.0,-2552.0,-16712.0,1556.0,3543.0,-6718.0,0.27268796899603875,-0.9226509116785648,-0.22375660008854234,-0.1558510528047364
-292.8247866630554,-4160.0,-3796.0,-17736.0,851.0,3971.0,-9951.0,0.20660821765355658,-0.47718001961035317,-0.6871777506110994,-0.5073450624060053
-292.84063363075256,-2276.0,-3988.0,-19084.0,172.0,4765.0,-10587.0,0.02156401866531674,0.26111039720674983,-0.7375059469117696,-0.622447854715003
-292.8563349246979,-880.0,-5956.0,-19252.0,502.0,5437.0,-10352.0,-0.141532320090019,0.8561068178350851,-0.36292797709157204,-0.3396071292986059
-292.87207102775574,-404.0,-5004.0,-17564.0,1498.0,6896.0,-7489.0,-0.19118495075584577,0.9517094672308603,0.04985375430176197,0.23497235533069907
-292.88781571388245,-1936.0,-4924.0,-17708.0,1857.0,6364.0,-8567.0,-0.1434522843065656,0.5473053184460491,0.5038333426223753,0.652709961154157
-292.90351963043213,-24.0,-4204.0,-18596.0,3824.0,8302.0,-4807.0,-0.31001958892228926,-0.1371719726003225,0.6295563643522097,0.6990926179849271
-292.91920256614685,-1604.0,-3064.0,-17336.0,4514.0,8218.0,-2895.0,-0.40312634026050137,-0.698605432062645,0.49230436634807656,0.3272247162965508
-292.9349100589752,-4196.0,-3232.0,-17428.0,6901.0,9211.0,-105.0,-0.2644592076448492,-0.8529740982759345,0.2532434980666093,-0.37197344777443775
-292.9506661891937,-10428.0,1272.0,-12460.0,5761.0,7783.0,-741.0,-0.024080569939326394,-0.5719724460468985,-0.1286435003287595,-0.8097644700390907
-292.96637439727783,-13264.0,4200.0,-13412.0,1621.0,3677.0,1249.0,0.1749334351334209,-0.3094019786842245,-0.1771541989747606,-0.9177609158404594
-292.98206639289856,-19060.0,11032.0,-10252.0,-109.0,-1316.0,2823.0,0.364470116925466,-0.443864764983995,-0.10851976124652121,-0.8113994489109775
-292.9977593421936,-7832.0,6596.0,-16068.0,-2588.0,-2448.0,12497.0,0.7446711283433208,-0.5410402547695493,0.31804344141584784,-0.22713150971001522
-293.0134930610657,-9752.0,-784.0,-13024.0,-783.0,-4254.0,17066.0,0.6348728208701562,-0.110562815812161,0.47080091102522403,0.602543664191962
-293.029239654541,-10916.0,1476.0,-11828.0,-802.0,-6851.0,16829.0,0.012640788643370657,0.4779260227933575,0.11287127206162735,0.8710264078330731
-293.04496932029724,-9796.0,-1356.0,-12856.0,-2239.0,-8251.0,12828.0,-0.46999550392348005,0.7332281641615366,-0.3588097679247834,0.33576217180286994
-293.0607395172119,-6912.0,-4072.0,-13784.0,-2188.0,-7552.0,12253.0,-0.5722783341855603,0.4085812405335946,-0.5549498682022285,-0.4445104294481271
-293.07646894454956,-9032.0,-2040.0,-13700.0,-2446.0,-9098.0,12269.0,-0.2676861110581207,-0.24772358564585964,-0.2639442075570201,-0.8929225197957741
-293.0921652317047,-9496.0,496.0,-13368.0,-5208.0,-6697.0,-2935.0,-0.6009330795256868,-0.45681700510906703,0.18470795302257234,-0.6293493702747056
-293.1078152656555,-8388.0,-11064.0,-18476.0,-380.0,-10844.0,11041.0,0.09837468028678352,-0.50837804521311,0.7225872609767744,-0.4579758025243836
-293.123512506485,-5656.0,-1288.0,-15088.0,-1019.0,-10255.0,16007.0,0.6907956935476497,0.042483888494983316,0.714471861543426,0.10259818739645886
-293.1392104625702,-10840.0,-232.0,-13240.0,-1142.0,-11836.0,14011.0,0.6918500820341513,0.5043781440179816,-0.03222618056927753,0.5156623169402924
-293.154904127121,-8096.0,-3176.0,-17428.0,-1755.0,-13410.0,12772.0,0.0820564667354079,0.5067260443937519,-0.7778097799587763,0.3626394881979101
-293.1706397533417,-6760.0,-3548.0,-16692.0,-1337.0,-12870.0,14241.0,-0.6053994762065619,-0.031839666382932105,-0.7889693136812154,-0.1000256563229448
-293.1863663196564,-9144.0,-1204.0,-15704.0,-2737.0,-14236.0,11214.0,-0.7926988934191008,-0.4154372820205816,0.00949167179914408,-0.44603838091126424
-293.20206785202026,-7304.0,-488.0,-15428.0,-3243.0,-14099.0,11275.0,-0.24352569263746868,-0.3872151989060145,0.8052426349606391,-0.3772849395394199
-293.2177610397339,-5428.0,-480.0,-16340.0,-3379.0,-13866.0,12158.0,0.5304230618335692,0.04297865580662974,0.8458428958693004,0.03679682224856529
-293.2334849834442,-6724.0,-868.0,-15984.0,-3694.0,-13568.0,11447.0,0.8061422121495563,0.40632103527152613,0.08723033643249607,0.42122300328017265
-293.24922728538513,-5908.0,-1220.0,-15304.0,-4058.0,-13160.0,10117.0,0.3777562702521581,0.37976337753272515,-0.7498845060375833,0.38826950044380937
-293.26491475105286,-5752.0,-1180.0,-14808.0,-3897.0,-12460.0,9664.0,-0.3667022978237689,0.02367254684626265,-0.9297695196625921,0.02230864413119117
-293.2806444168091,-5312.0,-1192.0,-15500.0,-3858.0,-11838.0,8165.0,-0.8142266067623128,-0.30028074559926565,-0.3510505658925133,-0.3516105897853838
-293.2963583469391,-4820.0,-1708.0,-15740.0,-3836.0,-10853.0,6879.0,-0.6731578143486604,-0.37136534149652284,0.46637586608570736,-0.43753844590996993
-293.31209325790405,-4356.0,-380.0,-15284.0,-3966.0,-10034.0,5704.0,-0.11997921409031805,-0.19813372032715426,0.9529230984022902,-0.1956670273371826
-293.3278114795685,-3492.0,-760.0,-14784.0,-3639.0,-8788.0,5025.0,0.46214623826342405,0.07858790994253674,0.8703942495974215,0.15052788823859725
-293.34352564811707,-3704.0,-620.0,-14480.0,-3476.0,-7919.0,3328.0,0.8115295738429559,0.22956488437145223,0.3754151662555544,0.3844257634278779
-293.3591945171356,-3564.0,-500.0,-14644.0,-3244.0,-6650.0,1952.0,0.8556825004346924,0.23867106809833719,-0.20225351631817498,0.41223427179161765
-293.37488555908203,-3788.0,-256.0,-15164.0,-2918.0,-5138.0,521.0,0.7165730532690184,0.17464619877393248,-0.6233246608920091,0.2597847795895566
-293.3905873298645,-4532.0,168.0,-15624.0,-2998.0,-4127.0,-1151.0,0.5127326668046079,0.13044438322715668,-0.8478666886090934,-0.03480737885811051
-293.40629053115845,-4672.0,-352.0,-15912.0,-2954.0,-3577.0,-3058.0,0.24482750168370365,0.1922770685519956,-0.867609681263478,-0.3877402020764074
-293.4220266342163,-3868.0,-1568.0,-16624.0,-2654.0,-3049.0,-4619.0,-0.08638939384665234,0.33690661084159346,-0.6748526274856578,-0.6508492447393199
-293.43774032592773,-3040.0,-1848.0,-16736.0,-2543.0,-1890.0,-6393.0,-0.4126240602235845,0.5308857244329633,-0.27876711849874625,-0.6857044743632619
-293.4534466266632,-2536.0,-1156.0,-16480.0,-2149.0,-610.0,-6989.0,-0.6282673473247194,0.6249017104203216,0.16460406612838946,-0.43322453071509875
-293.4691457748413,-2680.0,-1896.0,-16908.0,-2152.0,-35.0,-8039.0,-0.6587414349260936,0.5067864734426422,0.555292482827782,0.029621795388510935
-293.48482871055603,-580.0,-3308.0,-17036.0,-1322.0,1501.0,-7083.0,-0.5506838013433538,0.19845203905380493,0.6554454885246097,0.4772372059114382
-293.50061440467834,512.0,-5024.0,-17196.0,-412.0,2576.0,-6763.0,-0.34576527624757153,-0.23306131966233143,0.5339958682788891,0.7355115279040624
-293.5163080692291,1996.0,-6324.0,-17760.0,489.0,4114.0,-7532.0,-0.035192120679657726,-0.6903349600223255,0.23058318606858286,0.6848580523842178
-293.53199195861816,2424.0,-7436.0,-17588.0,557.0,5610.0,-10707.0,0.3612944549139452,-0.8545817610644045,-0.2739292362655594,0.25321750339078775
-293.5476744174957,7476.0,-8816.0,-20220.0,277.0,7359.0,-14569.0,0.5053803983041667,-0.37931264109171015,-0.6448003468391228,-0.4300524224255692
-293.563355922699,12636.0,-676.0,-17944.0,4364.0,16551.0,6794.0,0.970080065540372,0.027379597507165333,0.07714774773080989,-0.22856782166699766
-293.57903003692627,-22744.0,5184.0,-17928.0,2705.0,7233.0,-4048.0,0.6637685945095548,0.29721869751428165,0.5136028406157931,-0.4552849886632685
-293.5949022769928,-13688.0,4852.0,-19592.0,1052.0,4579.0,-5591.0,0.17628811054381546,0.24427210014560782,0.7439341342083463,-0.5965028475464504
-293.6106593608856,-1616.0,1920.0,-16908.0,130.0,5609.0,-5470.0,-0.3924158178381,0.15123646453463677,0.7761046549979785,-0.4698924581177988
-293.6263656616211,-3384.0,3016.0,-14512.0,-971.0,5974.0,-5693.0,-0.8237798891065744,0.03556177080717249,0.5559000899240778,-0.10534298639691293
-293.6421253681183,-6924.0,1864.0,-16056.0,-1063.0,4533.0,-4507.0,-0.9416150264936629,-0.05658447575758795,0.22107743561519463,0.2475562692528447
-293.657883644104,-7548.0,-2028.0,-17108.0,-1244.0,4302.0,-5199.0,-0.7878745173483067,-0.12678360764686608,-0.15875900029422874,0.581356380863576
-293.6735792160034,-6568.0,-3172.0,-15372.0,-1100.0,4045.0,-4293.0,-0.4660875247762579,-0.17451555407967378,-0.4787396443209122,0.7232669587280288
-293.6892764568329,-7512.0,-4012.0,-14032.0,-868.0,3372.0,-3811.0,-0.08922144195987251,-0.17590115265976092,-0.6645750034198761,0.7207207389946817
-293.7049791812897,-7048.0,-4264.0,-14676.0,-411.0,3258.0,-2608.0,0.24169587969688397,-0.21268631734251145,-0.7099589554309838,0.6263432874679637
-293.72074270248413,-6372.0,-2116.0,-15052.0,-71.0,3184.0,-1065.0,0.47568764932031266,-0.3093733334441071,-0.6397269170058776,0.5184195911575408
-293.736492395401,-6216.0,-360.0,-15336.0,63.0,2833.0,-696.0,0.64623028880173,-0.38399901389591196,-0.5215845432136704,0.4035848553189115
-293.75221610069275,-6192.0,1660.0,-15872.0,-191.0,3392.0,-1128.0,0.7958580281149792,-0.4420399690926009,-0.3578963315001992,0.207655678247066
-293.7679500579834,-6988.0,1440.0,-16124.0,-656.0,3835.0,-2627.0,0.8677884863142502,-0.4398290895544618,-0.18954312799011594,-0.13254024910885648
-293.7836344242096,-7656.0,144.0,-15116.0,-1061.0,3962.0,-4648.0,0.7377113859750846,-0.3498347569021567,-0.048886956109712394,-0.5753326163083887
-293.79931473731995,-6508.0,-728.0,-15156.0,-1168.0,3941.0,-5128.0,0.4002022763402316,-0.17828568829372704,0.09288014412067139,-0.8941060508630126
-293.814994096756,-5384.0,-988.0,-15208.0,-840.0,4180.0,-3901.0,0.043649290067733444,0.07756252880970695,0.21788994090061456,-0.9719067688083838
-293.8306715488434,-5120.0,-428.0,-15544.0,-516.0,4235.0,-2992.0,-0.26133994088581414,0.34418106196189907,0.2714861094564216,-0.8599628621381242
-293.8463795185089,-4812.0,-348.0,-15772.0,-258.0,4592.0,-2412.0,-0.4948274896607874,0.5808789253443019,0.23560348212903334,-0.6018441897829758
-293.86208748817444,-6008.0,-832.0,-15440.0,-597.0,4744.0,-3434.0,-0.6602275675164161,0.6986343214039556,0.2100907726626394,-0.1785259401034087
-293.87778520584106,-7556.0,-1096.0,-14852.0,-1218.0,3915.0,-6284.0,-0.6320077548243271,0.5980411076163745,0.3234294866441692,0.3718956824325638
-293.8935260772705,-3448.0,-436.0,-15452.0,-1370.0,3933.0,-4801.0,-0.45084974580315046,0.3591438367861339,0.27346267990534984,0.7700443973607972
-293.9092571735382,-3636.0,-932.0,-15348.0,-1140.0,3549.0,-3152.0,-0.26490638354357504,0.0832585065553591,0.1436765260051541,0.9498682460842273
-293.924950838089,-3300.0,-604.0,-15772.0,-996.0,3213.0,-2027.0,-0.12286612163247769,-0.1755040046263228,0.0017638751301029588,0.9767799902023189
-293.94073581695557,-3444.0,-480.0,-16488.0,-625.0,2866.0,-325.0,-0.10183313510307875,-0.40036590855476184,-0.08448203737625896,0.9067524123061126
-293.95647263526917,-4192.0,240.0,-16108.0,-421.0,2578.0,-195.0,-0.08002843371977773,-0.5843482875906922,-0.14384247556854668,0.7946331674480349
-293.97214818000793,-4820.0,220.0,-15504.0,-679.0,1970.0,-1574.0,0.018743424069556047,-0.6792522591207224,-0.27784928730267794,0.6790175447504562
