programtime,ax,ay,az,gx,gy,gz,q0,q1,q2,q3
-10798.912318944931,1204.0,-380.0,16640.0,332.0,-248.0,-299.0,0.999003199342485,0.028844361502677364,-0.02193489426784302,-0.026066663124393007
-10798.928076505661,1188.0,-176.0,16760.0,339.0,-72.0,-313.0,0.996488187098795,0.05847795473599895,-0.02828924937658969,-0.052833134983267256
-10798.94371509552,1204.0,-32.0,16712.0,405.0,27.0,-314.0,0.9920763055133387,0.09417959829482839,-0.026220666685312446,-0.07891314176109751
-10798.959306240082,1216.0,-224.0,16928.0,402.0,103.0,-437.0,0.9846801363496653,0.13019410963135264,-0.01648569423140435,-0.11481613467371454
-10798.97490477562,1300.0,-24.0,17080.0,417.0,279.0,-605.0,0.9720522151235195,0.16898801766487792,0.010112896221316026,-0.16265076172330373
-10798.990503787994,1484.0,-124.0,17016.0,412.0,549.0,-718.0,0.9517988976095209,0.2100206325724511,0.06111331054670857,-0.21502408162154715
-10799.006130933762,1420.0,-232.0,16820.0,377.0,792.0,-771.0,0.9215056482242309,0.2505288358364579,0.1331553177005205,-0.26520238323465856
-10799.021730422974,1184.0,-508.0,16792.0,473.0,1044.0,-995.0,0.8685119995263754,0.29834233633074075,0.2258269377499918,-0.32508606740042484
-10799.037365674973,1060.0,-200.0,16848.0,611.0,1425.0,-1105.0,0.7825434280303885,0.35822936918115295,0.3404838846472673,-0.3786399696255375
-10799.052953243256,948.0,-200.0,16868.0,834.0,1849.0,-1159.0,0.6499513807793422,0.4328362374930138,0.4657614118768844,-0.4162719079428361
-10799.06855750084,924.0,-92.0,16876.0,942.0,2086.0,-1053.0,0.4799235355417824,0.5070777294805024,0.5758283681066803,-0.42540247622877286
-10799.084119796753,1084.0,108.0,16800.0,917.0,2302.0,-827.0,0.28565559729938006,0.5746202201039204,0.6578906250226225,-0.3941984371945171
-10799.099731683731,1848.0,-136.0,17140.0,707.0,1857.0,-337.0,0.12999144642249283,0.6271458993418676,0.6862124787547745,-0.34482267732400734
-10799.115313768387,2192.0,-616.0,16788.0,338.0,1582.0,102.0,0.019607087606924742,0.6779460200252515,0.6816069975972712,-0.2746209330585152
-10799.130917072296,1972.0,-860.0,16824.0,-48.0,1420.0,420.0,-0.05155240287945023,0.7308014485198671,0.6548735526132834,-0.18550531713747745
-10799.146490335464,1616.0,-1164.0,17136.0,-247.0,1554.0,505.0,-0.11527982570340102,0.77789058384165,0.6133128833918744,-0.07378420170900828
-10799.162051200867,1428.0,-1224.0,17132.0,-307.0,1781.0,450.0,-0.18449278671431205,0.805957492569322,0.5594616478331988,0.058288904823476276
-10799.177629470825,1120.0,-260.0,16840.0,-182.0,1982.0,247.0,-0.2657331775377671,0.7987075365188434,0.5016009380411038,0.19962126244457742
-10799.193232536316,972.0,440.0,16912.0,-56.0,2208.0,-18.0,-0.3517575717926819,0.746957712268308,0.4424960455754559,0.3500257653652027
-10799.208860874176,996.0,736.0,16588.0,68.0,2362.0,-263.0,-0.4302697070761041,0.6486618873269614,0.38104554956276093,0.4989088336164049
-10799.224479913712,624.0,584.0,16324.0,90.0,2386.0,-464.0,-0.48378690768716015,0.5143754658037228,0.3145589641815347,0.6343664289531236
-10799.240097999573,720.0,144.0,15744.0,44.0,2169.0,-481.0,-0.5092410214402879,0.37212850287038834,0.24239455340999477,0.7371830436947563
-10799.255718946457,652.0,-232.0,15332.0,-20.0,1755.0,-497.0,-0.5073948961201755,0.24628854496236663,0.17688859266286616,0.8065995275211034
-10799.271313428879,792.0,-448.0,15388.0,20.0,1370.0,-502.0,-0.48971241587594777,0.13986157058850068,0.1272159341685199,0.851138412306184
-10799.286889076233,1100.0,-472.0,15560.0,28.0,915.0,-272.0,-0.4783745336954376,0.06724673847593979,0.09295061550903692,0.8706295795299587
-10799.302479982376,1480.0,-508.0,15976.0,96.0,729.0,-561.0,-0.44081673973523133,0.0032161396029992658,0.0725527365478329,0.8946543236550507
-10799.318053722382,1820.0,-116.0,16240.0,224.0,639.0,-663.0,-0.39185137075497517,-0.059062766490817147,0.06518682742424005,0.9158137203505199
-10799.333664655685,1992.0,-324.0,16352.0,306.0,596.0,-523.0,-0.35092841105690015,-0.11951185791035068,0.06625974259971969,0.9263777915313569
-10799.349255561829,2148.0,-584.0,16540.0,286.0,602.0,-386.0,-0.319526997409695,-0.17847411742498803,0.06667450829575233,0.9282262640537791
-10799.364872932434,2024.0,-716.0,16436.0,353.0,632.0,-124.0,-0.3070603359469891,-0.23946208859825863,0.07548287369224917,0.9179728721435302
-10799.380477190018,1628.0,-996.0,16352.0,352.0,488.0,-20.0,-0.3009298464510829,-0.287463270798405,0.08998530732103986,0.9048252538049261
-10799.396084547043,1604.0,-420.0,16212.0,266.0,364.0,156.0,-0.3092010389113816,-0.32143955322395373,0.10519119272212085,0.8888228980696913
-10799.411688566208,1548.0,-328.0,16412.0,213.0,261.0,205.0,-0.32137188657363286,-0.3451096398068352,0.12028899391636699,0.8735845723083079
-10799.427302122116,1424.0,-488.0,16596.0,205.0,216.0,498.0,-0.35502076760365886,-0.36141055971977987,0.14460873810617694,0.8499593959457613
-10799.44289302826,1328.0,-164.0,16264.0,163.0,92.0,240.0,-0.3687600396891867,-0.3699088502222809,0.16129368741169686,0.8373576428604431
-10799.458469629288,1212.0,-84.0,15948.0,145.0,-114.0,176.0,-0.3752903497848027,-0.36346389162488435,0.1811228507422559,0.8332140576000222
-10799.474044322968,1116.0,-152.0,16148.0,170.0,-265.0,34.0,-0.3680857566498219,-0.348882036670969,0.20308051557125886,0.8375873115294646
-10799.489630937576,1120.0,-216.0,16288.0,145.0,-248.0,-69.0,-0.35415708175003674,-0.3363191150618112,0.21937375063052422,0.8445930214160158
-10799.505208015442,1208.0,-196.0,16432.0,172.0,-203.0,-130.0,-0.3355698810028249,-0.32885258443785753,0.23432455249816725,0.8510821562979836
-10799.52080821991,1240.0,-208.0,16432.0,210.0,-286.0,-141.0,-0.3130872863706003,-0.3162731855947972,0.25399656948068566,0.8587394051042818
-10799.536424398422,1216.0,-100.0,16384.0,215.0,-329.0,-171.0,-0.28688125415262583,-0.30088314896106,0.27406388359330913,0.86721246785136
-10799.55207657814,1056.0,-36.0,16560.0,128.0,-348.0,-168.0,-0.2623501509761038,-0.2814109628015072,0.28773382917819446,0.8770344986626227
-10799.567671775818,1052.0,-24.0,16428.0,30.0,-394.0,-501.0,-0.21306977900070787,-0.2639391998327651,0.28615249225488687,0.8961328691910292
-10799.583289384842,1132.0,-200.0,16388.0,-48.0,-564.0,-219.0,-0.18273057224248296,-0.22391643819649695,0.28727857486038605,0.9132042417222529
-10799.598870515823,1064.0,-32.0,16532.0,253.0,-613.0,-278.0,-0.14000625976569694,-0.18553235252026526,0.3109979151698261,0.9215510241732346
-10799.614451885223,1084.0,-160.0,16604.0,32.0,-490.0,-276.0,-0.1038821047560366,-0.15367448511025436,0.31451159751802404,0.9309538742409392
-10799.630078792572,1112.0,-220.0,16852.0,82.0,-480.0,-512.0,-0.04792851993870877,-0.12909737343830632,0.31784253088936276,0.9380900013888112
-10799.645656108856,1032.0,-220.0,16912.0,98.0,-500.0,-285.0,-0.00961670991173715,-0.09623676688715559,0.3241023935815563,0.9410651635589785
-10799.66124844551,1060.0,-136.0,16780.0,62.0,-134.0,-283.0,0.017924264732568244,-0.09315879471109306,0.32656944861240156,0.940400209982306
-10799.676851034164,896.0,-100.0,16412.0,61.0,-148.0,-350.0,0.051333149228111725,-0.09075325930582448,0.3280781437359864,0.9388788448561634
-10799.692436695099,900.0,-52.0,16228.0,82.0,-216.0,-451.0,0.0950317590280256,-0.08543046743476103,0.3296992555610567,0.9353977768267372
-10799.70800614357,880.0,-164.0,16124.0,123.0,-362.0,-385.0,0.13764786091243267,-0.06578009919337079,0.3332565632225758,0.9304117948550626
-10799.723579645157,1044.0,-272.0,16332.0,160.0,-405.0,-309.0,0.17525646618064578,-0.03984421420908504,0.33900043834594795,0.9234588850929898
-10799.73921918869,1048.0,-272.0,16464.0,142.0,-447.0,-222.0,0.206667962832947,-0.008153209566568663,0.3422395240588687,0.9165664113877413
-10799.754804611206,1208.0,-196.0,16604.0,157.0,-396.0,-186.0,0.2333083471577292,0.020817295008827414,0.3469902500235458,0.9081473568555058
-10799.770430803299,1148.0,-60.0,16672.0,107.0,-383.0,-227.0,0.2625115425856645,0.04645319972269296,0.34755898040789035,0.8989619265478634
-10799.786019802094,1152.0,-20.0,16632.0,89.0,-290.0,-263.0,0.2914225495282035,0.06322246449468309,0.34850284112802915,0.8886065424783861
-10799.801596403122,1008.0,-48.0,16428.0,104.0,-499.0,-372.0,0.33439456661523465,0.09309194576310839,0.34516104911605444,0.8719965674389737
-10799.817193031311,788.0,-132.0,16372.0,192.0,-381.0,-466.0,0.37923325133295394,0.11343596275111906,0.3516672919814854,0.8483186542736002
-10799.83278465271,1064.0,-104.0,16272.0,234.0,-440.0,-445.0,0.42268658966691525,0.13981276160824888,0.35799426425193376,0.8207487711656622
-10799.848376512527,1168.0,-200.0,16324.0,219.0,-510.0,-445.0,0.4669679093886246,0.17013244554223167,0.35938158432510586,0.789835931964996
-10799.863954782486,1268.0,-136.0,16300.0,248.0,-575.0,-417.0,0.5090176221274333,0.2062815573916637,0.3582486706683328,0.7549879928900696
-10799.87953543663,1204.0,-76.0,16228.0,214.0,-568.0,-379.0,0.5468861143326361,0.24080891137100094,0.35304949524781726,0.7199185370996679
-10799.895088672638,1288.0,-36.0,16340.0,179.0,-627.0,-378.0,0.5849892726523521,0.27640469445008,0.3413850066716812,0.6817948907020395
-10799.910673856735,1276.0,-72.0,16352.0,239.0,-565.0,-441.0,0.6210170913189332,0.30830633316535183,0.3364915875872974,0.6372271092027451
-10799.926373004913,1580.0,-128.0,15816.0,450.0,-691.0,-425.0,0.650781063987283,0.35736505811720054,0.3342435286227199,0.5805647987660834
-10799.942046880722,1052.0,-296.0,15060.0,930.0,-866.0,-502.0,0.6678290726147847,0.4362210544963737,0.34525614762870116,0.49448327970633815
-10799.957662343979,-716.0,-220.0,16236.0,1066.0,-825.0,-1073.0,0.6907510752410805,0.49593383778055167,0.3796739762279816,0.36436280322335135
-10799.973343133926,2576.0,1056.0,18008.0,406.0,-504.0,-575.0,0.7062462068988099,0.5158238662437904,0.3858915052604455,0.29364907699868475
-10799.988950252533,2336.0,1224.0,18196.0,-312.0,-750.0,-767.0,0.7616954537402502,0.4875694730281882,0.36436975499284385,0.22210521463690233
-10800.004570960999,2584.0,1012.0,18208.0,-516.0,-382.0,-353.0,0.8011062517414657,0.4484193853189903,0.34318360474900916,0.19842842972304736
-10800.020157575607,1768.0,764.0,17220.0,-1071.0,25.0,-609.0,0.8480256955097891,0.3526944832060976,0.34809329757509755,0.18785653423401755
-10800.03584933281,1084.0,224.0,16164.0,-1078.0,282.0,-837.0,0.8799742577598645,0.24093893892343235,0.3741541564006475,0.16613970217424165
-10800.051450014114,812.0,444.0,15488.0,-1067.0,157.0,-1071.0,0.9049795453500706,0.12056981146485088,0.3896619359583898,0.12098974636914363
-10800.067073822021,824.0,328.0,15448.0,-904.0,246.0,-1178.0,0.9108368525235285,0.006387774434134464,0.40821869815018896,0.060769391171671135
-10800.082647800446,1168.0,424.0,15764.0,-781.0,-194.0,-1143.0,0.9175382147380235,-0.09469376130045201,0.3862009495129695,-0.002354285754685436
-10800.098219633102,1316.0,388.0,16212.0,-536.0,-279.0,-915.0,0.9182245021570228,-0.16770062439272634,0.35456218022207364,-0.055008404566458925
-10800.113800048828,1496.0,180.0,16376.0,-409.0,-255.0,-463.0,0.916444387319919,-0.21557866850314295,0.3285406877978815,-0.0756077978618957
-10800.129412174225,1424.0,64.0,16488.0,-396.0,-271.0,-48.0,0.9157337168931924,-0.2500859104545414,0.3081006462955515,-0.0629506861707241
-10800.144994735718,1596.0,-44.0,16632.0,-359.0,-234.0,362.0,0.915181475189499,-0.26988072446337663,0.29872539838445156,-0.01924573701228897
-10800.160570383072,1720.0,44.0,16856.0,-295.0,-184.0,621.0,0.9124145757281389,-0.27689340703715176,0.29839701512025424,0.042295443082221565
-10800.176168441772,1728.0,224.0,16904.0,-148.0,-89.0,768.0,0.9062842052208313,-0.26757781704176026,0.3084236540759761,0.10920577274501203
-10800.191840648651,1664.0,308.0,17092.0,-22.0,65.0,512.0,0.898328251003924,-0.25575732826917236,0.3248094465116,0.14863837304570302
-10800.207446575165,1304.0,548.0,16792.0,84.0,146.0,792.0,0.8836851049615653,-0.2279081133028879,0.3539709361840337,0.20460474944825677
-10800.223070144653,1484.0,440.0,16368.0,165.0,200.0,841.0,0.8633259000880386,-0.19208694133177645,0.3877500456352857,0.25965534717547134
-10800.238690853119,1372.0,324.0,16164.0,228.0,168.0,984.0,0.8359282414289019,-0.14473716179112955,0.4202120701170457,0.3220201007797166
-10800.25427889824,1268.0,220.0,16140.0,290.0,62.0,1194.0,0.7992577515609461,-0.08098800509919632,0.44521740385782677,0.3954863498300416
-10800.269870996475,1340.0,352.0,16288.0,377.0,-84.0,1385.0,0.7515696276844083,0.002067326198514466,0.45836675870978616,0.47438247798015637
-10800.28550028801,1048.0,184.0,16248.0,415.0,-178.0,1456.0,0.692310503848579,0.09409718251593555,0.45935938298764045,0.5484896022393715
-10800.301090717316,924.0,204.0,16256.0,544.0,-316.0,1502.0,0.6224263635518354,0.20028399112651937,0.4492594341970978,0.6088002181660042
-10800.316716432571,724.0,444.0,16216.0,857.0,-394.0,1406.0,0.5423657557294068,0.31938623603457666,0.4438203259726407,0.63785212823763
-10800.332335948944,488.0,276.0,15980.0,1322.0,-138.0,1288.0,0.4335985622215298,0.43384524410808667,0.46877631780335854,0.6356251685316916
-10800.347945928574,236.0,-96.0,15252.0,1841.0,-69.0,945.0,0.30932528530597403,0.5372462012581158,0.5239509984408626,0.5840888103164836
-10800.363530635834,148.0,-188.0,14960.0,2055.0,-121.0,676.0,0.1808603999337154,0.618803794588886,0.5833670756336251,0.4940184557330674
-10800.379101991653,332.0,-320.0,15216.0,2656.0,-247.0,600.0,0.02345975429153679,0.6827445361104928,0.6434988528997841,0.3452807041473801
-10800.394696950912,900.0,-252.0,16904.0,2634.0,335.0,592.0,-0.1655851738839518,0.6920412432691565,0.6696593046637624,0.21264261915605642
-10800.410270690918,1132.0,112.0,18068.0,2064.0,739.0,400.0,-0.33465598196761537,0.6594973937973788,0.6607284216637905,0.1284776794366731
-10800.425858020782,1756.0,408.0,18684.0,1461.0,1068.0,304.0,-0.47773859246503175,0.6145133467287016,0.6204801450458481,0.09562203493810428
-10800.44150185585,1904.0,356.0,17432.0,1068.0,1277.0,232.0,-0.5997835787535658,0.5657799559874154,0.5576856574261128,0.0956002487530633
-10800.457131147385,2028.0,-76.0,16816.0,906.0,1579.0,328.0,-0.7149581053001909,0.5144048655386698,0.4603542351157969,0.11088967574420149
-10800.472721099854,2272.0,-588.0,16508.0,983.0,1956.0,399.0,-0.8262049058752272,0.44179529252341865,0.32374704627698514,0.13187199489953025
-10800.488319635391,2196.0,-1060.0,16440.0,982.0,1781.0,645.0,-0.9063248645119952,0.3623144177412683,0.17856352639283415,0.12417153339745328
-10800.503914356232,1940.0,-1504.0,16496.0,800.0,1606.0,690.0,-0.950909969403436,0.2881257833600424,0.03774924821699919,0.1064366351937613
-10800.519488334656,1892.0,-1192.0,16976.0,378.0,1190.0,919.0,-0.9641571344493848,0.24620833767360908,-0.07987121978212279,0.058335776337210946
-10800.535131692886,2276.0,-340.0,16928.0,101.0,934.0,1080.0,-0.9579516347830912,0.22345254732422115,-0.1796154183122126,-0.011658731288109157
-10800.550706386566,2132.0,-140.0,16600.0,-51.0,778.0,1278.0,-0.9356034327241494,0.20654119323137737,-0.2670694898147335,-0.10325134276824267
-10800.566287279129,2016.0,-96.0,15924.0,-85.0,663.0,1017.0,-0.9044668085969023,0.1945260055583593,-0.33667828835201974,-0.1753486682595494
-10800.581874608994,1776.0,-200.0,15840.0,-80.0,372.0,644.0,-0.8805492254061513,0.18711055599238913,-0.37475583858582506,-0.22176736215836795
-10800.597491502762,1888.0,-496.0,15500.0,-6.0,195.0,441.0,-0.8648729849952439,0.17668148840585318,-0.3962796604858924,-0.2524694083751426
-10800.613098144531,2220.0,-588.0,15464.0,-7.0,-105.0,446.0,-0.8579799987482687,0.15926822720162173,-0.3945629485309237,-0.2877916489381807
-10800.6287150383,2476.0,-640.0,15588.0,-57.0,-487.0,587.0,-0.8573945907128626,0.13072638501643544,-0.3638041265619977,-0.33975238862047685
-10800.644347429276,2580.0,-1020.0,15224.0,-187.0,-890.0,817.0,-0.8545188994304989,0.09179964245302312,-0.29905029370671576,-0.4146555172616338
-10800.65996670723,3204.0,-1244.0,15268.0,-230.0,-1259.0,1168.0,-0.8338387297325972,0.032470512444778644,-0.2036094961133624,-0.5120564536376481
-10800.675549507141,3836.0,-1360.0,15688.0,-248.0,-1387.0,1456.0,-0.7806259080693033,-0.03682200579119319,-0.09395958340162013,-0.6167973153536606
-10800.69113779068,3948.0,-1368.0,15944.0,-319.0,-1546.0,1696.0,-0.6890740351098463,-0.10999635060917846,0.033626230143158416,-0.7155047544471359
-10800.706738471985,4000.0,-1232.0,15988.0,-304.0,-1636.0,1915.0,-0.5541617405871436,-0.18362860026024846,0.1656350125533883,-0.7948272422686127
-10800.722333908081,3852.0,-1304.0,15860.0,-306.0,-1545.0,2236.0,-0.37122700296625594,-0.23679095799486805,0.2891631677430052,-0.8500030687599867
-10800.737983465195,3596.0,-1236.0,14960.0,-14.0,-1975.0,2551.0,-0.12749772008687038,-0.306434476077727,0.39151120469161005,-0.8582314488787645
-10800.75356888771,3392.0,-1056.0,14600.0,-35.0,-2004.0,2834.0,0.14578221716779044,-0.34380059222620574,0.4709430178362928,-0.7992254825102855
-10800.769165992737,3104.0,-1228.0,14584.0,80.0,-2145.0,3124.0,0.43131853006810394,-0.3455193439701853,0.5047739629340482,-0.6631620879590141
-10800.784745693207,3416.0,-1388.0,14596.0,27.0,-2232.0,3261.0,0.6799753063784444,-0.3119360230644938,0.48911401352628986,-0.44843838150012616
-10800.80031824112,3832.0,-1224.0,15204.0,-60.0,-2369.0,3376.0,0.8578005351397594,-0.24843377914917034,0.4164546297195329,-0.17036560884395166
-10800.815918207169,3820.0,-1104.0,15732.0,-159.0,-2349.0,3536.0,0.9304923840711823,-0.15627289754107834,0.29949964472939444,0.141642745972427
-10800.831504821777,3852.0,-1220.0,15824.0,-108.0,-2253.0,3649.0,0.8829908252083692,-0.03907729161107892,0.15425173331269343,0.44159548304779495
-10800.847102165222,3676.0,-1504.0,15808.0,-253.0,-2081.0,3649.0,0.7223393248344787,0.06646060986532791,-0.0034995022270299454,0.6883288753337037
-10800.86268901825,3676.0,-1712.0,15312.0,39.0,-2189.0,3695.0,0.46768686975116136,0.1865355510280447,-0.15065549663501435,0.8507504930346389
-10800.878281354904,3820.0,-1796.0,15428.0,-44.0,-2473.0,3599.0,0.15761402557556284,0.2997516026261705,-0.2928190841356623,0.8941833031492257
-10800.893849611282,3900.0,-1956.0,15836.0,-205.0,-2706.0,4002.0,-0.2013258350421773,0.3737852830730725,-0.41514677602347405,0.8046152028515671
-10800.909433603287,4564.0,-1972.0,16440.0,-301.0,-2697.0,3909.0,-0.5206721692591015,0.39412383725245087,-0.4768006692575541,0.5884114333219348
-10800.92509675026,4936.0,-1856.0,17112.0,39.0,-2419.0,3654.0,-0.7569356669763321,0.3404095784439026,-0.45806415616246826,0.31835034757622854
-10800.940746307373,5088.0,-1688.0,17568.0,459.0,-1943.0,3343.0,-0.8911693927325983,0.21809996214093777,-0.3939765216774887,0.05506378426552792
-10800.956331729889,5328.0,-1728.0,17624.0,772.0,-1598.0,3068.0,-0.9320585057679064,0.057483491782921094,-0.30968155510010703,-0.1790528537301766
-10800.971969127655,5404.0,-1736.0,17116.0,745.0,-1525.0,2912.0,-0.8936965554462403,-0.10138662515722432,-0.20300725238466205,-0.38705978156091586
-10800.987571239471,5480.0,-1784.0,16452.0,765.0,-1732.0,2958.0,-0.7818111204012081,-0.2599706083312169,-0.06433682953502873,-0.5630696468344618
-10801.003168582916,5448.0,-2020.0,16316.0,41.0,-1991.0,2843.0,-0.6243318991743474,-0.3602116832713116,0.1284602776776076,-0.6811425548056682
-10801.01879119873,5656.0,-2308.0,15816.0,-104.0,-1915.0,2695.0,-0.4284367860425435,-0.42075080303519047,0.31106468009538485,-0.736647437318514
-10801.034417629242,5684.0,-2100.0,15676.0,-18.0,-2041.0,2474.0,-0.20670559306765568,-0.4660701181555424,0.4615865615052644,-0.7259402792205254
-10801.050010204315,5848.0,-2172.0,15140.0,115.0,-1243.0,2556.0,0.009688916467486597,-0.4307598382248661,0.5635090286392519,-0.7048472609808598
-10801.065605401993,6236.0,-2380.0,14848.0,165.0,-670.0,2079.0,0.17359499761025754,-0.36295865290931945,0.619635810304648,-0.6739267435493634
-10801.081190824509,6212.0,-3040.0,14176.0,-22.0,-211.0,1807.0,0.2870076210097944,-0.2745071929298989,0.6665238576617761,-0.6308869737755805
-10801.096774578094,-11032.0,-796.0,23544.0,-721.0,2412.0,-612.0,0.09341671027911001,-0.19046130225782154,0.7334114602697567,-0.6458370077100465
-10801.11237168312,-1260.0,6888.0,23752.0,-3277.0,2576.0,-232.0,-0.13065167408793718,-0.08154534155704041,0.8787312303509064,-0.4517874745213147
-10801.128045082092,2964.0,10660.0,18544.0,-3984.0,696.0,-1265.0,-0.24603700411192175,-0.09914152843658249,0.9556093021864108,-0.12824824178790764
-10801.143677949905,952.0,5372.0,21056.0,-2866.0,-958.0,-3689.0,-0.21443257610094266,-0.3287082249228635,0.9013521727568948,0.18312245586273232
-10801.159299612045,-2004.0,1572.0,24856.0,-3279.0,2639.0,-4864.0,-0.3822930480822027,-0.6035767734425842,0.5754330317524823,0.3980250367964366
-10801.174874305725,3692.0,-1104.0,20828.0,-1740.0,1869.0,-2207.0,-0.471208384606991,-0.69185148629223,0.322577564322535,0.44186863906261004
-10801.190464496613,-432.0,-5804.0,22004.0,-1051.0,1113.0,-92.0,-0.5575538448250574,-0.6879380382006051,0.2286217242712393,0.40448371154935797
-10801.206041574478,-1420.0,-4880.0,22712.0,-831.0,2189.0,1959.0,-0.6960890100446915,-0.662486218600294,0.20325064401622028,0.18777986038624195
-10801.221617221832,-2528.0,-1820.0,19944.0,-502.0,2755.0,2313.0,-0.7740326100322227,-0.606263356924433,0.15379145679497977,-0.09831809840665587
-10801.237223148346,-2896.0,1572.0,18444.0,483.0,2986.0,2623.0,-0.723256271794241,-0.5455719766685156,0.08179745711361672,-0.41540433266162474
-10801.252806663513,-2376.0,2832.0,17156.0,778.0,3397.0,1722.0,-0.6137451709830456,-0.43470787006516304,-0.074743320663213,-0.6547971967064593
-10801.268400907516,-2152.0,3700.0,16632.0,1662.0,3355.0,784.0,-0.4591494751435949,-0.3195403917547577,-0.3032830441492308,-0.771424067970499
-10801.284055948257,-2260.0,3860.0,16348.0,2380.0,3208.0,492.0,-0.2592668256206305,-0.19977975010695195,-0.5456062872019416,-0.7714807476181875
-10801.299651145935,-2376.0,3372.0,16604.0,2599.0,3348.0,-93.0,-0.057032657791967666,-0.026849160155371508,-0.7483127969853127,-0.6603441196922661
-10801.315282583237,-2208.0,3180.0,16284.0,2691.0,3472.0,-298.0,0.1483008934901527,0.16743641915697138,-0.8600163339013811,-0.45863252823228945
-10801.330865383148,-2156.0,3068.0,15868.0,2577.0,3785.0,-557.0,0.3455487553429975,0.3656271669762341,-0.8404397122888607,-0.20142969606702826
-10801.346477031708,-2272.0,2788.0,15232.0,2331.0,4012.0,-753.0,0.5109561057812229,0.5196765826565924,-0.6812210351297024,0.06926765984259935
-10801.362069606781,-2480.0,2148.0,14452.0,1934.0,4174.0,-866.0,0.6264532136963843,0.5851975036203655,-0.4110234534051272,0.31009671645615333
-10801.377657175064,-2832.0,1940.0,13744.0,1680.0,4034.0,-936.0,0.6621794969768099,0.5602487635488852,-0.09042318270472281,0.489349859257191
-10801.393253326416,-3008.0,1600.0,13804.0,1474.0,3714.0,-1016.0,0.623724794507611,0.4654367371867875,0.22295557955589126,0.5870492602314158
-10801.408865213394,-2892.0,1112.0,14216.0,1404.0,3586.0,-445.0,0.4923660429035437,0.33084986964861224,0.4813629097047706,0.645293570950121
-10801.42448091507,-2416.0,536.0,14548.0,1184.0,3425.0,-244.0,0.31274979089695387,0.17011126501112922,0.6693680526899348,0.6520706524973422
-10801.440088033676,-1912.0,624.0,14440.0,720.0,3098.0,377.0,0.09596243419909552,0.034107894092719644,0.7600892447374316,0.6417882850423687
-10801.45569562912,-1968.0,552.0,14384.0,379.0,3065.0,546.0,-0.13415509472328035,-0.09473216274886989,0.7767118839911423,0.6080681517458707
-10801.471301794052,-2756.0,600.0,14912.0,369.0,2586.0,626.0,-0.33070103734233625,-0.1887611188369144,0.7507534391536056,0.5397919390979938
-10801.486893415451,-2800.0,1016.0,15152.0,547.0,2326.0,876.0,-0.5031678804842531,-0.25063003428929004,0.706511663099253,0.429939460698668
-10801.502486228943,-2612.0,1140.0,15252.0,710.0,1874.0,1135.0,-0.633200014731997,-0.2766001266678527,0.6623384657015473,0.28958223032991304
-10801.518075942993,-2644.0,1552.0,15672.0,658.0,1579.0,1252.0,-0.727975973656821,-0.2757939799618457,0.6114442231106896,0.14186128583857435
-10801.533666849136,-3040.0,1984.0,16296.0,397.0,1487.0,1061.0,-0.8004260961085315,-0.25934773334778527,0.5401470483907417,0.01726221279534993
-10801.549289941788,-2956.0,2556.0,16696.0,269.0,1526.0,743.0,-0.857898413003897,-0.24265758645155464,0.4456175600292452,-0.08094812472493236
-10801.564866542816,-3128.0,2280.0,16660.0,251.0,1498.0,395.0,-0.8997414193821985,-0.23326899239883733,0.33670646346024163,-0.15059785156978472
-10801.5804874897,-3088.0,2216.0,16636.0,335.0,1186.0,5.0,-0.9224688114207494,-0.24235727901938672,0.23767759355181034,-0.18391194302091807
-10801.596081018448,-3300.0,2076.0,16524.0,336.0,841.0,-202.0,-0.933071213503551,-0.25912710151780366,0.15954979979595615,-0.19176839461982007
-10801.61169219017,-3096.0,1864.0,16276.0,225.0,553.0,-287.0,-0.9389943286907769,-0.27156677720661093,0.10387378294068686,-0.18371546865128982
-10801.627305746078,-2792.0,1580.0,16436.0,122.0,382.0,-102.0,-0.9406652552208772,-0.2759743012145302,0.0679722399492827,-0.18538294766690563
-10801.642893314362,-2656.0,1420.0,16540.0,17.0,377.0,80.0,-0.9407406738135358,-0.27040853585609614,0.038501497003860116,-0.20100707225736797
-10801.658488988876,-2448.0,1292.0,16520.0,-43.0,400.0,184.0,-0.9392449336311441,-0.2587972426963578,0.010623841160789514,-0.22523338078531016
-10801.674069404602,-2420.0,1404.0,16252.0,29.0,249.0,168.0,-0.9352676655960585,-0.25577112721056483,-0.0066686431624496285,-0.2445629844729333
-10801.689655780792,-2440.0,1600.0,15920.0,-8.0,-106.0,14.0,-0.9352445804227146,-0.2571087703833961,0.0023699808755414417,-0.24332496413752583
-10801.705292224884,-2324.0,1576.0,15468.0,26.0,-557.0,-214.0,-0.9378996259927248,-0.2704736215866175,0.04231982845117576,-0.2130665241383293
-10801.720873117447,-2276.0,1560.0,15420.0,-5.0,-948.0,-411.0,-0.938441623878359,-0.28780158887204815,0.10973675024515105,-0.15638225494251726
-10801.73651432991,-2544.0,1636.0,15572.0,18.0,-1196.0,-561.0,-0.9281432069016842,-0.3087271961732014,0.19192392437040087,-0.08001820467590998
-10801.75210404396,-2444.0,1576.0,15696.0,-13.0,-1187.0,-539.0,-0.9066322677998785,-0.32274935602107135,0.2717239902904996,-0.004105760908978575
-10801.767725467682,-2468.0,1740.0,16068.0,-71.0,-1356.0,-531.0,-0.8697625040632119,-0.32744499763760804,0.3610162668368483,0.07720242954067999
-10801.783306360245,-2772.0,1524.0,15684.0,-180.0,-1423.0,-551.0,-0.8191330469876154,-0.31861050749677217,0.4479175760861965,0.16394584739632986
-10801.798899650574,-2876.0,1088.0,15436.0,-238.0,-1589.0,-553.0,-0.7476434630824547,-0.29715994547753083,0.5367339776510672,0.25424762761671726
-10801.814497947693,-2940.0,1408.0,15212.0,-353.0,-1547.0,-513.0,-0.6660162863742389,-0.26103447113929396,0.6099978410294566,0.3408605948194929
-10801.830089092255,-2908.0,1484.0,15132.0,-507.0,-2078.0,-424.0,-0.5446155084074298,-0.18889360113956036,0.6934999541524003,0.4321700695805577
-10801.845661878586,-2820.0,1436.0,15240.0,-687.0,-2378.0,-293.0,-0.39183430256715407,-0.08232828337496408,0.7579773433898348,0.5149352192227018
-10801.861332416534,-2756.0,1604.0,15500.0,-831.0,-2534.0,-180.0,-0.21628517526737426,0.04682392232300205,0.78484447422476,0.5788327863353206
-10801.8769364357,-2680.0,1712.0,15672.0,-971.0,-2643.0,-132.0,-0.02387351044970663,0.184146366169745,0.7633772812666925,0.6186883688668788
-10801.892530441284,-2684.0,1672.0,15600.0,-1072.0,-2768.0,-145.0,0.17970817260641236,0.3157246089076452,0.6906448246769173,0.6253260510930029
-10801.90810418129,-2728.0,1568.0,15428.0,-1124.0,-3002.0,-171.0,0.38617383304953296,0.4348466182398252,0.5650667705115775,0.5852159722161002
-10801.923782110214,-2708.0,1580.0,15184.0,-1152.0,-3200.0,-116.0,0.5691578525348029,0.530753898599545,0.3860020242073896,0.495340363111218
-10801.939462423325,-2644.0,1512.0,14988.0,-1165.0,-3521.0,-18.0,0.706534772622252,0.594034313598091,0.15362420114273653,0.3526066564415984
-10801.955088853836,-2776.0,1248.0,15180.0,-1151.0,-3685.0,146.0,0.7687120468643536,0.6048165710513619,-0.11053231021621947,0.17624219921901305
-10801.970659255981,-2924.0,1212.0,15564.0,-1061.0,-3613.0,444.0,0.7434904478017861,0.5551780087858326,-0.37279528412197305,0.004796741030633336
-10801.986245632172,-3172.0,1436.0,16044.0,-945.0,-3485.0,645.0,0.6435419490545932,0.4516553961783753,-0.6005214393543071,-0.14572290069100932
-10802.001823663712,-3412.0,1588.0,16404.0,-806.0,-3322.0,893.0,0.4898638464236302,0.3031850921499204,-0.7759639636260681,-0.25688935170382676
-10802.017408370972,-3656.0,1872.0,16436.0,-644.0,-3322.0,1152.0,0.2938139703988622,0.11752481845511271,-0.8916239245452097,-0.32383335996179846
-10802.0330016613,-3688.0,1948.0,16316.0,-486.0,-3639.0,1555.0,0.056240753832067364,-0.11223325982277105,-0.9322933399612039,-0.33921939989030436
-10802.048661708832,-3720.0,1584.0,15580.0,-269.0,-4156.0,1917.0,-0.21155955621194245,-0.36451548924254973,-0.8596399135873989,-0.2887736678527314
-10802.064260482788,-3748.0,1524.0,15704.0,162.0,-4203.0,2245.0,-0.4295463396457972,-0.5926270859188986,-0.659777598393928,-0.17022514441090184
-10802.079897165298,-3500.0,776.0,16420.0,615.0,-4231.0,2133.0,-0.5628019869509076,-0.7396107124998029,-0.36907415776545777,0.0037661000202251814
-10802.095497131348,-2408.0,512.0,17608.0,943.0,-4258.0,1420.0,-0.5938287048392132,-0.7707417261615365,-0.06300827938789508,0.2221589916953504
-10802.11110663414,-1848.0,1156.0,19552.0,1194.0,-3999.0,13.0,-0.5034622793177667,-0.7094516357928586,0.15815006454500383,0.4671109791681278
-10802.12671136856,-968.0,2792.0,21152.0,1205.0,-3905.0,-1511.0,-0.29292320907415603,-0.583178863169415,0.26666764254691155,0.7092156058326688
-10802.142319440842,356.0,4292.0,22248.0,831.0,-3986.0,-2658.0,0.006128271461999979,-0.38605734762055643,0.2620520368640452,0.8844494890113703
-10802.157982110977,1840.0,4280.0,22716.0,303.0,-3868.0,-3547.0,0.3441082202660183,-0.15288924179716937,0.14884962331052504,0.9143621832339497
-10802.173575401306,3968.0,2092.0,22216.0,-164.0,-3162.0,-4468.0,0.667231121052931,0.033148081735162004,-0.017106099055864465,0.7439161358317339
-10802.189168453217,6864.0,-232.0,21092.0,-321.0,-2146.0,-4619.0,0.8813095282152914,0.14696074155959093,-0.13682104117391403,0.427757008837122
-10802.204756975174,7960.0,-2468.0,19164.0,-99.0,-1070.0,-4568.0,0.9627511143958298,0.21614310021568078,-0.15213279659448614,0.0569917902779207
-10802.2203373909,6980.0,-3332.0,18048.0,364.0,733.0,-4131.0,0.9257132998859564,0.27938114837541494,-0.010183826167341122,-0.25474958298549
-10802.235957860947,4096.0,-3560.0,17572.0,482.0,2195.0,-4063.0,0.765232994783615,0.3433652332789181,0.23677576206636006,-0.4903631498876201
-10802.251581907272,4020.0,-2484.0,16324.0,-168.0,1736.0,-4238.0,0.5135250297485308,0.29588998996854904,0.45201475540229447,-0.666651197071442
-10802.26722574234,5440.0,-1628.0,16316.0,-951.0,310.0,-3888.0,0.28279035236438255,0.11115314364506533,0.5865795187992369,-0.75073235136945
-10802.28282880783,6196.0,-1584.0,17960.0,-1982.0,-5.0,-3624.0,0.060952280531293056,-0.11639737978338437,0.7068364908153183,-0.6950673670440037
-10802.298453330994,6748.0,-2112.0,19184.0,-3027.0,-246.0,-3508.0,-0.15524783771811013,-0.33728557517268043,0.7910323337048434,-0.4862143526241848
-10802.314044713974,6888.0,-2616.0,18760.0,-3416.0,-45.0,-3526.0,-0.36988785374000127,-0.4930050020513574,0.7654342369180406,-0.18503911089727398
-10802.329639911652,7060.0,-2936.0,18124.0,-3218.0,137.0,-3415.0,-0.5299953270023611,-0.5691117153845417,0.61625864140928,0.12426622894460637
-10802.345277309418,7144.0,-3228.0,17216.0,-2645.0,188.0,-3322.0,-0.5958697129208822,-0.5882408088752221,0.3879625270814706,0.38522345927781837
-10802.360869884491,7036.0,-3040.0,16500.0,-2243.0,495.0,-3191.0,-0.586989150824161,-0.5638915495957667,0.11625912665080892,0.5691694585794344
-10802.376506328583,6476.0,-3084.0,16264.0,-1993.0,1045.0,-3128.0,-0.5121715080646743,-0.5168354679745627,-0.1803411037347852,0.661844794248615
-10802.392092943192,5776.0,-2980.0,15396.0,-2034.0,2108.0,-2889.0,-0.3801367628182964,-0.4725185568692364,-0.4916529079637856,0.6248997304040017
-10802.407712459564,5056.0,-2440.0,14488.0,-1426.0,2632.0,-2635.0,-0.1721589622267158,-0.43028107726912457,-0.722877645862589,0.5125108734273873
-10802.42327284813,4388.0,-1944.0,13424.0,-982.0,2961.0,-2471.0,0.08346556081616606,-0.3703233505179644,-0.8540359016988341,0.3556919943269052
-10802.438870668411,3664.0,-1556.0,12880.0,-579.0,3253.0,-2384.0,0.3592811202733641,-0.2805756857805786,-0.8718551497494218,0.17906132753692988
-10802.454496145248,3136.0,-1404.0,12492.0,-274.0,3356.0,-2332.0,0.6068805797360957,-0.15454446421201795,-0.7796181828593302,0.00273120407822178
-10802.470149040222,2768.0,-1316.0,12500.0,-12.0,3441.0,-2276.0,0.7917375345160296,-0.0010312190341705094,-0.5907886162484818,-0.15530429465081302
-10802.485778331757,2428.0,-1600.0,12876.0,340.0,3473.0,-2193.0,0.8856440278822181,0.17182459182256837,-0.3344206636686616,-0.2725321728401635
-10802.501375675201,2276.0,-2036.0,13376.0,605.0,3714.0,-2246.0,0.870150801329227,0.34774956931395723,-0.026017667592412783,-0.34818228122796896
-10802.5169672966,2496.0,-2320.0,14460.0,942.0,3988.0,-2374.0,0.7195474587981628,0.5042841441113101,0.29600998330000244,-0.37460251777285486
-10802.53256225586,2396.0,-2516.0,14964.0,1385.0,4167.0,-2492.0,0.4296591679499016,0.6067368468120355,0.5692767237459286,-0.3509806403753467
-10802.548170566559,2364.0,-2024.0,15220.0,1599.0,4058.0,-2668.0,0.05626906279459486,0.6012605933232595,0.743127793924925,-0.2882370090482037
-10802.563841819763,2276.0,-1752.0,15280.0,1569.0,3738.0,-2581.0,-0.3075527577126602,0.4938764237443014,0.7907085591467332,-0.19046614865895198
-10802.57943534851,2020.0,-1788.0,15604.0,1323.0,3374.0,-2260.0,-0.5950915301760109,0.335853539403836,0.7266637744149578,-0.07091001153361395
-10802.595018863678,2196.0,-2384.0,16080.0,1273.0,3044.0,-1379.0,-0.7962195026057605,0.1919243251338881,0.5736919233187433,0.008782608438154815
-10802.610644102097,1876.0,-3192.0,17400.0,1312.0,2812.0,-1194.0,-0.9202036823039322,0.03722589555893704,0.383279663998563,0.07025749027162569
-10802.626237630844,2304.0,-3684.0,18624.0,2620.0,1957.0,-1482.0,-0.9400932788261577,-0.2239948739472029,0.23544649439251045,0.1030333529957094
-10802.641829490662,2428.0,-3768.0,18508.0,3657.0,1238.0,-1494.0,-0.8283291575544739,-0.532038934102826,0.12925287975850897,0.11873951498114152
-10802.657422304153,1364.0,-2008.0,17640.0,3857.0,1023.0,-1271.0,-0.6083445934281382,-0.7849438116594982,0.03401173384157226,0.11235332725514523
-10802.673009872437,-376.0,164.0,16864.0,3063.0,195.0,-1243.0,-0.3717413035259371,-0.915671585275712,-0.030241136000841724,0.1497979467979457
-10802.688612222672,-232.0,1796.0,16540.0,902.0,-382.0,-1131.0,-0.2835215730685256,-0.9290435364664492,-0.09563999436819214,0.2175927766078515
-10802.704196214676,-1140.0,1832.0,16536.0,-879.0,-314.0,-1821.0,-0.3178627264343686,-0.8722835379640274,-0.24831347397356196,0.276450963434476
-10802.719863891602,-688.0,1116.0,15884.0,-1619.0,311.0,-2670.0,-0.35687540801638734,-0.749348944678892,-0.4815689339514063,0.28143820656526725
-10802.735457897186,-160.0,208.0,14820.0,-1476.0,678.0,-3629.0,-0.3172605295606385,-0.5360666671127325,-0.733402992165036,0.27221009510472255
-10802.751119852066,76.0,-488.0,13920.0,-351.0,503.0,-4352.0,-0.18497147158141586,-0.2424256346566497,-0.8956513639882404,0.32376534797339035
-10802.766705751419,-100.0,396.0,15040.0,923.0,466.0,-5009.0,0.011445249071535955,0.11061302245893895,-0.8976600859450061,0.4264271750690764
-10802.78229045868,1908.0,1956.0,18532.0,606.0,-51.0,-4781.0,0.16552697895081406,0.44958935442391207,-0.7640838760998364,0.43202553386617837
-10802.797913312912,3928.0,1948.0,19116.0,-1392.0,-699.0,-4201.0,0.3092063747590627,0.6854694470343927,-0.6163054130675936,0.23386041309786637
-10802.813534021378,3588.0,-156.0,16364.0,-1871.0,-1113.0,-3262.0,0.40486921229889966,0.7882519601960901,-0.4629578791987877,-0.020242783090537463
-10802.8291451931,2680.0,-2096.0,15072.0,-1208.0,-1913.0,-2553.0,0.3893377270195277,0.81017145728001,-0.33808550015125954,-0.2788127305478094
-10802.844758987427,2268.0,-3980.0,14820.0,-457.0,-1941.0,-1615.0,0.31725382164413324,0.7758031703243966,-0.2719642127308318,-0.4727736462203734
-10802.860344409943,1820.0,-4264.0,15008.0,760.0,-1788.0,-1258.0,0.16805511898936198,0.7379646910122197,-0.26232904691446485,-0.5986226381834044
-10802.87593626976,1760.0,-2104.0,16028.0,957.0,-789.0,-719.0,0.05039209369686936,0.7215457856790511,-0.2754201494968735,-0.6332267029372395
-10802.891508102417,1800.0,224.0,16848.0,566.0,-512.0,-25.0,0.0010608502988656426,0.6947192607268506,-0.3066801235830556,-0.6506237969601663
-10802.907091379166,2084.0,1896.0,17224.0,139.0,-556.0,359.0,-0.0018461097424918162,0.6523247341627451,-0.3357895046568637,-0.6794957259914303
-10802.922797203064,1748.0,1796.0,17180.0,20.0,-664.0,302.0,-0.004512156241658695,0.6027703996056087,-0.35331635023937763,-0.7154124981148087
-10802.938438177109,1348.0,1336.0,17080.0,280.0,-538.0,52.0,-0.032533936235416554,0.5665593336739629,-0.3727552089214647,-0.7341700202554313
-10802.954092741013,884.0,716.0,16352.0,638.0,-675.0,208.0,-0.07246805889936811,0.5128520003965984,-0.4205055496121329,-0.7449203238427339
-10802.969691991806,904.0,-52.0,15960.0,802.0,-884.0,444.0,-0.11127049193436203,0.4312457442848985,-0.4838849067888846,-0.7533268763576416
-10802.985360622406,1108.0,-812.0,15928.0,847.0,-1157.0,765.0,-0.1403289863366012,0.3114201130544186,-0.5515255871010841,-0.7610156473763989
-10803.000979185104,1548.0,-600.0,15948.0,669.0,-1624.0,1062.0,-0.16355952608661503,0.14188473351966124,-0.5953491897937082,-0.773741782529774
-10803.016571760178,1896.0,-284.0,16084.0,372.0,-1740.0,1188.0,-0.17533261253611038,-0.04200467205786762,-0.5998379009667931,-0.779543824983769
-10803.032141685486,1988.0,472.0,15960.0,203.0,-1603.0,1154.0,-0.17736044951664623,-0.21146944805256598,-0.5761477695170829,-0.7693358766937148
-10803.047790050507,2180.0,1184.0,15856.0,130.0,-1715.0,958.0,-0.1940432150919991,-0.3713597192086059,-0.5326937687672998,-0.735307104781775
-10803.063417673111,2376.0,1372.0,15804.0,87.0,-1728.0,712.0,-0.22293807297384638,-0.5100378743282663,-0.47946350314889224,-0.6784355028428303
-10803.078999996185,2796.0,1132.0,15996.0,-108.0,-1633.0,752.0,-0.2485289991228384,-0.6283331897152692,-0.4027765764402862,-0.6174153940162798
-10803.094629526138,2704.0,1016.0,16660.0,-261.0,-1579.0,420.0,-0.29272012950139986,-0.7150498752321114,-0.32795796547204403,-0.5435643242511994
-10803.110248327255,2580.0,604.0,16840.0,-925.0,-1281.0,188.0,-0.3746522595759058,-0.7503070953872885,-0.2372818031647481,-0.49027777115941595
-10803.125838518143,2784.0,76.0,16408.0,-1098.0,-1721.0,24.0,-0.4737730349126037,-0.7762491000347054,-0.13034612212206118,-0.394951053337944
-10803.141449213028,2452.0,-252.0,16520.0,-917.0,-1896.0,-57.0,-0.5502868004025907,-0.7897266835585739,-0.023758980469969337,-0.27009574862497
-10803.15706562996,2304.0,-656.0,16720.0,-516.0,-1906.0,-103.0,-0.5836908206413978,-0.7977982207349952,0.07181496957143281,-0.13291213276635694
-10803.172727108002,1956.0,-808.0,16628.0,-63.0,-1743.0,-83.0,-0.5716022629593374,-0.8059581430403784,0.15380294017129226,-0.006854213400180657
-10803.18832397461,1788.0,-324.0,16340.0,464.0,-1664.0,-242.0,-0.5109646441220999,-0.8238039232473476,0.2170242069873195,0.11472890691093883
-10803.20394206047,2092.0,400.0,16676.0,605.0,-1658.0,-243.0,-0.4285486412303251,-0.8287788800916823,0.2762369872765547,0.23057484007148685
-10803.219536066055,2228.0,948.0,16700.0,360.0,-1652.0,-310.0,-0.35255715369885304,-0.8073889686271951,0.31927529521040643,0.34912718682907684
-10803.235126018524,2372.0,1048.0,16432.0,-46.0,-1738.0,-328.0,-0.2939426399473166,-0.7531684617847658,0.34415400570788196,0.47738141244584625
-10803.250780820847,2268.0,424.0,16264.0,-244.0,-1581.0,-281.0,-0.24834609129348933,-0.6825777282412683,0.3525334879574846,0.5900271211705147
-10803.266379117966,2116.0,-364.0,16140.0,-503.0,-1411.0,-180.0,-0.2237326144035311,-0.5992838653271704,0.3434901160376337,0.6876169763721222
-10803.281996488571,1808.0,-1036.0,16104.0,-115.0,-1304.0,-91.0,-0.18401670294757005,-0.5180084065138354,0.3549202598201276,0.7561988845446124
-10803.29757142067,1736.0,-1012.0,16096.0,14.0,-1229.0,159.0,-0.1549259915645513,-0.4295595334692659,0.38048129099670097,0.8041831455240098
-10803.313140630722,1628.0,-548.0,16272.0,85.0,-1223.0,289.0,-0.13064518915172757,-0.333126970238646,0.4112459109510371,0.8383525851198772
-10803.328723430634,1672.0,-100.0,16628.0,31.0,-1208.0,412.0,-0.11583746244257159,-0.2287508040640467,0.43643937874477967,0.8624241535438284
-10803.344319581985,1784.0,224.0,16648.0,-113.0,-1142.0,364.0,-0.10145704649233252,-0.12696401152309236,0.44414082865294563,0.8810933729284833
-10803.35993552208,1884.0,268.0,16488.0,-109.0,-1157.0,415.0,-0.08923726610521265,-0.020724721526539525,0.4478232797265374,0.8894163852722089
-10803.375514268875,1980.0,-284.0,16512.0,-78.0,-1107.0,440.0,-0.07985894335940193,0.08261598398501213,0.44855140238717023,0.8863401084077213
-10803.391103982925,2144.0,-584.0,16300.0,-46.0,-1150.0,511.0,-0.07361913914025298,0.1907626844315391,0.4464297456547811,0.8711431012040034
-10803.406697034836,2436.0,-616.0,16624.0,-77.0,-1202.0,626.0,-0.0726189961156363,0.30487632771959794,0.4346470546489829,0.8443096849405044
-10803.422283887863,2436.0,-320.0,16916.0,-141.0,-1008.0,732.0,-0.08409434760368752,0.4053326594141575,0.40857024947833925,0.8134518591499832
-10803.437877178192,2380.0,-24.0,16880.0,-192.0,-774.0,733.0,-0.10131612053189003,0.48557876019552115,0.37289897350070533,0.7841521962791841
-10803.453529834747,2268.0,80.0,16840.0,-190.0,-602.0,597.0,-0.11422602585793472,0.5462228974679093,0.3388453188939681,0.7574805681745963
-10803.469145298004,2116.0,84.0,16776.0,-164.0,-494.0,391.0,-0.11748132878398446,0.5910262500173823,0.3137037701346121,0.7338092761616404
-10803.484729290009,2052.0,252.0,16384.0,-28.0,-459.0,81.0,-0.10858722807590047,0.6223118986468785,0.31212013314435594,0.7095898372914166
-10803.50030207634,2076.0,-80.0,16696.0,113.0,-469.0,-206.0,-0.08911614213919335,0.643909279212224,0.3343522952693605,0.6823838333392225
-10803.515899896622,2176.0,-408.0,16584.0,181.0,-460.0,-397.0,-0.06214254889943773,0.6572263717233356,0.3704095202595428,0.6534436373772081
-10803.531483650208,2240.0,-732.0,16568.0,239.0,-285.0,-287.0,-0.050245982982332474,0.6622783705835095,0.4016660519770031,0.6304974890835002
-10803.547080039978,2196.0,-512.0,16296.0,193.0,-457.0,-218.0,-0.03336181001826532,0.6781191349818724,0.42637231840428397,0.5977023293432094
-10803.56269955635,2280.0,-264.0,16224.0,192.0,-422.0,-37.0,-0.02708168677035381,0.6975705840945685,0.43940501633904877,0.5653185774974276
-10803.578282117844,2304.0,-488.0,16224.0,167.0,-327.0,63.0,-0.027816246797005076,0.7153023688174549,0.4443098145324077,0.5386627574730251
-10803.593872308731,2432.0,-428.0,16232.0,114.0,-335.0,166.0,-0.029743686296290973,0.7367431424348703,0.43982803077144106,0.5127145000372202
-10803.609486818314,2520.0,-332.0,16296.0,106.0,-339.0,163.0,-0.030836307693014917,0.7574173816699478,0.4346862742226897,0.48622615630434685
-10803.625048398972,2612.0,-304.0,16440.0,111.0,-323.0,202.0,-0.03448572418420246,0.7779894951717765,0.42662884838315096,0.45992489164767114
-10803.640656471252,2816.0,-376.0,16520.0,126.0,-256.0,224.0,-0.042495556142199756,0.7957976216888326,0.41701285671493876,0.43703609731578064
-10803.656270980835,2848.0,-416.0,16460.0,92.0,-201.0,225.0,-0.05015046939075394,0.8109762522496156,0.4054632092999785,0.4188102608714555
-10803.671915054321,2708.0,-480.0,16296.0,75.0,-260.0,14.0,-0.046772980370337634,0.8203904391266369,0.4082196659676683,0.39765376901787974
-10803.68749833107,2692.0,-480.0,16368.0,75.0,-250.0,194.0,-0.04996567615648837,0.8353129381204374,0.3977735235859902,0.37620732389044875
-10803.703107595444,2824.0,-524.0,16228.0,141.0,-250.0,170.0,-0.0571420184398236,0.8484275709552831,0.3909179076721036,0.3522621694601984
-10803.718689203262,2884.0,-396.0,16316.0,183.0,-229.0,106.0,-0.06613340631983447,0.8578346334601913,0.38968000042530615,0.3284746740211309
-10803.734275817871,2740.0,-544.0,16348.0,109.0,-278.0,57.0,-0.06646921241217744,0.8667917138348237,0.3899937178024749,0.3035767921024226
-10803.749884843826,2732.0,-456.0,16252.0,101.0,-280.0,17.0,-0.06502626932181743,0.873892270041461,0.39286628155528186,0.27881888292724155
-10803.765526294708,2744.0,-288.0,16320.0,97.0,-192.0,39.0,-0.06679603708072038,0.8791776804727961,0.39326236324145947,0.26063309315305194
-10803.78113937378,2692.0,-540.0,16300.0,45.0,-169.0,24.0,-0.06500523091557651,0.8834664936738563,0.39337562723443703,0.2460018097639686
-10803.796730279922,2700.0,-412.0,16456.0,-32.0,-175.0,33.0,-0.05724737687416231,0.8884168380293754,0.39108121767078813,0.23343894476296712
-10803.812311887741,2728.0,-292.0,16400.0,-139.0,-245.0,-60.0,-0.03688503987067175,0.8917635659784707,0.3939961598555899,0.21946357840459302
-10803.827907323837,2760.0,-268.0,16472.0,-253.0,-368.0,-177.0,-0.001153809348576576,0.8927475949116684,0.4037531369831599,0.1999595081002059
-10803.843482494354,2828.0,-340.0,16216.0,-281.0,-408.0,-283.0,0.0400079371762631,0.8888150757421613,0.4204184145631213,0.17791987745214877
-10803.859120130539,2820.0,-288.0,16100.0,-235.0,-492.0,-416.0,0.08261012751472455,0.8787903354863764,0.4465235335464296,0.14669644534532295
-10803.874685525894,2936.0,-472.0,16084.0,-219.0,-529.0,-511.0,0.12629574879837951,0.8621315113430328,0.4780294643694916,0.11075410682882905
-10803.89027929306,3012.0,-616.0,16044.0,-202.0,-588.0,-556.0,0.17096867663737494,0.8401616108821215,0.5100837891601933,0.06864916055424891
-10803.90587258339,3024.0,-620.0,16348.0,-192.0,-634.0,-439.0,0.21541160920254926,0.8195756381734866,0.5303887286926153,0.024112411930826767
-10803.921555280685,2824.0,-664.0,16172.0,-181.0,-657.0,-358.0,0.2589748720652674,0.7991731610190189,0.5420383634949386,-0.021182229471343142
-10803.93724322319,3148.0,-712.0,16188.0,-149.0,-637.0,-156.0,0.29873864259839406,0.7858860927985799,0.5378626992212605,-0.06198378296514919
-10803.95288014412,3168.0,-596.0,16332.0,-171.0,-609.0,-107.0,0.33799315487507275,0.7718885600021458,0.5294073268601256,-0.09836950981999155
-10803.9685151577,3032.0,-456.0,16160.0,-221.0,-682.0,-198.0,0.38194299197918774,0.7487703574261386,0.5234087933304336,-0.13966294348286654
-10803.984257698059,2900.0,-440.0,16400.0,-245.0,-680.0,-12.0,0.4280807452097457,0.7302896913128312,0.5034883176752746,-0.1729836879806887
-10803.9999294281,2808.0,-184.0,16416.0,-213.0,-536.0,-402.0,0.4583452463707948,0.695232125526959,0.5113168530852453,-0.21243117124274333
-10804.015534639359,2760.0,-152.0,16604.0,-163.0,-234.0,-581.0,0.4672288396734132,0.6573576188033053,0.5393493165975346,-0.2422405561925101
-10804.031110525131,2828.0,-292.0,16844.0,-171.0,10.0,-632.0,0.46251796121827543,0.6197937072341292,0.5786641156459915,-0.2589994928317557
-10804.046685695648,2688.0,-492.0,16904.0,-172.0,740.0,-654.0,0.4181265010031451,0.5942429707761077,0.6453196811117249,-0.23581354925431014
-10804.062264680862,2644.0,-688.0,16940.0,-185.0,1064.0,-607.0,0.3532893628992657,0.571843954594726,0.7152594676015862,-0.19127208803688894
-10804.07783985138,2616.0,-800.0,16664.0,-118.0,1263.0,-523.0,0.2697073909897096,0.5526758096058669,0.7767239628991185,-0.136041384072319
-10804.093428850174,2708.0,-820.0,16620.0,-50.0,1248.0,-507.0,0.1802676615498798,0.5282927468489175,0.82546046582602,-0.08381743962000775
-10804.10904097557,2624.0,-752.0,16640.0,72.0,1429.0,-463.0,0.07000412775736319,0.5022079872565679,0.8613814809389275,-0.0301413989074409
-10804.124712228775,2696.0,-624.0,16892.0,237.0,1493.0,-445.0,-0.05332144169560921,0.46969965798307595,0.8810930323006171,0.014632962016858823
-10804.140316486359,2744.0,-600.0,16928.0,365.0,1787.0,-476.0,-0.20242566657510186,0.42341025973261026,0.8809078656623273,0.06122853647632301
-10804.155936956406,2944.0,-532.0,17356.0,484.0,2350.0,-332.0,-0.3906575754855059,0.368608522138327,0.835743709260774,0.11422288979809275
-10804.171530723572,2920.0,-328.0,16988.0,656.0,2603.0,51.0,-0.5863518254403011,0.31543576991068556,0.7319941734254156,0.14448647665066125
-10804.187121868134,2604.0,-424.0,16572.0,812.0,2537.0,316.0,-0.7544742015538548,0.25512856371641907,0.5876952759803155,0.14245124694467007
-10804.202709913254,2452.0,-944.0,15852.0,878.0,2377.0,726.0,-0.8820277132161757,0.1997141767590892,0.41491462381004385,0.0999360579003052
-10804.218287467957,2524.0,-1068.0,15688.0,766.0,2226.0,1102.0,-0.9612439009799019,0.15714491123788252,0.22508778845857977,0.025517193964156668
-10804.23387002945,2324.0,-864.0,16124.0,738.0,2163.0,1076.0,-0.9924483144982296,0.10875460697299184,0.029577636745195163,-0.04841427389048131
-10804.249452829361,3056.0,-400.0,16284.0,181.0,2393.0,1016.0,-0.9713092727833368,0.10291403270863343,-0.18324490260079693,-0.11130275893964421
-10804.265029668808,3296.0,300.0,16444.0,46.0,2504.0,1011.0,-0.8973796568770286,0.1042030616029537,-0.39400155858024405,-0.16915745686246314
-10804.28064775467,3424.0,832.0,16628.0,66.0,2621.0,591.0,-0.7781275279966119,0.11424745189198182,-0.5894690680403742,-0.1843672631832557
-10804.296250343323,3296.0,860.0,16444.0,113.0,2664.0,404.0,-0.6188822471056779,0.1252054203191075,-0.7555080589166754,-0.1746881216685884
-10804.31190085411,2916.0,228.0,16172.0,143.0,2490.0,400.0,-0.4396618088929633,0.12603067787382208,-0.8754983318058632,-0.1559372727758919
-10804.327495098114,2512.0,-412.0,15968.0,20.0,2134.0,521.0,-0.2649322097754229,0.11244161629624141,-0.9461447680630213,-0.14824940139903411
-10804.343091487885,2412.0,-768.0,15748.0,-26.0,1913.0,664.0,-0.09661645813238343,0.08168967629432497,-0.9813455154471491,-0.14475163597227922
-10804.358701705933,2476.0,-712.0,15776.0,-93.0,1689.0,752.0,0.05749101539144952,0.0388889351383375,-0.9869716698567746,-0.14515287380274705
-10804.374282836914,2332.0,-684.0,15960.0,-47.0,1542.0,750.0,0.19782445798338094,-0.006357673445918216,-0.9703575975388349,-0.13867659034818028
-10804.389917373657,2296.0,-260.0,16028.0,75.0,1439.0,696.0,0.32507108394390194,-0.04615211270518708,-0.9369144937117853,-0.11995834422487554
-10804.40552330017,2136.0,-232.0,16084.0,90.0,1310.0,654.0,0.435923586688467,-0.08269397036879773,-0.8907436622964774,-0.0985294976743824
-10804.421174287796,2016.0,-300.0,16116.0,89.0,1079.0,674.0,0.5231049981106466,-0.12167986913397885,-0.8403455687161829,-0.07331095101192846
-10804.436757802963,2292.0,132.0,16212.0,140.0,846.0,826.0,0.5888521359555922,-0.1695423700993797,-0.7895208215303062,-0.034138235041257806
-10804.452379226685,2104.0,-100.0,16664.0,232.0,1147.0,928.0,0.6685343117905727,-0.21630716674993328,-0.7114195045913848,0.01246483286171352
-10804.467972517014,1960.0,-496.0,16292.0,209.0,1352.0,896.0,0.7479778430134909,-0.2585701804929799,-0.6090974586446125,0.05168069265584647
-10804.483563423157,1756.0,-348.0,15924.0,526.0,1700.0,638.0,0.8361414463867172,-0.262211823691554,-0.4747804781522142,0.08182871571907271
-10804.49914097786,1232.0,-344.0,15156.0,1166.0,1490.0,508.0,0.9078542295358355,-0.2057249740250844,-0.34096688743647935,0.13122314829385973
-10804.51471710205,508.0,-668.0,14660.0,1990.0,1533.0,-413.0,0.9703245112797513,-0.05191631820175571,-0.19904737685299237,0.12710303097105358
-10804.530317783356,92.0,-580.0,14792.0,2988.0,1490.0,-979.0,0.9765755562583762,0.19294632989166513,-0.041963666733111804,0.08550407811497818
-10804.545984745026,216.0,-28.0,15504.0,3562.0,1788.0,-1221.0,0.8761945380112152,0.4580426116321917,0.14814081635032716,0.023117007149131678
-10804.561570644379,668.0,396.0,17088.0,3272.0,2106.0,-1202.0,0.6790897873187738,0.6485959379710234,0.3428078372949379,-0.025360534221468115
-10804.577156305313,1108.0,580.0,18076.0,2214.0,2431.0,-1371.0,0.45651069988396353,0.7105761884919375,0.5343657009658428,-0.03365648334285299
-10804.592748641968,1552.0,676.0,17408.0,1288.0,2710.0,-1619.0,0.23532116118527102,0.6654813936326379,0.7082862468099138,0.009437076194644674
-10804.608331918716,1984.0,188.0,16088.0,1017.0,2916.0,-2096.0,-0.0021840554013629267,0.527102936664294,0.8469664376048498,0.069322273713657
-10804.623925209045,2360.0,-752.0,14856.0,1086.0,2770.0,-2332.0,-0.23062539460320383,0.32070214967068394,0.9119370499384919,0.11105348040561068
-10804.639521360397,2692.0,-1720.0,14492.0,1366.0,1992.0,-2264.0,-0.389604983570322,0.08997439163188553,0.9111496471108939,0.09959360520301824
-10804.655117750168,3108.0,-1596.0,16528.0,1176.0,696.0,-1877.0,-0.42922985331121805,-0.10326444307309947,0.8942269871373787,0.07386665890941274
-10804.67070198059,3548.0,-1148.0,17856.0,774.0,339.0,-1384.0,-0.4355309522736595,-0.24008462079699958,0.8653744463734032,0.06163791067424585
-10804.686273813248,3760.0,-628.0,17976.0,105.0,326.0,-919.0,-0.45144287094909535,-0.31408878168503646,0.8312055631477733,0.08151615349757992
-10804.701852321625,3372.0,-572.0,16768.0,-364.0,285.0,-554.0,-0.4772968694414088,-0.3412717422846203,0.8005677350554873,0.12170701675572274
-10804.717416524887,2880.0,-1024.0,15544.0,-616.0,70.0,-190.0,-0.49780855425150944,-0.32907341688397707,0.7841482302457953,0.17031994192317373
-10804.7329890728,2268.0,-1512.0,14436.0,-609.0,-353.0,235.0,-0.4936840216845671,-0.2806558933680289,0.7954714636768667,0.21150297096478096
-10804.748577356339,1912.0,-1556.0,13748.0,-444.0,-956.0,851.0,-0.45083396694443384,-0.18347177314919302,0.8434000919777479,0.2275151150112066
-10804.764168977737,1828.0,-2148.0,13928.0,-338.0,-1548.0,1466.0,-0.3650504714364834,-0.03092832427797473,0.9051217954881859,0.21572233865226006
-10804.779828071594,2272.0,-2292.0,14576.0,-278.0,-2605.0,2195.0,-0.1929762844071288,0.192064093930157,0.9475314265814452,0.1674984570667395
-10804.795459985733,2760.0,-2344.0,14172.0,-243.0,-3139.0,2801.0,0.02790633061808809,0.4446173534576904,0.8914855678404657,0.08240223326995356
-10804.81107878685,2968.0,-2292.0,13900.0,-172.0,-3495.0,3580.0,0.2573068426879361,0.6853613815284958,0.6806314029058077,-0.02852821049048195
-10804.82666349411,3200.0,-2140.0,13532.0,72.0,-3979.0,3730.0,0.45028494628683946,0.8114001968707515,0.33217742658514765,-0.16891224032861807
-10804.842246294022,3496.0,-2436.0,13440.0,108.0,-4606.0,4024.0,0.5606494164200067,0.7624744176333974,-0.11952755407202266,-0.3000302620404765
-10804.857847213745,3920.0,-2532.0,13712.0,158.0,-5215.0,4239.0,0.5233570936722475,0.5082638232489075,-0.5701183260179967,-0.3777966818512027
-10804.873428344727,4772.0,-2140.0,14112.0,183.0,-5644.0,4400.0,0.32187263182416126,0.09450609662456386,-0.8727801432332755,-0.35457217623648907
-10804.88901257515,5032.0,-2284.0,14700.0,273.0,-5657.0,4107.0,0.013500682316617605,-0.3293015354765603,-0.916622352437656,-0.22623371393632485
-10804.904591083527,5388.0,-2084.0,15156.0,337.0,-5549.0,4135.0,-0.29018460278107727,-0.658328431173795,-0.6939048457206715,-0.029877049760797574
-10804.920238256454,5852.0,-1904.0,15860.0,566.0,-5455.0,4014.0,-0.4967892171236115,-0.7998593433541835,-0.28080621284207324,0.18593917131152257
-10804.935914754868,5912.0,-1732.0,16172.0,801.0,-5332.0,3971.0,-0.5491358665874011,-0.7298026005709723,0.20781499409299398,0.35021549431354204
-10804.951510190964,6200.0,-2060.0,16620.0,1059.0,-5354.0,4184.0,-0.43943572917863677,-0.463755519603565,0.6545053989176121,0.40428917960559446
-10804.96712565422,6040.0,-2576.0,17180.0,911.0,-4749.0,4439.0,-0.2498613450384274,-0.0671785067886013,0.9097334327286616,0.3247174739014946
-10804.982701301575,5624.0,-2644.0,16968.0,596.0,-4504.0,4672.0,-0.01841063541070268,0.3637917211180294,0.914609082367308,0.1755188269132033
-10804.998301506042,5828.0,-2176.0,16636.0,173.0,-4355.0,4638.0,0.22090342083554573,0.6997981691543872,0.6791826832538259,0.013967243087127408
-10805.01393532753,6136.0,-1688.0,16320.0,-98.0,-4194.0,4229.0,0.4173491990348596,0.8461884999575866,0.30150844881295635,-0.13739477391405927
-10805.029527902603,6636.0,-1208.0,16500.0,-307.0,-3672.0,3838.0,0.5285277825911561,0.8089536802113564,-0.10167903616296002,-0.2364607787916418
-10805.045154809952,7100.0,-736.0,17360.0,-432.0,-2462.0,2875.0,0.5661172511570619,0.6762032689586575,-0.3884664347084321,-0.2671221183221582
-10805.060771465302,7356.0,-560.0,18396.0,-385.0,-867.0,2109.0,0.596676703300085,0.5541797244223146,-0.5359958965341801,-0.22264353499859435
-10805.076362133026,7384.0,-704.0,17776.0,-267.0,615.0,1676.0,0.6628602140987303,0.4679468363072945,-0.5727439065831781,-0.11664695635471774
-10805.091956615448,7620.0,-1144.0,16944.0,87.0,2004.0,1499.0,0.7569827781017686,0.40869298755452177,-0.5068728361104117,0.05501857499495511
-10805.107542276382,8280.0,-2120.0,16460.0,385.0,3200.0,1334.0,0.8404050960938029,0.3440084353092908,-0.32629540216766245,0.2625048217078363
-10805.12311387062,8816.0,-2856.0,15848.0,557.0,4042.0,1399.0,0.8486202375085261,0.23600539085062128,-0.055219911074881924,0.4702083680681368
-10805.138677358627,9152.0,-3136.0,15952.0,616.0,4975.0,1885.0,0.7089521485341749,0.061780691631568005,0.27128246789262295,0.6480554141772064
-10805.154272794724,-6128.0,-1096.0,25384.0,-814.0,8593.0,-1465.0,0.4710497578694917,-0.40483535077926186,0.6075680098532337,0.4950571459675199
-10805.169844865799,-440.0,7748.0,22288.0,-2512.0,5709.0,-2864.0,0.17441326584023928,-0.7777936055000267,0.5425944750952675,0.26496859349421376
-10805.185442209244,8248.0,9116.0,20212.0,-3034.0,817.0,-2398.0,-0.014024597319889249,-0.9041461795859789,0.3044301680259833,0.29940819862816975
-10805.201047182083,4196.0,328.0,24588.0,-3335.0,3208.0,-4159.0,-0.22303341943176075,-0.9617322649787857,-0.10099106777312043,0.12299572572002684
-10805.216719150543,-80.0,-928.0,29996.0,-4357.0,6620.0,-5199.0,-0.36571878422476545,-0.6950629123619863,-0.5494482071478131,-0.2850333075029777
-10805.232324123383,-920.0,1540.0,29128.0,-4656.0,6763.0,-5607.0,-0.3499740665843749,-0.08245218009253052,-0.747414562316316,-0.5586512890470176
-10805.247945547104,-3320.0,2700.0,27280.0,-3828.0,7003.0,-6571.0,-0.1790122656477355,0.5974300534494079,-0.6101608327921374,-0.48860587195561567
-10805.263560056686,-4892.0,268.0,24084.0,-1836.0,7845.0,-6807.0,0.03252873957793781,0.9734980000123084,-0.22026501118142874,-0.05221924858470861
-10805.27916431427,-7792.0,-1880.0,20492.0,82.0,7592.0,-6344.0,0.10793003553208876,0.8554372213345861,0.25734897720167244,0.43629092555158355
-10805.294800281525,-8752.0,-3156.0,17564.0,1920.0,5975.0,-4142.0,-0.00995484819514136,0.4622041801216678,0.5818993783847501,0.6690749661367625
-10805.310420751572,-7556.0,-3196.0,16820.0,2627.0,4396.0,-2197.0,-0.18966064028311888,0.08229118294821923,0.7374775177493259,0.642949386461075
-10805.3259973526,-3984.0,-1036.0,16224.0,1986.0,3853.0,-637.0,-0.38876499904783207,-0.1941581958236518,0.737547266097004,0.5169026995312352
-10805.341569662094,-2316.0,1352.0,14732.0,943.0,3002.0,-22.0,-0.5449263199855509,-0.3500593007150318,0.653553727549641,0.3916392689400254
-10805.357180595398,-3024.0,3416.0,15896.0,-169.0,3279.0,-268.0,-0.6996957326622103,-0.45109745265043766,0.4646771417550783,0.30168215697470335
-10805.372762441635,-3492.0,3520.0,13712.0,500.0,2529.0,-299.0,-0.7556444900669356,-0.5464527793452594,0.3037832129819149,0.19520892420098676
-10805.38834142685,-4152.0,1880.0,13112.0,1453.0,2623.0,-632.0,-0.719907991496996,-0.6797578607992821,0.12102021768257691,0.07082260495355149
-10805.403982877731,-4720.0,732.0,12332.0,2457.0,2232.0,-644.0,-0.5695349148068222,-0.8197226346771919,-0.040595793215161144,-0.045130528327294375
-10805.419578552246,-4288.0,224.0,12008.0,3254.0,1294.0,-53.0,-0.31788731547035787,-0.9335289414489282,-0.11625294371678334,-0.11813815309829175
-10805.435153245926,-3804.0,-44.0,12188.0,3430.0,1113.0,694.0,-0.019017876924197912,-0.9753829811936093,-0.11995235575539687,-0.184059209777435
-10805.450784683228,-3308.0,-232.0,12228.0,2681.0,1120.0,1427.0,0.23471999553335984,-0.9399713979904687,-0.04175046735109598,-0.24416632268318347
-10805.466450691223,-3556.0,276.0,11840.0,1545.0,740.0,1737.0,0.3924472263988836,-0.87913724840859,0.08119479294602676,-0.25789586764981043
-10805.482043504715,-3292.0,1480.0,12468.0,869.0,92.0,1772.0,0.4911808081753149,-0.8225531891903602,0.19785554929956367,-0.20736645399962744
-10805.497623205185,-2560.0,2184.0,13816.0,910.0,-1021.0,659.0,0.5810732335954855,-0.7837307395998332,0.18331779381861724,-0.12047660135752368
-10805.513211250305,-1656.0,2324.0,15212.0,1221.0,-1690.0,-338.0,0.6767659563033517,-0.7325613806010578,0.06060006152061357,-0.040857026132356596
-10805.528794527054,-1592.0,1680.0,15720.0,1429.0,-1191.0,-1130.0,0.7569606201305474,-0.6466974523843796,-0.08558324477502675,-0.038321441320858546
-10805.544367074966,-940.0,1256.0,15232.0,1302.0,-1251.0,-1260.0,0.8023094291630516,-0.5453295710100906,-0.23932377239920077,-0.04048914450349201
-10805.559983491898,-1264.0,992.0,14880.0,1106.0,-1939.0,-1179.0,0.7914025701252695,-0.43942226265532036,-0.42489313524519895,-0.007474670795550581
-10805.575585365295,-1176.0,1064.0,15216.0,925.0,-2471.0,-1194.0,0.7121704451081152,-0.3226065713028697,-0.622333540059888,0.03793708190205341
-10805.591216802597,-1052.0,1524.0,15372.0,876.0,-2937.0,-1377.0,0.5584366992339781,-0.1761488157000305,-0.806742026590363,0.07929281309809964
-10805.606795787811,-680.0,1716.0,15272.0,770.0,-3315.0,-1560.0,0.33050950847222776,-0.005502297169949608,-0.93813986188778,0.10308631855138084
-10805.62240743637,-480.0,1516.0,15124.0,1215.0,-3509.0,-2200.0,0.05949145587507075,0.22580778535069398,-0.9633841177505396,0.13176741789567786
-10805.638010978699,-428.0,1468.0,14844.0,1130.0,-3615.0,-2399.0,-0.2227448287972263,0.44234146159459303,-0.8584650989547081,0.13325331693859033
-10805.653604269028,-200.0,1132.0,14608.0,894.0,-3979.0,-2525.0,-0.4852854391349067,0.6092056185772153,-0.6209441990709397,0.08828849584029999
-10805.669183015823,20.0,848.0,14700.0,539.0,-4134.0,-1851.0,-0.6724768913820663,0.6675475889505599,-0.3188436684812669,-0.022220758601242403
-10805.684757471085,204.0,120.0,15204.0,136.0,-4014.0,-1199.0,-0.7461561727022756,0.6433429405051613,-0.012741671610909876,-0.17087561746786517
-10805.700329303741,-112.0,-116.0,15620.0,-107.0,-3833.0,-688.0,-0.7145824384874926,0.5621532306867033,0.26238766977149397,-0.323277581322393
-10805.715952396393,-120.0,-16.0,16620.0,-301.0,-3371.0,-155.0,-0.6013336368691818,0.4623347136537425,0.4686374837868669,-0.45279507341656117
-10805.731545209885,-308.0,12.0,16104.0,-559.0,-3573.0,299.0,-0.4012331753059253,0.3456777084256833,0.6350382974002796,-0.5623568455762292
-10805.74713921547,-396.0,-4.0,15488.0,-740.0,-3516.0,272.0,-0.1628394697425648,0.20417147034399577,0.7500000052557887,-0.6076983708286933
-10805.762734413147,-388.0,64.0,15124.0,-958.0,-3409.0,483.0,0.09834742841877603,0.06544228614964913,0.8024580440391592,-0.5848984339727437
-10805.778321743011,-52.0,24.0,14648.0,-1039.0,-3256.0,215.0,0.328972690873078,-0.09070073311781666,0.7916445840649354,-0.50680291849226
-10805.793938159943,228.0,476.0,15052.0,-1660.0,-2866.0,-27.0,0.4925669249220627,-0.25651658620521084,0.7517103113335744,-0.35568057763845995
-10805.809535980225,428.0,716.0,16116.0,-2081.0,-1930.0,-858.0,0.5286309644642968,-0.44745488010506645,0.6912818297011563,-0.20606519746121582
-10805.82516670227,940.0,268.0,17296.0,-2357.0,-1160.0,-1303.0,0.46811809291873985,-0.6352123866884206,0.6095570556668406,-0.07622906772678423
-10805.840765953064,1044.0,1300.0,18008.0,-2092.0,-812.0,-1415.0,0.37602681600262783,-0.7807144924686472,0.49861567897048015,0.021705289243767065
-10805.856333255768,512.0,1776.0,19276.0,-1451.0,140.0,-986.0,0.2698028228939118,-0.8614064719145907,0.42823146649573574,0.042463372511444365
-10805.871944904327,-280.0,116.0,20548.0,-720.0,1047.0,-362.0,0.17673717699788624,-0.8898712725946863,0.4202117913998943,-0.017752150461927702
-10805.887529850006,-396.0,-1844.0,20624.0,513.0,998.0,40.0,0.17921783636479913,-0.8747442503296587,0.4358296339787002,-0.11294243573571289
-10805.903114080429,-964.0,-3144.0,18312.0,1516.0,-398.0,191.0,0.3091248103245922,-0.8397293529180424,0.4252147019611148,-0.13597397811989945
-10805.918813943863,-1668.0,-1532.0,15056.0,1235.0,-937.0,201.0,0.43286725566427686,-0.8025979122786872,0.39632133332585134,-0.10673298895088472
-10805.934437274933,-816.0,788.0,13132.0,436.0,-1062.0,355.0,0.5007814567975868,-0.7794236989733916,0.3749303695278984,-0.03382082216617534
-10805.950033187866,-1032.0,3060.0,13928.0,-367.0,-763.0,-59.0,0.4993093533984281,-0.7974264433718163,0.33770882137376407,0.02745885989188192
-10805.965682029724,-1112.0,3608.0,15864.0,-777.0,494.0,-905.0,0.43017455499158064,-0.8537195505948301,0.29252301310428996,-0.023303818878980243
-10805.98137664795,-364.0,2824.0,16868.0,-849.0,654.0,-1658.0,0.34185084731630916,-0.9131266900935381,0.19240477814993937,-0.11098669908152875
-10805.996973514557,352.0,1144.0,17288.0,-680.0,410.0,-2092.0,0.25571067738545544,-0.9466753595288947,0.04364241947770452,-0.19108414992887762
-10806.01255273819,1228.0,-460.0,17484.0,-524.0,33.0,-2105.0,0.17411719848446255,-0.9489557711160134,-0.11872900167970767,-0.234669064466697
-10806.028147935867,1736.0,-1684.0,17092.0,-280.0,-310.0,-1810.0,0.10924115736404791,-0.9286570656313609,-0.26418994898780196,-0.23636009571104935
-10806.043778181076,1600.0,-2000.0,16580.0,20.0,-211.0,-1622.0,0.07183055654413356,-0.886409745260545,-0.3941022376574778,-0.23195163488767376
-10806.059411287308,1472.0,-1940.0,16312.0,192.0,130.0,-1357.0,0.0632516537253398,-0.8299078079379498,-0.49858363673617084,-0.24221192333072858
-10806.074998378754,1136.0,-1684.0,16300.0,167.0,281.0,-1012.0,0.06592011421373258,-0.775653927220991,-0.5714137340206521,-0.2598112166579372
-10806.090606212616,1104.0,-1080.0,16632.0,99.0,307.0,-716.0,0.07154855059077445,-0.7306813966705248,-0.618910815499714,-0.2791682358819669
-10806.106247901917,1128.0,-664.0,16832.0,-26.0,356.0,-421.0,0.07879059358251746,-0.6986004547970506,-0.6421501144706336,-0.3056021554335326
-10806.121836423874,1072.0,220.0,16656.0,63.0,444.0,-282.0,0.09990718704603513,-0.6697840331768922,-0.6572578518405147,-0.33078696931988816
-10806.137427091599,1084.0,360.0,16692.0,176.0,693.0,-312.0,0.14064173410692826,-0.6288628038918054,-0.6729616489909696,-0.363144730783868
-10806.153007030487,1180.0,64.0,16748.0,300.0,674.0,-475.0,0.18114304751510604,-0.5742067220050319,-0.698203860327612,-0.3872792353906887
-10806.168685674667,1264.0,-228.0,16816.0,328.0,608.0,-474.0,0.21806799965850754,-0.5181694536345284,-0.721480887694024,-0.4042426171710185
-10806.184293031693,1152.0,-616.0,17136.0,294.0,745.0,-572.0,0.25719538594139935,-0.44858304584728315,-0.7407814724576145,-0.42879668199784077
-10806.199912786484,1032.0,-1028.0,16824.0,202.0,897.0,-566.0,0.3006385046663244,-0.37219896298242094,-0.7470103308746411,-0.4615842144542707
-10806.215506076813,852.0,-1152.0,16168.0,134.0,704.0,-408.0,0.3336492315233197,-0.3128785544525885,-0.7452046465370047,-0.48523729787312786
-10806.231092453003,676.0,-736.0,15884.0,165.0,513.0,-291.0,0.35874443483077867,-0.2670091043682061,-0.7440718720377106,-0.49635231227902094
-10806.246680021286,652.0,-304.0,15944.0,176.0,352.0,-268.0,0.37383346052301497,-0.2286186738035465,-0.7462046953718998,-0.5011592545155934
-10806.262301445007,804.0,-84.0,15992.0,160.0,240.0,-372.0,0.3761289679996036,-0.18848679813536265,-0.7520853164360456,-0.5073139098837377
-10806.27797293663,928.0,-152.0,16204.0,68.0,142.0,-392.0,0.36902173885911127,-0.15410925559548588,-0.7562910643929499,-0.5177809570741109
-10806.293548583984,1132.0,-268.0,16404.0,43.0,79.0,-271.0,0.3625164183849862,-0.1312099984212413,-0.759018781383372,-0.52464871316236
-10806.30916595459,1104.0,-280.0,16456.0,211.0,-52.0,-46.0,0.35937540810159596,-0.1238344705874437,-0.770629859871053,-0.5115114456405254
-10806.324744224548,1096.0,-628.0,16600.0,146.0,-151.0,28.0,0.35204806442555536,-0.127852136481841,-0.7813740876996892,-0.49916983743283944
-10806.340319871902,1116.0,-632.0,16420.0,114.0,-178.0,229.0,0.3510892758160925,-0.14766419294865346,-0.7888924240234237,-0.4822658497615199
-10806.355915784836,1172.0,-696.0,16444.0,167.0,-190.0,386.0,0.3561806938816864,-0.17697639952825986,-0.7960571931923971,-0.45618813277267195
-10806.371512174606,1268.0,-624.0,16548.0,122.0,-251.0,555.0,0.3622556490920325,-0.22141206176568817,-0.7989087459587751,-0.42601920054870146
-10806.387112379074,1128.0,-524.0,16776.0,126.0,-172.0,521.0,0.3716858361301866,-0.2598331519982259,-0.7979429692399974,-0.3970181232429162
-10806.402703523636,1192.0,-500.0,16732.0,152.0,-157.0,543.0,0.3825823900315064,-0.2977633611990865,-0.7948975174181256,-0.3648364460517936
-10806.41828918457,1136.0,-404.0,16496.0,171.0,-193.0,631.0,0.39310227759524713,-0.3413646499087137,-0.7889421625834314,-0.3263602905384009
-10806.433883428574,1224.0,-272.0,16384.0,271.0,-295.0,703.0,0.3999614582086488,-0.3879015776339655,-0.7838393749615724,-0.27415147688192965
-10806.449498414993,1312.0,-140.0,16420.0,299.0,-319.0,524.0,0.4001593004650169,-0.42018783952394,-0.7829620121594333,-0.22424362038373255
-10806.465140342712,1476.0,-328.0,16268.0,330.0,-403.0,535.0,0.3944264685152805,-0.4521388987764588,-0.7821815074275958,-0.1678995729180676
-10806.480729341507,1156.0,-300.0,16492.0,336.0,-363.0,817.0,0.39358051534617106,-0.49992467432915494,-0.764676555374769,-0.1021736932723328
-10806.496307134628,1116.0,-64.0,16640.0,378.0,-364.0,847.0,0.391921797143739,-0.5446500318796612,-0.7407691574540168,-0.03185440412206675
-10806.511924743652,1244.0,268.0,16708.0,395.0,-318.0,866.0,0.39111573974237523,-0.5857587231359571,-0.7088370108118685,0.038279086969295446
-10806.527498483658,1404.0,-32.0,16728.0,291.0,-210.0,676.0,0.3899409093045585,-0.6155584405969268,-0.6789337480539271,0.08990472297972228
-10806.54307961464,1328.0,-356.0,16440.0,109.0,-291.0,606.0,0.3732048921588415,-0.6443213398465105,-0.6542450080887399,0.1324069064591025
-10806.558683633804,1176.0,-376.0,16172.0,72.0,-307.0,425.0,0.35449633980324147,-0.6619723666948544,-0.6388099133675829,0.16747186444838869
-10806.57425236702,1240.0,-244.0,16356.0,118.0,-346.0,417.0,0.33559354629556537,-0.6757032860700869,-0.6229479793919371,0.2067313615549306
-10806.589824914932,1316.0,-356.0,16272.0,225.0,-407.0,405.0,0.3190214043514004,-0.6827789883127766,-0.6060268127798484,0.2544989172396222
-10806.605405569077,1328.0,-88.0,16408.0,271.0,-435.0,311.0,0.30489043090155066,-0.6810635636801334,-0.5927547879355807,0.30304456561936277
-10806.62100481987,1284.0,96.0,16720.0,139.0,-361.0,201.0,0.2890011499526512,-0.6776970004472624,-0.5862919542461322,0.3368484159040675
-10806.636630773544,1372.0,48.0,16564.0,48.0,-288.0,90.0,0.27440784099234655,-0.67235566355445,-0.586593095736006,0.3585341525197046
-10806.65224647522,1316.0,92.0,16680.0,49.0,-205.0,-40.0,0.2680396427956137,-0.6625717779740944,-0.5921927274218869,0.3721036985987562
-10806.66791510582,1380.0,136.0,16852.0,139.0,-12.0,-166.0,0.28084782698023014,-0.6502011513100029,-0.5974301167131454,0.3760853846664971
-10806.683508634567,1416.0,-296.0,16672.0,175.0,90.0,-313.0,0.30564161737666024,-0.6321796780431532,-0.6069031800662487,0.3722909969662294
-10806.69909286499,1360.0,-196.0,16444.0,145.0,27.0,-428.0,0.32878089294987517,-0.6060062513048056,-0.6245753878056549,0.3668312047222744
-10806.714686632156,1152.0,64.0,16224.0,110.0,-38.0,-547.0,0.3496841129357039,-0.5710948735359496,-0.6502761099248916,0.358765449064257
-10806.730255365372,1204.0,92.0,16156.0,124.0,-126.0,-667.0,0.3689935529477119,-0.5245166030844579,-0.6822217104599669,0.351140468685742
-10806.74583697319,1232.0,-52.0,16324.0,131.0,-216.0,-720.0,0.38341146369957724,-0.46972326831517053,-0.7165063190689783,0.3449266522628911
-10806.761417865753,1156.0,-204.0,16472.0,48.0,-249.0,-655.0,0.38886321184792333,-0.41883417201417045,-0.7488063668154937,0.33563725037769804
-10806.776995420456,1172.0,-280.0,16836.0,18.0,-164.0,-663.0,0.3975869855130772,-0.36939654272301253,-0.7766643315676843,0.31978633373774995
-10806.792574167252,1200.0,-308.0,16404.0,-5.0,-195.0,-614.0,0.40078068023247265,-0.32196573992275873,-0.8020604450472537,0.30399334064908123
-10806.80814242363,1228.0,-200.0,16328.0,-53.0,-311.0,-608.0,0.3930185469088728,-0.2724907319157449,-0.8299111435520331,0.2872850789961373
-10806.823811292648,1156.0,-24.0,16504.0,-49.0,-270.0,-616.0,0.38713865948951415,-0.22237242356018153,-0.853537933987338,0.2686022315865224
-10806.83943104744,1140.0,60.0,16600.0,-43.0,-198.0,-717.0,0.3876111286264319,-0.16539776031951223,-0.8732719832994666,0.2445347358361364
-10806.855006933212,1148.0,236.0,16784.0,-2.0,-84.0,-725.0,0.3959192296736517,-0.10817517855009927,-0.8847929291436131,0.22065259313622806
-10806.870641946793,1516.0,-96.0,16740.0,-72.0,139.0,-689.0,0.41852085246917814,-0.060003364536377446,-0.8861584425671396,0.18963941299152046
-10806.886227607727,1232.0,-496.0,16620.0,-39.0,193.0,-606.0,0.4426655466871854,-0.017714603060560156,-0.8815228588280306,0.1632508988587752
-10806.90181183815,1164.0,-460.0,16660.0,-11.0,276.0,-422.0,0.4695204539853,0.010391519313162534,-0.8707787850449774,0.1455570923431595
-10806.917423009872,1104.0,-440.0,16720.0,49.0,196.0,-300.0,0.48802130030672103,0.032696326048401676,-0.8613734565381822,0.1371201264633965
-10806.933077573776,1068.0,-384.0,16876.0,19.0,209.0,-168.0,0.5056342715978384,0.043622075409217656,-0.851477327100123,0.13197522251220561
-10806.948644638062,1036.0,-508.0,16728.0,60.0,335.0,-45.0,0.5306678514327894,0.04573141636227741,-0.8353977821121605,0.13568645715505365
-10806.964246034622,844.0,-508.0,16680.0,217.0,424.0,97.0,0.5591532319179793,0.043643999952338274,-0.8127802997785085,0.15757870667002116
-10806.97990846634,716.0,-400.0,16416.0,310.0,584.0,194.0,0.5957472236544887,0.03690610865310892,-0.7792702696758862,0.19094771915716932
-10806.995485067368,800.0,-312.0,16516.0,473.0,507.0,385.0,0.620897854641151,0.02679530775768332,-0.7443943783353463,0.24422300278008297
-10807.01110625267,836.0,-80.0,16620.0,467.0,441.0,395.0,0.6387503046201755,0.01699874813530916,-0.7098273275241009,0.2964021862427102
-10807.026671648026,956.0,-48.0,16740.0,373.0,484.0,407.0,0.6564017385820855,5.4438974601951405e-05,-0.6723036851314456,0.34226380115561694
-10807.042256116867,836.0,-48.0,16696.0,319.0,551.0,469.0,0.6732137767767248,-0.025589823281911627,-0.6295804388744871,0.38698429256111544
-10807.05783867836,764.0,-100.0,16864.0,311.0,579.0,428.0,0.6897458218860365,-0.05026757188993291,-0.5825881901529277,0.4269834576437156
-10807.07341170311,684.0,116.0,16576.0,379.0,630.0,407.0,0.7064669858714981,-0.07141651834507737,-0.5271701587912994,0.4667929974421897
-10807.088987827301,404.0,120.0,16640.0,420.0,675.0,330.0,0.7247399234965706,-0.08792863758202113,-0.46488545310990925,0.5009013011262289
-10807.104588270187,376.0,216.0,16740.0,528.0,738.0,333.0,0.7416214601608292,-0.0999073904786855,-0.3909681659795116,0.5358731345638407
-10807.1201877594,112.0,468.0,16724.0,541.0,717.0,305.0,0.7540298579515616,-0.10839663740176154,-0.31528825581808884,0.5659350298936499
-10807.135856628418,60.0,532.0,16400.0,486.0,622.0,258.0,0.7610643141378787,-0.11384470082354461,-0.2470147156630407,0.5889008609996634
-10807.151465415955,-284.0,288.0,16320.0,401.0,426.0,384.0,0.7531427497886061,-0.1170508930676097,-0.19367421610414837,0.6177097901841736
-10807.167093276978,-476.0,144.0,16456.0,359.0,369.0,536.0,0.7326514916718159,-0.1220115885103783,-0.14402648466030227,0.6539046839843197
-10807.182670354843,-676.0,108.0,16892.0,487.0,623.0,785.0,0.697604478463078,-0.1354809599093025,-0.06746805118729357,0.7003149028824813
-10807.198249816895,-1012.0,140.0,17028.0,596.0,1053.0,1101.0,0.637115455402247,-0.16808361356305115,0.045814912758622754,0.7508214095962463
-10807.213819503784,-688.0,500.0,17108.0,672.0,1472.0,1414.0,0.5390723368811945,-0.21743113808957298,0.1891103261413445,0.7914303509123436
-10807.229393959045,-984.0,344.0,16984.0,609.0,1618.0,1763.0,0.3931732243459778,-0.2651571415235827,0.3329600166655795,0.8150117381108613
-10807.244962215424,-1120.0,220.0,16784.0,519.0,1529.0,2066.0,0.20843903877431966,-0.2884914949990504,0.4581646525696502,0.8145004454042872
-10807.260599851608,-636.0,-16.0,16772.0,451.0,1284.0,2303.0,0.004615395456340427,-0.2720715521893334,0.5564813883520593,0.7850377271391692
-10807.27618598938,-124.0,-856.0,16580.0,493.0,1703.0,2593.0,-0.23540204313547236,-0.2532187446155385,0.6291962722695271,0.69611651066837
-10807.291850090027,608.0,-1360.0,16480.0,761.0,1970.0,2922.0,-0.4811149785481034,-0.21751624517389156,0.6671890079262377,0.5254273386535119
-10807.307443141937,852.0,-1496.0,16252.0,990.0,2005.0,3309.0,-0.6901938578117204,-0.14947337699909674,0.6526028362147965,0.27459003327117376
-10807.323064565659,1084.0,-1292.0,16208.0,1137.0,1937.0,3626.0,-0.8178575842603875,-0.05417037398233058,0.5719844055284312,-0.031755035548157375
-10807.338644981384,1044.0,-928.0,16024.0,1140.0,1609.0,4091.0,-0.8195060383586029,0.0680341234771177,0.4398326682323371,-0.361010297764636
-10807.35421538353,1048.0,176.0,16348.0,1046.0,1248.0,3895.0,-0.7046521077172603,0.17079685503106254,0.27610587067541703,-0.6309194794739587
-10807.369788646698,1176.0,676.0,16356.0,1014.0,1035.0,3734.0,-0.5089447286167968,0.2409479080634972,0.09509915328411862,-0.8208992141899293
-10807.385363817215,1316.0,916.0,16304.0,764.0,1021.0,3541.0,-0.26584787185505454,0.29384230179661813,-0.07557679377136585,-0.9150244581147785
-10807.400939702988,952.0,884.0,16248.0,398.0,627.0,3173.0,-0.017817394126107368,0.3015340365729689,-0.19549390167489888,-0.933028348798948
-10807.416508674622,820.0,640.0,16204.0,448.0,423.0,2740.0,0.19498641194408797,0.2800283781181455,-0.2958791571210721,-0.8921994905776484
-10807.432101726532,908.0,584.0,16276.0,589.0,383.0,2334.0,0.36412859326671787,0.2537562112408056,-0.3835491323602317,-0.8098816060931536
-10807.447697639465,1016.0,768.0,16096.0,722.0,416.0,1956.0,0.49199536641461866,0.23646531693483713,-0.4567386629791785,-0.7024346994941556
-10807.463293552399,884.0,980.0,15956.0,605.0,331.0,1588.0,0.5835191412778044,0.21687829743438974,-0.506491926116233,-0.5966030042192568
-10807.478856563568,832.0,1188.0,16068.0,441.0,228.0,1379.0,0.651835641881878,0.18863988545479102,-0.5394032361508696,-0.4985673860352408
-10807.494453191757,256.0,1192.0,16056.0,153.0,147.0,1060.0,0.6993495592975753,0.15310501200744334,-0.5525450303233013,-0.4268056216517183
-10807.510022878647,-52.0,1172.0,16104.0,-167.0,67.0,953.0,0.7377688649165018,0.09905353230240029,-0.552835494339146,-0.3745109022405431
-10807.525638580322,-436.0,980.0,16040.0,-422.0,-169.0,844.0,0.7582971232676459,0.02551686823885896,-0.5551186085347785,-0.34084848941678575
-10807.541209459305,-680.0,1012.0,16012.0,-627.0,-389.0,908.0,0.7639837258401551,-0.0711810818056877,-0.5611530828967813,-0.3104341118495268
-10807.55679154396,-820.0,536.0,16000.0,-787.0,-599.0,1172.0,0.7548826178202954,-0.1955339156282157,-0.5672788300446646,-0.264789444908652
-10807.572369098663,-1076.0,336.0,16016.0,-908.0,-748.0,1498.0,0.7270977238007763,-0.342091107177285,-0.5621667333241376,-0.1956301060103413
-10807.588056087494,-1264.0,288.0,16008.0,-1010.0,-863.0,1825.0,0.6729253904681198,-0.5008058383177632,-0.5348171062710152,-0.10166412351497732
-10807.603643417358,-1216.0,888.0,15752.0,-1110.0,-1182.0,2015.0,0.5727891403934338,-0.6540574564022059,-0.4938230603704418,0.016131627890534586
-10807.619250535965,-1368.0,1124.0,16080.0,-1220.0,-1222.0,2073.0,0.4357046656107806,-0.7812901428664725,-0.4265822867753286,0.1333218272985192
-10807.634818315506,-1732.0,1300.0,15800.0,-1419.0,-1311.0,2025.0,0.25898419335566536,-0.8698080867512836,-0.34469565901650573,0.23988743708073473
-10807.6504175663,-1968.0,1364.0,15580.0,-1686.0,-1442.0,1971.0,0.044852732125403694,-0.9070771957781786,-0.25453146633928075,0.3322844052363245
-10807.666035413742,-2348.0,1348.0,15456.0,-1878.0,-1755.0,1910.0,-0.19093260115098334,-0.8724854800839406,-0.15854806074378716,0.4209232011837786
-10807.681621551514,-2412.0,1432.0,15556.0,-1932.0,-2005.0,1920.0,-0.4185474269003346,-0.7606666904123365,-0.04783460452991818,0.4938786168095539
-10807.697212934494,-2532.0,1196.0,15524.0,-1986.0,-2153.0,1906.0,-0.6137057859260333,-0.5768896567169257,0.06864400052853396,0.5346508519448705
-10807.712794542313,-2504.0,1244.0,15424.0,-2057.0,-2378.0,1827.0,-0.7514015359498001,-0.3284470426223421,0.18299488460793134,0.5422463869609907
-10807.72838306427,-2420.0,1428.0,15236.0,-1984.0,-2805.0,1802.0,-0.8039574908660541,-0.03467066983090743,0.3074004967018041,0.5078929337580107
-10807.744004249573,-2348.0,1600.0,15236.0,-1932.0,-3038.0,1678.0,-0.7584826145816213,0.26508616954620773,0.41550839088306524,0.4263639562609778
-10807.759593248367,-2288.0,1536.0,14964.0,-2027.0,-3239.0,1480.0,-0.6113789442228507,0.5399315306671418,0.4897677923175512,0.30792407889085555
-10807.775275945663,-2312.0,1608.0,14432.0,-2009.0,-3838.0,1245.0,-0.35935081040403943,0.7477123650955155,0.5414800409767955,0.1363546089026633
-10807.790860176086,-2060.0,1424.0,14572.0,-1996.0,-3933.0,833.0,-0.04946342754070638,0.8347261894202489,0.5462876925393603,-0.04853158777432796
-10807.80644607544,-1764.0,1420.0,14876.0,-1982.0,-4139.0,553.0,0.2732794021616883,0.7902136817657233,0.49359076637770416,-0.23926734179800077
-10807.822021245956,-2020.0,1024.0,14860.0,-1927.0,-4405.0,613.0,0.5607228406887991,0.6249690935208753,0.355897313613836,-0.410293346565642
-10807.837595462799,-2612.0,548.0,14824.0,-1808.0,-4574.0,912.0,0.7644619183467843,0.36737481263505656,0.1346788331688551,-0.5123429850551164
-10807.85317850113,-3384.0,-124.0,14968.0,-1501.0,-4322.0,1379.0,0.8537811881804227,0.08298172187967985,-0.12074211951035194,-0.49959289138182994
-10807.868770599365,-3632.0,-1112.0,15348.0,-1196.0,-4262.0,1783.0,0.8265308753892486,-0.1946276591417758,-0.3681439940622548,-0.3787304925156748
-10807.884351015091,-2200.0,-2436.0,14956.0,-720.0,-4831.0,1419.0,0.6453788834887667,-0.41297581867074284,-0.6110917696281009,-0.1987559282960352
-10807.8999812603,-988.0,-2284.0,15792.0,96.0,-5719.0,750.0,0.31876137689706385,-0.48836219874214326,-0.8108638584149099,0.04892188216854078
-10807.915588855743,-32.0,-660.0,17428.0,1404.0,-6586.0,-536.0,-0.07341380956786943,-0.33010246259100745,-0.8708401020814877,0.356763637949258
-10807.931292057037,1104.0,-64.0,18664.0,3045.0,-6497.0,-1908.0,-0.352569931098949,-0.0018641897365272043,-0.6623635925280984,0.6610336147086467
-10807.946897506714,3452.0,448.0,20104.0,4125.0,-5716.0,-2556.0,-0.44756028727642,0.29183750310375267,-0.20809360362238427,0.8192787762212966
-10807.962535381317,4520.0,400.0,22072.0,4021.0,-4817.0,-3147.0,-0.3516717801869766,0.45720442591317917,0.2966985514595687,0.7610920059410142
-10807.978160858154,6476.0,708.0,23496.0,2093.0,-2919.0,-3407.0,-0.12237919341320809,0.4576196171810997,0.6070028357132945,0.6380871229123618
-10807.993795156479,8416.0,1252.0,23928.0,-189.0,-2576.0,-3701.0,0.21192156432568307,0.3786608573887803,0.7180563066408943,0.5441510324795746
-10808.009394168854,9272.0,288.0,22000.0,-1184.0,-2805.0,-4487.0,0.5784854482308438,0.18867296382963236,0.6852849446650653,0.40017701523238447
-10808.024980306625,9276.0,-992.0,20060.0,-876.0,-2630.0,-5378.0,0.8295646259953237,-0.07551522573117514,0.5397049270442106,0.1218136843881331
-10808.040568590164,8084.0,-1188.0,18468.0,-96.0,-2145.0,-6609.0,0.8552813077338421,-0.317198239954546,0.290383874733759,-0.28906118124963737
-10808.056140184402,7428.0,-1208.0,17624.0,112.0,-1694.0,-6728.0,0.6257725848132271,-0.4464915702386204,-0.021714831524185428,-0.6392045180487226
-10808.071799516678,7072.0,-1328.0,17436.0,-643.0,-1629.0,-5968.0,0.23262681198083837,-0.49300848711651624,-0.2702157083847044,-0.7936062429951443
-10808.087385177612,7324.0,-2320.0,17988.0,-1955.0,-1619.0,-4709.0,-0.19556985767127144,-0.4835566514634247,-0.3354311435498913,-0.7844815762863592
-10808.102955818176,6980.0,-3528.0,18500.0,-3190.0,-1284.0,-3437.0,-0.5552140554428405,-0.38322168844773663,-0.2209329366013282,-0.7043203302948835
-10808.118613004684,6276.0,-4468.0,18528.0,-3832.0,-762.0,-3060.0,-0.8131800399121093,-0.1699577689768924,-0.04643160557425963,-0.554704142274721
-10808.134220838547,5644.0,-4640.0,17552.0,-3414.0,5.0,-2658.0,-0.9284429565369499,0.07813833614759295,0.0741987811824123,-0.355503330156073
-10808.149823665619,5420.0,-3588.0,16564.0,-2485.0,515.0,-2826.0,-0.9515869296123892,0.2629783990212944,0.12258609662850992,-0.10147574070903953
-10808.16549706459,5412.0,-2096.0,16048.0,-1720.0,1045.0,-3096.0,-0.904961695309688,0.36328806188690044,0.1162639732077572,0.18854390111223746
-10808.181129217148,5216.0,-780.0,15376.0,-1399.0,1213.0,-3301.0,-0.777348594352835,0.39888604197704697,0.09698021923387813,0.47666961876220515
-10808.196720838547,4972.0,-212.0,14908.0,-1302.0,1143.0,-3559.0,-0.5611291364117376,0.38687034700173173,0.08430757902380252,0.7268821493197658
-10808.21229171753,4844.0,-228.0,14416.0,-1156.0,1093.0,-3677.0,-0.2802426014528969,0.32739961724276045,0.07702816009108732,0.8990774368836028
-10808.227932691574,4656.0,-676.0,14092.0,-896.0,906.0,-3875.0,0.04081309493561394,0.23732278480223093,0.08969564818891919,0.966419617863514
-10808.243532419205,4660.0,-1160.0,13872.0,-560.0,987.0,-3913.0,0.3530330911677273,0.11429023326994942,0.1194427605595658,0.9208902247659978
-10808.259119987488,4580.0,-1468.0,14312.0,-229.0,1225.0,-3969.0,0.6218140741274341,-0.03061117114111718,0.16736929080963034,0.7644591119950712
-10808.27477478981,4592.0,-1664.0,14476.0,58.0,1466.0,-4031.0,0.814354398139879,-0.1723682800549083,0.22453085346802695,0.5066576616435081
-10808.290359973907,4432.0,-1692.0,14900.0,228.0,1604.0,-3919.0,0.9000790383795514,-0.28489204516965083,0.27143369398035716,0.18713096227234435
-10808.305967330933,4108.0,-1604.0,14992.0,316.0,1603.0,-3757.0,0.8770425228350212,-0.3532426038235181,0.29087378866543384,-0.14631648933247027
-10808.32155251503,4216.0,-1424.0,14940.0,347.0,1503.0,-3685.0,0.7578557737275378,-0.37857743441308533,0.27166235963503016,-0.4566544806947246
-10808.337138652802,4012.0,-1208.0,14416.0,256.0,1237.0,-3821.0,0.5516885979194123,-0.3800508908626444,0.20459249308949154,-0.7136826486973392
-10808.35272860527,3788.0,-1068.0,14224.0,339.0,1044.0,-3816.0,0.2896974655525727,-0.3464537905152112,0.10109697326872154,-0.8864674565295455
-10808.368329048157,3616.0,-1364.0,14440.0,564.0,937.0,-3923.0,-0.004744908355597926,-0.2770885262028853,-0.035407955603015955,-0.9601800410190919
-10808.38394522667,3636.0,-1552.0,14712.0,872.0,920.0,-4051.0,-0.3003293839921611,-0.1759035210511327,-0.19382779314883608,-0.9172191662823856
-10808.399527549744,3436.0,-1744.0,15300.0,1149.0,1086.0,-4113.0,-0.5540356176317542,-0.04613111030892883,-0.3520292033130714,-0.7529886420603106
-10808.415115356445,3380.0,-1488.0,15976.0,1366.0,1478.0,-4100.0,-0.7177364820162272,0.10303893161989765,-0.4919237517027273,-0.48192151172604186
-10808.430699586868,3060.0,-1420.0,16280.0,1465.0,1769.0,-4135.0,-0.7662670602025901,0.24327927661980356,-0.5795754457862419,-0.13320018264816316
-10808.446282863617,2320.0,-1612.0,16020.0,1281.0,1865.0,-4069.0,-0.6916098667767585,0.35677100372031284,-0.5861335469162432,0.2254721895507714
-10808.461879491806,1608.0,-1720.0,15116.0,1647.0,1936.0,-3988.0,-0.5226640670361968,0.39120905682134166,-0.5049549979654951,0.5646221718280332
-10808.47753071785,1528.0,-1836.0,14808.0,1693.0,1680.0,-3629.0,-0.30635314528373625,0.36565589065999826,-0.3498184726894986,0.8062695307188483
-10808.493140935898,1076.0,-1592.0,14740.0,1760.0,1485.0,-3235.0,-0.0846066121975461,0.29547060655526436,-0.15332246274971148,0.9391650889224331
-10808.508719205856,1112.0,-1292.0,15160.0,2171.0,1600.0,-2726.0,0.09886536535847232,0.174978392634415,0.0789243239134766,0.9764113645069955
-10808.524285793304,1016.0,-1316.0,15304.0,2788.0,1873.0,-2262.0,0.22264772722516765,0.022262249262528302,0.3460512462679384,0.9111426434843487
-10808.539915561676,668.0,-1056.0,16076.0,3238.0,2237.0,-1911.0,0.281014099492485,-0.14055436139268102,0.6077450593344378,0.7293294798885507
-10808.555495262146,-112.0,-868.0,16464.0,3298.0,2321.0,-1671.0,0.284810923902538,-0.27665110091668754,0.7980749415813718,0.4532364654429933
-10808.571109771729,-556.0,148.0,18168.0,2903.0,2884.0,-1558.0,0.20147779101995672,-0.39896754421106456,0.8845719929831856,0.13328161021561125
-10808.586673736572,420.0,860.0,20408.0,1564.0,3367.0,-1130.0,0.008647766888438341,-0.4715683519066404,0.8738537450568239,-0.11801753199445349
-10808.602259635925,864.0,1596.0,21312.0,-1.0,3685.0,-729.0,-0.2660710852322888,-0.46485842091403606,0.8044825924197755,-0.25675004304221327
-10808.617851257324,828.0,1944.0,21456.0,-1999.0,4451.0,-524.0,-0.6172944038020932,-0.3267332704337465,0.6660606425790451,-0.2618324071490695
-10808.63343334198,1016.0,1604.0,19156.0,-2977.0,5464.0,-823.0,-0.9109725001039353,-0.07826603708666566,0.36490987929561525,-0.17562548643518017
-10808.649003267288,1672.0,492.0,15496.0,-2971.0,6504.0,-1368.0,-0.9785259011289917,0.18071647231545684,-0.09813649750151977,-0.014065749595587967
-10808.664593935013,1572.0,-872.0,13804.0,-2127.0,6667.0,-1903.0,-0.752333389454455,0.3267394006123624,-0.5363393131473703,0.1989371166274722
-10808.680180311203,10472.0,660.0,19496.0,-2560.0,6309.0,1175.0,-0.34634030038922686,0.28282742176542625,-0.8807880237042017,0.15578672319253833
-10808.695795536041,8412.0,616.0,23048.0,-5223.0,4759.0,2304.0,0.09829032794261157,0.16683744738248882,-0.9669188840767783,-0.16604863504270964
-10808.71136879921,4912.0,-2484.0,17360.0,-3839.0,2371.0,3235.0,0.36108108219751345,-0.09430381115348097,-0.8441106574088753,-0.38497329950239084
-10808.726943969727,3696.0,-3868.0,13920.0,-1056.0,-138.0,2731.0,0.4205234239976103,-0.323065018615694,-0.7657569816488787,-0.36387537519343954
-10808.742542028427,4104.0,-2460.0,12164.0,1410.0,-509.0,2385.0,0.4875886539829362,-0.43396409918751094,-0.7398602940770849,-0.1629085951435659
-10808.75814318657,3760.0,-432.0,12468.0,2649.0,436.0,1872.0,0.6180764973795241,-0.41911214171453626,-0.6615329561054168,0.06856095128382064
-10808.773760080338,4304.0,844.0,13424.0,2916.0,467.0,1329.0,0.71581355055259,-0.3283873492437432,-0.548690288133846,0.2805560147449337
-10808.789373636246,4908.0,2808.0,14880.0,2729.0,184.0,873.0,0.7581184775717952,-0.19795244968472187,-0.4318821050942231,0.4467091323528359
-10808.804964780807,4676.0,3444.0,16648.0,1981.0,387.0,102.0,0.7908276898258721,-0.08434307337452376,-0.32214367286468987,0.5135185147700727
-10808.820546627045,4452.0,3264.0,17024.0,1034.0,896.0,-850.0,0.8534002010223811,-0.028768383494122567,-0.21786713556877882,0.4726673124356603
-10808.8361287117,3512.0,2304.0,15820.0,421.0,993.0,-1545.0,0.924694520703584,-0.00867396598396669,-0.128469371382709,0.35827423339030345
-10808.851737737656,3056.0,1896.0,15060.0,229.0,370.0,-2438.0,0.9825700750324617,0.025270503680306013,-0.0910353189596001,0.16009378500232385
-10808.867331504822,3324.0,1232.0,14628.0,127.0,-170.0,-2435.0,0.9926003946920795,0.05690359047736341,-0.09641153691357429,-0.04702396620739992
-10808.882918834686,2924.0,100.0,15076.0,-178.0,-473.0,-2233.0,0.9613661722896267,0.05688185526284184,-0.12312922527088456,-0.23953857978046128
-10808.898567914963,3068.0,-944.0,15548.0,-453.0,-684.0,-1691.0,0.9088054064235906,0.022145113901228714,-0.1604103338225905,-0.38451378647387796
-10808.914161682129,3012.0,-1424.0,15944.0,-763.0,-721.0,-961.0,0.8613618646966253,-0.048969833121868096,-0.18847146250908386,-0.46918674460182247
-10808.929812192917,2788.0,-1764.0,16112.0,-895.0,-609.0,-201.0,0.8354980749181364,-0.1373349423213086,-0.1972596981789571,-0.4941363090282253
-10808.94539475441,2440.0,-1664.0,15888.0,-946.0,-762.0,458.0,0.8255904072738607,-0.2454061624408701,-0.204953923796135,-0.4649410543004285
-10808.96095752716,2172.0,-1280.0,16016.0,-955.0,-100.0,923.0,0.835263431102432,-0.3323659173578771,-0.1524309973442044,-0.41064910652587666
-10808.976590633392,2136.0,-436.0,15876.0,-1020.0,12.0,1454.0,0.8479160665665957,-0.4203983364140937,-0.07188058153410083,-0.3148599129721255
-10808.992182731628,2108.0,52.0,15824.0,-1060.0,439.0,1843.0,0.8474519305172084,-0.4894295453378681,0.05637119519187168,-0.19775296196432546
-10809.007857561111,2088.0,528.0,15528.0,-1059.0,256.0,2391.0,0.821026044906332,-0.5374580161135976,0.19073615391641208,-0.025977568975489935
-10809.02344250679,1720.0,996.0,15848.0,-1254.0,-266.0,2601.0,0.7490222715177959,-0.5666278152050981,0.287418654915779,0.18785385972245244
-10809.039057731628,1548.0,652.0,16244.0,-1619.0,-438.0,2683.0,0.6130943783215398,-0.5763051523829571,0.3517112435305232,0.4102278096150894
-10809.054663181305,1132.0,268.0,16660.0,-1871.0,-188.0,2740.0,0.4098198503274411,-0.5623099859665853,0.39610372794404564,0.5991302084427743
-10809.070262432098,824.0,92.0,16816.0,-1901.0,204.0,2962.0,0.14776428581471704,-0.5146604437827174,0.4294339800425748,0.7272391630184918
-10809.085821390152,328.0,-500.0,16780.0,-1945.0,705.0,3049.0,-0.15191248992172166,-0.4475383128906206,0.4302479827440113,0.7691025466382936
-10809.101413965225,260.0,-780.0,16424.0,-1894.0,629.0,3295.0,-0.44619918521348045,-0.3230252334880577,0.40129150435605876,0.7317964977891485
-10809.117030620575,-304.0,-196.0,16180.0,-1698.0,40.0,3919.0,-0.6988575558864446,-0.11436765911369481,0.3763142475222403,0.5974158871682681
-10809.13269495964,-1044.0,-416.0,16804.0,-1486.0,-69.0,4548.0,-0.8753529075897277,0.11932622565242199,0.3213068217287544,0.34099921606408873
-10809.14827799797,-1272.0,-1244.0,16916.0,-1130.0,203.0,4996.0,-0.9292726803972666,0.31004547454167675,0.2007102063449853,-0.006285081738494885
-10809.16390824318,-1848.0,-1628.0,17252.0,-720.0,605.0,5467.0,-0.8257663559804568,0.41795928614957767,0.0035230587621864545,-0.37869189126392844
-10809.179538965225,-1580.0,-1680.0,16808.0,-425.0,1207.0,5697.0,-0.5545495582448685,0.43658994497466375,-0.2470477502259776,-0.6639513660696275
-10809.195124864578,-1612.0,-1388.0,16820.0,-117.0,1567.0,5887.0,-0.15468382805530329,0.3584323384904261,-0.4770949565244283,-0.7873878171024719
-10809.210695266724,60.0,-1844.0,17548.0,906.0,1976.0,5505.0,0.24663687801161147,0.2244912823644655,-0.6558299045387739,-0.6772451925703912
-10809.22628569603,2660.0,-1924.0,20212.0,3004.0,1071.0,4641.0,0.4698183679046365,0.07784759625014398,-0.8088036449941145,-0.345032051817991
-10809.241923093796,4284.0,-1072.0,20672.0,4753.0,192.0,3345.0,0.49214171919333266,0.03778514218901979,-0.8620549136698078,0.11502233294854951
-10809.257527589798,4424.0,452.0,18476.0,4551.0,1309.0,2132.0,0.5048567865123709,0.05439177216092687,-0.6986487948687019,0.504034742514945
-10809.273175001144,3988.0,1988.0,16476.0,2843.0,2083.0,1732.0,0.5129615730677893,-0.016624984358988595,-0.4633897099132101,0.7224015581360781
