programtime,ax,ay,az,gx,gy,gz,q0,q1,q2,q3
-9112.66629934311,5132.0,-2476.0,16796.0,-990.0,-271.0,276.0,0.9957066924873236,-0.08616566311461156,-0.023843618419962444,0.023982137031904147
-9112.68196773529,5380.0,-2496.0,17088.0,-1030.0,-285.0,288.0,0.9821884664400382,-0.1748081210793909,-0.048696474052592226,0.04875028832432082
-9112.697566747665,5332.0,-2648.0,16636.0,-1210.0,-153.0,393.0,0.9555018482595667,-0.27760149223065533,-0.06081848803956514,0.07908692051437151
-9112.713168382645,5340.0,-2676.0,16220.0,-1368.0,-18.0,477.0,0.9118083085576131,-0.39073846974203214,-0.0598610761070076,0.11111124279869493
-9112.728763580322,5028.0,-2576.0,16100.0,-1568.0,165.0,443.0,0.846421623652732,-0.5140090040439337,-0.04643191537324498,0.1311840539456232
-9112.744372606277,4852.0,-2356.0,15904.0,-1628.0,283.0,373.0,0.7621038431789955,-0.6320083863105573,-0.02718614490507622,0.13792768166735295
-9112.759976863861,4844.0,-2172.0,16048.0,-1530.0,361.0,133.0,0.6707502402235443,-0.7314328811513175,-0.014159044666898641,0.12206382373521109
-9112.775562286377,4908.0,-2096.0,16112.0,-1369.0,533.0,-55.0,0.5799470750414273,-0.8104722459236261,-0.001069843599106281,0.082431693984049
-9112.791160106659,5112.0,-2148.0,15696.0,-1223.0,667.0,-209.0,0.49138863907864727,-0.870553368984183,0.009019301619307493,0.024345211706281015
-9112.806780338287,4688.0,-2524.0,15588.0,-1172.0,688.0,-324.0,0.3995993701221222,-0.9157187670766858,0.011318209538696857,-0.04063718930236173
-9112.822340488434,4556.0,-2572.0,15300.0,-1187.0,564.0,-306.0,0.30106559097769836,-0.9488394975392413,0.01065720218453832,-0.09460201837343257
-9112.837935209274,4376.0,-3268.0,15380.0,-1233.0,546.0,-213.0,0.19535230684849758,-0.9700507674680088,0.017417311782310995,-0.14330255403856376
-9112.853527545929,4520.0,-3220.0,15492.0,-1187.0,579.0,-244.0,0.09033200549936272,-0.9767177012219249,0.021329165058781182,-0.19341077431238718
-9112.86917257309,4244.0,-3052.0,15520.0,-1112.0,695.0,181.0,-0.0026703631375570996,-0.9669670245312425,0.06061415211803639,-0.24757537679042463
-9112.884766101837,4260.0,-2844.0,15436.0,-1052.0,516.0,329.0,-0.08658970574986903,-0.9484739458196418,0.11038224883105163,-0.2841041289782143
-9112.900395870209,4320.0,-2712.0,15168.0,-1109.0,624.0,406.0,-0.17318153776855164,-0.9144834848138506,0.16566564795626168,-0.3260107422556314
-9112.916080474854,4432.0,-2588.0,15072.0,-1238.0,527.0,353.0,-0.26763354620977,-0.8692446892395302,0.21950030392997838,-0.3529951440837429
-9112.93177819252,4536.0,-2888.0,14904.0,-1217.0,614.0,328.0,-0.3589843226674145,-0.8095181610201498,0.2655644684670319,-0.3811641590514454
-9112.947421312332,4432.0,-2688.0,15064.0,-1148.0,710.0,759.0,-0.42746395855627933,-0.7256567701252784,0.33212153929418853,-0.42472591072785143
-9112.963032007217,4468.0,-2152.0,14976.0,-1003.0,853.0,571.0,-0.490771643445637,-0.634999656018094,0.37072985869166153,-0.467416305578904
-9112.978671312332,4088.0,-1820.0,14896.0,-948.0,991.0,459.0,-0.5523344333249451,-0.5347476257488226,0.38926693197739565,-0.5073883189318751
-9112.994318008423,3604.0,-1940.0,14876.0,-1143.0,1027.0,57.0,-0.6324465832717587,-0.4282495928294801,0.3894788990062461,-0.5147035970130238
-9113.009957075119,3644.0,-2684.0,15088.0,-1228.0,836.0,-667.0,-0.7294662854131412,-0.34198609452245066,0.36976358812659454,-0.46281674396523403
-9113.025549650192,4212.0,-3412.0,15692.0,-911.0,195.0,-1139.0,-0.8024445762852955,-0.31014265451275247,0.3571221584849834,-0.3638103898476819
-9113.041168928146,5196.0,-3812.0,16664.0,-427.0,-155.0,-1087.0,-0.8393452076187395,-0.3171795737237023,0.35017718102344947,-0.2688357906796931
-9113.056754112244,5644.0,-3236.0,16308.0,-127.0,-159.0,-630.0,-0.8514523798702818,-0.3301192568775683,0.3467048331831665,-0.2141165096373189
-9113.0723528862,5552.0,-2332.0,15624.0,-92.0,-256.0,-209.0,-0.8499748541633836,-0.3340515573281814,0.3611852939511056,-0.1884077699300243
-9113.08801651001,5012.0,-1924.0,15488.0,-268.0,-5.0,-69.0,-0.8586091345969157,-0.31615402863393016,0.36375246162973696,-0.1747029788629221
-9113.103647947311,4616.0,-2124.0,15700.0,-418.0,-147.0,-205.0,-0.8679098151987463,-0.29313345977245203,0.3750447461022576,-0.14193930345258063
-9113.119260072708,4132.0,-2824.0,16108.0,-460.0,-190.0,-491.0,-0.8780063993031342,-0.27602522994907536,0.3817558313705309,-0.08471906768195829
-9113.13484120369,4368.0,-3628.0,15956.0,-438.0,-235.0,-615.0,-0.8832734051838921,-0.26388167495627884,0.3871611933175757,-0.017342540356919966
-9113.15044927597,4372.0,-3896.0,15380.0,-329.0,-433.0,-482.0,-0.8752925206433894,-0.25476867689163163,0.40901469568317056,0.04077871130666697
-9113.166024446487,4496.0,-3720.0,15592.0,-159.0,-616.0,-262.0,-0.854474371856816,-0.24916513806101845,0.44876780806638045,0.0799858503626096
-9113.181614160538,4508.0,-3188.0,15444.0,-132.0,-642.0,-53.0,-0.8305745386296707,-0.23637774625299873,0.49364874481427773,0.1028708588461785
-9113.197249650955,4536.0,-2992.0,15684.0,-174.0,-475.0,131.0,-0.8141419516367785,-0.21350506078659465,0.5285559363591598,0.11053096282518264
-9113.2128636837,5016.0,-2968.0,15668.0,-500.0,-182.0,342.0,-0.8172287179307318,-0.16007921915276702,0.5420866779244179,0.11248955418882742
-9113.22850060463,4860.0,-3016.0,15616.0,-280.0,-77.0,321.0,-0.8201764864269782,-0.12397098589235495,0.548783709910001,0.10381794404913776
-9113.244097709656,4432.0,-3068.0,15452.0,-209.0,-80.0,232.0,-0.8204968127959249,-0.09704258151805996,0.5547602609433213,0.09802433596887009
-9113.259709358215,4384.0,-3272.0,15556.0,-177.0,-97.0,103.0,-0.8181346360816797,-0.07845160391749705,0.560804416103667,0.09999734978935608
-9113.275301218033,4364.0,-3320.0,15592.0,-206.0,-162.0,-25.0,-0.8112987725309403,-0.06345882958645362,0.5701012294962031,0.11292416377474172
-9113.29093170166,4404.0,-3084.0,15412.0,-120.0,-197.0,-59.0,-0.8015234762987306,-0.055876451100282436,0.5822646485052148,0.1241201766657412
-9113.306493997574,4500.0,-3248.0,15588.0,-114.0,-105.0,62.0,-0.7974468697928798,-0.0435439154405241,0.5884656477294379,0.12605791814883932
-9113.322072267532,4732.0,-3028.0,15164.0,-177.0,-10.0,165.0,-0.7993589742620872,-0.022574125394193737,0.5875578863872909,0.12365827620281024
-9113.337625741959,4688.0,-2832.0,15192.0,-214.0,-250.0,219.0,-0.7889723096447846,0.006334197482343165,0.6026109546778516,0.11976063567916245
-9113.353199720383,4736.0,-2956.0,15504.0,-172.0,-56.0,152.0,-0.7874707551725995,0.02679292918975365,0.6043044020091108,0.11827146065615204
-9113.368776321411,4608.0,-3080.0,15632.0,-140.0,-27.0,155.0,-0.7873037074619335,0.04489533946886564,0.6040973008465181,0.11490749244771156
-9113.384345054626,4480.0,-3352.0,15708.0,-96.0,27.0,65.0,-0.7890776414413212,0.05467457872449562,0.600838024828049,0.1155890744812385
-9113.399976968765,4416.0,-3528.0,15556.0,14.0,-145.0,65.0,-0.7822390875204129,0.05860410758821018,0.6104441165680359,0.10966106454203044
-9113.415564060211,4580.0,-3180.0,15424.0,81.0,-143.0,16.0,-0.7752263928517348,0.055311003469964155,0.6206873478878131,0.1034985453676827
-9113.431194543839,4860.0,-2968.0,15476.0,83.0,-118.0,58.0,-0.7698071585668689,0.053918031622472475,0.6289370675812023,0.09448782729812283
-9113.446817874908,4852.0,-2708.0,15600.0,2.0,-52.0,113.0,-0.767967517382127,0.06042922678396945,0.6317337020315701,0.08652589504715649
-9113.46244096756,4856.0,-2760.0,15672.0,-89.0,23.0,34.0,-0.7691132130634504,0.0681084065677812,0.6291726900720545,0.08926273866237806
-9113.478021621704,4576.0,-2888.0,15628.0,-204.0,4.0,-150.0,-0.7668823816393047,0.07353033794794976,0.6279085994165892,0.11052372103392737
-9113.493592739105,4600.0,-3060.0,15440.0,-215.0,-71.0,-325.0,-0.7581424230739479,0.07076727754605186,0.63215182467528,0.14351351617181163
-9113.509185552597,4156.0,-3104.0,15284.0,-119.0,-98.0,-391.0,-0.7467189107137613,0.05827307256882558,0.6389917622316389,0.17522740994475444
-9113.524787187576,4212.0,-3320.0,15512.0,84.0,-126.0,-421.0,-0.7332401286868316,0.031242450012617787,0.6499992999951811,0.19718958645502105
-9113.540380716324,4456.0,-3352.0,15792.0,223.0,-168.0,-421.0,-0.7164942960298026,-0.0039914574311489355,0.6649624492160925,0.2108196697579916
-9113.555988311768,4896.0,-3288.0,15948.0,325.0,-166.0,-511.0,-0.6964179220304034,-0.0508101819310061,0.6800047472520098,0.2236379820194308
-9113.571572065353,5024.0,-3028.0,15912.0,343.0,-47.0,-57.0,-0.6907882522916339,-0.0740482616429485,0.6888675268486185,0.2068573805717244
-9113.587158441544,4828.0,-2720.0,15772.0,359.0,19.0,0.0,-0.6893873729319596,-0.09594737072439694,0.6937525114220833,0.18505838264882435
-9113.602772712708,4608.0,-2560.0,15592.0,325.0,42.0,-70.0,-0.6878993384527783,-0.12032609624524852,0.6954848440633189,0.16916548819670715
-9113.618356227875,4296.0,-2660.0,15552.0,252.0,35.0,-190.0,-0.6844231150686213,-0.14740583666860707,0.6947398128971491,0.16484268637530428
-9113.634004592896,4180.0,-2912.0,15492.0,239.0,-92.0,-405.0,-0.6694702521014225,-0.1847093015670663,0.6977583869491307,0.17557132142810636
-9113.649598121643,4432.0,-3352.0,15420.0,326.0,-218.0,-375.0,-0.6445807603521696,-0.2229535040913684,0.7085686035227639,0.18093621113254055
-9113.665179491043,4704.0,-3504.0,15620.0,434.0,-343.0,-293.0,-0.609495034629607,-0.25963456857488876,0.7278614050535755,0.1769843738758324
-9113.680760860443,4816.0,-3420.0,15640.0,459.0,-377.0,-123.0,-0.572545418346387,-0.2855931805607648,0.7511089542268382,0.16267642124171725
-9113.696355819702,4928.0,-3236.0,15724.0,477.0,-271.0,96.0,-0.5437099283901772,-0.2988902712808901,0.7728537522127754,0.13319608550636305
-9113.711982488632,4832.0,-3164.0,15624.0,430.0,-105.0,104.0,-0.5263004126443516,-0.3107750499774194,0.7848841272341156,0.10190020008743092
-9113.727569580078,4644.0,-3068.0,15804.0,399.0,16.0,43.0,-0.5167322288422926,-0.3260636030515712,0.788335228498783,0.07209644893110435
-9113.743135690689,4784.0,-2616.0,15468.0,475.0,-70.0,-61.0,-0.49766225453006363,-0.35089750819395443,0.7919965878996836,0.04409789013758347
-9113.758678913116,4856.0,-2856.0,15748.0,602.0,-69.0,-77.0,-0.4735742846949467,-0.38153142308557536,0.793787556325468,0.007904776834757796
-9113.774255990982,4832.0,-3048.0,15944.0,536.0,-85.0,-170.0,-0.44924875894319627,-0.41486760158273916,0.7910024281427551,-0.019380000445029504
-9113.789844751358,4752.0,-3156.0,16024.0,455.0,-122.0,-173.0,-0.4243140236239715,-0.444406640539038,0.7879677350858671,-0.03958782217413039
-9113.805429697037,4716.0,-3324.0,16052.0,403.0,-112.0,-193.0,-0.40139524769432705,-0.47258584001794224,0.782579315388584,-0.05580406856924595
-9113.820996522903,4712.0,-3020.0,15576.0,425.0,-41.0,-6.0,-0.3808992855355134,-0.4877213061042821,0.7811329784735793,-0.08291520844491235
-9113.836579322815,4680.0,-2892.0,15536.0,437.0,-113.0,-269.0,-0.3562313453698989,-0.5208396236748749,0.7694447371748995,-0.09889444585018924
-9113.852149248123,4672.0,-3012.0,15188.0,490.0,-232.0,-352.0,-0.3209637173235946,-0.5608077366992317,0.7552066231722742,-0.11018135476039213
-9113.867795705795,4676.0,-3132.0,15148.0,514.0,-477.0,-300.0,-0.2667084754688027,-0.5982301182179729,0.7472744028612512,-0.1121083475856178
-9113.883409023285,4864.0,-3428.0,15256.0,542.0,-594.0,-130.0,-0.20047134843355932,-0.6235523289808329,0.7471170100476339,-0.11318084986999015
-9113.899029970169,5052.0,-3628.0,15496.0,608.0,-618.0,98.0,-0.12577688303238727,-0.6320648753433541,0.7550678195597987,-0.12060993705768397
-9113.91465973854,4944.0,-3608.0,15632.0,661.0,-429.0,369.0,-0.05700623960124827,-0.6177296629465296,0.7709529560224379,-0.14419393802361186
-9113.93032169342,4708.0,-3380.0,15368.0,687.0,-511.0,473.0,0.02029338035821594,-0.5935818935061185,0.7874828266110538,-0.16468002977894092
-9113.94598197937,4488.0,-2864.0,15436.0,724.0,-23.0,483.0,0.06613554841432091,-0.5578136921087461,0.79974520954885,-0.2118432768241938
-9113.961587190628,4320.0,-2644.0,15324.0,756.0,-395.0,384.0,0.13716829411835735,-0.5321693036989529,0.7995076268590614,-0.24242162833258776
-9113.977165937424,4372.0,-2588.0,15236.0,1016.0,-600.0,1.0,0.22508100699723022,-0.5298220314419975,0.7667911281114843,-0.2840044385873309
-9113.992799043655,4560.0,-2508.0,15200.0,772.0,-745.0,192.0,0.31401601281032626,-0.5179247234434518,0.7385286992182859,-0.29618116917804804
-9114.008380889893,4696.0,-3060.0,15500.0,521.0,-815.0,236.0,0.3947608572174562,-0.5075757232213323,0.71066829430431,-0.28544934099745856
-9114.024002552032,4984.0,-3020.0,15720.0,811.0,-639.0,271.0,0.47507388422756763,-0.4766598155092059,0.6774613748491874,-0.296894443179912
-9114.039585351944,4896.0,-3252.0,15688.0,809.0,-401.0,320.0,0.5389154636043947,-0.43304830855555165,0.6508412833908515,-0.31375931759771747
-9114.055188179016,5088.0,-2836.0,15696.0,912.0,-288.0,271.0,0.5949973459035468,-0.3811825371275637,0.6201451496188601,-0.34073160282094483
-9114.070818901062,4824.0,-2892.0,15620.0,1020.0,-380.0,182.0,0.6519635712731936,-0.3281118694340466,0.573367569393663,-0.3722038866492419
-9114.086443901062,4876.0,-2776.0,15364.0,1025.0,-287.0,98.0,0.6959080973793706,-0.2729878492842795,0.5241315105544795,-0.408014354880864
-9114.102072954178,4860.0,-2588.0,15768.0,1064.0,-287.0,28.0,0.7320686198145905,-0.21627236412768572,0.46715327279742624,-0.4461721866186148
-9114.117665529251,4728.0,-2572.0,16076.0,1076.0,-266.0,-59.0,0.7574388309341039,-0.15951618700598383,0.40504891175982377,-0.4865967350470333
-9114.133318901062,4620.0,-2756.0,15744.0,1116.0,-163.0,-46.0,0.7730896194142353,-0.09383241447357873,0.34434026434108894,-0.5243640917354281
-9114.148906946182,4544.0,-2908.0,15848.0,1133.0,-87.0,-121.0,0.7756335119321377,-0.024919961427315063,0.283963144083068,-0.5631488111438558
-9114.164527893066,4412.0,-2860.0,15436.0,1142.0,-149.0,-64.0,0.7747754263330217,0.04315534439732748,0.21625364260865715,-0.5925327139145314
-9114.180151462555,4396.0,-2784.0,15352.0,1159.0,-220.0,-46.0,0.7681409712181189,0.10852660513845565,0.1406314254963614,-0.6151456953243422
-9114.195798873901,4544.0,-3056.0,15416.0,1138.0,-270.0,-143.0,0.7490791518999329,0.16743176925044218,0.0622879396190715,-0.6379398399634205
-9114.211428880692,4548.0,-2876.0,15724.0,1054.0,-311.0,-182.0,0.7218775591648188,0.2167260972746403,-0.014100231754986528,-0.6570569014924068
-9114.227014780045,4632.0,-2972.0,16052.0,1121.0,-299.0,-202.0,0.6851759347843819,0.2687519797000892,-0.09294070102020534,-0.670573141345151
-9114.24265909195,4832.0,-3036.0,16336.0,1133.0,-341.0,-55.0,0.64923354366938,0.315053868988343,-0.17738690996309217,-0.6691567451529732
-9114.258246898651,4852.0,-2432.0,16868.0,1103.0,-581.0,75.0,0.61075875232133,0.3402176734513631,-0.2751132674948582,-0.6599533098504291
-9114.273838758469,4872.0,-2328.0,16200.0,782.0,-426.0,66.0,0.5794463153993454,0.35451531508576245,-0.34371389880289455,-0.6483992710587193
-9114.28942322731,4680.0,-2412.0,15376.0,1044.0,-305.0,43.0,0.5380994569847735,0.3868648501164928,-0.41760047223130475,-0.6216063124914569
-9114.305002212524,4860.0,-2396.0,15208.0,1058.0,-404.0,75.0,0.48941713883874727,0.4097699337030575,-0.49402841423873484,-0.5903349825045501
-9114.320588827133,4904.0,-2412.0,15252.0,1121.0,-463.0,182.0,0.4363330602798156,0.4234341342788472,-0.5747410855781645,-0.5477131356675745
-9114.33615398407,4988.0,-2212.0,15536.0,1043.0,-610.0,302.0,0.3794680302199148,0.4163155720092897,-0.6550950366566396,-0.5035234368839567
-9114.35177230835,5368.0,-2228.0,15544.0,973.0,-787.0,414.0,0.31530098885047203,0.3876646792940672,-0.7340944989577276,-0.45978978833565376
-9114.367338895798,5364.0,-2192.0,15476.0,972.0,-799.0,471.0,0.24848047977206159,0.34972817662816724,-0.8054871939268328,-0.40882518765905373
-9114.382920265198,5240.0,-2084.0,15452.0,1004.0,-1018.0,386.0,0.158766018630503,0.3054642815832948,-0.8679399984350714,-0.3580015127363972
-9114.398517608643,5200.0,-1996.0,15492.0,1064.0,-694.0,303.0,0.08676807099822852,0.27377397089827615,-0.9129641189494337,-0.28985450181896555
-9114.414150476456,5136.0,-1896.0,15720.0,1117.0,-486.0,164.0,0.025380819046045718,0.25539069660971225,-0.9434079221869075,-0.2100307083850828
-9114.429779529572,5072.0,-1696.0,15784.0,1068.0,-460.0,60.0,-0.03500566167192851,0.2431234165495613,-0.9603972599280032,-0.13153977002778475
-9114.445372581482,5076.0,-1500.0,15960.0,997.0,-498.0,-76.0,-0.09830641660794033,0.23959143085514262,-0.9641395713311395,-0.05802311356604564
-9114.46096277237,5112.0,-1476.0,15884.0,867.0,-557.0,-148.0,-0.16338910293114026,0.2407941045099014,-0.9567138908938865,0.004553157949449636
-9114.476557731628,5168.0,-1424.0,16008.0,873.0,-634.0,-512.0,-0.2332251283106517,0.26989389965637367,-0.9315109823700778,0.07106765914737845
-9114.492141246796,5128.0,-1528.0,15652.0,899.0,-643.0,-431.0,-0.3024154277290697,0.2890837255572893,-0.8978763665136485,0.13708952967170726
-9114.507817745209,5144.0,-1384.0,15468.0,917.0,-518.0,-624.0,-0.35668310017732074,0.31817420941163843,-0.8526060993142995,0.21119937955692264
-9114.523401737213,5232.0,-1332.0,15660.0,872.0,-303.0,-733.0,-0.3879237993519726,0.3493207706245368,-0.8024658794855791,0.28903051286680137
-9114.538994550705,5264.0,-1436.0,15664.0,782.0,-125.0,-790.0,-0.3987326040380742,0.3795249788433932,-0.7507945390746692,0.365076239991859
-9114.554622650146,5152.0,-1356.0,15728.0,739.0,-115.0,-690.0,-0.4071955252135164,0.4011014723069596,-0.6975735476294685,0.4320886006444922
-9114.570216655731,4864.0,-1152.0,15608.0,745.0,-181.0,-532.0,-0.4228710465315175,0.4124588574894354,-0.6422111352662696,0.48849014997628987
-9114.585787057877,5040.0,-952.0,15636.0,741.0,-161.0,-417.0,-0.4395767034110598,0.41414311078376076,-0.5878928924603581,0.538181895462128
-9114.601374864578,5144.0,-896.0,15820.0,648.0,-240.0,-342.0,-0.45824975887866704,0.41712637809390274,-0.5345643067113929,0.574677079041851
-9114.616976499557,5240.0,-1060.0,15980.0,565.0,-507.0,-391.0,-0.4815639562061152,0.43694733411083353,-0.47028119301479365,0.5966647155590254
-9114.632572174072,5228.0,-1216.0,15956.0,535.0,-158.0,-457.0,-0.4837312960112956,0.4405147698192001,-0.4173900206942402,0.6306634137598525
-9114.648158073425,5252.0,-1292.0,15676.0,529.0,-215.0,-547.0,-0.48068129254139474,0.44879988869768134,-0.3571683086098438,0.663291002675648
-9114.66381072998,5292.0,-1168.0,15552.0,472.0,-252.0,-553.0,-0.47397170560998164,0.4596974925669631,-0.2967906795246187,0.6898871865429356
-9114.679426670074,5472.0,-772.0,15704.0,490.0,-262.0,-570.0,-0.46499969232013943,0.4687262495450951,-0.2328668351699277,0.7140336310059257
-9114.695061683655,5512.0,-860.0,15676.0,543.0,-276.0,-563.0,-0.45656415360277136,0.47395507591607444,-0.1642202200897186,0.7348111859328611
-9114.710653305054,5452.0,-768.0,15768.0,555.0,-158.0,-504.0,-0.4484844024283618,0.46798771548408197,-0.10113001193512598,0.7547330386437754
-9114.726243257523,5268.0,-692.0,16108.0,580.0,-92.0,-426.0,-0.444060716665404,0.45400760203019924,-0.041738190135645795,0.7713268442739412
-9114.741819143295,5200.0,-828.0,15636.0,531.0,-165.0,-438.0,-0.43541433060635104,0.44507501133905425,0.01779846866739064,0.7823080016830073
-9114.757394075394,5196.0,-956.0,15548.0,379.0,-256.0,-766.0,-0.3962712106244557,0.44539583467019717,0.08294032931003026,0.7985690827114523
-9114.77296257019,5288.0,-1124.0,15580.0,318.0,-398.0,-559.0,-0.36603822527190416,0.45688733389552166,0.14026909947193128,0.7984951856454555
-9114.78854560852,5452.0,-1136.0,15632.0,315.0,-350.0,-555.0,-0.33501034482283987,0.46329724259890237,0.19507990631469171,0.7969112648307756
-9114.80412888527,5524.0,-1036.0,15744.0,287.0,-331.0,-537.0,-0.30312863863701767,0.46776072273519137,0.24589858024727304,0.7929986273233361
-9114.819750785828,5512.0,-940.0,15724.0,365.0,-263.0,-422.0,-0.2828239502506528,0.46642566326163437,0.29481963773486536,0.7845629962096373
-9114.83535027504,5484.0,-904.0,15828.0,350.0,-269.0,-446.0,-0.2592781335959031,0.46390529409470266,0.34295865466946807,0.7745618688892714
-9114.85094332695,5456.0,-848.0,16112.0,320.0,-337.0,-369.0,-0.23694070011833157,0.46766413245890404,0.3865264936011488,0.758779700297324
-9114.866554737091,5576.0,-876.0,15764.0,196.0,-420.0,-376.0,-0.2056483152302744,0.4780012158545831,0.4228526195362727,0.7419024667945255
-9114.882151842117,5548.0,-784.0,15652.0,138.0,-477.0,-434.0,-0.16547641652736192,0.4895046744822677,0.45759189257219046,0.7236106612574701
-9114.897792339325,5880.0,-792.0,15568.0,151.0,-397.0,-427.0,-0.12897557717187835,0.494592596235824,0.4903263632435706,0.7059203366883702
-9114.913401603699,5612.0,-1072.0,15440.0,290.0,-321.0,-437.0,-0.10073386441352505,0.49163899453548193,0.5298150040558572,0.683695728441936
-9114.929082393646,5664.0,-872.0,15608.0,292.0,-175.0,-410.0,-0.08066136882857317,0.4799861664440599,0.5656708875290216,0.6656751990296509
-9114.944741725922,5524.0,-888.0,15616.0,238.0,-23.0,-387.0,-0.06699991664954229,0.4601338171567843,0.5953184509594115,0.6552738537626602
-9114.960332155228,5556.0,-964.0,15972.0,178.0,81.0,-405.0,-0.05519143462722198,0.4330449004820351,0.6207271815743213,0.6512478681462942
-9114.97595000267,5516.0,-1032.0,15816.0,137.0,70.0,-385.0,-0.04228921064690703,0.40724957815343604,0.6422232011306712,0.6480036756733586
-9114.991524219513,5512.0,-1084.0,15776.0,189.0,94.0,-338.0,-0.035176777782872815,0.38203248691350916,0.6640938872522142,0.6417110581575926
-9115.007157802582,5472.0,-1044.0,15420.0,191.0,102.0,-281.0,-0.03174254398108969,0.3592532204497505,0.6834370950959355,0.6346993552422444
-9115.022775173187,5432.0,-1280.0,15500.0,110.0,77.0,-200.0,-0.028737502111912082,0.34266197019243155,0.695352389928305,0.6310641678761388
-9115.038362503052,5352.0,-1084.0,15784.0,97.0,91.0,-215.0,-0.025349665022801827,0.324265030125945,0.7066435743846188,0.6283824022850906
-9115.054012775421,5372.0,-1092.0,15584.0,46.0,74.0,-222.0,-0.019072001609636246,0.3063353676565945,0.7150496184992995,0.6280915095440373
-9115.069602489471,5412.0,-776.0,15544.0,63.0,37.0,-298.0,-0.006761066030395436,0.2854924697706375,0.7260683206471397,0.625518290254599
-9115.085187673569,5596.0,-920.0,15616.0,68.0,-87.0,-245.0,0.010397931108433841,0.274596936629614,0.7356554696901174,0.6191118116603079
-9115.100810050964,5596.0,-916.0,15684.0,15.0,-125.0,-278.0,0.03304554652397758,0.2634196719793236,0.7426746276055186,0.6147783875350868
-9115.116416215897,5624.0,-928.0,15672.0,-11.0,-40.0,-188.0,0.045945092848198275,0.2533117947727619,0.7461092395162394,0.6140384237005625
-9115.132058858871,5632.0,-944.0,15660.0,-248.0,19.0,-140.0,0.05765019641531349,0.2421070782395946,0.7356809086973775,0.6299477899776803
-9115.147655010223,5568.0,-1112.0,15612.0,14.0,16.0,-130.0,0.06344533654182691,0.23293684593931813,0.7391487366187662,0.6287879294562028
-9115.163276910782,5560.0,-1176.0,15424.0,26.0,57.0,-116.0,0.06557619346270717,0.2224573771260565,0.7431205376960314,0.6276817224258632
-9115.178855657578,5540.0,-1192.0,15528.0,12.0,64.0,-65.0,0.06472619885982533,0.21480131451940956,0.745302518369362,0.6278495604634752
-9115.19445681572,5736.0,-1140.0,15572.0,-45.0,48.0,-179.0,0.07222169270774778,0.20024984690603473,0.7462801206128802,0.6306742483204482
-9115.210052251816,5788.0,-1056.0,15684.0,-30.0,76.0,-144.0,0.07569014968460556,0.18648474640237653,0.7474657362603557,0.6330793107634521
-9115.225610256195,5772.0,-956.0,15820.0,-118.0,115.0,-220.0,0.08221791523729682,0.16495709395463512,0.7449892744635255,0.6411086900849061
-9115.241175889969,5668.0,-932.0,15928.0,-137.0,231.0,-219.0,0.08136498282395273,0.13675254161668876,0.7417098964558738,0.6515711100339323
-9115.25675368309,5584.0,-1032.0,16112.0,-39.0,398.0,-186.0,0.06657003441428389,0.10173391468484527,0.7439018206776749,0.6571367607381419
-9115.272342681885,5392.0,-1248.0,15560.0,250.0,367.0,-176.0,0.05054647780048065,0.0706619549555869,0.761193867421437,0.6426786427942163
-9115.287973880768,5364.0,-1400.0,15680.0,-10.0,329.0,-166.0,0.03801537083766181,0.041128887926982084,0.7626350274053508,0.6443997681039347
-9115.303587675095,5228.0,-1284.0,15620.0,-38.0,290.0,-113.0,0.025166773853365774,0.01718296491533788,0.7615018291735477,0.647446015800447
-9115.319197893143,5272.0,-1284.0,15396.0,-60.0,263.0,-182.0,0.018024695995867365,-0.00988179467139618,0.7585773870288434,0.6512586339979082
-9115.334796905518,5508.0,-1212.0,15600.0,-46.0,303.0,-249.0,0.01203919513677275,-0.04361321674564226,0.7556977153956161,0.6533558816230268
-9115.350415468216,5500.0,-1164.0,15756.0,-32.0,400.0,-180.0,-0.004230724500096861,-0.07824452777173724,0.7529763240145239,0.6533655564211789
-9115.366019487381,5412.0,-1132.0,15668.0,36.0,399.0,-179.0,-0.020019235650056658,-0.11266245544461759,0.7530329377127511,0.6479566313086708
-9115.381600379944,5508.0,-1156.0,15724.0,42.0,337.0,-249.0,-0.02769037526467872,-0.14802758536890814,0.7517923527692942,0.6419730020843252
-9115.397191286087,5464.0,-1376.0,15468.0,38.0,509.0,-360.0,-0.040403455952561965,-0.1999330903193319,0.7468644340068988,0.6329200876556265
-9115.412771701813,5280.0,-1512.0,15500.0,39.0,190.0,-271.0,-0.037155812321408126,-0.22809915347760162,0.7432437081056519,0.62783677190405
-9115.428356170654,5228.0,-1472.0,15608.0,136.0,163.0,-25.0,-0.043678090331233814,-0.23901296114134193,0.7494821459952599,0.6158259020744449
-9115.443974733353,5244.0,-1372.0,15816.0,224.0,107.0,214.0,-0.0575187844403075,-0.23148335135537346,0.7652124686732491,0.5979606385614239
-9115.459553956985,5280.0,-1212.0,15608.0,199.0,81.0,320.0,-0.07560518984962354,-0.2151751201595303,0.7811647523388171,0.5811756641804341
-9115.475117444992,5256.0,-780.0,15700.0,189.0,135.0,175.0,-0.09015006967786386,-0.21123379214762525,0.7928425261550457,0.564494445244677
-9115.490708589554,5500.0,-904.0,15668.0,137.0,238.0,20.0,-0.10509438054184261,-0.22255628878202663,0.7978105935465288,0.5503836174224601
-9115.506291866302,5440.0,-804.0,15836.0,99.0,444.0,240.0,-0.145521978668038,-0.22781811231094135,0.8023011772119896,0.5321983488060384
-9115.521888256073,5452.0,-984.0,15756.0,173.0,448.0,-83.0,-0.16949937966734296,-0.2563760494639618,0.8022266392621529,0.5118336651801929
-9115.537503004074,5632.0,-932.0,15856.0,227.0,353.0,-113.0,-0.18401338341648865,-0.28318223603520726,0.8039979805473141,0.489422254493558
-9115.553109645844,5808.0,-1064.0,15984.0,229.0,431.0,-178.0,-0.20084780364754298,-0.31740758162226873,0.8015981474085404,0.46513761078830945
-9115.568736553192,6032.0,-1168.0,15924.0,371.0,510.0,-172.0,-0.21897533927514953,-0.35604341219432706,0.8016194211366596,0.42742156365686573
-9115.58433008194,6160.0,-1000.0,15740.0,525.0,601.0,272.0,-0.2542381021793339,-0.3684407382506731,0.8159401191207734,0.3658635426039711
-9115.599967718124,6016.0,-840.0,15832.0,692.0,838.0,659.0,-0.31087601973815615,-0.3613773156276236,0.8354867623584045,0.2733576522166619
-9115.615550994873,5644.0,-648.0,15580.0,589.0,1006.0,1007.0,-0.3862914616326639,-0.3249715606399623,0.846362346225844,0.1698327716785315
-9115.631128787994,5440.0,-452.0,15200.0,433.0,989.0,1169.0,-0.46007272122234194,-0.26529320357951697,0.8444486902357148,0.06970664875585458
-9115.64669919014,5464.0,-476.0,14984.0,411.0,718.0,1288.0,-0.5069047215431857,-0.18951424431692587,0.840421682013538,-0.028694091373407574
-9115.662258386612,5612.0,-204.0,14976.0,452.0,416.0,1261.0,-0.5229806884464915,-0.11508459700310057,0.8354423056638172,-0.12362398210619462
-9115.677819252014,5436.0,-300.0,15152.0,370.0,210.0,1265.0,-0.5175278152857865,-0.037195560583170605,0.8288961084112701,-0.20907580476725748
-9115.693395137787,5292.0,-328.0,15312.0,271.0,-35.0,1304.0,-0.48713424915789183,0.04397656408036693,0.8241397744189481,-0.28558696981786025
-9115.708991765976,5076.0,-336.0,15276.0,179.0,-456.0,1362.0,-0.4178392199175562,0.1219972416760643,0.827197512815561,-0.3553467800809091
-9115.724593400955,4912.0,-768.0,15196.0,144.0,-867.0,1446.0,-0.30865576673558753,0.1921587890189274,0.8298945245713613,-0.4231804527032409
-9115.740159988403,4932.0,-1156.0,15164.0,160.0,-1132.0,1464.0,-0.17306695275325304,0.24881345826887025,0.8191818166125527,-0.4869094825327872
-9115.755781412125,5064.0,-1296.0,15312.0,80.0,-1231.0,1483.0,-0.0234691360265819,0.29711722167091015,0.7909928356511614,-0.534322833303294
-9115.77135848999,5016.0,-1336.0,15420.0,83.0,-1075.0,1489.0,0.11653269243032335,0.3451680191597638,0.7411815306916153,-0.5638520273138146
-9115.786945581436,4876.0,-1208.0,15360.0,157.0,-875.0,1485.0,0.23878765892524495,0.39525012582830266,0.6721363892119967,-0.5787836091967107
-9115.80260181427,4352.0,-1216.0,15264.0,315.0,-555.0,1321.0,0.3245860532858928,0.44757634515626343,0.5941697226045447,-0.5841931615560794
-9115.818204641342,4680.0,-1536.0,15420.0,400.0,-246.0,991.0,0.3705853511621195,0.4954376005704713,0.5256256210341835,-0.58388850644404
-9115.833800554276,4956.0,-1752.0,16008.0,449.0,-153.0,768.0,0.39613730417719833,0.5356708709026572,0.4630883554898533,-0.5845349684281631
-9115.849380493164,5148.0,-1516.0,16844.0,369.0,-105.0,668.0,0.41631384723408693,0.5687154416827003,0.4084194444510251,-0.5800336924585677
-9115.86497426033,5700.0,-1196.0,17376.0,72.0,-208.0,696.0,0.4545209352110187,0.5843487963639897,0.36187842000531634,-0.5665608641419857
-9115.88056397438,5896.0,-1524.0,17064.0,-294.0,-176.0,738.0,0.51034386609398,0.5857308999922907,0.33090905925313574,-0.5356936117209873
-9115.896112680435,5812.0,-1968.0,16288.0,-568.0,173.0,656.0,0.5634484801872562,0.5856318594969712,0.3306036639019154,-0.479856596006995
-9115.911796092987,5768.0,-2544.0,15092.0,-591.0,256.0,586.0,0.6091306938176522,0.5824300707658305,0.3369747766642685,-0.4197415995693087
-9115.927471637726,5956.0,-3096.0,14196.0,-435.0,-49.0,572.0,0.6524290723321335,0.57311146726812,0.3205448703210506,-0.3783259676158576
-9115.943118572235,5908.0,-3324.0,14172.0,-213.0,-354.0,672.0,0.6936162427247171,0.5666579824478788,0.27309912989624413,-0.35101581731662806
-9115.958717823029,6556.0,-3352.0,14936.0,-211.0,-817.0,1010.0,0.7496249528429331,0.549208472158121,0.17890055970330354,-0.3231517815560018
-9115.974316120148,7140.0,-3376.0,15876.0,-499.0,-1235.0,1574.0,0.8240696066903218,0.4981606322518383,0.036058247658592155,-0.2672921072151191
-9115.989974498749,7624.0,-3140.0,16660.0,-522.0,-1326.0,2157.0,0.8792365727004503,0.4255834616322621,-0.13754652543802354,-0.1640204857662409
-9116.005636453629,7480.0,-2852.0,16440.0,-867.0,-1068.0,2654.0,0.906338314476256,0.30157161980636055,-0.2958114125097226,-0.010051172504237734
-9116.021239042282,7152.0,-2680.0,15472.0,-830.0,-693.0,2855.0,0.8820749369337044,0.15590809097979275,-0.41067251933787097,0.17024850854302395
-9116.036885499954,6068.0,-2676.0,14448.0,-685.0,-463.0,2691.0,0.8107709298427209,0.013038361037268815,-0.47871134459805337,0.3366243440640554
-9116.052503824234,5152.0,-2484.0,14028.0,-630.0,-448.0,2263.0,0.7110582416641508,-0.11057733829534241,-0.5200927387126049,0.46007865887848554
-9116.068078279495,4612.0,-2272.0,13900.0,-561.0,-718.0,1766.0,0.5933848384153011,-0.193779015984268,-0.5615931627336628,0.5430996649546175
-9116.08365225792,5312.0,-2408.0,14416.0,-348.0,-973.0,1409.0,0.4677116446337872,-0.23197670270538032,-0.5976219073459041,0.6085069290781668
-9116.099268436432,5660.0,-2632.0,14632.0,-11.0,-1195.0,1363.0,0.32876510774669643,-0.23701575887907925,-0.6116814593259434,0.6793988712738356
-9116.114874124527,5944.0,-3112.0,14788.0,219.0,-1427.0,1684.0,0.1544535776300967,-0.23162434423880435,-0.5936830603376194,0.7550064101591233
-9116.130449295044,5844.0,-3448.0,14748.0,368.0,-1516.0,1798.0,-0.03436311087523257,-0.21522967484003064,-0.5418433756487692,0.8117272447964143
-9116.146030664444,5740.0,-3600.0,14164.0,484.0,-1622.0,2294.0,-0.2566510422897707,-0.20391247190728126,-0.44587921560256816,0.8329115627639437
-9116.161637544632,6260.0,-3348.0,13992.0,594.0,-1916.0,2630.0,-0.49174373412795847,-0.1730530359559927,-0.300560565801065,0.7986889838839956
-9116.177221536636,6760.0,-3580.0,14064.0,743.0,-1996.0,2992.0,-0.7060629568449138,-0.13719831574137942,-0.11214119683572694,0.6856209412652133
-9116.19280385971,7048.0,-3748.0,14260.0,889.0,-1955.0,3495.0,-0.8696354108943245,-0.10255047142263067,0.09744847396849275,0.4729920166883028
-9116.208419322968,6940.0,-3636.0,14368.0,810.0,-1956.0,3894.0,-0.9387170349187257,-0.046491818048847125,0.2930673025962058,0.17538641725314097
-9116.224061965942,6736.0,-2976.0,14440.0,806.0,-2136.0,3945.0,-0.8745960861147042,0.01982510023681682,0.4611220676065379,-0.14850956305811583
-9116.239632844925,6776.0,-2376.0,14308.0,798.0,-2551.0,3690.0,-0.6742365948701211,0.06911199901450425,0.59371367012391,-0.4337425776173701
-9116.255260944366,6888.0,-2576.0,14400.0,785.0,-2148.0,3286.0,-0.41854663231893446,0.10557376245753425,0.6329139996591271,-0.6427229312001597
-9116.270855903625,6328.0,-3172.0,14612.0,846.0,-2365.0,2821.0,-0.13059869883856676,0.09284885698702616,0.6132650529022771,-0.7734526776129509
-9116.286454677582,6152.0,-3392.0,14700.0,991.0,-3042.0,3056.0,0.2149944760279656,0.03701823320176673,0.5187962047943109,-0.8265939290722499
-9116.302051067352,6716.0,-3384.0,14584.0,1303.0,-3367.0,3171.0,0.5459287251247467,-0.03501874081882734,0.3238536387848514,-0.7719160158468947
-9116.317662239075,7216.0,-3428.0,14288.0,1535.0,-2881.0,3673.0,0.808274410849241,-0.04807653161734312,0.08653529187111686,-0.5804246438037755
-9116.333332777023,7216.0,-2956.0,14304.0,1297.0,-1897.0,3971.0,0.9554134064050829,-0.021253121455587748,-0.08964486370951005,-0.2805304370301617
-9116.34893655777,6812.0,-2000.0,14016.0,1304.0,-1620.0,3954.0,0.9707410760557553,0.015513222330358454,-0.23248014029324662,0.0580868966314776
-9116.3645465374,6660.0,-1500.0,14152.0,1406.0,-1877.0,3478.0,0.8574954259689878,0.06880264900722133,-0.36529440430133026,0.3557074473749313
-9116.380111694336,7060.0,-1808.0,14756.0,1485.0,-1804.0,2934.0,0.6653288254717153,0.13528666738147926,-0.4481970169652304,0.5815105378311816
-9116.395743131638,7228.0,-2584.0,15136.0,1705.0,-1462.0,2556.0,0.4393894876810835,0.19984570045177352,-0.45681886572852076,0.7472048568102343
-9116.411303043365,7052.0,-2852.0,14928.0,1897.0,-1253.0,2089.0,0.2125820935585622,0.2616476918544206,-0.4030148542173695,0.8508398005063381
-9116.42689371109,6732.0,-2680.0,14908.0,2141.0,-1404.0,2069.0,-0.037774966114531884,0.3198593704627579,-0.3047798120966695,0.8963103821782569
-9116.442486047745,7040.0,-2844.0,15080.0,2275.0,-1456.0,2074.0,-0.28971383426272446,0.355617377341375,-0.1722430922711382,0.8717422166756116
-9116.458062410355,7588.0,-2712.0,14824.0,2485.0,-1027.0,2043.0,-0.5157629924826734,0.3261871786028693,-0.019567539600467254,0.7919643751422168
-9116.473667860031,7768.0,-2164.0,14088.0,2689.0,-539.0,2019.0,-0.7023784291971917,0.22886271964743052,0.1277708490454867,0.6617862252179799
-9116.489263534546,7544.0,-2040.0,14092.0,2692.0,-98.0,1775.0,-0.8254634121686438,0.08566782018843057,0.24435471330253064,0.501559521733862
-9116.504877567291,7472.0,-2140.0,15580.0,2373.0,562.0,1401.0,-0.8901930715294305,-0.07749619908791246,0.2884887729803484,0.3439838112356706
-9116.520520687103,7128.0,-2100.0,17372.0,1811.0,948.0,837.0,-0.910287831341249,-0.2212743794636664,0.26975690840854016,0.22281140785624398
-9116.5361058712,6792.0,-2184.0,18836.0,1383.0,1607.0,465.0,-0.9143037343585355,-0.3450800511953891,0.17476824375290187,0.12010204236627543
-9116.551712274551,6472.0,-2048.0,19536.0,1030.0,2405.0,81.0,-0.8977970241059507,-0.4396931027987794,-0.003827767316941373,0.024815862972070894
-9116.567277431488,6400.0,-2004.0,19076.0,970.0,3012.0,-581.0,-0.8264636881163505,-0.5024227285199018,-0.25031013548309267,-0.043289839063834906
-9116.58287024498,6560.0,-2108.0,18136.0,1313.0,3468.0,-791.0,-0.6609629152461938,-0.5379670500170849,-0.5127177363050323,-0.10411532376846089
-9116.598443984985,6696.0,-2204.0,17204.0,1769.0,4091.0,-1247.0,-0.3766379288043131,-0.5071886433518957,-0.7634080855062265,-0.13457951413413025
-9116.614019155502,6748.0,-1968.0,17120.0,2132.0,4716.0,-965.0,0.01878147973538941,-0.4157689081976658,-0.8961212678035657,-0.1541108185209595
-9116.629585266113,6276.0,-1648.0,16552.0,2338.0,4758.0,-541.0,0.42487045885459773,-0.27708946651852,-0.8517421257704499,-0.13130830866780888
-9116.645154476166,5672.0,-1436.0,16352.0,2322.0,4569.0,81.0,0.7500751547113067,-0.13199375811451666,-0.6452242282623906,-0.06042023971169079
-9116.660726308823,5196.0,-1776.0,16012.0,2299.0,4539.0,576.0,0.945180869485755,0.009171931985641391,-0.3226074292567084,0.0497337532283756
-9116.676300525665,5012.0,-1584.0,15928.0,1792.0,4854.0,1015.0,0.9774577912504873,0.09744886249348397,0.07725703549046624,0.1706204442312524
-9116.6919298172,4668.0,-2204.0,16164.0,1781.0,4458.0,1306.0,0.837406372115368,0.17580261770327757,0.43362841346786685,0.2825073566875627
-9116.707538604736,4316.0,-2164.0,16460.0,1862.0,4198.0,1414.0,0.5673222746305151,0.24148445928198628,0.705064320633695,0.3503070030740056
-9116.723124742508,3628.0,-1528.0,16344.0,2163.0,4155.0,1197.0,0.21141533072468344,0.2719809476026025,0.8768091585420291,0.33546329392734203
-9116.738700389862,3384.0,-180.0,16372.0,2495.0,4433.0,1005.0,-0.19727522258101315,0.24154446227232726,0.9181341928740517,0.24447569035938438
-9116.754289865494,3232.0,1200.0,15768.0,2682.0,4719.0,685.0,-0.5835657907425735,0.13494346962861517,0.7937523768506728,0.10582245566747019
-9116.76991200447,2864.0,1352.0,15280.0,2638.0,4872.0,370.0,-0.8599922040303274,-0.01694087046459196,0.5088544993257512,-0.03454727819815522
-9116.785528182983,2508.0,844.0,15304.0,2579.0,5447.0,496.0,-0.969830566289737,-0.15217676400134234,0.08200237425015386,-0.17189099978051606
-9116.801176309586,1904.0,584.0,15860.0,2307.0,5550.0,736.0,-0.855762145810218,-0.2286507943861441,-0.36484561299053503,-0.28684079679577823
-9116.816752195358,1704.0,436.0,15712.0,2653.0,5665.0,995.0,-0.5230243966346891,-0.277080356806707,-0.7302662869894099,-0.34114968339936713
-9116.83231663704,1464.0,492.0,15628.0,2807.0,5472.0,1017.0,-0.0668412229972199,-0.26975590669198574,-0.9126940410270157,-0.2995890338226633
-9116.847911119461,1360.0,704.0,15032.0,2671.0,4945.0,824.0,0.368744985837462,-0.19859175707852583,-0.8887251619476497,-0.18642970782929766
-9116.863488912582,1412.0,864.0,14856.0,2550.0,4317.0,556.0,0.6927679837622356,-0.08179732972769087,-0.7152915060467223,-0.04171065692167772
-9116.879088401794,1644.0,888.0,15508.0,1925.0,3931.0,264.0,0.8900136772926046,0.03031427307702617,-0.4506830138714771,0.061979997480067515
-9116.894656896591,1432.0,1168.0,16564.0,1819.0,3921.0,651.0,0.9679001604897317,0.11660141719134332,-0.12868859940765603,0.18169378969964206
-9116.91027545929,1156.0,1512.0,16912.0,1851.0,4350.0,617.0,0.9122929557059493,0.18176555646951353,0.24197549525547493,0.27591793190457625
-9116.926002502441,1004.0,1756.0,17140.0,1550.0,4057.0,173.0,0.7461090619978288,0.1973179235745202,0.5604389745036265,0.30049136509770696
-9116.941607952118,924.0,1800.0,16604.0,1584.0,3759.0,-610.0,0.5184829105059295,0.16184865694369457,0.8065334624961787,0.23341863171723787
-9116.95720410347,920.0,1364.0,15904.0,1287.0,3097.0,-1033.0,0.2900827080568574,0.08056709979110681,0.9441815429904018,0.13372426404326948
-9116.972794771194,1384.0,964.0,15124.0,1178.0,2349.0,-1845.0,0.1056935751170956,-0.06652808183287284,0.9921512991470269,0.00621949414920939
-9116.988408088684,2044.0,248.0,15516.0,1174.0,2071.0,-1673.0,-0.06391347757953812,-0.19551102788145722,0.9713373493553638,-0.11913966219409114
-9117.004059314728,1688.0,236.0,16412.0,1318.0,2209.0,-945.0,-0.23202587204690722,-0.25288306654668136,0.9036691523271055,-0.2561175755141172
-9117.019688367844,1244.0,880.0,17564.0,1301.0,2646.0,-327.0,-0.4059928266204189,-0.23801260066354268,0.7877487163014011,-0.39745664747697174
-9117.03530907631,940.0,1416.0,17416.0,1090.0,2768.0,-248.0,-0.5635283745514016,-0.19125565572633446,0.625704776788478,-0.5043318129289746
-9117.05088877678,880.0,1204.0,16144.0,735.0,2651.0,-879.0,-0.7125151178789421,-0.15386800384767246,0.43453105837535466,-0.5289892281446608
-9117.066450595856,1028.0,416.0,14952.0,563.0,1963.0,-1051.0,-0.8118392904054816,-0.13535135156272343,0.2668172826644793,-0.5014035459144773
-9117.082028388977,1036.0,-248.0,14948.0,564.0,928.0,-1336.0,-0.8754764789379353,-0.16384694724219212,0.15857466214088364,-0.42608589419593956
-9117.097605228424,1612.0,-396.0,16308.0,722.0,566.0,-855.0,-0.8994630954358497,-0.2083170335309309,0.07562911626961537,-0.37663030980274237
-9117.113188743591,1492.0,588.0,17568.0,940.0,752.0,-320.0,-0.8926612955246649,-0.2577014283562428,-0.020074030142344216,-0.3692462844893951
-9117.128775119781,1208.0,1324.0,17800.0,977.0,784.0,-510.0,-0.8797250074016111,-0.30526948518112146,-0.12321155578844438,-0.3430938141233088
-9117.144368886948,912.0,1916.0,17308.0,718.0,1174.0,-947.0,-0.8672552320698012,-0.3115441343514504,-0.25725600263802073,-0.29090885841697456
-9117.16004037857,1208.0,1564.0,16272.0,518.0,883.0,-1553.0,-0.861602583190859,-0.28952526125959166,-0.3744178547209225,-0.18337770256382424
-9117.175640821457,1508.0,672.0,15668.0,358.0,381.0,-1841.0,-0.8577972554599331,-0.24666698319965064,-0.44894333251450214,-0.04229837012655003
-9117.19125533104,2044.0,-76.0,16156.0,381.0,107.0,-1556.0,-0.8430187843387686,-0.211680930888649,-0.48694696857718694,0.08598350157784901
-9117.206834554672,1980.0,-496.0,17172.0,568.0,141.0,-850.0,-0.8169534797131198,-0.21746079860294773,-0.506560205290632,0.1693947209080195
-9117.222432136536,1672.0,212.0,17296.0,530.0,303.0,-407.0,-0.7859781482500112,-0.24118787819904125,-0.5268290033538519,0.21568022419432653
-9117.23802614212,1340.0,1204.0,17404.0,931.0,581.0,-403.0,-0.7284041537840116,-0.29588279135479945,-0.5546297292250038,0.27251903784889836
-9117.253597259521,1056.0,1564.0,17124.0,779.0,743.0,-806.0,-0.6487967125321802,-0.3218108277184665,-0.5999233430525825,0.3399891166364069
-9117.26917052269,1064.0,1408.0,17276.0,634.0,764.0,-1273.0,-0.547885498837909,-0.31061611997039257,-0.6535835770084121,0.41972325887727924
-9117.284751653671,1276.0,1164.0,17360.0,454.0,593.0,-1529.0,-0.44096854100021754,-0.2638920715813079,-0.6990164225083594,0.4972763431617074
-9117.300323009491,1408.0,556.0,17220.0,451.0,533.0,-1374.0,-0.3354541261727117,-0.21854964260712437,-0.7249978249032788,0.560432633628267
-9117.31594824791,1172.0,184.0,17380.0,484.0,575.0,-923.0,-0.243411331748703,-0.20132772689177175,-0.7317486458779773,0.603955287431662
-9117.33152794838,868.0,336.0,16776.0,615.0,685.0,-582.0,-0.15748697709651224,-0.2123510442220397,-0.7207784755599124,0.6407677233072377
-9117.347129583359,600.0,704.0,16376.0,694.0,707.0,-483.0,-0.07280823356875002,-0.22996024925325106,-0.6973291593361355,0.6749439150237151
-9117.362711668015,500.0,920.0,15912.0,663.0,619.0,-609.0,0.013987633381793508,-0.23248834572345672,-0.6712906388304527,0.7036493398232887
-9117.37830710411,760.0,1000.0,15840.0,501.0,412.0,-882.0,0.10201248857281343,-0.20453095779848926,-0.6548338749337527,0.7203840196148581
-9117.393926382065,1036.0,904.0,15728.0,376.0,174.0,-1106.0,0.1872479286169736,-0.14807938246886523,-0.6458570340175727,0.7251754279664446
-9117.409529924393,1124.0,856.0,15656.0,294.0,14.0,-979.0,0.25283781231170205,-0.08857849737266413,-0.6370232175348515,0.7227920245756579
-9117.425158262253,1252.0,644.0,16180.0,246.0,26.0,-1020.0,0.3192464922773165,-0.02792541790983475,-0.6260647369789147,0.7108760745127891
-9117.440748214722,1068.0,688.0,16232.0,243.0,112.0,-429.0,0.352288060605378,-0.004637723790363992,-0.6081812908681852,0.7113277242669893
-9117.456332683563,812.0,880.0,16100.0,289.0,104.0,-220.0,0.3714379595477207,0.009477317060220555,-0.586663805879416,0.719562090121099
-9117.471919059753,708.0,1228.0,16036.0,351.0,42.0,-283.0,0.39082371738852684,0.0326956787638683,-0.562428966340579,0.7279158415214296
-9117.487500190735,748.0,1048.0,15992.0,346.0,-115.0,-536.0,0.4176366327594817,0.07799916365443015,-0.5418081226362211,0.725217023856959
-9117.503072738647,772.0,824.0,15944.0,494.0,-266.0,-683.0,0.4436703653459762,0.144706670816621,-0.513885909053901,0.7198179344881482
-9117.518682479858,1472.0,456.0,15976.0,58.0,-314.0,-767.0,0.4758629446362407,0.20052949510396284,-0.5112001000053175,0.6870348151804458
-9117.53424167633,1592.0,88.0,16212.0,80.0,-404.0,-561.0,0.4892485503927446,0.2525978265729129,-0.5122598619411252,0.6591054754690616
-9117.549822330475,1284.0,-56.0,16576.0,178.0,-762.0,-399.0,0.47289313835291363,0.32087650860185374,-0.5240839936622703,0.6314636280208245
-9117.565410852432,1532.0,184.0,16772.0,0.0,-590.0,-228.0,0.457847388603669,0.3632087363861029,-0.5411069319876045,0.6046970073653195
-9117.580995798111,1568.0,548.0,17084.0,6.0,-631.0,-265.0,0.44113000131827934,0.4084825836026103,-0.5565080733659961,0.5734501417810779
-9117.596565485,1636.0,932.0,16992.0,168.0,-605.0,-329.0,0.42148831388000996,0.4602817277491918,-0.5585025213641642,0.5464094307318242
-9117.61217713356,1416.0,1060.0,16824.0,76.0,-475.0,-395.0,0.4135808039932058,0.5041927960031454,-0.5555839742868341,0.5158168187860013
-9117.627838850021,1320.0,916.0,16692.0,132.0,-367.0,-454.0,0.4099267248750658,0.5467013941912252,-0.5420998337906258,0.489086327785544
-9117.643432855606,1392.0,520.0,16604.0,146.0,-293.0,-478.0,0.4090480545588678,0.5862499280790255,-0.5228115347109648,0.4643907945492769
-9117.659052610397,1568.0,400.0,16364.0,156.0,-414.0,-462.0,0.40034529836907357,0.628653727700981,-0.5067861357206193,0.43322735989639505
-9117.674646615982,1704.0,260.0,16308.0,157.0,-629.0,-360.0,0.3767981354428314,0.6723962843981003,-0.5019825543135664,0.3923262889729188
-9117.690237283707,1772.0,348.0,16128.0,96.0,-746.0,-474.0,0.3537102100990661,0.7196668625851359,-0.49389274472997197,0.3362122110685991
-9117.705819368362,1980.0,472.0,16428.0,53.0,-748.0,-543.0,0.33304639831592636,0.7641414279836652,-0.4797320635415988,0.27390714086710816
-9117.721416711807,1956.0,668.0,16480.0,27.0,-653.0,-585.0,0.3170203657380552,0.8026613965322021,-0.457691318625529,0.21389583230888148
-9117.737002372742,1708.0,676.0,16564.0,13.0,-438.0,-596.0,0.3091522987421544,0.8332534704571449,-0.42690732533784514,0.1669240717405762
-9117.752577543259,1604.0,400.0,16548.0,95.0,-373.0,-499.0,0.29522179462997467,0.858530508127334,-0.39868093040041713,0.1297034090729174
-9117.768150091171,1684.0,60.0,16284.0,148.0,-348.0,-308.0,0.2753081482657971,0.8761933263274004,-0.3825381289176192,0.10077330163287432
-9117.783801317215,1776.0,84.0,16336.0,228.0,-366.0,-134.0,0.24668299797903076,0.8886631853518916,-0.3787810838883415,0.07713709870535834
-9117.799427747726,1872.0,280.0,16264.0,241.0,-380.0,17.0,0.21518684339306274,0.8951473036992036,-0.3863588795933454,0.055970914499855216
-9117.815049886703,1876.0,524.0,16448.0,255.0,-487.0,35.0,0.17849959489666115,0.9000885841115903,-0.3965360181132893,0.027159192045744407
-9117.83064365387,1784.0,876.0,16740.0,241.0,-481.0,-43.0,0.14289348259709314,0.9054631287030845,-0.39963643920162756,-0.0029481609080080056
-9117.846221923828,1496.0,1132.0,16832.0,223.0,-412.0,-130.0,0.1107921211539717,0.9118497576738578,-0.3942019222342598,-0.029325242149807574
-9117.861809015274,1424.0,1220.0,17096.0,147.0,-363.0,-213.0,0.08601531396760222,0.9189739245050906,-0.38084562430114527,-0.055180633318564196
-9117.87737607956,1272.0,1036.0,16668.0,37.0,-432.0,-383.0,0.06677610053908095,0.9287184358792877,-0.35309255476618556,-0.09137104039799572
-9117.892961025238,1512.0,664.0,16628.0,-32.0,-511.0,-427.0,0.050145746123165455,0.9360314344043354,-0.32065555920926175,-0.13605355673744354
-9117.908515691757,1760.0,356.0,16560.0,68.0,-639.0,-188.0,0.024440938106932524,0.9324077202350691,-0.30837239810759726,-0.18688217645314292
-9117.924266576767,1860.0,416.0,16744.0,157.0,-666.0,21.0,-0.005904351590661255,0.9196660490603915,-0.3135039691467862,-0.23642072279551693
-9117.939896821976,1648.0,796.0,17080.0,256.0,-622.0,387.0,-0.035405587636239445,0.894047611981601,-0.3487351901594447,-0.2789427880741589
-9117.955506324768,1240.0,1332.0,17352.0,294.0,-436.0,762.0,-0.05289426830717119,0.856518438359438,-0.4126690774365977,-0.30542199275459153
-9117.971083641052,852.0,1748.0,17264.0,211.0,-282.0,422.0,-0.06749944689799119,0.8318499096209947,-0.4480253864567206,-0.3205351862468681
-9117.987743616104,720.0,2008.0,16792.0,139.0,-338.0,185.0,-0.0855812701373828,0.8137988816086359,-0.4630552696956176,-0.34056870628600705
-9118.003442049026,876.0,1968.0,16384.0,39.0,-570.0,-150.0,-0.1157006645148622,0.8015378212911677,-0.44869645229388344,-0.37791794211112817
-9118.019080400467,1052.0,1660.0,16184.0,-17.0,-842.0,-315.0,-0.15740666331781286,0.7838307894551224,-0.41629955319605183,-0.4330440137608182
-9118.034664869308,1356.0,1388.0,16180.0,-115.0,-940.0,-282.0,-0.19365353574109462,0.7572747061475282,-0.3783204988735189,-0.4958900358509327
-9118.050261497498,1168.0,1456.0,16468.0,-6.0,-1077.0,-131.0,-0.23346992833512928,0.7118420124182397,-0.349609365894393,-0.5626242380118908
-9118.06585240364,1096.0,1312.0,16488.0,-408.0,-1106.0,-62.0,-0.24365009584637398,0.6641405136634225,-0.3015523606812418,-0.6392324950067138
-9118.0814473629,964.0,1364.0,16500.0,-260.0,-1228.0,-61.0,-0.26275281063632044,0.5990622751543853,-0.25581994051957846,-0.7117875448630194
-9118.097059488297,868.0,1336.0,16516.0,-591.0,-1432.0,-50.0,-0.2645447931713753,0.5198940641818635,-0.1819396914769892,-0.7915959595018386
-9118.112749099731,636.0,1448.0,16312.0,-658.0,-1676.0,11.0,-0.25739855941579814,0.41385290723253465,-0.09703674185492871,-0.8677877756203015
-9118.128355026245,652.0,1464.0,15868.0,-769.0,-1884.0,-23.0,-0.24351617631046416,0.2839490131211934,0.004328975174088832,-0.9273910123548605
-9118.143988132477,724.0,1516.0,15828.0,-846.0,-2105.0,-73.0,-0.2233237877450396,0.12873965744533944,0.11703789146739786,-0.9590905683974432
-9118.159578561783,920.0,1788.0,15740.0,-981.0,-2234.0,-126.0,-0.1956391534381978,-0.03975046238471869,0.23853288613475157,-0.9503932263092009
-9118.175151109695,904.0,1472.0,15716.0,-1049.0,-2407.0,-142.0,-0.1568989005803041,-0.21877517612222044,0.35661061250328546,-0.8946222825077716
-9118.190765857697,1128.0,1572.0,16144.0,-1137.0,-2563.0,-291.0,-0.11807223775687987,-0.400392464192778,0.46100927962112803,-0.7830806250903711
-9118.206367254257,1140.0,1748.0,16416.0,-1039.0,-2684.0,-561.0,-0.08211064884208302,-0.5770668659136884,0.5231243662215072,-0.6217656882432735
-9118.222007989883,1340.0,1836.0,16432.0,-944.0,-2710.0,-747.0,-0.044999197165406214,-0.727492813916717,0.5383667787692364,-0.422954476831304
-9118.237611055374,1396.0,1884.0,16428.0,-997.0,-2798.0,-949.0,-0.011460326501256342,-0.8408793788434401,0.5074235899278242,-0.18791442610165443
-9118.25318980217,1420.0,1760.0,16068.0,-1130.0,-2848.0,-971.0,0.01521698178086456,-0.8949225623155319,0.4405204043199779,0.06945375657116773
-9118.268782615662,1496.0,1532.0,15844.0,-1368.0,-3009.0,-1101.0,0.029395374208209077,-0.8809904915707352,0.32740906145519244,0.34028660304828906
-9118.284371852875,1588.0,724.0,15732.0,-1534.0,-3271.0,-1221.0,0.03907012667530309,-0.7805142891311281,0.17034707157100235,0.6002106670752274
-9118.29999923706,2076.0,488.0,15916.0,-1467.0,-3725.0,-1417.0,0.06446389475415205,-0.5732133245648863,-0.014792186662805658,0.816732564569412
-9118.315609455109,2304.0,468.0,15920.0,-1191.0,-4122.0,-1516.0,0.10002710322342594,-0.26386654053335884,-0.18469663240913578,0.9414118022334392
-9118.331264734268,2808.0,508.0,16152.0,-989.0,-4267.0,-1318.0,0.10844965188013633,0.09248423878571341,-0.30966277667050857,0.9401033471528624
-9118.34684753418,2968.0,680.0,16508.0,-936.0,-4177.0,-993.0,0.07901513796301322,0.4231632196113002,-0.39003533699247533,0.8139790743244267
-9118.362450838089,2972.0,528.0,16312.0,-1119.0,-4055.0,-603.0,0.023594355088491024,0.6788315006134785,-0.44547675652122615,0.5832508547633164
-9118.378027200699,2780.0,684.0,15632.0,-1363.0,-4121.0,-276.0,-0.03910108499735716,0.8381771701128273,-0.4739678436035776,0.2669917974085656
-9118.39359498024,2956.0,244.0,15000.0,-1604.0,-4488.0,-230.0,-0.09422073330784354,0.8841444343084368,-0.44236298946964797,-0.11715826152611966
-9118.409168481827,3392.0,-300.0,14984.0,-1751.0,-5160.0,-423.0,-0.14681632240540987,0.7780856972663751,-0.3153153597917558,-0.5230715429692625
-9118.424795627594,3784.0,-828.0,15188.0,-1820.0,-6068.0,-772.0,-0.19697897727250158,0.4765635140834871,-0.08909224510192475,-0.852143809118963
-9118.440399169922,3764.0,-804.0,15600.0,-1815.0,-7080.0,-1570.0,-0.24564641457180425,-0.005717185581521639,0.19511294596571685,-0.9495030758842348
-9118.456012487411,3800.0,-744.0,16104.0,-1864.0,-7676.0,-1646.0,-0.20629199956400543,-0.5151350287105664,0.41948627055407645,-0.7184085063025636
-9118.471590280533,3844.0,-244.0,16884.0,-1993.0,-7551.0,-1396.0,-0.08797057030790434,-0.8252998344161181,0.5077599953463268,-0.23091372674297286
-9118.487221479416,4460.0,12.0,16652.0,-1998.0,-6727.0,-833.0,0.04207965808832837,-0.8361872011573972,0.4593203590848589,0.29672390319265574
-9118.502813577652,4696.0,108.0,16292.0,-1914.0,-6033.0,-476.0,0.1369716289597407,-0.6175552618250149,0.3086216642584357,0.7103639488337692
-9118.518446445465,5164.0,-444.0,15936.0,-1859.0,-5871.0,-399.0,0.1933897724621483,-0.25211336772517784,0.08944261123883719,0.9439487618595016
-9118.534048080444,6032.0,-856.0,16308.0,-1908.0,-5601.0,-498.0,0.20966233914283486,0.1540335840302336,-0.15388682982717766,0.9532230600136031
-9118.549617290497,6180.0,-1352.0,16460.0,-2029.0,-6002.0,-521.0,0.17466513469024297,0.5450319929614195,-0.371824162844801,0.7308755087543333
-9118.565196990967,6468.0,-1632.0,16948.0,-2103.0,-6199.0,-906.0,0.11378902350327046,0.8123551178641463,-0.4827944751655405,0.3066605865769703
-9118.580779075623,6988.0,-1548.0,16756.0,-1880.0,-6045.0,-687.0,0.009403200068483988,0.8604660589121622,-0.4758761622074429,-0.18180104381262205
-9118.596350193024,7340.0,-1392.0,16400.0,-1700.0,-5412.0,-675.0,-0.08808088383957352,0.7170089072544444,-0.3603200851599406,-0.5901774487814323
-9118.611952781677,7920.0,-1140.0,16500.0,-1730.0,-4374.0,-270.0,-0.12141936925182058,0.4748080840981904,-0.20405281027825434,-0.8474532852393944
-9118.627593755722,8256.0,-1172.0,16344.0,-2037.0,-3507.0,-268.0,-0.1124206432084111,0.22767167665906396,-0.004744165302679283,-0.9672149189934152
-9118.64326262474,8148.0,-1336.0,15824.0,-2368.0,-2943.0,-555.0,-0.10762777227413889,0.0022867367284136455,0.2230364029546015,-0.9688476642008865
-9118.658861637115,8212.0,-2264.0,15488.0,-2444.0,-2425.0,-536.0,-0.10076761548682497,-0.1822708888156476,0.43285371267449846,-0.8770751816026697
-9118.674454927444,8436.0,-2800.0,15620.0,-2350.0,-1725.0,-865.0,-0.1346216601553542,-0.3154698189418293,0.5934290500873711,-0.7281468014529943
-9118.69004368782,8456.0,-2792.0,15504.0,-2067.0,-648.0,-734.0,-0.2007322166784354,-0.36320775696865343,0.6983122991452464,-0.5832209146864
-9118.705624341965,8016.0,-2256.0,15340.0,-1811.0,230.0,-520.0,-0.2946920952971481,-0.3467166961124679,0.7595571250142805,-0.46477637143713724
-9118.721188306808,7328.0,-1772.0,15356.0,-1953.0,380.0,-1230.0,-0.4203025807639256,-0.3552644515892764,0.7757188801198728,-0.30885778129379376
-9118.736776590347,6952.0,-1380.0,15512.0,-2425.0,308.0,-1968.0,-0.5492731917694162,-0.3773224953354554,0.7413925910524397,-0.07914367473028329
-9118.752353668213,7328.0,-1876.0,15828.0,-2775.0,455.0,-2539.0,-0.6529763231567259,-0.3848909472293224,0.6219298715277357,0.19668277768816575
-9118.767968416214,7916.0,-2084.0,15844.0,-2922.0,723.0,-2825.0,-0.6980620945227785,-0.3612825571833033,0.40977815928290984,0.46288884868861874
-9118.783541440964,7960.0,-2852.0,15392.0,-2897.0,1160.0,-2883.0,-0.6699414607242561,-0.31370154977703796,0.12288907488769331,0.6615648510489214
-9118.79911351204,8168.0,-2780.0,14928.0,-2754.0,1553.0,-2906.0,-0.5564804157694312,-0.25587158792935055,-0.1933644981635785,0.7664655557854776
-9118.81470990181,7800.0,-2416.0,14276.0,-2683.0,1586.0,-2820.0,-0.37648534623723073,-0.17259392628460216,-0.48139297092824473,0.7724836103239835
-9118.830280542374,7608.0,-2164.0,14020.0,-2624.0,1418.0,-2790.0,-0.15853623736829792,-0.06086093315962795,-0.7034823820239868,0.6901266162363973
-9118.84585905075,7576.0,-2476.0,14488.0,-2670.0,1333.0,-2703.0,0.06792909749130022,0.058336317596383455,-0.8463075207064685,0.5251153132017591
-9118.861448287964,7716.0,-3004.0,14924.0,-2802.0,1651.0,-2572.0,0.3028940466152574,0.14675898863514647,-0.8949868337161244,0.2927722036918971
-9118.8770403862,7916.0,-3084.0,14872.0,-2314.0,2324.0,-2305.0,0.5409292497588076,0.19468327446108372,-0.8146573673163207,0.0763370373915936
-9118.892692804337,7664.0,-3156.0,14472.0,-2083.0,2802.0,-2110.0,0.7439708739648007,0.21447181798497056,-0.6220256258809015,-0.11659030289756199
-9118.908267974854,7448.0,-2980.0,14128.0,-1912.0,2766.0,-2296.0,0.8543210177099607,0.22898178488693663,-0.3579081253257017,-0.2993404662167338
-9118.923978567123,7056.0,-2764.0,13904.0,-1764.0,2456.0,-2130.0,0.8666910699231603,0.21690163342733812,-0.08186637940974345,-0.44169918117915996
-9118.939588785172,6956.0,-2484.0,14216.0,-1725.0,2114.0,-2206.0,0.7931343419403685,0.1753534289965711,0.17806657317520036,-0.5554110064552233
-9118.955224275589,6964.0,-2592.0,14264.0,-1729.0,2083.0,-2315.0,0.6446427693431811,0.11501813956094041,0.4214484181082113,-0.6273657293633282
-9118.97080039978,7112.0,-2320.0,14436.0,-1615.0,2299.0,-2385.0,0.42432297208550557,0.059194594748714045,0.6311937504327361,-0.6465604880656689
-9118.986445426941,6860.0,-2480.0,14336.0,-1433.0,2532.0,-2416.0,0.14802458686122458,0.0150392169696564,0.7770006694276441,-0.611663717533169
-9119.00202870369,6496.0,-2204.0,14124.0,-1253.0,2563.0,-2653.0,-0.15701567136351408,-0.04192698094169784,0.8335504610682845,-0.527997950818211
-9119.017617702484,6400.0,-2156.0,14092.0,-1050.0,2366.0,-2737.0,-0.4362417820622144,-0.11176881737938675,0.7974140261169899,-0.40166118806363327
-9119.033215522766,6616.0,-2516.0,14252.0,-874.0,2160.0,-2802.0,-0.6608155261098787,-0.1884811249469937,0.684564016415681,-0.24324846026166594
-9119.04879784584,6916.0,-2964.0,14456.0,-660.0,1950.0,-2721.0,-0.8108642857943101,-0.2602477498769091,0.5186891813092076,-0.0757083344161859
-9119.064378738403,7160.0,-3344.0,14604.0,-764.0,1698.0,-2573.0,-0.8886782203939331,-0.29999077735076096,0.3324556979119563,0.09863956117011378
-9119.080047607422,6824.0,-3540.0,14732.0,-357.0,1389.0,-2277.0,-0.894490167695735,-0.34084022786951707,0.15767629837515065,0.2425973286996832
-9119.0956428051,6688.0,-3416.0,14772.0,-253.0,1176.0,-2014.0,-0.857866914942739,-0.3658785354904833,0.0006015546232774985,0.3608280638281918
-9119.111268997192,7004.0,-3524.0,14768.0,-46.0,1062.0,-1650.0,-0.7959395098250548,-0.3900690506126897,-0.13107618627677511,0.44401065960706704
-9119.1268928051,7052.0,-3416.0,14476.0,303.0,1126.0,-1291.0,-0.7146203909186478,-0.43482550036307066,-0.23869278424685786,0.4932243261090912
-9119.142476320267,6760.0,-3444.0,14400.0,664.0,1165.0,-897.0,-0.6204983252216273,-0.5026138255260729,-0.3136529707699225,0.5137927449024596
-9119.158059358597,6416.0,-3272.0,14536.0,863.0,1119.0,-563.0,-0.5222428209749062,-0.5789436796855443,-0.357069304119164,0.5143813407854039
-9119.173645973206,6216.0,-3152.0,14660.0,869.0,1069.0,-313.0,-0.42777252706688534,-0.6517887198715344,-0.3796888975755099,0.498014528696635
-9119.189242124557,6392.0,-2896.0,14988.0,789.0,994.0,-210.0,-0.3387232556344818,-0.7129678543477586,-0.39196811344666543,0.47255094201598286
-9119.204847812653,6596.0,-2768.0,15172.0,832.0,780.0,-57.0,-0.2566596088897097,-0.7639686776533519,-0.3823500128786336,0.45198027875215857
-9119.220444202423,6868.0,-2584.0,14940.0,988.0,1031.0,-84.0,-0.15188068041242678,-0.8176023529245716,-0.3691961959069601,0.41491302743766934
-9119.236048221588,7164.0,-3068.0,14856.0,1247.0,1517.0,12.0,-0.014211155101790565,-0.8766615800382233,-0.33835265287396016,0.34173088746660335
-9119.251614809036,6456.0,-2944.0,14432.0,1434.0,1905.0,132.0,0.14477226862232084,-0.9193902830156413,-0.2817833883118151,0.23315363991556795
-9119.267193555832,5844.0,-2796.0,14392.0,1558.0,1671.0,202.0,0.30088082882705847,-0.9203954400271435,-0.20860842702241122,0.13720599475539957
-9119.282799482346,5604.0,-2484.0,14148.0,1623.0,1124.0,77.0,0.4443302419204353,-0.8796134799731907,-0.15123359770837544,0.07732503403530826
-9119.298431873322,5672.0,-2376.0,14668.0,1695.0,754.0,23.0,0.5768394200728454,-0.808671035781819,-0.10738998551044958,0.042128735438522365
-9119.314021348953,5556.0,-2424.0,15404.0,1845.0,425.0,179.0,0.7008992554226677,-0.7092180667085244,-0.06568306663644793,0.03789066322202823
-9119.329609632492,5416.0,-2432.0,16132.0,1756.0,286.0,285.0,0.8005581086526768,-0.5969020020249038,-0.024456370824368138,0.047080787750541836
-9119.345203638077,5176.0,-2164.0,16552.0,1488.0,263.0,282.0,0.8697884011810909,-0.4900515779875973,0.014555741322417683,0.05572897340936943
-9119.360800743103,4892.0,-1904.0,16792.0,1126.0,832.0,169.0,0.9093043948515378,-0.4051490651955792,0.0896763183781107,0.03127155891500898
-9119.376395463943,5180.0,-1488.0,16736.0,901.0,699.0,-129.0,0.9314738539770598,-0.33469214586505924,0.1422063744490705,-0.01072258921229138
-9119.392048358917,5204.0,-808.0,16672.0,888.0,635.0,-392.0,0.944418744384842,-0.26523681633264445,0.18045013228294599,-0.07183603744186524
-9119.407643318176,5356.0,-592.0,16416.0,891.0,740.0,-582.0,0.9437954036307884,-0.19493095903271845,0.22075937486303496,-0.15005817440600774
-9119.423269987106,5412.0,-520.0,15868.0,798.0,874.0,-733.0,0.9242096968713823,-0.13081773773458108,0.26761145690252797,-0.2389712615303782
-9119.43886590004,5120.0,-1340.0,14872.0,704.0,859.0,-523.0,0.8962219736872944,-0.06791912550228832,0.3141846808489313,-0.3057141681226271
-9119.454417228699,4864.0,-2172.0,14148.0,512.0,608.0,-652.0,0.8617975452770701,-0.029448745272018715,0.34258751328183223,-0.3729229921842983
-9119.470000982285,4912.0,-2740.0,13992.0,940.0,102.0,-493.0,0.8415396388234938,0.029631814645297804,0.31678555292382526,-0.43655458456921126
-9119.485569953918,5220.0,-2324.0,14440.0,1280.0,-136.0,39.0,0.8382513679195843,0.11869059903870553,0.2560721681610954,-0.46655571004335017
-9119.501153230667,5320.0,-2024.0,15000.0,1488.0,-134.0,683.0,0.8450642879152027,0.234807771496043,0.1765741622476883,-0.44671380654951814
-9119.516769886017,5532.0,-760.0,16064.0,1431.0,-134.0,1187.0,0.8529493402959859,0.3486528407553914,0.08526367333372362,-0.379010191856998
-9119.532375335693,5632.0,-88.0,16052.0,1331.0,-314.0,1255.0,0.8453753627358539,0.4407461822190873,-0.02020260176018532,-0.30112315390989447
-9119.548005104065,6124.0,228.0,16128.0,1253.0,-361.0,1122.0,0.8169798736854961,0.515760332899942,-0.12165237127282885,-0.2274551946284569
-9119.563596248627,6196.0,-20.0,16028.0,1268.0,-285.0,1009.0,0.7691309783248145,0.583654735729742,-0.21045100873368397,-0.15328098565814952
-9119.579219579697,5952.0,-372.0,15844.0,1214.0,-114.0,857.0,0.7107843114927292,0.6423436543953303,-0.27569385805290075,-0.07856964315667082
-9119.594808578491,5684.0,-404.0,15700.0,1169.0,117.0,946.0,0.6490529202074172,0.6868763983279621,-0.3266718916983213,0.014717179229437953
-9119.610431671143,5412.0,-272.0,16108.0,1125.0,372.0,1079.0,0.5852265648988405,0.7123465254352194,-0.36527760826563,0.12901381451927824
-9119.626018047333,5092.0,-392.0,15692.0,961.0,592.0,1047.0,0.5279007764542658,0.7148857611692488,-0.3858319422837359,0.2477757676004798
-9119.641570568085,5024.0,-344.0,15600.0,750.0,549.0,918.0,0.476725264891968,0.70203060190184,-0.3989897196125257,0.34740935429337727
-9119.657143831253,5316.0,-628.0,15464.0,694.0,340.0,659.0,0.4244613523773555,0.694847313635746,-0.4025726691624922,0.4182762449799899
-9119.672718286514,5668.0,-644.0,15652.0,934.0,110.0,597.0,0.34830221654194743,0.7010767734541868,-0.3986935162760685,0.47772419213857825
-9119.688291788101,5788.0,-412.0,15628.0,1155.0,-189.0,558.0,0.24625780118872154,0.7199878712051816,-0.38791237637699044,0.5200947499491638
-9119.703889846802,5816.0,-20.0,15620.0,1163.0,-234.0,447.0,0.1441146882605411,0.7359179361170596,-0.3659647708226371,0.5511129960774916
-9119.719477415085,5744.0,168.0,15488.0,883.0,-178.0,327.0,0.06577864319544754,0.7424860660094156,-0.34548588940592656,0.5701114909406961
-9119.735090732574,5872.0,288.0,15500.0,633.0,-132.0,64.0,0.0175834218381243,0.7494906016003795,-0.3183371956574128,0.5801862556542836
-9119.750678539276,5480.0,448.0,15464.0,494.0,-25.0,-88.0,-0.010944955577436853,0.7531698026215531,-0.28728237246248567,0.5916792161625624
-9119.766262292862,5352.0,488.0,15332.0,413.0,104.0,-144.0,-0.028016581249593973,0.7503658836970929,-0.25634579736287666,0.6086484567736593
-9119.781841039658,5176.0,216.0,15236.0,340.0,289.0,-222.0,-0.031985387454377595,0.7383696562978335,-0.22419626573920093,0.6352347755567308
-9119.797426462173,5212.0,232.0,15204.0,135.0,270.0,-497.0,-0.007824984502728586,0.7317175951211735,-0.18515369603508122,0.6559315813803809
-9119.81301856041,5504.0,-144.0,15396.0,-12.0,196.0,-628.0,0.03202198488510595,0.7293543945307787,-0.14558983526031063,0.6676978055464423
-9119.828699588776,5736.0,-80.0,15932.0,251.0,111.0,-653.0,0.05541717641287598,0.7303874803638755,-0.08888063995854129,0.6749542924722338
-9119.84429693222,5808.0,-180.0,15884.0,0.0,87.0,-530.0,0.08723264013813024,0.7284658457536057,-0.05459534848401142,0.6773088852133305
-9119.859895467758,5816.0,-292.0,16076.0,-122.0,228.0,-287.0,0.11299160961372001,0.7149065751092815,-0.04179415122939595,0.6887631914856022
-9119.875473737717,5576.0,-604.0,15968.0,-338.0,435.0,-4.0,0.13576475580066405,0.6845239507626212,-0.05751051244864312,0.713923968551703
-9119.891082286835,5328.0,-952.0,15744.0,-488.0,508.0,201.0,0.15464178437074083,0.6446263301645305,-0.09372167493832236,0.7428048603987444
-9119.906660556793,5184.0,-1300.0,15812.0,-536.0,582.0,221.0,0.17479501596328598,0.596171021252592,-0.1327080013804705,0.7722793550151638
-9119.922355175018,5224.0,-1092.0,15732.0,-378.0,484.0,131.0,0.19097032025949434,0.5552677492830003,-0.1573632174710612,0.7940055926587248
-9119.938014507294,5316.0,-1112.0,15792.0,-174.0,297.0,47.0,0.20015267343086607,0.530726720276039,-0.1666379861819842,0.806535701171826
-9119.953617095947,5616.0,-728.0,15832.0,-109.0,205.0,-20.0,0.20957279199749432,0.5144035752661061,-0.16972047170385476,0.8140412569965011
-9119.969217300415,5572.0,-288.0,15568.0,-159.0,147.0,-128.0,0.2279594501107326,0.5026517763553222,-0.1724819021713086,0.8158588568223174
-9119.984881162643,5400.0,-140.0,15264.0,-299.0,44.0,-193.0,0.2553928425603584,0.49605719933513664,-0.18427854159831902,0.8091620171900786
-9120.00052523613,5168.0,-112.0,14900.0,-405.0,9.0,-178.0,0.28546974221702215,0.48871861633932434,-0.2047561525905338,0.7985837828920929
-9120.016112565994,4940.0,-372.0,15200.0,-441.0,-90.0,-122.0,0.31095920120579856,0.4856115188784025,-0.23227336516298436,0.7832846939356888
-9120.031774282455,4840.0,-656.0,15572.0,-438.0,-32.0,-215.0,0.34330399797759825,0.47966803672765324,-0.2536707629922608,0.766623821386578
-9120.047363042831,4608.0,-1008.0,15720.0,-438.0,-104.0,-340.0,0.38167168518061434,0.48028689635103455,-0.27145855425082666,0.7415938748728522
-9120.062953472137,4972.0,-1268.0,15804.0,-497.0,-294.0,-267.0,0.4122365922846404,0.48817732888781984,-0.301695339938434,0.707618406629543
-9120.078562736511,5304.0,-1344.0,15788.0,-547.0,-492.0,-596.0,0.45789527555629456,0.512685172855938,-0.3266035394270051,0.648703289794845
-9120.094159126282,5540.0,-1328.0,15736.0,-659.0,-589.0,-624.0,0.5037499170828814,0.5349718691007378,-0.35787925713454155,0.5761627874331019
-9120.109769582748,5708.0,-1236.0,15708.0,-564.0,-665.0,-679.0,0.5410227271325386,0.5620966361013539,-0.38194683219862097,0.49543758212619626
-9120.12538075447,5784.0,-1280.0,15592.0,-522.0,-657.0,-563.0,0.5669555664752292,0.5822560954838937,-0.40629820809553074,0.4176852774673339
-9120.140950679779,5640.0,-1336.0,15472.0,-420.0,-687.0,-500.0,0.5802687268111554,0.602092963511363,-0.4286906176275644,0.34204769014446323
-9120.15652012825,5504.0,-1448.0,15620.0,-322.0,-584.0,-415.0,0.5864399768219255,0.6172085755980243,-0.44499227209693354,0.2777113709723928
-9120.172099590302,5384.0,-1576.0,15672.0,-501.0,-473.0,-388.0,0.603118532913437,0.6165467196300843,-0.4593200172452688,0.2124695261149969
-9120.187703847885,5156.0,-1596.0,15972.0,-237.0,-351.0,-302.0,0.6068686237326536,0.6219651682613069,-0.4654289501429779,0.16806455714196447
-9120.203266859055,5556.0,-1480.0,15796.0,-257.0,-327.0,-195.0,0.6100011521318421,0.6204909387393934,-0.47552233842468244,0.12949167926648017
-9120.218841552734,5684.0,-1352.0,15596.0,-4.0,-326.0,-169.0,0.5983858802084789,0.6305758300656925,-0.48349528456027513,0.10266825562005708
-9120.234492063522,5700.0,-1212.0,15528.0,-231.0,-321.0,-300.0,0.5997756630927653,0.6333791747097915,-0.4853362963783751,0.05957058354002493
-9120.25007200241,5484.0,-1272.0,15580.0,-505.0,-225.0,-365.0,0.619123806272829,0.6224587406688808,-0.4787343127571066,0.006654807295197106
-9120.265634059906,5316.0,-952.0,15520.0,-179.0,-213.0,-411.0,0.6197072894097877,0.6294170299253695,-0.46755056770364417,-0.03454771385055878
-9120.281252861023,5180.0,-1140.0,15632.0,-166.0,-185.0,-342.0,0.6199246946222944,0.6333295599618798,-0.4579289567928278,-0.06991503419565238
-9120.296890735626,5160.0,-1300.0,15476.0,-163.0,-204.0,-313.0,0.6185804767551918,0.6352961121021009,-0.4503602279207025,-0.10455959464576817
-9120.31251168251,4892.0,-1456.0,15448.0,-181.0,-326.0,-324.0,0.6123761869328618,0.6346178286416903,-0.44790385601767335,-0.1470977668497194
-9120.328127622604,5244.0,-1460.0,15520.0,-213.0,-456.0,-330.0,0.601381027275611,0.6293332991858837,-0.4506205665167878,-0.19804434756092085
-9120.34375,5340.0,-1436.0,15656.0,-201.0,-557.0,-377.0,0.5830028942671233,0.6227360409350566,-0.4548004225589249,-0.255859383718699
-9120.359340667725,5372.0,-1368.0,15616.0,-133.0,-601.0,-395.0,0.5565173807042266,0.6168926408014288,-0.4599851063973649,-0.31328194424791095
-9120.374926328659,5476.0,-1292.0,15400.0,-112.0,-569.0,-375.0,0.5285842404398956,0.6097641849042648,-0.4635066756523117,-0.36598893588790216
-9120.390512228012,5316.0,-1320.0,15572.0,-131.0,-588.0,-337.0,0.500186157568397,0.5974085800148076,-0.4676421706835665,-0.4174057935630699
-9120.406137228012,5432.0,-1352.0,15512.0,-176.0,-609.0,-294.0,0.47300279521342065,0.5783815627559684,-0.471584922612925,-0.46834899844925076
-9120.421734571457,5504.0,-1492.0,15516.0,-136.0,-642.0,-19.0,0.45200879238522257,0.5463224831017437,-0.4907381537421192,-0.5063554685453431
-9120.437330722809,5564.0,-1464.0,15684.0,-51.0,-623.0,-230.0,0.41696814021806694,0.5256540651401608,-0.5012152416396014,-0.5464509633927512
-9120.452901601791,5656.0,-1344.0,15572.0,-20.0,-548.0,-294.0,0.3794085110865726,0.5108111824842232,-0.5059327756614356,-0.5823685637769739
-9120.46849656105,5632.0,-1536.0,15568.0,253.0,-451.0,-331.0,0.33098503317503025,0.5100659877515946,-0.5181880272675669,-0.6014671764524324
-9120.484077215195,5556.0,-1268.0,15836.0,17.0,-331.0,-350.0,0.2966872360040648,0.5084797054736117,-0.5125644163212015,-0.6250622306899075
-9120.499644517899,5540.0,-1316.0,15604.0,-21.0,-508.0,-329.0,0.2566450015512753,0.49416622229141327,-0.5092170871665149,-0.6562248441369996
-9120.515280485153,5608.0,-1412.0,15852.0,30.0,-234.0,-287.0,0.22844790687053515,0.4938484286396702,-0.5034856822848401,-0.6711389208731445
-9120.530885457993,5840.0,-1496.0,15760.0,72.0,-163.0,-235.0,0.2044000899789063,0.4958150941970751,-0.500611014780622,-0.6795414685383643
-9120.546471118927,5784.0,-1480.0,15744.0,120.0,-48.0,-162.0,0.18751981906716506,0.5020232481612544,-0.5014453283332555,-0.6792360108647029
-9120.562054157257,5736.0,-1512.0,15636.0,108.0,-256.0,-68.0,0.16754510904681796,0.4913541895591657,-0.5088542182061615,-0.6867074205591065
-9120.577636003494,5540.0,-1464.0,15628.0,143.0,75.0,-77.0,0.16015292556452224,0.5012209386114657,-0.5129157865954173,-0.6782669142688373
-9120.593222856522,5344.0,-1372.0,15528.0,161.0,46.0,-71.0,0.1509889049501221,0.5092334960161349,-0.5185867075963776,-0.670038374887213
-9120.608858346939,5304.0,-1392.0,15460.0,173.0,64.0,-168.0,0.13637890215547216,0.5226652696920862,-0.520226087460754,-0.6615033097648438
-9120.624446868896,5240.0,-1172.0,15548.0,149.0,41.0,-152.0,0.12268290027888852,0.5335433368451441,-0.5212715835120186,-0.6546421540889205
-9120.640044927597,5356.0,-1212.0,15696.0,147.0,-99.0,-191.0,0.10042761860979713,0.5379442005523638,-0.5216615052218845,-0.6545224247358383
-9120.655627965927,5484.0,-1332.0,15596.0,202.0,-220.0,-163.0,0.07161210210000703,0.5342659950824223,-0.5272055371472881,-0.6568758443820616
-9120.671210050583,5488.0,-1328.0,15588.0,254.0,-413.0,-149.0,0.03221234645996094,0.5184559334363944,-0.5368365055950842,-0.6648100300691917
-9120.68680524826,5512.0,-1296.0,15388.0,256.0,-470.0,-78.0,-0.005895901466814294,0.4949386672782408,-0.5488299443937456,-0.673636880014367
-9120.702391386032,5516.0,-1324.0,15640.0,299.0,-448.0,36.0,-0.03810092178991288,0.46613338096973483,-0.5670600948598796,-0.678019793016389
-9120.71802020073,5560.0,-1328.0,15680.0,269.0,-383.0,90.0,-0.06261105651307099,0.437672225372681,-0.5848117926089076,-0.6800867929648376
-9120.733637094498,5488.0,-1288.0,15816.0,295.0,-383.0,156.0,-0.0840799279932965,0.4048975207537888,-0.6055408482178861,-0.6799329706196342
-9120.74922466278,5596.0,-1400.0,15640.0,301.0,-395.0,147.0,-0.10675608071676199,0.3710334070728352,-0.6250054018970975,-0.6784582504954655
-9120.76480937004,5560.0,-1424.0,15524.0,271.0,-481.0,144.0,-0.13307708657450404,0.331694545294197,-0.6403801224099517,-0.6798400668342027
-9120.78039598465,5560.0,-1340.0,15364.0,265.0,-601.0,167.0,-0.164145220769213,0.2830617684828807,-0.6527510101616651,-0.6832631268075984
-9120.796011686325,5552.0,-1452.0,15612.0,273.0,-632.0,180.0,-0.19578981822830313,0.23069907005892512,-0.6630725449100541,-0.6846744382102924
-9120.81158876419,5572.0,-1404.0,15484.0,328.0,-631.0,269.0,-0.2223553521972271,0.17138092742257405,-0.6757404933238085,-0.6815874564188529
-9120.82724070549,5632.0,-1256.0,15800.0,400.0,-529.0,276.0,-0.2426518181211522,0.11558786473392907,-0.6919547895078195,-0.6700433642428969
-9120.842815876007,5848.0,-1180.0,15624.0,389.0,-362.0,289.0,-0.2511957117130973,0.06858087518667103,-0.7088805043652584,-0.6555042398844098
-9120.858429908752,5852.0,-1140.0,15672.0,378.0,-278.0,242.0,-0.2565488989575155,0.02934282091455834,-0.7250071003940602,-0.6385032229226879
-9120.87399983406,5832.0,-1216.0,15364.0,325.0,-265.0,6.0,-0.27364251228553554,0.0068792926612622615,-0.7366260735113851,-0.6184290408977741
-9120.889568805695,5768.0,-1292.0,15560.0,317.0,-243.0,239.0,-0.27633908478809505,-0.029181439617215574,-0.7473812063986656,-0.603495224606144
-9120.905166864395,5688.0,-1380.0,15536.0,318.0,-247.0,510.0,-0.26436283504120206,-0.08302568884574234,-0.7555837338602761,-0.5935589672192915
-9120.920861721039,5568.0,-1344.0,15624.0,344.0,-2.0,233.0,-0.2497748069571275,-0.10638226968221813,-0.7710912421669526,-0.5759458783255726
-9120.936537504196,5608.0,-1344.0,15520.0,335.0,-307.0,236.0,-0.255215624616856,-0.14487642341767465,-0.7782022531996842,-0.5552270346480488
-9120.952099323273,5688.0,-1280.0,15472.0,283.0,-364.0,203.0,-0.26627510165803053,-0.1824488069521042,-0.7804218177516736,-0.5354921002740683
-9120.967735052109,5732.0,-1288.0,15444.0,259.0,-406.0,214.0,-0.27951930733235236,-0.22180048977042177,-0.7787967490075611,-0.5158964269127054
-9120.98331952095,5684.0,-1260.0,15468.0,212.0,-384.0,237.0,-0.2905838906530881,-0.2601379982953232,-0.7735923810730961,-0.49944374285946774
-9120.998911857605,5720.0,-1256.0,15392.0,203.0,-324.0,175.0,-0.30003531161723757,-0.2910380272414681,-0.7696729943443656,-0.4825755487580361
-9121.014476060867,5712.0,-1532.0,15568.0,209.0,-243.0,123.0,-0.3057488637677526,-0.3148722661940023,-0.7685870241335315,-0.4654536224159651
-9121.030089855194,5800.0,-1432.0,15856.0,228.0,-217.0,88.0,-0.3103562713871478,-0.3355420598825906,-0.7692741306309481,-0.4464390471300805
-9121.04569029808,5812.0,-1308.0,15544.0,226.0,-512.0,110.0,-0.333436533550766,-0.3685480571768978,-0.7599964129977509,-0.4188052767997736
-9121.061340332031,5804.0,-1028.0,15496.0,166.0,-267.0,163.0,-0.33971003708620634,-0.3937644179215157,-0.7526405990036801,-0.4038301655562647
-9121.076914072037,5868.0,-1268.0,15572.0,124.0,-299.0,135.0,-0.35019207817958914,-0.4166527286093459,-0.7431091011580758,-0.3893004956311821
-9121.092515945435,5836.0,-1280.0,15464.0,75.0,-276.0,148.0,-0.360220872206948,-0.437747672564112,-0.7315020668468513,-0.37884379972483806
-9121.108107089996,5852.0,-1516.0,15564.0,26.0,-265.0,64.0,-0.37395212230839103,-0.45128056505092584,-0.7213314002936346,-0.3690347853235401
-9121.123759746552,5848.0,-1212.0,15456.0,-38.0,-283.0,-87.0,-0.39596631882640687,-0.45351726089878114,-0.714007135098707,-0.35738855528691477
-9121.139339447021,5836.0,-1136.0,15500.0,-67.0,-221.0,-65.0,-0.4143633910438726,-0.4539366131058181,-0.706647975428319,-0.3505612218539001
-9121.154935598373,5872.0,-1192.0,15592.0,-59.0,-197.0,-72.0,-0.43101491324455515,-0.453298130542581,-0.7003934300428813,-0.34379644058680586
-9121.170532464981,5848.0,-1160.0,15640.0,-84.0,-182.0,-129.0,-0.4492795970778342,-0.44760511209074777,-0.6959274517105924,-0.3368716212972073
-9121.18615436554,5736.0,-1212.0,15644.0,-72.0,-116.0,-176.0,-0.46427045595041977,-0.4374061074723927,-0.6959534749851688,-0.32981449563884685
-9121.201750278473,5732.0,-1252.0,15644.0,-79.0,-38.0,-155.0,-0.47404604983313914,-0.4258183811183931,-0.6979191678864025,-0.32690653715711987
-9121.217384576797,5732.0,-1320.0,15604.0,-47.0,-20.0,-122.0,-0.4805079021412465,-0.41697181284780993,-0.700183870788752,-0.3240203857128587
-9121.233012676239,5736.0,-1352.0,15440.0,249.0,-78.0,-70.0,-0.4781076047846775,-0.42521502592212573,-0.7062528337747833,-0.3030053378443901
-9121.248605251312,5792.0,-1508.0,15472.0,40.0,-87.0,-77.0,-0.48404301174585945,-0.4244033267214637,-0.7064463379274711,-0.2941389989046292
-9121.264191865921,5876.0,-1380.0,15380.0,1.0,-160.0,-47.0,-0.4950754001594033,-0.42559966926504167,-0.701326780946676,-0.2861922710442527
-9121.2798204422,6124.0,-1280.0,15544.0,-53.0,-62.0,-56.0,-0.5022698889292525,-0.42140318777284597,-0.6993248201737902,-0.28476149300559556
-9121.2954287529,5860.0,-1296.0,15492.0,-34.0,-256.0,-4.0,-0.5191673327033282,-0.4259113937645133,-0.6871735005224476,-0.27723157377002916
-9121.311022281647,5776.0,-1280.0,15476.0,42.0,146.0,56.0,-0.5074971964286799,-0.4275845016851742,-0.6926000067523733,-0.2827071279297425
-9121.326648235321,5592.0,-1504.0,15444.0,142.0,99.0,77.0,-0.4942976472260689,-0.4360146809949728,-0.6974679140044486,-0.2812464094666948
-9121.342221975327,5600.0,-1288.0,15516.0,145.0,19.0,8.0,-0.48743790056228875,-0.44224351481082147,-0.7014349699685757,-0.2735213878445022
-9121.357806444168,5600.0,-1244.0,15820.0,127.0,222.0,-252.0,-0.4747778252343215,-0.42669539775871895,-0.7232388755880412,-0.2635196065484357
-9121.373392105103,5404.0,-1160.0,15556.0,90.0,-37.0,-66.0,-0.4753049596776976,-0.4270771222407246,-0.726150211987158,-0.2537640569414214
-9121.38896894455,5680.0,-1220.0,15536.0,92.0,-75.0,-129.0,-0.4794800430002504,-0.42431987277479805,-0.7297558600649051,-0.2398080870900478
-9121.404570579529,5716.0,-1272.0,15460.0,73.0,-7.0,-91.0,-0.4791519803669757,-0.4216941457915778,-0.7342802895302095,-0.2311274183712279
-9121.420158147812,5664.0,-1300.0,15588.0,53.0,94.0,-65.0,-0.4725090664236359,-0.41781405700711477,-0.7415872476359222,-0.22850590814790087
-9121.435821294785,5688.0,-1344.0,15696.0,113.0,197.0,-252.0,-0.46050930705647186,-0.4020479323973014,-0.7607849296708096,-0.21793331309188238
-9121.451436519623,5704.0,-1320.0,15864.0,101.0,272.0,-27.0,-0.43932007081874114,-0.39900513002438875,-0.7743010652507667,-0.2196602875841803
-9121.46704173088,5580.0,-1064.0,15748.0,89.0,228.0,61.0,-0.4195826571971942,-0.4020672231875821,-0.7824025105494041,-0.22391662132043405
-9121.482639551163,5656.0,-1032.0,15540.0,114.0,250.0,-24.0,-0.3989011566352607,-0.3995977605217002,-0.7943677273188084,-0.22400761329795105
-9121.498188972473,5676.0,-1296.0,15404.0,107.0,242.0,231.0,-0.3737313558328774,-0.41441280674068864,-0.7964256331487699,-0.2330088198764261
-9121.513789892197,5712.0,-1420.0,15500.0,112.0,248.0,-23.0,-0.35283761744154,-0.411304838790235,-0.80737069424341,-0.23342345079882248
-9121.529404878616,5668.0,-1496.0,15548.0,181.0,270.0,248.0,-0.32207978955765443,-0.42858321971763536,-0.8099306317790121,-0.23789368348279505
-9121.544982671738,5752.0,-1368.0,15536.0,203.0,369.0,36.0,-0.28747581906972447,-0.4288814570988917,-0.8225923840966622,-0.23824382223489415
-9121.560548305511,5704.0,-1360.0,15588.0,210.0,397.0,-16.0,-0.25126309462194407,-0.4244206011122705,-0.8368586784793876,-0.23749013218707862
-9121.576111793518,5708.0,-1288.0,15848.0,210.0,335.0,-51.0,-0.21994608634267973,-0.4181047066436396,-0.8499184197246594,-0.23334706597193858
-9121.5917532444,5700.0,-1192.0,15552.0,158.0,267.0,-54.0,-0.19540233404744484,-0.41154025651115633,-0.8598944302937211,-0.23029136733577105
-9121.607336044312,5704.0,-1216.0,15608.0,137.0,118.0,-53.0,-0.18266614941381826,-0.40747447516272317,-0.8664348073671632,-0.22335701137823888
-9121.622917890549,5856.0,-1300.0,15496.0,166.0,103.0,-84.0,-0.17057876026555974,-0.4016942139892507,-0.874139172720268,-0.2131322399585479
-9121.638610839844,5884.0,-1344.0,15436.0,151.0,141.0,-126.0,-0.1568306898817293,-0.3916209901844907,-0.8832587626578695,-0.2046731368456282
-9121.6541929245,5624.0,-1360.0,15496.0,178.0,215.0,-176.0,-0.13725175016459473,-0.37649364459015017,-0.8950187762527917,-0.19584657978871242
-9121.669813394547,5644.0,-1344.0,15600.0,176.0,7.0,-190.0,-0.1341273289561183,-0.36354877246220685,-0.904117146266903,-0.1800398164143458
-9121.6853723526,5752.0,-1320.0,15360.0,192.0,206.0,-182.0,-0.11457829536081109,-0.3480498238695353,-0.9149240980296798,-0.16925433282835947
-9121.700953006744,5820.0,-1392.0,15368.0,145.0,150.0,-147.0,-0.10032733856563548,-0.3354640159876799,-0.9227985267745655,-0.16075197695968002
-9121.716525316238,5752.0,-1336.0,15612.0,104.0,96.0,-139.0,-0.09147154451051366,-0.32378572442017184,-0.9290250759632411,-0.15397457399863032
-9121.73214006424,5748.0,-1316.0,15572.0,128.0,27.0,-156.0,-0.08773173618955023,-0.3117479983305409,-0.9352186264663194,-0.14311690575372063
-9121.747756004333,5736.0,-1236.0,15248.0,184.0,-56.0,-145.0,-0.08907184089870915,-0.30195613086853307,-0.9408233895754313,-0.1254593632122236
-9121.763338565826,5720.0,-1532.0,15368.0,119.0,132.0,-90.0,-0.07605211586264854,-0.2940030668639192,-0.9453799591062744,-0.11846942756527247
-9121.77890586853,5696.0,-1220.0,15604.0,149.0,322.0,-52.0,-0.046152175961241534,-0.2872331865168527,-0.9499252202490455,-0.11405765713979935
-9121.794465780258,5848.0,-1020.0,15892.0,203.0,517.0,13.0,0.001958765715353076,-0.2836507561316277,-0.9525803601088717,-0.11013205399737344
-9121.81003665924,5976.0,-876.0,16012.0,220.0,381.0,31.0,0.039387527296922145,-0.2823210590449358,-0.9531523090753022,-0.10121323044740525
-9121.825620412827,5936.0,-896.0,15876.0,180.0,267.0,62.0,0.06659626368768011,-0.2843869049857807,-0.9519017667919764,-0.0925853785095867
-9121.841227293015,6128.0,-1000.0,15660.0,137.0,325.0,221.0,0.0987664740160607,-0.29913148850428106,-0.9450032880173186,-0.08794499321794841
-9121.856863498688,5796.0,-1028.0,15460.0,114.0,489.0,226.0,0.14369757762404153,-0.31267679943379056,-0.9346732572871506,-0.08927556996766779
-9121.87248659134,5628.0,-580.0,15452.0,-85.0,621.0,79.0,0.19242025409891828,-0.3148684333811572,-0.92265046385234,-0.11201980639898201
-9121.888096809387,5472.0,-320.0,15288.0,-333.0,625.0,-507.0,0.22804742797390062,-0.2727241329330498,-0.9201584564764577,-0.1640863580108581
-9121.903714418411,5616.0,-172.0,15356.0,-517.0,436.0,-728.0,0.23949663165000348,-0.21747455025556708,-0.9179348420997353,-0.2296558492152454
-9121.919440031052,5768.0,-320.0,15180.0,-552.0,339.0,-1144.0,0.23179218171894522,-0.12969806538931306,-0.9154608137135843,-0.30229504607767405
-9121.935111045837,5964.0,-888.0,15536.0,-554.0,284.0,-1534.0,0.20566616550213027,-0.01071985962456791,-0.9030479029001504,-0.3769495961596464
-9121.950704097748,6232.0,-1304.0,15808.0,-329.0,402.0,-1509.0,0.18566565305857247,0.11443652280891277,-0.8779029438417439,-0.4262850791615148
-9121.966285943985,6336.0,-1300.0,15884.0,-81.0,823.0,-1039.0,0.20954075603135822,0.2218647432036733,-0.8454728118930249,-0.4382287435058051
-9121.981850624084,6152.0,-1200.0,16028.0,122.0,1263.0,-585.0,0.2760310224301892,0.31323726600767243,-0.8096709135625855,-0.41245884833630553
-9121.997436523438,5652.0,-1180.0,15620.0,163.0,1337.0,-163.0,0.35777164552851093,0.3741753629517504,-0.7734250881217257,-0.36579486119907156
-9122.013033628464,5608.0,-1360.0,15464.0,68.0,1198.0,140.0,0.4385499294980016,0.4028268524258402,-0.7386206323649066,-0.31598108764110183
-9122.028716802597,5300.0,-1208.0,15184.0,31.0,950.0,334.0,0.506058569048256,0.4070640317880361,-0.7120605897573232,-0.2667832738980338
-9122.044305324554,5340.0,-852.0,14820.0,-63.0,553.0,360.0,0.5502294937863372,0.3940694168055426,-0.6977399091026193,-0.2347675832640425
-9122.05992436409,5476.0,-520.0,14496.0,-125.0,195.0,424.0,0.5746870820213298,0.3658529034043467,-0.6997193807663457,-0.2151260072803399
-9122.075511932373,5592.0,-552.0,14956.0,-101.0,-36.0,310.0,0.5814030781874157,0.34097687540980043,-0.7091772959508911,-0.2068158456640828
-9122.091095685959,5944.0,-728.0,15572.0,-60.0,-153.0,196.0,0.5772202029479216,0.32289858565322127,-0.7214504805554549,-0.20509155223512393
-9122.106674909592,6020.0,-1024.0,15860.0,43.0,-43.0,305.0,0.5786546630850403,0.3049202842456457,-0.7326506331998608,-0.18816336204834436
-9122.122249126434,6124.0,-1204.0,15836.0,215.0,73.0,286.0,0.5821103755517975,0.2984842385253351,-0.739667400074637,-0.1579455833308515
-9122.137877941132,5520.0,-1488.0,16116.0,223.0,274.0,897.0,0.6043262125693551,0.25472643651287347,-0.7494749908772714,-0.09050695770240806
-9122.153503417969,5208.0,-1184.0,15732.0,118.0,402.0,1058.0,0.6333484759149639,0.19391096197972169,-0.7489635439543939,-0.0179403653130587
-9122.169077396393,4844.0,-1072.0,15472.0,-97.0,192.0,1058.0,0.6464424472774811,0.11911434345463622,-0.7526832010692873,0.03730863665912478
-9122.184629678726,4904.0,-1104.0,15420.0,-223.0,-48.0,781.0,0.6415587608809907,0.055209227859855346,-0.7622255017544759,0.06608011781999056
-9122.200195074081,5028.0,-1032.0,15376.0,-300.0,-3.0,755.0,0.6369617663068181,-0.011791831049239542,-0.765744317823961,0.08818333575070285
-9122.215851783752,5080.0,-1304.0,15004.0,-164.0,-267.0,274.0,0.6165441527484685,-0.03714763604346235,-0.7809622738458788,0.09268919935747885
-9122.231454849243,5204.0,-1824.0,15016.0,63.0,-17.0,294.0,0.6131096452554512,-0.05364359155662411,-0.7800543944953897,0.11284533489724699
-9122.247066497803,5292.0,-1948.0,15376.0,162.0,440.0,305.0,0.6401685279550883,-0.06998912056946938,-0.7524906282833476,0.1379986708757015
-9122.262672662735,5368.0,-1900.0,15720.0,108.0,650.0,373.0,0.6776592114139088,-0.0960664851915596,-0.7109308582907431,0.1616370574429217
-9122.278233766556,5560.0,-1964.0,15904.0,-70.0,747.0,106.0,0.7204680007660794,-0.11705178963934368,-0.6652681989420132,0.1569807691750974
-9122.293829202652,5832.0,-2012.0,16036.0,-209.0,688.0,-27.0,0.7572748469292402,-0.13775728020692166,-0.6237764568257173,0.13587004772296798
-9122.309401273727,6016.0,-1984.0,15632.0,-294.0,484.0,-710.0,0.7861623337952576,-0.12384710638661435,-0.6017748141090014,0.06691600903620346
-9122.324977636337,6088.0,-1964.0,15104.0,-188.0,215.0,-989.0,0.7981033470351198,-0.08567841743764397,-0.59625410479709,-0.013088114812329315
-9122.340635299683,5648.0,-2140.0,14820.0,67.0,-278.0,-1055.0,0.7795149613143235,-0.026294904427359385,-0.6206140614505686,-0.08064235746873091
-9122.356249570847,6040.0,-2516.0,14412.0,116.0,-1162.0,-865.0,0.7052283280310788,0.020090181002344394,-0.6967634403297733,-0.12949941385813463
-9122.371910572052,6460.0,-2820.0,14640.0,77.0,-1540.0,-307.0,0.6024461224513287,0.025815204902233792,-0.7844445709709897,-0.14504812929974104
-9122.387501955032,6900.0,-3088.0,15488.0,-371.0,-2078.0,336.0,0.45747347040224895,-0.0423130292327517,-0.8746239365271757,-0.1547921221799656
-9122.403096437454,7268.0,-3164.0,16008.0,-830.0,-2234.0,1014.0,0.29032491666306,-0.1785726542593641,-0.9254809111558528,-0.16525233130423617
-9122.418691396713,7220.0,-2692.0,15636.0,-1220.0,-2062.0,1378.0,0.12120374993507509,-0.34079415790657286,-0.9124591543630156,-0.19127802946903197
-9122.434259414673,6944.0,-2364.0,15076.0,-1365.0,-1845.0,1406.0,-0.04169465328891781,-0.48483890626037507,-0.8443588961196947,-0.22416700338562498
-9122.4498462677,6688.0,-2352.0,14108.0,-1325.0,-2045.0,1244.0,-0.21800084313167084,-0.5949991990815291,-0.7375830086139015,-0.23328714257387767
-9122.465443849564,6424.0,-2624.0,13656.0,-1186.0,-1616.0,980.0,-0.3569819652649603,-0.6561093973026818,-0.6201050338684236,-0.2399043188809232
-9122.481019973755,6396.0,-2888.0,13520.0,-935.0,-1711.0,677.0,-0.4812447662794139,-0.6883601772816537,-0.5003437594635572,-0.21028519592999514
-9122.496625900269,6224.0,-3020.0,13576.0,-594.0,-1825.0,633.0,-0.5761718564945125,-0.7135142745331851,-0.3689963371793192,-0.1508809960508465
-9122.512230157852,6312.0,-3304.0,13816.0,-297.0,-1716.0,908.0,-0.6288668078631823,-0.7395938569528038,-0.21897870544936218,-0.09785597214972784
-9122.527785301208,6444.0,-3300.0,13516.0,-111.0,-1706.0,1252.0,-0.647039605138547,-0.7590707087210617,-0.0427730248320882,-0.05763572581803303
-9122.543367385864,6632.0,-2852.0,13180.0,-59.0,-1940.0,1663.0,-0.6343045764461192,-0.7531169866931635,0.17307750734403202,-0.022730708420442683
-9122.558923006058,6788.0,-2664.0,12832.0,25.0,-2302.0,1853.0,-0.575448647538639,-0.7078201349717199,0.4089453077350223,0.024763801325227385
-9122.5745241642,6876.0,-2688.0,13204.0,129.0,-2615.0,1869.0,-0.4604490174280078,-0.617959800649129,0.63163785070336,0.08453409188079589
-9122.590151786804,6716.0,-2988.0,13452.0,212.0,-2915.0,1755.0,-0.28880476625267626,-0.4870534053133777,0.8099346028906903,0.15289449435044966
-9122.605772972107,6728.0,-3016.0,13064.0,338.0,-3208.0,1567.0,-0.06546989240349653,-0.32633080623707283,0.9180176991898797,0.21555834955634628
-9122.621358156204,6848.0,-2832.0,13272.0,409.0,-3363.0,1391.0,0.18047328835038065,-0.1465960082975267,0.9378082201688741,0.25778817802009524
-9122.636957883835,7220.0,-2452.0,13440.0,653.0,-3344.0,1441.0,0.4093394874037181,0.05416577596653684,0.8738226070113678,0.2567903896991879
-9122.6525452137,7344.0,-2224.0,13776.0,725.0,-3370.0,1485.0,0.5984089219316073,0.2555293729260224,0.7246928053680747,0.22678588927099297
-9122.668122529984,7100.0,-2408.0,13648.0,656.0,-3549.0,1478.0,0.7375082873050552,0.42934226368862566,0.4915445401995802,0.17358200300455676
-9122.683717250824,6868.0,-3040.0,13872.0,524.0,-4150.0,1437.0,0.8155504439037818,0.5481209039223084,0.1663840793674679,0.0822027144611181
-9122.699297189713,7312.0,-3284.0,13820.0,421.0,-4592.0,1525.0,0.7837061129815185,0.5828453326588219,-0.21226771675800396,-0.03222519349159369
-9122.714847326279,8440.0,-3728.0,13620.0,358.0,-4482.0,1246.0,0.6353752915890031,0.5292887752130918,-0.5402315161674169,-0.15588951283222396
-9122.730464696884,9516.0,-3840.0,14228.0,268.0,-3903.0,1406.0,0.43069809124170455,0.3991767612959346,-0.7758049614119408,-0.23083268678992996
-9122.746073246002,9720.0,-3004.0,14752.0,467.0,-3295.0,1581.0,0.21251678414212868,0.2315444435746229,-0.9178730634193323,-0.24234856417320985
-9122.761650562286,9468.0,-3008.0,15044.0,672.0,-3462.0,1542.0,-0.04338060525842468,0.04473852897566144,-0.9739766483543274,-0.2179130000091259
-9122.777222394943,9100.0,-3812.0,15564.0,1012.0,-3656.0,1453.0,-0.31149972273825993,-0.14343810770210244,-0.9284182637167956,-0.14294390364726337
-9122.792851686478,9220.0,-4680.0,15576.0,1159.0,-3527.0,1555.0,-0.5315810601154635,-0.3254858850123769,-0.7807063749008418,-0.04447551431311323
-9122.808487176895,9980.0,-5056.0,15584.0,1038.0,-2755.0,1795.0,-0.6539321683645283,-0.4851658579863578,-0.5801490965405179,0.020342939946039744
-9122.82407951355,10452.0,-4512.0,15324.0,1085.0,-1859.0,1822.0,-0.6849717964363745,-0.6176032692004678,-0.38343491233051497,0.04855417557441271
-9122.839728832245,10764.0,-3704.0,15332.0,1665.0,-1153.0,1691.0,-0.6246877030590772,-0.749215897097124,-0.21069079923857426,0.06364118399225918
-9122.855323314667,10676.0,-3052.0,15476.0,2300.0,-906.0,1376.0,-0.4841030225019734,-0.8687731982597802,-0.05676046223090616,0.08749653431571017
-9122.870913267136,10816.0,-3428.0,15800.0,2688.0,-697.0,1457.0,-0.2844249773521259,-0.9493171280098777,0.10006977381560717,0.08880013003263841
-9122.886500597,10716.0,-4376.0,16040.0,2628.0,-344.0,1710.0,-0.07416160968829676,-0.9611885508944231,0.2609923361898248,0.049996257140883626
-9122.902134418488,10692.0,-5100.0,16004.0,2370.0,442.0,1878.0,0.10283285498851313,-0.9040535482031141,0.4116569872957126,-0.051488937907947785
-9122.917751312256,9676.0,-4480.0,17776.0,2181.0,1735.0,1871.0,0.21211139187180572,-0.7767692387976247,0.5422729281715879,-0.2399549509140744
-9122.933389663696,7716.0,-2156.0,19936.0,2033.0,2483.0,826.0,0.23990816846271326,-0.6224715626164897,0.5779477768254457,-0.47005275416827047
-9122.94904255867,8464.0,-1268.0,18348.0,1526.0,3997.0,-141.0,0.10809358511174914,-0.406151508576299,0.5538956993598041,-0.7187185006451405
-9122.964703559875,8064.0,-1368.0,15892.0,1375.0,3923.0,-813.0,-0.07866209969345477,-0.1747655958982754,0.44615983069982246,-0.8741914355746364
-9122.980298280716,9364.0,-1984.0,14680.0,1222.0,3981.0,-1163.0,-0.2842973975969249,0.07040019787036685,0.28780599616505814,-0.9118039868474297
-9122.995891809464,9688.0,-3164.0,15240.0,1108.0,4027.0,-674.0,-0.4183927791793535,0.32474006550427026,0.0973507752397008,-0.8426234026818198
-9123.011518716812,10132.0,-5004.0,16264.0,880.0,4328.0,85.0,-0.44224938222047955,0.5705018830447756,-0.11919077174995471,-0.6817159564639951
-9123.027115345001,10016.0,-5872.0,16328.0,1152.0,4819.0,1160.0,-0.34779422387110975,0.7317206894976093,-0.3943271091182705,-0.43373971620946067
-9123.042788982391,9476.0,-4732.0,15900.0,1686.0,4777.0,2378.0,-0.18066929603967455,0.700433027028124,-0.6784468984890619,-0.12830427135259456
-9123.058400630951,8036.0,-2616.0,16232.0,2021.0,4817.0,2821.0,0.01121304198495304,0.4931457746149443,-0.8430470349556028,0.21436699727671885
-9123.074002504349,6672.0,-828.0,16512.0,1973.0,4780.0,3306.0,0.19058218856017867,0.14308093054881227,-0.8318608185397409,0.5012123854168915
-9123.089590787888,5688.0,396.0,16236.0,1381.0,4768.0,2518.0,0.3682766558233769,-0.20272593579730383,-0.6507388183381031,0.6323080657706232
-9123.105177640915,5036.0,520.0,15588.0,798.0,4706.0,1901.0,0.4971571480812752,-0.4970322740370062,-0.38474278681170715,0.5981360018203693
-9123.12076163292,4504.0,220.0,14384.0,503.0,4034.0,1144.0,0.5581129297821644,-0.6794343694015623,-0.12548041851540412,0.4594927201328318
-9123.13634109497,4260.0,-824.0,14016.0,204.0,3388.0,262.0,0.5721902296148798,-0.774684404664979,0.060668583684763966,0.2622627256318045
-9123.151965379715,4196.0,-1500.0,14788.0,552.0,3234.0,73.0,0.5679762747486844,-0.788966870659815,0.23047892786801472,0.04258746450161382
-9123.167546510696,4012.0,-1116.0,15552.0,920.0,3108.0,7.0,0.5473789602581641,-0.7262034829929448,0.3737710305459148,-0.18248285366097253
-9123.18310713768,4212.0,-276.0,15660.0,1114.0,3181.0,403.0,0.49924394634704844,-0.584003179490903,0.511537778395035,-0.3847400026706525
-9123.198683738708,3788.0,252.0,15868.0,1089.0,3266.0,1182.0,0.42760817836185044,-0.3564639436732966,0.64567511780368,-0.5226742244535736
-9123.21424794197,2680.0,300.0,15456.0,922.0,3220.0,1929.0,0.3438276104067409,-0.06289614686596054,0.7426090147700627,-0.571277953551196
-9123.229832172394,1840.0,-92.0,14600.0,729.0,3063.0,2497.0,0.25840041621409093,0.25817387966857797,0.7660512776950543,-0.528905391066336
-9123.245443105698,1064.0,-164.0,14260.0,479.0,2716.0,2728.0,0.18182881266044904,0.5463126561260854,0.7043804575573693,-0.41512520479275156
-9123.261028051376,780.0,48.0,13976.0,315.0,2342.0,2591.0,0.11160818442853307,0.7606439468422542,0.5799873728455318,-0.26940498629487564
-9123.276689291,1080.0,484.0,14116.0,218.0,1977.0,2308.0,0.04960874609839037,0.8949975820027867,0.4260528912166359,-0.12246319612706556
-9123.292266607285,1632.0,1104.0,15340.0,275.0,1691.0,1876.0,-0.014355212388473818,0.9606965835299555,0.2771314182386412,0.0073606586792394745
-9123.307908058167,2144.0,1740.0,15980.0,373.0,1650.0,1338.0,-0.08491818338293562,0.9744157525751743,0.16027688767737486,0.1327183579643473
-9123.323500871658,2460.0,1536.0,16844.0,544.0,1562.0,985.0,-0.16219133452276466,0.9526987177740062,0.07023053790035097,0.2472383378517919
-9123.339135885239,2416.0,1084.0,16884.0,644.0,1534.0,570.0,-0.23472607928437061,0.9033596144796486,0.014834403502397828,0.3586432978652968
-9123.354766607285,2488.0,652.0,16720.0,696.0,1727.0,307.0,-0.2974788410745148,0.8242715954458919,-0.022661739474359576,0.48121629400722044
-9123.37034535408,2512.0,512.0,16700.0,781.0,2024.0,51.0,-0.34569844817267764,0.7062287313380312,-0.04526806219075803,0.6161853329227911
-9123.385936021805,2456.0,736.0,16400.0,883.0,2111.0,-213.0,-0.37293559515821006,0.5556834979362101,-0.04738010113748093,0.7415456951540961
-9123.401511907578,2696.0,1128.0,16012.0,963.0,2297.0,-596.0,-0.3626348310292048,0.3688348095793617,-0.03012528669363026,0.8553065705749037
-9123.417137145996,3292.0,1208.0,16528.0,993.0,2203.0,-898.0,-0.3139178476229882,0.17079168627135724,0.003189197911841641,0.9339569657436125
-9123.43271112442,3428.0,712.0,16656.0,1238.0,1784.0,-1157.0,-0.23321643758808447,-0.008926446277668587,0.0710067588376657,0.9697878386507766
-9123.448325872421,3488.0,288.0,16640.0,1313.0,1560.0,-1312.0,-0.1280197994237585,-0.17170347917701254,0.14602367957799414,0.9658187879703486
-9123.463945388794,3204.0,-72.0,16740.0,1146.0,1381.0,-1368.0,-0.012908063074250057,-0.31211249264372404,0.20268147942484113,0.9280837202222385
-9123.479531049728,3508.0,-292.0,16600.0,911.0,1211.0,-1407.0,0.10279355292349264,-0.42900121070110137,0.23292601670646373,0.8666815548029244
-9123.495118379593,3732.0,-628.0,16608.0,745.0,1051.0,-1511.0,0.2203589233787016,-0.5245719453903098,0.23850388919107138,0.7870083314918199
-9123.510684251785,4100.0,-728.0,16712.0,719.0,918.0,-1631.0,0.3410670038261829,-0.5985416609029661,0.22735861445652844,0.6882799136230526
-9123.526276111603,4188.0,-552.0,16720.0,640.0,1010.0,-1606.0,0.4442709853717225,-0.6619068019116253,0.20875963443183684,0.5664998606988786
-9123.541866540909,3828.0,-260.0,15696.0,475.0,747.0,-1614.0,0.5311730456170806,-0.7007592544595925,0.16579687531955697,0.44643371180207947
-9123.557502746582,2852.0,-252.0,14724.0,502.0,245.0,-1631.0,0.6150495697466697,-0.7026334879494606,0.09583718022524568,0.34472517061114893
-9123.573061704636,2624.0,216.0,14548.0,89.0,-887.0,-1968.0,0.675330177185673,-0.6756151661376062,-0.06862941977090148,0.2876861168168039
-9123.588702917099,3120.0,420.0,14612.0,-80.0,-1454.0,-2597.0,0.7038295302436164,-0.6079429889443053,-0.29956751480315497,0.21281122767649177
-9123.60428905487,3996.0,840.0,15480.0,-230.0,-1528.0,-3102.0,0.679006500577394,-0.4905024381341109,-0.5382219326221752,0.09313797078842044
-9123.619858503342,3748.0,1148.0,16068.0,-364.0,-832.0,-3244.0,0.624377587167758,-0.33848749986619325,-0.6997109909234178,-0.07735224791737567
-9123.635436296463,3084.0,1256.0,15336.0,-683.0,-845.0,-3437.0,0.5050673852549536,-0.16353710026670806,-0.8037909215646571,-0.26848222957641
-9123.651026248932,2400.0,420.0,14984.0,-1163.0,-1085.0,-3731.0,0.3063486069762953,0.020322700976040508,-0.8272536324073163,-0.4705198683346142
-9123.666655302048,2756.0,-28.0,15020.0,-1413.0,-2007.0,-3990.0,9.494517021059546e-05,0.17422034847269205,-0.7550597305034906,-0.6320854883126685
-9123.682241916656,3408.0,-360.0,14944.0,-1659.0,-2760.0,-4273.0,-0.3554741950382345,0.2750050030737626,-0.5422531589137293,-0.7099097524294204
-9123.697835683823,4004.0,-296.0,15104.0,-1798.0,-3029.0,-4461.0,-0.655846698522926,0.31725568998132103,-0.20570792758173287,-0.6533744590516857
-9123.713425159454,4536.0,-128.0,16468.0,-1841.0,-3092.0,-4591.0,-0.8218369683761173,0.2927743840007664,0.18139147976240916,-0.45383288615186096
-9123.729016304016,4996.0,-292.0,17068.0,-1885.0,-2722.0,-4583.0,-0.818018264492716,0.22181182940426025,0.5097098057353018,-0.1477888535375422
-9123.744693279266,4764.0,-700.0,17376.0,-2187.0,-2204.0,-4508.0,-0.6640089821421009,0.13433766529998872,0.7060101137982435,0.20638600371863972
-9123.76029586792,4100.0,-1268.0,17068.0,-2388.0,-2123.0,-4338.0,-0.3865233128960887,0.039495208267320545,0.7572571111049846,0.5249776421836325
-9123.77593946457,3896.0,-2028.0,16736.0,-2196.0,-2369.0,-3983.0,-0.036423300567628256,-0.037529166925920746,0.6847271720617443,0.7269206316001307
-9123.7915225029,3992.0,-2768.0,16668.0,-1428.0,-2245.0,-3381.0,0.2879566370510725,-0.08667820952954156,0.5523964597875264,0.7774483998216201
-9123.80709195137,4308.0,-3328.0,17112.0,-507.0,-2000.0,-2481.0,0.5283820090638627,-0.08016329894057263,0.43198182734044804,0.726483309407868
-9123.822672128677,4264.0,-2888.0,16888.0,721.0,-1105.0,-1371.0,0.6531354662910409,-0.02810202232700707,0.41131012899160346,0.6351758156627404
-9123.83825302124,3964.0,-1644.0,15904.0,922.0,-871.0,-986.0,0.7342128541965254,0.0370237978539435,0.4061645701515299,0.5427624388981656
-9123.853830814362,3648.0,-24.0,14528.0,355.0,-1195.0,-375.0,0.7881803513650565,0.10245425985501302,0.34516434800292056,0.4991356841855092
-9123.869397640228,3868.0,240.0,14412.0,-475.0,-1582.0,-575.0,0.8552680788285218,0.11997536908627192,0.21800181211460762,0.4545301244849777
-9123.88499212265,4260.0,-308.0,14628.0,-988.0,-2011.0,-700.0,0.9126906998034395,0.11034204875546397,0.03500947950431069,0.39191153990867866
-9123.900592327118,4584.0,-1148.0,15384.0,-856.0,-2281.0,-916.0,0.935365440753222,0.11432526420702324,-0.1632589126760844,0.2921776063293484
-9123.91626906395,4232.0,-1764.0,15860.0,-331.0,-2124.0,-1102.0,0.9164160394840831,0.15349171989938012,-0.3268630312514618,0.1725760507710834
-9123.931957006454,4080.0,-1800.0,15940.0,300.0,-1836.0,-1131.0,0.861754636843304,0.233076253432455,-0.44590878797860817,0.06495967032246752
-9123.947612047195,4324.0,-1932.0,16340.0,630.0,-1401.0,-1078.0,0.7901222423530793,0.32590223033423843,-0.5187506236439551,-0.01980830308528702
-9123.963279247284,4836.0,-1624.0,16876.0,581.0,-1064.0,-920.0,0.7176484238734362,0.4021602189931438,-0.5619400111744022,-0.08643680820502549
-9123.97894525528,5140.0,-1088.0,16804.0,349.0,-658.0,-557.0,0.6668443805706138,0.44483114740892693,-0.5842478853837156,-0.12687880367070176
-9123.994693517685,5068.0,-940.0,16540.0,-12.0,-361.0,-260.0,0.6456449996994075,0.45297417869045753,-0.5945241937967976,-0.15651808455614724
-9124.010310173035,4860.0,-820.0,16572.0,-156.0,-160.0,-203.0,0.6406223280118145,0.45229888805153257,-0.5931182210582638,-0.18231709894782505
-9124.025941610336,4524.0,-1116.0,16200.0,-186.0,-145.0,-476.0,0.6323111186321029,0.46366144474027354,-0.578792956936831,-0.22405228612067465
-9124.041567325592,4716.0,-1520.0,16004.0,-175.0,-105.0,-755.0,0.6179910952606791,0.4888782092236945,-0.5492757186451307,-0.2781749227224029
-9124.057169914246,4732.0,-1472.0,15936.0,-132.0,-145.0,-1042.0,0.5889583244476241,0.5258688938539896,-0.5072084303879455,-0.3454411768796898
-9124.072764396667,5008.0,-1500.0,16024.0,-206.0,-18.0,-1134.0,0.5606934718886337,0.5620198753771976,-0.4475651375122486,-0.4116332566084906
-9124.088340759277,5340.0,-1392.0,15836.0,-268.0,-264.0,-1255.0,0.5151725681616298,0.5845455895515697,-0.3867324853564408,-0.4932967296866956
-9124.103976488113,5312.0,-1448.0,15752.0,-248.0,-242.0,-769.0,0.48531984495543706,0.5872441951331232,-0.3467299186999498,-0.5471629253277375
-9124.119560718536,5208.0,-1516.0,15604.0,-102.0,-49.0,-737.0,0.45299075573359826,0.6015129849769534,-0.3054806497432817,-0.5828062085774666
-9124.135132312775,5324.0,-1712.0,15408.0,78.0,169.0,-218.0,0.4422521198591751,0.6187105667114602,-0.2912060420777202,-0.5803527704569682
-9124.150796175003,4916.0,-1900.0,15420.0,224.0,376.0,-75.0,0.43566176204134877,0.6477284619015241,-0.28375328821244933,-0.5568938320419213
-9124.166388511658,5160.0,-1908.0,15856.0,292.0,323.0,35.0,0.4286173314571016,0.6730893871338338,-0.2874183104531636,-0.5297438767165149
-9124.18198633194,5232.0,-1536.0,16116.0,411.0,140.0,6.0,0.40804115375873273,0.6942102070803351,-0.3013097250609518,-0.5106731389141335
-9124.197568416595,5448.0,-1464.0,16064.0,391.0,24.0,-25.0,0.38371121240439116,0.709375092921603,-0.3161744003098356,-0.4995862604259005
-9124.213154792786,5376.0,-832.0,15972.0,195.0,-12.0,-60.0,0.36870073205534803,0.716856261249625,-0.3213047155735499,-0.49693073022229156
-9124.228754758835,5324.0,-764.0,15920.0,-21.0,-49.0,-227.0,0.35878772796870473,0.7202055456214284,-0.3076928108608754,-0.5078390221908207
-9124.244333744049,5348.0,-872.0,15800.0,-115.0,-9.0,-320.0,0.35150126791662745,0.7244132734687165,-0.2826250166193084,-0.52133997339191
-9124.259983301163,5216.0,-1144.0,15660.0,-98.0,175.0,-416.0,0.3428687584512866,0.7389663029903439,-0.24628051983835925,-0.5250863958159684
-9124.275577545166,5004.0,-1440.0,15660.0,26.0,395.0,-338.0,0.3339058622391582,0.7642639223437825,-0.2136189835961474,-0.5086987930134785
-9124.291162014008,4992.0,-1232.0,15660.0,56.0,521.0,-296.0,0.3263489996606605,0.7933989488618878,-0.1809190090044451,-0.4809186527326501
-9124.30677652359,4844.0,-1140.0,15808.0,-59.0,573.0,-286.0,0.3270187789414767,0.8189486077717582,-0.14208560341352622,-0.44965940149288425
-9124.322390794754,4900.0,-1244.0,15492.0,-351.0,405.0,-466.0,0.33824702828347863,0.8289669589846581,-0.08327412412036701,-0.4375707360200284
-9124.338016748428,5004.0,-1092.0,15456.0,-481.0,200.0,-744.0,0.34506006871069594,0.8251756728883939,-0.005145784887056007,-0.44720485099387325
-9124.353642940521,5452.0,-1192.0,15816.0,-464.0,10.0,-841.0,0.34449983703441234,0.809079546842196,0.07358222827722631,-0.4704208805385325
-9124.369245529175,5580.0,-1312.0,15856.0,-364.0,-133.0,-1022.0,0.3276552131638062,0.7825017988862961,0.1559920316108681,-0.5059639138320096
-9124.384875535965,5504.0,-1392.0,15872.0,-366.0,-58.0,-722.0,0.3207956070237358,0.7576860748078917,0.21925310019969624,-0.5243377428807743
-9124.400495290756,5132.0,-1432.0,15788.0,-447.0,2.0,-601.0,0.32216546443181787,0.7321358627017283,0.27890770068364384,-0.5314103749201651
-9124.416061639786,5128.0,-1316.0,15596.0,-532.0,53.0,-619.0,0.3253709788891549,0.7027149322837769,0.3437424492240798,-0.5311935416056476
-9124.431638240814,5036.0,-1032.0,15448.0,-555.0,-129.0,-708.0,0.32945956093052287,0.6576006114921983,0.40793689792317633,-0.5409300516604436
-9124.447305202484,5200.0,-1144.0,15512.0,-436.0,-443.0,-838.0,0.32936398588144744,0.5917912067812668,0.461945369509426,-0.5726333975323633
-9124.462886571884,5140.0,-792.0,15524.0,-334.0,-812.0,-893.0,0.33277267166094593,0.5025275092132199,0.49841385828423207,-0.6231469147398702
-9124.478459835052,5340.0,-896.0,15408.0,-286.0,-879.0,-779.0,0.3393303425013516,0.4101573366679723,0.5196660154683309,-0.6682612589419049
-9124.4940264225,5336.0,-1264.0,15252.0,-312.0,-757.0,-1028.0,0.32277798943152347,0.30801473299822024,0.5485749089875754,-0.7071116340606
-9124.509613990784,5340.0,-1580.0,15200.0,-286.0,-601.0,-1006.0,0.2955312328837345,0.2134142814948245,0.5730796905246882,-0.7339586522089615
-9124.525192975998,5532.0,-1660.0,15128.0,-132.0,-288.0,-959.0,0.24999081371723264,0.14294102694204525,0.5895747816690053,-0.7546350327765694
-9124.540780544281,5876.0,-1720.0,15704.0,-10.0,59.0,-815.0,0.19289762858981704,0.10431952861192527,0.6000448235958028,-0.769320577204648
-9124.556360721588,6048.0,-1472.0,15928.0,14.0,180.0,-586.0,0.1437695003710304,0.08575191612278896,0.6064791834720816,-0.77727726048005
-9124.57201218605,6132.0,-1408.0,16280.0,-18.0,104.0,-435.0,0.10877978435819091,0.06942953307077072,0.611668933396891,-0.7805175298285555
-9124.58760356903,6040.0,-1408.0,16080.0,-23.0,254.0,-430.0,0.06597131192806759,0.06342954826967076,0.617538799880992,-0.781197996061395
-9124.603209257126,5968.0,-1420.0,15636.0,37.0,33.0,-358.0,0.03952197502196957,0.04650483389495339,0.6167533807235506,-0.7847869655395893
-9124.618807315826,5784.0,-1260.0,15360.0,165.0,222.0,-504.0,-0.007652734787047848,0.03504084589347323,0.6073653003772721,-0.7936126049068115
-9124.634435415268,5564.0,-1372.0,15204.0,239.0,427.0,-303.0,-0.05198915859767795,0.04827380190803959,0.5905668026755128,-0.8038641794577431
-9124.6500685215,5292.0,-1344.0,15376.0,308.0,504.0,-20.0,-0.08061113323665238,0.08103614068461758,0.5658557017986654,-0.816542903859427
-9124.665637016296,5268.0,-1220.0,15636.0,339.0,496.0,-319.0,-0.13006521445269068,0.09799560401237463,0.5393625332632158,-0.8261767119058199
-9124.681207418442,5268.0,-1184.0,15504.0,338.0,408.0,-280.0,-0.17217814050256647,0.11015742333371696,0.5118986912825052,-0.8343738729615239
-9124.696786403656,5372.0,-1160.0,15564.0,316.0,180.0,-327.0,-0.20694800704856245,0.10370805812135883,0.4887216874096347,-0.8411707753570642
-9124.712358236313,5504.0,-1472.0,15500.0,296.0,139.0,-357.0,-0.2416204189638522,0.09314021908295281,0.4671288725630476,-0.8454200666809892
-9124.727971792221,5760.0,-1584.0,15368.0,348.0,336.0,-320.0,-0.28147548595571414,0.09729819120243384,0.43623561081540124,-0.8491190167763545
-9124.74358844757,5768.0,-1628.0,15752.0,413.0,622.0,-337.0,-0.33286867029248157,0.11997405769988631,0.39203069610146346,-0.849185849582376
-9124.759203910828,5920.0,-1460.0,15732.0,539.0,747.0,-340.0,-0.3879306950838507,0.14733705844521194,0.3325503362546086,-0.8468836052713615
-9124.774811267853,5856.0,-1272.0,15788.0,636.0,780.0,-370.0,-0.44423593996843813,0.17175899659059607,0.26259003972263256,-0.8391661026096181
-9124.790446043015,5908.0,-1260.0,15772.0,641.0,725.0,-409.0,-0.49840344556779087,0.18958391494209487,0.19274727453632837,-0.8237113771219868
-9124.806047677994,5856.0,-1316.0,15828.0,588.0,722.0,-313.0,-0.540871162549859,0.209594357581441,0.12374459503936679,-0.8051185415766614
-9124.82163977623,5796.0,-1284.0,15552.0,536.0,747.0,-143.0,-0.5669983333724565,0.23417592205246535,0.05327674803244128,-0.7879315424596366
-9124.837235450745,5408.0,-1388.0,15600.0,501.0,999.0,139.0,-0.5696543042413239,0.2771179106991491,-0.033221144587651304,-0.773043331761783
-9124.852896690369,5116.0,-1532.0,15548.0,259.0,717.0,325.0,-0.5505477579191407,0.31062119182387116,-0.09384477787116,-0.769158500639782
-9124.868524312973,5056.0,-1068.0,15424.0,482.0,647.0,404.0,-0.5296252131887612,0.32635618366669833,-0.16761016707910878,-0.7647846800433316
-9124.884093523026,5048.0,-896.0,15176.0,495.0,414.0,307.0,-0.5162378477857742,0.3257915633532844,-0.22796618586293038,-0.7585445009124003
-9124.899699687958,4892.0,-860.0,15684.0,389.0,220.0,213.0,-0.5084059721145979,0.3181209480085409,-0.2693055418861358,-0.7535230288888142
-9124.915298700333,5252.0,-1096.0,15608.0,275.0,190.0,-60.0,-0.5153554598300422,0.31952774655042304,-0.29388780722549296,-0.7388780183304725
-9124.930958986282,5368.0,-1336.0,15672.0,201.0,303.0,-182.0,-0.5246594164482954,0.33434275080690046,-0.3150643632569734,-0.7167160307405485
-9124.946651220322,5524.0,-1504.0,15688.0,235.0,517.0,-215.0,-0.5300745136289591,0.36119983542320844,-0.34654566693019473,-0.6844426854187108
-9124.962257385254,5452.0,-1240.0,15636.0,297.0,737.0,-49.0,-0.5188930400753899,0.39191005169963833,-0.3957700070064842,-0.6484771591137147
-9124.97786641121,5332.0,-1176.0,15696.0,306.0,720.0,31.0,-0.5016345474194619,0.41666546590459597,-0.4456187474328536,-0.61333237505789
-9124.993507862091,5304.0,-1004.0,15816.0,304.0,588.0,49.0,-0.4864482465542146,0.4321212163838461,-0.4885136703874808,-0.581372300354796
-9125.009130954742,5312.0,-1248.0,15784.0,231.0,524.0,72.0,-0.4686350522456435,0.4452014291446872,-0.5244564358496506,-0.5541861800786198
-9125.024722576141,5328.0,-1100.0,15628.0,148.0,479.0,-17.0,-0.45290885673921666,0.4625951472583559,-0.5499520105241044,-0.5276666403523075
-9125.04032087326,5164.0,-1116.0,15504.0,104.0,398.0,-25.0,-0.438929906340792,0.4776553884324211,-0.5690361961346265,-0.5053549986987081
-9125.055941581726,5052.0,-1268.0,15416.0,103.0,214.0,-256.0,-0.44374024873761203,0.49558921771965936,-0.5707813631258241,-0.481346605304872
-9125.07153725624,5064.0,-1220.0,15536.0,75.0,117.0,18.0,-0.4404253789551726,0.49662215671493076,-0.5791446369752542,-0.47326885434687593
-9125.087114334106,4992.0,-1048.0,15600.0,70.0,-36.0,-40.0,-0.4469769875564239,0.49440755136829867,-0.578846836821964,-0.469796855296195
-9125.102691411972,5028.0,-912.0,15624.0,50.0,-213.0,-94.0,-0.4637098918963057,0.4883206869100493,-0.5683511579911484,-0.4727504670577646
-9125.118260383606,5104.0,-804.0,15628.0,-12.0,-367.0,-99.0,-0.4852832751648554,0.47826052386362194,-0.5484184144179859,-0.4847723763646474
-9125.1338326931,5128.0,-936.0,15512.0,-99.0,-496.0,-122.0,-0.5095940819415431,0.46677016587633313,-0.5175237657024973,-0.5045875898504074
-9125.149407863617,5044.0,-1064.0,15512.0,-174.0,-764.0,-170.0,-0.5432415694213482,0.44738057487194377,-0.4677253382612262,-0.5347637108371333
-9125.164983034134,4912.0,-1140.0,15544.0,-210.0,-535.0,-209.0,-0.5659039640159204,0.440194343828079,-0.42369595178197716,-0.5535913507420429
-9125.180577754974,4964.0,-1116.0,15820.0,-205.0,-619.0,-189.0,-0.5890916671524811,0.4265601290499828,-0.3751909138585354,-0.5746731611571655
-9125.196171283722,4984.0,-928.0,15924.0,-250.0,-746.0,-253.0,-0.6153784008282557,0.4091083401626456,-0.3139429090456507,-0.5961372657898328
-9125.211815595627,5124.0,-948.0,16000.0,-289.0,-772.0,-434.0,-0.6467348675964921,0.3949203087120558,-0.24102099691348106,-0.6063669184978301
-9125.227447271347,5492.0,-860.0,16108.0,-299.0,-459.0,-469.0,-0.669659690451536,0.3964343844868203,-0.18263000249213004,-0.6008676725957502
-9125.243067502975,5756.0,-1048.0,15800.0,-280.0,-73.0,-440.0,-0.6835756175867279,0.41538153415051826,-0.1481719917040024,-0.581573397777232
-9125.258677959442,5708.0,-1200.0,15780.0,-242.0,236.0,-346.0,-0.6887939406615845,0.4457103554045899,-0.13718649568114405,-0.5550540980802927
-9125.274267911911,5552.0,-1344.0,15412.0,-85.0,341.0,-143.0,-0.6880539869077773,0.4686354589625027,-0.14781996326401997,-0.5339585903082191
-9125.289870023727,5244.0,-1424.0,15620.0,-50.0,230.0,-120.0,-0.6885504211186964,0.4836234454198586,-0.1542530592592996,-0.5178925316382135
-9125.305421590805,5048.0,-1532.0,15868.0,29.0,108.0,-111.0,-0.6933717549879237,0.48806055683421395,-0.15725720144122604,-0.5062634441103931
-9125.320993900299,5160.0,-1240.0,15648.0,-8.0,0.0,-146.0,-0.6995237944239334,0.49035958758130016,-0.15057628593220196,-0.4975346400168572
-9125.33657670021,5336.0,-1204.0,15536.0,-249.0,-251.0,-160.0,-0.6988103603951947,0.4963308521025626,-0.11742534456049056,-0.5015287169348652
-9125.352158546448,5452.0,-1236.0,15400.0,7.0,7.0,-109.0,-0.7038814381995783,0.4971496861704941,-0.11334195553633557,-0.4945166444255156
-9125.367779254913,5392.0,-1260.0,15556.0,49.0,5.0,-95.0,-0.7101283389224289,0.49511680196526603,-0.1115483598480738,-0.48798981350655707
-9125.383361816406,5476.0,-1264.0,15628.0,135.0,37.0,-78.0,-0.7189551802843344,0.48887907471018843,-0.11612040526688237,-0.48022572872919395
-9125.398940086365,5332.0,-1324.0,16036.0,224.0,40.0,-7.0,-0.7283585925468226,0.4763159494010741,-0.1276048393843665,-0.47574560636442564
-9125.414569616318,5140.0,-1204.0,15408.0,237.0,16.0,18.0,-0.7372269442881191,0.4614519891689471,-0.13908503061643604,-0.47351224753542503
-9125.430162191391,4976.0,-1140.0,15684.0,198.0,9.0,147.0,-0.7389452676581066,0.44703178112249004,-0.15363134255708993,-0.4801248677753003
-9125.445818185806,4984.0,-1140.0,15540.0,138.0,-74.0,98.0,-0.7412167704829378,0.43349663644478525,-0.15833585092030303,-0.48745063715133796
-9125.46140551567,5148.0,-1276.0,15656.0,84.0,-102.0,107.0,-0.7412678737950317,0.4220336582171789,-0.15922553149871913,-0.49704804670189445
-9125.476996421814,5228.0,-1256.0,15652.0,62.0,-67.0,59.0,-0.7419863982688535,0.41411146726734877,-0.15962640648311105,-0.5024811317999777
-9125.49258351326,5184.0,-1164.0,15632.0,38.0,-88.0,12.0,-0.7441285589162978,0.4074413768912994,-0.15590003455308757,-0.5059242941670445
-9125.50816488266,5364.0,-1324.0,15728.0,68.0,-155.0,-23.0,-0.7496825378957372,0.39627916590578816,-0.14787457589051733,-0.508991183468259
-9125.523798942566,5280.0,-1524.0,15968.0,168.0,-128.0,56.0,-0.7546141451265557,0.37863324511833335,-0.14874164957702615,-0.5148497638604712
-9125.539402961731,5188.0,-1120.0,16032.0,67.0,-209.0,113.0,-0.7543790368180658,0.36309608984028835,-0.14155538663873,-0.528238176266824
-9125.554991960526,5096.0,-1240.0,15632.0,-244.0,-218.0,133.0,-0.7429447691069637,0.36710925715427617,-0.11997017477636875,-0.5466909735237663
-9125.570618391037,5056.0,-1264.0,15452.0,-35.0,-379.0,71.0,-0.7420666091137937,0.35015724835130113,-0.09581065494288038,-0.5635134137399195
-9125.586186885834,5116.0,-1292.0,15572.0,-70.0,-758.0,116.0,-0.7389718881179193,0.3155190302185993,-0.046579088852140856,-0.5934632917233011
-9125.601815223694,5204.0,-1392.0,15544.0,-19.0,-584.0,150.0,-0.7321144996757614,0.2852587319467468,-0.011912083145634147,-0.6184609264034189
-9125.617390871048,5344.0,-1412.0,15620.0,16.0,-571.0,180.0,-0.7224743360733273,0.2526335078491604,0.019327392428718178,-0.6432989945034417
-9125.632977485657,5388.0,-1332.0,15764.0,73.0,-267.0,227.0,-0.710610796898557,0.2330432325900413,0.0271606831136608,-0.6633139862598867
-9125.648574590683,5448.0,-1424.0,15888.0,84.0,-435.0,205.0,-0.6988484589353026,0.20267984484334045,0.045181751463143,-0.6844635280807555
-9125.66414141655,5420.0,-1236.0,15968.0,86.0,-393.0,179.0,-0.6876760528396109,0.17424907687474656,0.06090771603499557,-0.7021603489849253
-9125.679761171341,5420.0,-1192.0,15796.0,51.0,-357.0,202.0,-0.6737892362400482,0.14999167846555342,0.07618423658236166,-0.7195182580133052
-9125.695337295532,5280.0,-1136.0,15648.0,20.0,-407.0,205.0,-0.6579986238550729,0.12421795524248833,0.09618447976501096,-0.7364484071898992
-9125.710917711258,5208.0,-1304.0,15616.0,24.0,-746.0,160.0,-0.6403338581562987,0.07575515983458221,0.13551056314064167,-0.7522437059453619
-9125.726496696472,5192.0,-1328.0,15492.0,11.0,-548.0,220.0,-0.6187050494769553,0.0413890027497376,0.1637462862811923,-0.7672536516252095
-9125.742075920105,5216.0,-1316.0,15768.0,52.0,-598.0,107.0,-0.6023781240217057,-0.00024504434287177273,0.19182630561118885,-0.7748181748829355
-9125.757684469223,5268.0,-1344.0,15476.0,106.0,-526.0,89.0,-0.5869483974353874,-0.04012820704603101,0.21191802592125059,-0.7803666164290612
-9125.77332830429,5136.0,-1492.0,15748.0,104.0,-459.0,116.0,-0.5697521258023258,-0.0746821696250283,0.22829748971109173,-0.7859296055471146
-9125.788894176483,5496.0,-1536.0,15740.0,74.0,-341.0,97.0,-0.5556162429214592,-0.09986796317524116,0.24040814793630405,-0.7896333978112293
-9125.804500341415,5520.0,-1236.0,15772.0,101.0,-321.0,157.0,-0.5369710579517282,-0.12356640151174794,0.24996368353291723,-0.7961856468527267
-9125.820080757141,5440.0,-1328.0,15676.0,63.0,-402.0,86.0,-0.5212724730803749,-0.15245658041947235,0.2649000428315537,-0.7967810032896818
-9125.835659980774,5352.0,-1396.0,15764.0,63.0,-484.0,84.0,-0.5030000729991321,-0.1867922229507634,0.28313558684689527,-0.7949426592332582
-9125.851324796677,5624.0,-1384.0,15692.0,19.0,-536.0,31.0,-0.4868269151245968,-0.22370668270332061,0.30528461535811274,-0.7872459453371569
-9125.866930007935,5132.0,-1376.0,15732.0,-47.0,-756.0,-15.0,-0.4676762049850033,-0.27333890682276035,0.3394016937802329,-0.7690066966983268
-9125.882571935654,5412.0,-1232.0,15756.0,-27.0,-375.0,-90.0,-0.46305459128995186,-0.2997802677913319,0.35399333934208055,-0.7552489339480697
-9125.898162126541,5532.0,-1276.0,15760.0,-37.0,-112.0,-119.0,-0.4684206139125755,-0.30918512359467526,0.35763998669866326,-0.7463781399020815
-9125.913788318634,5544.0,-1304.0,15704.0,13.0,63.0,-111.0,-0.4773001595784885,-0.3089278054941187,0.3510368509640444,-0.7439901195070971
-9125.929486989975,5604.0,-1356.0,15660.0,43.0,113.0,-113.0,-0.48695145483258956,-0.3066759577507891,0.3402923577049825,-0.7436593634599411
-9125.945132493973,5488.0,-1408.0,15804.0,54.0,121.0,-105.0,-0.4959208296838343,-0.304059680251231,0.3286378734316735,-0.7440479753870203
-9125.960775852203,5612.0,-1372.0,15708.0,69.0,73.0,-94.0,-0.5023114063941272,-0.3048314860386481,0.318319254149381,-0.7439313601157066
