programtime,ax,ay,az,gx,gy,gz,q0,q1,q2,q3
-2004.6363384723663,4160.0,-868.0,15980.0,376.0,-42.0,159.0,0.999360287953862,0.032723838570471585,-0.003985682957530939,0.013866491313586447
-2004.6519587039948,4212.0,-788.0,16088.0,338.0,-61.0,229.0,0.9974546117372985,0.06202371300168019,-0.009846528932975543,0.03376984479461512
-2004.6675250530243,4236.0,-880.0,16176.0,337.0,-83.0,218.0,0.9942924157354487,0.09116995669088798,-0.017517167838922803,0.05257166383947126
-2004.6831076145172,4208.0,-936.0,15888.0,332.0,-11.0,194.0,0.9902073600318747,0.11943739725444212,-0.018715747463814707,0.06981269993819728
-2004.6987097263336,4108.0,-908.0,16104.0,321.0,-2.0,141.0,0.9855687927365586,0.14663941275328923,-0.018596314388093543,0.08249372401796558
-2004.7143003940582,4068.0,-912.0,16156.0,231.0,8.0,255.0,0.9803847883293558,0.1656990821202259,-0.019677396112553747,0.10489175887146027
-2004.729907989502,4060.0,-712.0,16016.0,172.0,115.0,-164.0,0.9793801349049019,0.1793324455641798,-0.006058003455964377,0.0928317074913183
-2004.7455110549927,4092.0,-656.0,16180.0,110.0,182.0,-253.0,0.9794461184090592,0.18705800468698783,0.014172312025455543,0.07411983262126003
-2004.761103630066,4168.0,-592.0,16048.0,64.0,175.0,-275.0,0.9796043016085486,0.19073190303147486,0.033835043530250984,0.053403588506071034
-2004.7767102718353,4172.0,-760.0,16188.0,141.0,176.0,-277.0,0.9776115853395762,0.2008151859831543,0.05393247122515058,0.03225116797792051
-2004.7922704219818,4156.0,-912.0,16072.0,191.0,83.0,-178.0,0.9741588209543132,0.21575029510101104,0.06446018062850743,0.017643322648233085
-2004.8078973293304,4112.0,-824.0,16072.0,280.0,55.0,-161.0,0.9684982767361744,0.2382438588636121,0.07238167718419489,0.00344158115385685
-2004.823502779007,4092.0,-760.0,15944.0,325.0,108.0,-13.0,0.9607087466756883,0.265260371438288,0.08166442346235715,0.0025615124068753734
-2004.8390731811523,4320.0,-684.0,16084.0,383.0,51.0,-252.0,0.9508477931824456,0.295113640171433,0.0916159760512451,-0.020073029592385005
-2004.8546571731567,4344.0,-660.0,15992.0,423.0,251.0,-243.0,0.9365400367354179,0.3281315863455954,0.11767282704989433,-0.037088103322100274
-2004.8702347278595,4416.0,-684.0,16192.0,507.0,-6.0,-195.0,0.9205142596306051,0.3669465673648755,0.12084148835954729,-0.058318515129444894
-2004.8858153820038,4636.0,-680.0,16276.0,489.0,10.0,-56.0,0.9037310117059144,0.4051355791827546,0.12070445864180339,-0.06757110791786355
-2004.9014291763306,4712.0,-744.0,16620.0,829.0,114.0,428.0,0.872917374518601,0.4739423197964841,0.10918903922852104,-0.038362592219917696
-2004.9170849323273,4524.0,-520.0,16516.0,1047.0,359.0,687.0,0.8232953115844887,0.5577156368309799,0.10385639876385028,0.01876024501488535
-2004.9327692985535,4116.0,-456.0,16536.0,1271.0,661.0,736.0,0.7469959145742047,0.6481405994080564,0.11640129181879125,0.09144181905085738
-2004.9483592510223,3928.0,-432.0,16180.0,809.0,673.0,956.0,0.6816332584074491,0.69975963362467,0.11174904962133993,0.18227645511979446
-2004.9639842510223,3696.0,-52.0,15600.0,564.0,629.0,1115.0,0.6188039990838418,0.7286781396322738,0.08933757650927729,0.27951489578078387
-2004.9795513153076,3532.0,332.0,15204.0,215.0,330.0,1090.0,0.5731186467623343,0.7368843275278931,0.04282535315805157,0.3559529374846675
-2004.9951314926147,3452.0,500.0,15156.0,-155.0,248.0,884.0,0.5529478981104394,0.7222471156602878,-0.006448421595784881,0.4154108132374083
-2005.010704755783,3416.0,92.0,15260.0,-657.0,-219.0,587.0,0.5712408209933739,0.6958564916743153,-0.07762465357257084,0.428301389891824
-2005.026324748993,3400.0,-632.0,15976.0,-1175.0,-357.0,327.0,0.6242089011227001,0.6443265051529056,-0.15825469146755028,0.4125070364795546
-2005.0419862270355,3708.0,-1056.0,16336.0,-1532.0,-244.0,232.0,0.6922613967395767,0.5610626219496256,-0.2375386488850498,0.386727660144768
-2005.0575847625732,3292.0,-944.0,17048.0,-1666.0,453.0,-387.0,0.7870509914127645,0.4476608846506538,-0.24451364716939608,0.34693449758981676
-2005.0731737613678,3004.0,-692.0,17456.0,-1646.0,754.0,-776.0,0.8781438887291584,0.32337772492013556,-0.20910132147025562,0.28384290562299014
-2005.0887541770935,2400.0,-176.0,16784.0,-1450.0,755.0,-1035.0,0.9451672533751747,0.20923667530313447,-0.15563628930569304,0.19661185698343267
-2005.1043393611908,2356.0,420.0,15776.0,-1435.0,-14.0,-2132.0,0.9833816081420345,0.11689601174733066,-0.13890627110744252,0.0009914900804744453
-2005.1199748516083,2860.0,20.0,15332.0,-1519.0,33.0,-2640.0,0.9659825626342327,0.01763054840629071,-0.1054904967769672,-0.23545404549347426
-2005.1355602741241,3624.0,-940.0,16256.0,-1440.0,384.0,-2621.0,0.8876615460138697,-0.06969446118442002,-0.03817344942717963,-0.45358841427808827
-2005.151160478592,4300.0,-1920.0,17228.0,-1364.0,621.0,-2371.0,0.7649840988750948,-0.13896602829502117,0.04782657968557937,-0.6270569270199842
-2005.1667914390564,4612.0,-2360.0,17664.0,-1337.0,717.0,-1873.0,0.6295062869294655,-0.1925733118866009,0.14270074154007917,-0.7391034113229452
-2005.1823861598969,5020.0,-2784.0,17116.0,-1219.0,586.0,-1440.0,0.5014397754627609,-0.23614621637341812,0.22570499371740083,-0.8011556477285815
-2005.1979944705963,4748.0,-3324.0,15896.0,-918.0,478.0,-834.0,0.4120299020328191,-0.25753331038630406,0.29141761470601046,-0.8240046891318983
-2005.2135684490204,4684.0,-3824.0,16124.0,-864.0,401.0,-70.0,0.3760821941123713,-0.2605713204963624,0.36491482129414726,-0.8108649353660985
-2005.2291736602783,5028.0,-3748.0,16504.0,-879.0,433.0,806.0,0.3969324870325463,-0.23164494726690352,0.4566776279325061,-0.7617287990418968
-2005.244741678238,4984.0,-3336.0,16316.0,-856.0,626.0,1354.0,0.4397928698900261,-0.1638568510690466,0.5562485527330671,-0.6857993230778223
-2005.2603271007538,4672.0,-2628.0,15956.0,-887.0,573.0,1540.0,0.4851098720067717,-0.08768632571159274,0.6447185994114942,-0.5842237995303302
-2005.275966644287,4044.0,-2136.0,15176.0,-916.0,253.0,1201.0,0.5205290333756131,-0.04559785124506136,0.7049535234565123,-0.4795945069964122
-2005.2915561199188,3876.0,-1560.0,14368.0,-717.0,-161.0,835.0,0.559964789645303,-0.03339715583648129,0.7274635613677686,-0.39512128672301117
-2005.3071336746216,3600.0,-1340.0,14032.0,-409.0,-447.0,355.0,0.5983435441676449,-0.04619380460896108,0.719315656308566,-0.3499087340407889
-2005.3227353096008,3668.0,-1116.0,14060.0,44.0,-334.0,-348.0,0.6083888376626743,-0.07589416301608845,0.6984045033571828,-0.36923467865025134
-2005.3383169174194,4048.0,-1820.0,14784.0,359.0,-3.0,-448.0,0.5958298925407381,-0.08414689337518061,0.6827460573764105,-0.4144440379920618
-2005.3539652824402,4464.0,-2364.0,15776.0,557.0,182.0,-157.0,0.5826404587959899,-0.057886150284904264,0.6698594881810525,-0.45658247390040074
-2005.3695566654205,4796.0,-2628.0,16248.0,774.0,51.0,189.0,0.5897277381693734,-0.005448779307244669,0.6408890996105988,-0.49137833452240404
-2005.3851764202118,4864.0,-2056.0,16576.0,939.0,-14.0,366.0,0.6043774494728273,0.062489282029036,0.5976314706226616,-0.5231248546203958
-2005.4007487297058,4860.0,-2048.0,16228.0,844.0,-627.0,273.0,0.6421194840317983,0.09216054682941098,0.522043156241964,-0.5537688550792376
-2005.4163181781769,4692.0,-2212.0,15620.0,626.0,-783.0,25.0,0.6714529317283885,0.09011828544364645,0.44582916382187093,-0.5850350517600983
-2005.4319257736206,4108.0,-2152.0,14960.0,291.0,-825.0,-173.0,0.6903903930625911,0.05804120748027137,0.38263209139506726,-0.6112160060369412
-2005.4475066661835,3688.0,-2024.0,14472.0,322.0,-1087.0,-10.0,0.7210402424728729,0.018923960244345985,0.2983266316821862,-0.6250952513757339
-2005.4630806446075,3732.0,-1900.0,13928.0,744.0,-1348.0,-42.0,0.7459207344741923,-0.008928102284395374,0.1711799858517638,-0.6435992225872176
-2005.4786627292633,4348.0,-1768.0,13984.0,1160.0,-1388.0,-71.0,0.7541999543497593,-0.012438991429413,0.015151153181177351,-0.6563521485516145
-2005.4942474365234,5032.0,-1624.0,14376.0,1222.0,-1208.0,102.0,0.7544769441922577,-0.0013157977855735089,-0.13294183464248374,-0.6427202174822187
-2005.5098361968994,5328.0,-2428.0,15524.0,1284.0,-634.0,605.0,0.7741652799663801,0.03997062729826091,-0.24430259403637833,-0.5825690609662141
-2005.525446176529,5144.0,-3164.0,16276.0,1781.0,-657.0,1042.0,0.7929906909393052,0.102640972119623,-0.37605194787614576,-0.46820457860266457
-2005.5410232543945,5012.0,-3012.0,17404.0,2285.0,-539.0,1474.0,0.7923339538236489,0.18490141210103248,-0.5052057058311643,-0.2877248133492539
-2005.5566470623016,4380.0,-2572.0,17960.0,2489.0,-198.0,1527.0,0.7575825108478951,0.2757761173802027,-0.587075183670826,-0.07320519829879132
-2005.5722329616547,3956.0,-1476.0,19424.0,2087.0,303.0,1540.0,0.7145033043839514,0.3283113770339,-0.6019032705389786,0.13931662014634066
-2005.5878477096558,4052.0,656.0,19984.0,1385.0,534.0,1508.0,0.6732500750714469,0.3234352604895791,-0.5849714973822021,0.31612073000477736
-2005.6034281253815,3776.0,1840.0,19412.0,702.0,492.0,1155.0,0.6417470860495771,0.2898078635657525,-0.5647418315377033,0.4303937075211152
-2005.619030714035,2880.0,744.0,17372.0,116.0,688.0,531.0,0.6509674789549751,0.24351184315441138,-0.5335826026121145,0.4819055195536027
-2005.6346356868744,1832.0,-1192.0,15272.0,-25.0,-108.0,313.0,0.6331245722123022,0.23188585575351317,-0.5470566067761663,0.4960960541518115
-2005.6502168178558,1996.0,-2300.0,14208.0,12.0,-802.0,254.0,0.5821049853733802,0.25438879649166324,-0.5942737749980749,0.49323301447948237
-2005.6657874584198,3088.0,-2752.0,13940.0,126.0,-1447.0,640.0,0.4722668569418396,0.2870841379357678,-0.6700790661499016,0.49552069450995556
-2005.6813743114471,4304.0,-2608.0,14580.0,267.0,-1257.0,920.0,0.3490318244955658,0.2958042730993843,-0.7264364540996966,0.5128027843728041
-2005.696946144104,4420.0,-1996.0,15016.0,1038.0,-409.0,794.0,0.2589735415020613,0.293271413599938,-0.7078120128500671,0.5881553682761983
-2005.7125329971313,4020.0,-820.0,15332.0,1163.0,-189.0,485.0,0.19149697986653727,0.2974404364690051,-0.6606237392776217,0.6621437672877211
-2005.7281222343445,3944.0,-180.0,15968.0,874.0,-84.0,244.0,0.14943292392793442,0.3018534153835524,-0.6157941928151364,0.7122863391662003
-2005.743716955185,4104.0,8.0,16764.0,606.0,-25.0,-253.0,0.14765210070327306,0.3243456582752697,-0.5707172143736767,0.7397841660467217
-2005.7592878341675,4188.0,-272.0,17128.0,566.0,-90.0,-10.0,0.12767091020075047,0.33748295307030307,-0.5342483283170313,0.7644502068584437
-2005.77486038208,4132.0,-584.0,17180.0,615.0,-32.0,-448.0,0.1376883702220478,0.3664976887159659,-0.4791768947811041,0.7855640396424659
-2005.7904279232025,4224.0,-1176.0,16852.0,627.0,70.0,-453.0,0.15130681322936868,0.3872119908274884,-0.4197480062933548,0.8068362495838544
-2005.8060109615326,3992.0,-1320.0,16376.0,673.0,316.0,-165.0,0.15145445813285915,0.3789488840136799,-0.36166412428201855,0.8382471900482512
-2005.8216154575348,3636.0,-1116.0,16040.0,328.0,478.0,-32.0,0.15786155805354463,0.34874670214918113,-0.3297218334841042,0.8629826062863946
-2005.8371920585632,3364.0,-828.0,15852.0,45.0,542.0,-44.0,0.1752351934355909,0.30932006808233997,-0.3170099625346453,0.879271520132951
-2005.8527743816376,3268.0,-628.0,15808.0,27.0,497.0,-250.0,0.20723249382062878,0.27804539206772816,-0.30005702357183356,0.888656984477137
-2005.8683471679688,3460.0,-536.0,16052.0,215.0,332.0,-434.0,0.2440890442872235,0.26706687951509356,-0.26630032331756054,0.8934091773235727
-2005.8840034008026,3764.0,-712.0,16240.0,257.0,73.0,-720.0,0.29531533499504925,0.2828032539677084,-0.22721592574104144,0.8838461945110582
-2005.89959359169,4216.0,-300.0,16448.0,763.0,190.0,-852.0,0.34425773417778516,0.30298965111662546,-0.1415198828255746,0.8773004083779047
-2005.915225982666,4272.0,-216.0,16600.0,288.0,515.0,-877.0,0.408451472310955,0.2816092525018591,-0.08034644454644989,0.8645276586212276
-2005.9309396743774,3888.0,-308.0,16308.0,101.0,680.0,-882.0,0.4750503167271632,0.23867678064200407,-0.026644078632759863,0.8465522334939539
-2005.9465708732605,3484.0,-800.0,15704.0,-1.0,462.0,-920.0,0.5419417635606668,0.20553152332939173,0.011468384801330757,0.8148155582564086
-2005.9621529579163,3396.0,-1128.0,15512.0,-56.0,86.0,-1134.0,0.6204497956770725,0.19443181786084426,0.031556325726288977,0.7591063940939128
-2005.9777374267578,3856.0,-1144.0,15836.0,18.0,-211.0,-1041.0,0.686753497154174,0.20543229794428333,0.03859376413889718,0.696187996504848
-2005.9933676719666,4196.0,-1004.0,16084.0,119.0,-163.0,-847.0,0.7345291181410356,0.21878497501094163,0.0508650530793893,0.640322462270101
-2006.0089528560638,4152.0,-864.0,16540.0,95.0,59.0,-626.0,0.7662816376126796,0.21825806221509916,0.07158276994307995,0.6000431461011912
-2006.0245625972748,3996.0,-624.0,16572.0,-56.0,69.0,-512.0,0.7929427406469635,0.20729186668302932,0.08270953248530345,0.5669488736194913
-2006.040156841278,3896.0,-756.0,16320.0,-211.0,-103.0,-483.0,0.8205283116001799,0.19390032804655494,0.07356437637489939,0.5326577092041085
-2006.0557832717896,3852.0,-1060.0,15772.0,-105.0,-230.0,-490.0,0.8456093001338458,0.19351622912890312,0.06019619414125745,0.4938347889748003
-2006.071340560913,3656.0,-1112.0,15864.0,42.0,-308.0,-576.0,0.8699581163879522,0.20632353552262075,0.04870037584036077,0.44523224031192976
-2006.086920261383,3664.0,-1004.0,15860.0,4.0,-268.0,-630.0,0.8939489702996967,0.21376221407135476,0.03957606401133106,0.391911583769599
-2006.1024980545044,3804.0,-796.0,16008.0,-173.0,-92.0,-491.0,0.9133547061790062,0.20127293634067842,0.035408176122933566,0.35216281300147195
-2006.118082523346,3700.0,-900.0,16280.0,-168.0,133.0,-320.0,0.9252462611538682,0.1824675115468211,0.04624808598583078,0.3293722483655021
-2006.1337130069733,3632.0,-1004.0,16352.0,-129.0,191.0,-222.0,0.9325862218549635,0.16537627731137294,0.06126416429730914,0.31492908389329355
-2006.1493349075317,3672.0,-764.0,16452.0,-98.0,74.0,-213.0,0.9392800638980282,0.1539906074561847,0.06741678008680542,0.29915686878579084
-2006.1649112701416,3704.0,-728.0,16188.0,-107.0,-179.0,-188.0,0.9464277344906811,0.14855394041533615,0.05221148855894187,0.2819223840640778
-2006.1805317401886,3900.0,-884.0,16028.0,15.0,-287.0,-156.0,0.9510216110466436,0.1558862363529532,0.030636771651769826,0.265176855816482
-2006.196079492569,3956.0,-1152.0,16088.0,96.0,-178.0,-211.0,0.9547974272987597,0.16713564687802906,0.020723230596030373,0.24494508788705305
-2006.2116565704346,3976.0,-1256.0,16156.0,242.0,75.0,-148.0,0.9540255027543199,0.18513575428974272,0.034088412403859535,0.2332339441799148
-2006.2273256778717,4092.0,-880.0,16236.0,-93.0,325.0,-218.0,0.9584522122662124,0.16979716156997396,0.06253197779125214,0.2205176466369477
-2006.2428991794586,3856.0,-812.0,16072.0,14.0,146.0,-170.0,0.9605811041757909,0.16699469628577424,0.07728816895874108,0.2083824672371589
-2006.2584846019745,3808.0,-856.0,15652.0,237.0,-301.0,-53.0,0.959620106803468,0.191677816429403,0.05686588987727571,0.19787656727319317
-2006.2740828990936,3932.0,-1064.0,15916.0,333.0,-578.0,-103.0,0.9570863316012886,0.22842238329998338,0.015695167214912535,0.17765874702822737
-2006.289666891098,4240.0,-1088.0,16300.0,503.0,-377.0,-161.0,0.948614216616267,0.2753771642390645,-0.0049409507070811,0.15580138784769362
-2006.305293560028,4032.0,-1044.0,16236.0,29.0,28.0,-92.0,0.9492113820392469,0.2771707754267503,-0.00013170977478956108,0.14890969111851685
-2006.3208677768707,3812.0,-904.0,16032.0,-32.0,243.0,-87.0,0.950942607571195,0.2710373777271675,0.021570051940988183,0.14758600827903737
-2006.3365058898926,3844.0,-872.0,16108.0,24.0,321.0,-95.0,0.9506565799934783,0.2683536432170938,0.05061490538976239,0.1472294822364112
-2006.352088212967,3844.0,-912.0,15652.0,140.0,57.0,-53.0,0.9477856556348886,0.27874351106343764,0.058225261224283356,0.143576547416824
-2006.367708683014,3912.0,-796.0,16024.0,156.0,-268.0,-178.0,0.9471941765465091,0.2937305126676007,0.04216740871350876,0.12152155153221691
-2006.3832836151123,4144.0,-800.0,16168.0,-43.0,-279.0,-388.0,0.9526756421802002,0.29121787255800735,0.02842854069110041,0.08242020124645441
-2006.3988547325134,4300.0,-864.0,16308.0,-49.0,-170.0,-288.0,0.9560714426233614,0.28728736342682004,0.021118760171096315,0.05428964343395958
-2006.4144654273987,3844.0,-1012.0,15940.0,66.0,55.0,-198.0,0.9551615795346947,0.2918712796228385,0.030861294682536455,0.03905244682003756
-2006.4300525188446,3772.0,-1276.0,16020.0,190.0,47.0,-92.0,0.9504210988933672,0.3070056567928608,0.03764623000247886,0.03209396893668186
-2006.4456293582916,3676.0,-860.0,16044.0,147.0,-59.0,-43.0,0.9467827372778036,0.3189534453344018,0.034195949149062876,0.02649122805494546
-2006.4612057209015,3604.0,-884.0,16004.0,64.0,-417.0,-51.0,0.9457948496246075,0.3245927139510896,0.0011951334820736478,0.010499720443519324
-2006.4767982959747,4200.0,-872.0,15972.0,62.0,-692.0,-5.0,0.9424633526084479,0.32949588725703366,-0.055727497084639886,-0.00947287387365171
-2006.492393732071,4304.0,-692.0,16016.0,168.0,-700.0,-39.0,0.9324365887643867,0.34199877280214064,-0.11216706283736692,-0.03189666674908083
-2006.5080466270447,4304.0,-576.0,16188.0,200.0,-566.0,-12.0,0.9197238986177365,0.35608148359606195,-0.15823246749522638,-0.04771177613326859
-2006.523653268814,4180.0,-668.0,16200.0,175.0,-428.0,-27.0,0.9076201034299833,0.36818424621926404,-0.1923108027315341,-0.060684955618768924
-2006.5392670631409,4068.0,-792.0,15928.0,122.0,-488.0,47.0,0.894990650635928,0.3738888059376059,-0.23287034190977743,-0.07050035409593863
-2006.5548479557037,4028.0,-988.0,15720.0,237.0,-601.0,497.0,0.8759918128492651,0.377439391990724,-0.2967011523884224,-0.04632791130747314
-2006.5704402923584,3876.0,-1100.0,15760.0,377.0,-715.0,305.0,0.8440070499811757,0.39417380977928335,-0.36184868555847677,-0.036669279046105466
-2006.5860290527344,3864.0,-712.0,15972.0,384.0,-661.0,204.0,0.8087636488019899,0.4127692375394682,-0.4177187435909483,-0.03215537545072949
-2006.6015963554382,3932.0,-488.0,16276.0,293.0,-447.0,126.0,0.7814836381134689,0.42698589408899257,-0.45403381581795405,-0.028629769537121513
-2006.6171524524689,3872.0,-100.0,16376.0,351.0,-199.0,48.0,0.7602745259475931,0.4481348174806643,-0.46989695392887587,-0.01883303600320339
-2006.6327576637268,3720.0,-328.0,16496.0,534.0,-166.0,-84.0,0.7316657827833531,0.4860506947323017,-0.477848773797973,-0.008969606125341319
-2006.648337841034,3732.0,-360.0,16416.0,554.0,-187.0,-121.0,0.6994325907146389,0.5255254198993643,-0.4843705469031907,-0.0015024574900019889
-2006.6639568805695,3728.0,-216.0,16220.0,397.0,-127.0,-23.0,0.6755115467961669,0.5502665406315179,-0.4907400638461712,0.008066854574598997
-2006.6795394420624,3596.0,-552.0,16040.0,288.0,72.0,279.0,0.6642522016807376,0.5548121177412508,-0.49932717380956165,0.0403100491827661
-2006.6951222419739,3292.0,-840.0,16124.0,314.0,31.0,467.0,0.6480728601581427,0.5518077535562553,-0.5183659135435998,0.08250182251170345
-2006.710680961609,3260.0,-732.0,15704.0,263.0,-94.0,391.0,0.6278855924760385,0.5491130304921835,-0.540099097055397,0.11192643952457944
-2006.7263028621674,3532.0,-756.0,16520.0,426.0,34.0,167.0,0.6070509853024175,0.563734728931216,-0.5415947683230811,0.14271427246523277
-2006.741910457611,3796.0,-140.0,16640.0,72.0,323.0,-83.0,0.6196346116462558,0.5671297193542376,-0.5192156598040945,0.15758149665927254
-2006.757535457611,3828.0,-228.0,16960.0,-475.0,737.0,-442.0,0.6802316798720865,0.5492403617468098,-0.4622536981657744,0.14812631521339417
-2006.7731432914734,3672.0,-456.0,16632.0,-892.0,786.0,-583.0,0.757302385967904,0.5061671341765966,-0.3964634391331773,0.11447563023396828
-2006.7887399196625,3560.0,-852.0,16200.0,-1075.0,991.0,-598.0,0.8372396375048762,0.44158865413208503,-0.31225100568155106,0.0807995011332221
-2006.8043129444122,3668.0,-1368.0,16000.0,-1215.0,587.0,-704.0,0.897241346164714,0.36446872302052696,-0.24853479250790214,0.018734289027674687
-2006.819905281067,3996.0,-1752.0,16132.0,-1225.0,431.0,-684.0,0.9390843520281243,0.28015914209764153,-0.19338226512493964,-0.04727297758951608
-2006.8355066776276,4168.0,-1632.0,16564.0,-1201.0,559.0,-642.0,0.9673486492389404,0.19301609540475734,-0.12582318680203744,-0.10559310296264102
-2006.8510699272156,4340.0,-1360.0,16544.0,-1183.0,788.0,-811.0,0.9785651352825079,0.10791065418110649,-0.03438287137102091,-0.17199821185121866
-2006.866646528244,4396.0,-804.0,16452.0,-1242.0,861.0,-928.0,0.9674200921064593,0.017071435977986462,0.06558013847492891,-0.24393887943496895
-2006.8822214603424,4356.0,-820.0,16236.0,-1399.0,1011.0,-1202.0,0.9227536627633233,-0.08509809287121009,0.1792156481397186,-0.3304023969471382
-2006.8978011608124,4368.0,-920.0,15916.0,-1552.0,540.0,-1305.0,0.8510580807327423,-0.2114095336983661,0.2532575858671997,-0.4084932649159085
-2006.9134137630463,4732.0,-1612.0,15704.0,-1507.0,344.0,-1259.0,0.7594197882063816,-0.3338460986283817,0.3044871715662324,-0.4680982055752608
-2006.9291088581085,4756.0,-2632.0,15720.0,-1100.0,58.0,-634.0,0.6957248172791441,-0.41859360822044606,0.33256880854251863,-0.4797336316785582
-2006.9447257518768,4564.0,-3044.0,16268.0,-683.0,-53.0,-245.0,0.6607917257877896,-0.46836725116024125,0.3481471226697034,-0.47199575649342546
-2006.9603304862976,4424.0,-2356.0,16464.0,-524.0,-73.0,220.0,0.6499156568338477,-0.4942047117805139,0.3739272206869411,-0.43994292298604715
-2006.9759657382965,4168.0,-1740.0,16376.0,-1140.0,46.0,119.0,0.600885288704826,-0.5503974169055736,0.4232267413208886,-0.3960791318823703
-2006.9915664196014,4292.0,-1512.0,15916.0,-1548.0,307.0,-209.0,0.5031906214220442,-0.6226612698255717,0.47813345894228193,-0.361220897806305
-2007.0071866512299,4300.0,-1688.0,15300.0,-1560.0,334.0,-411.0,0.3875803749541597,-0.6906641527963743,0.5143071899734879,-0.32901762161628095
-2007.0228095054626,4596.0,-1676.0,15216.0,-1188.0,123.0,-508.0,0.294012325165416,-0.7453392225977615,0.5186051425340309,-0.2984541875153496
-2007.0384373664856,4728.0,-1604.0,15568.0,-1008.0,498.0,-697.0,0.18652108095500847,-0.7845570140618594,0.5088898677958946,-0.30118313448862183
-2007.054012298584,4540.0,-2136.0,15888.0,-983.0,463.0,-828.0,0.07634378080464083,-0.8193487781634602,0.4821299733545848,-0.3006491238098076
-2007.0695760250092,4016.0,-2672.0,16068.0,-686.0,661.0,-698.0,-0.018748650953602293,-0.831522655060314,0.45220480188470136,-0.32207045713831617
-2007.0851480960846,3388.0,-2376.0,16436.0,-363.0,696.0,-718.0,-0.09236171626879437,-0.8360821187839186,0.40738933479047973,-0.3556261153467871
-2007.1007249355316,2876.0,-1380.0,16600.0,-234.0,732.0,-1178.0,-0.1707734415555378,-0.8469739156464674,0.3203570203024927,-0.3883851148237742
-2007.116301059723,2368.0,-212.0,16272.0,-372.0,1016.0,-2005.0,-0.2890342189390205,-0.8464341251555757,0.1663109593335076,-0.415149559628809
-2007.1319406032562,2300.0,-12.0,15864.0,-532.0,489.0,-2691.0,-0.4207411940491078,-0.8301008384311913,-0.024862983789518168,-0.36509078008496254
-2007.1475439071655,2560.0,-676.0,14648.0,-810.0,124.0,-2941.0,-0.5536296816077676,-0.763311156596982,-0.20939316391252774,-0.2588527704394154
-2007.1631426811218,3968.0,-2032.0,14192.0,-721.0,-294.0,-2311.0,-0.644882427394774,-0.6776253447436446,-0.32554679059861014,-0.13773102094091105
-2007.178734779358,4960.0,-2732.0,15176.0,-281.0,-697.0,-1173.0,-0.690406529290612,-0.632136408752159,-0.3496884201470538,-0.03821509986735868
-2007.1943254470825,5244.0,-3404.0,16388.0,148.0,-736.0,-34.0,-0.7033930971746968,-0.6410291898742492,-0.306985503293475,0.008923527542575587
-2007.2099704742432,4828.0,-3836.0,16816.0,272.0,-637.0,720.0,-0.7032226279726124,-0.6738957390262904,-0.22646104986127372,0.007606663212762473
-2007.2255835533142,3692.0,-3048.0,16684.0,204.0,-390.0,984.0,-0.6966004099497906,-0.7024254143546702,-0.1438221163908781,-0.025721682746319495
-2007.2411696910858,2756.0,-1980.0,16788.0,-253.0,-256.0,677.0,-0.7123066142573304,-0.6944689597382119,-0.08595109667492488,-0.05426380216831547
-2007.256742477417,2332.0,-952.0,17112.0,-738.0,-127.0,-157.0,-0.7571487835108928,-0.6464568094438115,-0.08386206741567806,-0.04226661567325938
-2007.2723133563995,2224.0,292.0,16912.0,-1199.0,-194.0,-1452.0,-0.8205532383646873,-0.5497135029234348,-0.14653080175396427,0.05510146867563207
-2007.2879240512848,2728.0,280.0,16260.0,-1544.0,-243.0,-2902.0,-0.8494260534381661,-0.3850638517404844,-0.26498200953951784,0.24491987351712094
-2007.3035130500793,3788.0,-740.0,14988.0,-1565.0,-106.0,-3797.0,-0.7750707096431207,-0.1682971926592774,-0.39353092309123544,0.46483853386662677
-2007.3190686702728,4636.0,-2096.0,14124.0,-878.0,-231.0,-3591.0,-0.6187317564251013,0.022783606238489757,-0.4434962512663078,0.6480455199988735
-2007.3346831798553,5276.0,-3140.0,14516.0,81.0,-848.0,-2390.0,-0.5043240506992189,0.15521583271931816,-0.37897116605110837,0.7602276977731367
-2007.3502764701843,5544.0,-4448.0,15132.0,818.0,-1085.0,-808.0,-0.49299018228397207,0.2159290554755028,-0.26324527452003393,0.8006480179304419
-2007.3658652305603,5396.0,-5104.0,16396.0,1017.0,-913.0,640.0,-0.572886176806059,0.2193574682876257,-0.1632682651343414,0.7726753542924755
-2007.3814561367035,4900.0,-4796.0,16560.0,951.0,-292.0,1469.0,-0.6861261389246429,0.16850145782742246,-0.11104629149578714,0.6989326872735512
-2007.3970420360565,4732.0,-3836.0,16112.0,1021.0,119.0,1693.0,-0.7914990720429449,0.08250620339167067,-0.07929852072870365,0.6003612995249518
-2007.4126889705658,5012.0,-2956.0,15168.0,1437.0,201.0,1811.0,-0.8775192145161386,-0.038854656163362505,-0.03004541483350369,0.4770195141678049
-2007.428295135498,4816.0,-2844.0,15348.0,1982.0,308.0,1793.0,-0.9196694246599846,-0.20238675648467483,0.03420306804414964,0.3347803761894551
-2007.443915605545,4168.0,-2772.0,15900.0,2289.0,231.0,2351.0,-0.9118886396580438,-0.37060029637354475,0.1193136682184598,0.12991835038476368
-2007.459496974945,4304.0,-1856.0,16760.0,2191.0,130.0,2609.0,-0.8358516052792444,-0.497512331226877,0.2091562725190758,-0.10043519251355387
-2007.4751062393188,4128.0,-616.0,17064.0,1845.0,250.0,2623.0,-0.7099599658532961,-0.5602163802841379,0.27788494123984636,-0.323874070556832
-2007.4906778335571,3532.0,136.0,16436.0,1601.0,439.0,1871.0,-0.5759545027694591,-0.5876630621635803,0.2900352272731833,-0.48867995973714906
-2007.5062458515167,3336.0,208.0,15732.0,1670.0,263.0,1258.0,-0.43605131136455155,-0.6180659646575607,0.2656031662449433,-0.5977530219662925
-2007.5218267440796,3364.0,-252.0,15316.0,1976.0,480.0,460.0,-0.31151379076983354,-0.6468251457919508,0.16627259158493624,-0.6759658380562281
-2007.5374319553375,3204.0,-928.0,15060.0,2302.0,333.0,320.0,-0.16411554796093367,-0.6710547045296613,0.038631990716509565,-0.7219828528014849
-2007.5530061721802,3164.0,-1356.0,15032.0,2380.0,184.0,383.0,-0.0011700970577741747,-0.677222300589647,-0.08958150001432696,-0.7303038691614089
-2007.5685799121857,3024.0,-1584.0,14852.0,2187.0,94.0,355.0,0.14873603390821655,-0.6618273595470522,-0.20420234535106507,-0.7058070136555425
-2007.5841755867004,2996.0,-1288.0,15008.0,1933.0,73.0,497.0,0.28802163810882114,-0.6314596277408393,-0.2892273641099245,-0.6592797633512931
-2007.5998375415802,3308.0,-388.0,15872.0,1586.0,-1.0,765.0,0.414622782557211,-0.6037602686103613,-0.3343795337041079,-0.5930866831011158
-2007.6154346466064,3992.0,524.0,17820.0,885.0,-418.0,346.0,0.4651338838009222,-0.600902259616022,-0.375501507203972,-0.5306275177713407
-2007.6310880184174,4960.0,1608.0,19276.0,-70.0,-499.0,174.0,0.4527429491541299,-0.6317790679981932,-0.38293320246627865,-0.49924061701696043
-2007.6466839313507,5128.0,976.0,19328.0,-705.0,-101.0,-64.0,0.4069735629050181,-0.660527466975483,-0.358988733916331,-0.5188478325949692
-2007.6622731685638,4200.0,-1112.0,17408.0,-670.0,405.0,-177.0,0.37217360751713136,-0.6587381997789642,-0.32361833833403647,-0.5681742348202448
-2007.677839756012,3200.0,-3172.0,15424.0,93.0,483.0,93.0,0.3954751490108875,-0.6336957444202493,-0.30683536519074855,-0.5898145205797688
-2007.6934187412262,2676.0,-3568.0,14820.0,1052.0,431.0,759.0,0.5008137022908548,-0.591227028903267,-0.30191916856086554,-0.5554107052870499
-2007.7089989185333,2812.0,-2692.0,15404.0,1476.0,435.0,1411.0,0.6462946338381751,-0.5338896922417056,-0.27700294155157557,-0.4696109167830434
-2007.7245666980743,3176.0,-1140.0,16024.0,1344.0,468.0,1673.0,0.7747927349432058,-0.4706185387417836,-0.2235844736009651,-0.35808433648563165
-2007.7401530742645,3624.0,96.0,16188.0,1049.0,356.0,1458.0,0.8595749102578386,-0.41159335206418024,-0.17019164660077304,-0.2505128532014233
-2007.7557871341705,3748.0,588.0,15888.0,930.0,323.0,1031.0,0.9133621999179696,-0.34717301558981206,-0.12823744185936276,-0.16969250871104938
-2007.7713611125946,3744.0,500.0,16060.0,866.0,162.0,472.0,0.9448883198305619,-0.2797051176845699,-0.11340915733107883,-0.12684428730649755
-2007.7869472503662,4060.0,216.0,15928.0,786.0,49.0,-24.0,0.9620781339110172,-0.2133224939707404,-0.11838955302580133,-0.12199627679052082
-2007.8025376796722,3996.0,-156.0,16312.0,551.0,-64.0,-416.0,0.9655233093428739,-0.16284497976770101,-0.1371250417157757,-0.14980979478822107
-2007.818135023117,4188.0,-464.0,16324.0,437.0,-73.0,-583.0,0.9613122941010731,-0.11945070690187966,-0.15691841560023415,-0.19231955874607584
-2007.8337261676788,4112.0,-776.0,16156.0,353.0,-231.0,-516.0,0.9516045207060677,-0.08623259514014896,-0.1871383169360297,-0.22801760028892587
-2007.8493485450745,4748.0,-1116.0,16100.0,277.0,-345.0,-426.0,0.9382998219193982,-0.06294237001164037,-0.22390985867390947,-0.2559220143558838
-2007.8649270534515,4868.0,-1056.0,16028.0,843.0,-374.0,-156.0,0.9291319474238777,0.0007670342757825962,-0.27302699100025096,-0.2493381200700793
-2007.8805406093597,4364.0,-656.0,16080.0,906.0,129.0,-392.0,0.9202369100465393,0.08596924108025175,-0.2809353129178186,-0.2585510953986675
-2007.896152973175,4472.0,-340.0,16504.0,845.0,299.0,-181.0,0.9143319020143327,0.1643253052734304,-0.27355329251388005,-0.24932501511172558
-2007.91179561615,4604.0,-116.0,16440.0,770.0,461.0,-32.0,0.9109052946938365,0.23563000789421668,-0.2521389671227514,-0.22617688815787174
-2007.92751455307,4296.0,-144.0,16416.0,540.0,332.0,-304.0,0.8995166540756676,0.2910300087450205,-0.22961504753892462,-0.23118878215451186
-2007.9431252479553,4260.0,-512.0,15984.0,483.0,225.0,-440.0,0.8813848334353243,0.34145764313222865,-0.21007147831075162,-0.24987482333581526
-2007.9587111473083,4148.0,-320.0,15688.0,582.0,309.0,-531.0,0.8559064147954101,0.40139139948106733,-0.18262720696497373,-0.27010452941568797
-2007.974309206009,3936.0,-320.0,15556.0,665.0,297.0,-716.0,0.8173397689475104,0.46742948772745285,-0.15041277963745717,-0.30139902425425186
-2007.9906792640686,4020.0,-36.0,15864.0,583.0,224.0,-690.0,0.7759049370955234,0.5220698667039197,-0.12121446702994501,-0.3327486075901593
-2008.006325006485,4124.0,-256.0,15940.0,390.0,277.0,-646.0,0.740595239060988,0.5618167123823627,-0.08414284030917342,-0.3588880828235686
-2008.0219902992249,4052.0,-208.0,16096.0,77.0,249.0,-680.0,0.7160104662698568,0.5782681012643516,-0.03705005513357108,-0.38931004182623313
-2008.0376188755035,4020.0,-4.0,16204.0,-40.0,100.0,-701.0,0.6933097019497133,0.580173927499846,0.005907956136242879,-0.4274166200396229
-2008.0531890392303,4208.0,60.0,15984.0,28.0,-60.0,-730.0,0.6634332848122688,0.5779263066665858,0.03808928389582953,-0.47371580838961375
-2008.0687716007233,4440.0,-88.0,16184.0,64.0,-179.0,-729.0,0.6293933054747138,0.5704315356836592,0.061679692911685284,-0.5240873453953225
-2008.0843703746796,4432.0,-496.0,16440.0,-7.0,-30.0,-694.0,0.597148672733518,0.5637587533817062,0.09469446210564293,-0.562692180045738
-2008.1000492572784,4292.0,-892.0,16340.0,-205.0,3.0,-478.0,0.5832156490601368,0.5485601684629295,0.12826940720862606,-0.585224920386712
-2008.1156597137451,3928.0,-912.0,15616.0,-177.0,-177.0,-153.0,0.5857418901560062,0.5284738123814963,0.13553517433313325,-0.5993764128341414
-2008.1313054561615,3936.0,-692.0,15704.0,-39.0,-205.0,142.0,0.5973276441446399,0.5171556776887762,0.12046096832314233,-0.6010314847705799
-2008.1468999385834,3884.0,-740.0,15712.0,-107.0,-167.0,390.0,0.623997285850568,0.506386594651086,0.0996364567559134,-0.5867474588730047
-2008.162487745285,4016.0,-724.0,16040.0,-440.0,-158.0,450.0,0.6668775782302516,0.4773081556241598,0.09347251903160221,-0.564547702514415
-2008.178073644638,3888.0,-764.0,16040.0,-833.0,-343.0,398.0,0.7214097668221594,0.41345481566348363,0.09755479525662299,-0.5469059568707503
-2008.1936531066895,3576.0,-444.0,16024.0,-1294.0,-543.0,220.0,0.7773511683402661,0.3053788393672964,0.11622577657080513,-0.5375504575453544
-2008.2093360424042,3256.0,-552.0,15548.0,-1432.0,-747.0,-85.0,0.8111200554375841,0.17038698613926656,0.13355029303703847,-0.5433386143566724
-2008.2249252796173,2984.0,-300.0,14856.0,-1230.0,-1021.0,-608.0,0.8036064850208355,0.027286208194034864,0.12703190610846932,-0.5808054535774422
-2008.240507364273,2924.0,-24.0,14576.0,-1033.0,-1213.0,-1053.0,0.7557216189938015,-0.11682997913825335,0.09522109634984786,-0.6373135283123025
-2008.256096124649,3144.0,-476.0,15096.0,-941.0,-978.0,-1955.0,0.6320341801609485,-0.24425250896733458,0.0615009555331002,-0.7328650212965246
-2008.2717385292053,3680.0,-944.0,16392.0,-1065.0,-553.0,-2194.0,0.46113657408794406,-0.3418807498133778,0.05096637928760847,-0.8172349974932476
-2008.2873229980469,4448.0,-624.0,17000.0,-1242.0,-277.0,-2254.0,0.25805143911030054,-0.411069126524585,0.05954614582625073,-0.8722877303439824
-2008.3028790950775,5312.0,-352.0,16832.0,-1322.0,-417.0,-2058.0,0.05483278800570666,-0.47213650555042624,0.0751480699798346,-0.8766032472358629
-2008.318486213684,5724.0,-872.0,16344.0,-1213.0,-515.0,-2174.0,-0.15436842255665942,-0.518794511675286,0.07406321248130003,-0.8375782263943589
-2008.3340578079224,5924.0,-2132.0,15732.0,-1092.0,-1040.0,-1749.0,-0.3185623609148691,-0.5795877037184037,0.08697514551771064,-0.7450043221142718
-2008.3496658802032,6036.0,-4080.0,15016.0,-802.0,-1019.0,-1022.0,-0.41359566677788207,-0.6247057332741577,0.11462068034328508,-0.6523369304850053
-2008.365339756012,6036.0,-4968.0,14500.0,-139.0,-1156.0,709.0,-0.36666514338437767,-0.6735319955692539,0.201554528941563,-0.6093333204696401
-2008.3809361457825,5784.0,-4812.0,14988.0,360.0,-1285.0,2240.0,-0.198685179350826,-0.696074878628952,0.3463871226172518,-0.5966740518348026
-2008.3965258598328,5832.0,-3696.0,15716.0,68.0,-1837.0,3178.0,0.02523639890648419,-0.663520588981649,0.5406997941241202,-0.5164758317693217
-2008.4121069908142,5932.0,-2004.0,16128.0,-439.0,-2087.0,3390.0,0.23707643960454006,-0.5650094739790331,0.7100717358845903,-0.34692533201859993
-2008.4277300834656,5896.0,-960.0,15524.0,-718.0,-2000.0,2834.0,0.3931152281489262,-0.4440274402524982,0.7931303997672408,-0.138723533206477
-2008.4433302879333,5640.0,-976.0,14696.0,-561.0,-2042.0,2211.0,0.5212710061875305,-0.32357050214706157,0.7878737316307959,0.05323205100973142
-2008.4589085578918,5628.0,-1480.0,14404.0,-26.0,-1595.0,1771.0,0.6090215806685186,-0.19143225603484482,0.7491106695247884,0.176860426420248
-2008.4744696617126,5152.0,-1896.0,14276.0,510.0,-1618.0,1723.0,0.6817953586275696,-0.026084288594121288,0.6846014528526161,0.2565064318775063
-2008.4900591373444,5244.0,-2128.0,14344.0,895.0,-1686.0,1957.0,0.7206110510334205,0.17691685318025016,0.5920252032550044,0.3145255139097266
-2008.5056421756744,5344.0,-2180.0,14180.0,1167.0,-1977.0,2443.0,0.7080626553715288,0.41348765207080346,0.4432589104888558,0.3622109550047133
-2008.521216392517,5648.0,-2232.0,13936.0,1526.0,-2288.0,2923.0,0.6126537413743839,0.654198596999,0.23071736852746935,0.378746728994812
-2008.536805152893,6064.0,-2160.0,14148.0,1416.0,-2143.0,3243.0,0.43998349628122035,0.8145283608318631,-0.021018457709939584,0.3775133068332916
-2008.5523900985718,6088.0,-2044.0,14784.0,1483.0,-1787.0,3260.0,0.21134944621612903,0.8726068021871153,-0.257348435051022,0.3572961843312944
-2008.5680527687073,5900.0,-2204.0,15356.0,1455.0,-1552.0,3575.0,-0.04307326509223751,0.8154081544251799,-0.4821161777798458,0.3175188603125298
-2008.5836503505707,5928.0,-2308.0,15464.0,1273.0,-1814.0,3401.0,-0.2868246869829435,0.6765315244622678,-0.6429131328899043,0.2161004370740255
-2008.5992670059204,6208.0,-2256.0,15092.0,1080.0,-2209.0,3276.0,-0.5050936907830047,0.4776788925891922,-0.7162666184399143,0.060542302686762604
-2008.6148509979248,6728.0,-2244.0,15120.0,916.0,-2118.0,3153.0,-0.6553671270395107,0.2378786104809613,-0.709345063357999,-0.10362083073041603
-2008.630458831787,6992.0,-2020.0,15412.0,873.0,-1601.0,3143.0,-0.7094405809236819,-0.020182403072932488,-0.6585034262695822,-0.25031973620969467
-2008.646073102951,7056.0,-1784.0,15788.0,1060.0,-1092.0,3322.0,-0.6648317472328924,-0.2864271632592008,-0.579320465340128,-0.3746278506153063
-2008.6616604328156,6636.0,-1812.0,15756.0,1351.0,-1068.0,3198.0,-0.553397564536309,-0.5351979879941057,-0.45892903429140736,-0.44350692294111854
-2008.6772906780243,6272.0,-2708.0,15712.0,1369.0,-1203.0,3379.0,-0.38577812528249017,-0.7426306897014583,-0.2805301056792821,-0.4700827124822124
-2008.6928815841675,6052.0,-3144.0,15100.0,1420.0,-1142.0,3641.0,-0.1623569463954589,-0.8729273387460846,-0.060544139360536556,-0.45604000966572256
-2008.7084965705872,5916.0,-3224.0,15028.0,1640.0,-953.0,3808.0,0.1023409377158909,-0.8944963778582362,0.16674307819868614,-0.40199416455808734
-2008.7240760326385,5736.0,-2908.0,15176.0,1633.0,-1055.0,3904.0,0.357218545859178,-0.8037821111886079,0.3783543023800261,-0.28840466379370994
-2008.7396898269653,5864.0,-2192.0,15648.0,1299.0,-1108.0,3606.0,0.5437562873516046,-0.6346492614906224,0.53270042521318,-0.13334043585013583
-2008.7552735805511,6404.0,-1568.0,15940.0,836.0,-1169.0,3193.0,0.6518935762203248,-0.4399759370782319,0.61618252182833,0.042131222010365295
-2008.7708745002747,6984.0,-1552.0,16104.0,710.0,-782.0,2836.0,0.6872988342731611,-0.23603208187635874,0.6604853821088044,0.18886034192612441
-2008.7864575386047,7060.0,-2436.0,16100.0,855.0,-373.0,2613.0,0.664226460258786,-0.027132201156518293,0.6861161390062227,0.29548552747584705
-2008.8020267486572,6704.0,-3380.0,16088.0,1020.0,-13.0,2727.0,0.5787650094700708,0.18964534662614746,0.6959166185662026,0.38048096709236306
-2008.8176054954529,6308.0,-3628.0,15868.0,1139.0,120.0,2646.0,0.45074430066787524,0.39172231736230845,0.6748811431361517,0.43349584096617594
-2008.8332138061523,6032.0,-2700.0,15456.0,1136.0,163.0,2378.0,0.30436701394231586,0.5557643841794914,0.6264763034027482,0.4538877739885233
-2008.8488094806671,5876.0,-1916.0,14744.0,949.0,477.0,1988.0,0.15059848998905187,0.6581628916754416,0.5693337326454098,0.4690424327355507
-2008.8644087314606,6280.0,-1576.0,14508.0,920.0,1275.0,1599.0,-0.03052693611746763,0.6845042826301347,0.5219389782977335,0.5080371011705767
-2008.8800144195557,6156.0,-1588.0,14528.0,1299.0,1864.0,1372.0,-0.24739834475936243,0.6437922677284671,0.47983406846142285,0.5422958987187012
-2008.8955948352814,5960.0,-2532.0,14636.0,1885.0,2381.0,1372.0,-0.4974468443868876,0.5259696405372978,0.4229367973933619,0.545001871238292
-2008.9112393856049,5712.0,-3384.0,15028.0,2270.0,2996.0,1327.0,-0.7323967524871927,0.3152238004807836,0.32091883687838296,0.5111164766403941
-2008.926881313324,5704.0,-3604.0,15156.0,2565.0,3790.0,1307.0,-0.8934521284470076,0.017245106123407853,0.14489161641957427,0.42479679845736457
-2008.9424571990967,5192.0,-3772.0,14600.0,3217.0,4680.0,1404.0,-0.8992196328394872,-0.34649540731810563,-0.09169055744415215,0.2508741244111447
-2008.9580347537994,2124.0,-2428.0,17256.0,4733.0,6232.0,2776.0,-0.6211744948846456,-0.7097263269462366,-0.3183768137697733,-0.09522075508005744
-2008.9736304283142,-3080.0,2024.0,23616.0,5852.0,8156.0,5249.0,0.00823489364834138,-0.7858047715163292,-0.3442070035750034,-0.5137748400600088
-2008.9892127513885,-3224.0,14112.0,27052.0,2012.0,5529.0,1668.0,0.34151884224857576,-0.5173365886289699,-0.27880989298466086,-0.7334799097649604
-2009.0048065185547,2820.0,15252.0,17984.0,-2130.0,6157.0,-4654.0,0.07963681238548266,-0.059996959921709433,-0.13859445232845347,-0.9853171675643372
-2009.020420074463,2220.0,3892.0,12256.0,-1286.0,4127.0,-7837.0,-0.4342770173364042,0.2998969756107712,-0.032026468190770464,-0.8487871238232438
-2009.0360884666443,3884.0,-6008.0,13980.0,763.0,4115.0,-6787.0,-0.7761815874091398,0.48805309323477974,-0.05473646656547871,-0.39541148286173683
-2009.0516991615295,4608.0,-11016.0,19972.0,2477.0,7005.0,-2574.0,-0.7727256942439167,0.47339054403602976,-0.41639181017368465,0.07358161925923527
-2009.0672941207886,3948.0,-9028.0,20548.0,3622.0,9573.0,1514.0,-0.43362203816962874,0.08349565064483766,-0.8173081112715024,0.3701457220971516
-2009.0828890800476,1244.0,-1796.0,19112.0,5647.0,7411.0,3682.0,-0.04898096373341403,-0.47604789724072544,-0.7092001823390506,0.5177010393023056
-2009.0984761714935,148.0,5608.0,17352.0,6900.0,4525.0,2377.0,0.3284224992826927,-0.6858804672860582,-0.2543690810988684,0.5974972946727755
-2009.114055633545,748.0,11380.0,18636.0,4183.0,5373.0,13.0,0.5995862383586079,-0.7275995819543033,0.10201425449882844,0.31731417079914037
-2009.1296219825745,712.0,10484.0,18508.0,380.0,6885.0,-2608.0,0.5337515050615941,-0.7749872316936812,0.25839342848634067,-0.21848788907242003
-2009.1452338695526,168.0,6032.0,16660.0,-935.0,7925.0,-4957.0,0.15252841319042418,-0.6024857610476024,0.23979185418200433,-0.7458189174139116
-2009.1608514785767,-800.0,2752.0,14828.0,181.0,8447.0,-6687.0,-0.327846763108926,-0.1383984681584644,-0.008205818540797197,-0.9345025566965912
-2009.1764302253723,-760.0,496.0,13288.0,1887.0,7402.0,-7243.0,-0.6556971537936627,0.3069012681827815,-0.33975437909654055,-0.6003664014411654
-2009.1920857429504,-1224.0,-988.0,13676.0,3267.0,6312.0,-5703.0,-0.6691673518480088,0.48502431132180385,-0.5629624873640271,-0.0063016242700466
-2009.207718372345,-1256.0,-932.0,14908.0,3350.0,5509.0,-4197.0,-0.4505337570630046,0.4138950067414023,-0.5884638460650728,0.5286024583896013
-2009.2232999801636,-872.0,608.0,15100.0,2323.0,4811.0,-3423.0,-0.11324137831410493,0.24171120341783917,-0.4782641651710536,0.8366692731856817
-2009.238918542862,-316.0,532.0,13664.0,1382.0,4697.0,-2939.0,0.24012451479283406,0.006832818652079951,-0.32361177863491564,0.9151879297245566
-2009.254508972168,-32.0,144.0,13428.0,1161.0,4599.0,-2457.0,0.5126146514783995,-0.24180416955711861,-0.12031737574096842,0.8150341660134732
-2009.2700779438019,-592.0,280.0,14948.0,1919.0,4001.0,-1711.0,0.6621086619861711,-0.3900884914326086,0.14707096451434482,0.622746513415799
-2009.2856726646423,-1364.0,1880.0,17792.0,2264.0,2957.0,-1298.0,0.7298395853755261,-0.41266791955765214,0.37519215298705877,0.3953102782926024
-2009.3012955188751,-1164.0,3868.0,19012.0,1679.0,2543.0,-1986.0,0.7393044711434087,-0.4368750697901173,0.4989862798630362,0.11654082911877901
-2009.316878080368,-1244.0,4656.0,19240.0,588.0,2265.0,-2969.0,0.6584662839522661,-0.5234458790270033,0.5107696779581633,-0.17759758080068427
-2009.3324692249298,-956.0,3176.0,17348.0,26.0,2579.0,-4005.0,0.4456833902320279,-0.6098528593864339,0.43910916926144283,-0.4864452107277877
-2009.3480677604675,-796.0,-56.0,15360.0,83.0,3565.0,-4183.0,0.12252392271625662,-0.5549303074838405,0.3169492968195319,-0.7593308800804267
-2009.3636548519135,-796.0,-1988.0,15724.0,1018.0,3167.0,-2662.0,-0.08641142903716995,-0.3820683826782611,0.14466055353917787,-0.9086419207471724
-2009.3792688846588,-1488.0,-1468.0,17268.0,2194.0,2869.0,-879.0,-0.11335624005316965,-0.1730607002690883,-0.07642606278261778,-0.9753765497442145
-2009.3948526382446,-1728.0,1120.0,18252.0,2228.0,2509.0,-116.0,-0.06992043843886238,0.01876426786536671,-0.2807914388341254,-0.9570345878898295
-2009.4104704856873,-1964.0,2724.0,17748.0,1285.0,2088.0,-304.0,-0.04523120409120293,0.1884987793966631,-0.3911212825545652,-0.8996924422686342
-2009.426069021225,-2116.0,2656.0,15760.0,436.0,1794.0,-1037.0,-0.07139860529597247,0.3569426914919703,-0.4082733034022994,-0.8371422005138863
-2009.44167470932,-1940.0,2044.0,14368.0,205.0,1460.0,-1720.0,-0.14857523622741559,0.5135970940304742,-0.37144627887278314,-0.7590593429337278
-2009.457326889038,-1540.0,1196.0,14780.0,360.0,1188.0,-1508.0,-0.22291946231817936,0.6273833510680621,-0.33814951218572065,-0.6650954454294074
-2009.472908258438,-1360.0,1364.0,15904.0,498.0,1141.0,-1026.0,-0.2734139352538252,0.707158990160927,-0.32978325130599667,-0.5625068797816083
-2009.488527059555,-1500.0,2256.0,17244.0,491.0,1136.0,-1133.0,-0.3232415268067112,0.7754977903631011,-0.307762337479873,-0.44654275956344713
-2009.5040953159332,-1520.0,2264.0,17640.0,138.0,1121.0,-1733.0,-0.36417584118416874,0.8480956011933709,-0.22382522881809058,-0.3130688021486447
-2009.5197219848633,-1652.0,1148.0,16656.0,-46.0,1011.0,-2295.0,-0.39444908816987223,0.9006570208396144,-0.08283349229950736,-0.1623744444416486
-2009.535326719284,-2004.0,376.0,16576.0,14.0,651.0,-1461.0,-0.4076592498524515,0.9110974792957922,0.009326975828108094,-0.06023559373403697
-2009.5508830547333,-1708.0,600.0,16904.0,-40.0,546.0,-692.0,-0.4074175250843868,0.9120988991183984,0.04500683482193113,0.007806619014048217
-2009.5820183753967,-1488.0,1284.0,16424.0,137.0,753.0,-214.0,-0.4201877899027254,0.9036735609613955,0.03526905312230199,0.07464857887375113
-2009.5975728034973,-1692.0,1492.0,16208.0,190.0,381.0,-142.0,-0.4351503690769426,0.8930695677901368,0.03370344819375484,0.10924733845357432
-2009.6131434440613,-1400.0,1024.0,16308.0,87.0,81.0,-275.0,-0.4394635566480344,0.8878461232860863,0.052873063520178,0.12571985880567485
-2009.6443567276,-1076.0,676.0,16144.0,22.0,-227.0,-160.0,-0.43830297799406376,0.8884573226168955,0.07419725086243219,0.1141440026212955
-2009.6599810123444,-1252.0,636.0,16172.0,-88.0,-242.0,123.0,-0.4310700622070847,0.8947213327789274,0.0730119615082751,0.09122275821194047
-2009.6755592823029,-1248.0,916.0,16392.0,-206.0,-360.0,267.0,-0.4144939488648119,0.9061716493526467,0.06400025057867184,0.05432933084279548
-2009.6911323070526,-1112.0,1288.0,16784.0,-241.0,-372.0,545.0,-0.39525552506110606,0.9179500633429233,0.03313957324499283,0.0065207210132118805
-2009.706707239151,-900.0,1604.0,16768.0,-256.0,-362.0,408.0,-0.3734677200872481,0.9268650015110148,0.012769937603522512,-0.035777922248531886
-2009.7222845554352,-776.0,1504.0,16488.0,-133.0,-366.0,358.0,-0.36084976864743723,0.9294449457885368,-0.0038464713100285564,-0.0768423182477994
-2009.7378659248352,-328.0,1320.0,16224.0,-228.0,-145.0,51.0,-0.3420115988275196,0.9353471456156645,-0.0018880705944095966,-0.09027856138366089
-2009.7534205913544,-572.0,908.0,16344.0,-121.0,-86.0,-5.0,-0.33220883959611835,0.9381838856006839,0.002039674948337342,-0.09718087990705114
-2009.7690060138702,-940.0,756.0,16496.0,58.0,-21.0,-183.0,-0.33850973132364826,0.9361379662471755,0.01713945845328099,-0.0936114785361381
-2009.7845704555511,-1288.0,728.0,16504.0,13.0,-33.0,-403.0,-0.3426535236996521,0.9342781701184869,0.050906621715233996,-0.08438826578266458
-2009.8001322746277,-1688.0,516.0,15968.0,-277.0,-251.0,-607.0,-0.322846398934533,0.9361866346766854,0.10974366696625253,-0.08532945158939612
-2009.81574177742,-1564.0,460.0,15472.0,-402.0,-317.0,-836.0,-0.29216525665866605,0.9337168286913297,0.18929670482527056,-0.0835410328070969
-2009.8313255310059,-1212.0,584.0,15564.0,-203.0,-473.0,-965.0,-0.2736395649112155,0.9153227460858484,0.2802175952571061,-0.09372170677802853
-2009.8468914031982,-1124.0,1104.0,16188.0,108.0,-439.0,-764.0,-0.2769883452478226,0.8877887621743031,0.34981207743041653,-0.11287196657145661
-2009.8624551296234,-952.0,1284.0,17196.0,270.0,-125.0,-544.0,-0.2990562938148086,0.862141682529592,0.3917537512405051,-0.11749915218327149
-2009.8780524730682,-1120.0,1096.0,17592.0,263.0,-13.0,-138.0,-0.3197548805769306,0.8501220194875178,0.3996382531485158,-0.12384924283216417
-2009.8936326503754,-1344.0,612.0,17212.0,123.0,157.0,461.0,-0.3291061801924743,0.8636218985066569,0.35935885763449166,-0.12925768843093746
-2009.909196138382,-1664.0,512.0,17248.0,294.0,-247.0,1275.0,-0.32698157020276575,0.8863972853328094,0.2652185751661274,-0.19246301641928276
-2009.9248809814453,-1692.0,1148.0,17248.0,613.0,254.0,1083.0,-0.3599377946607171,0.8927460107201971,0.16286015007632684,-0.21662390411741078
-2009.9405076503754,-2228.0,1912.0,17076.0,549.0,97.0,788.0,-0.3878711264626693,0.8853650051339335,0.087697639890748,-0.24081927019730467
-2009.9561140537262,-2140.0,2312.0,16904.0,140.0,17.0,79.0,-0.3971705542640562,0.8814645118099376,0.07805414791979168,-0.24327641734818062
-2009.9717319011688,-1860.0,2480.0,17068.0,-334.0,205.0,-637.0,-0.3856260737227402,0.891128393555948,0.12677476773178065,-0.20275817056319154
-2009.9873237609863,-1740.0,1996.0,16636.0,-524.0,328.0,-1194.0,-0.36715974198524376,0.8951891129562798,0.21639542022357589,-0.1303963113594103
-2010.002895116806,-1488.0,1512.0,16028.0,-399.0,165.0,-1395.0,-0.3521774990975766,0.8763921240633392,0.3220471217224804,-0.06475728066704901
-2010.0184984207153,-1732.0,1216.0,16236.0,-304.0,-51.0,-1335.0,-0.33271138612108114,0.8419027842771537,0.4244333218135473,-0.018952327194390124
-2010.0340914726257,-1676.0,1232.0,15956.0,-427.0,-512.0,-1428.0,-0.2821109437447973,0.7930677327599092,0.5398671105993439,0.0006996910697130723
-2010.0496852397919,-1780.0,840.0,15700.0,-456.0,-565.0,-1428.0,-0.2217081383349823,0.7299244692530319,0.646320028428961,0.01806077056227493
-2010.0653522014618,-1324.0,264.0,15716.0,-214.0,-890.0,-981.0,-0.15528109262494402,0.6754998896080592,0.7207848861926756,-0.00753851768686615
-2010.080927848816,-1332.0,80.0,16088.0,45.0,-1187.0,-321.0,-0.08300159924972217,0.6501701971486005,0.7514495487055627,-0.07558455537968375
-2010.096498966217,-1072.0,616.0,16888.0,-59.0,-1205.0,163.0,0.0004577633508764251,0.6496800431300067,0.7471095586033516,-0.140509570687596
-2010.1121027469635,-872.0,1040.0,17340.0,-196.0,-1044.0,289.0,0.0828319905185911,0.6527056589589505,0.7297157555242194,-0.18608895789220817
-2010.1277265548706,-1268.0,1304.0,17196.0,-313.0,-1067.0,88.0,0.16928532060955573,0.6357026839100883,0.7186629718445575,-0.22527341342284293
-2010.143306016922,-1620.0,1372.0,17112.0,-358.0,-1222.0,86.0,0.265897228153624,0.6080031772766245,0.6985334249745154,-0.2677346721571984
-2010.1588814258575,-1764.0,1424.0,16916.0,-198.0,-1417.0,174.0,0.3640588342105619,0.5763349377845886,0.6558357651856916,-0.32431258659722006
-2010.174465894699,-2088.0,1204.0,16412.0,-179.0,-1666.0,411.0,0.4747866246965357,0.540874941704858,0.5806847302381701,-0.38057483168657047
-2010.2056262493134,-1568.0,1096.0,15572.0,-13.0,-1844.0,508.0,0.5778195788883567,0.4978753157787552,0.47407455100280127,-0.43988410323968213
-2010.2212052345276,-1724.0,1448.0,16336.0,165.0,-1902.0,440.0,0.6567934701280064,0.44482423129335386,0.34754041209086267,-0.49996940187895667
-2010.2368109226227,-2164.0,2224.0,16972.0,124.0,-1881.0,488.0,0.7200857274525884,0.379078413488447,0.21217498021805536,-0.5410710483066214
-2010.2523970603943,-2064.0,2756.0,17560.0,-186.0,-1837.0,0.0,0.7506394946110206,0.2768729659871262,0.10401894252389815,-0.5908144966330915
-2010.2680563926697,-2472.0,2360.0,17176.0,-414.0,-1797.0,-577.0,0.7368389223739865,0.1494853915011044,0.02115674215745702,-0.658995381215822
-2010.2836441993713,-2308.0,2116.0,16488.0,-509.0,-2145.0,-1050.0,0.6719623521225222,-0.008663382007673727,-0.07224772830116039,-0.7370019056267616
-2010.2992770671844,-2412.0,2144.0,15876.0,170.0,-2297.0,-1216.0,0.5650163845444313,-0.1350549877341952,-0.21319419331290715,-0.785534767799691
-2010.314858675003,-2520.0,2120.0,16124.0,648.0,-2592.0,-1105.0,0.435075101940264,-0.25214182836322335,-0.3862029124147163,-0.773292612471961
-2010.3304312229156,-2184.0,2288.0,16340.0,841.0,-2700.0,-689.0,0.30637273124834546,-0.367424219377629,-0.5432949987916182,-0.6899027010022388
-2010.3459992408752,-1824.0,2452.0,16388.0,880.0,-2957.0,-105.0,0.1815929111343535,-0.49911784058671715,-0.6553035279740238,-0.5371058387865478
-2010.361558675766,-1924.0,2168.0,15724.0,773.0,-3356.0,376.0,0.03918524438841905,-0.6371948658403236,-0.697160514991069,-0.32621225591068675
-2010.3771741390228,-1948.0,1700.0,15132.0,743.0,-3812.0,933.0,-0.11795544973614676,-0.755381142309992,-0.6415788139258111,-0.06214875092505619
-2010.392762184143,-1652.0,1108.0,15256.0,843.0,-4465.0,1593.0,-0.28008687749159955,-0.8089425884259732,-0.45644670886707917,0.24252758946582553
-2010.4083518981934,-1588.0,1392.0,16088.0,794.0,-4831.0,2064.0,-0.4175294109151475,-0.7332486913875158,-0.15943387690370225,0.5124415932521488
-2010.4239645004272,-1432.0,1696.0,16472.0,875.0,-5256.0,2640.0,-0.49064932391012817,-0.5029341180685333,0.21324826149766407,0.6788561650286344
-2010.4395461082458,-1592.0,2036.0,16240.0,889.0,-5830.0,3157.0,-0.45788319866038246,-0.11797647750430029,0.5648765799985004,0.6762684204584832
-2010.455118894577,-1560.0,1740.0,16160.0,714.0,-6173.0,3575.0,-0.3028436030377973,0.3341538241227952,0.7548301132277568,0.47629662405665746
-2010.4707016944885,-1852.0,1592.0,16684.0,474.0,-6287.0,4210.0,-0.06461801324082982,0.7175283475892751,0.6820805823790178,0.12547374989260693
-2010.4862809181213,-2448.0,1504.0,17220.0,378.0,-6231.0,4947.0,0.18763343638757954,0.8852480002662773,0.337862743197847,-0.2588019287655548
-2010.5018706321716,-3232.0,800.0,16952.0,426.0,-6202.0,5520.0,0.3742072254580078,0.7404308276301483,-0.16180128481705713,-0.5343701770697005
-2010.5174465179443,-2752.0,992.0,17584.0,809.0,-6480.0,5742.0,0.39688898469713646,0.3053770848271121,-0.6231107819843577,-0.6007969068357568
-2010.5330131053925,-1808.0,1188.0,18528.0,1399.0,-6611.0,5837.0,0.24148993245812755,-0.24481627225720023,-0.8526245463613576,-0.3934196084355058
-2010.5486330986023,-648.0,2324.0,19704.0,1732.0,-6715.0,5804.0,-0.01721144323870293,-0.6835891327081023,-0.7296633846177093,0.0010044965177183492
-2010.5642359256744,112.0,3496.0,19588.0,1267.0,-6718.0,5286.0,-0.29537115844490425,-0.8155647004326895,-0.3225381392110272,0.3789185228005363
-2010.579822063446,788.0,4220.0,19220.0,-58.0,-6316.0,5123.0,-0.5274282282136292,-0.6110117699985441,0.16564345213057893,0.5666095020143438
-2010.5954225063324,1240.0,4068.0,17956.0,-1639.0,-5973.0,5065.0,-0.638688974488211,-0.13670481415960153,0.5162285561569838,0.553982188757781
-2010.611011505127,2088.0,3156.0,16420.0,-2560.0,-5773.0,4943.0,-0.5310382809121332,0.4161367180038733,0.6333440044264417,0.3790830360118092
-2010.6266403198242,3756.0,1200.0,14908.0,-3135.0,-5043.0,4806.0,-0.2475019471283661,0.8270165465770848,0.4898253401871427,0.12189156642659915
-2010.6422533988953,4752.0,-1768.0,14948.0,-4096.0,-3933.0,4371.0,0.1439645103435488,0.9701010925254795,0.1828284143662778,-0.06893374313589853
-2010.6578345298767,4572.0,-3908.0,15436.0,-5026.0,-2482.0,3566.0,0.5455549247759792,0.8208583865609306,-0.10389929954902666,-0.13329016774872476
-2010.6734104156494,5032.0,-3660.0,16008.0,-4583.0,-577.0,1814.0,0.8165468217984683,0.5316230247160685,-0.19089782075761524,-0.11910612676328776
-2010.6889929771423,4232.0,2032.0,17360.0,-3553.0,306.0,-596.0,0.9349304146020324,0.27780333806168866,-0.09962410259058166,-0.19699102364543397
-2010.7045838832855,4816.0,8688.0,17968.0,-2358.0,-1174.0,-4762.0,0.8130451562973214,0.09608859163659174,-0.035766219652453586,-0.5731015040204773
-2010.7201533317566,6680.0,10848.0,16944.0,-2750.0,-1660.0,-8495.0,0.3182663349332023,-0.12185467290693702,0.043024604807373586,-0.9391522039159039
-2010.735763311386,7152.0,5708.0,16312.0,-4718.0,-636.0,-10360.0,-0.4101958295911352,-0.24382607767429437,0.213764079260857,-0.8524043310834168
-2010.7513716220856,6868.0,-464.0,15724.0,-6288.0,-552.0,-10745.0,-0.9023339089666215,-0.17604624080299083,0.3197639057381866,-0.22924284594118158
-2010.7669444084167,6532.0,-5880.0,16468.0,-5817.0,-854.0,-9531.0,-0.828594113285562,-0.0005406388496187557,0.2552239175450357,0.4982893286546607
-2010.7824959754944,6788.0,-7852.0,16260.0,-4163.0,-565.0,-7712.0,-0.38167790255280676,0.1218736787215486,0.09088749706719672,0.9117062290094475
-2010.798058271408,6884.0,-6436.0,15360.0,-3324.0,324.0,-6114.0,0.11748569859538403,0.13544993171155215,-0.10218931638298676,0.9784721611993201
-2010.8136179447174,6540.0,-4268.0,14356.0,-3063.0,676.0,-4849.0,0.5123176067554608,0.08017864094070837,-0.267620766388898,0.8120844665074423
-2010.8291954994202,6064.0,-2360.0,14548.0,-3629.0,618.0,-4134.0,0.7610959546763623,-0.026307901996474897,-0.42141661879140574,0.492390978262437
-2010.8447861671448,6280.0,-1424.0,15024.0,-4215.0,648.0,-4351.0,0.8497102163683261,-0.15366651480132512,-0.5026614620599279,0.04135946068171496
-2010.8603670597076,6580.0,-1676.0,14956.0,-4346.0,911.0,-3942.0,0.7508812212245023,-0.2719182105879257,-0.4470114106585974,-0.4030120061537511
-2010.8759546279907,6612.0,-2772.0,14732.0,-3348.0,1156.0,-3677.0,0.5364259815101123,-0.2805577911940637,-0.31106542720444424,-0.7326477954374375
-2010.8915617465973,6008.0,-3668.0,14260.0,-2693.0,1145.0,-3530.0,0.25617461655304063,-0.2205348593419594,-0.15917198316324657,-0.9275792264948606
-2010.9071595668793,5800.0,-3700.0,14120.0,-2202.0,1125.0,-3367.0,-0.04046848341827069,-0.12393944295742478,-0.019034963106948185,-0.9912814870200822
-2010.9228279590607,5552.0,-3252.0,14404.0,-1662.0,1275.0,-2817.0,-0.2868095855585929,-0.0030848584112204668,0.08611469734322627,-0.9541042941847475
-2010.9384596347809,5412.0,-3072.0,14424.0,-1248.0,1484.0,-2694.0,-0.5019959192158042,0.12598936602636224,0.14628384930574473,-0.8430467437640983
-2010.9540948867798,5488.0,-2584.0,14372.0,-208.0,1657.0,-2292.0,-0.6693773249275711,0.22078470189598648,0.11088774447314656,-0.7006368677190543
-2010.9696695804596,5568.0,-2272.0,15096.0,158.0,1617.0,-1846.0,-0.7832054788531593,0.28577618615474887,0.04145853420506062,-0.5506381200596338
-2010.9853315353394,5792.0,-2084.0,16036.0,119.0,1638.0,-1207.0,-0.8370696190363274,0.3463120332207961,-0.045299445566620286,-0.42110614904583493
-2011.0009219646454,5872.0,-2492.0,16868.0,-162.0,1756.0,-801.0,-0.8428310409492525,0.4197059114129339,-0.14128292541762466,-0.3058135368535476
-2011.0165309906006,5620.0,-2300.0,16124.0,-335.0,1659.0,-754.0,-0.8197012027379605,0.49140107267753486,-0.2237243588278519,-0.1912128010055173
-2011.032104730606,5216.0,-2380.0,15176.0,-343.0,1315.0,-326.0,-0.7790971526806414,0.5401431273416522,-0.2957946436415801,-0.11729687746673986
-2011.0477755069733,4612.0,-2572.0,14448.0,-8.0,1045.0,-164.0,-0.7503405642651114,0.553180421416215,-0.35742475742059054,-0.05681550635983948
-2011.063369512558,4172.0,-2856.0,13988.0,474.0,908.0,69.0,-0.7416931543001234,0.5223176282868989,-0.4207950595396778,-0.002660434566220538
-2011.0789568424225,3924.0,-2548.0,14004.0,1128.0,900.0,260.0,-0.753954140971697,0.4363204878404914,-0.48710530400331997,0.06249806408280965
-2011.0946154594421,4008.0,-2332.0,13764.0,1551.0,827.0,635.0,-0.7712280756978422,0.29873113577389926,-0.5498719889607365,0.11665230186757093
-2011.1101982593536,3988.0,-2416.0,14540.0,2337.0,383.0,1117.0,-0.8045029625148984,0.08174985088528995,-0.5662484711201713,0.15954502229481643
-2011.125804424286,4116.0,-2268.0,15408.0,2540.0,9.0,1642.0,-0.8171450629607236,-0.17200235035363698,-0.5250787520666275,0.16426028637468357
-2011.141394853592,4480.0,-1368.0,16348.0,2802.0,521.0,2122.0,-0.7466437936125042,-0.4551568013235736,-0.46806953195972106,0.12753918974114875
-2011.156979084015,4588.0,-956.0,16596.0,3027.0,1431.0,2542.0,-0.5598218747810182,-0.724923223895871,-0.4004500480724327,0.02693597913329293
-2011.1725480556488,3672.0,-352.0,17332.0,3298.0,1796.0,1725.0,-0.27512593235784666,-0.8941937496879935,-0.3492476385936245,-0.05243420925244109
-2011.1881084442139,2744.0,-136.0,17136.0,3382.0,1935.0,880.0,0.048959677436838205,-0.9379998134203781,-0.32340662004338544,-0.11474954518746389
-2011.2037239074707,1924.0,252.0,16220.0,3175.0,1767.0,45.0,0.3424647468711637,-0.8654902925979361,-0.3278705381291828,-0.16169527140918105
-2011.219289779663,1980.0,452.0,15152.0,3224.0,1289.0,-373.0,0.5908743778324415,-0.7080304961367218,-0.34723584945904873,-0.170257308248327
-2011.23486161232,1612.0,460.0,14748.0,3003.0,589.0,-971.0,0.751032231957774,-0.49576445848549927,-0.40582669646467634,-0.15960225781508106
-2011.2504568099976,2536.0,1132.0,15784.0,2182.0,92.0,-952.0,0.818038216640807,-0.3109339638667755,-0.4614418953589592,-0.14561910395533395
-2011.2660539150238,3732.0,1780.0,17972.0,598.0,-32.0,-846.0,0.8189812984323589,-0.23348756167356424,-0.49215585684933694,-0.18037683867580168
-2011.2816169261932,4836.0,1736.0,19200.0,-1230.0,28.0,-973.0,0.7726958254883394,-0.2764956427612758,-0.48594188898939455,-0.300585763688738
-2011.297205209732,4528.0,364.0,17672.0,-2007.0,-283.0,-1172.0,0.6678095415541543,-0.36200151639299566,-0.47078709411822767,-0.44871464245121007
-2011.3127834796906,3612.0,-1972.0,15404.0,-1886.0,-644.0,-1459.0,0.5129286442755039,-0.42731675819614134,-0.4696389406937471,-0.5777056858214993
-2011.3283529281616,3076.0,-3096.0,14980.0,-1398.0,-288.0,-1326.0,0.3767952745863722,-0.4436396283264115,-0.4548445847063131,-0.6740367979503238
-2011.3439869880676,3552.0,-3300.0,13804.0,-347.0,-1180.0,-417.0,0.2902034343521914,-0.5046366643949491,-0.4861551799622604,-0.6517491424117065
-2011.3595712184906,3372.0,-2504.0,13888.0,110.0,-1054.0,668.0,0.2866882820314238,-0.5866120660348297,-0.4866948181149561,-0.580365632121914
-2011.3751707077026,3336.0,-1116.0,15464.0,13.0,-817.0,1406.0,0.3207199471116592,-0.6805305433911616,-0.43141465128295947,-0.4978938578601141
-2011.3907642364502,3544.0,440.0,16228.0,-256.0,-833.0,1713.0,0.343844598116277,-0.7774889912613281,-0.3371008354318345,-0.4045303295982364
-2011.4063408374786,3636.0,1720.0,16972.0,-653.0,-935.0,1432.0,0.3185900734809326,-0.8612707750672032,-0.2418363602220114,-0.3134137711861469
-2011.4219768047333,3980.0,2012.0,17272.0,-1067.0,-976.0,719.0,0.23515661654810932,-0.9236625268564234,-0.18391257739303635,-0.24026041299286688
-2011.437554359436,3924.0,1476.0,16880.0,-1116.0,-1198.0,-186.0,0.12082853799174581,-0.95882765931555,-0.1980607528567026,-0.163773997679964
-2011.4531786441803,3816.0,344.0,15984.0,-738.0,-1428.0,-866.0,0.02173386195019061,-0.959933497920738,-0.2716299035720065,-0.06536447276501738
-2011.4687552452087,3836.0,-728.0,15848.0,-163.0,-1452.0,-1064.0,-0.03201763065089995,-0.9317727327652984,-0.3581846407235558,0.049781612592679346
-2011.4843339920044,3516.0,-1384.0,15960.0,173.0,-1372.0,-968.0,-0.05602609358379775,-0.8864556975142582,-0.4277167206028319,0.1676776076254919
-2011.4999384880066,3672.0,-1152.0,16052.0,125.0,-1164.0,-800.0,-0.0775085988852093,-0.833792242864458,-0.4784493162905558,0.2643277597586148
-2011.5155005455017,3692.0,-460.0,16216.0,-170.0,-1089.0,-740.0,-0.1175054812003133,-0.7714336581760336,-0.525345487888667,0.33925608509803296
-2011.5310518741608,3680.0,80.0,16008.0,-647.0,-1062.0,-513.0,-0.19326735303860473,-0.7049586339827949,-0.5642728464483875,0.38376712910774097
-2011.5466706752777,3648.0,100.0,15736.0,-1053.0,-1151.0,-777.0,-0.2854687545006001,-0.603393571196422,-0.6207859405995555,0.4111552071865682
-2011.5622527599335,3780.0,-136.0,15608.0,-1137.0,-1044.0,-746.0,-0.3710568260633057,-0.49165629908299086,-0.6674112992807679,0.4185129305005996
-2011.5778234004974,3840.0,-540.0,15708.0,-980.0,-1376.0,-713.0,-0.46140188138752103,-0.3634393355309082,-0.680539426820535,0.43804821856010956
-2011.5933980941772,3976.0,-920.0,15992.0,-687.0,-1427.0,-581.0,-0.5399785218201997,-0.24401101715334012,-0.6605765890632208,0.46099933781109215
-2011.608980178833,4220.0,-1028.0,16528.0,-542.0,-1444.0,-407.0,-0.6125553204658365,-0.13552904314825084,-0.6169461350316799,0.4751687324538388
-2011.624561548233,4176.0,-1428.0,16432.0,-387.0,-1286.0,-134.0,-0.6762143816098543,-0.05385593187930229,-0.5618092863825264,0.4735018209466261
-2011.6401422023773,4024.0,-1192.0,16376.0,-301.0,-1092.0,67.0,-0.7304410207177098,0.0057744057801060265,-0.5068415746542762,0.45774904663224664
-2011.6557712554932,4076.0,-988.0,16404.0,-361.0,-770.0,47.0,-0.7641644182377554,0.05735177823216594,-0.4707144834805901,0.43725437730749245
-2011.6713531017303,3832.0,-292.0,16200.0,-505.0,-909.0,66.0,-0.7982822900927693,0.1225202176929529,-0.42772411187125997,0.40593874624708703
-2011.6869308948517,3692.0,-268.0,16228.0,-555.0,-774.0,-68.0,-0.8160815010192911,0.19047561880257288,-0.39116571989266685,0.3804200335375746
-2011.702570438385,3636.0,-336.0,16240.0,-471.0,-1021.0,-156.0,-0.8339215262804837,0.2619203698278392,-0.32965958409271506,0.3567872846544486
-2011.7181706428528,3592.0,-668.0,16240.0,-297.0,-730.0,-229.0,-0.8389315232893426,0.31197295531693053,-0.2796173085739239,0.3473916163756957
-2011.7337663173676,3552.0,-912.0,16140.0,-511.0,-765.0,-5.0,-0.8409101965410614,0.3713979325358796,-0.23800232152082829,0.31350998710095973
-2011.7493567466736,3788.0,-796.0,16432.0,-143.0,-768.0,-223.0,-0.8440875261814038,0.40638108387089866,-0.1777059869362821,0.3013158559118213
-2011.7649161815643,3812.0,-532.0,16428.0,-109.0,-681.0,-100.0,-0.8466731494825795,0.4329097668465324,-0.1264794583604299,0.2823768020340603
-2011.7805054187775,3836.0,-808.0,16136.0,30.0,-685.0,4.0,-0.854024567495456,0.4465548868372258,-0.07501678196565537,0.25613132096545527
-2011.796087026596,3840.0,-876.0,16280.0,149.0,-710.0,170.0,-0.8665384414324008,0.449067915111306,-0.025238208650534694,0.21636120253317712
-2011.811713218689,3876.0,-892.0,16316.0,110.0,-579.0,238.0,-0.8753657809824441,0.45026478489404836,0.011359063668864893,0.17569104883823386
-2011.827262878418,3732.0,-720.0,16032.0,69.0,-491.0,241.0,-0.8803633273828344,0.45203259878509827,0.040468857992572695,0.13780135328722867
-2011.8428225517273,3844.0,-572.0,16092.0,67.0,-450.0,209.0,-0.8831857839628595,0.45239607700210305,0.0675852482243377,0.10369616550997057
-2011.858413219452,3824.0,-408.0,15940.0,-9.0,-438.0,86.0,-0.8804571186715543,0.45700762847125126,0.09782818014313334,0.07980561928554782
-2011.8739972114563,3956.0,-508.0,16212.0,26.0,-390.0,-243.0,-0.8758657234258729,0.45507823968038114,0.13757899744105853,0.08267435975071843
-2011.8895704746246,4076.0,-384.0,16180.0,49.0,-384.0,-31.0,-0.8725785050719042,0.4532675795877304,0.16842258719541015,0.06920322177157659
-2011.9051604270935,3904.0,-340.0,16348.0,-15.0,-344.0,-184.0,-0.8654192647723206,0.45332177089621245,0.20167662540489714,0.06982411444301072
-2011.9208734035492,3644.0,-460.0,16100.0,-36.0,-354.0,-209.0,-0.8560418663119362,0.4540351960671518,0.23627918536218492,0.07222541393458586
-2011.936535835266,3924.0,-752.0,16088.0,-253.0,-3.0,-177.0,-0.8446410087011705,0.468956721784542,0.241788189642731,0.090551813138421
-2011.9521210193634,3904.0,-972.0,16240.0,77.0,-12.0,-88.0,-0.8469065487224847,0.46131616069730946,0.2468210442423237,0.09495298694402651
-2011.967753648758,3880.0,-940.0,16284.0,95.0,-294.0,6.0,-0.844249401857924,0.45651689175313304,0.2689500918528362,0.0806295423461308
-2011.9833607673645,3816.0,-840.0,16208.0,118.0,-276.0,-33.0,-0.8420568575711931,0.4486618147828948,0.2912733391782959,0.06930127312663492
-2011.998969078064,3856.0,-616.0,16208.0,157.0,-117.0,-151.0,-0.8442286411660876,0.4337218551716751,0.30659788423841206,0.07184073469718304
-2012.0146396160126,3956.0,-456.0,16264.0,131.0,-89.0,-118.0,-0.8460484962508763,0.42123912231075855,0.3183245165106284,0.07368206033199298
-2012.0302271842957,4044.0,-452.0,16244.0,118.0,-52.0,-123.0,-0.8481563956995715,0.4092263193433683,0.327327272942477,0.0775977085913797
-2012.0458281040192,3952.0,-432.0,16200.0,46.0,-138.0,-136.0,-0.8449171799002898,0.4026456760716345,0.3425764234774308,0.08144208204343638
-2012.0614204406738,3848.0,-496.0,15952.0,-23.0,-159.0,-329.0,-0.8366988005636151,0.39527511252188874,0.3654244736257168,0.10078520045911496
-2012.0769910812378,3612.0,-620.0,16056.0,-110.0,-124.0,-510.0,-0.823671300577701,0.38756174784230424,0.3905809077590869,0.1371423884440709
-2012.0925726890564,3956.0,-672.0,16180.0,-36.0,-51.0,-565.0,-0.813060796403665,0.370903704206824,0.41231616934958254,0.17708178915399808
-2012.1081473827362,3956.0,-680.0,15912.0,50.0,61.0,-647.0,-0.8056787706172335,0.3424433343791715,0.42889615590654784,0.22285055253367536
-2012.1237616539001,3884.0,-748.0,16288.0,30.0,74.0,-828.0,-0.7912630574078144,0.30696912075847643,0.44771618998031293,0.2814657103661441
-2012.1393415927887,3780.0,-364.0,16220.0,-91.0,77.0,-976.0,-0.765146581633891,0.2721122166751119,0.4644643737700956,0.3532399972376871
-2012.154955148697,3732.0,-256.0,16536.0,-289.0,171.0,-1130.0,-0.7266372162482643,0.2389745029754563,0.4683449009388736,0.44220198626324986
-2012.170610666275,3756.0,-352.0,16132.0,-347.0,4.0,-1118.0,-0.6730044438628388,0.2139350047314287,0.47537556700683153,0.5247045860142334
-2012.1861951351166,3744.0,-404.0,16360.0,-318.0,291.0,-1064.0,-0.6273599338650878,0.17420532051449417,0.46109782160892027,0.6028771173238736
-2012.2017872333527,3728.0,-596.0,16228.0,-3.0,341.0,-1070.0,-0.5820319397283822,0.112779830790608,0.4561563789417453,0.663657207339462
-2012.2173733711243,3720.0,-736.0,16412.0,-506.0,437.0,-1195.0,-0.5215972702695598,0.0651226109551157,0.41325654135372214,0.7435821166610261
-2012.2329542636871,3708.0,-624.0,16532.0,-2.0,524.0,-1220.0,-0.4583168339936129,-0.012692149385907502,0.39334714617513855,0.7969081575802265
-2012.2485764026642,3728.0,-300.0,16504.0,-507.0,714.0,-1354.0,-0.385482713045974,-0.08761926907150853,0.32459407239518445,0.859281461336156
-2012.2641606330872,3724.0,-120.0,16644.0,-273.0,1276.0,-1629.0,-0.2967278088730236,-0.21657495633968535,0.2444953230537697,0.8973683372688779
-2012.2797775268555,3792.0,-176.0,16720.0,-336.0,1303.0,-1756.0,-0.18989386585908222,-0.3408941340116854,0.14836262700967237,0.9086913887631515
-2012.295354604721,3752.0,-388.0,16696.0,-299.0,1409.0,-1817.0,-0.07150514566130528,-0.46164882575474525,0.04622809386948635,0.8829667825917431
-2012.3109192848206,3520.0,-728.0,16512.0,-247.0,1578.0,-1760.0,0.046818132738158984,-0.576378229204661,-0.052483970253250016,0.8141508657566282
-2012.326494216919,3360.0,-1088.0,16764.0,-509.0,1868.0,-1669.0,0.14483699594683141,-0.6865538075492426,-0.16103916542455465,0.6940695218377607
-2012.3420507907867,3404.0,-1296.0,16704.0,-269.0,2063.0,-1368.0,0.23514873993040625,-0.777479675806382,-0.22791565477288392,0.5369216685202721
-2012.3576910495758,3396.0,-1620.0,16804.0,-302.0,1900.0,-1088.0,0.29800730889674887,-0.8356220396041462,-0.2718953669634081,0.3728275207059668
-2012.3733525276184,3168.0,-1772.0,16492.0,-274.0,1484.0,-827.0,0.3364465860001968,-0.8617135876438625,-0.29917562943881487,0.23398147445608697
-2012.3889424800873,2912.0,-1692.0,15992.0,-397.0,816.0,-761.0,0.3416841265162546,-0.8655228314291202,-0.33875586450371814,0.1391641125652789
-2012.4045095443726,3248.0,-1540.0,15784.0,-546.0,572.0,-909.0,0.326655100015861,-0.8571237359295469,-0.3948276800337179,0.05240658373712306
-2012.4200994968414,3968.0,-1212.0,15848.0,-1319.0,904.0,-1111.0,0.26053421800776666,-0.8483903589048317,-0.4517307826496248,-0.09107700132947845
-2012.435716867447,4412.0,-368.0,16164.0,-1736.0,1470.0,-1339.0,0.17476060064278398,-0.802339352203357,-0.49079551998109744,-0.29125599381876216
-2012.4513120651245,4496.0,-236.0,15384.0,-1857.0,1375.0,-1552.0,0.06237226154980495,-0.708569441714624,-0.5162651914694504,-0.4769793489600996
-2012.466896057129,4876.0,-640.0,14528.0,-1690.0,883.0,-2462.0,-0.10117458497966157,-0.5500501821144083,-0.5725533194306495,-0.5994924494262162
-2012.482472896576,5624.0,-2116.0,14144.0,-1136.0,196.0,-2354.0,-0.26231068122360385,-0.40169835231665674,-0.6119763792472239,-0.6287419593963409
-2012.498052597046,5912.0,-3764.0,14548.0,-104.0,-87.0,-1506.0,-0.3502228408635768,-0.32084481034039436,-0.6513492047756265,-0.5917320194591813
-2012.5136222839355,5636.0,-5024.0,15288.0,833.0,-197.0,348.0,-0.31910141846018514,-0.37504827847942435,-0.6763321224337934,-0.5478028237518665
-2012.5291640758514,4868.0,-4824.0,15700.0,1385.0,-287.0,1702.0,-0.20553131870408106,-0.5182472141896227,-0.66646153583518,-0.4949805281712302
-2012.5447380542755,4164.0,-2972.0,15864.0,1375.0,-480.0,2327.0,-0.06876286614647965,-0.6797793755094375,-0.5950949990751166,-0.42312363553352517
-2012.560314655304,3456.0,-1248.0,15180.0,1242.0,-659.0,2281.0,0.05352007791719032,-0.8082389150725638,-0.4884462354513085,-0.32450844749483476
-2012.5759415626526,2868.0,-276.0,15092.0,1052.0,-936.0,1819.0,0.1366534793977864,-0.8896269109932038,-0.38655254464583866,-0.2011639034046519
-2012.5915279388428,2868.0,-36.0,14520.0,943.0,-1184.0,1094.0,0.1867092989045309,-0.923879757792477,-0.3279436063934321,-0.06355172593692786
-2012.607105731964,3164.0,-200.0,14412.0,1079.0,-1528.0,572.0,0.22987111874616148,-0.9178538209085016,-0.3082413682183383,0.09844232387006688
-2012.6226871013641,3832.0,-600.0,14876.0,1458.0,-1405.0,339.0,0.3012198782474033,-0.8717411703347386,-0.29209084188637546,0.25301552714833203
-2012.638269662857,4244.0,-1576.0,16080.0,1726.0,-1508.0,452.0,0.3764422746286184,-0.7883126583364536,-0.2539961148719417,0.41513894084860936
-2012.6538665294647,4780.0,-1876.0,17428.0,1683.0,-1483.0,808.0,0.42113877444681874,-0.6824847106102188,-0.1822282493591495,0.5689021159885216
-2012.6695024967194,5140.0,-1612.0,18788.0,1296.0,-1293.0,1072.0,0.41751742772449846,-0.5777462237745722,-0.09983688205626241,0.6942053697875179
-2012.6851177215576,4900.0,-936.0,18912.0,636.0,-1093.0,1110.0,0.3689116479538495,-0.4925678317528338,-0.04467704415577087,0.7869466874266582
-2012.7007200717926,4240.0,-488.0,17592.0,243.0,-1043.0,944.0,0.3081173061328453,-0.41339108929795226,-0.020833271202272092,0.8565847930949413
-2012.7162871360779,3520.0,-840.0,16188.0,-304.0,-983.0,1020.0,0.21740940473814005,-0.3469385107509253,-0.03295369859996776,0.9117460579777245
-2012.731910943985,3084.0,-1648.0,15336.0,-306.0,-822.0,890.0,0.134193951122687,-0.28793276400391593,-0.04571023177018797,0.9470994042901002
-2012.7474837303162,2944.0,-2076.0,14984.0,-56.0,-782.0,1324.0,0.020071988192036126,-0.22691879502500306,-0.02602212802382249,0.9733590419816992
-2012.7630903720856,2932.0,-2088.0,15316.0,162.0,-750.0,1726.0,-0.12336656750562247,-0.16433140245662958,0.02029284304255669,0.9784498355612147
-2012.778652191162,3256.0,-1408.0,15816.0,220.0,-685.0,1756.0,-0.2653362891617974,-0.10338222051626716,0.07061885792044795,0.9559925454944639
-2012.7942390441895,3636.0,-580.0,16348.0,127.0,-593.0,1543.0,-0.3852770386727092,-0.046544678219578105,0.10766452309523594,0.9153160912317116
-2012.8098275661469,4028.0,104.0,16772.0,109.0,-569.0,1073.0,-0.4626167119161637,0.0055960180319346445,0.13896313038228675,0.8755819269676706
-2012.8254117965698,4248.0,340.0,16740.0,54.0,-676.0,595.0,-0.49840796110876207,0.062356572720799766,0.16937818934530385,0.8479458656754151
-2012.8409898281097,4316.0,40.0,16592.0,26.0,-722.0,122.0,-0.4959490737718622,0.11635168503549558,0.20134692453471353,0.8366338611331992
-2012.8565933704376,4264.0,-384.0,16240.0,59.0,-744.0,-254.0,-0.46389831903193784,0.16327654592948307,0.23957802571763073,0.837103033528085
-2012.8721797466278,4112.0,-948.0,15888.0,197.0,-723.0,-505.0,-0.4134814909646307,0.19690629163835424,0.2892757967498098,0.8405834178459983
-2012.8877942562103,3872.0,-1408.0,15816.0,280.0,-721.0,-39.0,-0.3963992961618288,0.2381154151754313,0.33550220670734887,0.8207355946666002
-2012.9034221172333,4064.0,-1448.0,15636.0,272.0,-718.0,233.0,-0.39682402741851897,0.28619831107880184,0.37385653821541853,0.7879419438210986
-2012.919055223465,3712.0,-1132.0,15756.0,42.0,-732.0,416.0,-0.40158610505977443,0.34764205535398146,0.39046903906025077,0.7519358557134668
-2012.9346582889557,3608.0,-836.0,15924.0,-222.0,-578.0,371.0,-0.3987804568239814,0.4051059474970162,0.38398690652221107,0.7276107298393174
-2012.9502472877502,3948.0,-748.0,15988.0,-499.0,-501.0,215.0,-0.37728355801076674,0.46043862532652496,0.36124903168658207,0.717741266939322
-2012.9658393859863,4312.0,-936.0,16308.0,-171.0,-369.0,63.0,-0.3625563389371973,0.4907467735845494,0.3598115656012462,0.7058726107254704
-2012.9814155101776,4560.0,-1084.0,16392.0,31.0,-320.0,167.0,-0.36400923132053015,0.5143616408396124,0.36440995977950885,0.6856637391314456
-2012.9970018863678,4724.0,-1532.0,16488.0,266.0,-52.0,214.0,-0.38700011602004386,0.5154899530106904,0.3721064677209484,0.6678606106260103
-2013.0126013755798,4788.0,-1180.0,16416.0,469.0,308.0,147.0,-0.42619982221150615,0.4857349958671754,0.38184235792036364,0.6607659487553912
-2013.0281946659088,4616.0,-952.0,16472.0,620.0,610.0,97.0,-0.4770925379010711,0.4293550588768963,0.38955489627487333,0.6605179229091401
-2013.043850660324,4444.0,-748.0,16148.0,538.0,840.0,107.0,-0.5300292558724197,0.3606609079244275,0.38000180695280866,0.6667768173287497
-2013.0594551563263,4280.0,-532.0,16048.0,346.0,835.0,26.0,-0.568434498648631,0.29587754882134554,0.35942104613631964,0.6783474098452987
-2013.0750486850739,4148.0,-676.0,15888.0,246.0,1002.0,-108.0,-0.597453868805993,0.2199402746516396,0.32554550022828943,0.6990674341692833
-2013.0906405448914,4180.0,-660.0,15680.0,172.0,721.0,-290.0,-0.6021688130000715,0.15826196037011586,0.3030557661801637,0.7214589906119728
-2013.1062269210815,4188.0,-740.0,15820.0,142.0,661.0,-438.0,-0.5926438399322919,0.09730159385243688,0.2823539380098436,0.7480520921128535
-2013.1218223571777,4344.0,-520.0,15840.0,220.0,543.0,-400.0,-0.5807409283853487,0.04055748988105245,0.2712338227455184,0.7665032795177881
-2013.1373972892761,4420.0,-988.0,15884.0,299.0,538.0,-318.0,-0.5722945528673817,-0.017975199022905102,0.2643482656525248,0.7760643217059477
-2013.1530058383942,4104.0,-1016.0,15964.0,367.0,493.0,-147.0,-0.572343614514985,-0.07282187984789809,0.2637138141750485,0.7730296145378833
-2013.1685767173767,4108.0,-836.0,16164.0,306.0,407.0,-230.0,-0.5636564286533582,-0.12052676996690036,0.26205074734620104,0.7740117143650899
-2013.1841368675232,4072.0,-724.0,16176.0,150.0,330.0,-369.0,-0.5442204424871788,-0.1582684751998474,0.2516344670145478,0.7845095886904626
-2013.1997728347778,4340.0,-684.0,16156.0,143.0,324.0,-318.0,-0.5272089428815548,-0.19383668750457064,0.2412871696994367,0.7913650048248307
-2013.215342760086,3768.0,-788.0,16028.0,1.0,369.0,-197.0,-0.5210803503800622,-0.22314485868047793,0.22075797003023825,0.7936923580080569
-2013.2309319972992,3472.0,-840.0,16040.0,272.0,200.0,-103.0,-0.5123286352967453,-0.25100647203129733,0.22826837195665178,0.7889288122623205
-2013.2465267181396,3408.0,-728.0,16112.0,159.0,130.0,7.0,-0.5119051692608191,-0.2666624460568444,0.23340550468838359,0.7825382469427253
-2013.2621657848358,3484.0,-620.0,16164.0,235.0,64.0,-25.0,-0.5059887232827777,-0.28175892984852285,0.24585169617171204,0.777267174690127
-2013.2777922153473,3556.0,-628.0,16380.0,12.0,17.0,-19.0,-0.5048392093974119,-0.28363564321421614,0.2453404840488296,0.7774935636004584
-2013.293374300003,3524.0,-668.0,16156.0,136.0,14.0,-127.0,-0.4931606438174762,-0.29304689616171326,0.2506705399691798,0.7797950861803877
-2013.3089582920074,3500.0,-548.0,16280.0,183.0,-65.0,-326.0,-0.46468648889336484,-0.30325842059579183,0.2573414402131402,0.7911233661867973
-2013.3245487213135,3488.0,-412.0,16492.0,96.0,-30.0,-489.0,-0.4273690807352644,-0.3155618665797539,0.25190231936917346,0.8089014765029348
-2013.3401260375977,3672.0,-324.0,16292.0,34.0,98.0,-558.0,-0.38878046679710865,-0.3354033492862309,0.23489550114384097,0.825335353336439
-2013.3557395935059,3708.0,-604.0,16336.0,40.0,316.0,-566.0,-0.3528098412429704,-0.37033342016195514,0.21006051169999304,0.8332184318998205
-2013.3713228702545,3824.0,-888.0,16472.0,173.0,420.0,-408.0,-0.3248415389866669,-0.41290476400296405,0.19617050288293944,0.8279521509188107
-2013.386897802353,3880.0,-868.0,16528.0,196.0,399.0,-348.0,-0.2991502967401577,-0.45252081849063025,0.186196376121963,0.8191855213026498
-2013.402459859848,3848.0,-712.0,16420.0,80.0,346.0,-492.0,-0.2661101854132027,-0.4864889029570087,0.16317271491265534,0.8160199639880574
-2013.4180209636688,3796.0,-544.0,16200.0,16.0,299.0,-133.0,-0.2601544833780335,-0.5096750812022008,0.15162154845202178,0.8059540076361987
-2013.4335808753967,3668.0,-1016.0,16112.0,152.0,276.0,-37.0,-0.25438550058818843,-0.5326692617980862,0.15430779319564986,0.7923008138233024
-2013.449164390564,3352.0,-1136.0,15820.0,257.0,243.0,-60.0,-0.24148011558938087,-0.5555676681853375,0.16378201302914192,0.7785932006190189
-2013.4647669792175,3372.0,-944.0,15640.0,222.0,136.0,-75.0,-0.22753596831387973,-0.5702617371372454,0.17228667758065194,0.7702897084921342
-2013.480355501175,3376.0,-680.0,16120.0,147.0,47.0,-65.0,-0.2165693565367158,-0.5771211642909841,0.17795302081838835,0.767047324432008
-2013.495975971222,3504.0,-564.0,16212.0,147.0,-48.0,-54.0,-0.20481859322989499,-0.5773322112444256,0.18593478543335792,0.7682220494705941
-2013.511545419693,3556.0,-648.0,16208.0,225.0,-81.0,239.0,-0.20813636093604249,-0.571663012363726,0.21439186409617877,0.76414447859086
-2013.5271315574646,3548.0,-512.0,15792.0,410.0,-251.0,-188.0,-0.17030409699527232,-0.5651846390338232,0.23664495905886535,0.7717266366394644
-2013.5427231788635,2896.0,-516.0,16020.0,618.0,186.0,-441.0,-0.11371581291740446,-0.594505711597539,0.2531254081212647,0.7546914604882454
-2013.558331489563,2944.0,-528.0,16456.0,326.0,-46.0,-498.0,-0.06291078720620603,-0.6047812543011597,0.24883722402806083,0.7538978068923005
-2013.5739641189575,3196.0,-760.0,16300.0,-73.0,-184.0,-462.0,-0.032345993205380834,-0.6016164310512687,0.22040153450329422,0.7670948899590484
-2013.5895256996155,3364.0,52.0,16712.0,-99.0,-155.0,-545.0,0.0019159683943303749,-0.6005672806822981,0.18532187507249176,0.7777988641407221
-2013.6051495075226,3716.0,-668.0,16688.0,-51.0,-5.0,-745.0,0.049797082610202395,-0.6108703793747577,0.14246580359473987,0.7772136932479748
-2013.6207242012024,3808.0,-1264.0,16384.0,185.0,24.0,-567.0,0.09770889991378263,-0.6177865584130867,0.12468453833316766,0.7702249703965699
-2013.6363027095795,3732.0,-1180.0,16348.0,296.0,407.0,-479.0,0.14120640811311366,-0.6465343029591332,0.12197119674507446,0.7397142506194637
-2013.6518969535828,3472.0,-952.0,16388.0,493.0,597.0,-324.0,0.18312970235105716,-0.6805260082623483,0.14246936379431188,0.6950182332682872
-2013.6675024032593,3072.0,-856.0,16432.0,148.0,443.0,-262.0,0.2021187498034291,-0.7074286535757551,0.14278421208025577,0.6620463577866081
-2013.683091878891,3392.0,-604.0,15884.0,128.0,334.0,-129.0,0.21323133207372902,-0.7255966419888066,0.14800436232580066,0.6372884911005091
-2013.6986787319183,3468.0,-636.0,15648.0,85.0,185.0,37.0,0.21416691174704292,-0.7336302761816842,0.15847249155447843,0.6251444802626315
-2013.7142589092255,3432.0,-688.0,15744.0,39.0,118.0,137.0,0.2075641877988152,-0.737274319103415,0.17153614725809457,0.6196120048206484
-2013.7298395633698,3460.0,-784.0,16004.0,245.0,253.0,305.0,0.20291388139319771,-0.7412682573412811,0.20880657915378523,0.604770319954825
-2013.7454235553741,3628.0,-692.0,16280.0,47.0,-134.0,374.0,0.1885700296495981,-0.7260336092921778,0.2329495857689763,0.6189111669587045
-2013.7610139846802,3688.0,-676.0,16408.0,94.0,-54.0,516.0,0.16759895794671026,-0.7102544003600769,0.26953147781380027,0.6283327609888198
-2013.7766494750977,3684.0,-672.0,16212.0,173.0,236.0,513.0,0.14446726176014832,-0.7075905697600219,0.3138356597351314,0.6164024452781051
-2013.7922472953796,3648.0,-648.0,16012.0,176.0,-74.0,411.0,0.13516399950523336,-0.6895264322459761,0.34745950240995566,0.6209314669566285
-2013.8078923225403,3696.0,-644.0,16008.0,174.0,-168.0,393.0,0.12934233410156368,-0.6658432233616782,0.37822637386722663,0.6299747396711545
-2013.8234858512878,3864.0,-664.0,16096.0,111.0,-217.0,440.0,0.1186614802101437,-0.6374499006728751,0.4070287982970826,0.6433542061751926
-2013.8390893936157,4008.0,-812.0,16284.0,171.0,-183.0,481.0,0.10755673826015122,-0.6075643107034183,0.44097024387036815,0.6517993559641075
-2013.8546833992004,3612.0,-852.0,16184.0,249.0,-118.0,544.0,0.0942289074498385,-0.5766894240308108,0.4821563853957922,0.6527445451582768
-2013.8702759742737,3720.0,-824.0,16196.0,261.0,-94.0,753.0,0.06825654152824182,-0.5361158072124461,0.5328110760730154,0.6511783496166518
-2013.8858544826508,3536.0,-728.0,16104.0,264.0,-99.0,464.0,0.05877463182770832,-0.5067050998419754,0.5682565465730376,0.64566243635861
-2013.901444196701,3588.0,-600.0,16016.0,246.0,-97.0,348.0,0.05480999622223986,-0.48230500438121343,0.5965332394376633,0.6391602626172587
-2013.9170370101929,3556.0,-632.0,16372.0,214.0,-106.0,262.0,0.05469086152184168,-0.46144873833592703,0.6186499046697177,0.6335189555225076
-2013.9327392578125,3652.0,-780.0,16292.0,188.0,-102.0,181.0,0.05774032608016332,-0.44495159696323294,0.6356094944226002,0.6282393665664956
-2013.9483199119568,3780.0,-876.0,16208.0,206.0,-135.0,194.0,0.0625643052681415,-0.42553768462558383,0.6534659602649224,0.6228849215102694
-2013.9639792442322,3884.0,-1060.0,16208.0,1.0,-182.0,204.0,0.061868668757735744,-0.4038376769507712,0.6598642065710912,0.6306081409143514
-2013.9803330898285,3784.0,-1044.0,15872.0,284.0,-119.0,214.0,0.06691364981906019,-0.38317512793504477,0.6819804388851961,0.6193561703719512
-2013.9963040351868,3712.0,-928.0,16096.0,292.0,-115.0,191.0,0.07315798557811697,-0.36365164184318216,0.7030703351497096,0.6067103892001399
-2014.0119705200195,3792.0,-724.0,16024.0,232.0,-143.0,215.0,0.07787129952095218,-0.3412042631073027,0.7208867324214018,0.5981956457273111
-2014.0275795459747,3688.0,-748.0,15912.0,160.0,-272.0,182.0,0.09019960649576406,-0.31426357222293555,0.7323911187456926,0.5972484301730074
-2014.0432300567627,3824.0,-748.0,16364.0,97.0,-254.0,147.0,0.10139547461644557,-0.2907170181804941,0.7391580390667266,0.5990392026825785
-2014.0588691234589,3820.0,-864.0,16200.0,76.0,-245.0,146.0,0.11145911426855179,-0.2676883902381341,0.7443660229645775,0.6015305606817365
-2014.074473142624,3884.0,-976.0,16348.0,122.0,-146.0,62.0,0.12052250558775089,-0.2547338063975958,0.7506289900121239,0.5976128620423273
-2014.0900745391846,3848.0,-816.0,16044.0,157.0,-90.0,-68.0,0.1334398801313003,-0.25277398867838297,0.7561961712646671,0.5886140158056238
-2014.1056447029114,3908.0,-572.0,16164.0,120.0,-74.0,-180.0,0.15019342693187374,-0.25937203435150313,0.7573220654441221,0.5801994239003271
-2014.1212327480316,3996.0,-512.0,16376.0,63.0,-65.0,-251.0,0.16858835438912206,-0.27174174674172596,0.7537189711464503,0.574144670249633
-2014.1368026733398,3940.0,-512.0,16164.0,42.0,44.0,-369.0,0.1850930542844678,-0.29741690682112376,0.7472672137001377,0.5646905844101127
-2014.152377128601,4036.0,-520.0,16160.0,245.0,54.0,-510.0,0.21282078835773477,-0.32895199298868116,0.7460087756345217,0.5384875161299922
-2014.1680467128754,3840.0,-480.0,16128.0,-69.0,101.0,-620.0,0.23306890839451036,-0.3747567363121229,0.7256879332575142,0.5278383237819274
-2014.1836233139038,3900.0,-548.0,16048.0,-120.0,55.0,-709.0,0.25783848763729694,-0.4237754681109794,0.6966596064296541,0.5182654336240373
-2014.19926571846,3920.0,-540.0,16016.0,-88.0,18.0,-690.0,0.2842075647282918,-0.46763672204527157,0.6662871370153974,0.5065603689529927
-2014.2148687839508,3928.0,-848.0,16176.0,-71.0,-64.0,-715.0,0.316055591284152,-0.5071156733281043,0.6310792674751141,0.4946529240245951
-2014.2304544448853,3956.0,-892.0,16148.0,30.0,-253.0,-730.0,0.3620580374513217,-0.5343258163731671,0.5916890005783038,0.48302590620865665
-2014.2460370063782,3976.0,-752.0,16216.0,-17.0,108.0,-667.0,0.3831925525521578,-0.5728319196907575,0.5622524845998672,0.4570549234099108
-2014.2616345882416,3928.0,-712.0,16164.0,-36.0,94.0,-634.0,0.4014967570392786,-0.6079101484045466,0.5313820040761313,0.432294773618348
-2014.2772343158722,4056.0,-716.0,16016.0,-136.0,3.0,-548.0,0.4143731270452163,-0.6373954989587141,0.4966315671445049,0.4187827312647147
-2014.2928636074066,3960.0,-800.0,15948.0,-84.0,-67.0,-402.0,0.42707763147327443,-0.6549385277383036,0.4684214721279074,0.41138977385040276
-2014.3084738254547,3924.0,-1116.0,15880.0,49.0,-67.0,-277.0,0.44248869369316984,-0.6617780084768804,0.4516624913429942,0.40280841272734824
-2014.3240740299225,3844.0,-1028.0,16336.0,170.0,15.0,-148.0,0.4568995459233776,-0.6614000659556157,0.44954187397949835,0.38949308238776137
-2014.3396425247192,3864.0,-1024.0,16236.0,174.0,112.0,-139.0,0.4672347552487857,-0.6635205358034656,0.4517518941029493,0.3706108582180057
-2014.355322599411,4112.0,-660.0,16268.0,157.0,186.0,-87.0,0.47175691549043125,-0.6663519241425168,0.45922250775267487,0.3500503024593238
-2014.3709077835083,4020.0,-640.0,16264.0,120.0,309.0,-146.0,0.4706463847814665,-0.6763258027400242,0.46685092909628045,0.3211317471726167
-2014.386456489563,3892.0,-612.0,16240.0,74.0,332.0,-176.0,0.4662286006309992,-0.6893419544159584,0.471875661764001,0.29115618088997
-2014.402025938034,3736.0,-524.0,15932.0,83.0,360.0,-179.0,0.4607171440455082,-0.7020018982273264,0.477526491870845,0.2586532381960547
-2014.4175968170166,3640.0,-832.0,16028.0,152.0,270.0,-130.0,0.46158288051626667,-0.7070683778773029,0.48361153855192246,0.23046785719424692
-2014.4331946372986,3680.0,-936.0,15884.0,126.0,145.0,-24.0,0.46372453005453124,-0.7057912245274823,0.49040683704614413,0.2152195199885409
-2014.4487829208374,3696.0,-1048.0,16120.0,187.0,129.0,34.0,0.4690601159228387,-0.6990198351904737,0.5011050651780464,0.2006180234017919
-2014.4643959999084,3792.0,-912.0,16176.0,214.0,148.0,217.0,0.471707607076898,-0.6830299938853494,0.5238942191256889,0.19104137783593178
-2014.480050086975,3732.0,-696.0,16440.0,236.0,189.0,233.0,0.4730564417550893,-0.6654115315196834,0.5491693766504575,0.1784883536368441
-2014.4956386089325,3756.0,-596.0,16208.0,149.0,172.0,3.0,0.47339402133030256,-0.6616383622017502,0.5586267893517486,0.16145862767367905
-2014.511209487915,3892.0,-620.0,16220.0,100.0,157.0,232.0,0.4681540612283644,-0.6481627320228763,0.5796980075353229,0.157057530324422
-2014.5267910957336,3932.0,-852.0,16040.0,89.0,119.0,262.0,0.4634829100438649,-0.6326580222422507,0.6003674628066826,0.15648108062274255
-2014.5424003601074,3980.0,-920.0,16056.0,290.0,204.0,347.0,0.46369905927116645,-0.6049379552086969,0.6311244089070555,0.14392787520378336
-2014.557997226715,3856.0,-700.0,16104.0,456.0,376.0,311.0,0.46243688594596594,-0.573077503928709,0.6673335654106118,0.11135624582302824
-2014.573566198349,3716.0,-468.0,16228.0,477.0,380.0,12.0,0.46345360775496897,-0.5560116579865453,0.6869080257537905,0.06495501364010428
-2014.5891716480255,3616.0,-360.0,16228.0,358.0,367.0,198.0,0.45723835254314554,-0.5311096721269627,0.7125473123509051,0.0336442089864236
-2014.6047427654266,3608.0,-40.0,16116.0,279.0,219.0,128.0,0.45598970732928,-0.5123631796481142,0.7276202093093692,0.011233430251777204
-2014.6203022003174,3728.0,-332.0,15968.0,280.0,123.0,54.0,0.4605387278919716,-0.49771270255497,0.734906744625076,-0.009910728108752698
-2014.6359167099,3704.0,-488.0,16032.0,334.0,38.0,68.0,0.4725204168309138,-0.47966215630814485,0.7387375811494638,-0.030256531215587957
-2014.6515078544617,3716.0,-600.0,16048.0,376.0,39.0,84.0,0.4857560981637656,-0.458358071583285,0.7424121249756436,-0.05266049753197763
-2014.6670935153961,3772.0,-604.0,16060.0,262.0,62.0,178.0,0.49290803927375454,-0.43524192188094873,0.7506243331143257,-0.06456968943207572
-2014.6826756000519,3740.0,-532.0,16160.0,517.0,-59.0,323.0,0.517562685724984,-0.39159179578838077,0.7563239318249747,-0.08221217650192643
-2014.698252916336,4092.0,-416.0,16124.0,485.0,-125.0,443.0,0.5447126486461467,-0.3407358205085524,0.7609993030142865,-0.08981810418302852
-2014.7138361930847,3796.0,-364.0,16368.0,396.0,-70.0,458.0,0.5640059703988981,-0.29160399300081297,0.767053498869859,-0.09215913677919618
-2014.7294130325317,3940.0,-488.0,16376.0,305.0,32.0,265.0,0.57147536963925,-0.2584132907540105,0.7723833530834918,-0.10031165902759036
-2014.7450108528137,4068.0,-560.0,16220.0,408.0,137.0,564.0,0.5753528847808242,-0.19844375519039698,0.7868044648192023,-0.10260540015460132
-2014.7607221603394,4024.0,-556.0,16048.0,445.0,198.0,673.0,0.5740579977914597,-0.12775553299596817,0.8022584019443915,-0.10255435373599585
-2014.776288986206,3928.0,-344.0,16352.0,406.0,193.0,651.0,0.5696164959410531,-0.059945952614098415,0.8135621165059381,-0.10030061267710565
-2014.791906118393,3596.0,-124.0,16152.0,274.0,127.0,577.0,0.5662445381868259,-0.004224581382806895,0.8191201737361545,-0.09160467708681966
-2014.807476758957,4044.0,232.0,15736.0,341.0,-248.0,812.0,0.5887935361322447,0.06848972658249039,0.8018267416317084,-0.07553281118706195
-2014.823070049286,3904.0,-44.0,15948.0,320.0,-128.0,909.0,0.5997543555466118,0.14718333100291128,0.7848238680698094,-0.05180034928162431
-2014.8386375904083,3764.0,-292.0,15944.0,40.0,-101.0,778.0,0.6083285869034529,0.20163738630862185,0.7674968202909457,-0.015077322108506232
-2014.8542115688324,3804.0,-568.0,15620.0,-11.0,-141.0,646.0,0.617870148455984,0.24372781030626886,0.7473477201168386,0.01745334828779421
-2014.8698024749756,3780.0,-712.0,15752.0,-488.0,-177.0,521.0,0.6377731429525204,0.2511307253801842,0.7244167345561033,0.07347905547541111
-2014.8853874206543,3668.0,-856.0,15756.0,-518.0,-208.0,367.0,0.658890629080384,0.2463945035877366,0.7002068341980009,0.12191503949153336
-2014.900969028473,3764.0,-860.0,15648.0,-374.0,-398.0,339.0,0.6866568025676161,0.2494247329158336,0.664915425200306,0.15549024222818464
-2014.9165904521942,3844.0,-804.0,15716.0,-103.0,-431.0,340.0,0.7085451258733626,0.2684903069479375,0.6294391973605228,0.17228771431023163
-2014.9322981834412,3920.0,-764.0,16356.0,-109.0,-426.0,510.0,0.7256716257155725,0.2956348087317641,0.5883800357794374,0.19952364519935747
-2014.9479463100433,3956.0,-600.0,16524.0,-408.0,-9.0,168.0,0.7332830533686185,0.27832980149671094,0.5758300897046214,0.23075569989052147
-2014.963564157486,3780.0,-476.0,17092.0,-691.0,-103.0,116.0,0.7515651223843511,0.24150271533774906,0.5513257791420069,0.2699373826526229
-2014.9791548252106,3696.0,-324.0,17444.0,-927.0,66.0,36.0,0.7646539521270289,0.1802309925256183,0.5311675294029439,0.3173045517128912
-2014.9947774410248,3500.0,-296.0,17284.0,-1153.0,129.0,-129.0,0.7764493783356533,0.09320235547147489,0.5070878199657396,0.3623556632083182
-2015.010347366333,3460.0,-404.0,16692.0,-1381.0,-117.0,-342.0,0.7975914415006213,-0.011755686581031167,0.45456339761377673,0.39633548141415376
-2015.0259907245636,3684.0,-848.0,15636.0,-1359.0,-44.0,-382.0,0.8051426885135601,-0.11908533057798054,0.40085563803328,0.420569486091444
-2015.041575908661,3720.0,-1632.0,14748.0,-869.0,79.0,-337.0,0.8031322563463628,-0.1941542663586618,0.36956383178272995,0.4250944294022164
-2015.0571734905243,3600.0,-2400.0,14532.0,-497.0,78.0,-399.0,0.8058276012431742,-0.2443114506490869,0.3490747650549944,0.41121843411769776
-2015.0727577209473,3616.0,-3072.0,13908.0,281.0,-195.0,-288.0,0.8275636771522344,-0.22607784578415688,0.3388416173175176,0.3862816670222858
-2015.0883491039276,4744.0,-2688.0,14304.0,747.0,-712.0,219.0,0.8524571159087315,-0.14096225799932588,0.3153728001210313,0.39241114191638216
-2015.103980064392,5508.0,-2748.0,15816.0,917.0,-1200.0,1136.0,0.8464940715087212,-0.0002983197496936084,0.26761150070287665,0.4602518686517949
-2015.119565486908,6024.0,-2764.0,17276.0,564.0,-1296.0,1804.0,0.7887348741016723,0.13294244984814352,0.19051039790908816,0.5691479523750516
-2015.1351525783539,6144.0,-2544.0,17164.0,-45.0,-1449.0,2629.0,0.6604714857735118,0.23745125403616094,0.05584932647522056,0.7101233492633859
-2015.150783777237,5592.0,-2068.0,16856.0,-439.0,-1383.0,2758.0,0.4876469542622043,0.3002112111682591,-0.10467176629225998,0.8130913220720912
-2015.166431427002,4700.0,-2212.0,15068.0,-439.0,-1436.0,2468.0,0.30145372484936195,0.34967706388349334,-0.25371717804804933,0.8499877624599069
-2015.1820228099823,4360.0,-2032.0,14396.0,-252.0,-1456.0,2270.0,0.1056043117670832,0.3898706133951647,-0.369712622778992,0.8367563628111574
-2015.1976335048676,4540.0,-2076.0,14320.0,26.0,-1300.0,2217.0,-0.09673332079006795,0.40337675433068626,-0.44407796206460604,0.7941817312952456
-2015.213223695755,4860.0,-2196.0,14468.0,326.0,-1424.0,2351.0,-0.31725676271553493,0.3967198809193484,-0.4783411272318433,0.7163457605047764
-2015.2288014888763,4600.0,-2348.0,14656.0,527.0,-1656.0,2581.0,-0.5462720972989957,0.364639020717563,-0.4716864072277623,0.588334185237658
-2015.2443766593933,4880.0,-2644.0,14628.0,665.0,-1955.0,2909.0,-0.7613113086436013,0.2993331350093069,-0.41700320984036915,0.3961225676475607
-2015.260012626648,4868.0,-2820.0,14724.0,680.0,-2060.0,3258.0,-0.914851638852958,0.1956392738826417,-0.32319302718615983,0.14254129430089957
-2015.2755937576294,5700.0,-2708.0,14908.0,764.0,-2086.0,3448.0,-0.9694447932203952,0.05958758418035249,-0.1937116332451025,-0.13820968075691945
-2015.291205406189,6344.0,-1908.0,15428.0,825.0,-1845.0,3460.0,-0.9092214744086773,-0.0858819035703539,-0.06159283256644526,-0.4026747224369629
-2015.3067989349365,6804.0,-1380.0,16240.0,1019.0,-1449.0,3291.0,-0.754584250633746,-0.22369732120185612,0.04046173327296639,-0.6155688144498299
-2015.3224244117737,6836.0,-1564.0,16084.0,705.0,-1387.0,3128.0,-0.5431711467360917,-0.31888864224064956,0.14847948685535342,-0.7623837492932842
-2015.3380098342896,6760.0,-2448.0,15564.0,473.0,-1564.0,3385.0,-0.2703233154788418,-0.38126335036386844,0.27118525761074497,-0.8414405022533908
-2015.3535945415497,6776.0,-2932.0,15276.0,480.0,-1633.0,3933.0,0.06850910610720394,-0.3926817898279284,0.3795640191153154,-0.834888417521141
-2015.369217157364,6640.0,-3308.0,15056.0,841.0,-1402.0,4329.0,0.4258276953094048,-0.3211033550166785,0.4247824399951471,-0.7315212149871545
-2015.3848588466644,6252.0,-3252.0,14804.0,1024.0,-1173.0,4598.0,0.7288968885702833,-0.17256979563962432,0.40926521663646426,-0.5209903779504628
-2015.4004356861115,5820.0,-2892.0,14352.0,1571.0,-1328.0,4807.0,0.926696876795871,0.03519625991466658,0.2961400050292723,-0.2286814798930173
-2015.4159874916077,5764.0,-2396.0,14268.0,1495.0,-1674.0,5066.0,0.9601539628545072,0.22826006263082288,0.10360756527352197,0.12356044610089238
-2015.4315688610077,5832.0,-2204.0,13780.0,1339.0,-1972.0,5323.0,0.7966644728067993,0.3650970310413193,-0.13677187520341383,0.4618693861316423
-2015.4471476078033,6080.0,-2488.0,13832.0,1262.0,-2177.0,5574.0,0.44620085631940437,0.41800093455609666,-0.36607537987647915,0.701547454402303
-2015.462724685669,6228.0,-2848.0,14032.0,1341.0,-2250.0,5740.0,-0.022843202277886315,0.3717942473518883,-0.5088705649917331,0.77607858740641
-2015.4782786369324,6628.0,-3084.0,14488.0,1598.0,-2065.0,5711.0,-0.4851832737555532,0.22341094969732722,-0.5101021888433479,0.6741516857209567
-2015.4938435554504,6608.0,-2564.0,14160.0,1815.0,-1757.0,5502.0,-0.8157013354537052,0.004393331654345089,-0.38549211161678965,0.43128628758313853
-2015.509420633316,6648.0,-2068.0,14132.0,2138.0,-1486.0,5434.0,-0.9480151761403854,-0.2430805937234688,-0.17795811901346034,0.10251808932940085
-2015.5250101089478,6544.0,-2228.0,14176.0,2229.0,-1515.0,5507.0,-0.8584154995254695,-0.44025223697578464,0.0744034484000056,-0.25251717739283386
-2015.5406475067139,6312.0,-2052.0,14624.0,2359.0,-1332.0,5426.0,-0.5652781827692374,-0.5399358294905738,0.29236285625516867,-0.5508664415262144
-2015.5562388896942,5896.0,-2468.0,15052.0,2438.0,-1162.0,5318.0,-0.14640733153638494,-0.514666756346588,0.42848624811724745,-0.7280676880335246
-2015.571861743927,5640.0,-2384.0,15128.0,2516.0,-797.0,5049.0,0.2840951893283764,-0.36578911254630136,0.4526268299822007,-0.7619824153635878
-2015.58744764328,5040.0,-1912.0,14480.0,2487.0,-279.0,4873.0,0.6302880375485065,-0.11735659201097443,0.39309398118062033,-0.6591217960243708
-2015.6030564308167,5248.0,-1636.0,14668.0,2648.0,187.0,4839.0,0.8373219419701846,0.18475694652049013,0.2706132282780012,-0.43763605528870897
-2015.6186411380768,5560.0,-1316.0,15428.0,2814.0,1055.0,4100.0,0.8443570679775002,0.48209835010474356,0.1589686472087857,-0.17138054670041025
-2015.6342248916626,4848.0,-2180.0,16532.0,2952.0,1747.0,4091.0,0.6863541221460451,0.7092181575417399,0.06465172078976432,0.147471282035364
-2015.6497950553894,4472.0,-2224.0,18520.0,2984.0,2060.0,3806.0,0.4009007056176838,0.8024322705630378,-0.008337715608009668,0.44194067236760537
-2015.6653623580933,1664.0,-464.0,21856.0,2909.0,3763.0,3407.0,0.060998927634474,0.6737262905501178,-0.002740546096406644,0.7364540078349199
-2015.6809327602386,-2284.0,5464.0,27516.0,2215.0,4319.0,3360.0,-0.25262640445000206,0.3617313732454373,-0.031048196991580394,0.8968647182536541
-2015.6965036392212,1540.0,12916.0,28288.0,-2155.0,4465.0,-1594.0,-0.04340542024227443,0.05811458716342462,-0.22551064982045874,0.9715367265677456
-2015.7120969295502,4300.0,6192.0,15276.0,-3698.0,3958.0,-7245.0,0.5240108301890791,-0.09484596828462466,-0.4058244265017842,0.7427808741474178
-2015.727721452713,6388.0,-2868.0,12644.0,107.0,2067.0,-5273.0,0.8426648922867215,-0.03315871319898978,-0.31180018613115607,0.4377179719579399
-2015.743293762207,7408.0,-10112.0,17028.0,2039.0,3013.0,-2091.0,0.948794335025618,0.054735817850421406,-0.017191309191598343,0.3106408842310035
-2015.7744648456573,6608.0,-10624.0,20304.0,-629.0,6022.0,3725.0,0.7306917775839014,-0.1414316675944416,0.3793155766203729,0.5497329378033372
-2015.7900519371033,3340.0,-3412.0,16464.0,1295.0,4695.0,3900.0,0.3549842062922906,-0.1360923308881679,0.6928123071053136,0.612761126279948
-2015.8056116104126,1688.0,2712.0,16516.0,3729.0,2929.0,3629.0,0.024893282118359682,0.03751211148347208,0.909905251305205,0.41236585654566366
-2015.821186542511,656.0,8392.0,17856.0,3132.0,2801.0,782.0,-0.22110980630120297,0.005250739262785461,0.9614223692213276,0.16355400103784712
-2015.8367578983307,3652.0,8688.0,17988.0,278.0,3639.0,-2867.0,-0.450208885950878,-0.2712730096286969,0.8308358226171504,0.18285171345639942
-2015.852353811264,5632.0,2148.0,17368.0,-1388.0,3671.0,-4458.0,-0.6021233034050181,-0.531425097064354,0.49606760358477175,0.3300785154784119
-2015.868002653122,6008.0,-3564.0,17120.0,-1162.0,3433.0,-3219.0,-0.6557412240263,-0.6525487822289556,0.12228415652172875,0.35948590930350266
-2015.8835785388947,4992.0,-5960.0,17664.0,235.0,3358.0,-1239.0,-0.6102040281751997,-0.7486674584309675,-0.1270569274372246,0.22584201972947213
-2015.8992733955383,2868.0,-4064.0,17764.0,2208.0,3125.0,657.0,-0.420781051506186,-0.8856536531487884,-0.19608609948719957,0.010543004574129282
-2015.9148917198181,1124.0,664.0,18860.0,3001.0,2646.0,297.0,-0.13573533767486265,-0.9469978770676094,-0.25251266811881307,-0.1449423726011479
-2015.9305737018585,1404.0,3696.0,18292.0,2186.0,2342.0,-1513.0,0.07396567139985191,-0.8692819369274948,-0.41366507923698537,-0.2603059657514802
-2015.946185350418,1192.0,3732.0,16628.0,1050.0,2186.0,-2818.0,0.16031162784372713,-0.6763200453154977,-0.606120700688688,-0.38666403308193936
-2015.9618191719055,948.0,1812.0,15508.0,228.0,1742.0,-3578.0,0.1371277844305345,-0.4013780252732647,-0.7561805275821375,-0.4982797018447644
-2015.9774112701416,812.0,24.0,14980.0,214.0,1499.0,-2307.0,0.13926872028975415,-0.17626444645832598,-0.8052908971886211,-0.5486726158363835
-2015.9929926395416,612.0,-1148.0,15000.0,1267.0,1263.0,-952.0,0.1988923573572258,-0.03292701820540799,-0.8519860913207528,-0.4831949315265757
-2016.0085887908936,480.0,-1560.0,15168.0,2362.0,947.0,868.0,0.30449011535002507,-0.016094185615456745,-0.9079681153413691,-0.2874380774479018
-2016.0241572856903,308.0,-904.0,15488.0,2896.0,747.0,2024.0,0.3992378667897516,-0.07706140227332066,-0.9135897060877695,-0.0049512555277470205
-2016.039769411087,-224.0,232.0,15316.0,2513.0,591.0,2767.0,0.4410887661086578,-0.1993000856942415,-0.8312516002761322,0.2733879172410129
-2016.0553345680237,120.0,1640.0,14788.0,1813.0,359.0,3313.0,0.3984037284708365,-0.3592556635177613,-0.680145968274241,0.4996111480053704
-2016.0709137916565,196.0,2600.0,14480.0,1579.0,108.0,3033.0,0.30864183461995887,-0.46863203344928916,-0.49091446398930877,0.6664287090107237
-2016.086505651474,604.0,3552.0,15008.0,1904.0,21.0,2552.0,0.23027316760677982,-0.5085569895991581,-0.2650550036649124,0.7861869381021126
-2016.1020884513855,980.0,2736.0,15736.0,2337.0,-209.0,1576.0,0.2146059795255068,-0.4694819777451167,-0.03770149155527992,0.8556340009951326
-2016.117663383484,1236.0,2448.0,16244.0,2601.0,-208.0,1000.0,0.2388284776554377,-0.3966837236694139,0.18816155258408576,0.8661398338407608
-2016.1333351135254,1028.0,1608.0,16044.0,2692.0,-105.0,510.0,0.2871129101464497,-0.31514929185767115,0.39590876712039325,0.8133285613981937
-2016.1489071846008,1252.0,1152.0,15216.0,2331.0,-78.0,355.0,0.3220014966290663,-0.23389018667381883,0.5573922320786658,0.7286455354729695
-2016.1645300388336,1148.0,1088.0,15276.0,2132.0,-228.0,1246.0,0.2906780386503553,-0.09653457584378573,0.6957952385940246,0.6496586330242425
-2016.1801166534424,1216.0,1108.0,15664.0,2044.0,-4.0,1922.0,0.1934672472713403,0.0702446629621339,0.803955598314758,0.5579350387786607
-2016.195722103119,1364.0,1420.0,16028.0,1728.0,-287.0,2082.0,0.09888321939244864,0.2525011488224158,0.8468850778489722,0.457439551943954
-2016.2112843990326,1504.0,2144.0,15652.0,1299.0,-708.0,1973.0,0.04283570018342402,0.4280356010224884,0.8301045570461706,0.35479156052292743
-2016.226850271225,1584.0,2788.0,15152.0,967.0,-1432.0,1285.0,0.06946303287689183,0.5593156820049782,0.7927822108299275,0.23202849204022816
-2016.2424519062042,1804.0,3420.0,14656.0,801.0,-1880.0,383.0,0.15026300298460427,0.6186478099170761,0.7663793136656247,0.08578266027735469
-2016.2580256462097,2208.0,3220.0,14528.0,794.0,-1988.0,-652.0,0.24074094651856265,0.5891937875942144,0.7669577617095412,-0.08167171531944842
-2016.2736208438873,2524.0,2888.0,14764.0,742.0,-2227.0,-1431.0,0.3320841100756322,0.4794853269062152,0.7666867809517017,-0.268338116992038
-2016.2892050743103,2876.0,2608.0,15300.0,700.0,-2372.0,-1911.0,0.40212053653694013,0.3051506156629885,0.7346313107291111,-0.45331998979988786
-2016.3047878742218,3272.0,2272.0,16148.0,467.0,-2168.0,-1907.0,0.43920595100180765,0.10990870685522845,0.6693056922664963,-0.5891078840600213
-2016.320384979248,2928.0,1564.0,16388.0,-171.0,-2369.0,-1625.0,0.4807967008427623,-0.11001564663264604,0.5845831073999406,-0.6442000314322761
-2016.3360035419464,2384.0,1604.0,16120.0,-1227.0,-3008.0,-1691.0,0.502420334846118,-0.3971322162998408,0.486687359144265,-0.5941340121210636
-2016.3515849113464,2516.0,1452.0,15312.0,-2418.0,-3540.0,-2070.0,0.4263516836658224,-0.7153569450176169,0.3555002845888735,-0.4243916006562935
-2016.3672361373901,3016.0,1376.0,14728.0,-2960.0,-3783.0,-3017.0,0.2215258385755369,-0.9492728425283574,0.12180875624730074,-0.18700267426703598
-2016.382822751999,2828.0,1512.0,14856.0,-2827.0,-3266.0,-3800.0,-0.03576143519322748,-0.9809079068430316,-0.18775546923282818,0.035898214703565426
-2016.3984160423279,2824.0,1336.0,15912.0,-2782.0,-2494.0,-4423.0,-0.26864259557853276,-0.796016123572867,-0.5064135945919713,0.19425436434040097
-2016.4140167236328,3496.0,1356.0,15944.0,-2668.0,-2223.0,-4783.0,-0.41877917807203513,-0.43038079503135684,-0.7392605715305485,0.3047789012740457
-2016.4295823574066,4028.0,1384.0,15616.0,-2706.0,-2163.0,-4567.0,-0.48163836506981283,0.01862915961704109,-0.8081848511473505,0.3384001862895103
-2016.4451348781586,4276.0,1200.0,15600.0,-3138.0,-1778.0,-3946.0,-0.4399189399563853,0.43630959927036694,-0.7427573680946685,0.2538045547133917
-2016.4607362747192,3228.0,516.0,16112.0,-3825.0,-1548.0,-3427.0,-0.288660121894737,0.7604588114952633,-0.5773426744156218,0.07108562685623909
-2016.4763271808624,2444.0,492.0,16208.0,-4400.0,-1672.0,-2972.0,-0.05615369448863487,0.9277556047994003,-0.32848304466083983,-0.16797377690854165
-2016.4919040203094,1536.0,-660.0,17320.0,-4814.0,-2164.0,-2778.0,0.20482684195607254,0.8863309252874922,-0.019777583264764875,-0.41481598678634013
-2016.5074768066406,2028.0,-2448.0,18044.0,-3709.0,-2588.0,-2367.0,0.3668588894674305,0.6671024438917588,0.2296271017943668,-0.6063499638772035
-2016.523071527481,2504.0,-4208.0,19424.0,-2055.0,-2058.0,-1670.0,0.42170882646716695,0.4402974987652313,0.3548234873810218,-0.708801855996114
-2016.5386521816254,2764.0,-3648.0,20232.0,-927.0,-439.0,-1353.0,0.3830694122696908,0.33332230925485157,0.4431019327516066,-0.7387927589846542
-2016.554233789444,2152.0,-348.0,20492.0,-742.0,1439.0,-1960.0,0.21736315590391617,0.31767636836214685,0.5818352466076918,-0.7164514842225493
-2016.5698192119598,1924.0,3116.0,18356.0,-933.0,1897.0,-2595.0,-0.014754547870928923,0.2752631095282656,0.7180369673771149,-0.6390895378034527
-2016.5854070186615,1612.0,5088.0,15620.0,-1134.0,1591.0,-3817.0,-0.28113043187049974,0.11820235637890521,0.8156505916914499,-0.49163807368446194
-2016.6009862422943,1176.0,4600.0,13580.0,-865.0,1082.0,-5018.0,-0.5140621781063128,-0.15608086969310528,0.7992889005609494,-0.2692881219001432
-2016.6165699958801,1184.0,2236.0,12928.0,-778.0,592.0,-5474.0,-0.6249885898521125,-0.44007754889353734,0.6444452481965683,0.020281409995061474
-2016.632141828537,1148.0,-712.0,13564.0,-1111.0,115.0,-5355.0,-0.599871035375681,-0.6144103562084353,0.3884153689920942,0.33434735864347354
-2016.6477835178375,1244.0,-2956.0,13776.0,-1381.0,-227.0,-4372.0,-0.5000657706007684,-0.6345684878410105,0.11646608288423427,0.5776614154071879
-2016.6633524894714,1940.0,-3328.0,14848.0,-1085.0,-474.0,-3234.0,-0.37571820964765534,-0.5708223337953781,-0.09262342979263924,0.7241675154499867
-2016.6789529323578,2840.0,-2628.0,16512.0,-835.0,-710.0,-2511.0,-0.2571201857740359,-0.46498567329800167,-0.24044271295589814,0.8123206481935179
-2016.694561958313,3768.0,-1236.0,18144.0,-922.0,-788.0,-2117.0,-0.15745881890007196,-0.3362798475929916,-0.3657872451581247,0.8534179959041516
-2016.710163116455,4372.0,284.0,18920.0,-1523.0,-701.0,-1877.0,-0.08275370780387085,-0.19832664095926217,-0.5123676389932205,0.8314431849760032
-2016.7257895469666,4572.0,236.0,18544.0,-1905.0,-533.0,-1312.0,-0.043416498934903396,-0.08530294581332401,-0.6554418428354332,0.749155795356544
-2016.7413640022278,3752.0,-1092.0,17524.0,-1376.0,-398.0,-602.0,-0.03671282363852511,-0.019397897362175436,-0.7415051723287466,0.6696610856008647
-2016.756940126419,3024.0,-2124.0,16428.0,-492.0,-562.0,167.0,-0.0834850709361019,0.004233081649804699,-0.7663835722230489,0.636921144394798
-2016.7725143432617,2488.0,-2464.0,16064.0,241.0,-622.0,806.0,-0.16928915583563375,-0.016777853394222532,-0.7455582914150249,0.6443621027452261
-2016.7880845069885,2408.0,-1692.0,15812.0,392.0,-613.0,1123.0,-0.26994880683370454,-0.06074605041287433,-0.7078988018748807,0.6498590965373986
-2016.8036687374115,2520.0,-724.0,15684.0,404.0,-583.0,915.0,-0.3539569895187665,-0.09323490234491888,-0.6629110895561892,0.6531237171462778
-2016.819275856018,2760.0,56.0,15740.0,217.0,-576.0,747.0,-0.4266243861156236,-0.10990335725176029,-0.624324214906528,0.6450830643549763
-2016.8348524570465,3056.0,112.0,15952.0,-46.0,-478.0,0.0,-0.4527619756100157,-0.08116377572286859,-0.6084545666393161,0.6466854531284011
-2016.850419998169,3416.0,176.0,15840.0,-288.0,-482.0,-511.0,-0.45061391065589346,-0.015360628556966629,-0.6078175830029977,0.6536581219614207
-2016.8660516738892,3736.0,0.0,15836.0,-431.0,-438.0,-508.0,-0.4444127704441533,0.05343716860212609,-0.6142406652009336,0.6498847310804083
-2016.8816330432892,3984.0,-456.0,15944.0,-528.0,-399.0,-503.0,-0.43370805948776364,0.12322024996721205,-0.6245917517091539,0.6376513411185353
-2016.8972189426422,4112.0,-800.0,16276.0,-423.0,-198.0,-241.0,-0.42612938018963364,0.1632310432522944,-0.6372490311772073,0.6210338558578565
-2016.9128139019012,3856.0,-1692.0,16504.0,-241.0,47.0,-12.0,-0.4193729101072957,0.17027675222105557,-0.6516176307434802,0.6087090053756727
-2016.928503036499,3628.0,-1828.0,17008.0,175.0,333.0,176.0,-0.41215314510267936,0.13607345554773753,-0.6565742364880598,0.6168663320828826
-2016.9441072940826,3460.0,-1712.0,17088.0,472.0,604.0,334.0,-0.4001012125796607,0.06724893815578754,-0.6549921908379028,0.6374808467323299
-2016.9597284793854,3308.0,-1204.0,17108.0,762.0,664.0,441.0,-0.3893865996718993,-0.02141641476946827,-0.6353070168470959,0.6665616306983335
-2016.97536110878,3192.0,-632.0,16856.0,354.0,736.0,511.0,-0.3763506081602147,-0.10421633517480854,-0.6363991064560199,0.6652032415150635
-2016.9909310340881,2928.0,-556.0,16332.0,296.0,653.0,526.0,-0.36686011512567607,-0.1804964795998436,-0.633855355299421,0.6565531702309295
-2017.0065577030182,2700.0,-768.0,15852.0,286.0,413.0,418.0,-0.36290629821583836,-0.23601977854097742,-0.6229835566813694,0.6515252650184612
-2017.0221798419952,2448.0,-340.0,15640.0,216.0,225.0,125.0,-0.3532173972299828,-0.2622903400314545,-0.6148842591896367,0.6544910966705902
-2017.0377955436707,2692.0,-160.0,15812.0,89.0,28.0,-57.0,-0.34644265227415627,-0.2635061751701557,-0.6118402429567781,0.6604494692488093
-2017.0533950328827,3144.0,-320.0,16052.0,21.0,-51.0,-185.0,-0.33800435199628875,-0.25122505977419207,-0.6131565481275442,0.6683397899731371
-2017.0689888000488,3484.0,-732.0,16144.0,119.0,-89.0,-268.0,-0.3244362591532466,-0.23505267413449657,-0.6091469123665018,0.6844204798829643
-2017.0845601558685,3556.0,-908.0,16472.0,208.0,-164.0,-453.0,-0.30153383799302585,-0.2067761033722576,-0.6006343046599831,0.7110270175492628
-2017.100121498108,3500.0,-864.0,16260.0,230.0,-204.0,-702.0,-0.2639378392356355,-0.1629325931594599,-0.5922211583570607,0.7436826518752331
-2017.1157412528992,3756.0,-804.0,15992.0,273.0,-237.0,-757.0,-0.22258031862869862,-0.11433166979822151,-0.5781302396735314,0.7766284163068736
-2017.1313154697418,3860.0,-904.0,15892.0,300.0,-283.0,-561.0,-0.19547799967853172,-0.0724660351776779,-0.5567250262408197,0.8041108571238584
-2017.146872997284,3832.0,-1080.0,15708.0,443.0,-190.0,-257.0,-0.1836570912994631,-0.05407523994327959,-0.5232641327802435,0.8303858070717713
-2017.1624610424042,3544.0,-1076.0,15756.0,616.0,-152.0,-174.0,-0.1747857058269294,-0.044848431343368925,-0.4760420347690816,0.860710495101305
-2017.1780636310577,3360.0,-788.0,16236.0,588.0,-212.0,-181.0,-0.16741776967491326,-0.03025593388557112,-0.42845761872206883,0.8874006636355438
-2017.1936569213867,3624.0,-588.0,16212.0,407.0,-274.0,-294.0,-0.15361493163419304,-0.003905534967911978,-0.3930057125787732,0.9066055975208223
-2017.2092406749725,3596.0,-552.0,16392.0,286.0,-283.0,-445.0,-0.1278219352340346,0.02994848283892242,-0.36600284475722383,0.9213069840603036
-2017.2248582839966,3940.0,-656.0,16620.0,4.0,-256.0,-586.0,-0.08872879951503888,0.06916655038121773,-0.360493181849385,0.9259524038983261
-2017.2404596805573,3904.0,-596.0,16364.0,316.0,-181.0,-513.0,-0.05476319029612085,0.09738119619668775,-0.3297117243667487,0.9374476382342632
-2017.2560923099518,3676.0,-368.0,16344.0,288.0,-236.0,-886.0,0.008489244837640561,0.1403332869278908,-0.29618934439776307,0.9447255546280752
-2017.2717366218567,3824.0,-404.0,16212.0,145.0,-305.0,-931.0,0.07534838713934112,0.18893327318991182,-0.2717783143173518,0.9406186191565978
-2017.2873225212097,3652.0,-440.0,16172.0,167.0,-213.0,-933.0,0.14365861526881105,0.2287515142091764,-0.2429608487157617,0.931667844780195
-2017.3029000759125,3640.0,-416.0,16080.0,236.0,-254.0,-968.0,0.21146104626525164,0.27167354613686007,-0.20657088549780359,0.9158636249499604
-2017.3184711933136,3704.0,-364.0,15944.0,247.0,-273.0,-893.0,0.2711404267137776,0.31287029695267277,-0.16990246160822445,0.8942752371757158
-2017.334038734436,3676.0,-452.0,16368.0,137.0,-307.0,-992.0,0.3388968927979437,0.3531016806727432,-0.13868005097813907,0.8609506040526854
-2017.3496117591858,3876.0,-648.0,16268.0,89.0,-339.0,-977.0,0.40384817990309557,0.3912066644876552,-0.11138219141608524,0.8194254088596173
-2017.365177154541,3936.0,-576.0,16204.0,95.0,-309.0,-892.0,0.45986190172099656,0.42365343110466774,-0.08469862773695602,0.7758034184754975
-2017.380776643753,3752.0,-820.0,16368.0,163.0,-231.0,-783.0,0.5038605646733313,0.45022319372507,-0.05383458482582208,0.7352043557241082
-2017.3963606357574,3520.0,-612.0,16328.0,173.0,-98.0,-1023.0,0.5599859465505546,0.46679229296952623,-0.006826529272203247,0.6844516735228481
-2017.4119806289673,3452.0,-180.0,16488.0,14.0,-41.0,-887.0,0.6106062583496222,0.46884662602083127,0.028027331456012092,0.6376184652475272
-2017.4275693893433,3448.0,44.0,16628.0,-169.0,-76.0,-1059.0,0.6737473046960626,0.4592632658959951,0.057604398585583284,0.5760412791431954
-2017.4431600570679,3836.0,-136.0,16224.0,-6.0,-148.0,-1115.0,0.7273635257332242,0.4583519086265845,0.09277239174655205,0.5022440767405076
-2017.4587626457214,3580.0,-568.0,15808.0,-106.0,-205.0,-1045.0,0.7757712947012814,0.45000724962339567,0.11631958225907932,0.42678112468448964
-2017.474381685257,3472.0,-716.0,15764.0,171.0,-288.0,-905.0,0.8029319141232689,0.4613193028851589,0.13814623114515684,0.3512840174108177
-2017.4899933338165,3708.0,-516.0,15984.0,271.0,-335.0,-713.0,0.8158579442547838,0.4805550677654068,0.15118489433088986,0.28387632759267
-2017.5055584907532,3832.0,-1016.0,16180.0,481.0,-400.0,-458.0,0.8105528400194664,0.5173415090647302,0.15338045274947687,0.22767585126528148
-2017.5211627483368,4032.0,-776.0,16332.0,246.0,-374.0,-495.0,0.8130091750152508,0.5345024580999297,0.15381226775107087,0.17223527488707727
-2017.5367486476898,3920.0,-672.0,16184.0,379.0,-490.0,-133.0,0.8027808352742407,0.5659766291942332,0.13066023243028027,0.13468960384376755
-2017.5523233413696,3788.0,-452.0,16356.0,758.0,-35.0,-87.0,0.7651666206082935,0.6170122987466993,0.14103755439125476,0.11800116166178759
-2017.5679140090942,3744.0,-52.0,16624.0,376.0,114.0,-118.0,0.7443564934427911,0.6389728884797439,0.15872138945543787,0.11160008506600795
-2017.5835139751434,3796.0,48.0,16616.0,233.0,211.0,-247.0,0.7305025684559384,0.6481325058710276,0.18830831935496709,0.1040683870074242
-2017.5991020202637,3696.0,68.0,16460.0,207.0,168.0,-4.0,0.7159742852782596,0.6594614320429079,0.2010178583378423,0.10992389684445274
-2017.614681482315,3628.0,-256.0,16312.0,318.0,161.0,-291.0,0.6971749854244214,0.6720503304677213,0.23064454676853177,0.09538598462364896
-2017.6302580833435,3440.0,-452.0,15936.0,484.0,139.0,-370.0,0.6681710162318885,0.691788390464867,0.2643972221405924,0.0712069154648092
-2017.6458287239075,3352.0,-460.0,15620.0,496.0,107.0,-337.0,0.6370413159445606,0.71120015757909,0.2936115920557918,0.046528815260691414
-2017.6613986492157,3440.0,-260.0,15992.0,437.0,-53.0,-258.0,0.6118042869915781,0.72832079362703,0.30810888314583273,0.017698929793849863
-2017.6770107746124,3804.0,-40.0,16080.0,338.0,-174.0,-155.0,0.5949419292184517,0.7419412700188696,0.3089542179497062,-0.010702518941790223
-2017.6925995349884,3872.0,-496.0,16096.0,391.0,-143.0,13.0,0.5731943576717282,0.7619113031085859,0.30008586993266106,-0.029797066893062992
-2017.7081758975983,4012.0,-708.0,16124.0,636.0,-32.0,90.0,0.5312134263678041,0.7947137115780437,0.2903558275510035,-0.04399892820966814
-2017.723786830902,4024.0,-888.0,16224.0,917.0,71.0,132.0,0.4648563098427937,0.8380685555200756,0.28002453728927973,-0.05599969610416797
-2017.7393515110016,4040.0,-592.0,16284.0,1059.0,105.0,181.0,0.3840667605106496,0.8820485860888654,0.26467601138504665,-0.06655542236956785
-2017.7549223899841,4264.0,-404.0,16316.0,975.0,-253.0,338.0,0.31550465161888835,0.9171254915067579,0.22353113014967826,-0.09680641243915289
-2017.7704861164093,4400.0,-280.0,16256.0,877.0,-172.0,575.0,0.25246896783601763,0.9469702139372811,0.1646317047041728,-0.11136981638484514
-2017.786059141159,4172.0,-364.0,15952.0,876.0,43.0,458.0,0.18324273710558114,0.9696606572111027,0.11875373952387569,-0.10989931075344823
-2017.8016381263733,4124.0,-136.0,16060.0,920.0,172.0,287.0,0.1059790020588869,0.9854084538649311,0.08806044065048606,-0.09991991276302431
-2017.8172097206116,3980.0,152.0,16072.0,900.0,158.0,179.0,0.0288278076528806,0.9932132654515835,0.06605412046350338,-0.09128647220001325
-2017.8327808380127,3856.0,468.0,16000.0,871.0,121.0,248.0,-0.0452622446783746,0.9946414264096074,0.037794774692054736,-0.08491947410643391
-2017.8483521938324,3816.0,532.0,15948.0,806.0,96.0,-147.0,-0.11635579588505739,0.9891220042215154,0.04409070755217924,-0.07845380192390675
-2017.8639628887177,3872.0,540.0,16036.0,679.0,53.0,-335.0,-0.1771114779112935,0.979149222256774,0.0676815514585347,-0.07292141344075681
-2017.8795280456543,4000.0,376.0,16004.0,562.0,15.0,-477.0,-0.22783013212971814,0.96573285348414,0.10443077563576823,-0.06743663466727365
-2017.895123243332,4144.0,108.0,16080.0,545.0,-103.0,-472.0,-0.27509796674496956,0.9480594614700802,0.14277787101872189,-0.07154610930865606
-2017.9107086658478,4144.0,-88.0,16200.0,578.0,-73.0,-413.0,-0.32402130207953117,0.9267600677083997,0.17476573016123195,-0.07471888824801164
-2017.926385641098,4072.0,-28.0,16144.0,565.0,15.0,-315.0,-0.37147665178700306,0.9046066143089512,0.1958313021924241,-0.07308947672020652
