programtime,ax,ay,az,gx,gy,gz,q0,q1,q2,q3
-5097.087525367737,-576.0,-3464.0,-16728.0,-230.0,-486.0,878.0,0.9959839262793173,-0.020314901569453578,-0.04218726075045096,0.07631224277815894
-5097.103083372116,-456.0,-2304.0,-15868.0,148.0,263.0,1306.0,0.9818149663208534,-0.014224552176281567,-0.016028649622975944,0.1886269238868868
-5097.118679523468,-2028.0,-2940.0,-16056.0,-25.0,-247.0,-281.0,0.9855345825715625,-0.012221386801192807,-0.03785224321133733,0.16474049879741673
-5097.134245157242,-992.0,-2484.0,-15984.0,-401.0,61.0,-404.0,0.9898630277885511,-0.04651541059950797,-0.038821592223924874,0.12845383128284146
-5097.149799823761,-1144.0,-3012.0,-16248.0,-284.0,166.0,-243.0,0.9913397089874015,-0.07236543068968428,-0.028669383487324458,0.10576810613945557
-5097.165374755859,-1468.0,-2860.0,-16028.0,-226.0,251.0,-575.0,0.9941349917579881,-0.09296451829764045,-0.012635703766764466,0.053791779021998734
-5097.180942296982,-996.0,-2840.0,-16248.0,-215.0,-243.0,124.0,0.9910497919437805,-0.11088715873317037,-0.03367962805861883,0.06625730578666046
-5097.196519613266,-936.0,-2404.0,-16128.0,323.0,84.0,1562.0,0.9759254110325708,-0.08751046180896185,-0.009358262699491833,0.1995593498038548
-5097.2121024131775,-1524.0,-2652.0,-15504.0,-652.0,276.0,-901.0,0.9819174358588433,-0.1466980775021192,-0.004028140896949078,0.11958928586830395
-5097.227711200714,-1544.0,-3956.0,-16520.0,-1024.0,-165.0,-1579.0,0.9720359667589954,-0.22938217556572368,-0.04837707785494982,-0.013767904628392192
-5097.243302345276,68.0,-2432.0,-16376.0,521.0,88.0,2321.0,0.9649626771992286,-0.1911195537125563,0.004767846968576655,0.17971537340053853
-5097.258878946304,-1448.0,-2180.0,-15712.0,111.0,443.0,473.0,0.9575728087227849,-0.1885316355184414,0.05166110366295098,0.21175757075444585
-5097.274450540543,-1652.0,-2828.0,-16464.0,-169.0,-346.0,-689.0,0.9667314848216276,-0.19920210970267557,0.008360769805771995,0.16024622701589347
-5097.290023803711,-40.0,-2076.0,-16136.0,-41.0,27.0,1244.0,0.9429900836767944,-0.20126830593190093,0.03150271707469009,0.2631888104221892
-5097.305592775345,-1772.0,-3452.0,-15760.0,-258.0,150.0,-323.0,0.9446969701711361,-0.22697686993055274,0.03227876212696571,0.23449353206763582
-5097.321273803711,-1536.0,-3508.0,-15912.0,-59.0,107.0,245.0,0.9378707768193004,-0.2335863125379222,0.044779707938741545,0.2526472211211109
-5097.33687376976,-532.0,-2944.0,-16304.0,774.0,273.0,2710.0,0.8667122358177737,-0.16114326881036362,0.13539109774631328,0.4522300275876371
-5097.3524487018585,-1848.0,-2700.0,-15832.0,459.0,130.0,749.0,0.8395070929284935,-0.12262301404071553,0.17350416157780335,0.5000877355679739
-5097.3680148124695,-1364.0,-2420.0,-15992.0,-190.0,9.0,-1104.0,0.8812621443386278,-0.15317006074161513,0.1535270261465259,0.4199350160330733
-5097.38360619545,-520.0,-3052.0,-16040.0,-319.0,173.0,-1156.0,0.9118956376732319,-0.19870585321711956,0.13905736928507015,0.33109723335796953
-5097.399210453033,-712.0,-3416.0,-16148.0,-232.0,255.0,-35.0,0.9053007295051814,-0.225150659650137,0.15208380507108166,0.3265092431334773
-5097.414813518524,-928.0,-2732.0,-16344.0,376.0,14.0,1042.0,0.8786472337524639,-0.18145853202879259,0.18365488053400786,0.40165000265048895
-5097.430423736572,-1568.0,-2864.0,-16012.0,-142.0,234.0,-755.0,0.896834193428507,-0.2123891461063382,0.18438434908865062,0.3414406125885059
-5097.446038007736,-1512.0,-2564.0,-16020.0,58.0,-67.0,-661.0,0.9170504396703286,-0.21638748518946685,0.16850362771092922,0.28948484382103995
-5097.461608171463,-1216.0,-2760.0,-15776.0,-545.0,168.0,-1401.0,0.9315039222854108,-0.2826631629144052,0.14065767954510103,0.1806028689780633
-5097.477211713791,-1464.0,-3064.0,-16052.0,-83.0,-165.0,-427.0,0.9373396726656948,-0.2920943032117219,0.11543211633048528,0.1508332940623262
-5097.492781639099,-856.0,-3500.0,-15816.0,-823.0,340.0,-1428.0,0.9217231643687889,-0.3745390346520244,0.0950781503065284,0.033272588150091986
-5097.508344173431,-876.0,-4036.0,-16588.0,461.0,-173.0,1987.0,0.9178157402028424,-0.3157701821160453,0.14521386653173515,0.19187598101172393
-5097.523963212967,-900.0,-2260.0,-15972.0,557.0,277.0,2616.0,0.862330350338844,-0.23651190355087606,0.24234382359643164,0.3764544561137364
-5097.539573907852,-2108.0,-2548.0,-15648.0,-162.0,-52.0,-353.0,0.8710775829838939,-0.25455197366583815,0.2258807374267053,0.3541257256756868
-5097.55520606041,-816.0,-2856.0,-16316.0,-839.0,162.0,-1475.0,0.8849772248325177,-0.34882563443375625,0.17770416985740609,0.25210556579519017
-5097.5707993507385,-884.0,-3356.0,-16604.0,653.0,-29.0,1822.0,0.8530355536528244,-0.2660244384767293,0.24197209630028726,0.37816774974791934
-5097.586371183395,-1536.0,-2532.0,-15736.0,30.0,212.0,258.0,0.8402783166470985,-0.26547674779551295,0.2647907807218038,0.3915868861407052
-5097.6019830703735,-1216.0,-2812.0,-16244.0,-77.0,248.0,26.0,0.8315530117664044,-0.27917104032382484,0.2810465734126555,0.38935323607200223
-5097.61754989624,-1188.0,-2776.0,-16360.0,158.0,74.0,604.0,0.8117394749689393,-0.25526820745715306,0.30621513962793473,0.42678970852330445
-5097.633199214935,-1440.0,-2836.0,-15628.0,-212.0,-244.0,-78.0,0.815999821061032,-0.2634055288401822,0.2793723158443104,0.4321029142977107
-5097.648772954941,-1168.0,-3196.0,-16008.0,-355.0,-247.0,-477.0,0.8304417077804286,-0.2907907880623849,0.23723130014035934,0.41173850656757527
-5097.664351463318,-980.0,-3208.0,-16288.0,21.0,55.0,1532.0,0.7678562371054027,-0.2575051756144451,0.27851010724341674,0.5162557542859602
-5097.679949045181,-1144.0,-2956.0,-15924.0,505.0,174.0,826.0,0.7349771460778898,-0.2109061552108379,0.33043984757551353,0.5532962096125852
-5097.695612192154,-1556.0,-2824.0,-16056.0,317.0,-41.0,980.0,0.6918047805193978,-0.15990840148618068,0.35991295199207846,0.605225673425203
-5097.711294412613,-1260.0,-2624.0,-15676.0,-340.0,160.0,-87.0,0.6861643571477665,-0.19169433454360746,0.35044069331423183,0.6079663457407133
-5097.726873159409,-1156.0,-3108.0,-16300.0,-252.0,-65.0,436.0,0.6600873865324077,-0.19002512405823865,0.34035851466306005,0.6421301860711909
-5097.74248623848,-920.0,-2700.0,-16244.0,151.0,216.0,1018.0,0.5965547208374591,-0.16271670279787387,0.37678307074144324,0.6896957715397263
-5097.758086681366,-1472.0,-2712.0,-15972.0,256.0,-59.0,381.0,0.5786671579249676,-0.13338652934657966,0.39444676897584147,0.7012589397451084
-5097.773674488068,-1264.0,-2696.0,-15948.0,-189.0,24.0,44.0,0.5728067103227255,-0.1430263535155043,0.3848016612924956,0.7094812303901005
-5097.7893052101135,-1372.0,-2952.0,-15972.0,-35.0,65.0,-19.0,0.5712959883284633,-0.14961083761115682,0.38588146778217725,0.7087545300111772
-5097.804902553558,-1452.0,-3208.0,-16324.0,-48.0,7.0,-434.0,0.5967896436960525,-0.16711230974267524,0.37755886264200716,0.688015190493699
-5097.820519685745,-1052.0,-2804.0,-16064.0,311.0,50.0,703.0,0.5561518199031398,-0.13064449510066514,0.40840293773832786,0.7119228958005362
-5097.8360986709595,-1380.0,-2588.0,-16044.0,-6.0,134.0,536.0,0.5173470297357887,-0.1201721047961106,0.42041098810573685,0.7356393934071147
-5097.851710557938,-1404.0,-2380.0,-15708.0,-170.0,27.0,-323.0,0.5349817159067807,-0.14150100616338515,0.40738164252490777,0.7265068659234367
-5097.867331266403,-1776.0,-3984.0,-16212.0,-849.0,481.0,-2655.0,0.655980503285214,-0.297278748357184,0.3334407419704455,0.6083849083261864
-5097.882917165756,-420.0,-2960.0,-16684.0,786.0,-120.0,2123.0,0.5562931396236386,-0.18087451445551256,0.415503723228691,0.696547922838948
-5097.8984842300415,-1396.0,-2480.0,-15592.0,-145.0,383.0,-151.0,0.5488269491835499,-0.21668419860945037,0.4228261520188481,0.6877899265704546
-5097.914093971252,-1800.0,-3164.0,-16008.0,-103.0,-247.0,-790.0,0.6017563430237665,-0.23551405173275983,0.3890630526352517,0.6565457913513889
-5097.929771900177,-548.0,-2564.0,-15876.0,-2.0,428.0,336.0,0.567210430600593,-0.24865005363941065,0.41807013515362124,0.664577189147838
-5097.9453818798065,-1792.0,-2516.0,-16188.0,663.0,-184.0,1156.0,0.5176393634636417,-0.16207039520317165,0.46948780922276484,0.6966806107412867
-5097.960975885391,-1556.0,-1912.0,-15164.0,-295.0,152.0,-1693.0,0.6032930982312528,-0.251307842351744,0.42987570350531407,0.6229676440513249
-5097.976610898972,-964.0,-3840.0,-16292.0,-985.0,82.0,-1682.0,0.6604681734727368,-0.3656630912290382,0.339072049165492,0.5613398623090338
-5097.993424654007,-452.0,-3268.0,-16256.0,880.0,10.0,2133.0,0.5721921410020533,-0.24760037212745434,0.4420976699033149,0.6448564644662346
-5098.009074926376,-1984.0,-2332.0,-15840.0,246.0,141.0,43.0,0.5693822333766272,-0.2417000679252794,0.46397874243220044,0.6341203955488212
-5098.02472114563,-1420.0,-2816.0,-15600.0,-541.0,43.0,-2301.0,0.6693730884516834,-0.35679092330986223,0.3798562211355849,0.5294800815563737
-5098.040374994278,-588.0,-3632.0,-16660.0,-177.0,151.0,1057.0,0.6072091703022615,-0.337800731414808,0.41173234249565377,0.5896305347414613
-5098.056005239487,-1344.0,-2556.0,-15780.0,666.0,126.0,1834.0,0.5203284051583774,-0.2398460654826986,0.49970141825526176,0.6496389060481894
-5098.071616411209,-2316.0,-2464.0,-15368.0,-498.0,34.0,-1883.0,0.6063871164429997,-0.34176104077417446,0.4276790501115875,0.57670155723437
-5098.087278366089,-692.0,-2800.0,-16356.0,-388.0,40.0,-1215.0,0.6503390477871182,-0.40734045622265935,0.37191150897750674,0.5223166713189751
-5098.102892398834,-1164.0,-3648.0,-16136.0,327.0,285.0,-850.0,0.6889501770521514,-0.4281106977373614,0.37162259240160883,0.4516254342254724
-5098.118479251862,-1792.0,-3184.0,-16164.0,164.0,-253.0,-1273.0,0.7484542701533377,-0.44688982858258625,0.3134260139746862,0.37665610357805274
-5098.134056091309,-748.0,-2500.0,-15820.0,101.0,247.0,-280.0,0.7542576598695816,-0.456050314755166,0.3219033180384787,0.34567578274388083
-5098.149636030197,-1040.0,-3320.0,-15976.0,108.0,259.0,-153.0,0.7554449311395564,-0.46111298973981363,0.3361089775482394,0.32203807526477135
-5098.1651928424835,-1372.0,-2820.0,-16324.0,222.0,252.0,-338.0,0.7656578916434411,-0.4633038136238658,0.34519440449233046,0.28276915028497734
-5098.180764198303,-1224.0,-3052.0,-15912.0,-556.0,312.0,-1849.0,0.7681138644199912,-0.5560259158695009,0.2737363285768125,0.16094935409798183
-5098.196325778961,-1056.0,-3492.0,-16420.0,36.0,161.0,262.0,0.7618628461880425,-0.5496513691010214,0.29773059838229676,0.16971996591605637
-5098.211977720261,-1108.0,-2788.0,-16088.0,324.0,203.0,538.0,0.7627045059453745,-0.5165170905962332,0.34137241417101916,0.18696739441858465
-5098.227552890778,-1656.0,-3292.0,-15520.0,-625.0,238.0,-3121.0,0.7496228986988096,-0.6311511990938509,0.19889376803180653,-0.012447596832255789
-5098.24316072464,-604.0,-3872.0,-16748.0,-75.0,26.0,-641.0,0.7429495880781232,-0.6463596285758321,0.16517622261795992,-0.0544238514212449
-5098.258774995804,-644.0,-2592.0,-15844.0,938.0,299.0,1546.0,0.7886663236159194,-0.555038160232905,0.2640182427627404,0.01524592299260311
-5098.274354457855,-1976.0,-2756.0,-15588.0,-405.0,201.0,-1398.0,0.7598519576007438,-0.6106075266709461,0.20801500152550706,-0.08070446111244933
-5098.290003538132,-892.0,-3028.0,-15864.0,-356.0,-35.0,-1597.0,0.7227246545054723,-0.6570093341814557,0.12195380147526895,-0.17645134987898672
-5098.305577993393,-324.0,-3540.0,-16476.0,-153.0,361.0,-49.0,0.7087241248337731,-0.6614615337608133,0.14423222744663633,-0.19843341149911337
-5098.321173429489,-1456.0,-2988.0,-15964.0,587.0,106.0,726.0,0.751127977425131,-0.612367837263509,0.1819947422589782,-0.1664040480413038
-5098.336765766144,-1792.0,-3248.0,-15384.0,-799.0,290.0,-2943.0,0.6384700340512872,-0.6834885630269251,0.05355576739810627,-0.3497587448632805
-5098.352397441864,-396.0,-3748.0,-16656.0,12.0,-4.0,658.0,0.6580191217271704,-0.6789795803913694,0.09210429277884363,-0.3122729000484552
-5098.3680601119995,-852.0,-2844.0,-15752.0,447.0,521.0,556.0,0.6932294327510821,-0.6330094319861479,0.1424185851450135,-0.3137657712203164
-5098.383659601212,-1888.0,-2936.0,-15708.0,-110.0,65.0,-1263.0,0.6476268571246143,-0.6498387490192291,0.07920332671546677,-0.38989214821694046
-5098.399283409119,-1008.0,-3084.0,-15852.0,-371.0,186.0,-1403.0,0.57275124553278,-0.6689812831917604,0.022656669615804686,-0.47318783670089754
-5098.414875984192,-808.0,-3376.0,-16148.0,238.0,200.0,606.0,0.6100555475132593,-0.646730942233646,0.05814769210569401,-0.45408167019673823
-5098.430452108383,-1308.0,-2660.0,-15768.0,46.0,58.0,229.0,0.6211457821672115,-0.6409236022819657,0.07238174437259069,-0.4451468706116812
-5098.446065664291,-1424.0,-3520.0,-15472.0,-850.0,180.0,-3239.0,0.4285321406418645,-0.672496581246984,-0.06326986270186309,-0.600087891164042
-5098.4616503715515,-732.0,-4228.0,-16648.0,-490.0,223.0,-400.0,0.37932878176752693,-0.6760184380158751,-0.05262061988288663,-0.6295552534515783
-5098.477227687836,-648.0,-3040.0,-16340.0,1456.0,202.0,3276.0,0.6164978261692381,-0.603098341732647,0.06428099949566983,-0.5020665031963125
-5098.492802143097,-1872.0,-2216.0,-15112.0,-7.0,393.0,-563.0,0.588079165733735,-0.5886147971625476,0.056075504490918124,-0.5518614438310546
-5098.508381128311,-1316.0,-3280.0,-16108.0,-389.0,-161.0,-1465.0,0.4938691386126982,-0.6183056805358224,-0.008553138393190097,-0.6113249570945981
-5098.523988008499,-280.0,-3420.0,-16376.0,-162.0,340.0,152.0,0.4930844108031165,-0.6071388954037982,0.022969834814048472,-0.6226736803490369
-5098.539584875107,-1248.0,-3132.0,-16020.0,452.0,-36.0,1484.0,0.5922456202877722,-0.5816174934293387,0.07486387161889922,-0.552595346807367
-5098.555178403854,-1368.0,-3480.0,-15248.0,-943.0,2.0,-2816.0,0.395405104346922,-0.6281506829877231,-0.021679988040217604,-0.6697846676634459
-5098.570807933807,-488.0,-4412.0,-16748.0,411.0,104.0,1658.0,0.5093290907900944,-0.604571847274077,0.04828673042225319,-0.6105285828064685
-5098.586431264877,-564.0,-2540.0,-16068.0,1346.0,398.0,3541.0,0.7280620125504844,-0.48290910038514256,0.17189267748474063,-0.4551674571773311
-5098.6020176410675,-2236.0,-2300.0,-15732.0,-164.0,167.0,252.0,0.7281991748892535,-0.4829399503863588,0.19968600245469662,-0.4434190641313187
-5098.617601156235,-1156.0,-2316.0,-15656.0,-622.0,55.0,-1570.0,0.6332866110633413,-0.5420729320796294,0.1594901506854011,-0.5288363606909512
-5098.63316822052,-396.0,-3648.0,-16472.0,-491.0,234.0,1001.0,0.6496594106610939,-0.542045510888273,0.2413399842784849,-0.4752728966118432
-5098.648792266846,-1132.0,-2912.0,-15760.0,761.0,61.0,1118.0,0.7255620471879886,-0.4697977731700671,0.264416807165285,-0.4277072831894933
-5098.664379835129,-1668.0,-3116.0,-15916.0,-435.0,121.0,-262.0,0.6942899339540779,-0.4985686391067758,0.2774411976973008,-0.4386538288098567
-5098.679996013641,-696.0,-2832.0,-16348.0,672.0,125.0,1790.0,0.7780771175116798,-0.404355097602728,0.3326971823608418,-0.34699501307160147
-5098.695584535599,-1136.0,-2460.0,-16180.0,577.0,329.0,602.0,0.8045117399317314,-0.3369242191945474,0.3578994484771448,-0.33339303473815785
-5098.711160898209,-1960.0,-2384.0,-15860.0,-85.0,-47.0,-1815.0,0.7412678123628754,-0.3961744292756247,0.30017533843618355,-0.45106830761827255
-5098.72673869133,-952.0,-3128.0,-15692.0,-677.0,-27.0,-2452.0,0.607134359372934,-0.493453551437431,0.23476963040906934,-0.5768662608267126
-5098.74232339859,-12.0,-3432.0,-16264.0,492.0,70.0,1115.0,0.6790585872992623,-0.4387820908908267,0.2603862079866139,-0.527777163601227
-5098.757994890213,-808.0,-3040.0,-15704.0,481.0,337.0,856.0,0.726154175931906,-0.37401214471689925,0.28995621181350406,-0.4987388330696558
-5098.773587226868,-1808.0,-2684.0,-16192.0,63.0,-170.0,338.0,0.7466876832577739,-0.3688672969533825,0.2875129992207905,-0.4730017930077108
-5098.789175748825,-1276.0,-2256.0,-15764.0,-338.0,43.0,-311.0,0.7211787783041156,-0.3968081152176888,0.29420829227755063,-0.48568093454066724
-5098.804765701294,-940.0,-2788.0,-16008.0,-354.0,165.0,36.0,0.705661430979466,-0.41114220833111226,0.32083130710487434,-0.47965748377149975
-5098.820360898972,-1656.0,-4024.0,-16076.0,-829.0,328.0,-1942.0,0.5753947321506249,-0.49449794560386945,0.30104698304629196,-0.5777225960663028
-5098.835989713669,-832.0,-3272.0,-16668.0,557.0,-323.0,4119.0,0.7663143839605738,-0.35223736862274824,0.4084580508261293,-0.34907466507348733
-5098.8516061306,-1160.0,-1112.0,-15492.0,411.0,263.0,4482.0,0.8430467923865795,-0.1462480236570585,0.5132184978708545,-0.06701040864140077
-5098.867240428925,-2268.0,-824.0,-15268.0,-664.0,-7.0,2742.0,0.8260752704816228,-0.0703127772829499,0.5358423439584904,0.15977716755075824
-5098.882821798325,-1324.0,-884.0,-16124.0,-1516.0,-459.0,2775.0,0.7700141198053012,-0.04189397456530354,0.48059200084068143,0.4175577551950621
-5098.898432970047,-2292.0,-4720.0,-12656.0,-4134.0,114.0,-12726.0,0.7894423338995835,-0.5578718520756076,0.18948921707348523,-0.17220230753908944
-5098.914055109024,1828.0,-7708.0,-18972.0,-7677.0,671.0,-14197.0,0.11058121658367542,-0.7588646399151577,-0.1967026870974834,-0.6109044980305366
-5098.929686546326,2760.0,-7456.0,-21520.0,6986.0,413.0,19090.0,0.7845877408697258,-0.48964885209114284,0.34321715762824706,-0.1639147986984491
-5098.945383310318,-3444.0,84.0,-13860.0,6937.0,585.0,10758.0,0.8114190040051656,0.2104617253363834,0.4959245518838014,0.2266360539423256
-5098.960973501205,-6576.0,852.0,-14040.0,355.0,-491.0,-4254.0,0.8521770346790949,0.057366888829450395,0.5117682375716217,-0.09271791975885985
-5098.976580381393,-1084.0,-176.0,-15020.0,-2369.0,-205.0,-5551.0,0.7326116097300287,-0.3258605501083641,0.48105382735537083,-0.3545170607440488
-5098.992183446884,816.0,-2512.0,-16136.0,-3098.0,1355.0,-2421.0,0.4817680112820323,-0.5487336947674702,0.5591431128564428,-0.3926192747145809
-5099.00784945488,-160.0,-5600.0,-15476.0,-4923.0,1106.0,-8039.0,-0.06431860412617499,-0.8549323504726652,0.29996256756243106,-0.41830162722597447
-5099.023457527161,1104.0,-8432.0,-16928.0,-4838.0,768.0,-5518.0,-0.5436936205008234,-0.7939783392113723,0.05102414929917184,-0.2671931512560781
-5099.039077281952,2804.0,-7020.0,-18148.0,2541.0,228.0,13943.0,-0.027182051740173668,-0.5326313305873978,0.5954135563357972,-0.6008724479217293
-5099.054674386978,-1236.0,-2664.0,-15408.0,4536.0,1272.0,14110.0,0.5232975567153134,0.15643968856869273,0.6167135363564973,-0.5668780336641885
-5099.070262908936,-4892.0,-984.0,-14976.0,688.0,169.0,2829.0,0.6247165146617927,0.3377772313705122,0.5349588043136576,-0.45766242577231014
-5099.085857629776,-3320.0,-1044.0,-15748.0,-937.0,-20.0,-3445.0,0.4921815811878738,0.11953861819081234,0.6425827587600041,-0.5749393081402749
-5099.101443052292,-728.0,-696.0,-16756.0,217.0,1216.0,-1211.0,0.35678151208378245,0.12063611284287452,0.6889791962623417,-0.6192427214195322
-5099.117013216019,-2104.0,-1756.0,-15164.0,-2441.0,-162.0,-9066.0,-0.0756322137758576,-0.3937970620050717,0.7050215433647025,-0.5849344113549737
-5099.132611989975,-1116.0,-5296.0,-16460.0,-4076.0,-192.0,-8521.0,-0.49282202410164494,-0.6951691996311932,0.47970173279240735,-0.20917094444603349
-5099.14817738533,2052.0,-4424.0,-16616.0,109.0,-743.0,2239.0,-0.40542318893214774,-0.6070178975500496,0.6323281779188769,-0.25946557640619444
-5099.163870096207,2048.0,-2532.0,-15860.0,285.0,1485.0,5758.0,-0.3031562033603488,-0.23589977358307598,0.7795644640132676,-0.4946987564521455
-5099.179456472397,-2016.0,-3036.0,-16528.0,675.0,571.0,4994.0,-0.10271177499933967,0.10115695918176718,0.7665869289458199,-0.6257491839826878
-5099.195090770721,-2676.0,-2272.0,-15912.0,466.0,-105.0,673.0,-0.06280512570219388,0.1359795896243948,0.7344442341345773,-0.6619340860973899
-5099.210694313049,-1468.0,-2036.0,-16044.0,-801.0,162.0,-1705.0,-0.1599592947877962,0.03996977008629476,0.7895759770146809,-0.5910881643304592
-5099.22628903389,-1104.0,-2584.0,-15924.0,-208.0,15.0,-1014.0,-0.21161280127231702,-0.026080239389897397,0.8005677830551481,-0.560027738764085
-5099.241891145706,-1192.0,-2384.0,-15996.0,254.0,438.0,-1294.0,-0.3025353344381111,-0.09902134024308143,0.7716776901770288,-0.5506184596214785
-5099.257518291473,-960.0,-2360.0,-16012.0,-174.0,416.0,-1489.0,-0.39978056116270366,-0.1731192421053598,0.7495266360274595,-0.4984125327624295
-5099.27317738533,-864.0,-3104.0,-16196.0,-44.0,519.0,-1051.0,-0.47742443992613304,-0.21663403332870407,0.7139480290090838,-0.4641269348346424
-5099.288788318634,-732.0,-3080.0,-15920.0,836.0,434.0,270.0,-0.4757910657263282,-0.21630147502422753,0.6649158896642265,-0.5335947838476106
-5099.304384231567,-852.0,-2316.0,-15776.0,850.0,266.0,-11.0,-0.4740942779929918,-0.2391669207141412,0.6124806502018053,-0.5855777085398598
-5099.320016145706,-984.0,-2252.0,-15984.0,338.0,308.0,-1667.0,-0.5621779365613166,-0.32291809123584464,0.541797041629705,-0.534916666105627
-5099.33561706543,-1024.0,-2776.0,-15628.0,-256.0,150.0,-3052.0,-0.6943605916949969,-0.4325352210642476,0.4449743380015102,-0.36438234007700504
-5099.351318120956,-380.0,-3616.0,-15848.0,-639.0,294.0,-2385.0,-0.787241362621063,-0.466373786803638,0.3495446950597581,-0.2014076317236953
-5099.36691236496,-448.0,-3988.0,-15900.0,-187.0,261.0,-711.0,-0.8132515081193027,-0.46972138909833316,0.3054531660143602,-0.15710558404148467
-5099.382483720779,-268.0,-3224.0,-16032.0,206.0,438.0,1042.0,-0.7980135846042367,-0.44851298677290735,0.31286662263960324,-0.2532289397387878
-5099.398076295853,-1020.0,-2360.0,-16324.0,416.0,354.0,1273.0,-0.757572308053232,-0.43196662544206893,0.32664409613850826,-0.36440728180560156
-5099.413673877716,-1668.0,-2248.0,-15908.0,-710.0,399.0,-2070.0,-0.8456110732715809,-0.42364750661401207,0.2405077934284678,-0.21822168590766833
-5099.429357051849,-1400.0,-2812.0,-15748.0,-1527.0,-92.0,-4864.0,-0.9069077004534674,-0.37919855626828003,0.08835052785226526,0.16100019257902137
-5099.444979429245,-180.0,-2972.0,-15676.0,-2099.0,179.0,-4829.0,-0.8266264842133545,-0.22997031164629034,-0.10453867160912696,0.5028657648881816
-5099.460588693619,148.0,-3200.0,-16388.0,-1338.0,423.0,-1789.0,-0.7562750898489884,-0.13330620938760968,-0.22550721779328245,0.599519755917805
-5099.476193189621,-304.0,-3016.0,-16224.0,-660.0,355.0,-349.0,-0.7366987065831128,-0.10125484155310743,-0.28708525414275377,0.6038249163744526
-5099.491875171661,-1188.0,-2584.0,-15704.0,-936.0,264.0,-1494.0,-0.6516924431659529,-0.017402942892373357,-0.3625178186901044,0.6660142102322176
-5099.507492303848,-1304.0,-2892.0,-15840.0,-1492.0,95.0,-3198.0,-0.4443776586760492,0.1558696408044344,-0.43940005213934125,0.764958002589053
-5099.523101568222,-1000.0,-2328.0,-16460.0,-1570.0,175.0,-2962.0,-0.2097003136771192,0.3058626428272814,-0.4903498904350225,0.7886892969457555
-5099.538702964783,-580.0,-2508.0,-16812.0,-1130.0,217.0,-1862.0,-0.04132303909300783,0.3844437442843586,-0.5133377195226941,0.7661460693862367
-5099.554331541061,-756.0,-2512.0,-16328.0,-286.0,-223.0,-1165.0,0.035952504620020365,0.4501493171374502,-0.4900171866682542,0.7456246820364547
-5099.569998264313,136.0,-1736.0,-15888.0,-222.0,-285.0,-1326.0,0.11789243599455325,0.5211124599355433,-0.4502307518637986,0.7154267591524345
-5099.585581541061,116.0,-2252.0,-16188.0,-975.0,400.0,-1752.0,0.28279790728093057,0.5464763575761976,-0.4208448620493995,0.6665422239696447
-5099.60117483139,-596.0,-2960.0,-16348.0,-375.0,-111.0,-376.0,0.3179926749104542,0.5570208279444944,-0.4271632753484411,0.6372911360853186
-5099.616762638092,-416.0,-2904.0,-16176.0,-164.0,-4.0,188.0,0.31514597104384684,0.5457117307905489,-0.4456010258735039,0.6358627599984885
-5099.632368564606,-324.0,-2580.0,-16392.0,538.0,-12.0,2079.0,0.1705907016902433,0.47226111893524575,-0.5064393214150665,0.7009903435593868
-5099.648039102554,-1016.0,-2444.0,-16512.0,978.0,-611.0,2664.0,-0.05793897569465819,0.3941408428333489,-0.5483678919790793,0.7352473911225336
-5099.663657903671,-1392.0,-2040.0,-16328.0,1147.0,-1280.0,598.0,-0.19458638254261984,0.4364989426042388,-0.4830366057803379,0.7336759845535147
-5099.679310798645,-140.0,-1824.0,-15884.0,-94.0,-613.0,-727.0,-0.16966708429000885,0.5063793966614044,-0.4495843222234571,0.7160076286997462
-5099.694928884506,-132.0,-3120.0,-16044.0,-17.0,-292.0,696.0,-0.22334676206295184,0.4966498561592038,-0.47622190071792664,0.6904113596470169
-5099.710516214371,-396.0,-3572.0,-16124.0,839.0,-395.0,2641.0,-0.4227663266640283,0.3832311416674788,-0.5174101414330796,0.6377219383378977
-5099.726145744324,-500.0,-3092.0,-15944.0,857.0,58.0,3427.0,-0.6110387198840289,0.18520039365530302,-0.5606405715819406,0.5272709422001964
-5099.741752147675,-1024.0,-3128.0,-16004.0,1495.0,-124.0,4878.0,-0.7907205967416558,-0.1163468145112639,-0.5155315843427004,0.30895232995837196
-5099.757385730743,-1212.0,-2520.0,-15976.0,1400.0,-255.0,3172.0,-0.8357356621945096,-0.3337798299022717,-0.4098308323255173,0.14891479765990015
-5099.772966384888,-1048.0,-1888.0,-16476.0,1103.0,144.0,2355.0,-0.8082664181058637,-0.48801377784821054,-0.3292438882569095,0.012100084218978381
-5099.788566350937,-1096.0,-1856.0,-16056.0,386.0,-84.0,4.0,-0.7935752372518368,-0.5151566142372224,-0.3227230363484472,0.02649240340874334
-5099.804159164429,-732.0,-2624.0,-15924.0,-328.0,-23.0,-580.0,-0.8060714466831533,-0.47545033760755084,-0.3475452146765892,0.058379132114118014
-5099.819794416428,184.0,-3576.0,-15984.0,169.0,-246.0,1290.0,-0.8075345504711212,-0.5219284624994437,-0.27421291784151697,-0.016908740852365028
-5099.835424423218,76.0,-3368.0,-16212.0,633.0,292.0,4011.0,-0.7214179350572377,-0.6240882962535449,-0.1066364616499811,-0.28053275477895745
-5099.8510529994965,-1216.0,-3236.0,-16192.0,1192.0,12.0,4822.0,-0.4937308338942784,-0.6825694212739203,0.11561103186849704,-0.526272684180119
-5099.866676330566,-1716.0,-2784.0,-15936.0,519.0,-137.0,2534.0,-0.33638774691426815,-0.6689919470542963,0.2425601702528502,-0.6168124693205806
-5099.882272481918,-1764.0,-2640.0,-15648.0,148.0,-201.0,1702.0,-0.2291628446832698,-0.6411363541404125,0.33620006990659473,-0.6506904632857409
-5099.897887229919,-1128.0,-2812.0,-16000.0,41.0,-98.0,1009.0,-0.1659289042053429,-0.6156829652682321,0.3908940824199394,-0.6637800097598637
-5099.913544416428,-828.0,-2388.0,-16136.0,476.0,-222.0,1207.0,-0.06236005009102548,-0.5905435183692554,0.4287131829219367,-0.6808631168257302
-5099.929216384888,-936.0,-2056.0,-16632.0,744.0,-93.0,1093.0,0.044162827855210016,-0.5556869862461843,0.438574295365031,-0.7049214178882143
-5099.94487452507,-1260.0,-2864.0,-16208.0,251.0,-338.0,-34.0,0.06716082425558097,-0.5765739825199793,0.4200713435775609,-0.6975614185656375
-5099.960577726364,-716.0,-3004.0,-15960.0,185.0,-464.0,316.0,0.11258023252792332,-0.5915206067115365,0.42159140603117057,-0.6780042399869157
-5099.976178884506,-592.0,-2600.0,-16028.0,340.0,-104.0,1342.0,0.21180248858017453,-0.541168106805133,0.4664703546508338,-0.6668449551733286
-5099.99179816246,-1420.0,-3088.0,-15900.0,530.0,-5.0,1261.0,0.3081976941695391,-0.4770942534694758,0.4917767717175204,-0.6599627727486428
-5100.007439613342,-1736.0,-2904.0,-15932.0,647.0,-545.0,252.0,0.3718762905469718,-0.4789894697120411,0.44921991786416055,-0.6561086631253383
-5100.023045063019,-1048.0,-2336.0,-15956.0,87.0,-339.0,-524.0,0.3581737844796364,-0.5155000430636303,0.4109025739579021,-0.66115831721888
-5100.038677692413,-1308.0,-3316.0,-16544.0,218.0,-421.0,-806.0,0.33538731172751707,-0.5601844834203309,0.347934948481224,-0.6727926629301589
-5100.05432677269,-1048.0,-2888.0,-16168.0,970.0,-617.0,306.0,0.4171996172723506,-0.555937089788618,0.2865102143544742,-0.6593863272890328
-5100.070036649704,-780.0,-2848.0,-16188.0,405.0,-387.0,-440.0,0.42031040047150897,-0.5735685431610739,0.22747955182517796,-0.6652904230882776
-5100.085653543472,-1148.0,-3508.0,-16248.0,1165.0,-772.0,0.0,0.4902447712093282,-0.571649850673466,0.13070028803375563,-0.6448208644536955
-5100.101264476776,-868.0,-2908.0,-15964.0,1560.0,-521.0,789.0,0.6106383262496552,-0.5189542874981022,0.059343867634922096,-0.595218940707103
-5100.11687374115,-980.0,-2200.0,-16332.0,2924.0,118.0,2612.0,0.8307389414633227,-0.3252508332065194,0.03038410123132316,-0.4507344151795241
-5100.132559299469,-1308.0,-912.0,-15728.0,1968.0,-76.0,-2202.0,0.7748107330718857,-0.18565090510956495,-0.11132416956198776,-0.5939772711307565
-5100.148153066635,-2060.0,-3184.0,-16752.0,566.0,297.0,-4122.0,0.5386200163915185,-0.08669954921507732,-0.17607175113107984,-0.81937195739294
-5100.163878440857,-1476.0,-3668.0,-16968.0,3135.0,-274.0,-1762.0,0.4121943999509811,0.06475101730562179,-0.4069433371774653,-0.8125885814690024
-5100.179494142532,-664.0,-2384.0,-16612.0,3446.0,763.0,-195.0,0.38786254042405954,0.238672873900316,-0.5953297984982875,-0.6619519166978424
-5100.195087194443,-2280.0,-3176.0,-17172.0,3640.0,728.0,-642.0,0.2969874122587807,0.41549612891670307,-0.7293404588059328,-0.4552185617522849
-5100.210662126541,-2544.0,-2772.0,-17332.0,4785.0,6.0,-2082.0,0.037279367750158936,0.6118440614694556,-0.7679412986009989,-0.18580434625627248
-5100.226251125336,-1560.0,-1960.0,-17212.0,4204.0,952.0,-2378.0,-0.1489266617053953,0.7353032873768914,-0.6486667568768273,0.12798970087050943
-5100.241839170456,-2468.0,-4032.0,-16664.0,3646.0,1509.0,-6036.0,-0.1946850311354862,0.8572384705169273,-0.20341658779728508,0.4311167302790321
-5100.257439613342,-1644.0,-4084.0,-16732.0,4327.0,1186.0,-6107.0,-0.2231744802293597,0.7070961686186392,0.3303345767656327,0.5840267349122525
-5100.273028612137,-872.0,-4136.0,-17320.0,3700.0,1776.0,-4685.0,-0.23185174142083867,0.3599420976348513,0.6796017408563133,0.5956743490997545
-5100.2887217998505,-1256.0,-5304.0,-17588.0,4837.0,1610.0,-2598.0,-0.3079132188392214,0.02182843268832076,0.8769622354732479,0.3683072178823065
-5100.304324388504,-812.0,-4484.0,-17140.0,5636.0,1672.0,-2621.0,-0.3157841662462975,-0.3347218287741015,0.8877840463247255,0.009008039828369754
-5100.319957256317,-660.0,-3936.0,-16916.0,5596.0,1949.0,-1755.0,-0.2654854864306843,-0.5513564123690021,0.6929247015390368,-0.38128587835282163
-5100.33555150032,-1816.0,-4036.0,-17744.0,6379.0,1603.0,-2565.0,-0.1197192753145631,-0.6819810611059467,0.27267410803241826,-0.6679954776940396
-5100.351158857346,-2124.0,-3004.0,-18056.0,6590.0,1185.0,-3301.0,0.04352590035722623,-0.6372351618781381,-0.26831853012236323,-0.7211393837929047
-5100.3667781353,-2176.0,-2256.0,-18104.0,7031.0,787.0,-3174.0,0.2097029085480537,-0.4032308040025002,-0.7324377664412447,-0.5069166865871991
-5100.382360219955,-1668.0,132.0,-16928.0,7697.0,149.0,1419.0,0.45635830522867815,-0.28613247661482905,-0.8425202963467301,0.00498531031039864
-5100.398007154465,-2048.0,4008.0,-14812.0,7730.0,-607.0,6827.0,0.44676690606918434,-0.35651684993470323,-0.5147157994612012,0.639032638555357
-5100.413618803024,-3264.0,6848.0,-12292.0,3429.0,-894.0,4492.0,0.23496547869701945,-0.3354204535613401,-0.19563134395473056,0.8910739141147895
-5100.429220199585,-3884.0,6272.0,-12560.0,-2299.0,-1323.0,248.0,0.12242476383395604,-0.27682774309744046,-0.3839836115868278,0.8723159770888721
-5100.444844007492,-2756.0,4656.0,-14848.0,-4992.0,-1544.0,605.0,-0.08729328191936447,-0.21186271595275216,-0.6961474722148787,0.680347535785722
-5100.460477113724,-2316.0,3228.0,-15876.0,-6619.0,-1953.0,1793.0,-0.3691252570577824,-0.13117835742916112,-0.8840174589400752,0.2550527698993789
-5100.476115465164,-2664.0,1624.0,-17092.0,-7869.0,-2320.0,1388.0,-0.5412162307987316,0.054055371689906866,-0.783810551283709,-0.2996732020181455
-5100.491751194,-1872.0,100.0,-17544.0,-8412.0,-2967.0,2120.0,-0.506678650876737,0.17865451990207865,-0.3388508427240764,-0.7723596400961606
-5100.507358312607,-1536.0,-1628.0,-17596.0,-8699.0,-3032.0,4052.0,-0.14093888473551602,0.17981793104216431,0.2390455660184697,-0.943747296585338
-5100.522950410843,-868.0,-2356.0,-17384.0,-7229.0,-2915.0,7909.0,0.4916467235531196,0.13918411355466015,0.5359777899579967,-0.6720409886496711
-5100.538593292236,-1280.0,-1684.0,-16672.0,-6181.0,-3003.0,10367.0,0.8910420926049826,0.12388291858624377,0.4363469019857,0.017274050369545643
-5100.554218053818,-2080.0,-884.0,-16724.0,-7043.0,-2701.0,9123.0,0.7346293848355447,-0.05025519693357093,0.0816454031968654,0.6716607106673267
-5100.569813251495,-1928.0,-636.0,-17224.0,-8115.0,-2720.0,7658.0,0.190398803891753,-0.2519727368935965,-0.377576538013401,0.8704561983700011
-5100.585406541824,-2184.0,-1136.0,-16652.0,-9231.0,-2355.0,3517.0,-0.26742428171405547,-0.25632390347446765,-0.7788392705239537,0.506153831109722
-5100.60099196434,-1960.0,-1920.0,-16804.0,-9818.0,-2752.0,1162.0,-0.5402422888801226,0.011402967570362996,-0.8361052567636802,-0.09453169441142875
-5100.616582870483,-456.0,-1724.0,-16252.0,-10091.0,-2119.0,48.0,-0.5086041652504094,0.34656569988965247,-0.48558520509557124,-0.6208228630956028
-5100.632241487503,-1664.0,-4060.0,-16532.0,-11244.0,-1786.0,-1058.0,-0.21341434695455128,0.5620149399463805,0.16613413717258274,-0.7816603944533393
-5100.647877931595,-1548.0,-4580.0,-17228.0,-8889.0,-2458.0,4575.0,0.4241798728109251,0.4660053872094285,0.44183721838165824,-0.6385062936625266
-5100.6635184288025,-1844.0,-3124.0,-16056.0,-8218.0,-1578.0,4568.0,0.8253217426406513,0.19231642349435604,0.5041193358151558,-0.16649957848662666
-5100.679120540619,-3104.0,-2700.0,-16392.0,-8825.0,-1920.0,2576.0,0.847068933161376,-0.2767431761563942,0.3489199098538522,0.29007297949188415
-5100.69473195076,-2916.0,-1604.0,-16220.0,-8782.0,-1829.0,2713.0,0.48138356832567086,-0.6170786016306312,0.044256162645341726,0.6209067978557957
-5100.7103316783905,-3808.0,-1040.0,-16336.0,-9684.0,-1874.0,1414.0,-0.08268565568774593,-0.6920411165690201,-0.36444307823770017,0.617594865624724
-5100.725978136063,-3888.0,-1652.0,-16260.0,-10347.0,-1936.0,-349.0,-0.5523692552598864,-0.36969767708456,-0.684175661245854,0.3001924348825549
-5100.74157834053,-3000.0,-2628.0,-16436.0,-10448.0,-2118.0,-1773.0,-0.7051342877905672,0.21475341170229756,-0.6643731247728817,-0.12359190678936012
-5100.75719332695,-2800.0,-3824.0,-16280.0,-8648.0,-2065.0,-2185.0,-0.5360675668223484,0.6651755651168214,-0.3150883939969554,-0.41339126181029
-5100.772791147232,-1464.0,-1812.0,-16800.0,-6544.0,-2642.0,2897.0,-0.10336453106712909,0.663051457478222,-0.10294630873910388,-0.7342210811262988
-5100.788350105286,-608.0,-176.0,-15588.0,-6458.0,-1738.0,3020.0,0.37747345663655,0.4910318962034451,0.1277836617292813,-0.7746436614603905
-5100.8039894104,-1380.0,-1240.0,-16664.0,-8039.0,-1222.0,362.0,0.6195985575495748,0.1206036284860421,0.5018623222241742,-0.5913430491772488
-5100.819583654404,-892.0,-1968.0,-16572.0,-7323.0,-1244.0,1987.0,0.7087460540769721,-0.20963907491495443,0.6575161100951739,-0.1462978265882142
-5100.83518075943,-1620.0,-2884.0,-16712.0,-6346.0,-881.0,4422.0,0.5785421379276623,-0.2975640947548416,0.632905334267107,0.41973258392822327
-5100.850813627243,-2628.0,-3912.0,-15568.0,-4887.0,-1007.0,1780.0,0.40114998185097533,-0.3714947079693682,0.4080004450884092,0.7311675668541213
-5100.866422176361,-1420.0,-2068.0,-16668.0,-3131.0,-818.0,5378.0,-0.012663490759692867,-0.20843542243634958,0.3105903654434877,0.9273229941984834
-5100.882026672363,-1136.0,-348.0,-15772.0,-2909.0,324.0,5938.0,-0.48047990038610483,-0.061214803331037106,0.15852567993085212,0.8603844617265949
-5100.897613525391,-3964.0,-1948.0,-15612.0,-3538.0,106.0,1351.0,-0.5718323797685292,0.09264226606159533,-0.0990018958027971,0.8090882304265002
-5100.913227796555,-2204.0,-996.0,-15672.0,-2884.0,39.0,912.0,-0.592229924925495,0.21852066966134454,-0.3018931166153306,0.7144039327255853
-5100.928876161575,-2016.0,-1344.0,-15436.0,-2494.0,401.0,668.0,-0.5612452266813418,0.297299487314947,-0.4787859496664587,0.6061194806073026
-5100.944537639618,-2768.0,-2196.0,-15840.0,-1233.0,-319.0,-85.0,-0.5346621595678953,0.3758815952862302,-0.5231685740086977,0.5469406225734005
-5100.960161924362,-1320.0,-1460.0,-14632.0,-1485.0,606.0,-4940.0,-0.2025365115571237,0.5846387826941536,-0.41941595797552383,0.6642790900304201
-5100.975781679153,-1276.0,-1248.0,-15652.0,-1071.0,-156.0,-2454.0,-0.011007425519064964,0.6840991399563463,-0.34438265876528973,0.6428746282411366
-5100.991370677948,-792.0,512.0,-15040.0,-801.0,1161.0,-894.0,0.12059452939173163,0.6400418891332094,-0.33364001371717195,0.6815333307200644
-5101.006960391998,-3544.0,-2376.0,-14020.0,-3135.0,1024.0,-5452.0,0.5678406386443641,0.6162085747572493,-0.17911096345064695,0.5155223217973992
-5101.022576332092,-3088.0,-4768.0,-14808.0,-2405.0,69.0,-2728.0,0.7823943238070411,0.5116254304384558,-0.13085868659452587,0.33011292786854546
-5101.0381717681885,-3452.0,-6212.0,-14100.0,-1055.0,-920.0,-2846.0,0.8682242989734457,0.480728448774502,-0.09355170067502247,0.07959148517109776
-5101.053839683533,-628.0,-6900.0,-13736.0,-364.0,1009.0,-6748.0,0.806050799234525,0.4306831540890046,0.2262746134018001,-0.33703698486545375
-5101.069452047348,-1620.0,-9428.0,-14492.0,2942.0,1854.0,-6484.0,0.3937348640705723,0.47472612233437456,0.43257129674085004,-0.6576397485132995
-5101.085050582886,-4672.0,-10064.0,-14996.0,5732.0,868.0,-8480.0,-0.27050876183995815,0.298928118373036,0.3611120200393665,-0.8408716303912609
-5101.100709676743,-1252.0,8820.0,-32256.0,23355.0,-5782.0,32511.0,0.4602116668340736,0.09487321245376766,-0.5626929674212423,-0.6801330161690305
-5101.116299390793,-3512.0,29048.0,-22536.0,16470.0,7184.0,32767.0,0.7684757990074597,-0.12492230301090941,-0.4465660446097893,0.4409287157260962
-5101.1319324970245,-32768.0,-7012.0,-13072.0,-10866.0,1024.0,-32768.0,0.6142833574814262,0.1208593030143862,-0.36313265361347985,-0.690060621594839
-5101.147531270981,864.0,-5624.0,-15956.0,-16581.0,-4068.0,-32768.0,-0.38899306204157513,0.007526608132966599,0.2259257025109591,-0.8930763264125086
-5101.1631295681,20200.0,-9172.0,-21088.0,7385.0,3832.0,7420.0,0.07802705008737694,0.14452396903662007,-0.34716451060941544,-0.9233100261569183
-5101.17871427536,10892.0,-568.0,-16716.0,26978.0,12668.0,32767.0,0.691686085860984,0.08918051457471714,-0.7133038479838849,0.06938886724744156
-5101.194307804108,-11732.0,4764.0,-13856.0,17580.0,5226.0,14357.0,0.3500702381707159,0.09935395358820535,-0.17796555616263576,0.9142799795867865
-5101.209986448288,-11892.0,-164.0,-13880.0,-3349.0,1808.0,-32768.0,0.9915117588739446,0.11859056507760032,-0.034735345017955624,-0.04042481534596933
-5101.225566148758,804.0,-7496.0,-20192.0,-4772.0,4602.0,-26112.0,0.37678927040647964,-0.0779616995205296,0.2545688784323398,-0.8872127733797143
-5101.24117064476,940.0,-10564.0,-20204.0,10316.0,4521.0,7771.0,0.6088221362766685,0.5032576666075245,-0.2197917548075408,-0.5725023247977996
-5101.256796121597,-2428.0,-1692.0,-14688.0,12662.0,4287.0,13723.0,0.42110032868457975,0.5785816782654916,-0.6299815821455184,0.30172994699674016
-5101.272380828857,-4504.0,1196.0,-14660.0,9519.0,5013.0,5653.0,0.04595829606879033,0.3332220651612824,-0.32973331493630387,0.8821149762549211
-5101.288020610809,-5660.0,688.0,-15976.0,9287.0,3339.0,-3606.0,0.11022153223833168,0.16018628938385687,0.3709826378342072,0.908054760986384
-5101.303606748581,-4496.0,-184.0,-14612.0,3795.0,1962.0,-18684.0,0.7564850713546272,-0.2892378565273997,0.48852350833866337,0.3246791970076061
-5101.319279432297,1408.0,-3460.0,-13948.0,-1353.0,1819.0,-20110.0,0.5983496532394244,-0.6344154013511115,0.03096703960517265,-0.4884013036989771
-5101.334877252579,4496.0,-5488.0,-16236.0,1417.0,3433.0,-2333.0,0.5304570053304968,-0.392916709372508,0.019311249131360498,-0.7509053872816922
-5101.350476264954,1996.0,-1796.0,-18384.0,10517.0,2939.0,13171.0,0.9734349432413006,0.1716285757466439,-0.045731386901840816,-0.1444876586979616
-5101.3660800457,-4076.0,1852.0,-16540.0,7838.0,3083.0,2407.0,0.7138417296763546,0.6887216303309742,0.06463859999866511,0.10915288487771561
-5101.381690502167,-8332.0,-1368.0,-16360.0,1450.0,-61.0,-19195.0,0.41412376528008943,0.34346616358729964,0.6283276323641437,-0.5619046964642075
-5101.397359609604,-756.0,-2676.0,-15388.0,268.0,-621.0,-20641.0,-0.27759069843694195,-0.39250050699827754,0.5878600702942732,-0.6506206989490866
-5101.412943601608,4172.0,-3912.0,-15072.0,520.0,3024.0,-8459.0,-0.7040044726231284,-0.5249863710939534,0.15383224692135686,-0.4528826034408472
-5101.428530454636,968.0,-6512.0,-15528.0,3776.0,2886.0,-740.0,-0.5521547389132522,-0.6021675041190278,-0.19038048746085084,-0.5443112264806483
-5101.444106340408,-724.0,-4332.0,-16784.0,5478.0,2120.0,1147.0,-0.15456870827960623,-0.6955076147790101,-0.4365411969618741,-0.5493718736523379
-5101.459766149521,-1056.0,-1780.0,-16820.0,4252.0,2282.0,-2162.0,0.07887997863138295,-0.5095872607839412,-0.7286309613002604,-0.4507723315072592
-5101.475354671478,-3012.0,-2892.0,-15488.0,3027.0,636.0,-8496.0,-0.06307049634923512,0.06001891832168955,-0.9587318641351038,-0.27065301517955515
-5101.490973949432,-96.0,-2756.0,-14800.0,1178.0,1129.0,-11103.0,-0.16930856762069935,0.7209891197937116,-0.6677639515034305,-0.07483717753790574
-5101.506644964218,1408.0,-4380.0,-15232.0,445.0,2131.0,-8201.0,-0.10169513256742677,0.9693853053233277,-0.14957906717809882,0.16606123116917498
-5101.52224779129,112.0,-6704.0,-15624.0,1131.0,1720.0,-5180.0,-0.08997539531022532,0.9011498895885403,0.26053850853282556,0.334593769076504
-5101.537847995758,676.0,-4768.0,-15948.0,1927.0,1791.0,-2998.0,-0.18394164541143018,0.7231484306529563,0.5085882315290498,0.42960427032055437
-5101.5534491539,-460.0,-4476.0,-15932.0,1084.0,2274.0,-3855.0,-0.19367909666067012,0.4171344945248561,0.7015703988156652,0.5443217766173131
-5101.569091320038,-656.0,-3432.0,-14620.0,313.0,872.0,-7949.0,0.0977253022440597,-0.0952354874756923,0.8126659063248072,0.5665281033839842
-5101.584731340408,1472.0,-4260.0,-14964.0,-1567.0,1358.0,-8237.0,0.31781200599468207,-0.610532014402687,0.5450631773749729,0.4786985699842151
-5101.600321769714,2924.0,-4172.0,-16480.0,320.0,2518.0,-2453.0,0.30337565789759197,-0.7871343836409731,0.4755658668536754,0.24943892753349622
-5101.615873813629,108.0,-1560.0,-17940.0,1902.0,3301.0,2160.0,0.23332709804179244,-0.6716835296152857,0.7031352955974663,0.0006763490303335719
-5101.631467342377,-3928.0,-4980.0,-15884.0,-2685.0,2695.0,-10744.0,-0.0631173314132282,-0.982490692531449,0.09086493114871515,-0.14990599004604724
-5101.6470782756805,-632.0,-6076.0,-16376.0,2009.0,-579.0,-6099.0,0.029816942573079538,-0.9146592629537571,-0.3966714115304147,-0.07184131055981571
-5101.662688732147,5084.0,-528.0,-14184.0,310.0,1709.0,-2641.0,0.0938375776689771,-0.7824243778211007,-0.583168367390074,-0.1972847112273972
-5101.6782746315,2324.0,-4852.0,-15380.0,-2823.0,4283.0,-758.0,0.09667807758131282,-0.6317028620120789,-0.5022669033822565,-0.5825227902904135
-5101.693872928619,-1536.0,-7832.0,-17416.0,2045.0,573.0,3241.0,0.3782940304589938,-0.6891876140961839,-0.4004795870457501,-0.47066990498136235
-5101.709500312805,1496.0,-2336.0,-15648.0,1415.0,1158.0,932.0,0.5335376672614595,-0.6178598611489475,-0.35869779801130364,-0.4526838182396687
-5101.725142478943,1496.0,-3284.0,-15772.0,-78.0,1551.0,-329.0,0.5594139984146258,-0.5449581614701937,-0.2983879772914466,-0.548672211463918
-5101.740739107132,68.0,-4348.0,-15552.0,485.0,442.0,-3024.0,0.43358136383517665,-0.40706363673690565,-0.4285680270094168,-0.6801733917219993
-5101.756328344345,1640.0,-4464.0,-16224.0,-214.0,244.0,-2328.0,0.29082305577986645,-0.30744947985903043,-0.4794916374762011,-0.7687551867478123
-5101.771972894669,2672.0,-4588.0,-16360.0,891.0,423.0,2029.0,0.45971228486446725,-0.33513339455417523,-0.46531740658830123,-0.6781076124961466
-5101.787568092346,1380.0,-4068.0,-16240.0,1284.0,193.0,4603.0,0.7174279427968139,-0.4238746644637781,-0.3683015523492556,-0.4122879846141285
-5101.8031623363495,348.0,-3256.0,-16124.0,2121.0,-130.0,4858.0,0.8770068535041601,-0.41033467766926407,-0.24793654703252305,-0.03181037337698831
-5101.818795919418,448.0,-1876.0,-15376.0,799.0,103.0,621.0,0.9058690341095559,-0.361177067358982,-0.2193149129809107,0.029212805403814615
-5101.834408283234,724.0,-4168.0,-15792.0,-2016.0,553.0,-2042.0,0.8313469020421855,-0.46813198486119145,-0.23761243579955266,-0.18235981895194336
-5101.850008249283,2064.0,-5328.0,-15912.0,418.0,231.0,2367.0,0.8715854341571067,-0.4730803001482831,-0.1281020506306056,-0.011123183043159615
-5101.865604877472,1156.0,-3844.0,-15584.0,626.0,900.0,3167.0,0.873824127636836,-0.441776096789413,0.06757433538741024,0.1915697874462034
-5101.881205320358,-532.0,-4464.0,-16220.0,346.0,-228.0,-6.0,0.8878981274834952,-0.4116411224143462,0.05572938291418355,0.19769354422632093
-5101.89678478241,948.0,-4020.0,-16152.0,545.0,-193.0,-955.0,0.9204171621505515,-0.3692822339105416,0.015792521318187966,0.12733214679404378
-5101.912388801575,1300.0,-4724.0,-15876.0,189.0,123.0,-214.0,0.9282635768819001,-0.35593366651261893,0.02083590800061472,0.10584810728158964
-5101.92809677124,1304.0,-4412.0,-15448.0,537.0,-302.0,1004.0,0.9312169619423598,-0.30651326595745815,0.03231905745457677,0.19452523257454687
-5101.943745613098,1520.0,-3996.0,-15804.0,611.0,74.0,2665.0,0.8773994142872918,-0.24406295048789817,0.11667499926172065,0.39622025258022425
-5101.95938372612,1080.0,-3800.0,-15864.0,442.0,-648.0,3269.0,0.7487894245688238,-0.14859099681338814,0.14585270894775096,0.6292551951414432
-5101.974987030029,1112.0,-3536.0,-15996.0,809.0,-682.0,3587.0,0.5428125331419665,-0.012296152864611647,0.1828147220800013,0.8196231669978243
-5101.990649700165,912.0,-3108.0,-15572.0,-670.0,162.0,767.0,0.4826846531077362,-0.04334867788948898,0.14308040912395625,0.862939403610948
-5102.006252288818,256.0,-4228.0,-15900.0,410.0,-92.0,1376.0,0.37880924539626426,-0.002252668118481864,0.1740015552928665,0.9089675130852171
-5102.021854162216,1756.0,-2212.0,-15696.0,504.0,1068.0,2535.0,0.1569429974189659,-0.03083831060231637,0.2429536756380857,0.9567608926237993
-5102.03749871254,-336.0,-3332.0,-16040.0,-365.0,-589.0,-445.0,0.20508875494196704,0.003785123408820557,0.2029746029367736,0.957457876880123
-5102.053080558777,-1104.0,-4768.0,-15816.0,-172.0,-2037.0,-4008.0,0.5363380012417973,0.09284711698412243,0.14303600480198211,0.8265964327421078
-5102.068724393845,2084.0,-4528.0,-15792.0,-1337.0,-1099.0,-3815.0,0.785256855162637,0.05840706242917389,0.02443222645080031,0.6159247947510611
-5102.084312200546,1664.0,-6160.0,-16180.0,68.0,-486.0,1062.0,0.7250899172174986,0.0908510118223798,-0.01087299185683172,0.6825485210946195
-5102.099925994873,440.0,-3628.0,-15664.0,778.0,-928.0,95.0,0.7083800654198356,0.19423222798881792,-0.024192529299622643,0.6781491326046039
-5102.11549282074,352.0,-3120.0,-15072.0,-1333.0,163.0,-4286.0,0.917012595568777,0.10379121713420061,-0.01914028038199956,0.3846413036595448
-5102.13112950325,-64.0,-6144.0,-16288.0,-832.0,-352.0,-1661.0,0.9666344632542753,0.05091788892422872,-0.059639543392026255,0.243861247230079
-5102.146731138229,1252.0,-4500.0,-15520.0,-681.0,189.0,-1153.0,0.9883035544716168,-0.004684845080589817,-0.052980288283860796,0.1429238451018513
-5102.162349939346,516.0,-4664.0,-16116.0,-1214.0,1506.0,891.0,0.967068762898605,-0.13033576168296374,0.0609112739587387,0.20995336090905203
-5102.177929639816,164.0,-4084.0,-16028.0,-410.0,595.0,64.0,0.9561006729332312,-0.1754651764222974,0.10416354213784947,0.21031745426619058
-5102.193538188934,576.0,-3948.0,-15844.0,-870.0,995.0,418.0,0.9192757453731759,-0.26091845351071646,0.1763808212527715,0.23610055163079513
-5102.209177494049,412.0,-3952.0,-15616.0,-1710.0,409.0,-1108.0,0.8823483288694864,-0.4170459262874551,0.14643183448232033,0.16152968692598169
-5102.22477889061,876.0,-4680.0,-15736.0,-874.0,-183.0,1051.0,0.8319171495729748,-0.4652555012400503,0.1571720408357824,0.2583565837979774
-5102.240374088287,1156.0,-3312.0,-15400.0,-1761.0,-441.0,894.0,0.7347811782896766,-0.5624567447119168,0.11992816633577748,0.3596613202425952
-5102.256018877029,-700.0,-5280.0,-16144.0,-1730.0,-1245.0,329.0,0.641158582124803,-0.6202280904675298,0.0019341791252837518,0.45191708013066406
-5102.27162861824,1008.0,-3940.0,-15376.0,-932.0,-1365.0,971.0,0.5449454412374146,-0.610155737263772,-0.05788243796459987,0.5721835944292151
-5102.287277698517,1664.0,-3032.0,-15208.0,-2343.0,-354.0,-813.0,0.4482836035061406,-0.6838572550010711,-0.22963850666649988,0.5278704593609396
-5102.302867174149,588.0,-4588.0,-15688.0,-2366.0,-949.0,127.0,0.2753532073551973,-0.7178198999945207,-0.35945359421968104,0.5288745748980705
-5102.318479061127,1320.0,-3652.0,-15676.0,-2813.0,-836.0,115.0,0.06543246554445724,-0.7270592695986144,-0.4865404791615654,0.4799810132502504
-5102.334074258804,604.0,-5060.0,-16280.0,-2983.0,-1315.0,1707.0,-0.23907641481973335,-0.7251166892488897,-0.48635615727174025,0.42485991000980344
-5102.349661588669,956.0,-4152.0,-16028.0,-1819.0,-1415.0,4045.0,-0.5225655767823241,-0.7472235416065837,-0.24870620221007145,0.32669163107327054
-5102.365329027176,1108.0,-2336.0,-15592.0,-3334.0,-788.0,2858.0,-0.7812697902689871,-0.5917060295181074,-0.11325487208635841,0.16332428904995155
-5102.380924701691,-588.0,-4456.0,-16384.0,-3738.0,-1363.0,1575.0,-0.9462983270126696,-0.3121835411859682,0.007165953625412702,0.08372312711700503
-5102.396554231644,792.0,-3832.0,-16328.0,-3674.0,-2248.0,2100.0,-0.9782290591320689,0.008023678196719728,0.20596093041813449,-0.024158302901470287
-5102.412143707275,1424.0,-3232.0,-15808.0,-3629.0,-2118.0,5077.0,-0.8033917257154788,0.3508143459420213,0.33904897056856836,-0.3413749043054728
-5102.427744150162,280.0,-3696.0,-15776.0,-3970.0,-1509.0,6110.0,-0.3816221580147788,0.6416890631991239,0.3155240807269223,-0.5856997773298236
-5102.443338394165,-612.0,-3660.0,-15960.0,-3397.0,-2706.0,6333.0,0.1718569405579255,0.6571591053098993,0.18670947582375969,-0.7097511352072495
-5102.458936452866,328.0,-2844.0,-15944.0,-4132.0,-2347.0,7018.0,0.7088770553280711,0.45378466656490624,0.004078448969943143,-0.5399594087280815
-5102.474658727646,-312.0,-3580.0,-16216.0,-4188.0,-2656.0,8065.0,0.9680296270622359,0.05603947102857968,-0.21758099217235294,-0.11152009084411696
-5102.490257263184,-360.0,-2652.0,-16100.0,-4269.0,-2728.0,8159.0,0.7789659861747026,-0.3725400473361899,-0.34234274610691506,0.3704421003363398
-5102.5058624744415,-180.0,-2188.0,-16368.0,-4288.0,-2800.0,9340.0,0.18591071062048825,-0.6245405262847613,-0.2693959338351202,0.7090924971663725
-5102.521493434906,200.0,-1932.0,-16436.0,-3937.0,-1722.0,9157.0,-0.47666393895207637,-0.597770901337813,-0.031492624251672395,0.6437931759767364
-5102.537094116211,-612.0,-2144.0,-16576.0,-3256.0,-1627.0,10756.0,-0.8916104072573293,-0.2846712013497443,0.2943077061217976,0.19332915690562152
-5102.552721500397,-944.0,-800.0,-15804.0,-4240.0,-2684.0,8420.0,-0.8130853568380082,0.23297353273571025,0.4871208092690712,-0.21755195406453356
-5102.568339586258,196.0,-1784.0,-15612.0,-6020.0,-1502.0,8443.0,-0.34417078215206354,0.731037182663666,0.39596100193618566,-0.43628659757285543
-5102.583980321884,-996.0,-1092.0,-17424.0,-2612.0,-2138.0,13739.0,0.26408730848864376,0.7571596966836811,-0.19936877456108704,-0.5632221399617654
-5102.599547386169,-1412.0,1244.0,-16524.0,-3790.0,-2035.0,7590.0,0.6779719166552897,0.34848441571374217,-0.4468214016974628,-0.4682556216603485
-5102.615128040314,-4312.0,-932.0,-16616.0,-5526.0,-2761.0,2219.0,0.7193095544457173,-0.15413969859162957,-0.3922615471373925,-0.552236902822117
-5102.63069152832,-2368.0,-1252.0,-15944.0,-7072.0,-3447.0,571.0,0.4395002696719462,-0.6456612926440505,-0.21448417526184738,-0.5864789396915676
-5102.64626955986,-1096.0,-2896.0,-17496.0,-7737.0,-2409.0,8350.0,0.27063126142733696,-0.8575400062395333,0.3925906756325538,-0.19301922039870612
-5102.661848068237,-3108.0,-2504.0,-18960.0,-3803.0,-3080.0,15273.0,0.20266686631813186,-0.27674637771417715,0.887623425546419,0.3073470971720916
-5102.677443742752,-3560.0,2008.0,-18300.0,-4056.0,-2784.0,15919.0,-0.06048713987720791,0.5435690950548788,0.6314135105581794,0.5497189495508509
-5102.693034172058,-7004.0,2520.0,-18612.0,-6815.0,-3209.0,10400.0,-0.039408108122125814,0.8699962611976322,-0.1143916394128815,0.4779833253878315
-5102.708700418472,-6620.0,1872.0,-20532.0,-10146.0,-3909.0,5190.0,0.327637006345505,0.7003091004032966,-0.6327797128612691,0.042555739407166886
-5102.724290132523,-3324.0,2260.0,-21636.0,-8517.0,-4516.0,12140.0,0.3289582847036624,-0.1169489416510169,-0.9127612025688642,-0.21207635195035873
-5102.739912986755,-3172.0,2344.0,-20388.0,-9441.0,-3295.0,12099.0,0.114257974986847,-0.8329855847976992,-0.4182059190518101,-0.34377891142589156
-5102.755500555038,-3672.0,716.0,-18732.0,-10867.0,-4775.0,8766.0,-0.3600893253721294,-0.8614786912939969,0.30506501479071807,-0.18741792590402392
-5102.7710750103,-1884.0,-1004.0,-18780.0,-9527.0,808.0,-815.0,-0.8518126727989788,-0.4375943346793955,0.286971944486367,0.023947271102790074
-5102.786671638489,-5708.0,-12884.0,-16132.0,-14723.0,-364.0,-30537.0,-0.4293471667135402,-0.03429818189974858,-0.28270680804243653,0.8570656368329581
-5102.802283525467,3248.0,-26492.0,-13252.0,-19738.0,-1799.0,-32768.0,0.5498061495492574,0.47249512664962073,-0.5130820318815354,0.45957413087606813
-5102.81786441803,15816.0,-21428.0,-14856.0,-11617.0,-26129.0,32767.0,-0.3708174934385484,-0.1284480325489016,-0.9131017563065955,0.11063757103298633
-5102.833436965942,21684.0,-26780.0,-26452.0,9031.0,15086.0,-2156.0,0.5179368731617708,-0.2142471386610232,-0.7267790511616387,0.3970286762786286
-5102.848981618881,3792.0,-5504.0,-16868.0,24742.0,6888.0,32767.0,0.07482899748447419,-0.37495561143221545,0.27975630956507386,0.8806505083456732
-5102.864560127258,-12208.0,1660.0,-8996.0,13565.0,5323.0,2715.0,0.1101588166067929,-0.3849502444897017,0.8842574821451472,0.24034776816403855
-5102.880148649216,-15536.0,-1956.0,-10696.0,-3682.0,1688.0,-32768.0,0.1782717187109108,-0.9784782884990042,-0.09106900931586313,0.050058653459162473
-5102.8957641124725,-1480.0,-8620.0,-16832.0,-5447.0,525.0,-32768.0,-0.04541057577182944,-0.2624673986541497,-0.9471762923349565,-0.17862199050060848
-5102.911381959915,6672.0,-14440.0,-20852.0,11926.0,7914.0,-26568.0,0.16610161702421936,0.713404421991074,-0.6293257088440717,0.2596411671777564
-5102.927053689957,8412.0,-5376.0,-22000.0,23981.0,13700.0,-2311.0,-0.19960211156500146,0.33532157136462193,0.09795087861013399,0.9154911611893674
-5102.942667722702,1476.0,3752.0,-15448.0,20526.0,10958.0,17519.0,-0.8397096443610953,-0.2737368862184224,0.3787472001288449,0.2765978826472936
-5102.958268880844,-7144.0,3492.0,-14276.0,9831.0,12167.0,-7516.0,-0.4547822622439886,-0.8465835131200992,-0.2506982392351164,0.11670407921698019
-5102.973919868469,-8596.0,-236.0,-16124.0,8716.0,4371.0,-11745.0,0.24290003249508532,-0.5883554581227607,-0.7222525284738123,0.27053412765162854
-5102.989527463913,-4168.0,-984.0,-15896.0,9992.0,3105.0,-12261.0,0.7190496078938637,0.18708217321586992,-0.6085378411502633,0.278656809966462
-5103.005188465118,-252.0,-2168.0,-15860.0,7520.0,5087.0,-10207.0,0.7162741193784484,0.6924353787113495,0.03851481267084011,0.07746767985701097
-5103.020780801773,524.0,-4340.0,-19656.0,8089.0,6509.0,284.0,0.15070203012082542,0.8558472634991094,0.35776619512236696,0.34178605779963056
-5103.036351919174,-1924.0,-3340.0,-20056.0,15645.0,4466.0,15321.0,-0.7365354188569462,0.6418489465234238,-0.1191376701551935,0.17706417527548052
-5103.051942110062,-3536.0,-52.0,-16376.0,14398.0,3231.0,3777.0,-0.9425295590720769,-0.2240025477820116,-0.18999421759739787,0.15925792332602035
-5103.067542552948,-1276.0,600.0,-16892.0,8983.0,2966.0,2379.0,-0.5715870197341542,-0.7946851610549656,-0.20009972561421124,0.04151955538765415
-5103.083124399185,516.0,-1528.0,-19208.0,10501.0,4165.0,4790.0,0.14488854525710965,-0.9672730814654821,-0.025700970129435476,-0.2067112852747887
-5103.09867811203,-384.0,-2360.0,-18808.0,13963.0,3630.0,7956.0,0.8423107182999916,-0.42437951212812103,0.2512019717664803,-0.21751379934036927
-5103.114250421524,-1004.0,964.0,-17860.0,14664.0,3188.0,10305.0,0.8049936204053136,0.500647138263372,0.3138009453984056,0.05354139260897963
-5103.129865884781,-2292.0,352.0,-16272.0,10976.0,3888.0,4532.0,0.1335624594506286,0.9311433015420043,0.2976077382862443,0.1629811508460453
-5103.14550948143,-2808.0,-2460.0,-17248.0,10566.0,3013.0,5051.0,-0.6020218525606342,0.7858999745537399,0.049919530819173843,0.13205665253475968
-5103.161142110825,-1396.0,-1916.0,-16572.0,12710.0,2194.0,8537.0,-0.941506812031895,0.07756978272213814,-0.3002822776214643,-0.13182718024915863
-5103.1767518520355,-1308.0,1300.0,-16600.0,15108.0,2035.0,16840.0,-0.3588012359796804,-0.7123294777936725,-0.34031643052783506,-0.49802923130920823
-5103.192335128784,-4016.0,6476.0,-14368.0,14480.0,726.0,16488.0,0.5919979624084193,-0.751383385792576,0.014989774101372338,-0.29109573465022537
-5103.207953453064,-5152.0,8544.0,-12556.0,5979.0,543.0,2818.0,0.9130145833645998,-0.36792825913282945,0.06574907737116785,-0.1634326329711786
-5103.223542690277,-3508.0,6640.0,-13388.0,-1195.0,779.0,-5266.0,0.717765605265385,-0.43556331805460263,-0.021732862520060927,-0.5427935284709691
-5103.23913693428,-832.0,2372.0,-15144.0,-3561.0,978.0,-712.0,0.5229363420423687,-0.5807261956035161,0.172071500875238,-0.5997383316895433
-5103.254728078842,-1388.0,-796.0,-15764.0,-3868.0,643.0,3069.0,0.43815082003957545,-0.6215499755408007,0.5130950555078182,-0.3980363687118383
-5103.2703421115875,-3572.0,-4236.0,-17580.0,-4697.0,-3.0,511.0,0.18592871260828822,-0.7196244752054912,0.6507727942250104,-0.15513187554341662
-5103.285968780518,-608.0,-3396.0,-18448.0,-2499.0,-1022.0,5650.0,0.14329256147774647,-0.3976838348988029,0.8975541230775986,0.1253451452260166
-5103.301549434662,-1896.0,-3764.0,-17424.0,-621.0,-153.0,11784.0,0.003306806241372179,0.361698272733587,0.904144406867073,0.22734624708802698
-5103.317142486572,-3324.0,1080.0,-16996.0,1328.0,-1542.0,14550.0,-0.12637937449225756,0.9475666911880692,0.28957989743605445,0.04784456557190335
-5103.332731723785,-1716.0,7328.0,-18384.0,-1262.0,-208.0,14797.0,-0.047790007304438734,0.8162711350607824,-0.5723932250680812,-0.0615105288920901
-5103.34833574295,-3288.0,10436.0,-18808.0,-2332.0,-2223.0,12588.0,0.0496718313253148,0.12246470266365236,-0.9572501418711198,-0.25730773727584233
-5103.36395740509,-2976.0,15332.0,-17332.0,-7378.0,-1483.0,7427.0,0.12586696877480272,-0.4139481202434841,-0.6446884549691386,-0.6302231794752029
-5103.379568815231,-5340.0,4132.0,-12876.0,-24538.0,1631.0,-31043.0,-0.660465911027426,0.32039113048548973,-0.11084780244120078,-0.6699604977690092
-5103.395158290863,-6408.0,-16360.0,-18268.0,-29415.0,-3071.0,-32768.0,-0.4481382025296677,0.5410952733570767,0.6789371224236571,0.21314886905445443
-5103.410794019699,8312.0,-15636.0,-20128.0,-12934.0,-14837.0,28655.0,0.15925284230844092,0.9456211620057868,-0.1047028018153382,-0.26358390215551186
-5103.426384687424,15088.0,-10456.0,-22812.0,10925.0,2416.0,21953.0,-0.0908341064141864,0.4015872541130164,-0.8998906284409426,0.14378351536274708
-5103.4420120716095,10944.0,11320.0,-18200.0,15750.0,3243.0,30703.0,-0.24270729385170997,-0.6828321698621542,-0.5662696553891456,0.3926475196636035
-5103.457586288452,1872.0,12644.0,-19784.0,-5727.0,9485.0,16138.0,-0.33754132687641136,-0.8507051139425356,-0.0008622338820871456,-0.40294654523306384
-5103.473159074783,-32768.0,-15992.0,-25652.0,-3447.0,-4561.0,-18226.0,-0.6351092425366691,-0.4671525610693741,-0.5650779292885627,0.2430877795401756
-5103.488746166229,-2956.0,-1424.0,-14312.0,-11621.0,-1280.0,-22074.0,-0.29334137822882816,0.5389195094128774,-0.6841463165147638,0.394284688762163
-5103.504318475723,2996.0,-8464.0,-14240.0,-5231.0,1849.0,3003.0,-0.035105083898794395,0.3767161655839751,-0.9221522469825845,0.08054686249095078
-5103.519966363907,1416.0,-6208.0,-14752.0,8046.0,169.0,22540.0,-0.19192821540212082,-0.6317939049744806,-0.6939544615250913,0.28710142301819813
-5103.551134824753,-6456.0,-2112.0,-15688.0,-1304.0,235.0,-4332.0,-0.1310127282029157,-0.32883249218369925,-0.9015626753642885,0.24877620369133513
-5103.566730976105,-2088.0,-4236.0,-16252.0,-7804.0,987.0,-10822.0,-0.027412044832718002,0.3840081480768794,-0.9060588345065886,-0.17562377521627506
-5103.5823533535,2368.0,-6352.0,-16300.0,-5506.0,1603.0,-1496.0,0.23181580715783612,0.4797486721548963,-0.6887875168815532,-0.4916039052992959
-5103.597986936569,1928.0,-4972.0,-16552.0,2202.0,926.0,13923.0,0.4992422184568925,-0.1718765718803936,-0.8488973259195719,-0.024268938903143245
-5103.61357831955,-1928.0,-564.0,-15640.0,3446.0,1289.0,10536.0,0.4788805640576455,-0.5728246457659921,-0.46003964373847395,0.4805297667781621
-5103.62917137146,-6276.0,432.0,-15796.0,-1767.0,635.0,-6115.0,0.586993047765094,-0.37373026989071834,-0.7101970003556347,0.10670083377703904
-5103.644760608673,-4388.0,-1064.0,-15796.0,-4163.0,6.0,-15983.0,0.3421043078615082,0.22998305944629305,-0.7239920832443066,-0.5530894125816279
-5103.660349369049,-2328.0,-2788.0,-15472.0,-6681.0,1116.0,-21740.0,-0.22602270349160952,0.6554352436107082,0.030556359943126634,-0.7199893664536593
-5103.676064491272,-1344.0,-4004.0,-16232.0,-7283.0,1160.0,-19085.0,-0.49431628222933516,0.4013250184455392,0.7607541423214941,-0.1258680961695364
-5103.691646814346,748.0,-4296.0,-17052.0,-3796.0,993.0,-10999.0,-0.3837050315610811,-0.1079264270577781,0.8019256676117613,0.4450141107006413
-5103.707287073135,1224.0,-2736.0,-16664.0,-1120.0,1638.0,-3498.0,-0.35187690252576304,-0.3574803920206226,0.6330098834184055,0.5896515091851064
-5103.722861766815,-1484.0,-2572.0,-16484.0,51.0,1259.0,-2987.0,-0.25594115788922217,-0.5667234455125875,0.4849301034296752,0.614948335059418
-5103.738440275192,-2524.0,-2252.0,-15456.0,-567.0,-42.0,-7849.0,0.11470702206662779,-0.7288196332741458,0.0555208056568359,0.6727419129071427
-5103.754015684128,-372.0,-2712.0,-15812.0,-3046.0,633.0,-10406.0,0.38379976581953695,-0.6148068290933995,-0.5652403022323953,0.3939717037925677
-5103.769619464874,452.0,-3972.0,-16348.0,-1906.0,734.0,-5249.0,0.4469345104721401,-0.39944222051574935,-0.7968265958545105,0.07591331870882877
-5103.785213470459,468.0,-4188.0,-16484.0,113.0,771.0,29.0,0.5028481693231293,-0.40133759049842255,-0.7633590099856249,0.05792131675872386
-5103.800812721252,-88.0,-2728.0,-16328.0,1558.0,313.0,2581.0,0.5461626507393353,-0.4897527423851699,-0.6298409783440645,0.25524292793764103
-5103.816418886185,-960.0,-2356.0,-15844.0,-940.0,949.0,-1495.0,0.5823499486790409,-0.46657448819788,-0.6595602375306953,0.09031653948672737
-5103.83207321167,-2272.0,-4096.0,-16228.0,-1604.0,-460.0,-3932.0,0.4884578070241772,-0.298253413510226,-0.801892214019565,-0.17153060712721235
-5103.847695827484,36.0,-3764.0,-15448.0,-2692.0,-15.0,-3840.0,0.3328434182710822,-0.1338380418553893,-0.798095539674967,-0.48409311812590333
-5103.863284826279,608.0,-3868.0,-16260.0,-2164.0,917.0,1793.0,0.43292908090021176,-0.27395154448906595,-0.6384020365033061,-0.5744264983193103
-5103.8789048194885,-1172.0,-3712.0,-16400.0,-833.0,707.0,4423.0,0.6263413294293043,-0.4799869277965968,-0.4315244956680051,-0.4371449391581587
-5103.894492864609,-2240.0,-2544.0,-16380.0,-794.0,371.0,1013.0,0.6411841564317748,-0.5438924845295894,-0.3363611454022766,-0.42417569788564263
-5103.9100868701935,-1884.0,-1680.0,-16100.0,-2044.0,128.0,-3511.0,0.39375818072015223,-0.5190093949231332,-0.3961001462715277,-0.6470613705214936
-5103.925761461258,-1444.0,-2092.0,-15888.0,-2432.0,64.0,-7006.0,-0.09225797516368017,-0.29971110153882946,-0.4819060767768457,-0.8181859536796192
-5103.941379070282,-180.0,-1824.0,-16216.0,-2251.0,279.0,-5251.0,-0.460187562855643,-0.03667050112894579,-0.41248052971963994,-0.7853295448040528
-5103.9569799900055,-168.0,-2128.0,-16524.0,-1662.0,948.0,-3321.0,-0.6249129698659274,0.2035179535099399,-0.32962838370536857,-0.6777974264839449
-5103.972638368607,-724.0,-1776.0,-16440.0,-1056.0,848.0,-4604.0,-0.7877021628177782,0.4094302833615862,-0.2138693654465704,-0.40761751714337174
-5103.988465309143,-1020.0,-912.0,-16204.0,-1066.0,681.0,-6880.0,-0.8377207580300393,0.542486068651849,0.01956148268448908,0.059583095584419606
-5104.004100084305,-664.0,-1052.0,-15784.0,-2108.0,833.0,-10180.0,-0.5075080655599138,0.49930983529282713,0.3177255349952355,0.6262393601359433
-5104.019752264023,-472.0,-2288.0,-15692.0,-2830.0,1244.0,-10885.0,0.12543392423951405,0.1815215352648269,0.414402405017775,0.8829421892742809
-5104.035345554352,168.0,-2712.0,-16348.0,-1552.0,1116.0,-7110.0,0.5531761341667468,-0.15014853135889655,0.35329363896354804,0.7393478124583815
-5104.050931692123,-12.0,-4168.0,-16612.0,-775.0,1846.0,-12382.0,0.8666502038344334,-0.46444494478288595,0.15537710413794809,0.09521697836553275
-5104.066530704498,16.0,-3660.0,-17244.0,1333.0,2581.0,-13664.0,0.6336356150816479,-0.3619077693165718,-0.12181911408882136,-0.6728215047477447
-5104.082166433334,408.0,-1944.0,-16520.0,3166.0,4029.0,-13789.0,-0.020417144153195673,0.12045587190623532,-0.319871603115082,-0.939550786636105
-5104.097765922546,584.0,-828.0,-16048.0,2226.0,2896.0,-7204.0,-0.4525019214241673,0.45372135572340105,-0.3531687847985809,-0.6816529556246708
-5104.113380908966,768.0,-2216.0,-16188.0,1450.0,6165.0,-12715.0,-0.6756446946843438,0.7253129848244886,-0.11272336507025245,0.06869325699899094
-5104.128964424133,-728.0,-1236.0,-15704.0,823.0,-647.0,-389.0,-0.7280975844258787,0.6815013718177771,-0.0448539851583173,0.058462875220992874
-5104.144546031952,144.0,-2520.0,-16360.0,427.0,561.0,-5947.0,-0.6387756140993585,0.5982647906787386,0.24402253022750717,0.41772952948945086
-5104.160130739212,448.0,-2056.0,-15840.0,-213.0,-991.0,-5471.0,-0.36607835497643,0.47676679877225303,0.5192216350127844,0.6075269140876476
-5104.175789833069,1728.0,-2568.0,-15508.0,-632.0,1185.0,-7997.0,0.02495833878179341,0.05875658635906415,0.6373278178647519,0.7679440067221285
-5104.191359758377,1700.0,-2448.0,-16732.0,1301.0,-399.0,1940.0,-0.08770844652363662,0.19221001681623182,0.6991244872646222,0.6830720965980774
-5104.2069590091705,1980.0,-2252.0,-16304.0,1071.0,854.0,3421.0,-0.34433676506731875,0.3254930589276718,0.6656560395925574,0.576531436928493
-5104.222624540329,972.0,-2720.0,-16228.0,790.0,847.0,5828.0,-0.6295027448379328,0.5307030603381188,0.4568126244639466,0.33675329563290823
-5104.238213777542,904.0,-2908.0,-16160.0,1818.0,654.0,8182.0,-0.7901839203200854,0.5950240508696208,0.07701638860914665,-0.1249969073213126
-5104.2538096904755,1244.0,-2592.0,-16252.0,3106.0,1067.0,11117.0,-0.588600905486238,0.3286617894355774,-0.42719827683392897,-0.6025213975419518
-5104.269393920898,1028.0,-1964.0,-16456.0,4069.0,1805.0,12897.0,0.02587579335424187,-0.1711104057015809,-0.7099986382761266,-0.68260794459556
-5104.285010814667,600.0,-1952.0,-15852.0,3055.0,2452.0,12389.0,0.6359033221410229,-0.5197577510144402,-0.4640759948651376,-0.33183175878802573
-5104.300605535507,-1036.0,-3428.0,-16116.0,2997.0,1298.0,8940.0,0.8331962147883798,-0.5216500360803297,-0.05650350029698864,0.17456420587822374
-5104.316236257553,-848.0,-3372.0,-16236.0,4263.0,-122.0,6500.0,0.767581624987097,-0.200423627015969,0.24449468790463313,0.5575582178592181
-5104.331861972809,1416.0,-1952.0,-15940.0,3779.0,380.0,7626.0,0.3647006036546917,0.15785198143429582,0.47140399275162775,0.7873083876531441
-5104.347447633743,868.0,-3400.0,-16044.0,2164.0,1133.0,6868.0,-0.15499164177148397,0.36408281634505835,0.47398584345430633,0.786612175108001
-5104.363070726395,-1004.0,-5248.0,-16184.0,3544.0,-45.0,5123.0,-0.5424232022511356,0.4667859595506866,0.4877996062939217,0.49993947806255845
-5104.378672838211,1272.0,-3824.0,-15664.0,3402.0,-177.0,6132.0,-0.8024301592605843,0.49014689015982404,0.3368370035230148,0.049017329928538904
-5104.394265413284,576.0,-3240.0,-15436.0,1659.0,826.0,5465.0,-0.8224833295134506,0.47455460818141854,0.0468717255448239,-0.3100357041869523
-5104.40985250473,-308.0,-4428.0,-15960.0,2280.0,-140.0,4821.0,-0.7123946465843471,0.29658658507606067,-0.18527703406794285,-0.608442836853118
-5104.425452470779,416.0,-3784.0,-15636.0,2228.0,-203.0,3506.0,-0.5519321743874589,0.08546409680220872,-0.3588804596260284,-0.7478446220521511
-5104.441027164459,484.0,-3588.0,-15472.0,1261.0,221.0,1547.0,-0.4465945558117861,-0.009022023594433203,-0.45666152540052224,-0.7693712738518402
-5104.4565970897675,-428.0,-4052.0,-15820.0,456.0,92.0,-433.0,-0.47086777667152724,-0.0033014769428175257,-0.4907246543059574,-0.7331179651316062
-5104.472191333771,160.0,-3644.0,-16100.0,636.0,4.0,-356.0,-0.49222352654099494,-0.013867198572714278,-0.5308796369974634,-0.6897032055491206
-5104.487803220749,80.0,-3404.0,-16076.0,338.0,70.0,-1453.0,-0.5711125396744654,0.04281361589460996,-0.5515891930303162,-0.6064213250313478
-5104.503379583359,-168.0,-4020.0,-15776.0,-155.0,-171.0,-3166.0,-0.7191355153319249,0.18693211539236587,-0.5042911731184542,-0.43998966753554053
-5104.5189640522,632.0,-4256.0,-15480.0,-648.0,-80.0,-3447.0,-0.8073166509092891,0.35989711371096306,-0.4000380002976123,-0.24224675647986443
-5104.534611940384,908.0,-4560.0,-15508.0,-866.0,4.0,-2162.0,-0.8089732891495116,0.48673961536684485,-0.3079493240634422,-0.11753288086329626
-5104.55021071434,348.0,-4600.0,-16044.0,-584.0,97.0,-1734.0,-0.7891277348720959,0.5685706949775897,-0.2322968984017795,-0.006552393551167148
-5104.565805673599,148.0,-4152.0,-16120.0,-476.0,-55.0,-2011.0,-0.7553730454072032,0.6321120266363427,-0.1264912047138943,0.11766870095301801
-5104.581424474716,396.0,-3748.0,-15860.0,-651.0,-240.0,-2532.0,-0.6783228883479726,0.6878453017708591,0.02170250548174056,0.2574410636064788
-5104.597013473511,376.0,-3604.0,-15784.0,-767.0,167.0,-2642.0,-0.5571536510876294,0.704623668904577,0.1489096989546862,0.41341407312330564
-5104.61260509491,112.0,-3636.0,-15792.0,-973.0,-58.0,-3976.0,-0.33239981838519594,0.6616339134757856,0.3400639753645934,0.5797477192153795
-5104.628184080124,396.0,-3696.0,-16108.0,-1889.0,87.0,-5447.0,0.04442852767845062,0.4918563014531178,0.49715468874294794,0.7134007990674578
-5104.643805980682,744.0,-4264.0,-15968.0,-1468.0,-45.0,-4300.0,0.3505162171132122,0.2812954496738464,0.5487444075331518,0.7049048352327583
-5104.659418582916,852.0,-4188.0,-15732.0,-1099.0,33.0,-2828.0,0.5314973957983193,0.10666153365299176,0.5334153356644449,0.6493087980124587
-5104.674994945526,576.0,-4300.0,-15864.0,-871.0,-22.0,-1981.0,0.641465546422797,-0.02426775234271792,0.49303096796419943,0.5872422784311595
-5104.690628051758,680.0,-3756.0,-15836.0,-562.0,-115.0,-1389.0,0.7102372893770429,-0.10874064736502882,0.45125769375082536,0.5292494291160562
-5104.706214666367,584.0,-3448.0,-15976.0,-623.0,110.0,-1188.0,0.7496102712034468,-0.1979920996373378,0.4154261391001249,0.4757149280187211
-5104.721812963486,180.0,-3612.0,-16288.0,-799.0,39.0,-2233.0,0.8098114400533355,-0.3261062871979456,0.33924891183042577,0.35038592556006837
-5104.737375497818,364.0,-3680.0,-15844.0,-888.0,-160.0,-2979.0,0.8494428922742749,-0.45587813492106954,0.20860261390869603,0.16464157535707963
-5104.75295996666,952.0,-3608.0,-15736.0,-1195.0,55.0,-2679.0,0.8129843697343849,-0.5756970973124804,0.08621902247625578,-0.013983807664884091
-5104.768547773361,804.0,-3868.0,-16064.0,-1174.0,160.0,-2002.0,0.7351510663744989,-0.6606139327378849,-0.0015206387533004998,-0.1521178133513766
-5104.784139156342,468.0,-3904.0,-16176.0,-520.0,10.0,-1286.0,0.6829044201494147,-0.6888730251009743,-0.067609992280238,-0.2335045977544995
-5104.799775838852,600.0,-3160.0,-16056.0,-158.0,-63.0,-923.0,0.6518339884499078,-0.692041470941175,-0.12322717915977935,-0.2846157344831516
-5104.815351486206,220.0,-3420.0,-16016.0,-612.0,95.0,-2202.0,0.5501533937483498,-0.6874797138563622,-0.23105680809303483,-0.41390293284417023
-5104.830914735794,340.0,-3580.0,-15812.0,-653.0,-503.0,-2885.0,0.3835414434873487,-0.6569019009290592,-0.39152813592026087,-0.5177659437103168
-5104.8465049266815,928.0,-3696.0,-15532.0,-1365.0,-236.0,-3225.0,0.14477865128281794,-0.5768219200781028,-0.49977571149607414,-0.6297141040573349
-5104.862131357193,928.0,-3992.0,-16112.0,-1284.0,109.0,-2067.0,-0.02806372197839055,-0.4862437099713088,-0.5203743951314473,-0.7014199675755158
-5104.877738237381,948.0,-3736.0,-16316.0,-452.0,-39.0,-625.0,-0.0870245139630616,-0.4582913810541928,-0.5180975203248497,-0.7169175011493132
-5104.8933708667755,892.0,-3256.0,-16004.0,-264.0,45.0,-31.0,-0.09739919171453257,-0.45212952458441097,-0.5031750103626291,-0.73000493107855
-5104.908937692642,668.0,-3088.0,-16084.0,-230.0,57.0,-138.0,-0.11267144791932328,-0.44054458286475273,-0.4944674334660321,-0.7407614815673124
-5104.924577474594,588.0,-3152.0,-15988.0,-434.0,149.0,-407.0,-0.1489657268546953,-0.40868845631220324,-0.4829964343473694,-0.7599324985204463
-5104.940166473389,420.0,-3756.0,-16028.0,-683.0,170.0,-823.0,-0.2197012429368632,-0.3524670206841023,-0.46735624383960794,-0.7804335362644297
-5104.955788135529,756.0,-4012.0,-15944.0,-155.0,-93.0,206.0,-0.2140932269176509,-0.36431394735334405,-0.44873237179206155,-0.7874507581161397
-5104.971427202225,1232.0,-3448.0,-15724.0,-90.0,251.0,1426.0,-0.10818276058516536,-0.39824843888224365,-0.39888578949831544,-0.8188924216136905
-5104.987071990967,904.0,-3564.0,-16376.0,203.0,478.0,2570.0,0.09673726548105288,-0.4442084855702023,-0.3204490054542342,-0.8310434150620939
-5105.002672672272,488.0,-3164.0,-16248.0,772.0,247.0,2317.0,0.29493067600971234,-0.47406215263499163,-0.2783263589735522,-0.7815468058203919
-5105.018264293671,780.0,-2904.0,-15688.0,167.0,113.0,1510.0,0.40398521192277265,-0.49463925483431365,-0.2224698881432258,-0.7366377026695063
-5105.033852100372,812.0,-3288.0,-16060.0,230.0,153.0,1910.0,0.5321161029681558,-0.5069059648637382,-0.14739852313227184,-0.6619459729660501
-5105.049432277679,796.0,-3532.0,-16088.0,611.0,158.0,2630.0,0.6939463447130868,-0.4900494060706873,-0.057466058955490965,-0.5243926985926066
-5105.065007686615,1000.0,-3468.0,-16376.0,632.0,117.0,2733.0,0.8221941941659822,-0.4471916761089017,0.03648746396629593,-0.35026415299309566
-5105.080572128296,432.0,-3872.0,-16200.0,313.0,86.0,2434.0,0.8882407784815489,-0.40544353603176586,0.12526777496649366,-0.1759313590224728
-5105.096162557602,260.0,-3932.0,-15808.0,580.0,-298.0,2553.0,0.9269073250251584,-0.32886553800289603,0.1789962345898676,0.025507189798565512
-5105.111759185791,1076.0,-3416.0,-15512.0,332.0,-23.0,2897.0,0.9015154338874709,-0.24906896298695022,0.2530404056067462,0.24739670019962612
-5105.1273872852325,728.0,-3540.0,-15916.0,15.0,138.0,3025.0,0.8057413226033796,-0.17822653755703557,0.3191653433740905,0.46599324667712283
-5105.143043041229,220.0,-3692.0,-16272.0,391.0,-150.0,2915.0,0.6754472604467363,-0.06166847574345783,0.35842375630369605,0.6414829759016415
-5105.158672809601,352.0,-3552.0,-15988.0,284.0,-123.0,2361.0,0.5371202630322138,0.034929774975345135,0.37210531773823147,0.7561873883974176
-5105.174280405045,328.0,-3428.0,-15900.0,23.0,-127.0,1797.0,0.41740327271619293,0.10148056737931226,0.35809075586753947,0.8290037472366448
-5105.189882040024,248.0,-3636.0,-15924.0,-107.0,-154.0,1281.0,0.3283469445954149,0.14788355779805298,0.33157070259245147,0.8719974807820225
-5105.205508232117,332.0,-3548.0,-15952.0,-32.0,-112.0,1295.0,0.23191101812974343,0.1918702853522147,0.3074984174580279,0.9026892026216409
-5105.22114109993,416.0,-3348.0,-15920.0,90.0,-33.0,1289.0,0.12887597859377106,0.22962304096348413,0.2907143343171955,0.9198638035180479
-5105.236748218536,132.0,-3492.0,-15892.0,-23.0,79.0,627.0,0.07683966684808687,0.23879632929321945,0.2769601011880664,0.9275586671821118
-5105.252329111099,40.0,-3728.0,-15860.0,-167.0,33.0,142.0,0.06797618276271129,0.2386387744572566,0.260825311360359,0.9329528020518084
-5105.2679443359375,556.0,-3716.0,-15936.0,-78.0,156.0,654.0,0.012735779587157265,0.24020518840690472,0.24150953640153072,0.9401129778956507
-5105.283549308777,496.0,-3636.0,-16044.0,8.0,312.0,1648.0,-0.12789162858618855,0.2469917587520155,0.20590716493170305,0.938211618919712
-5105.299134492874,28.0,-3504.0,-16068.0,489.0,56.0,1091.0,-0.22754911936410535,0.2554524299459831,0.22070770670937007,0.9133748203833973
-5105.314710140228,12.0,-3248.0,-15940.0,-128.0,30.0,-178.0,-0.21105376894556324,0.2524125389632023,0.21395845802253,0.919764097488396
-5105.330254793167,348.0,-3888.0,-15896.0,-613.0,55.0,-596.0,-0.15033770465472598,0.24776498616920098,0.176474231298587,0.940674190076084
-5105.3458478450775,700.0,-4108.0,-15868.0,-408.0,-245.0,80.0,-0.14421017960577792,0.2745261009267007,0.14438851423910173,0.9396759020874574
-5105.361441612244,784.0,-3716.0,-15932.0,-202.0,193.0,1473.0,-0.2603976688437311,0.277746001978365,0.08937158686711974,0.9203602185593625
-5105.377048254013,252.0,-3748.0,-16072.0,-32.0,92.0,1618.0,-0.38645297750530844,0.2812160130639015,0.04501977849975739,0.8772370658593706
-5105.39271402359,56.0,-3476.0,-15776.0,32.0,39.0,1232.0,-0.4789300531916333,0.28068051284040096,0.015771695375648404,0.8316223346486592
-5105.4083206653595,276.0,-3356.0,-15800.0,-325.0,122.0,293.0,-0.4919899437962917,0.28589479308639004,-0.02014315776631729,0.8220731814653812
-5105.42393040657,160.0,-3520.0,-16136.0,-269.0,110.0,-508.0,-0.4480322531804412,0.29036459868757575,-0.03154914954406953,0.8449616269997745
-5105.439527511597,336.0,-3460.0,-16124.0,-393.0,132.0,-221.0,-0.4210367368451123,0.29664945809798127,-0.06014457935537481,0.8550495861709766
-5105.455116987228,332.0,-3352.0,-15952.0,-487.0,232.0,-723.0,-0.3521519773013065,0.3003819256425159,-0.08614964654063394,0.882234618472319
-5105.470703125,360.0,-3592.0,-16032.0,-557.0,30.0,-420.0,-0.3044084726240562,0.31802616761671637,-0.11887231671418398,0.8899798934946319
-5105.486316680908,572.0,-3668.0,-15996.0,-187.0,76.0,212.0,-0.3147765405707053,0.3150497645501415,-0.1414129475107492,0.8841163688336291
-5105.501949310303,420.0,-3344.0,-15936.0,-372.0,218.0,-157.0,-0.28949432236951594,0.3103913786384112,-0.17181792835684317,0.8890044031825286
-5105.517532348633,-12.0,-3432.0,-15980.0,-370.0,53.0,-719.0,-0.22232877354546562,0.32582746494026915,-0.18212533873826983,0.9006868160097811
-5105.533144235611,232.0,-3332.0,-15852.0,-543.0,112.0,-1316.0,-0.10088793957420454,0.34603120780879576,-0.18829405371973149,0.9135805252984811
-5105.548746347427,280.0,-3400.0,-15952.0,-660.0,134.0,-1294.0,0.024196603898438692,0.35974733184507185,-0.20158287045289702,0.9106924442039169
-5105.564316034317,172.0,-3504.0,-15944.0,-849.0,143.0,-2183.0,0.22220394717141914,0.3773817164901623,-0.19634713583570404,0.8773005460898196
-5105.579962491989,340.0,-3444.0,-15956.0,-896.0,131.0,-2316.0,0.4213913329072633,0.38101872626572963,-0.18209264982756523,0.8025561299150713
-5105.595571041107,500.0,-3408.0,-16080.0,-779.0,103.0,-1845.0,0.569403862129048,0.3690977592869526,-0.16914347239983415,0.7147982733795609
-5105.611159086227,428.0,-3436.0,-16172.0,-593.0,98.0,-1531.0,0.6783992598965077,0.3527339669009389,-0.15060648666761012,0.6266345657078272
-5105.626829385757,380.0,-3372.0,-16096.0,-591.0,63.0,-1790.0,0.7846476585460544,0.3335758426858566,-0.1226419043529165,0.5079509547301835
-5105.642450809479,356.0,-3080.0,-15952.0,-678.0,64.0,-1988.0,0.8784515523132094,0.3008264305987434,-0.08913704901699745,0.360389949061116
-5105.658038139343,420.0,-3348.0,-15648.0,-747.0,67.0,-2028.0,0.945601300839942,0.25302146287440436,-0.053484765489291146,0.19737704789377503
-5105.673633098602,532.0,-3472.0,-15948.0,-861.0,74.0,-1954.0,0.9816443172122251,0.1868603872046697,-0.01889494455267353,0.03317546154941572
-5105.689245939255,588.0,-3512.0,-16108.0,-544.0,-19.0,-1211.0,0.9873467952022223,0.14162580212360612,-0.002464488238250913,-0.07129070398354415
-5105.70484662056,656.0,-3424.0,-15928.0,-330.0,36.0,-554.0,0.9863961518038256,0.11358579739614527,0.009424358338857478,-0.11845708001798386
-5105.720421552658,688.0,-3372.0,-15880.0,-288.0,146.0,37.0,0.9891073046402035,0.0903876620067393,0.024606693581231312,-0.11353995374028833
-5105.736058473587,364.0,-3448.0,-16172.0,-29.0,141.0,257.0,0.9912546408426142,0.08966214156565143,0.03526494101503592,-0.09017383940504757
-5105.751625061035,496.0,-3092.0,-16032.0,109.0,150.0,323.0,0.9919504330328269,0.1011517343294046,0.04510725808977717,-0.06138403958491991
-5105.767229795456,440.0,-3032.0,-16056.0,-78.0,130.0,-119.0,0.9913256515136297,0.09466923237288861,0.058107995477580374,-0.0702470636723208
-5105.78284573555,404.0,-3260.0,-16084.0,160.0,-10.0,9.0,0.9899965791991828,0.10845186715085973,0.056487461812551105,-0.07038559755648913
-5105.798446178436,588.0,-3288.0,-15928.0,-51.0,53.0,-77.0,0.9896780545706209,0.10402362799272474,0.06239530043195771,-0.0763102850508902
-5105.814028263092,548.0,-3684.0,-15904.0,77.0,114.0,746.0,0.9911438839754146,0.11518674672609945,0.06510683892815596,-0.011265618561363658
-5105.829610586166,704.0,-3428.0,-15912.0,275.0,193.0,1737.0,0.977383681228114,0.1473477776019616,0.06359073281908012,0.13771706794829536
-5105.845179319382,748.0,-3200.0,-16096.0,637.0,309.0,2069.0,0.9258336418597881,0.20599154770615283,0.06986651332125339,0.30906022097739566
-5105.860767841339,304.0,-2844.0,-16248.0,745.0,196.0,1173.0,0.8729972245151618,0.26635792094991795,0.08415958460316778,0.39980803925819636
-5105.876363039017,176.0,-3324.0,-15864.0,127.0,2.0,635.0,0.8464352516808511,0.280475695510974,0.07392511912040946,0.446559991157563
-5105.891982793808,216.0,-3840.0,-15868.0,270.0,77.0,335.0,0.8255806536970036,0.299657947626685,0.0818972255556925,0.47107806477448233
-5105.907539844513,708.0,-3520.0,-15840.0,238.0,239.0,1068.0,0.7699699069689501,0.31341924385239955,0.08059885226710092,0.5499259449766326
-5105.923187017441,368.0,-3864.0,-15856.0,418.0,210.0,1525.0,0.677232165328919,0.3391797566536302,0.07236163817026108,0.6489048314210676
-5105.938813209534,184.0,-3924.0,-15824.0,601.0,92.0,1605.0,0.5615926170147573,0.37572719300706087,0.06359459209871321,0.7344375649470478
-5105.9544179439545,440.0,-3492.0,-16020.0,873.0,226.0,2793.0,0.3415608970195171,0.40669000684064244,0.03779103391203637,0.8464698634440805
-5105.970032453537,284.0,-2972.0,-16012.0,954.0,391.0,1988.0,0.15651735222409738,0.40542329562845175,0.048400480365357997,0.8993284512984816
-5105.985656738281,-16.0,-2720.0,-16160.0,818.0,73.0,163.0,0.11411891902398177,0.4107588812545973,0.10751154505211091,0.8981621688045969
-5106.0012493133545,-168.0,-3544.0,-15800.0,-349.0,49.0,-2266.0,0.29782799074532584,0.37504788214837753,0.15872097318102155,0.8633916994603831
-5106.016887664795,1000.0,-4260.0,-15976.0,-120.0,-268.0,-1124.0,0.3880882258740946,0.37492961971650496,0.17860240741980707,0.822749347773053
-5106.032521486282,2224.0,-3548.0,-16108.0,375.0,500.0,2966.0,0.14981285915685164,0.38500774385169306,0.12127333627705834,0.9025618661973871
-5106.048102378845,28.0,-3620.0,-15952.0,1000.0,389.0,2758.0,-0.10185663615987696,0.3843156099327631,0.10888703924666451,0.9110819668483721
-5106.063714265823,-764.0,-3156.0,-15932.0,646.0,-223.0,188.0,-0.13611108128424718,0.3976289087054044,0.1556303279681967,0.8939486705230304
-5106.079328775406,300.0,-3020.0,-15948.0,-301.0,-57.0,-1182.0,-0.032510632945494174,0.38770057024415344,0.17290136829908953,0.9048405624297269
-5106.094919919968,724.0,-3924.0,-16176.0,64.0,495.0,-59.0,-0.03748932404295238,0.3475089123025722,0.17840834160359934,0.9197839801275837
-5106.110506772995,-328.0,-3484.0,-15996.0,467.0,-219.0,-842.0,0.01924229228596362,0.3494498491624686,0.24130734356873346,0.9051438024135782
-5106.126093864441,532.0,-3268.0,-15780.0,-322.0,-51.0,-1857.0,0.1744415987599381,0.30994742155810434,0.26890652484167604,0.8950932942376078
-5106.141681194305,576.0,-4236.0,-16292.0,-11.0,-44.0,-844.0,0.24098763595674869,0.2928830673116268,0.2895427157725694,0.8788114040800539
-5106.1572959423065,704.0,-3876.0,-16164.0,540.0,-172.0,-112.0,0.23974820545718328,0.31445030633081683,0.32992955880392094,0.8571979287515608
-5106.172885656357,464.0,-3832.0,-16048.0,268.0,-109.0,-1006.0,0.3094357497311349,0.29823575048094825,0.37391203668967965,0.8218848719510365
-5106.188540935516,656.0,-3412.0,-15724.0,197.0,-31.0,-503.0,0.34094378000766273,0.2892476761808191,0.4000432226539921,0.8000365871050465
-5106.204089164734,400.0,-3516.0,-15916.0,420.0,-26.0,-13.0,0.3318534028270519,0.30308257052971144,0.42883719937195536,0.783653578380158
-5106.219711780548,216.0,-3020.0,-16220.0,630.0,-224.0,-828.0,0.3784889897926066,0.30451652362164594,0.48545342002161906,0.7268773957391117
-5106.235320329666,-192.0,-3344.0,-16020.0,-133.0,-302.0,-4093.0,0.6160196628136769,0.13745409973122025,0.5422706680640259,0.5545887377610533
-5106.250912666321,500.0,-3760.0,-15900.0,-638.0,-493.0,-4185.0,0.7961606136053814,-0.06655596896003656,0.5017708202474928,0.33154882640035327
-5106.266508102417,1188.0,-4596.0,-15992.0,-833.0,254.0,-2334.0,0.8282419824109316,-0.22876186691553146,0.4709998405812281,0.19960555350437648
-5106.282181024551,1072.0,-4332.0,-16636.0,918.0,150.0,1305.0,0.8096541335387382,-0.11050065337082672,0.519047189324621,0.2506786885685871
-5106.297810792923,376.0,-3020.0,-16300.0,1886.0,541.0,2056.0,0.7359067377695842,0.10088289014748064,0.6004199877414335,0.2962427283519325
-5106.313403129578,-540.0,-2508.0,-16308.0,1689.0,240.0,-1445.0,0.7318219926267957,0.12507391635261567,0.6600131790210704,0.11478540880471386
-5106.328971624374,-368.0,-3168.0,-16328.0,1083.0,128.0,-3724.0,0.7100919602947716,-0.02040026525011571,0.68187081662412,-0.17437151871452292
-5106.344577550888,612.0,-3392.0,-16232.0,1451.0,470.0,-3206.0,0.6072106120862736,-0.10904634621088298,0.652815862419773,-0.439585733072625
-5106.360179901123,644.0,-2984.0,-16876.0,3277.0,971.0,566.0,0.578755716940332,0.12828129080693548,0.559212602970188,-0.579540330966789
-5106.375829458237,-968.0,-3596.0,-17364.0,3744.0,1088.0,-1034.0,0.40685396529777224,0.30369859170000546,0.4119007887623604,-0.7566866964192365
-5106.391503810883,-1036.0,-3984.0,-17504.0,4924.0,124.0,-2782.0,0.07900236641319275,0.34688548624979615,0.14809519522795656,-0.9227658959241782
-5106.407100439072,816.0,-3168.0,-17720.0,4528.0,639.0,-2926.0,-0.2729159339903702,0.3542515131730819,-0.11148631689168448,-0.8874646807251951
-5106.422671318054,956.0,-4440.0,-18376.0,4352.0,1127.0,-3244.0,-0.58307538460074,0.3328381672665577,-0.33763223971197603,-0.6597320069470729
-5106.438262462616,1596.0,-3104.0,-20112.0,5844.0,1588.0,-1674.0,-0.7034917507334307,0.1547201472159635,-0.6194140316188204,-0.31222954717515466
-5106.453835725784,1708.0,-3048.0,-21272.0,5899.0,3380.0,-291.0,-0.5228760253864277,-0.08555953664504735,-0.8459500163661235,0.06040527771090827
-5106.46941947937,-60.0,-4252.0,-22904.0,8378.0,5083.0,-508.0,-0.06236893806375139,-0.3471814874606029,-0.7881207913252638,0.5044212015868118
-5106.485033750534,-900.0,-2780.0,-24356.0,11714.0,5951.0,3951.0,0.3384522562398164,-0.6056272446169241,-0.1188233501372863,0.7103145234936716
-5106.500617027283,-2980.0,-2324.0,-23776.0,12549.0,6674.0,1335.0,0.6185038857435119,-0.4149028473676189,0.5800726079673073,0.329885343797547
-5106.516196012497,-4488.0,-2180.0,-21452.0,12865.0,5128.0,-4572.0,0.590711303586465,-0.06162561683679116,0.6560086476360274,-0.4657414447860687
-5106.531807422638,-2368.0,-2708.0,-17908.0,11765.0,4403.0,-8070.0,0.044928041199283494,0.15939155388643578,0.22021824122185932,-0.9612906583842443
-5106.547420740128,-100.0,-2208.0,-16724.0,10175.0,3377.0,-1706.0,-0.2211675848369433,0.32667377751224047,-0.43277940265525,-0.8105992420059629
-5106.563013792038,284.0,2560.0,-16812.0,11892.0,2198.0,13821.0,0.264960396199553,-0.14249421479987082,-0.9054934929128908,-0.2992873560422437
-5106.578642606735,-3788.0,9940.0,-12328.0,13205.0,-185.0,20702.0,0.40385364236974214,-0.6249646546834284,-0.42173947584710436,0.5181285848641488
-5106.594233036041,-7880.0,14680.0,-9020.0,2566.0,-2605.0,6821.0,0.11542277831116904,-0.5534374295228395,-0.021029187522599437,0.824586179317979
-5106.609828710556,-6260.0,11356.0,-10628.0,-7639.0,-3861.0,-6721.0,0.16163678594377248,-0.2468664181451844,-0.6773529300717123,0.6738868815648514
-5106.625421762466,-1620.0,6972.0,-12760.0,-10685.0,-5160.0,-4021.0,-0.09259969204028895,0.09684457477795565,-0.988842984703801,0.06508438347406484
-5106.641009807587,-1160.0,3364.0,-14116.0,-11649.0,-5433.0,777.0,-0.3106120938168923,0.10287217161958077,-0.6764367289590036,-0.6598263371495573
-5106.656607866287,-1600.0,2276.0,-15260.0,-13006.0,-6620.0,3438.0,-0.23478546804977923,-0.07814672770089517,0.1340746169966774,-0.959579527720075
-5106.672187805176,-456.0,584.0,-15784.0,-15465.0,-7047.0,4719.0,0.07483633898352512,-0.16143194199491287,0.8748120355240222,-0.45060309916112506
-5106.687868356705,1556.0,-2240.0,-17568.0,-16036.0,-6618.0,9684.0,0.3671198715861173,0.10633167795521342,0.798689150904077,0.46477114193756275
-5106.703450202942,2392.0,-4020.0,-18748.0,-13778.0,-5412.0,17744.0,0.06767356777388173,0.4981563445106943,-0.043564682786706485,0.8633438845918756
-5106.719055175781,-252.0,-4224.0,-19384.0,-13060.0,-3188.0,17754.0,-0.3268334734423763,0.27176194384021424,-0.8318892051142034,0.3567711828780999
-5106.7346522808075,-2972.0,-5708.0,-17592.0,-15273.0,-4237.0,10575.0,-0.30986908658015777,0.03692551019755953,-0.7408176268460203,-0.5948166941443889
-5106.750218153,-1456.0,-5660.0,-18136.0,-14739.0,-4524.0,11137.0,0.012045484788631414,-0.2680248830467149,0.05706135681055096,-0.9616452412001739
-5106.765792608261,-2256.0,-5996.0,-16996.0,-13760.0,-4388.0,12884.0,0.4041294438802071,-0.2989073550581932,0.7685852308152,-0.39574048144451385
-5106.781419277191,-5992.0,-7568.0,-16952.0,-14266.0,-5533.0,5556.0,0.3423812245141674,-0.3571313282819179,0.6971510149906972,0.518857180500774
-5106.79700422287,-3296.0,-6684.0,-17268.0,-14061.0,-5835.0,3811.0,0.051038998255860266,-0.16593354807767396,0.002959062647114432,0.9848108052959427
-5106.812599658966,-1600.0,-6828.0,-17092.0,-13281.0,-5604.0,2858.0,-0.23698520901697828,0.15803773634150717,-0.6900361229059137,0.665366240264868
-5106.828188657761,-2028.0,-7188.0,-16364.0,-13139.0,-4929.0,1484.0,-0.27651459940035317,0.39495918078301734,-0.8645820790120754,-0.1415794846890864
-5106.843848705292,-628.0,-7612.0,-16252.0,-13029.0,-4168.0,2417.0,-0.07122648434256443,0.3026654202135549,-0.4368006302019113,-0.8441123389634604
-5106.8594608306885,-132.0,-7968.0,-16260.0,-11702.0,-3425.0,4971.0,0.3108613793777292,-0.04347409209028796,0.20691228268100073,-0.926640444511267
-5106.875057935715,-320.0,-7176.0,-16492.0,-10024.0,-2946.0,8654.0,0.6618496480751584,-0.2564288510747282,0.6263042849695155,-0.32240072938519804
-5106.890681505203,-1452.0,-7012.0,-17156.0,-8240.0,-2655.0,8013.0,0.5907244059715677,-0.25726232821219797,0.6161479152512248,0.45301491940547306
-5106.906263828278,-728.0,-6760.0,-15620.0,-6035.0,-2491.0,7867.0,0.20749757644506633,-0.03511740686170682,0.3178561388397056,0.9244885064221443
-5106.921896457672,-836.0,-5820.0,-14668.0,-4348.0,-2559.0,12311.0,-0.47521416046072007,0.2832341097328315,-0.027007043959188664,0.8325986790513481
-5106.93753194809,-4292.0,-5552.0,-14052.0,-1917.0,-2573.0,13022.0,-0.8964170669485573,0.33724194055192275,-0.24792573359173403,0.14572970266599622
-5106.953138113022,-2940.0,-424.0,-14052.0,-1518.0,-2323.0,12911.0,-0.6986828932767215,0.13527185208448517,-0.30520912768679553,-0.6327646711477876
-5106.968744277954,-4836.0,548.0,-14812.0,-5121.0,-1725.0,6112.0,-0.2823985272660646,0.15447162042596016,0.00839469127095584,-0.9467413160095007
-5106.9843764305115,-6836.0,-1724.0,-15388.0,-8127.0,-2797.0,-5230.0,-0.4530385172902922,0.09029831682967507,0.6156319054607974,-0.6384353317352113
-5107.000020742416,-3624.0,-2384.0,-15684.0,-8297.0,-2314.0,-10263.0,-0.5426632304977519,-0.17019096443151374,0.8127099572434605,0.1267050878573838
-5107.015619277954,-2644.0,-3520.0,-15644.0,-6938.0,-2138.0,-8946.0,-0.27847656509733293,-0.3190991126749748,0.49683659952193554,0.7574826416209909
-5107.031242132187,-2920.0,-4600.0,-14844.0,-5895.0,-2022.0,-9163.0,0.18036039093217932,-0.31605588732871764,-0.0709903645429748,0.9287298711733697
-5107.046824216843,-2780.0,-4884.0,-14600.0,-5093.0,-2092.0,-5668.0,0.40032792377972753,-0.15792090748716162,-0.5541319846566086,0.7125561619978961
-5107.062433719635,-784.0,-4852.0,-15840.0,-2113.0,-1492.0,1363.0,0.2075475748852954,-0.19859576499802062,-0.6967280248688185,0.6573079838602899
-5107.078022003174,-1740.0,-3780.0,-16864.0,1262.0,-1290.0,5854.0,-0.16304554000232005,-0.40368976288799086,-0.48193747477992505,0.7603860845830482
-5107.093631267548,-4320.0,-3596.0,-16088.0,-134.0,-34.0,-5570.0,0.18024548953282496,-0.14879375928425836,-0.6176147395156225,0.7509487427475862
-5107.10920882225,-6828.0,-10852.0,-14756.0,-4812.0,387.0,-28979.0,0.7404464799730368,0.476726825910269,-0.47365204809119354,0.011148142987829384
-5107.12478518486,4948.0,-16812.0,-18204.0,-3116.0,-738.0,-32539.0,0.28809145005284925,0.5361845820426293,0.2742793429866837,-0.7445000016098124
-5107.140358448029,17324.0,-7908.0,-20576.0,15093.0,5894.0,24948.0,0.3815883970679286,0.6814562107278368,-0.6202489512117529,-0.07279400115605202
-5107.155980587006,948.0,-3748.0,-15032.0,19811.0,9346.0,24418.0,-0.04479995309786768,0.02601365551090052,-0.6222862382957616,0.7810736786994552
-5107.171560049057,-11528.0,1012.0,-17772.0,14013.0,4088.0,-4141.0,0.2577058389006795,-0.04983257700849841,0.19655844587839136,0.9447058760371191
-5107.18715429306,-1960.0,13980.0,-24460.0,9573.0,5286.0,9887.0,-0.37212052090747744,-0.061818552265901695,0.7044076380312951,0.6012608951183068
-5107.2027242183685,-8252.0,11896.0,-23200.0,2641.0,6944.0,-4275.0,-0.4485937719823108,-0.6204480844951026,0.4761450735110735,0.4325432592887963
-5107.218302249908,-12928.0,-4552.0,-21572.0,-6831.0,2654.0,-32768.0,0.09961631857164817,-0.5861739260309842,-0.5360858089740935,0.5992401212637934
-5107.233926057816,2164.0,-7352.0,-20588.0,1369.0,1395.0,-22590.0,0.6387742688423846,0.1846816970524569,-0.7253066123788818,0.17829868838040283
-5107.249516963959,4856.0,-3272.0,-12412.0,13724.0,4562.0,9627.0,0.3063316925094229,0.14832715746015787,-0.2273355524278695,0.9124025948704975
-5107.265145540237,-9492.0,-2184.0,-10280.0,7291.0,3540.0,-2649.0,0.3955697200471999,0.09120683408890003,0.3867428260905378,0.8280313378518738
-5107.280771255493,-6632.0,-1448.0,-13200.0,1096.0,274.0,-15289.0,0.887443234452565,-0.24357673769869365,0.3576154650491182,0.15882713129101847
-5107.296360731125,4872.0,160.0,-15404.0,507.0,3063.0,-6133.0,0.7610038201827015,-0.37589671181341494,0.4044600978759442,-0.34056846146021585
-5107.311956882477,3556.0,-1980.0,-17800.0,1560.0,5556.0,2159.0,0.5989698316280199,-0.027478329396692546,0.7028849183688166,-0.3826654854343807
-5107.327538967133,-5528.0,-1148.0,-16772.0,5776.0,1004.0,4084.0,0.5833725106010053,0.4739022236686123,0.48584363681170123,-0.44614925400207084
-5107.343106269836,-6312.0,-1128.0,-14016.0,-1789.0,2021.0,-10995.0,0.10205046118209163,-0.003176326527568793,0.7919070367194505,-0.6020455626582855
-5107.3586802482605,-3144.0,-4884.0,-17076.0,-970.0,1742.0,-4425.0,-0.23117950109417143,-0.20814430446660723,0.7894532150152368,-0.5291461122356174
-5107.374273777008,-524.0,-2868.0,-17256.0,2723.0,2394.0,4143.0,-0.13990285312843984,0.11976314121551139,0.6227677688355615,-0.7604237554102925
-5107.389867544174,-3512.0,-2600.0,-17480.0,3097.0,346.0,3850.0,0.05918935447909867,0.2884606596775002,0.34243754111205216,-0.8922015459367354
-5107.405502796173,-1832.0,-196.0,-16060.0,3879.0,-1613.0,-320.0,-0.014234681613108143,0.16291314312142824,0.037885416294933236,-0.9858100105343981
-5107.4210867881775,2216.0,2564.0,-14068.0,-1076.0,669.0,-5511.0,-0.42619612670155715,0.18280645735131712,0.18637301413448726,-0.8661430368811365
-5107.436729192734,-348.0,-4084.0,-16228.0,-2415.0,584.0,-4473.0,-0.6712917373652673,0.22298397260752484,0.3823674360210223,-0.5945087847761351
-5107.452318906784,412.0,-1736.0,-16244.0,1423.0,-200.0,1815.0,-0.5862163929419196,0.18620668462534767,0.27955798865755854,-0.737241305289348
-5107.467948675156,-2056.0,-1696.0,-16352.0,-1074.0,1907.0,2374.0,-0.4451216346512028,0.4061350755061818,0.2047637028563482,-0.7713578007653686
-5107.483560323715,-5976.0,-3636.0,-16216.0,1599.0,114.0,369.0,-0.4740510532590864,0.35493976929669135,0.07890839300386937,-0.8019144746100481
-5107.4991574287415,-2496.0,-292.0,-16124.0,986.0,1856.0,-217.0,-0.5236453011940346,0.43549018658862876,-0.0591182743298029,-0.729828010946878
-5107.514797449112,-3228.0,-1064.0,-15468.0,110.0,1772.0,-4215.0,-0.7309416964565182,0.5250554276575706,0.012103211558187834,-0.43576891414896785
-5107.530422925949,-1332.0,-1536.0,-16964.0,-11.0,1485.0,-3782.0,-0.8253164973828374,0.5452436774174809,0.08584721679193084,-0.11913130047584432
-5107.5460159778595,-116.0,-2124.0,-17196.0,993.0,1705.0,-157.0,-0.8738741445744104,0.48340322912673156,-0.03918029987499966,-0.033618471349785205
-5107.5615701675415,-244.0,-1268.0,-16600.0,2162.0,1050.0,614.0,-0.9378549364251101,0.3125786734968492,-0.1480979436044137,-0.02810142697705062
-5107.577166318893,-808.0,-1280.0,-16160.0,569.0,666.0,-3743.0,-0.9043137823822708,0.29987386053139264,-0.0967399839631361,0.2879819894824709
-5107.5927793979645,-204.0,-1604.0,-16268.0,-507.0,379.0,-7074.0,-0.6034666085913761,0.3318091950507039,0.038778826376297766,0.7240351600715973
-5107.608332395554,228.0,-1764.0,-15976.0,-241.0,786.0,-2488.0,-0.43077981000950216,0.27952071308946963,0.05283587245743018,0.8564492377390465
-5107.623965740204,-2232.0,-2756.0,-15824.0,-422.0,1264.0,-3472.0,-0.15866491408064112,0.17617058959517579,0.05555032679668672,0.9698987213076693
-5107.63954615593,-3060.0,-3772.0,-17320.0,598.0,1074.0,-2669.0,0.05116872991062176,0.06229316982059334,0.1280393231481611,0.9884873564192905
-5107.655142068863,-596.0,-1412.0,-17828.0,3949.0,2139.0,1921.0,-0.14709972308622038,-0.07633464149773946,0.4305787831329967,0.8872071942286518
-5107.670736312866,-1500.0,1716.0,-15556.0,4403.0,863.0,-2488.0,0.03875448771293948,-0.26760749615578644,0.6790644772069441,0.6824630052090722
-5107.686327457428,-2620.0,-952.0,-15728.0,339.0,693.0,-11954.0,0.496005428862114,-0.7024580104811866,0.2921326768978093,0.41855687443720674
-5107.701953172684,1160.0,-2148.0,-17224.0,2388.0,-1045.0,-9353.0,0.7709665312249068,-0.610040471243049,-0.1824794221237518,0.012747222363130742
-5107.717540740967,3508.0,-712.0,-14812.0,1850.0,790.0,-3848.0,0.8286424872405034,-0.39781513382134914,-0.3106949974746679,-0.24199869046503236
-5107.733181476593,-1052.0,-4380.0,-15036.0,1070.0,2408.0,-2103.0,0.8505481049324803,-0.2042004394573463,-0.222849563676991,-0.43035819231213424
-5107.748767852783,-4340.0,-4396.0,-16068.0,3212.0,991.0,-3817.0,0.7163404397393959,0.13288923664400526,-0.3089616989262098,-0.6113423703415072
-5107.764353990555,-2768.0,-2596.0,-15996.0,784.0,2374.0,-6468.0,0.3645084438621862,0.41333188172380353,-0.10916730109960425,-0.8272683060981215
-5107.779958963394,-2152.0,-3700.0,-16744.0,1379.0,1967.0,-6571.0,-0.12031167456779257,0.5650519452908289,0.07756527720030361,-0.8125423237337139
-5107.795555591583,1064.0,-2148.0,-15880.0,1568.0,1758.0,-5532.0,-0.5328712768279485,0.5632082941665748,0.19550020780474558,-0.6005200150386583
-5107.8111090660095,2656.0,-2500.0,-16112.0,309.0,2263.0,-5021.0,-0.7655807730577802,0.5243820372652455,0.2892140599072748,-0.23508463682204692
-5107.826694011688,2136.0,-3848.0,-16944.0,886.0,1701.0,-2392.0,-0.8674560517853017,0.4250014778301058,0.257934091853327,-0.019072134727960075
-5107.842267751694,1800.0,-2360.0,-16348.0,1998.0,1330.0,401.0,-0.9495520717025061,0.27903517416997503,0.13618664754529883,-0.04408437060663228
-5107.857853651047,324.0,-592.0,-16188.0,1476.0,1637.0,-478.0,-0.9877896648549572,0.15466859454184367,0.0065156588879165785,0.017514281527895848
-5107.8734538555145,-3484.0,-2280.0,-15884.0,-45.0,1184.0,-6728.0,-0.8396548633185976,0.1315973323179802,-0.004246823144789664,0.5269191751354235
-5107.889048099518,-3740.0,-3432.0,-15396.0,599.0,608.0,-11783.0,-0.21201271806244193,0.04480041553639826,0.07925379874135859,0.9730171455491449
-5107.904723405838,-468.0,-4012.0,-15636.0,-1401.0,2811.0,-9381.0,0.4319253463018568,-0.17608398804248804,-0.04182408683248871,0.8835641856354876
-5107.920379638672,-528.0,-6600.0,-17816.0,292.0,2419.0,-1645.0,0.5541113518857346,-0.33498212330797966,0.044935571990017006,0.7607419938095776
-5107.936054229736,2028.0,-3980.0,-18208.0,3429.0,1880.0,5513.0,0.24200686076654673,-0.23486414159968214,0.45185302953764,0.825893669929866
-5107.951657772064,2236.0,-1880.0,-17396.0,3125.0,2203.0,6085.0,-0.18589907824359794,-0.07438876619660871,0.7188467400919203,0.6657080504479018
-5107.967302322388,-200.0,-2820.0,-15808.0,2322.0,378.0,1662.0,-0.2822391618336433,-0.02887450140922815,0.8326722284401241,0.4755673229736972
-5107.982941389084,1144.0,-3416.0,-14824.0,-113.0,-270.0,-2032.0,-0.17567776724884254,-0.1599765733511685,0.8166923374427606,0.5258882429143665
-5107.998541593552,2864.0,-4444.0,-15204.0,-662.0,225.0,2428.0,-0.30504047888558994,0.012607771414975634,0.7977706275395562,0.5199551674676772
-5108.014164209366,880.0,-4480.0,-15384.0,1458.0,-365.0,6078.0,-0.4887234673605089,0.3629051867127007,0.7609142373149391,0.22463018799699688
-5108.029772520065,-64.0,-3156.0,-14236.0,349.0,-412.0,3992.0,-0.519284032822459,0.5861078711805155,0.6217186213817624,0.01695913980861366
-5108.045367240906,-392.0,-3888.0,-14168.0,-1932.0,-247.0,2068.0,-0.3978020682313057,0.7632236039595055,0.5089413403573528,0.014898219531906077
-5108.060941696167,-44.0,-4904.0,-15396.0,-1038.0,223.0,5539.0,-0.30997805676467627,0.9376414295018454,0.11752060227504771,-0.10455171948390483
-5108.076521873474,-584.0,-3128.0,-15760.0,602.0,329.0,8594.0,-0.22688072103218354,0.8091879382988411,-0.47948451319591173,-0.2526551415286595
-5108.092112064362,-1804.0,-1944.0,-16196.0,391.0,52.0,3207.0,-0.174637822697733,0.6434300335924806,-0.6887775376814729,-0.2847541506984959
-5108.107741117477,-808.0,-1424.0,-16908.0,-432.0,-456.0,-609.0,-0.19224614730000278,0.6734243428214328,-0.6351273193207467,-0.32581338461804993
-5108.123331308365,368.0,-2384.0,-16396.0,-541.0,-405.0,-1429.0,-0.2213330670775337,0.7432637751852987,-0.5240796132349539,-0.3520102170489529
-5108.138929605484,792.0,-2984.0,-16304.0,-532.0,-636.0,-216.0,-0.22183475775387407,0.7419503505376931,-0.48016243305765527,-0.4119988537234378
-5108.154527902603,876.0,-4320.0,-15532.0,-1314.0,-20.0,396.0,-0.12242429673593438,0.7449076656041516,-0.45496549598168773,-0.4723677156189044
-5108.170151233673,672.0,-4832.0,-16276.0,514.0,-429.0,5552.0,0.05032329155818664,0.45065047750145665,-0.7482196669178424,-0.4843026362635371
-5108.185800075531,1148.0,-2808.0,-16576.0,1732.0,-254.0,8470.0,0.2582597582122264,-0.08418232437592305,-0.9224740007052867,-0.2743300048729844
-5108.201384544373,-792.0,-2936.0,-16764.0,2629.0,-24.0,8455.0,0.37812594566703717,-0.5587803743714704,-0.7310808275525879,0.10151889487042048
-5108.216963768005,-1376.0,-1960.0,-15620.0,1877.0,-543.0,3817.0,0.37546853350587267,-0.6889972358662634,-0.5116808816361007,0.34998409204376774
-5108.232557296753,-900.0,-2732.0,-15832.0,-189.0,370.0,832.0,0.3538375719601882,-0.741334702174803,-0.45390566857015924,0.34524118534814424
-5108.248132944107,-1404.0,-4132.0,-16140.0,532.0,194.0,1677.0,0.34116696868818613,-0.7879792914305085,-0.3196966169489648,0.4006092970266354
-5108.263757228851,-600.0,-3808.0,-15732.0,1582.0,505.0,2924.0,0.3470414076999337,-0.8062925487650878,-0.046430201999708265,0.47675866378054765
-5108.279329061508,-652.0,-3576.0,-15992.0,2009.0,759.0,3564.0,0.3224846096606607,-0.7441430008361447,0.2921960812647053,0.5068296764517036
-5108.2949550151825,-440.0,-2980.0,-16316.0,2623.0,375.0,2616.0,0.3494723656818033,-0.5900436630824213,0.559869359220983,0.4650417635939034
-5108.310584068298,-104.0,-2460.0,-16168.0,1914.0,141.0,1501.0,0.371784447212671,-0.45406261584015156,0.7035113767278897,0.40084312208343686
-5108.326179981232,-444.0,-2856.0,-16220.0,856.0,251.0,-1685.0,0.442990056444907,-0.5313270653495559,0.6657930385356989,0.2795907533438263
-5108.341795921326,104.0,-3940.0,-15488.0,470.0,-230.0,-2090.0,0.5198404172793961,-0.6182810082122882,0.561714080002661,0.17880667709440873
-5108.357379436493,1012.0,-4016.0,-15540.0,750.0,294.0,415.0,0.5375178546536328,-0.5668974526733042,0.6073312333471163,0.1443973929201837
-5108.372948169708,-592.0,-4152.0,-16180.0,1422.0,488.0,1481.0,0.5537938533091694,-0.4209362185228596,0.7095803392762221,0.11234237884831841
-5108.388538837433,-1808.0,-3700.0,-16064.0,1129.0,23.0,-1003.0,0.5982525888423659,-0.4251565091420741,0.6791817172935298,-0.006926584421203767
-5108.4041113853455,-1196.0,-3604.0,-15760.0,464.0,-250.0,-3129.0,0.6053562375766148,-0.5653856770751398,0.5299687369692381,-0.18170305341573526
-5108.419758319855,-180.0,-3772.0,-15420.0,20.0,193.0,-3557.0,0.5163930829658369,-0.6932007586452339,0.3480498670998597,-0.36286661749254423
-5108.435332298279,-216.0,-4336.0,-15648.0,-491.0,445.0,-3677.0,0.33899308658417227,-0.7730335525672982,0.1533867403770393,-0.5137852875762646
-5108.450922966003,-192.0,-4480.0,-16020.0,-169.0,307.0,-2794.0,0.19240604996908928,-0.7787011705742606,-0.01781799030731404,-0.596897745097916
-5108.466495752335,-228.0,-4156.0,-15684.0,64.0,374.0,-2112.0,0.08582259311805976,-0.7421811440388929,-0.155640817307903,-0.6462024202456536
-5108.482089996338,-232.0,-3848.0,-15544.0,-176.0,290.0,-2305.0,-0.05056289897230846,-0.6821121625924443,-0.2869638537874015,-0.6706848272552897
-5108.497700452805,-108.0,-3916.0,-15436.0,-592.0,442.0,-2824.0,-0.23253813581247737,-0.5650936461391506,-0.4093519280142009,-0.6775147123989816
-5108.5133664608,-104.0,-3976.0,-16268.0,-519.0,466.0,-2848.0,-0.3970025225408833,-0.4121940185941581,-0.512196275743575,-0.6404217854240954
-5108.528954267502,-8.0,-4140.0,-16272.0,-966.0,299.0,-2771.0,-0.555068118705574,-0.23078125017657086,-0.550495893407071,-0.5793044704691521
-5108.544541835785,56.0,-4220.0,-15172.0,-867.0,17.0,-3236.0,-0.7056707346934938,-0.031214320439251996,-0.5498885201729342,-0.44573208968917716
-5108.560091257095,952.0,-3440.0,-15124.0,-1291.0,424.0,-2523.0,-0.7633412742577448,0.18034220661147163,-0.5169969389338127,-0.3427841196177784
-5108.5756895542145,-108.0,-3900.0,-16152.0,-1473.0,450.0,-1933.0,-0.7600419004539546,0.370757074167186,-0.4620794639798763,-0.26712931414840835
-5108.591312408447,-724.0,-3736.0,-16184.0,-1028.0,-71.0,-2708.0,-0.7684046557945965,0.5299903329621288,-0.33539967600579473,-0.12716756369093185
-5108.606886148453,-372.0,-3336.0,-15724.0,-1601.0,-50.0,-4345.0,-0.6896348035539638,0.7084927134182637,-0.10517433024010449,0.10667836246801436
-5108.622453689575,228.0,-3456.0,-15864.0,-2161.0,147.0,-4857.0,-0.46190260850929593,0.7999811447395662,0.15066908030616902,0.35210080453355186
-5108.638044595718,272.0,-3736.0,-16200.0,-1831.0,434.0,-3610.0,-0.21549659913008357,0.7662562461724757,0.3099496349041995,0.5199459633344485
-5108.653627872467,116.0,-3488.0,-16060.0,-1226.0,385.0,-2835.0,-0.01471591988260743,0.6710485042100078,0.4214248733459174,0.6098183523188665
-5108.669209480286,28.0,-2996.0,-16124.0,-1058.0,366.0,-3165.0,0.19403490646596283,0.5150803785785035,0.5279060649922098,0.6468058790863076
-5108.684870004654,-76.0,-3324.0,-15904.0,-1309.0,413.0,-4047.0,0.43308692527291404,0.26546577004180005,0.6025576476558843,0.6155387244886992
-5108.700504779816,56.0,-3648.0,-15984.0,-1074.0,211.0,-3766.0,0.6141086462507301,0.014741046554218809,0.6058227121590395,0.5056007452316972
-5108.716084480286,872.0,-3496.0,-15724.0,-1029.0,402.0,-3120.0,0.7029748287841363,-0.21437164478036008,0.5632046312735762,0.3777191169666586
-5108.731695890427,912.0,-3272.0,-15960.0,-713.0,394.0,-1831.0,0.7195394788513418,-0.35582839405664346,0.5219072976985079,0.2885513212003207
-5108.747300863266,844.0,-3308.0,-15924.0,-580.0,363.0,-1177.0,0.7094574723073025,-0.4519930591482188,0.49026468965599623,0.2280633761603944
-5108.762884378433,520.0,-3352.0,-16232.0,-396.0,215.0,-979.0,0.7008279297492068,-0.5205669683890994,0.45520773497147554,0.1750318894594979
-5108.778469085693,596.0,-3568.0,-16192.0,-560.0,386.0,-462.0,0.6651828342685305,-0.5777722697090911,0.4482303384930455,0.1509985596093537
-5108.79404592514,204.0,-3664.0,-16224.0,-350.0,240.0,-31.0,0.6378899825937787,-0.6022401404262473,0.45577002724440235,0.15058839806412483
-5108.809607028961,144.0,-3584.0,-15980.0,14.0,79.0,448.0,0.6288744264410137,-0.5844129072229984,0.4836111659879055,0.17058355656823304
-5108.825182914734,640.0,-3048.0,-15876.0,194.0,161.0,664.0,0.6206745849068593,-0.5472795165740403,0.528289908992239,0.19015247157519324
-5108.840758085251,696.0,-3016.0,-16088.0,-43.0,16.0,730.0,0.6043197105257325,-0.5153516132705599,0.5622816705391285,0.23032525945986262
-5108.856350183487,580.0,-3484.0,-16328.0,116.0,174.0,1252.0,0.5721260349611265,-0.4487296119246795,0.6263896798579525,0.28097954457404584
-5108.871958971024,504.0,-3544.0,-16108.0,286.0,181.0,1903.0,0.5192408710645123,-0.3303573923019843,0.7071160680562477,0.34819502791434453
-5108.887542486191,408.0,-3412.0,-16204.0,467.0,198.0,2631.0,0.4287951905635793,-0.1489613400471379,0.785121528674749,0.42134236546107007
-5108.903126955032,68.0,-3260.0,-16064.0,907.0,200.0,3440.0,0.2866952688674013,0.1081501614582705,0.8315798859279879,0.4632324024780573
-5108.91882276535,-484.0,-3512.0,-15800.0,885.0,118.0,2487.0,0.16479377720736477,0.2981849719891774,0.8253378274062408,0.45027347704021964
-5108.934467554092,-152.0,-3564.0,-15668.0,755.0,-19.0,1488.0,0.08702724521778511,0.4126596582200389,0.8076199457568644,0.41217506994383324
-5108.950070858002,572.0,-3180.0,-15656.0,464.0,74.0,915.0,0.031969481544726834,0.4761658371296839,0.7888515518287584,0.38724317550824344
-5108.96565580368,588.0,-3420.0,-16344.0,256.0,3.0,814.0,-0.006435387644117575,0.5314220868045716,0.7616659828086308,0.3706940545440498
-5108.981221914291,760.0,-3556.0,-16172.0,56.0,167.0,1345.0,-0.06326014630744974,0.6112094199368363,0.6962230899851273,0.37107224073109735
-5108.996881484985,560.0,-3644.0,-16064.0,688.0,81.0,2320.0,-0.17614115962482152,0.7297223070443043,0.5815205837822534,0.31354976817964403
-5109.01248550415,176.0,-3316.0,-15768.0,949.0,126.0,2463.0,-0.30235718189680927,0.8153741468297195,0.43726158524975334,0.22923228677915267
-5109.028096199036,-376.0,-3428.0,-16128.0,579.0,75.0,1306.0,-0.3694962806360578,0.8420160448110174,0.35123390742539373,0.17639790574612849
-5109.043694019318,-324.0,-3728.0,-15908.0,235.0,20.0,486.0,-0.3941959283245801,0.8482193987062375,0.31815869480056563,0.15462362909190805
-5109.05929851532,16.0,-3872.0,-15940.0,213.0,-42.0,376.0,-0.41333121666394085,0.8514255686964249,0.29445162501240446,0.1324010831852609
-5109.07489824295,560.0,-3564.0,-16008.0,305.0,-18.0,786.0,-0.44315214571671674,0.8586485733092911,0.23960476958754726,0.09448998725519708
-5109.090501308441,580.0,-3684.0,-15892.0,391.0,26.0,1653.0,-0.48109302438416096,0.8685336945723271,0.11671871022424382,0.023988871691552328
-5109.106093645096,600.0,-3588.0,-15964.0,765.0,-29.0,2193.0,-0.532271532868969,0.841867453510394,-0.04571849836260976,-0.07652466873309817
-5109.121680736542,532.0,-3560.0,-15908.0,308.0,22.0,2160.0,-0.5305957960477963,0.8048180263676271,-0.2038099172264475,-0.1708729448750488
-5109.13734126091,40.0,-3800.0,-15944.0,144.0,-31.0,1762.0,-0.5087315062930309,0.7575758466993787,-0.3244484407332347,-0.2490066270369442
-5109.152938842773,-64.0,-3668.0,-16000.0,151.0,-28.0,1637.0,-0.47882285954538406,0.6969687980189834,-0.4303430446324534,-0.3158607726534356
-5109.168526172638,-4.0,-3728.0,-15992.0,-44.0,36.0,1374.0,-0.43362879685734806,0.6437654340651153,-0.5106024865744749,-0.3698881359856862
-5109.184105157852,292.0,-3568.0,-16048.0,265.0,-247.0,1893.0,-0.39274955211129686,0.5340940222701273,-0.6077123055180178,-0.43723805691369977
-5109.199759721756,0.0,-3400.0,-15964.0,449.0,59.0,1971.0,-0.3301104507825377,0.41024547239074294,-0.7079133575782576,-0.47072754415832113
-5109.215331554413,-452.0,-3196.0,-15712.0,362.0,37.0,995.0,-0.29852978636301286,0.338548410040169,-0.7563876697796986,-0.47343704303588746
-5109.230903625488,-540.0,-3232.0,-15796.0,-36.0,67.0,-1013.0,-0.3334895919060816,0.40762713660478944,-0.7240225771308111,-0.44543924097294607
-5109.246495008469,-308.0,-3492.0,-15960.0,-115.0,58.0,-1783.0,-0.39020795034356814,0.5197174639365338,-0.6500795297244808,-0.3937361022325066
-5109.26207447052,-40.0,-3808.0,-15940.0,-163.0,100.0,-2036.0,-0.44000316450736715,0.6343235461378958,-0.5470011704395065,-0.32376005556022164
-5109.277662277222,300.0,-3740.0,-16116.0,-142.0,168.0,-1651.0,-0.46569360463557136,0.715959688879008,-0.453357501404251,-0.2549473797125536
-5109.293276786804,184.0,-3844.0,-15928.0,-323.0,324.0,-1415.0,-0.46010389492387277,0.7858350242815382,-0.36789370912838965,-0.18820717114943367
-5109.308881998062,-4.0,-3596.0,-15764.0,-369.0,80.0,-1559.0,-0.453175793374772,0.8439313826258659,-0.25567797932129077,-0.1305384717564964
-5109.324516296387,104.0,-3720.0,-15912.0,-651.0,283.0,-2053.0,-0.41465351773688097,0.9027555829127857,-0.10638449812939747,-0.04215633174249319
-5109.340102672577,276.0,-3600.0,-15964.0,-749.0,207.0,-2163.0,-0.354332866639585,0.9322442165931711,0.058111571514638395,0.04463166480939111
-5109.355714797974,92.0,-3564.0,-15884.0,-969.0,204.0,-2699.0,-0.25774141335126083,0.9193329766542475,0.25954004999951513,0.14503518306254012
-5109.371306419373,72.0,-3628.0,-15704.0,-1126.0,101.0,-3075.0,-0.12554686496282552,0.840175135794166,0.4708370349271713,0.2380256549875467
-5109.38689994812,344.0,-3652.0,-16012.0,-1417.0,483.0,-3106.0,0.022063880759012264,0.6877052509774071,0.6357259274402675,0.3498960104433397
-5109.402488946915,340.0,-3628.0,-16032.0,-1360.0,283.0,-2841.0,0.16836714541758047,0.5002428328827533,0.73775938631408,0.42085710211287314
-5109.41806268692,116.0,-3388.0,-15988.0,-1025.0,238.0,-3283.0,0.3047668740259139,0.2539135159100387,0.8111591581237912,0.42972770346648287
-5109.4336359500885,184.0,-3196.0,-15916.0,-1506.0,202.0,-3954.0,0.4427119364704064,-0.0690231308848189,0.7952599600681336,0.4084158966322327
-5109.4492037296295,188.0,-3268.0,-15896.0,-1816.0,312.0,-4391.0,0.523095846914394,-0.4202590575029951,0.6614850997615815,0.3349485368247155
-5109.464800834656,240.0,-3840.0,-15968.0,-1672.0,148.0,-4427.0,0.5383026927138583,-0.6992585026882323,0.42249469184068894,0.20679940232423813
-5109.48037648201,696.0,-3268.0,-16056.0,-1493.0,273.0,-3663.0,0.4753389401252143,-0.8595120067298633,0.1747478932752258,0.0689577847941174
-5109.4960169792175,440.0,-3144.0,-16028.0,-1480.0,325.0,-3294.0,0.36125590158304177,-0.9278619887323151,-0.06456616423875246,-0.0663137532690715
-5109.5116131305695,356.0,-3292.0,-15920.0,-1339.0,159.0,-3586.0,0.2206825056884641,-0.9000751115878929,-0.32448962514497715,-0.18939511175417256
-5109.527274847031,748.0,-3068.0,-15972.0,-1327.0,223.0,-3095.0,0.06854298824319642,-0.8004207126069205,-0.5193140743151985,-0.2914471372490574
-5109.542847156525,688.0,-3160.0,-16044.0,-1455.0,332.0,-3300.0,-0.09721297003369299,-0.6209693563748842,-0.6778362169877361,-0.3814246450353534
-5109.558434486389,612.0,-3308.0,-15936.0,-1357.0,197.0,-2315.0,-0.22980175916213957,-0.4537315668326045,-0.7397835115012541,-0.4404987773609473
-5109.574022054672,644.0,-3264.0,-16356.0,-1033.0,232.0,-1565.0,-0.3115510547458208,-0.31885028458798703,-0.7566328968823873,-0.4783064871609966
-5109.589643716812,680.0,-3056.0,-16360.0,-661.0,236.0,-525.0,-0.33515573957817263,-0.25568964933677035,-0.7480637422288287,-0.51253689722053
-5109.605246067047,460.0,-3204.0,-16236.0,-367.0,154.0,-198.0,-0.34175864474685486,-0.22503267662910345,-0.7402085299350699,-0.5335284953976659
-5109.620856523514,696.0,-2960.0,-15948.0,-179.0,146.0,132.0,-0.3294755143343615,-0.22142201724359845,-0.733637623039267,-0.5515378625218562
-5109.636425733566,856.0,-2828.0,-16012.0,-302.0,497.0,703.0,-0.26867407972062524,-0.23315110131061714,-0.7177374275565228,-0.5985881622020827
-5109.652028799057,316.0,-3172.0,-16080.0,-138.0,87.0,189.0,-0.2559998764920541,-0.23721872743496203,-0.7087582765276432,-0.613068547589709
-5109.667620420456,656.0,-3108.0,-15900.0,-115.0,-72.0,622.0,-0.2291032691456916,-0.276623169866624,-0.6872630628982391,-0.6313959109270731
-5109.683227062225,824.0,-3456.0,-16016.0,-173.0,105.0,1122.0,-0.16425086580003334,-0.3331233387338999,-0.6497312769339119,-0.6632493965685511
-5109.698845386505,792.0,-3700.0,-16240.0,474.0,-141.0,3173.0,0.024339686678940056,-0.508515814066822,-0.5614391662604817,-0.6523843262104505
-5109.714463710785,1012.0,-3228.0,-16120.0,745.0,230.0,4275.0,0.29180924398212726,-0.6577402625577844,-0.38688154446203143,-0.5766695610934128
-5109.730047702789,564.0,-3004.0,-16448.0,787.0,198.0,5337.0,0.5537882651370363,-0.7310468255576451,-0.1041948422735926,-0.3847499591711258
-5109.745628833771,148.0,-2868.0,-15936.0,1088.0,-23.0,4385.0,0.7163686443437302,-0.6692045117860187,0.1282838364903162,-0.1500817913728657
-5109.7612199783325,384.0,-2632.0,-15852.0,848.0,-152.0,3395.0,0.7763980127100559,-0.5550809563435105,0.2926158978760833,0.05888288439625919
-5109.776802062988,652.0,-2812.0,-15980.0,531.0,-18.0,3217.0,0.7558638830690768,-0.42042973007455087,0.432869408398965,0.25403288687393794
-5109.7923848629,548.0,-3132.0,-16036.0,859.0,-76.0,3586.0,0.6764303706122815,-0.21593885592978507,0.550806298100502,0.4386624968992542
-5109.808020114899,688.0,-3060.0,-16076.0,1162.0,-13.0,4496.0,0.48814491602115,0.06406772048243504,0.6297366625568889,0.6008673763706928
-5109.823612689972,580.0,-2940.0,-15992.0,1375.0,71.0,4734.0,0.20960880048628777,0.34822809738653737,0.6233792365177903,0.6679817889940927
-5109.839221000671,232.0,-2828.0,-16128.0,1348.0,-30.0,4197.0,-0.06950453471636078,0.5628483362866769,0.5357553288349256,0.6255694187044016
-5109.8548085689545,184.0,-3140.0,-15932.0,1072.0,95.0,3617.0,-0.30780817843650116,0.6842696687036858,0.39525725607109014,0.5299064514637501
-5109.870414972305,252.0,-3220.0,-15988.0,970.0,129.0,3471.0,-0.5061275204646672,0.7365397247364228,0.21885810586152898,0.3917209420138093
-5109.886016130447,180.0,-3296.0,-16068.0,1148.0,155.0,3747.0,-0.6724931116127889,0.7117790260043009,0.009886340363398367,0.2025484960396817
-5109.901629686356,-228.0,-3308.0,-16048.0,1251.0,95.0,3190.0,-0.7726381821569456,0.6128544524710758,-0.16452733962061275,0.019246144469798068
-5109.917222499847,-384.0,-3696.0,-15800.0,1019.0,-150.0,1794.0,-0.8188835959497986,0.5106539109430809,-0.24475181233144838,-0.0935884067784792
-5109.932908535004,-360.0,-4168.0,-15912.0,460.0,-179.0,1587.0,-0.8214861657331948,0.43810548479224243,-0.3033531372481399,-0.2029801414563489
-5109.948535919189,572.0,-3664.0,-16604.0,788.0,-113.0,2343.0,-0.7946510348012263,0.31069495155457383,-0.38991998777804593,-0.34635355216744895
-5109.964133501053,416.0,-3356.0,-16040.0,871.0,136.0,3109.0,-0.6925425290953505,0.14325684144754003,-0.4910082691119986,-0.5086975549738068
-5109.980571269989,-520.0,-3344.0,-15972.0,995.0,-403.0,1545.0,-0.6449285336660492,-0.0008184410314573526,-0.5233839666193082,-0.5568983211534009
-5109.996443271637,-56.0,-3080.0,-15604.0,38.0,-439.0,-12.0,-0.6649677503263502,-0.02367829508133938,-0.5004316222223719,-0.553918243830115
-5110.0121104717255,208.0,-3688.0,-15980.0,-343.0,-314.0,-637.0,-0.7084130890501968,0.00889038648211683,-0.46612293591143006,-0.5299068455000987
-5110.02774310112,440.0,-3648.0,-16020.0,-91.0,-197.0,13.0,-0.7155328131708386,0.004945727640150651,-0.4499455963067118,-0.5343568970436637
-5110.043321847916,220.0,-3452.0,-15920.0,-280.0,-197.0,-434.0,-0.7424333602297951,0.03031920266919135,-0.42419099078654376,-0.5176248206016888
-5110.058921813965,-164.0,-3484.0,-15800.0,-544.0,-227.0,-1240.0,-0.799606805450188,0.10059566846445818,-0.3791966184003143,-0.45466404383643605
-5110.074516296387,8.0,-3292.0,-15856.0,-602.0,-21.0,-1319.0,-0.8405537194308255,0.18410588300851774,-0.33981315699435466,-0.3796070164343506
-5110.090166568756,472.0,-2884.0,-16132.0,-602.0,71.0,-1723.0,-0.874700030112868,0.27839941725582706,-0.2939046932321525,-0.26648387022159165
-5110.105834722519,-436.0,-2868.0,-16028.0,-876.0,83.0,-3179.0,-0.8889785766612099,0.4122214591438883,-0.19489682989418408,-0.0424945238341445
-5110.121415615082,-472.0,-3280.0,-15700.0,-1179.0,-210.0,-4772.0,-0.7972888263346614,0.5369216167693145,-0.00246549473047226,0.2757528353135422
-5110.136989593506,96.0,-3592.0,-16128.0,-1360.0,-104.0,-4521.0,-0.5775174706774645,0.5873589757247205,0.16997542226252485,0.5409171475601302
-5110.152566432953,128.0,-3920.0,-16172.0,-828.0,31.0,-3584.0,-0.3487251423554952,0.547223982527958,0.29807013410239036,0.7000649135555671
-5110.168133735657,-52.0,-3456.0,-15960.0,-444.0,-49.0,-3228.0,-0.12407302882787485,0.46171217273525916,0.41039440985896813,0.7765334387018197
-5110.183749914169,8.0,-3172.0,-15988.0,-789.0,228.0,-3717.0,0.1437246963587777,0.3054927278534589,0.47865723948941946,0.8104965465500753
