programtime,ax,ay,az,gx,gy,gz,q0,q1,q2,q3
-7507.6295557022095,1436.0,-3648.0,16028.0,171.0,-127.0,-31.0,0.9998268177682157,0.014612967886206201,-0.01120177406286524,-0.0027047918375678695
-7507.645145177841,1364.0,-3680.0,16000.0,132.0,-146.0,63.0,0.9993745547409669,0.025709332859046804,-0.024125220810587333,0.0027392081113458127
-7507.660743713379,1404.0,-3704.0,16124.0,166.0,-119.0,45.0,0.9985858930729733,0.039787728860355406,-0.03460535240443522,0.006754285510093452
-7507.676310300827,1492.0,-3668.0,16300.0,141.0,-101.0,71.0,0.9976316898204272,0.05158601931881762,-0.04359103480249951,0.013027500210126284
-7507.691912412643,1484.0,-3348.0,16096.0,156.0,-47.0,104.0,0.9965110441574473,0.06448925628282062,-0.047976189594501485,0.02247576313087372
-7507.707471609116,1512.0,-3580.0,16056.0,142.0,-85.0,120.0,0.9949864920102152,0.07616464992715008,-0.055760598181516886,0.033039105755459056
-7507.723100662231,1564.0,-3544.0,16000.0,139.0,-180.0,93.0,0.9927185819922226,0.08795647913367426,-0.07158759689829368,0.04060407265393207
-7507.738692998886,1604.0,-3348.0,15872.0,87.0,-135.0,44.0,0.9909789090561774,0.09536652471635343,-0.08327803423474453,0.0439408327566804
-7507.754277706146,1628.0,-3596.0,16036.0,142.0,-65.0,-234.0,0.9899615909439787,0.10924755222148064,-0.0863413502921377,0.024211402665102102
-7507.769858598709,1600.0,-3604.0,16004.0,144.0,-84.0,236.0,0.9871845510461459,0.11973626752255585,-0.09546919864154432,0.04489454896006446
-7507.785442113876,1616.0,-3628.0,16048.0,105.0,-130.0,-22.0,0.9850287961859351,0.1291515063423567,-0.10596595909497784,0.042536744199214535
-7507.801028966904,1592.0,-3732.0,15884.0,106.0,-151.0,56.0,0.9821394611282541,0.13798237669795183,-0.1191081298041925,0.04664971629104393
-7507.816653728485,1488.0,-3672.0,16072.0,132.0,-158.0,43.0,0.9786216821370856,0.14917123361194187,-0.13253326355131115,0.04982449564532911
-7507.832267284393,1524.0,-3664.0,15972.0,102.0,-139.0,-7.0,0.9756636899880408,0.15826031454560585,-0.14377083791717896,0.0486208087493254
-7507.847916841507,1576.0,-3496.0,16108.0,79.0,-154.0,-18.0,0.9726659245621594,0.16556421240114094,-0.15619096587112152,0.04597687405506902
-7507.863477230072,1592.0,-3524.0,16112.0,78.0,-180.0,-47.0,0.9691889612991154,0.17324532117469663,-0.17035462091275738,0.0404736842984248
-7507.879081487656,1540.0,-3580.0,16376.0,59.0,-154.0,-72.0,0.9662114139129823,0.17956091500312582,-0.18195364191962773,0.03295836190862243
-7507.894651412964,1488.0,-3552.0,16308.0,112.0,-176.0,-83.0,0.9617891801161106,0.19053402577737077,-0.1950208369162105,0.025004623595422458
-7507.910222291946,1424.0,-3532.0,16016.0,80.0,-501.0,-96.0,0.9512562578068747,0.1995238495341768,-0.23495075157436116,0.009995488230533688
-7507.925927877426,1568.0,-3820.0,15888.0,99.0,-309.0,-56.0,0.9429414039590579,0.20884280480803777,-0.25931079346191643,0.002025826691461279
-7507.9415283203125,1292.0,-3548.0,15880.0,103.0,-336.0,-129.0,0.9330765772822835,0.21996824090715836,-0.2843053918186966,-0.01234982195039631
-7507.957176685333,1296.0,-3540.0,16052.0,93.0,-324.0,-86.0,0.9228297410288235,0.22902238110619957,-0.308859844274121,-0.023229606541800563
-7507.972776412964,1580.0,-3464.0,16136.0,94.0,-338.0,-80.0,0.9113278106204423,0.23775963523173535,-0.33437395481239274,-0.033853150331147976
-7507.988399267197,1456.0,-3476.0,16096.0,125.0,-354.0,-82.0,0.8977595416058,0.24873591648692825,-0.36086009812394565,-0.04402543454786572
-7508.004063844681,1548.0,-3452.0,16036.0,142.0,-456.0,-111.0,0.8791913167729399,0.2612063566461604,-0.394234837128156,-0.05807547634965261
-7508.019687414169,1472.0,-3376.0,15972.0,177.0,-554.0,-85.0,0.8546502608149538,0.2744003477045677,-0.435008787074759,-0.0710263052417265
-7508.035284042358,1456.0,-3404.0,15992.0,178.0,-688.0,-65.0,0.822382411527512,0.2852017174729091,-0.4848212719479562,-0.0854136044635899
-7508.050870895386,1388.0,-3420.0,15952.0,87.0,-531.0,-172.0,0.7956108548842491,0.29430051278148606,-0.5185637876335701,-0.10715490619675028
-7508.066459655762,1616.0,-3392.0,16032.0,47.0,-930.0,-151.0,0.7484787382583861,0.2946068123453212,-0.5776555153192567,-0.13892627583040915
-7508.082031965256,1288.0,-3492.0,15980.0,6.0,-1094.0,-169.0,0.6880213593380303,0.2888317332648171,-0.6417812781635576,-0.17697352896023952
-7508.097609758377,1596.0,-3348.0,16216.0,19.0,-1147.0,-163.0,0.6177254622494066,0.27989786173671544,-0.7031895813523654,-0.2135341962343657
-7508.11318230629,1496.0,-3364.0,16244.0,20.0,-1223.0,-201.0,0.5353949820181034,0.2689039166115235,-0.7601015331443459,-0.25157216891467166
-7508.128788948059,1528.0,-3304.0,16288.0,30.0,-1186.0,-305.0,0.4468424836192317,0.26296668558523173,-0.8043970932636334,-0.2900441922437545
-7508.144359111786,1576.0,-3080.0,16172.0,92.0,-1132.0,-425.0,0.3525893903839142,0.2662259724950698,-0.8364159816937307,-0.3243651629337944
-7508.15998005867,1772.0,-3452.0,16372.0,108.0,-1176.0,-498.0,0.2486248061462199,0.27090386991500565,-0.8587121612285057,-0.3569456866136603
-7508.175579786301,1812.0,-3500.0,16152.0,117.0,-1128.0,-458.0,0.14624509919586898,0.2710728694305828,-0.871037231383563,-0.38265651956228003
-7508.191171169281,1740.0,-3564.0,16064.0,74.0,-1222.0,-390.0,0.03833654341382668,0.2592163335306904,-0.8743794982769415,-0.4084087350473171
-7508.206783056259,1792.0,-3604.0,16152.0,18.0,-1096.0,-325.0,-0.05702071665713213,0.24378892334439506,-0.8670065837957514,-0.4308308048193728
-7508.222379922867,1776.0,-3532.0,16332.0,-13.0,-909.0,-320.0,-0.1370980148535005,0.233054758277678,-0.852146344489643,-0.4480359600972907
-7508.238007307053,1888.0,-3472.0,16568.0,-24.0,-698.0,-290.0,-0.19945861148569913,0.22711243869199263,-0.8351041626259009,-0.45960552657737436
-7508.253599405289,2040.0,-3392.0,16656.0,28.0,-392.0,-305.0,-0.24062841943472,0.2329038356849263,-0.8225424683490569,-0.45964949129291766
-7508.26918554306,2032.0,-3372.0,16872.0,-51.0,-87.0,-322.0,-0.25868143914006286,0.25348613605975917,-0.8117290336059636,-0.45817536803176984
-7508.284761667252,1852.0,-3404.0,16528.0,-74.0,168.0,-369.0,-0.2597697181074608,0.28782852000095743,-0.8038360122055583,-0.4511342395672204
-7508.300335884094,1968.0,-3540.0,16272.0,-71.0,385.0,-426.0,-0.24747189516042034,0.33405817989758707,-0.7980104935647719,-0.4362820712678101
-7508.315954685211,2040.0,-3596.0,16104.0,-71.0,425.0,-384.0,-0.2301672867085756,0.3780396057005304,-0.7922499038329789,-0.42005852750258005
-7508.331530332565,2136.0,-3724.0,16036.0,-101.0,449.0,-305.0,-0.20676320428423128,0.4171338198273128,-0.7865591312361904,-0.4056760860333791
-7508.347101211548,2236.0,-3736.0,15972.0,-185.0,435.0,-230.0,-0.1781500720736983,0.4511867704446403,-0.778638161341589,-0.3980146526177914
-7508.362678766251,2292.0,-3972.0,15920.0,-232.0,398.0,-112.0,-0.14575689049353896,0.4758205900094999,-0.7716718281101003,-0.3960710601620393
-7508.378255367279,2320.0,-4028.0,15992.0,-242.0,429.0,20.0,-0.10604213629137643,0.4919220537129573,-0.7688616506347421,-0.39448640101378324
-7508.393850326538,2324.0,-3928.0,16204.0,-231.0,400.0,121.0,-0.06507085130186234,0.49927199571244724,-0.7691190784730075,-0.39363574753443387
-7508.409438610077,2460.0,-3868.0,16188.0,-334.0,462.0,202.0,-0.012547606012158003,0.5027732114113747,-0.7679837784787545,-0.39656345200226434
-7508.4250428676605,2500.0,-3796.0,16172.0,-332.0,535.0,296.0,0.048047062280337775,0.5008802411765569,-0.7686355951009817,-0.39498074098480185
-7508.440705060959,2276.0,-3896.0,15964.0,-305.0,625.0,349.0,0.11509449188654482,0.4965782978556319,-0.7689699625007188,-0.3858088241705011
-7508.456277132034,1972.0,-4068.0,15672.0,-204.0,519.0,352.0,0.1703662072350813,0.4875597851839144,-0.7708514905270932,-0.3728924655392054
-7508.471899271011,1932.0,-3768.0,15736.0,-219.0,309.0,377.0,0.21254752664655432,0.4684680020090588,-0.7743134257106494,-0.3685105137907348
-7508.487474441528,2124.0,-3636.0,16216.0,-317.0,348.0,386.0,0.26111736672996977,0.4470412774614366,-0.7723344332330846,-0.3680643154126508
-7508.503088712692,2312.0,-3664.0,16128.0,-367.0,482.0,432.0,0.32118295433892435,0.4241211164542611,-0.7647788382703755,-0.3634227799045161
-7508.518660783768,2456.0,-3712.0,15968.0,-292.0,568.0,383.0,0.38131353131246604,0.407497293286775,-0.7521531632680549,-0.35044481132958394
-7508.534271240234,2396.0,-3712.0,16000.0,-176.0,760.0,353.0,0.44708919913421963,0.4005617329926481,-0.7319513641117485,-0.3223487965766259
-7508.549845218658,2236.0,-3956.0,15916.0,-173.0,264.0,312.0,0.4784991197809174,0.38098050518508947,-0.727104642108848,-0.3117872455081596
-7508.565420389175,2132.0,-3956.0,15856.0,-128.0,526.0,320.0,0.5241383202139298,0.3690433168063568,-0.711176637982744,-0.2886413712402361
-7508.580996513367,2012.0,-3916.0,15928.0,-84.0,537.0,503.0,0.5717437209295765,0.3467348370800887,-0.699183644945096,-0.25303418933799604
-7508.596579313278,1852.0,-3908.0,16040.0,-85.0,654.0,92.0,0.6153131119193087,0.350681497130613,-0.6662664567032941,-0.2334550717856554
-7508.612174987793,1660.0,-3848.0,15980.0,-47.0,618.0,-1.0,0.65181283089388,0.36022562173054334,-0.6310950569617627,-0.2170174278931975
-7508.6278257369995,1648.0,-3808.0,16084.0,28.0,653.0,-74.0,0.6844721275364163,0.3775784804131855,-0.5910991149100339,-0.198832175734251
-7508.643439769745,1596.0,-3632.0,16048.0,13.0,626.0,-255.0,0.7107800177125939,0.4016043311029559,-0.5444945824911983,-0.19243538473359803
-7508.659020185471,1692.0,-3696.0,15904.0,-27.0,702.0,-377.0,0.7370766337221216,0.42851648107936297,-0.48601724574965266,-0.19203879373227442
-7508.674645185471,1664.0,-3776.0,15788.0,-54.0,649.0,-383.0,0.7586632818682334,0.4510894569892585,-0.4280242580143336,-0.19427702151653597
-7508.6902277469635,1712.0,-4000.0,15796.0,-79.0,472.0,-292.0,0.7736339386203056,0.4641023584623854,-0.3833998569479535,-0.19774751471705895
-7508.7058300971985,1812.0,-4232.0,15600.0,-37.0,359.0,-192.0,0.7834382447189642,0.4738000613742496,-0.35045156747840744,-0.19728587735910785
-7508.72140789032,1572.0,-4420.0,15416.0,11.0,101.0,-55.0,0.7851900846980508,0.4778202544251504,-0.3413807540111879,-0.1965286649415428
-7508.736989021301,1880.0,-4556.0,15608.0,117.0,-46.0,148.0,0.7814717038765415,0.4804393455552662,-0.3526062024733449,-0.18479414833822258
-7508.75256896019,1840.0,-4364.0,15964.0,81.0,-132.0,10.0,0.7742083341357862,0.48335560094173285,-0.3632454113328006,-0.18714056091241044
-7508.768141746521,1828.0,-4148.0,16016.0,48.0,-253.0,18.0,0.764367263154263,0.4816496177698162,-0.38173167826597737,-0.19503142959146888
-7508.783758878708,1800.0,-3848.0,16360.0,26.0,156.0,150.0,0.7709906808728246,0.4808347227297183,-0.3779413250399873,-0.1775716594834652
-7508.799327850342,1768.0,-3844.0,15920.0,25.0,208.0,50.0,0.777545528569613,0.4838842630003807,-0.36630246882653106,-0.1646252482262902
-7508.814902305603,1744.0,-3892.0,15812.0,27.0,145.0,15.0,0.7812964912021787,0.4871555836811204,-0.3573926178517748,-0.15660698205548204
-7508.830510377884,1780.0,-3912.0,15800.0,78.0,-39.0,-89.0,0.7756069630094803,0.4945638351070108,-0.35725535304895606,-0.16189213894850432
-7508.846129894257,1764.0,-3956.0,15640.0,68.0,-169.0,-136.0,0.7654350155904573,0.5007989977248191,-0.36365997829187585,-0.17624137134794782
-7508.861721277237,1664.0,-3660.0,15680.0,79.0,-314.0,-242.0,0.7479324204803487,0.5084940534501635,-0.3749871814850188,-0.20350799916010842
-7508.877345323563,1976.0,-3928.0,16088.0,110.0,-512.0,-259.0,0.720859452997665,0.51427685126927,-0.39830258670750723,-0.23924050387545398
-7508.892920255661,2188.0,-4012.0,16164.0,51.0,-172.0,-225.0,0.7077708220412994,0.521446022008371,-0.3999120610124921,-0.25927755987622536
-7508.908519983292,2192.0,-4164.0,16016.0,63.0,-173.0,-219.0,0.6937925275305425,0.5287996066151819,-0.4018825470049569,-0.27841214628535665
-7508.924250125885,2024.0,-4184.0,15616.0,50.0,-139.0,-165.0,0.6825698536052073,0.5340381180273425,-0.4037746841211383,-0.29303188888934106
-7508.939920663834,2024.0,-4144.0,16104.0,33.0,-64.0,-209.0,0.6734020299467781,0.5415349359187502,-0.39856538480329795,-0.30727065151041155
-7508.955508947372,1880.0,-4036.0,15920.0,35.0,-128.0,-199.0,0.66190865628057,0.5468668780090361,-0.3974855930611396,-0.3237572420600569
-7508.971091747284,1844.0,-3880.0,15952.0,28.0,-186.0,-238.0,0.6472602472168367,0.5511977506834179,-0.3974742008007893,-0.3453251680838137
-7508.986693143845,1860.0,-3888.0,15616.0,45.0,-192.0,-281.0,0.6297732956852067,0.5573588289080562,-0.39593270262824326,-0.3687465618409596
-7509.002270936966,1924.0,-3932.0,15908.0,111.0,-274.0,-221.0,0.6075650684185183,0.5618967179203403,-0.403559853867533,-0.39022584534390614
-7509.0178463459015,1924.0,-3984.0,15780.0,93.0,-315.0,-222.0,0.5840828626227196,0.5634946771749638,-0.41225184890314737,-0.4139678386805783
-7509.033433675766,1856.0,-4100.0,15976.0,151.0,-292.0,-148.0,0.5606060311519434,0.5656041364174641,-0.42505912123063283,-0.43027616964243215
-7509.049032688141,1884.0,-4192.0,16012.0,160.0,-6.0,-66.0,0.5500230524172122,0.575512413861766,-0.42800846238533474,-0.42786546884178156
-7509.064692735672,1964.0,-4136.0,16088.0,106.0,-131.0,-31.0,0.5386649222886205,0.576725658389443,-0.4366067657105733,-0.43197470827215145
-7509.080283641815,1976.0,-3928.0,16068.0,109.0,-65.0,-13.0,0.5302556931547024,0.5797843980271996,-0.4430474719205443,-0.43172663724407667
-7509.0959231853485,1956.0,-3896.0,16028.0,146.0,-93.0,-23.0,0.518420445419627,0.583786648537099,-0.4515949795569368,-0.43185109146522616
-7509.111508607864,1864.0,-3872.0,15888.0,111.0,-128.0,-90.0,0.5043301202614229,0.5873806288938227,-0.45687922630453526,-0.4380599264584303
-7509.127114772797,1824.0,-3936.0,15808.0,120.0,-170.0,-57.0,0.4892040608627591,0.5882648839550503,-0.46590542778758676,-0.4444726600127425
-7509.14271736145,1836.0,-3984.0,15972.0,110.0,-247.0,-26.0,0.47243919788858935,0.5842075838490807,-0.4792104104930599,-0.45371806856976593
-7509.158289670944,1916.0,-4004.0,15948.0,120.0,-354.0,-49.0,0.44939593411364726,0.5768110558232096,-0.4957543848742415,-0.468572182443857
-7509.173847436905,1872.0,-3972.0,16012.0,88.0,-307.0,-80.0,0.42829562157519,0.5708726606846029,-0.5071179104717096,-0.48321702236284153
-7509.1894245147705,1976.0,-3892.0,16228.0,116.0,-255.0,-98.0,0.4070194090252395,0.5685426741909492,-0.516445662903539,-0.49434634171668845
-7509.204999446869,2052.0,-3888.0,16024.0,101.0,-214.0,-92.0,0.38835389618890015,0.5668486132575236,-0.5236712949205007,-0.5036191773941987
-7509.220574140549,1952.0,-4044.0,15992.0,53.0,-216.0,-45.0,0.37386198573010127,0.5610423398984857,-0.5309508983938149,-0.5133710665415205
-7509.236152172089,1804.0,-4352.0,16020.0,57.0,-495.0,-15.0,0.3471796669917331,0.5408507554398034,-0.5483631294537038,-0.5350183337264656
-7509.251770973206,1820.0,-4068.0,16008.0,79.0,-228.0,73.0,0.33591381358848116,0.5289225723164552,-0.562227188932854,-0.5397253100969496
-7509.267364501953,1964.0,-3992.0,15964.0,76.0,-219.0,100.0,0.32633814325579974,0.5157493033894937,-0.5766606906782503,-0.543110044223169
-7509.2829484939575,2032.0,-3920.0,15936.0,55.0,-208.0,75.0,0.31693339257236885,0.5035302280659192,-0.5884071093054701,-0.5475286365252804
-7509.2985663414,1912.0,-3856.0,16320.0,92.0,-237.0,36.0,0.3024084771122066,0.4927269120668239,-0.6007446238530855,-0.5521550506944435
-7509.314175128937,1828.0,-3900.0,16160.0,74.0,-215.0,-254.0,0.27563114331305566,0.4973713016263403,-0.5987484143971483,-0.5640475134342483
-7509.329797029495,1848.0,-3856.0,16100.0,86.0,-173.0,-91.0,0.2583702844717652,0.4955472473634249,-0.6030412565303548,-0.569226637337715
-7509.34538269043,1852.0,-3880.0,16152.0,70.0,-49.0,-105.0,0.24756603267119665,0.5001395700639109,-0.6029922710948,-0.5700629710160673
-7509.360971689224,1892.0,-3892.0,16120.0,121.0,44.0,-143.0,0.23748613190789766,0.5123559089067666,-0.6016876820778466,-0.5648572324008376
-7509.376546859741,1916.0,-3976.0,15996.0,144.0,49.0,-118.0,0.22780308143553368,0.5238397982197646,-0.6023651886987312,-0.5575426453048179
-7509.392105102539,1560.0,-4064.0,15944.0,160.0,22.0,-82.0,0.21765594802344812,0.5322990693729536,-0.6058463183310089,-0.5497579718380294
-7509.407739877701,1768.0,-4056.0,16084.0,124.0,-41.0,-49.0,0.20738859470813653,0.5352018811893304,-0.6102133358097782,-0.5460664812605596
-7509.423328399658,1948.0,-3956.0,15640.0,95.0,-134.0,-30.0,0.194390529498944,0.5320390379394805,-0.6156616347315679,-0.5478207148960376
-7509.43891453743,1912.0,-3860.0,15972.0,111.0,-102.0,-92.0,0.1793596825928842,0.5338898949457808,-0.6183150988268288,-0.548158848234462
-7509.4544949531555,1924.0,-3792.0,16000.0,73.0,-84.0,-126.0,0.16540138512554892,0.537721192361053,-0.6171457933145368,-0.5501175973176355
-7509.470073699951,1936.0,-3768.0,15940.0,67.0,-245.0,-167.0,0.14101058873255018,0.5356964500745214,-0.6158060742661782,-0.5602929645638377
-7509.485652208328,1980.0,-3976.0,15928.0,106.0,25.0,-195.0,0.1278537778803886,0.5485684027926604,-0.6114087291902319,-0.5557926635079014
-7509.501215457916,1984.0,-4068.0,15932.0,159.0,-46.0,-215.0,0.10733839102383107,0.5593968724948577,-0.609132355944321,-0.5518254994081987
-7509.516789197922,1884.0,-4016.0,15968.0,186.0,-89.0,-169.0,0.08537021161084275,0.5656544932901556,-0.6104715549533827,-0.5477877342392548
-7509.532390356064,1868.0,-3964.0,15892.0,172.0,-169.0,-146.0,0.06087835484878686,0.5664338395638339,-0.6125251725948615,-0.5479593454313132
-7509.5479962825775,1912.0,-3984.0,15976.0,132.0,-164.0,-151.0,0.038352956661716335,0.5671901852325206,-0.6120517781014343,-0.5497426356160452
-7509.563566684723,1920.0,-3916.0,15952.0,66.0,-118.0,-133.0,0.02239460402885568,0.5687472310218644,-0.60890893637309,-0.5524988471665303
-7509.57913517952,1928.0,-3836.0,15920.0,69.0,-111.0,-146.0,0.006023493392787058,0.5711759927452686,-0.605079461078713,-0.5546174795473886
-7509.594727277756,1976.0,-3816.0,15804.0,115.0,-107.0,-170.0,-0.013595413371588384,0.5748885264982749,-0.6020668821551601,-0.5539258219724572
-7509.610312700272,2064.0,-3836.0,15900.0,100.0,-202.0,-189.0,-0.03836530948502801,0.574716258616656,-0.596943158322492,-0.5584695075308582
-7509.625931501389,2120.0,-4008.0,15968.0,129.0,-195.0,-218.0,-0.0656140108039463,0.5758835856346085,-0.5913726222287422,-0.5606525832109824
-7509.641530513763,2084.0,-4052.0,15888.0,111.0,-321.0,-136.0,-0.09439139959154241,0.5662389305204201,-0.5877886653914851,-0.5700598407917693
-7509.657159090042,2000.0,-4076.0,15904.0,112.0,-401.0,-90.0,-0.1249185447639123,0.5495669921228645,-0.5851596876416568,-0.5830605614361276
-7509.672771930695,2120.0,-4056.0,16104.0,101.0,-401.0,-28.0,-0.15160064654599914,0.5291050694557199,-0.5841525190496817,-0.596515635948467
-7509.688367605209,1992.0,-3956.0,15880.0,25.0,-315.0,-42.0,-0.17097051419689555,0.5142774386470034,-0.5790667618342222,-0.6090726432148754
-7509.703990459442,1960.0,-3864.0,16052.0,71.0,-235.0,-103.0,-0.19149583297745654,0.505754205785061,-0.5744961700774468,-0.6144071775698404
-7509.719553470612,1916.0,-3608.0,15880.0,78.0,-163.0,-167.0,-0.2120586858641567,0.5039257476313751,-0.5683889614023011,-0.6148365174416204
-7509.735152244568,1804.0,-3788.0,15784.0,91.0,-165.0,-176.0,-0.23367682492365396,0.5019495400642389,-0.562269451987955,-0.6142433264465017
-7509.750704050064,1820.0,-3836.0,15808.0,185.0,-222.0,-194.0,-0.263004993902192,0.4955232654292809,-0.558835198343347,-0.6107276706465514
-7509.766282320023,1872.0,-3996.0,15868.0,9.0,-274.0,-253.0,-0.29014444150468555,0.4927464884264286,-0.5417226419306944,-0.6160792809590224
-7509.781858921051,1944.0,-3988.0,16116.0,211.0,-10.0,-218.0,-0.31136231588162366,0.49695356286840153,-0.5431757137792435,-0.6008750357284308
-7509.797428369522,1996.0,-4020.0,15972.0,217.0,-319.0,-151.0,-0.34365398517831364,0.48112277144677695,-0.5389102180939145,-0.5999988284158605
-7509.813028335571,2056.0,-3976.0,15816.0,223.0,-372.0,-103.0,-0.3756910089133125,0.4593994967091186,-0.5346200324666417,-0.6016558726801167
-7509.828698396683,2088.0,-3996.0,16056.0,198.0,-400.0,-81.0,-0.4062991610517115,0.4352872994268321,-0.5281516653394761,-0.6053939024185072
-7509.844293355942,2164.0,-3976.0,15700.0,204.0,-258.0,-96.0,-0.4308950530007841,0.41860571832732046,-0.5258046894175167,-0.6021861294231777
-7509.859902858734,1916.0,-3988.0,15388.0,510.0,-328.0,-63.0,-0.46730942564268163,0.38447813445971607,-0.5371134856448748,-0.5876287674767945
-7509.875492811203,1856.0,-3832.0,15504.0,332.0,-486.0,-107.0,-0.5061127609960644,0.35049554875639455,-0.5298969472068685,-0.5832769229103235
-7509.891086339951,2040.0,-3892.0,15868.0,285.0,-649.0,-64.0,-0.5471334810649611,0.30717868686499866,-0.512668675605429,-0.5860520772820523
-7509.906667709351,2472.0,-4000.0,16084.0,182.0,-689.0,-25.0,-0.5830769303141067,0.2637971691718942,-0.487323368915921,-0.5940945050922545
-7509.922317028046,2440.0,-3856.0,16020.0,82.0,-789.0,237.0,-0.6047400189772225,0.20803198039844803,-0.45553214772710654,-0.6192759215132283
-7509.9379777908325,2492.0,-4164.0,15656.0,73.0,-519.0,31.0,-0.6244522769940332,0.17466375412438742,-0.4320127745247345,-0.6268308299689668
-7509.95357131958,2532.0,-4292.0,15340.0,146.0,-643.0,98.0,-0.6445525462806948,0.12757510905567415,-0.4055660990187167,-0.6354468868121441
-7509.969157934189,1748.0,-4236.0,14380.0,364.0,-672.0,-101.0,-0.6765473481787929,0.0732143022163722,-0.38573599793447577,-0.6230016785857859
-7509.9851331710815,444.0,-4044.0,14796.0,731.0,-1306.0,-10.0,-0.7196979286955012,-0.04027789392133895,-0.34513503451716315,-0.6010776910196413
-7510.000903129578,1672.0,-3272.0,16460.0,642.0,-1731.0,-198.0,-0.769990942060654,-0.16327847712959856,-0.2670461667968361,-0.5560039863615207
-7510.016538619995,3540.0,-3456.0,17856.0,77.0,-1232.0,-290.0,-0.8068091661021741,-0.2200319581689799,-0.19071322592654677,-0.5140752594071503
-7510.032166481018,3780.0,-3832.0,17608.0,-101.0,-748.0,-135.0,-0.8254610731653017,-0.24353102598091217,-0.13557790666961622,-0.4908414074796027
-7510.04779624939,3248.0,-4364.0,16236.0,-15.0,-450.0,69.0,-0.8275478610124435,-0.26214219498620045,-0.1007760841985529,-0.4860968917768893
-7510.063436985016,2396.0,-4804.0,15328.0,171.0,-378.0,351.0,-0.8112143896513833,-0.29306857280729154,-0.07245683997686118,-0.5007914056728597
-7510.079075574875,1400.0,-4636.0,14868.0,234.0,-712.0,417.0,-0.7893601377395072,-0.3422049104403684,-0.02142580591087728,-0.5092615311010984
-7510.094678640366,1340.0,-4504.0,15272.0,293.0,-1053.0,441.0,-0.7590390737863626,-0.4076403062363058,0.0510838195306656,-0.5050539660068715
-7510.110285758972,2268.0,-4008.0,16024.0,195.0,-1129.0,492.0,-0.7211898242302381,-0.4651747694441843,0.13404718735551424,-0.4955088524551141
-7510.125929355621,2920.0,-3392.0,16764.0,51.0,-1061.0,474.0,-0.6827680321151719,-0.5059370293708971,0.2167716177197833,-0.4804847577021313
-7510.141541719437,3088.0,-3060.0,17384.0,-52.0,-571.0,256.0,-0.662604625637037,-0.5209944597125019,0.2638705535599252,-0.46892666164045227
-7510.157173395157,3056.0,-3040.0,16832.0,-38.0,204.0,-26.0,-0.6700548080163778,-0.5108044135836454,0.2523688071119243,-0.47583126264938447
-7510.1727685928345,2484.0,-3352.0,16236.0,51.0,662.0,-4.0,-0.6814518446908511,-0.48540122824214765,0.21096607599158043,-0.5054723986224819
-7510.188361644745,1932.0,-3616.0,15508.0,222.0,613.0,-409.0,-0.6998661723341792,-0.47783614082177917,0.14702433418482094,-0.5101409692470933
-7510.203997135162,1724.0,-4092.0,15296.0,286.0,-47.0,-380.0,-0.7037121486119164,-0.5016562431111062,0.12120679336140805,-0.48830230276612036
-7510.219595193863,1876.0,-3964.0,15220.0,418.0,-720.0,-310.0,-0.6890139020428535,-0.5594494979768888,0.13365310383890158,-0.44092283887242206
-7510.235229969025,2236.0,-3632.0,15728.0,359.0,-992.0,-200.0,-0.6647770889560272,-0.6186963759036429,0.16899918406163245,-0.3830476370235838
-7510.250855922699,2536.0,-3280.0,16464.0,219.0,-882.0,-132.0,-0.642376745718813,-0.6606013755231128,0.20507138199633493,-0.33000555677562765
-7510.266450405121,2652.0,-3096.0,16596.0,22.0,-372.0,-210.0,-0.6401350436626462,-0.6757318469346586,0.2130332864451264,-0.29703605131311284
-7510.282045841217,2584.0,-3308.0,16724.0,-22.0,155.0,-283.0,-0.6514739093007748,-0.6753735842201359,0.1881678401649386,-0.28990538312641767
-7510.297642946243,2216.0,-3476.0,16388.0,-41.0,389.0,-286.0,-0.6670018046721626,-0.6671925608874417,0.15008393635158881,-0.29569831130689245
-7510.313235759735,2016.0,-3776.0,16184.0,31.0,373.0,-379.0,-0.6792130615662825,-0.6635073162608245,0.10538036245020263,-0.29550403969485683
-7510.328896284103,1932.0,-3792.0,15888.0,80.0,207.0,-423.0,-0.6868815893646305,-0.6661103761164122,0.06649400929545304,-0.28296500799531266
-7510.344509601593,2104.0,-3724.0,15796.0,178.0,-38.0,-438.0,-0.6866281278309033,-0.6795710244313593,0.038888605237740195,-0.25536779986404784
-7510.360083818436,2300.0,-3728.0,15976.0,237.0,-111.0,-461.0,-0.6818272292235297,-0.6969651500715215,0.012915379800888138,-0.22177556682318425
-7510.375688076019,2348.0,-3684.0,16092.0,260.0,35.0,-463.0,-0.6743731711464913,-0.7114197891750792,-0.022326730549781994,-0.19647958344537542
-7510.391301870346,2336.0,-3620.0,16632.0,165.0,343.0,-408.0,-0.6697493335495328,-0.7135167281452354,-0.07058140198595342,-0.19325624067691136
-7510.40688085556,2396.0,-3720.0,16636.0,115.0,677.0,-280.0,-0.6618396017569819,-0.7055281609075441,-0.12924536027475872,-0.21793116472874188
-7510.4224734306335,2392.0,-3760.0,16624.0,80.0,871.0,-154.0,-0.648154350133705,-0.6896864886771039,-0.1899706652691098,-0.2610356911922455
-7510.4380695819855,2248.0,-3716.0,16008.0,91.0,823.0,-162.0,-0.6310910648081234,-0.6714927463250911,-0.2476524251844053,-0.2991485180515164
-7510.453675031662,2144.0,-3796.0,15844.0,122.0,670.0,-150.0,-0.6123176264491945,-0.6561805801885885,-0.29594853253613485,-0.3269688618396258
-7510.469341278076,2088.0,-3616.0,15712.0,114.0,548.0,-154.0,-0.5953381562005718,-0.6417554941554268,-0.3368336996535029,-0.3467930568375919
-7510.484940290451,2172.0,-3676.0,15716.0,154.0,428.0,-182.0,-0.5791800880058827,-0.6308038401391864,-0.3735410803109542,-0.35651648242862366
-7510.500524759293,2156.0,-3688.0,15988.0,139.0,428.0,-242.0,-0.5646117117157521,-0.6159427085202532,-0.4123691773242155,-0.36301495342078194
-7510.5161299705505,2236.0,-3708.0,16320.0,138.0,495.0,-344.0,-0.5495439874617171,-0.5937507601813422,-0.4589135974857913,-0.36723255666049504
-7510.531799316406,2512.0,-3612.0,16368.0,151.0,744.0,-430.0,-0.5242467476678955,-0.5582481902367115,-0.5201706033371399,-0.3780831245651492
-7510.5474281311035,2240.0,-3624.0,16384.0,180.0,999.0,-484.0,-0.4838270473542228,-0.5090442083282881,-0.5925129444077174,-0.39460587036335165
-7510.563019275665,2296.0,-3728.0,16296.0,274.0,1061.0,-413.0,-0.4288255119294994,-0.4602730318340261,-0.6616153195377343,-0.4080717895636727
-7510.578642606735,2192.0,-3620.0,15888.0,318.0,999.0,-396.0,-0.37074016965548623,-0.4117278846077379,-0.722753299454044,-0.41310960260995117
-7510.594234466553,2268.0,-3808.0,15592.0,284.0,860.0,-427.0,-0.3204926304631499,-0.3615691552223932,-0.7731856749541232,-0.41077503801510756
-7510.609820127487,1844.0,-3864.0,15472.0,196.0,581.0,-341.0,-0.28681883325804103,-0.3225853996921868,-0.805686209385986,-0.40563943200725605
-7510.6254007816315,1920.0,-4004.0,15440.0,218.0,320.0,-245.0,-0.2666673313303044,-0.2992320804733122,-0.8276231961467178,-0.3929230734083687
-7510.641041517258,2004.0,-3920.0,15756.0,233.0,170.0,-56.0,-0.2501660626126298,-0.29467474360480306,-0.8407298451586519,-0.3791530878917466
-7510.656704187393,2212.0,-3964.0,15948.0,181.0,150.0,255.0,-0.22598270550150754,-0.31222861042705674,-0.8430242664754771,-0.3751735568753374
-7510.672311306,2332.0,-3876.0,16044.0,136.0,185.0,111.0,-0.20499533733542366,-0.31693789502972913,-0.8478678123018047,-0.3723539381118613
-7510.687924146652,2052.0,-3784.0,16192.0,127.0,327.0,118.0,-0.17337086191347698,-0.31714498205417296,-0.8541140796161242,-0.3739662332333464
-7510.703519821167,2384.0,-3768.0,16084.0,189.0,415.0,219.0,-0.12993103251033072,-0.32246892547453876,-0.859642024511348,-0.37436253630421745
-7510.7190890312195,2052.0,-3708.0,16116.0,214.0,396.0,205.0,-0.08741454717432243,-0.3270313317090128,-0.864530388790423,-0.37147868294266617
-7510.734704494476,2220.0,-3692.0,16000.0,248.0,369.0,126.0,-0.048358267848322964,-0.32620033319732805,-0.8710633072984613,-0.3640103504447754
-7510.750291824341,2060.0,-3488.0,16120.0,282.0,241.0,36.0,-0.020839425758290064,-0.3222987753568975,-0.8795326916722055,-0.34944450491795426
-7510.76588511467,1804.0,-3528.0,15864.0,257.0,176.0,-22.0,-0.0007547131974545445,-0.31559077080307446,-0.8879652147713999,-0.33454397789811247
-7510.781489610672,1992.0,-3660.0,15964.0,218.0,120.0,-53.0,0.013017803639580472,-0.30791706676148983,-0.8955636650912852,-0.32091017209441347
-7510.797065734863,1948.0,-3672.0,16056.0,173.0,87.0,32.0,0.02537998423612043,-0.3077407621250726,-0.8993049519600916,-0.309680614677301
-7510.812702178955,1944.0,-3736.0,15944.0,146.0,99.0,-39.0,0.036035311143423704,-0.3016430761373163,-0.9039545347342209,-0.30096363584767505
-7510.828295946121,2004.0,-3772.0,15968.0,159.0,95.0,-27.0,0.04702487808998103,-0.2964785141522737,-0.9084100179339899,-0.2909989532693382
-7510.843946933746,2044.0,-3728.0,15800.0,217.0,55.0,246.0,0.06324887028067966,-0.3135681028376022,-0.9069354306729916,-0.27412177928986203
-7510.859545469284,2220.0,-3868.0,15932.0,196.0,-240.0,-8.0,0.04943114677816745,-0.3174820208501161,-0.9128248954138143,-0.2520167424554978
-7510.8751521110535,2248.0,-3716.0,16004.0,179.0,-62.0,-253.0,0.04389417203326834,-0.297802307963347,-0.9236817378375579,-0.23706356577636842
-7510.890782833099,2128.0,-3840.0,15960.0,186.0,-185.0,-250.0,0.028648117251105363,-0.2806221144071689,-0.9342645396170717,-0.21812905422643192
-7510.906413316727,1964.0,-3668.0,15976.0,157.0,-210.0,22.0,0.015801658598515712,-0.285949348448252,-0.9369876591383228,-0.20009348897463505
-7510.922073602676,1892.0,-3608.0,15936.0,205.0,-213.0,86.0,0.005014215242349347,-0.29631649627050616,-0.9383724500465094,-0.17784413590890708
-7510.937697649002,1868.0,-3688.0,16060.0,160.0,-155.0,81.0,-0.002270526396409646,-0.30522452735148603,-0.9386250916273464,-0.16067286634805808
-7510.953347206116,1988.0,-3676.0,15952.0,183.0,-168.0,127.0,-0.00936100321224082,-0.31793079983516764,-0.9374943941353152,-0.14119716392296658
-7510.968945264816,1808.0,-3676.0,15960.0,165.0,-149.0,100.0,-0.015726344917662144,-0.3280133679356824,-0.9364175501292912,-0.12362072779626256
-7510.984548330307,2032.0,-3404.0,16116.0,166.0,-144.0,19.0,-0.02252243743959795,-0.3312884118207499,-0.9372924093954574,-0.10594181089033196
-7511.000128984451,2048.0,-3344.0,16032.0,121.0,-183.0,6.0,-0.03392302379150815,-0.3336496936453153,-0.9377055473262672,-0.09074919779685933
-7511.015773534775,1928.0,-3372.0,16068.0,139.0,-121.0,-64.0,-0.04027114319644671,-0.3297341369947231,-0.940176016362577,-0.07564847772818646
-7511.031357288361,1980.0,-3408.0,15992.0,122.0,-130.0,-69.0,-0.047869415657554974,-0.32531392548385807,-0.9423797730590073,-0.06164196833441527
-7511.046936750412,2288.0,-3476.0,15892.0,153.0,-123.0,-127.0,-0.05430630543671667,-0.3161022129652755,-0.9460990742918829,-0.045019526566945585
-7511.062556266785,2176.0,-3436.0,16164.0,82.0,-106.0,-189.0,-0.061521457314072395,-0.3012366220027053,-0.950940222294721,-0.03441368152956885
-7511.078149795532,2176.0,-3428.0,16080.0,32.0,-85.0,-4.0,-0.06774039090361958,-0.30132221555987204,-0.9506557590625407,-0.029492195773443246
-7511.093742609024,2148.0,-3344.0,15924.0,-55.0,13.0,-340.0,-0.0689480063589584,-0.2726240766231197,-0.959101025656964,-0.03236522591109123
-7511.109359741211,2192.0,-3312.0,16004.0,-68.0,58.0,-433.0,-0.066879946764123,-0.23562233586290113,-0.9688421581537333,-0.03679755626879204
-7511.124950885773,2280.0,-3324.0,15940.0,-91.0,6.0,-586.0,-0.07002861899110303,-0.18526232462719752,-0.9793272726039476,-0.041133401634671087
-7511.140573263168,2160.0,-3388.0,15944.0,-125.0,-88.0,-580.0,-0.08154185527316749,-0.13504425003849568,-0.9863699730808115,-0.046778762004882596
-7511.1561551094055,2144.0,-3560.0,16140.0,-49.0,-102.0,-605.0,-0.09323868456496659,-0.08289796846863857,-0.991146788285226,-0.045414960048963254
-7511.1717739105225,2120.0,-3612.0,16256.0,-13.0,-1.0,-534.0,-0.09543596177177235,-0.03655240223901966,-0.9938716681626761,-0.04213082380862442
-7511.187362670898,2072.0,-3652.0,16268.0,80.0,253.0,-473.0,-0.07489078637842612,0.004745130403496517,-0.9966665508084871,-0.032010003945453495
-7511.20293879509,2264.0,-3604.0,16212.0,64.0,16.0,-389.0,-0.07456906639706407,0.038194427736212046,-0.9961983228266681,-0.02386507121101821
-7511.218498468399,2020.0,-3476.0,16016.0,-13.0,32.0,-368.0,-0.07247450515287979,0.07031276219950035,-0.9946349909379337,-0.022467674036682636
-7511.234108448029,1948.0,-3288.0,15832.0,-118.0,255.0,-263.0,-0.05010003309127111,0.0943427844837356,-0.993841991313744,-0.029453726447449556
-7511.249685287476,2068.0,-3092.0,16060.0,-177.0,55.0,-304.0,-0.04463002096044187,0.12157455182242395,-0.9906458653252574,-0.04299487285967047
-7511.265324354172,2112.0,-2988.0,15916.0,-205.0,97.0,-345.0,-0.03533637672964991,0.1524738703723752,-0.985953299824102,-0.05830222893897822
-7511.280896425247,2156.0,-3028.0,16184.0,-287.0,174.0,-444.0,-0.018775368775283286,0.19223284290238793,-0.9779665302703114,-0.07921796076690109
-7511.296524524689,2236.0,-3144.0,16032.0,-372.0,209.0,-576.0,0.0013289649706102885,0.24298658101941228,-0.9641853776794925,-0.10631233590537732
-7511.31210899353,2336.0,-3296.0,15940.0,-414.0,129.0,-801.0,0.013499605053967191,0.31057400615204317,-0.9403702219501275,-0.1380774892425449
-7511.327719926834,2756.0,-3284.0,15876.0,-539.0,-8.0,-928.0,0.016209691646889797,0.38433730379079417,-0.9047612682363474,-0.18283634844005078
-7511.343328952789,2512.0,-3252.0,16068.0,-535.0,-160.0,-1266.0,0.0013144269758338333,0.4775437485389304,-0.8478093570151137,-0.23058520045903053
-7511.358916521072,2508.0,-3352.0,15628.0,-546.0,-334.0,-1063.0,-0.02190948713393232,0.5462322279051947,-0.7879309853951117,-0.2833991704743393
-7511.374509811401,2496.0,-3372.0,15848.0,-597.0,-451.0,-1280.0,-0.055668406147535966,0.6190891944358158,-0.7053729070098504,-0.3407031845261775
-7511.390134572983,2524.0,-3508.0,15956.0,-572.0,-491.0,-821.0,-0.07904513773171207,0.6547183155981781,-0.638576106399496,-0.3966312516140385
-7511.405759096146,2564.0,-3656.0,16192.0,-607.0,-391.0,-634.0,-0.08780946618331889,0.6783143313787258,-0.5765821888484217,-0.4469140241675079
-7511.421369791031,2624.0,-3676.0,16216.0,-646.0,-271.0,-410.0,-0.07901542210577785,0.6915754074488074,-0.5236879353810452,-0.49115269032939246
-7511.437000989914,2576.0,-3716.0,15824.0,-736.0,-216.0,-204.0,-0.05309690665132959,0.6950237576409422,-0.47715428312965663,-0.5352069552142875
-7511.452635526657,2588.0,-3780.0,15656.0,-814.0,-394.0,-143.0,-0.02673508319317929,0.684128171212477,-0.4272262803516606,-0.5905349998577644
-7511.468250989914,2648.0,-3692.0,15660.0,-905.0,-571.0,-120.0,-0.00018265578988846322,0.6583299546819437,-0.3704023085204776,-0.6552890715157954
-7511.483904123306,2580.0,-3636.0,15608.0,-958.0,-793.0,-116.0,0.022451107043009313,0.6130336955757344,-0.307055115239669,-0.7276007092399338
-7511.4994950294495,2636.0,-3728.0,15692.0,-1072.0,-1074.0,-28.0,0.04881524283452492,0.5386680894474352,-0.23743869935182593,-0.8068931933832194
-7511.515088796616,2532.0,-3880.0,15936.0,-1171.0,-1173.0,-6.0,0.07831671094001727,0.44640365272951776,-0.15795311785990493,-0.8772919036304946
-7511.530663967133,2804.0,-3944.0,16088.0,-1309.0,-1115.0,85.0,0.11911144557957873,0.3468266201819522,-0.06779427838696538,-0.9278618942941333
-7511.546274423599,2816.0,-3804.0,16308.0,-1418.0,-883.0,-25.0,0.15315710809702016,0.25776055304438106,0.03830895762755334,-0.9532233847840194
-7511.561850309372,2452.0,-3936.0,16640.0,-1426.0,-554.0,-142.0,0.17370259677045022,0.19014926659804085,0.15143603510966042,-0.9543258309181908
-7511.577434301376,2232.0,-3860.0,16820.0,-1201.0,-284.0,-416.0,0.16167264171707865,0.14158719452735308,0.2523917901936534,-0.9434582171505729
-7511.593003988266,2176.0,-3680.0,16464.0,-909.0,-24.0,-788.0,0.10792862128712763,0.10859775041609547,0.33464964932697167,-0.9298212481530836
-7511.608585119247,1852.0,-3768.0,16372.0,-711.0,87.0,-1108.0,0.02203626436451999,0.07593815565852507,0.40082928838401943,-0.9127341787955567
-7511.624175786972,1640.0,-4044.0,15992.0,-652.0,158.0,-1235.0,-0.07700667275413399,0.043638075065073806,0.45762643169334816,-0.8847280597853592
-7511.639831781387,1612.0,-4312.0,15740.0,-622.0,-13.0,-1314.0,-0.1742223577643914,-0.005679521837024539,0.5064905522858482,-0.8444416104929314
-7511.655448675156,1672.0,-4660.0,15668.0,-685.0,-165.0,-1250.0,-0.2574249756163177,-0.06221087261678859,0.5543531107565246,-0.7890214305402358
-7511.671067237854,1944.0,-5044.0,15424.0,-853.0,-392.0,-1033.0,-0.3119659785872704,-0.11912445008548982,0.6116148109679311,-0.7172265448242823
-7511.686661720276,2012.0,-5580.0,15568.0,-1037.0,-667.0,-769.0,-0.3326613971937425,-0.172277974988619,0.681118181669987,-0.629074492210182
-7511.702241897583,2128.0,-5784.0,15656.0,-1207.0,-920.0,-371.0,-0.3136297758517208,-0.2078408357524384,0.7613919215336703,-0.5279402357428276
-7511.717821836472,2348.0,-6036.0,15824.0,-1321.0,-981.0,82.0,-0.2659276120938537,-0.20924972517116847,0.841890849712006,-0.4203770388746843
-7511.73339176178,2568.0,-5868.0,15724.0,-1349.0,-883.0,487.0,-0.2056381813332216,-0.17267093695382763,0.9109545657221672,-0.31314447959271197
-7511.749010324478,2728.0,-5764.0,15532.0,-1349.0,-859.0,728.0,-0.13620927068546115,-0.11271704257169649,0.9629393948642029,-0.20369002113944584
-7511.76460981369,2800.0,-5592.0,15156.0,-1336.0,-951.0,913.0,-0.05251242985988121,-0.03650460016808173,0.9937285001115457,-0.09172527973703656
-7511.780194759369,2736.0,-5508.0,15100.0,-1298.0,-1231.0,984.0,0.057095574519315136,0.04425174317159738,0.9971884411135992,0.01992715499047282
-7511.795778989792,2720.0,-5464.0,15068.0,-1253.0,-1490.0,943.0,0.1866944551912659,0.12055499982329262,0.9668564677280801,0.12569901841630324
-7511.811355113983,2660.0,-5352.0,15320.0,-1241.0,-1638.0,910.0,0.3218964018479971,0.19145596746475332,0.8998095314591598,0.2237635495220243
-7511.826922416687,2752.0,-5360.0,15324.0,-1097.0,-1622.0,890.0,0.44255100667715375,0.25771019880056706,0.8038616158425622,0.3025567095573899
-7511.842527627945,2692.0,-4808.0,15512.0,-953.0,-1348.0,1012.0,0.5244642918839907,0.3229124546110915,0.6939602613205831,0.3729395512727663
-7511.858160972595,2636.0,-4572.0,15416.0,-720.0,-844.0,520.0,0.5757358793296856,0.3469161639965437,0.6136548917381603,0.41425239438803935
-7511.873775005341,2516.0,-4780.0,15164.0,-368.0,-541.0,226.0,0.6066492271533604,0.35939026472186736,0.5652003244453154,0.4282101657647641
-7511.889364957809,2544.0,-4968.0,14856.0,-194.0,-488.0,-38.0,0.6376310934147926,0.3650435338540958,0.5326449679710069,0.4200704050479332
-7511.904946804047,2560.0,-5000.0,14564.0,-151.0,-791.0,-320.0,0.6890604213477176,0.369646603609945,0.4917753191513868,0.38303284408166594
-7511.920613527298,2676.0,-5028.0,14604.0,-183.0,-1118.0,-576.0,0.7576470519238063,0.368954732276586,0.43422621934393857,0.3182623770981228
-7511.936235904694,2960.0,-5148.0,14772.0,-173.0,-1222.0,-711.0,0.8230353729035725,0.361633288432236,0.3685480808179665,0.23665682278894473
-7511.951922655106,3324.0,-5360.0,15008.0,-103.0,-1306.0,-702.0,0.8755505184293814,0.35553008672903724,0.29218097889748534,0.14710514157904903
-7511.967504262924,3368.0,-5612.0,14776.0,-24.0,-1471.0,-538.0,0.9123154391478111,0.35540459776369865,0.19421494026092473,0.06040420813491278
-7511.983111143112,3548.0,-6140.0,14736.0,-252.0,-1729.0,-323.0,0.9399840347778893,0.3347838140405825,0.06433973645363768,-0.014498638977402561
-7511.998727321625,3584.0,-5856.0,14464.0,-16.0,-2003.0,-98.0,0.93739735784023,0.32520660135549684,-0.09574098764529865,-0.07975288856001099
-7512.014315366745,3616.0,-5688.0,14536.0,-49.0,-2227.0,98.0,0.9039828145048366,0.2990144924340587,-0.27524265571790874,-0.1328415780833274
-7512.029930353165,3824.0,-5272.0,14688.0,-95.0,-2273.0,72.0,0.836447098154958,0.2581699160939807,-0.44658184024383907,-0.1851194381382014
-7512.045546770096,4072.0,-5288.0,14864.0,1.0,-2133.0,118.0,0.7425091438209365,0.21531425098297416,-0.5946502748426469,-0.22070567572109498
-7512.061177492142,4244.0,-5596.0,14912.0,240.0,-2028.0,296.0,0.6284446957641134,0.17354613672337307,-0.7245387360334312,-0.22356793773128833
-7512.076763153076,4248.0,-5856.0,15344.0,349.0,-1828.0,578.0,0.5115872525729926,0.11869779052791558,-0.8284266561133071,-0.19467560959075553
-7512.092348814011,3964.0,-5800.0,15316.0,367.0,-1766.0,881.0,0.3892126302906237,0.04071133565852733,-0.9087723018881522,-0.1448758740855842
-7512.107963323593,3728.0,-5892.0,14620.0,221.0,-1647.0,1127.0,0.26801675930408136,-0.06110340441228678,-0.9569206056335613,-0.09346841827732436
-7512.1235435009,3948.0,-5868.0,14248.0,80.0,-1647.0,1006.0,0.13719985899182055,-0.15453517113639498,-0.9769404555161084,-0.05368822916103778
-7512.139151334763,4436.0,-5132.0,14292.0,-80.0,-1666.0,696.0,-0.002615095141671218,-0.21994243550675857,-0.9750685751229003,-0.02932166687881722
-7512.1547820568085,4564.0,-5104.0,14160.0,-118.0,-1937.0,539.0,-0.16580351415106137,-0.2666644774265112,-0.9494178229838778,-0.0022469033264801252
-7512.1703543663025,4732.0,-4868.0,14664.0,-50.0,-2286.0,374.0,-0.34928048316354515,-0.2914813628050748,-0.8896026738907207,0.040605933369606696
-7512.1859703063965,4932.0,-5052.0,15312.0,-23.0,-2341.0,317.0,-0.5218281429404603,-0.3007577061201566,-0.793527593942432,0.0869146080735962
-7512.201538562775,5020.0,-5556.0,15676.0,120.0,-2300.0,441.0,-0.6675488939947183,-0.3128049199793926,-0.6624919548858408,0.13280047392480002
-7512.217141628265,5112.0,-5832.0,15704.0,391.0,-1600.0,625.0,-0.7479217245750234,-0.34902605516715207,-0.5412284513130314,0.16082807656773307
-7512.232713699341,5352.0,-5944.0,15184.0,639.0,-1129.0,516.0,-0.7833194669171868,-0.3962586747274653,-0.4394931378085593,0.1903561327380703
-7512.248293161392,4724.0,-6052.0,14720.0,801.0,-1157.0,947.0,-0.8070218391535631,-0.4629787394128427,-0.31084382171587854,0.19427443599702676
-7512.263907194138,4712.0,-5956.0,14108.0,865.0,-1044.0,1065.0,-0.8094288894903456,-0.5290236893183193,-0.17751822495209788,0.18288271872518821
-7512.279498577118,4888.0,-5568.0,14464.0,876.0,-1707.0,1050.0,-0.797871699460267,-0.5695154460308518,0.005520789141913596,0.19754095479144515
-7512.295090198517,5336.0,-5212.0,14456.0,774.0,-1742.0,942.0,-0.7618851455294323,-0.5828353245562724,0.18391526642987358,0.21449751570824527
-7512.310657739639,5032.0,-5116.0,14616.0,783.0,-1823.0,794.0,-0.6957521444641314,-0.5779312671824913,0.3541084013287997,0.23776384080588017
-7512.326253652573,5032.0,-5280.0,14664.0,851.0,-1825.0,1248.0,-0.6095169850589954,-0.5415993614156069,0.5342526153440824,0.22300968507400565
-7512.341840267181,4976.0,-5840.0,14756.0,938.0,-1686.0,1317.0,-0.5019461871118834,-0.48716891254414085,0.6902609165452677,0.1850846913834006
-7512.357424736023,5112.0,-6012.0,15004.0,1061.0,-1626.0,1320.0,-0.3725184690860104,-0.41909499713567394,0.8177735672604675,0.1297527119398839
-7512.373007774353,5208.0,-6044.0,15052.0,1339.0,-1680.0,1192.0,-0.2123425781142417,-0.35052010811100986,0.9104708528883823,0.05557975683956448
-7512.388646364212,5320.0,-6140.0,15464.0,1744.0,-1713.0,921.0,-0.02666090274802995,-0.2937837770499152,0.9543666435773128,-0.04652524297540109
-7512.404234647751,5212.0,-5832.0,15276.0,2231.0,-1670.0,893.0,0.1678989115544113,-0.2241615142922574,0.9418434597990465,-0.18572148029457458
-7512.419834136963,5564.0,-6364.0,15148.0,2533.0,-1924.0,1469.0,0.38200036573535257,-0.09319574575111884,0.8618870996780537,-0.3202200820693518
-7512.435445070267,4868.0,-6992.0,15232.0,2316.0,-2336.0,2206.0,0.6032437369607582,0.08003674273519588,0.6966729919254461,-0.3799182227158984
-7512.451069355011,4736.0,-6964.0,15160.0,1988.0,-2100.0,3162.0,0.7698789431251116,0.2878298792914278,0.46641620657515775,-0.32694998969824596
-7512.466643810272,5348.0,-6212.0,15032.0,1779.0,-1579.0,3807.0,0.8362851802190889,0.48154818697472307,0.19904513878507848,-0.17064428995226247
-7512.482212543488,5376.0,-5192.0,14704.0,1655.0,-1136.0,3901.0,0.7888026653706892,0.6098867640134622,-0.06778576936780441,0.03512235266178059
-7512.49781370163,5444.0,-4544.0,14628.0,1561.0,-813.0,3534.0,0.6524903105908778,0.6606896786222984,-0.2903974775978898,0.23111652505125427
-7512.513401269913,5704.0,-4188.0,14788.0,1687.0,-703.0,3122.0,0.45244562463683086,0.6596077048906103,-0.4543469327752155,0.3921472900246581
-7512.52899813652,5620.0,-4476.0,14936.0,1814.0,-619.0,2597.0,0.2258087279986768,0.6250259355340649,-0.5449909602994295,0.5112121393915564
-7512.54461812973,4864.0,-4988.0,15656.0,1726.0,-679.0,2259.0,-0.0014043834990140804,0.5637521812426504,-0.5857974620929692,0.5822566781554143
-7512.56023812294,4820.0,-5536.0,15932.0,1872.0,-333.0,2065.0,-0.20932060535145264,0.46114639346287656,-0.5751502459973011,0.6424415012284986
-7512.575861692429,4600.0,-5728.0,15496.0,2301.0,135.0,1991.0,-0.3931737515921857,0.3010497195128415,-0.5108676547309686,0.7027074119360388
-7512.591455459595,4880.0,-5876.0,14772.0,2567.0,300.0,2085.0,-0.5524069282972002,0.09752835209920085,-0.4017836429009734,0.7238126210583022
-7512.607075691223,5156.0,-5468.0,14544.0,3191.0,276.0,2477.0,-0.6848625158024683,-0.15135835126488045,-0.22096273049338513,0.6776647074210067
-7512.622649431229,5696.0,-4868.0,15064.0,3131.0,363.0,2663.0,-0.7470877337966121,-0.3867918201029243,-0.020845494790156932,0.540201324747601
-7512.638214349747,5876.0,-4536.0,15752.0,3032.0,631.0,2888.0,-0.7314973461871809,-0.5809121941913051,0.16744623647258772,0.3153005122928305
-7512.653825521469,5692.0,-4852.0,16112.0,3122.0,1139.0,2982.0,-0.6261488294020849,-0.7154887551096614,0.3092114645635724,0.020043825295499657
-7512.669389009476,5196.0,-5340.0,16592.0,3365.0,1567.0,3054.0,-0.4275900452481622,-0.7558155520101254,0.38746944676758716,-0.3094786460580503
-7512.684957265854,3532.0,-5232.0,18328.0,3128.0,1513.0,2932.0,-0.1795962280797656,-0.6808054285692048,0.40890077376781775,-0.5805594892018409
-7512.700542211533,2788.0,-4056.0,20760.0,1934.0,1564.0,2475.0,0.004713437086437442,-0.5196063430667995,0.4144119483210999,-0.7471611398114127
-7512.716123580933,3980.0,-3140.0,21468.0,650.0,2020.0,1666.0,0.0679207179014729,-0.31850353270936965,0.436382784498556,-0.8387564253850378
-7512.731768608093,4340.0,-2548.0,20324.0,395.0,3042.0,579.0,0.005222204428442426,-0.068796210643974,0.4258968739096439,-0.9021372749066132
-7512.747357368469,3988.0,-2932.0,18076.0,1436.0,3403.0,131.0,-0.09742740410631462,0.19477521811330617,0.29972006629905273,-0.9288371209182535
-7512.7629301548,4612.0,-3944.0,16200.0,2262.0,3316.0,-136.0,-0.22056046558466114,0.4157854214141877,0.08525446234247412,-0.8781840587321087
-7512.778552770615,5444.0,-5140.0,15888.0,2417.0,2462.0,291.0,-0.2913588884915643,0.5360047614660891,-0.151170849630099,-0.7777893468059043
-7512.794161319733,5960.0,-5928.0,16168.0,2163.0,1776.0,1576.0,-0.25246827297082913,0.559111308460969,-0.40137572732453264,-0.680111638930619
-7512.809776544571,5544.0,-5804.0,17220.0,2197.0,2301.0,2894.0,-0.10046893071237378,0.5110311365603654,-0.6775436248643414,-0.5193147483299722
-7512.825385093689,3936.0,-4756.0,17160.0,2642.0,2841.0,3089.0,0.08234040492409006,0.39822458394513816,-0.8810088172575083,-0.24178648095620422
-7512.840971469879,2372.0,-3356.0,16752.0,2986.0,3651.0,2561.0,0.28379775534488694,0.2714663372550889,-0.9117143524406979,0.12058939154066993
-7512.856550693512,1788.0,-1712.0,15904.0,3007.0,3978.0,2293.0,0.45546309341719493,0.10964524498600958,-0.7537617105248076,0.4608411597649604
-7512.872121095657,1512.0,-604.0,14892.0,2652.0,4360.0,1050.0,0.6142198316861032,-0.02676748397080146,-0.4402718714439745,0.6543532527470068
-7512.887748003006,1228.0,-680.0,13672.0,2331.0,4510.0,207.0,0.7140958571347588,-0.15294060234374207,-0.059087696118419734,0.6805769046515792
-7512.903327703476,1168.0,-1572.0,13116.0,2191.0,4011.0,-348.0,0.7286341245876176,-0.2344724180657092,0.29372977429070085,0.5725712334268894
-7512.918954372406,1368.0,-2328.0,13580.0,2124.0,2824.0,-464.0,0.6903890483849304,-0.24094213303630718,0.5440902240951051,0.41143125603459324
-7512.9346396923065,1780.0,-3252.0,14628.0,1998.0,1762.0,-152.0,0.6372487026770879,-0.18602918502212426,0.6999804534460148,0.2633146369837508
-7512.950288057327,1632.0,-3584.0,15904.0,1994.0,834.0,350.0,0.599869585489566,-0.0715925165176477,0.7836223981871523,0.1447996168595165
-7512.965887784958,1328.0,-3808.0,16756.0,2145.0,1013.0,973.0,0.5189396283616863,0.0921946082043771,0.8488027513492055,0.0416618006799431
-7512.981499671936,968.0,-3504.0,16828.0,2379.0,1730.0,1325.0,0.35313475378175646,0.280910835904583,0.8904907336650504,-0.05840548946432101
-7512.997114896774,1184.0,-2600.0,16368.0,2502.0,2369.0,1498.0,0.10956987418147374,0.4623287525693595,0.8685020851775676,-0.14124693009666872
-7513.012736082077,1296.0,-1956.0,16124.0,2311.0,2650.0,1394.0,-0.15897516498460915,0.5913887576833006,0.7682937737704391,-0.18630864550389545
-7513.028325557709,1660.0,-1732.0,15908.0,1913.0,2610.0,1152.0,-0.39663317975020773,0.6556932866489721,0.6144451447581684,-0.18763155024627903
-7513.043978214264,1620.0,-1724.0,15996.0,1576.0,2497.0,1086.0,-0.5815175406391915,0.6752312573834914,0.42427373251269357,-0.16090959847380995
-7513.059564113617,1284.0,-1776.0,15996.0,1443.0,2187.0,1118.0,-0.7103163539027075,0.654106131799402,0.22033669646496748,-0.13801299182211615
-7513.07515835762,964.0,-2048.0,16096.0,1405.0,1827.0,1244.0,-0.7903914083736606,0.5973886644984552,0.018585394974667616,-0.13439787271935938
-7513.090730428696,852.0,-1920.0,16140.0,1428.0,1787.0,1341.0,-0.8301749297135896,0.5084056880868371,-0.18644771269204627,-0.13255373562404943
-7513.106302499771,660.0,-1844.0,16188.0,1457.0,1846.0,1336.0,-0.8267140031069365,0.3915198635813507,-0.3856855611674268,-0.12042757738621088
-7513.121915578842,576.0,-1824.0,16040.0,1568.0,1928.0,1149.0,-0.7814305889672304,0.25273431922383593,-0.5645443232157957,-0.08234868327794174
-7513.1375114917755,580.0,-1620.0,16036.0,1680.0,2075.0,843.0,-0.6899977748122647,0.10828479125376625,-0.7155818079137926,-0.010961337513267886
-7513.153151512146,500.0,-1196.0,15868.0,1684.0,2069.0,763.0,-0.559871730414329,-0.03774278878866085,-0.8250891835906469,0.06593152886926926
-7513.168727397919,512.0,-968.0,15704.0,1551.0,1990.0,492.0,-0.4043011972845667,-0.1565381334992053,-0.8896329561781853,0.14349061961157536
-7513.184314966202,512.0,-948.0,15588.0,1386.0,1664.0,141.0,-0.2534568258638284,-0.23309556852848087,-0.9128139525751235,0.21953765358042202
-7513.199923753738,356.0,-1104.0,15676.0,1209.0,1354.0,185.0,-0.12299697521345278,-0.2967880999579908,-0.904420817612552,0.2807339532025111
-7513.215509176254,276.0,-1492.0,15648.0,1099.0,1120.0,465.0,-0.01733390951516247,-0.36899331783389483,-0.868629574929211,0.3301910485357726
-7513.2310910224915,100.0,-1744.0,16616.0,985.0,967.0,760.0,0.06519958516852765,-0.45172047781457214,-0.8095766007476557,0.369165750766099
-7513.2467041015625,-4.0,-1648.0,16528.0,945.0,1114.0,901.0,0.15049023966872482,-0.5398749398989807,-0.729089917433986,0.3928302805660802
-7513.26230931282,-168.0,-1340.0,16464.0,919.0,1396.0,1065.0,0.24255248107435687,-0.6340151539638251,-0.6198089924956892,0.39373835384729694
-7513.277868270874,164.0,-1120.0,16164.0,874.0,1464.0,957.0,0.33247606036357025,-0.7073459424805262,-0.4985652263989212,0.37490545737191977
-7513.2934420108795,292.0,-1272.0,16300.0,821.0,1479.0,820.0,0.4152060432994554,-0.7574344932982524,-0.3731201209250116,0.33864185407379105
-7513.309014558792,188.0,-1180.0,16376.0,800.0,1375.0,591.0,0.49013501545848115,-0.7797707655666786,-0.25772083791306544,0.292070521440384
-7513.3245849609375,228.0,-1200.0,15980.0,791.0,1181.0,437.0,0.5548284568874013,-0.779265041762913,-0.1559500592774287,0.24615230473338454
-7513.340135812759,204.0,-1456.0,15880.0,737.0,1032.0,531.0,0.6033599676760318,-0.7673891856650179,-0.05361294444723269,0.21022901635610727
-7513.355806350708,48.0,-1536.0,16328.0,630.0,906.0,674.0,0.6335048993677691,-0.7491436619956684,0.050498937178718485,0.1868292629985257
-7513.371436357498,-104.0,-1508.0,16412.0,626.0,929.0,835.0,0.651995982041524,-0.7205630310699954,0.16545178656639575,0.16827318258985074
-7513.387028694153,-68.0,-1772.0,16592.0,567.0,969.0,1068.0,0.6521417158854198,-0.6808088318482914,0.29340954100849664,0.15849718648786285
-7513.402641773224,80.0,-1788.0,16420.0,531.0,941.0,1221.0,0.6363960883868859,-0.6259366388583206,0.4225871615816427,0.15691855749716097
-7513.418218612671,52.0,-1496.0,16480.0,531.0,890.0,1171.0,0.6109758998939414,-0.5601702248616797,0.5382421086525608,0.1523587916742858
-7513.433808088303,-36.0,-1320.0,16280.0,568.0,931.0,1129.0,0.5747223220572678,-0.48463341430860624,0.6445787195643915,0.13907904424971654
-7513.44940662384,80.0,-996.0,16088.0,593.0,940.0,795.0,0.5335782310013688,-0.4185604174367581,0.727361681170369,0.10510201292854078
-7513.464979171753,224.0,-952.0,16116.0,527.0,713.0,892.0,0.49648268896007813,-0.3418416561832442,0.7931865225245174,0.086627721581086
-7513.480580806732,148.0,-1124.0,16156.0,400.0,293.0,686.0,0.4817117393998146,-0.27844870773120295,0.8270831111141236,0.07970975220768453
-7513.496164560318,152.0,-1024.0,16612.0,394.0,35.0,661.0,0.4831486751740018,-0.21390646799840402,0.8454119371804367,0.07803868975627504
-7513.511794567108,140.0,-1092.0,16900.0,525.0,176.0,545.0,0.4752367038488018,-0.15238488895840432,0.8645599188966485,0.05886482455152298
-7513.527398347855,192.0,-1260.0,16908.0,578.0,491.0,588.0,0.4413791286527215,-0.08624701410920972,0.892556703548278,0.032991639820440004
-7513.542986631393,240.0,-1404.0,16664.0,581.0,655.0,598.0,0.39139582276142365,-0.019073129402869277,0.9200064261626364,0.005805297506877717
-7513.558638095856,252.0,-1044.0,16552.0,535.0,745.0,647.0,0.33060690986841507,0.05054654234003028,0.9422743415416698,-0.01622293059030519
-7513.574224472046,-324.0,-1240.0,16188.0,441.0,747.0,558.0,0.26698205550233417,0.10978341943942427,0.9568599297101884,-0.032973592023758075
-7513.58981180191,-216.0,-1072.0,15860.0,382.0,603.0,389.0,0.2135801869942795,0.15252863954406376,0.9636525636820977,-0.049922483424266445
-7513.6053829193115,-288.0,-972.0,15956.0,311.0,418.0,267.0,0.1752468544498853,0.18236911358396557,0.9652688132684611,-0.06546880591026877
-7513.620956420898,-336.0,-928.0,16280.0,238.0,299.0,178.0,0.14721040426482107,0.20257876260345448,0.9649903776830848,-0.07800328709290635
-7513.636531591415,-4.0,-936.0,16708.0,269.0,393.0,111.0,0.11002635795026515,0.21786219304341847,0.9653629394356752,-0.09222071655883757
-7513.652138710022,-248.0,-988.0,16712.0,300.0,557.0,74.0,0.05790609715091212,0.2311055722288503,0.9653960375962141,-0.10605465096380365
-7513.667766094208,-272.0,-1160.0,16528.0,293.0,607.0,90.0,0.0016801414122458586,0.24535811634094087,0.9622396178214924,-0.11786216426490939
-7513.68333697319,-396.0,-1432.0,16320.0,268.0,767.0,61.0,-0.06768813067707163,0.2577609001944449,0.955870280501852,-0.1236512925516908
-7513.698937416077,-456.0,-1456.0,16308.0,289.0,362.0,106.0,-0.10317503225817089,0.2685739191506035,0.9474068260201318,-0.14015444581271824
-7513.71457195282,-396.0,-1364.0,16556.0,278.0,286.0,106.0,-0.13198024202176578,0.27815418691281624,0.9383287481084145,-0.1573233119790004
-7513.730164051056,-468.0,-1096.0,16796.0,310.0,196.0,13.0,-0.15532455158289094,0.27819480546568254,0.9310109509662537,-0.17804646322911535
-7513.7457818984985,-364.0,-1056.0,16572.0,372.0,117.0,49.0,-0.17302880900963363,0.27878517138251857,0.9218987278854387,-0.2060160066430208
-7513.761360168457,-368.0,-1176.0,16564.0,409.0,129.0,52.0,-0.19231964975994909,0.278910591968187,0.9106669256114508,-0.23644827045583158
-7513.776939868927,-328.0,-1240.0,16540.0,324.0,120.0,126.0,-0.20707119178339894,0.28581294570701155,0.8984155010334036,-0.2613083793194964
-7513.792531967163,-424.0,-1236.0,16616.0,233.0,108.0,145.0,-0.21800752116979916,0.29533357013762046,0.8872151330863653,-0.27946397028187714
-7513.8081204891205,-408.0,-1344.0,16504.0,2.0,110.0,159.0,-0.2227027047347796,0.31024330579983855,0.8808251109797081,-0.2798208719480848
-7513.823761224747,-432.0,-1360.0,16284.0,400.0,99.0,137.0,-0.23766587012148774,0.31518586033727275,0.8647728294546139,-0.3103880813754143
-7513.839330434799,-508.0,-1472.0,16136.0,510.0,34.0,139.0,-0.25026783189244506,0.3156729879270852,0.8454901719300238,-0.35051811106243785
-7513.854914426804,-456.0,-1524.0,16588.0,559.0,-93.0,23.0,-0.25782703663637163,0.3019310605718573,0.8287314029696748,-0.3944199735981619
-7513.870496511459,-296.0,-1772.0,16664.0,581.0,-166.0,33.0,-0.2596733668782722,0.28511470610379785,0.8104184798965163,-0.44102294083150234
-7513.886075735092,-240.0,-1324.0,16432.0,585.0,-161.0,254.0,-0.25268839191353804,0.2831417304538607,0.7838809457269612,-0.4914366693623383
-7513.901636600494,-192.0,-1268.0,16352.0,577.0,-263.0,39.0,-0.2469392283006889,0.2613781860803069,0.76273221577421,-0.5375332811908418
-7513.917272090912,-160.0,-1464.0,16296.0,546.0,-485.0,105.0,-0.22175613349152268,0.23333556892038188,0.7435593563528418,-0.5860872060671851
-7513.9329199790955,-196.0,-1456.0,16152.0,472.0,-645.0,172.0,-0.18027951995936098,0.20182659678407555,0.7264648210383061,-0.6316756947259904
-7513.948604345322,-156.0,-1360.0,16216.0,400.0,-670.0,149.0,-0.13632198247269214,0.16760981502330052,0.71053051154604,-0.6696787731178977
-7513.964192152023,-40.0,-1176.0,16368.0,310.0,-658.0,146.0,-0.09134031749103048,0.13420677404014536,0.6965445949643793,-0.6989070864058281
-7513.979814291,164.0,-1016.0,16584.0,153.0,-573.0,-26.0,-0.05981380565987549,0.09629687165913497,0.6910507146778742,-0.7138614227595899
-7513.995432376862,188.0,-860.0,16832.0,61.0,-393.0,-170.0,-0.04718977255205832,0.06117352232854611,0.690129211879443,-0.7195502737426085
-7514.011020183563,156.0,-840.0,16584.0,53.0,-249.0,-318.0,-0.05242123047832517,0.026130511422990537,0.6889766072942717,-0.722412932864014
-7514.026641368866,-88.0,-844.0,16616.0,27.0,-231.0,-539.0,-0.07249166256929782,-0.020952621900929048,0.6885436716841772,-0.7212583161926714
-7514.042237520218,-152.0,-1120.0,16420.0,28.0,-206.0,-718.0,-0.10504972387241696,-0.07708491387400716,0.6852001367305133,-0.7166053615427753
-7514.057877540588,-24.0,-1392.0,16468.0,-10.0,-262.0,-788.0,-0.1383888658067574,-0.14013142593049835,0.6810261148318643,-0.7052766380679436
-7514.073508501053,148.0,-1656.0,16384.0,-31.0,-304.0,-800.0,-0.16949295881675075,-0.20543217694140067,0.6748299600182521,-0.6882399891392714
-7514.089120149612,-16.0,-1772.0,16400.0,-75.0,-424.0,-689.0,-0.18680639174232727,-0.2696688732386441,0.6714674766970293,-0.664464821151983
-7514.104726552963,-84.0,-1720.0,16228.0,-165.0,-421.0,-610.0,-0.20097746470242908,-0.32639324593328173,0.6719814083700236,-0.6336532920264516
-7514.120315074921,-80.0,-1688.0,16628.0,-137.0,-469.0,-745.0,-0.21794527537765032,-0.3924036866187079,0.6644785786851726,-0.597484244258491
-7514.135940313339,-24.0,-1760.0,16800.0,-42.0,-384.0,-377.0,-0.2165603308146846,-0.43297376280061906,0.6602634884176211,-0.5741841775130186
-7514.151535749435,200.0,-1820.0,17064.0,75.0,-292.0,-300.0,-0.21181427638138875,-0.4659513968670056,0.6501788487545136,-0.5615082125053652
-7514.167127132416,64.0,-1684.0,16796.0,73.0,-190.0,-220.0,-0.2088000152690914,-0.48888724245747206,0.6408920807843943,-0.5537591160186942
-7514.182717084885,-36.0,-1596.0,16476.0,74.0,-101.0,-149.0,-0.2071898996607251,-0.5033351878616088,0.6326547217995458,-0.550884776630864
-7514.198312520981,-152.0,-1320.0,16260.0,105.0,-133.0,-139.0,-0.20190478651332333,-0.5191656282459315,0.6237400884577885,-0.548315429002036
-7514.213987350464,-472.0,-1136.0,16224.0,125.0,-230.0,-181.0,-0.19233091462121,-0.5419784223944903,0.6133250051414212,-0.5413877048918121
-7514.229577541351,-112.0,-952.0,16232.0,42.0,-371.0,-294.0,-0.1842426111578803,-0.5754194190404095,0.6030972563700338,-0.5207886824652218
-7514.245180130005,144.0,-816.0,16320.0,-125.0,-458.0,-410.0,-0.18479832125344411,-0.6148549028672302,0.5946228065211051,-0.4839697788571122
-7514.260796070099,208.0,-976.0,16492.0,-3.0,-480.0,-576.0,-0.18401127289838648,-0.6635282066532107,0.5703256921037677,-0.4478825463759979
-7514.27637887001,360.0,-1304.0,16520.0,-310.0,-391.0,-733.0,-0.2105548685377987,-0.7081777783348249,0.5446166374621684,-0.39691762345250303
-7514.291971445084,260.0,-1304.0,16672.0,-153.0,-322.0,-712.0,-0.22885174931958208,-0.7485369311275161,0.5105701431266448,-0.3558615861809264
-7514.3075540065765,-16.0,-1696.0,16624.0,113.0,-316.0,-613.0,-0.22603602107838341,-0.7864434324401887,0.4724257874367814,-0.32745735617250077
-7514.323131561279,-48.0,-1716.0,16884.0,199.0,-366.0,-467.0,-0.21034516974776862,-0.8188469175535116,0.44123081738149716,-0.30093188759211115
-7514.338714838028,252.0,-1332.0,16528.0,31.0,-456.0,-422.0,-0.2013835413127225,-0.8463825636467479,0.41800111065512385,-0.26145037145544187
-7514.354317188263,180.0,-1004.0,16396.0,-132.0,-383.0,-420.0,-0.20650775170947072,-0.8669888281455609,0.3961956566614209,-0.22071230594897112
-7514.369987487793,56.0,-628.0,16556.0,-60.0,-376.0,-367.0,-0.20492846102317366,-0.8848892035995277,0.3759486564788111,-0.18340673626517578
-7514.385591745377,-144.0,-756.0,16264.0,125.0,-765.0,-395.0,-0.1760140696247765,-0.9097080812859019,0.3560919734086134,-0.12103206439289849
-7514.401168107986,-72.0,-1316.0,16352.0,181.0,-752.0,-306.0,-0.14114867135774622,-0.9274997928029705,0.3405365995397978,-0.06209678975809483
-7514.416767835617,36.0,-1628.0,16532.0,155.0,-830.0,-185.0,-0.10464654986365415,-0.9367436202705137,0.33399535064804453,0.0027559444143689573
-7514.432366371155,100.0,-1736.0,16600.0,44.0,-874.0,-81.0,-0.07533453452731391,-0.9365442386610783,0.3343839426753623,0.07346411245754311
-7514.447991847992,172.0,-1616.0,16480.0,-86.0,-771.0,-51.0,-0.05940134930211566,-0.930381311872559,0.333964215091767,0.13903236046879258
-7514.463599681854,220.0,-1328.0,16408.0,-209.0,-649.0,-20.0,-0.05711518685162432,-0.9203698963431535,0.3325775309464162,0.19760894525750267
-7514.479257583618,204.0,-1248.0,16584.0,-294.0,-637.0,13.0,-0.062353773066487185,-0.9058332076871038,0.3311022325967676,0.25680638310817183
-7514.494839668274,160.0,-1092.0,16508.0,-266.0,-684.0,33.0,-0.06423058720055332,-0.8862648751932488,0.33078646209945467,0.31778816711497193
-7514.510446310043,144.0,-1080.0,16540.0,-309.0,-687.0,85.0,-0.07050812821664218,-0.8611177820864212,0.3319081288433227,0.37860502273170205
-7514.5260145664215,240.0,-792.0,16484.0,-424.0,-624.0,163.0,-0.08949293756759077,-0.8312511282899735,0.3332214775868628,0.43586238965641144
-7514.5415987968445,-148.0,-1132.0,16136.0,-612.0,-600.0,143.0,-0.12154830530720191,-0.7971563135438665,0.3240518054401396,0.4947304808126199
-7514.557218074799,-380.0,-1084.0,16232.0,-721.0,-645.0,86.0,-0.15663879486909316,-0.7564562362256774,0.30462596727871616,0.55717256813015
-7514.572862863541,-464.0,-1280.0,16232.0,-1022.0,-638.0,-79.0,-0.20221184790235802,-0.7095579068902242,0.2569709045883751,0.6241825850923027
-7514.5885055065155,-556.0,-868.0,16572.0,-828.0,-525.0,-111.0,-0.23482567056645876,-0.666273894399589,0.21342100470705194,0.6748240339780815
-7514.604100942612,-496.0,-940.0,16408.0,-857.0,-284.0,-89.0,-0.27330527756371803,-0.6315523155776405,0.1630320650055452,0.7070123363311048
-7514.619730710983,-380.0,-1096.0,16440.0,-938.0,-432.0,-41.0,-0.31508621296683265,-0.5806121899110606,0.11268983737385165,0.7422339010565044
-7514.635324239731,-416.0,-1064.0,16420.0,-983.0,-456.0,271.0,-0.376224855969332,-0.5187538352898087,0.07488303398596872,0.7640300042171285
-7514.650910139084,-588.0,-944.0,16436.0,-985.0,-495.0,440.0,-0.44458885011240507,-0.44793938870637023,0.04509121471195775,0.7743757749031751
-7514.666522026062,-716.0,-956.0,16308.0,-895.0,-471.0,609.0,-0.516193944156282,-0.37676819208219087,0.026504698751611634,0.7686917733367418
-7514.682171821594,-852.0,-852.0,16436.0,-856.0,-512.0,664.0,-0.5845560832659479,-0.3004331928493156,0.01385916064483845,0.7535529217097899
-7514.697789669037,-680.0,-572.0,16600.0,-889.0,-561.0,656.0,-0.6465943058361381,-0.21585617248350744,0.001169245043377514,0.731656032112824
-7514.713382482529,-580.0,-432.0,16616.0,-944.0,-767.0,455.0,-0.6889608484688221,-0.11254042824646618,-0.007241038582707238,0.7159714859178866
-7514.728962659836,-620.0,-364.0,16612.0,-1006.0,-561.0,393.0,-0.7197014322989516,-0.0168338787879993,-0.03236695322916201,0.69332449056012
-7514.744551420212,-648.0,-648.0,15968.0,-1013.0,-788.0,358.0,-0.7400638338934296,0.09314743857771575,-0.04327888550547081,0.6646472857980942
-7514.7601618766785,-768.0,-868.0,15696.0,-1280.0,-976.0,425.0,-0.7501843984947248,0.22811962521337636,-0.057320511885854276,0.617979905631858
-7514.775784492493,-840.0,-928.0,15616.0,-1090.0,-1189.0,637.0,-0.7602197246060483,0.3561002650692699,-0.050350581905662946,0.5410391764366617
-7514.791434288025,-796.0,-664.0,15680.0,-1120.0,-1490.0,521.0,-0.7460989311157562,0.49130528823586317,-0.020269270477919238,0.4489372510871587
-7514.807022333145,-628.0,-40.0,15944.0,-1027.0,-1523.0,568.0,-0.7170955921509468,0.6081883450943438,0.014116263787703752,0.3401199489970597
-7514.822662591934,-492.0,436.0,16144.0,-1382.0,-1373.0,262.0,-0.6405693109144317,0.7250654050125165,0.044466258793200056,0.24894551250741936
-7514.83824968338,-380.0,692.0,15876.0,-1478.0,-1140.0,-189.0,-0.5315147302888215,0.8207399192324314,0.0868935540595217,0.19059797146677113
-7514.853894233704,-160.0,400.0,15776.0,-1521.0,-1170.0,-572.0,-0.3982010167851268,0.8928577678132819,0.15450781351974063,0.14271752607204186
-7514.86950302124,-28.0,232.0,15504.0,-1718.0,-1671.0,-897.0,-0.22510235763436842,0.9381567796543695,0.25482117586673003,0.06524533474424417
-7514.885135889053,-136.0,-268.0,15424.0,-2012.0,-2112.0,-1236.0,-0.006114871201463588,0.9274160385680328,0.37211988201725277,-0.03726785698738612
-7514.900749921799,-52.0,-212.0,15452.0,-2240.0,-2176.0,-1527.0,0.23056692578548882,0.8343573541169466,0.4824675184617771,-0.13383494309832597
-7514.916360139847,12.0,-492.0,15544.0,-2456.0,-2122.0,-1766.0,0.45512912601083383,0.6526251040761066,0.5682364218462146,-0.2098697717006351
-7514.9320776462555,412.0,-864.0,15864.0,-2589.0,-1976.0,-1855.0,0.6336571491573796,0.4006062776586854,0.6109308244430318,-0.2544734865709046
-7514.947694063187,160.0,-1400.0,15956.0,-2683.0,-1874.0,-1681.0,0.752302852220404,0.11507363663434808,0.5956024403999727,-0.25701402623667857
-7514.963319301605,-164.0,-1992.0,15872.0,-2532.0,-1926.0,-1422.0,0.8094279056618542,-0.16109336252356724,0.5166869994161969,-0.22783752702529483
-7514.97890329361,-140.0,-2548.0,15848.0,-2344.0,-2113.0,-1276.0,0.8114178938680848,-0.4085900720202704,0.37949333630115967,-0.17504274409459733
-7514.994511127472,224.0,-2656.0,15888.0,-2277.0,-2311.0,-528.0,0.7678290164352275,-0.5984178394174711,0.22266030982694715,-0.05250787954969198
-7515.010152578354,-124.0,-2812.0,15936.0,-2279.0,-3057.0,-621.0,0.6684909840972286,-0.7363900992235782,-0.00405551664769504,0.10408159650451072
-7515.0257885456085,-52.0,-2368.0,15828.0,-1981.0,-3484.0,-994.0,0.5165327276108047,-0.771320512282917,-0.2721229553585798,0.25339239492430166
-7515.041393995285,116.0,-2788.0,15660.0,-1617.0,-4003.0,-1456.0,0.32045385368969537,-0.6699947512616138,-0.5448888114972713,0.38924612270696146
-7515.056996583939,336.0,-3040.0,15676.0,-1285.0,-5014.0,-2204.0,0.07338590520156406,-0.3865927609201636,-0.7698610993168901,0.5024683411723188
-7515.072633743286,584.0,-3276.0,15948.0,-1109.0,-5867.0,-2572.0,-0.2135017255980201,0.031762332561055755,-0.8199876237391768,0.5301211788935876
-7515.088237047195,724.0,-3120.0,16508.0,-1315.0,-6702.0,-3434.0,-0.4414304389878126,0.5092421088298946,-0.6208053110613958,0.40051517809874904
-7515.103863477707,2464.0,-3096.0,17620.0,-1755.0,-7155.0,-3432.0,-0.5148293807133412,0.8261762983280013,-0.20701916661117054,0.09760377805687395
-7515.119478225708,4100.0,-3420.0,19328.0,-2280.0,-6774.0,-3134.0,-0.3687579567095764,0.8619395457478388,0.25127146746942375,-0.24070820192745732
-7515.135103464127,5440.0,-3400.0,20632.0,-2423.0,-4734.0,-3262.0,-0.1328093366028619,0.6752361837407983,0.6147641591663702,-0.3853346660796776
-7515.150668621063,6844.0,-3712.0,20896.0,-2349.0,-2776.0,-3185.0,0.04370814708270194,0.4036684716338928,0.8418121674510269,-0.35565944050279064
-7515.166267633438,7264.0,-3912.0,20408.0,-2281.0,-648.0,-3613.0,0.055675043850647414,0.10228614149843274,0.9706863242926029,-0.21025197878000318
-7515.181846380234,7104.0,-4384.0,20256.0,-1949.0,472.0,-4614.0,-0.047266661054445165,-0.2650675332213457,0.9613218962504313,-0.058011010801313295
-7515.197421550751,6256.0,-4988.0,20668.0,-1127.0,1168.0,-6250.0,-0.17687227800861924,-0.6786051578677772,0.7122260796810793,0.030744892411774628
-7515.212999582291,6524.0,-5396.0,21472.0,-494.0,1575.0,-7061.0,-0.2409280040508814,-0.9414419300346037,0.226695864042882,0.06519029423641025
-7515.228614807129,7440.0,-4612.0,21580.0,-254.0,2404.0,-7293.0,-0.22249314408945808,-0.9086486312435863,-0.35268643998785837,0.02160418526664417
-7515.244241952896,7440.0,-3912.0,19652.0,-1450.0,3192.0,-6867.0,-0.1877318979436792,-0.5600461214210366,-0.7981582009999735,-0.11852663224863653
-7515.259927988052,7032.0,-4496.0,16300.0,-2694.0,3755.0,-5876.0,-0.09932007917555342,-0.05664131071438278,-0.9371834937258384,-0.3295669626660868
-7515.275522708893,6036.0,-5800.0,13704.0,-3210.0,3757.0,-4505.0,0.054050130494878744,0.38675750724958396,-0.7769824975382122,-0.49375643033671635
-7515.291120052338,4920.0,-7504.0,12300.0,-3058.0,3640.0,-2863.0,0.25270322329430545,0.6510196184664468,-0.47816593985551326,-0.5326085535086382
-7515.306704044342,3884.0,-9196.0,12092.0,-2801.0,3032.0,-1210.0,0.4514257606101198,0.7308514688608208,-0.19871390595619126,-0.47178776658704263
-7515.322290182114,3664.0,-10448.0,12436.0,-2062.0,2377.0,25.0,0.6029369938992222,0.7203238941615464,-0.020917678135558983,-0.3422906946283113
-7515.337919473648,3980.0,-10008.0,12556.0,-1479.0,2004.0,1291.0,0.7170368633745333,0.679846685777789,0.04621528168962356,-0.14673366395383178
-7515.353538036346,4748.0,-8580.0,13052.0,-1020.0,1647.0,2351.0,0.7742046946570745,0.6247807000195141,0.0220609239669415,0.09884069651614455
-7515.369157552719,5084.0,-7164.0,12968.0,-573.0,1162.0,2770.0,0.7530192298040251,0.5615798736984011,-0.0535952535288483,0.3386999170378095
-7515.384742021561,5024.0,-5844.0,13156.0,-158.0,680.0,2740.0,0.6630884832765133,0.5030157173900409,-0.14363474292259526,0.5354044378133185
-7515.400318622589,4732.0,-4532.0,13504.0,56.0,306.0,2388.0,0.5410710797010511,0.4519455605867367,-0.22331496625791322,0.6731401955182191
-7515.415934801102,4392.0,-4044.0,13388.0,19.0,-27.0,1870.0,0.42432337234326306,0.4123144133982763,-0.29335533459930824,0.7509255274988352
-7515.431512832642,4316.0,-4036.0,14068.0,-391.0,87.0,1291.0,0.353566936956475,0.35640591264734084,-0.35967203611330595,0.7865120933331801
-7515.447096824646,4432.0,-4292.0,14824.0,-1013.0,484.0,772.0,0.3448654087072098,0.2656368702442753,-0.43512258417961347,0.788145443291332
-7515.462716579437,4376.0,-5004.0,15060.0,-1470.0,862.0,427.0,0.37792523549978574,0.14405629481443974,-0.5140452694836488,0.7564243261676938
-7515.47829580307,3988.0,-5632.0,14872.0,-1739.0,1055.0,113.0,0.43292616027232705,0.01171310858920038,-0.586119725710138,0.6847637621636457
-7515.493875980377,3352.0,-5856.0,14708.0,-1862.0,1067.0,-216.0,0.4937252390907272,-0.10946540729452617,-0.6453786913776506,0.5724849846121024
-7515.509493350983,3172.0,-5960.0,14408.0,-1657.0,1071.0,-487.0,0.553999864708149,-0.20376471862987952,-0.6759946106803507,0.4411296585768853
-7515.525072097778,3332.0,-5392.0,14480.0,-1413.0,946.0,-731.0,0.6050890077897435,-0.26196165243657005,-0.6886186392008002,0.30174120542273236
-7515.540637731552,3720.0,-4988.0,14752.0,-1182.0,636.0,-933.0,0.6345460024204977,-0.2821719289949246,-0.700301610519715,0.1652514072646348
-7515.55625462532,3968.0,-4732.0,15012.0,-1266.0,595.0,-1076.0,0.6477292331529602,-0.2916349209842987,-0.7037144865568385,0.013484613142593504
-7515.57192158699,3740.0,-4972.0,15192.0,-1431.0,679.0,-1095.0,0.6453598344173185,-0.3018277483235501,-0.6851770198404596,-0.15146995063488014
-7515.587522029877,3440.0,-5152.0,15096.0,-1358.0,818.0,-831.0,0.6398663575087364,-0.3139877328919963,-0.6352245117751889,-0.2974433858095001
-7515.603113889694,2820.0,-5520.0,14756.0,-1098.0,600.0,-761.0,0.6183626312227068,-0.31496416326560644,-0.5891500828609462,-0.41391715599944323
-7515.618701934814,2676.0,-5868.0,14452.0,-667.0,354.0,-348.0,0.6041783320047128,-0.31942762458313206,-0.5539224013480085,-0.47550447850050437
-7515.634291410446,2592.0,-5880.0,14108.0,-509.0,368.0,-132.0,0.60146694651756,-0.3240912965720635,-0.5161160345957887,-0.5165525941917243
-7515.649866819382,3264.0,-5812.0,14480.0,-4.0,110.0,-9.0,0.6059883994359101,-0.3189014550986233,-0.5102378642436999,-0.520324171624875
-7515.66551399231,3528.0,-5396.0,15092.0,-6.0,-182.0,57.0,0.6003349851346182,-0.32995444892009934,-0.5177803779537271,-0.5124758018358982
-7515.681143760681,3836.0,-4988.0,15788.0,-118.0,-73.0,-100.0,0.5892096158132973,-0.33481579055479177,-0.5190017965962255,-0.5209295059393416
-7515.696731328964,3856.0,-4668.0,15836.0,-60.0,320.0,-282.0,0.5888210978058871,-0.31032023022617355,-0.5075507259919786,-0.547159327834279
-7515.7123103141785,3452.0,-4732.0,15408.0,7.0,585.0,-408.0,0.5943953697358293,-0.2634031181868407,-0.4877661159935139,-0.5825780272672992
-7515.727915763855,3080.0,-4832.0,15220.0,555.0,815.0,-540.0,0.6115616906695007,-0.16933864470136187,-0.4836218178416895,-0.6028487863665875
-7515.743515729904,2768.0,-4876.0,15244.0,985.0,890.0,-259.0,0.6456826422333529,-0.05859567672686537,-0.4881936413967004,-0.5842323516267365
-7515.759125709534,2568.0,-5368.0,15544.0,1392.0,1066.0,-547.0,0.6619896133239133,0.09624719730950788,-0.4953908122684186,-0.5541607817063179
-7515.774728059769,2684.0,-5280.0,15192.0,1770.0,1033.0,-760.0,0.643533790795037,0.2762829313348927,-0.5056661133563263,-0.5038191974915956
-7515.790321826935,2852.0,-5004.0,15052.0,2001.0,982.0,-545.0,0.6027942952864133,0.44695842079783443,-0.5150386750296638,-0.4142491652034447
-7515.805980205536,2964.0,-4904.0,14872.0,2069.0,715.0,-399.0,0.529986539601771,0.5885488375425172,-0.5267740435064423,-0.3085994827542087
-7515.821568727493,2736.0,-4692.0,15084.0,1851.0,454.0,-377.0,0.43942001849976225,0.6937979772296476,-0.528694750762905,-0.21456065494276308
-7515.837148189545,2432.0,-4628.0,15300.0,1649.0,286.0,-334.0,0.3427741895480875,0.7693074170426123,-0.5226059761563269,-0.13249508197879992
-7515.852748394012,2332.0,-4772.0,15564.0,1572.0,216.0,-390.0,0.24016108234465686,0.8282401254881485,-0.5030414442610887,-0.057360739309539145
-7515.868346691132,2432.0,-4652.0,15472.0,1676.0,29.0,-568.0,0.11606210462112317,0.8780423490565706,-0.46425285479483663,0.006364585530812897
-7515.8839635849,2792.0,-4596.0,15468.0,1695.0,38.0,-900.0,-0.011650711899618037,0.9188559384959861,-0.38852743192265915,0.0679298155928327
-7515.899508476257,2544.0,-4596.0,15552.0,1599.0,124.0,-1099.0,-0.12738295765676788,0.9403153783194932,-0.28691474756974994,0.13137921837744782
-7515.915123462677,2992.0,-4280.0,15396.0,1684.0,387.0,-1125.0,-0.23920940355796774,0.9303607567393981,-0.1767149093052816,0.2144284598600709
-7515.930808544159,3036.0,-4128.0,15112.0,1768.0,470.0,-1252.0,-0.3457487635486524,0.8874578738844848,-0.050804742157898326,0.30049158517215935
-7515.946427345276,2636.0,-4676.0,15496.0,1647.0,177.0,-1069.0,-0.43814299899933196,0.82564972190426,0.06885775511614378,0.348700241909372
-7515.962058067322,2244.0,-4888.0,15736.0,1459.0,-251.0,-891.0,-0.5089950621986844,0.763419911849281,0.18497855164079002,0.3519900570787037
-7515.977690458298,1768.0,-4868.0,16240.0,1145.0,-627.0,-747.0,-0.5476188889490564,0.7135436266194232,0.2952326130021639,0.3221905485840896
-7515.994035482407,1828.0,-4940.0,16400.0,993.0,-1016.0,-562.0,-0.5626034681247256,0.6741229046290672,0.4031176094231668,0.25793766704661697
-7516.009680271149,2264.0,-4752.0,16372.0,917.0,-925.0,-401.0,-0.5710662489611077,0.6312886521137526,0.4892861270118021,0.18962347672079652
-7516.025365829468,2784.0,-4172.0,16248.0,644.0,-1070.0,-460.0,-0.5496519913749854,0.5932054122073858,0.5747162859851704,0.12526459168013293
-7516.040959596634,2848.0,-3936.0,15964.0,224.0,-1162.0,-533.0,-0.49407390463107725,0.5647706432476772,0.6562728356990879,0.07893707881397646
-7516.056599378586,2700.0,-3936.0,15876.0,-229.0,-1170.0,-470.0,-0.41006079225379244,0.5523138278019739,0.7237747993613929,0.05431042334855192
-7516.0722370147705,2656.0,-4296.0,15952.0,-590.0,-776.0,-423.0,-0.3292554760078796,0.5480201330327268,0.7658338041329257,0.06901702512358003
-7516.087923288345,2320.0,-4640.0,15940.0,-547.0,-839.0,-297.0,-0.24427048135941984,0.5466673075500192,0.7975327570097251,0.0736769182913949
-7516.103531599045,2148.0,-4572.0,16132.0,-348.0,-628.0,-205.0,-0.18229755570372722,0.5427010252251047,0.816723471277981,0.0721524072204931
-7516.119122266769,2024.0,-4084.0,15992.0,94.0,-306.0,-304.0,-0.16294786074744882,0.5210704035724751,0.8359578903050763,0.055749751885849276
-7516.134695291519,2096.0,-3768.0,16032.0,397.0,-109.0,-463.0,-0.17059444526291223,0.4814610944138498,0.8592370344290268,0.02836315350712438
-7516.150274515152,2084.0,-3524.0,16296.0,663.0,-23.0,-528.0,-0.19493884753259189,0.43086008829890365,0.8809937636247075,-0.014436706275976284
-7516.165874958038,2688.0,-2964.0,16572.0,852.0,83.0,-1044.0,-0.23311853618971667,0.33386117556901407,0.9114546135447176,-0.05867666470147566
-7516.181496858597,2976.0,-2700.0,16828.0,793.0,183.0,-1242.0,-0.27490642349030614,0.2180121025385991,0.932051893851824,-0.09042371723002766
-7516.197088003159,2868.0,-2716.0,16580.0,773.0,303.0,-1317.0,-0.3217671256745669,0.09383209214262697,0.935123744195144,-0.11491317749379364
-7516.212723493576,2780.0,-2908.0,16088.0,725.0,343.0,-1445.0,-0.36647007545954174,-0.04062733468076657,0.920492996346497,-0.12938990357235342
-7516.228320360184,2344.0,-3160.0,15428.0,523.0,138.0,-1357.0,-0.38795680368476565,-0.16350847159922366,0.8980526941278889,-0.12749845787156244
-7516.243933916092,2152.0,-3416.0,15208.0,797.0,-183.0,-1261.0,-0.37313934647762353,-0.28890310129236807,0.8698950632969499,-0.14347335998539731
-7516.259558916092,2388.0,-3776.0,15396.0,700.0,-376.0,-1023.0,-0.33765727745720586,-0.3915834733355551,0.8421831420921356,-0.1528970292924873
-7516.275165319443,2656.0,-3920.0,15668.0,561.0,-443.0,-784.0,-0.29516923577638854,-0.46964184492440236,0.8174360725501351,-0.15527371651698504
-7516.290793657303,3008.0,-3796.0,16020.0,364.0,-182.0,-533.0,-0.27406365667720756,-0.5186162045120993,0.7939654344594953,-0.15982876271099306
-7516.306416749954,3196.0,-3820.0,15908.0,210.0,53.0,-487.0,-0.2747721378344398,-0.5560349612576971,0.7668760997875068,-0.16500436874139052
-7516.321990728378,3184.0,-3444.0,16064.0,36.0,170.0,-533.0,-0.2917782163149253,-0.589407139105586,0.7355144327661903,-0.1627366462972564
-7516.337561845779,3188.0,-3112.0,15880.0,16.0,67.0,-617.0,-0.3036240698281267,-0.6275375803650337,0.7007927154095408,-0.1513227658996693
-7516.353177309036,3324.0,-3332.0,16092.0,141.0,-180.0,-738.0,-0.2940177558583575,-0.6772413830478452,0.6617588342772999,-0.1302801350298889
-7516.3687698841095,3264.0,-3236.0,15816.0,204.0,-480.0,-830.0,-0.26275428555194974,-0.733187119212373,0.6204157201109823,-0.09209325645408163
-7516.3843450546265,2820.0,-3536.0,15848.0,234.0,-619.0,-547.0,-0.2180766711129879,-0.770981263872629,0.5960494714136441,-0.05249270331348016
-7516.399960756302,2820.0,-3640.0,15632.0,489.0,-681.0,-597.0,-0.1518849557647833,-0.8111994181186734,0.5643212961568296,-0.020686685576269216
-7516.415532827377,2756.0,-3704.0,15820.0,344.0,-668.0,-366.0,-0.0950432055914598,-0.8327803432454581,0.5451922798991466,0.01445914635263479
-7516.431131601334,2756.0,-3700.0,15824.0,366.0,-649.0,-105.0,-0.03734259314864401,-0.8381882022983115,0.5422391159561329,0.04497565332455852
-7516.446721792221,2880.0,-3640.0,15632.0,381.0,-603.0,97.0,0.018661992230475537,-0.8308330750279513,0.5517109082602142,0.07059182100128698
-7516.462327003479,3032.0,-3432.0,15892.0,288.0,-568.0,101.0,0.06618770119612964,-0.8207011136666423,0.5590003435384927,0.09791570946764197
-7516.477974176407,2968.0,-3108.0,16080.0,82.0,-455.0,76.0,0.09355306113475094,-0.8119510581155736,0.5620453105017258,0.12683995001708495
-7516.493566274643,3044.0,-2852.0,15916.0,-59.0,-392.0,33.0,0.10819207590117808,-0.8059872777261124,0.5601889482629567,0.1576937700097451
-7516.509185552597,3184.0,-2964.0,15852.0,-186.0,-466.0,-108.0,0.1192815644650324,-0.8058009732693827,0.5450773796452203,0.19836166478427744
-7516.524776697159,3324.0,-3064.0,15888.0,-217.0,-497.0,-215.0,0.13124174192550137,-0.8086340698844755,0.5203406769022123,0.2411060475379593
-7516.540336608887,3332.0,-3144.0,16004.0,-227.0,-564.0,-356.0,0.1480754697201561,-0.8139911293488373,0.483050129058867,0.28662635856594154
-7516.555961847305,3280.0,-3108.0,15940.0,-255.0,-483.0,-538.0,0.16344809672814403,-0.8260311930139124,0.4312214348625435,0.3240451541977587
-7516.571573495865,3072.0,-3168.0,16096.0,-251.0,-397.0,-656.0,0.17844184050603729,-0.8409791261928558,0.3702223423016045,0.3519204968816571
-7516.587153673172,3408.0,-3276.0,16116.0,-192.0,-265.0,-752.0,0.19555013351355444,-0.8579189159762306,0.3041947448346876,0.36496689727694426
-7516.602729558945,3440.0,-3452.0,16064.0,-119.0,-218.0,-769.0,0.21643192796141958,-0.8712388225646632,0.23848027103249722,0.3704420264269549
-7516.6182997226715,3344.0,-3464.0,16280.0,-144.0,-146.0,-815.0,0.23429277339479176,-0.8838044339956034,0.16861011397620873,0.36819457933220234
-7516.633910655975,3288.0,-3452.0,16244.0,-149.0,32.0,-773.0,0.246641186302015,-0.8971109499150749,0.104573797234252,0.35131807481827143
-7516.6495134830475,3288.0,-3436.0,16368.0,-254.0,360.0,-769.0,0.24636673971984743,-0.9178704150792873,0.0441657409258189,0.3080044123230433
-7516.665185689926,3224.0,-3404.0,16116.0,-301.0,544.0,-1020.0,0.246297941123369,-0.9377946098977189,-0.033784044800180976,0.2423576534011542
-7516.680783510208,3268.0,-3196.0,16000.0,-356.0,650.0,-880.0,0.23655586423972563,-0.9517981883890255,-0.0988920763392766,0.16835049423887133
-7516.696380376816,3576.0,-3248.0,15864.0,-4.0,687.0,-934.0,0.2546354266342093,-0.949048289001128,-0.16154794918545012,0.09148991617014793
-7516.711999177933,3260.0,-3488.0,15744.0,-196.0,588.0,-983.0,0.2533009409325642,-0.939400288186652,-0.23030252679384092,0.018068703049332255
-7516.72759437561,3024.0,-3572.0,15640.0,-145.0,355.0,-928.0,0.2491170973129395,-0.9209619110478887,-0.297640030845986,-0.034354654173728065
-7516.743218898773,2964.0,-3756.0,15580.0,-20.0,155.0,-800.0,0.2485708584049183,-0.8978592953208273,-0.3576173240716219,-0.06458377258787305
-7516.758836746216,2980.0,-4028.0,15732.0,58.0,95.0,-654.0,0.2520365482519403,-0.8741671197175086,-0.4064546450544387,-0.08428550684259067
-7516.774460554123,3044.0,-3916.0,15748.0,91.0,14.0,-453.0,0.25600009896969167,-0.8552761609681944,-0.44101713840425816,-0.09203543578825954
-7516.790035486221,3304.0,-3728.0,15972.0,36.0,25.0,-266.0,0.2575061933333023,-0.8437797969735338,-0.4604705350274267,-0.09845354735025784
-7516.805597543716,3096.0,-3532.0,16360.0,-112.0,192.0,-193.0,0.25529420564592864,-0.8365967277056149,-0.46924284353355,-0.12141638088997654
-7516.821178197861,3312.0,-3392.0,15992.0,-247.0,301.0,-190.0,0.24745756949079725,-0.8305172938372956,-0.4734429977493322,-0.15766262658286595
-7516.836754322052,3224.0,-3352.0,15840.0,-379.0,281.0,-276.0,0.2275978516476042,-0.8224773103736714,-0.481606155719538,-0.19946378773836146
-7516.852338314056,3064.0,-3124.0,15768.0,-404.0,168.0,-440.0,0.197761087027282,-0.8078797929806614,-0.5020752643041214,-0.23694138837539191
-7516.868006467819,2832.0,-3444.0,16068.0,-434.0,143.0,-686.0,0.15887554675364246,-0.7803161336028226,-0.5376039651065259,-0.27721339972052983
-7516.883569955826,3056.0,-3620.0,15920.0,-388.0,151.0,-808.0,0.11965310173086123,-0.7417789970745283,-0.5793207554519362,-0.3159660061587149
-7516.899176120758,3168.0,-3824.0,15692.0,-340.0,154.0,-905.0,0.08021624537043678,-0.6927785492325694,-0.6246387676476556,-0.3513540175570849
-7516.914797306061,3152.0,-3824.0,15844.0,-289.0,120.0,-905.0,0.04141920865453047,-0.6395333737048563,-0.6673147468471685,-0.3794371380247544
-7516.9304938316345,3208.0,-3620.0,15944.0,-505.0,138.0,-820.0,-0.005842255240913843,-0.586898280058951,-0.6933458198736391,-0.4180763697953953
-7516.946142196655,3056.0,-3948.0,16076.0,-276.0,185.0,-687.0,-0.03375819024732452,-0.5372247918880354,-0.7169458194457019,-0.4429882611891808
-7516.961810350418,2972.0,-3976.0,16024.0,-278.0,352.0,-515.0,-0.04458152976363697,-0.4896830123152404,-0.7300549523548527,-0.474597514949204
-7516.977405309677,2932.0,-4048.0,15988.0,-225.0,425.0,-315.0,-0.040096218152775406,-0.450547951646127,-0.7348890622953677,-0.505308720166157
-7516.992998838425,2816.0,-4044.0,16068.0,-212.0,490.0,-178.0,-0.024803760003820476,-0.41625982891358837,-0.7333247445979822,-0.5369798388047797
-7517.008637666702,2964.0,-3956.0,15816.0,-297.0,464.0,-210.0,-0.01569470702633704,-0.37990959088116044,-0.7270243698730472,-0.5717149154417482
-7517.024239778519,2856.0,-3936.0,15808.0,-371.0,759.0,-509.0,-0.005190201777009862,-0.30806630255746276,-0.7236913266198608,-0.6175265814596759
-7517.039908885956,2988.0,-3920.0,15792.0,-329.0,555.0,-5.0,0.020744919593105628,-0.2772343199574178,-0.705152076309971,-0.6522816335177318
-7517.055495977402,2900.0,-4012.0,15716.0,-288.0,550.0,-271.0,0.03217119130417115,-0.229347868783942,-0.6930227710581832,-0.6827034556300204
-7517.071160078049,2824.0,-3912.0,15740.0,-215.0,486.0,-225.0,0.043831684174641096,-0.18713298845835802,-0.68239209072177,-0.7052666606422212
-7517.086790323257,2684.0,-4152.0,15816.0,-127.0,433.0,-237.0,0.052935710435985134,-0.14669579469590394,-0.67602050695052,-0.7201905501751165
-7517.1024334430695,2624.0,-4180.0,16124.0,-43.0,426.0,-202.0,0.06479826366736792,-0.1081013778220161,-0.6732569542111492,-0.7285879155908386
-7517.118031024933,2628.0,-4368.0,15632.0,-37.0,387.0,-118.0,0.07966852536012337,-0.07672109218099497,-0.6693012208190585,-0.7347126485175117
-7517.133622407913,2720.0,-4380.0,15864.0,59.0,409.0,-33.0,0.10180829649626988,-0.048131704325710754,-0.6699150304003716,-0.7338475739872002
-7517.149229049683,2820.0,-4348.0,15812.0,83.0,315.0,24.0,0.12210068404157429,-0.02862388978174008,-0.6719504012368167,-0.7299005097737796
-7517.164858818054,2664.0,-4336.0,15792.0,79.0,332.0,203.0,0.15464982458006798,-0.018543314621473347,-0.6724265113200563,-0.7235897761260461
-7517.180499076843,2700.0,-4440.0,15816.0,12.0,313.0,340.0,0.19440053717982728,-0.0185744316316348,-0.6677570391934389,-0.7183063122661308
-7517.196086645126,2676.0,-4408.0,15576.0,29.0,196.0,452.0,0.23404459657267562,-0.03213301066513233,-0.6647895586108158,-0.7086927678499088
-7517.211714267731,2736.0,-4232.0,15468.0,37.0,252.0,571.0,0.28372817517448234,-0.0488735641669984,-0.6592340173295616,-0.6946367451649099
-7517.227311372757,2876.0,-3968.0,15452.0,-48.0,-125.0,596.0,0.31208890704923015,-0.09183161262180299,-0.655827951205571,-0.6812174156887061
-7517.242895126343,2800.0,-3788.0,15552.0,-203.0,-136.0,465.0,0.3300472130755899,-0.1319465506811144,-0.6429385233184166,-0.6784460185877178
-7517.258487462997,3032.0,-3712.0,15424.0,-458.0,-116.0,319.0,0.33680798842740456,-0.16971504912662597,-0.6145957538310883,-0.6928414251502493
-7517.274136066437,3228.0,-3644.0,15232.0,-504.0,-104.0,58.0,0.3270097796095087,-0.19374078256001925,-0.5855795832723919,-0.715978815934734
-7517.289734363556,3400.0,-3732.0,15112.0,-586.0,-198.0,-11.0,0.3059199809595246,-0.22195718272342554,-0.5538422887894497,-0.741893990699256
-7517.305367469788,3404.0,-3836.0,15676.0,-612.0,-375.0,-271.0,0.2578782911066751,-0.2489170532590149,-0.5281396452073618,-0.76981010822994
-7517.320963144302,3300.0,-3856.0,15860.0,-591.0,-396.0,-627.0,0.18408577306919402,-0.2590205302124393,-0.5090689765955365,-0.799918477189993
-7517.3365650177,3148.0,-4052.0,16264.0,-574.0,-268.0,-675.0,0.11175890955213186,-0.2561018564937105,-0.4868134973806182,-0.8276076389233272
-7517.352161169052,3164.0,-4116.0,16216.0,-594.0,44.0,-658.0,0.052703762374722164,-0.2300375725631352,-0.4566476015970063,-0.8577750267969516
-7517.367787599564,3112.0,-4304.0,16100.0,-680.0,260.0,-576.0,0.006304199627029053,-0.1900859043364884,-0.4145610000937303,-0.8899251559771351
-7517.383377790451,3108.0,-4204.0,16004.0,-755.0,336.0,-600.0,-0.040478350636966295,-0.1420995725033939,-0.3640328979934489,-0.9195919006834252
-7517.398991107941,2824.0,-4500.0,15996.0,-821.0,379.0,-817.0,-0.10358707360634119,-0.0823331208372697,-0.3076368751497138,-0.9422582068854533
-7517.414647817612,3104.0,-4572.0,16256.0,-732.0,353.0,-971.0,-0.178125050651213,-0.02049042394107734,-0.2557852815466778,-0.9499607879282727
-7517.430226325989,3148.0,-4604.0,16624.0,-489.0,489.0,-990.0,-0.24878503265947371,0.04944789883062236,-0.22309862839855743,-0.941216189210823
-7517.445825576782,2964.0,-4620.0,16360.0,-228.0,539.0,-946.0,-0.3135590206614716,0.11647525977894033,-0.21072032185496192,-0.9185375334620728
-7517.461424589157,2576.0,-4500.0,15880.0,-3.0,560.0,-727.0,-0.36039295126286874,0.1741635706672232,-0.2174543492961562,-0.8902233300159393
-7517.477031946182,2220.0,-4528.0,15612.0,169.0,586.0,-376.0,-0.38036280985071663,0.2209711422682843,-0.24258474326068752,-0.864666715853145
-7517.492689847946,1972.0,-4660.0,15644.0,201.0,631.0,120.0,-0.3612609994170271,0.25882139484009975,-0.2803112964178314,-0.8508393226536904
-7517.508293628693,1904.0,-4748.0,15680.0,253.0,713.0,281.0,-0.3279144461935847,0.2960810754513138,-0.32692159992913267,-0.8354222765984421
-7517.523923397064,1900.0,-4480.0,15564.0,191.0,528.0,612.0,-0.2725002899238896,0.31073813073742707,-0.3706319098826421,-0.8317556092230163
-7517.539495944977,2100.0,-4180.0,15500.0,115.0,747.0,759.0,-0.1955444559282784,0.33612469870186046,-0.4153703671946927,-0.8223442166969032
-7517.555101394653,2172.0,-3788.0,15508.0,44.0,683.0,348.0,-0.14679800460301412,0.3708655573768996,-0.43927811197097655,-0.8049495788801366
-7517.570730209351,2320.0,-3720.0,15380.0,32.0,708.0,159.0,-0.10932244972571546,0.41319551900177354,-0.4547173215123606,-0.7813771321068002
-7517.586314916611,2152.0,-4204.0,15620.0,-12.0,629.0,58.0,-0.07987123888735395,0.45314890989548656,-0.46119006224121933,-0.7586701372461364
-7517.601935625076,2296.0,-4692.0,16088.0,50.0,529.0,95.0,-0.05422398736038849,0.4834056658119432,-0.47133461791006526,-0.7356781901179517
-7517.617523908615,2408.0,-4868.0,16240.0,108.0,326.0,148.0,-0.03586431677665505,0.49741314038429996,-0.4857200343969939,-0.7178927264853402
-7517.633145093918,2312.0,-5092.0,16272.0,127.0,143.0,194.0,-0.02316906373389676,0.4975530756077914,-0.5023333011762973,-0.7067993958459824
-7517.648743629456,2304.0,-4740.0,16052.0,175.0,118.0,5.0,-0.025296294092575805,0.5041193331919288,-0.5134282886785474,-0.6939850054517931
-7517.664385318756,2240.0,-4412.0,15848.0,269.0,308.0,343.0,-0.002560851577683811,0.5062102341208883,-0.5448417508985981,-0.6684998933344887
-7517.680057287216,1712.0,-4316.0,15560.0,357.0,514.0,546.0,0.037862976093396436,0.5087781808612691,-0.5883131859945625,-0.6273744917557423
-7517.695654153824,1368.0,-4308.0,15084.0,412.0,596.0,829.0,0.09513213494902187,0.49787803190359453,-0.6427138440696241,-0.5744443026865973
-7517.7112827301025,1224.0,-4528.0,14876.0,388.0,759.0,787.0,0.15950821085333802,0.4924613199530449,-0.6865200515760177,-0.510616487987348
-7517.726873636246,1172.0,-4728.0,15004.0,366.0,283.0,1155.0,0.21099419132526734,0.43835418032141826,-0.7441380955608946,-0.457805153484251
-7517.742465019226,1720.0,-4620.0,15132.0,448.0,231.0,1193.0,0.2549412785339697,0.3759257401635704,-0.7983263145746059,-0.3954236687904053
-7517.75803399086,1976.0,-4192.0,15120.0,483.0,144.0,1068.0,0.2845272738080066,0.3155253837730866,-0.8423538801133293,-0.3315537713738884
-7517.773666381836,2220.0,-3656.0,15748.0,392.0,88.0,835.0,0.3034287146232207,0.2655235406845219,-0.8716430110773753,-0.2786875055046809
-7517.789345502853,2428.0,-3196.0,16180.0,118.0,47.0,484.0,0.31579994502930586,0.23272679718644984,-0.8836215084266433,-0.25558102910162894
-7517.804950475693,2544.0,-3132.0,16336.0,-225.0,-21.0,26.0,0.3193276612956228,0.22399006960686776,-0.8795110820651953,-0.2726142879114883
-7517.82054567337,2796.0,-3472.0,16364.0,-400.0,-49.0,-452.0,0.3122551969410381,0.2460160490709778,-0.8612919020258332,-0.3164633550469035
-7517.836144685745,3092.0,-3960.0,16240.0,-400.0,-96.0,-962.0,0.28592243039182974,0.30350665962187917,-0.8287236369452816,-0.3732950641679888
-7517.851815462112,3292.0,-4104.0,16060.0,-428.0,-221.0,-1319.0,0.23657776000582964,0.3781896334034902,-0.7794860853446514,-0.4397783616901001
-7517.867443561554,2696.0,-4344.0,16092.0,-388.0,-199.0,-1368.0,0.18194727651166848,0.45206176523514224,-0.7178917868155077,-0.49715865818198457
-7517.883030176163,2156.0,-4640.0,15896.0,-400.0,-149.0,-1258.0,0.13293506416477233,0.5146042162519231,-0.6488731789122467,-0.5444945977873125
-7517.898664712906,1728.0,-4668.0,15988.0,-426.0,-82.0,-956.0,0.10157571955323712,0.5575474541272099,-0.5841435261110196,-0.5810331750391654
-7517.914258956909,1448.0,-4592.0,15996.0,-487.0,27.0,-681.0,0.09187436321810988,0.5877191711939257,-0.5246125008070258,-0.6090377666379895
-7517.9300010204315,1476.0,-4416.0,15972.0,-667.0,192.0,-451.0,0.11062340589357869,0.611592669852236,-0.46321672646295375,-0.631780921345733
-7517.945608854294,1820.0,-4164.0,15900.0,-852.0,347.0,-377.0,0.14879585006311355,0.6353044872494187,-0.3912302114068166,-0.6489891564327759
-7517.961202383041,1992.0,-3976.0,15976.0,-995.0,336.0,-561.0,0.18269593889304214,0.656969865131114,-0.2977323431113342,-0.668107956910431
-7517.976858139038,2136.0,-3992.0,15688.0,-1123.0,295.0,-840.0,0.20419741114210316,0.6727727792851632,-0.17792711119124327,-0.6884926636057342
-7517.992456436157,2140.0,-4308.0,15292.0,-1194.0,-69.0,-1135.0,0.20295142734511967,0.6580937634565781,-0.04028490425935115,-0.7239478179585537
-7518.008075475693,2424.0,-4364.0,15164.0,-1082.0,-720.0,-1396.0,0.17199205021776195,0.5900909829286858,0.0942629330517288,-0.7831512408089728
-7518.023658752441,2540.0,-5124.0,15144.0,-998.0,-1491.0,-1396.0,0.13753744881741697,0.4527114017526473,0.2079710812155363,-0.8560863661301882
-7518.039279460907,2648.0,-5548.0,15864.0,-887.0,-1992.0,-1119.0,0.12233185107843249,0.26665875023135044,0.2880222022120911,-0.9115762393621696
-7518.054866075516,3204.0,-5708.0,16620.0,-831.0,-1804.0,-740.0,0.1259652907242686,0.09381888718782255,0.3461440824091514,-0.9249405581726405
-7518.070502996445,3452.0,-5680.0,16756.0,-670.0,-1337.0,-283.0,0.14765675178880755,-0.02996376638258961,0.38429595363715724,-0.9108327378687351
-7518.086093187332,3480.0,-5716.0,16400.0,-563.0,-871.0,238.0,0.1934584672925233,-0.09815293960274074,0.41643224635314124,-0.8829065670145654
-7518.101672172546,3212.0,-5920.0,15540.0,-518.0,-609.0,746.0,0.26741882203065565,-0.12617438892814808,0.4501907860980028,-0.8425529379895411
-7518.117332696915,3052.0,-5804.0,14640.0,-716.0,-537.0,997.0,0.351562775967499,-0.14225191092965114,0.4976960101241327,-0.7800427487627895
-7518.132923126221,3068.0,-5272.0,14216.0,-1008.0,-1124.0,1113.0,0.45758236978840644,-0.198735235957417,0.5383053516186672,-0.6792275239317668
-7518.1485114097595,2608.0,-4868.0,14020.0,-1092.0,-1455.0,1269.0,0.571670916206764,-0.2640808081946566,0.5564527637796045,-0.5420461345573968
-7518.1640911102295,2592.0,-4424.0,14284.0,-1104.0,-1726.0,681.0,0.6508840906107451,-0.36137832764035543,0.5288027443582237,-0.40758221558465246
-7518.179741859436,2936.0,-4084.0,14268.0,-1019.0,-1852.0,326.0,0.7037427962298048,-0.4620930889897684,0.46200176117948316,-0.27887349556672736
-7518.195320606232,3304.0,-4076.0,14388.0,-814.0,-1841.0,12.0,0.7342842010782468,-0.5479733894847034,0.3635181863957507,-0.16854199661529737
-7518.210901021957,3532.0,-4560.0,14484.0,-453.0,-1916.0,-187.0,0.7595226702859567,-0.6021400492124299,0.2348472503797565,-0.07348090531022508
-7518.226484298706,3792.0,-5244.0,14368.0,-168.0,-2154.0,-213.0,0.7797058652405474,-0.6203090231204849,0.08039512631104802,0.028497424624511082
-7518.242060422897,4040.0,-5804.0,14536.0,75.0,-2512.0,-146.0,0.7831798620766789,-0.5956285911008414,-0.09606963672740891,0.1504211088904901
-7518.257622718811,4580.0,-5880.0,14720.0,284.0,-2790.0,-98.0,0.7536685076820181,-0.5231290242098516,-0.27992309840679,0.2827770562403373
-7518.273204565048,4696.0,-5940.0,15016.0,266.0,-3014.0,-4.0,0.6694351954193865,-0.41668412913217084,-0.4561482089047724,0.41250414201089
-7518.288798570633,4788.0,-6132.0,14868.0,367.0,-3061.0,291.0,0.5314731834840698,-0.2862083174147495,-0.5899594365753443,0.5362545267646963
-7518.304389476776,4724.0,-6104.0,14892.0,405.0,-2925.0,722.0,0.34531859676138854,-0.1619935642777952,-0.6655209097954711,0.641556755469327
-7518.320003986359,4684.0,-6284.0,15068.0,367.0,-2794.0,1259.0,0.11371312751202062,-0.06522103387628055,-0.6867829594869838,0.714943849494381
-7518.335592031479,4716.0,-6304.0,14888.0,311.0,-2600.0,1932.0,-0.15478227117192347,-0.015052658224413042,-0.65611006918353,0.7384683088171241
-7518.351207256317,4652.0,-6180.0,14620.0,20.0,-2565.0,2348.0,-0.4334606017119931,0.014931011245675951,-0.5903552791792104,0.68071257958987
-7518.366796255112,4804.0,-5860.0,14760.0,-387.0,-2547.0,2367.0,-0.674125521774182,0.05643855585080365,-0.4972491914122308,0.5432427744075804
-7518.382410764694,5184.0,-4972.0,14880.0,-534.0,-2121.0,1931.0,-0.8286996522333406,0.10145754194185445,-0.39450067996433413,0.3838391161399985
-7518.398008346558,5368.0,-4576.0,14644.0,-379.0,-1639.0,1453.0,-0.9134690484932285,0.1313640441358109,-0.2957676979294493,0.2466561457062733
-7518.413586139679,4888.0,-4384.0,14420.0,-188.0,-1546.0,926.0,-0.959272321029289,0.1538615226514829,-0.18460871227863931,0.14846841180961814
-7518.429156303406,4576.0,-4748.0,15092.0,-57.0,-1769.0,513.0,-0.9810543696514198,0.17111222055108405,-0.043274799411734816,0.07987630125266638
-7518.44473361969,4592.0,-5072.0,15468.0,67.0,-1751.0,224.0,-0.9786342718334766,0.1746623546409699,0.10286421883495965,0.03445252309638233
-7518.460282325745,4148.0,-5140.0,15828.0,247.0,-1529.0,208.0,-0.9604024954451787,0.1583167959126107,0.22910106207296738,-0.008691503418666808
-7518.475947380066,4072.0,-5484.0,15368.0,564.0,-1193.0,223.0,-0.9378868433361927,0.11384113621208512,0.3231137412158875,-0.05482677302455233
-7518.491537094116,4516.0,-5788.0,15008.0,879.0,-1053.0,188.0,-0.9095063960979043,0.04192786352623093,0.40007858941791385,-0.10477257277789827
-7518.507125616074,4768.0,-5572.0,14616.0,969.0,-1060.0,244.0,-0.8669307834232091,-0.035769693231765126,0.4704750290601957,-0.16063870277779996
-7518.522708415985,4724.0,-5260.0,14928.0,852.0,-1183.0,312.0,-0.8046414574434149,-0.10303933279618896,0.5442597031625713,-0.21381392932557777
-7518.538288831711,4272.0,-5104.0,14900.0,646.0,-1536.0,351.0,-0.7116046645937086,-0.15856878356428072,0.6361178551116021,-0.2526436554034842
-7518.553852558136,3940.0,-5460.0,14736.0,562.0,-1383.0,360.0,-0.6137078845183034,-0.20210695390184763,0.708177523599836,-0.28460500124310684
-7518.569509029388,3804.0,-5856.0,14484.0,526.0,-1592.0,610.0,-0.48510317867353403,-0.22930494405787258,0.7816591096842114,-0.3179672702010937
-7518.585129737854,4028.0,-6264.0,14724.0,959.0,-1695.0,750.0,-0.3241747918678283,-0.26144298121600335,0.8281429537741423,-0.3751499966741001
-7518.600720405579,4320.0,-6144.0,14924.0,1083.0,-1772.0,960.0,-0.13726409341867343,-0.2752575092828568,0.8479369143664409,-0.4317347119424924
-7518.616283893585,4640.0,-5576.0,15096.0,1191.0,-1650.0,931.0,0.04763840132778753,-0.27754084584423244,0.8294648533084796,-0.48237922709517994
-7518.631904363632,5532.0,-4908.0,15348.0,1348.0,-1223.0,674.0,0.19444304442284016,-0.2707675156391935,0.7728700812507135,-0.539952490926444
-7518.647483348846,5816.0,-4656.0,15556.0,1486.0,-731.0,583.0,0.3028232621095053,-0.2378872685576983,0.6959903620621045,-0.606057039642455
-7518.663103818893,5512.0,-4844.0,15692.0,1508.0,-486.0,661.0,0.394236476952157,-0.1815511037170045,0.6101611545165617,-0.6628123131765925
-7518.678719043732,5304.0,-5548.0,15528.0,1517.0,-237.0,904.0,0.4774682328731856,-0.09380094431816471,0.5221316270320444,-0.7004313196130281
-7518.694299221039,5052.0,-6236.0,15668.0,1656.0,70.0,1194.0,0.5521311422936542,0.03332321368432318,0.42666488369915334,-0.7155402449598773
-7518.709884405136,4980.0,-6840.0,15636.0,1894.0,606.0,1473.0,0.602171729421758,0.2122563563317206,0.32561348984898714,-0.6973609558258578
-7518.725520372391,4936.0,-7216.0,15328.0,2500.0,1106.0,1825.0,0.6109037104846846,0.444706084005335,0.19000769536512513,-0.6268414720379614
-7518.741144180298,5664.0,-6832.0,15356.0,3039.0,887.0,2058.0,0.5612085474041199,0.6546370725484885,-0.008444700796299597,-0.5063832112088272
-7518.756727218628,5744.0,-6128.0,14944.0,3355.0,331.0,2642.0,0.4557804042838579,0.7789364373446673,-0.2730561765657423,-0.3331104532837993
-7518.772330760956,5724.0,-5000.0,15236.0,3368.0,-27.0,2760.0,0.28645110134718865,0.7911053887172658,-0.5232198864508056,-0.13542149350045074
-7518.787946939468,5968.0,-4196.0,15388.0,3186.0,-52.0,2627.0,0.08951403318446527,0.7057024097969853,-0.6995402058485166,0.067932665715348
-7518.803526878357,6032.0,-4196.0,15956.0,2911.0,148.0,2326.0,-0.08990739714114983,0.5567650026357868,-0.7839160651724864,0.2596247186686236
-7518.819113969803,5844.0,-4764.0,16084.0,2672.0,465.0,2060.0,-0.22490970223209633,0.36834016140403136,-0.7928009409985399,0.4303577805623495
-7518.83469080925,5496.0,-5668.0,15548.0,2727.0,744.0,2072.0,-0.3241206331825956,0.13717100888082043,-0.7377585913833978,0.5760574539990919
-7518.850263595581,5456.0,-6656.0,15056.0,3177.0,775.0,2559.0,-0.4145395313788036,-0.14709364935948627,-0.5927237428341272,0.6746843705934308
-7518.865828037262,5744.0,-6936.0,15120.0,3505.0,826.0,2709.0,-0.45258818171739074,-0.43051297263122723,-0.3548403006296433,0.695637031227518
-7518.8814306259155,6032.0,-6628.0,15592.0,3511.0,1173.0,2960.0,-0.42883128427050543,-0.6763996319490179,-0.0708835451438542,0.5946114618454484
-7518.897009372711,5996.0,-5508.0,15892.0,3234.0,1766.0,2976.0,-0.35253431129285495,-0.8386220273260176,0.19091914102715749,0.3687580998897851
-7518.912609100342,5716.0,-4480.0,15680.0,2983.0,2233.0,2666.0,-0.23884643218624166,-0.889356919147771,0.38383862215226366,0.06829761591841658
-7518.928259849548,4876.0,-4312.0,15584.0,2849.0,2408.0,2150.0,-0.10408307103212706,-0.8340952341866524,0.48445031348879813,-0.24240410143444327
-7518.943941116333,3692.0,-4112.0,16036.0,2561.0,2041.0,1598.0,0.028476282651010366,-0.7114409979167646,0.5032100250836629,-0.4897146908812083
-7518.959540843964,2836.0,-4576.0,17792.0,1686.0,557.0,1033.0,0.150488787518319,-0.6279886179466715,0.4888420413726702,-0.5865295211217386
-7518.975163936615,3304.0,-4432.0,19464.0,956.0,12.0,421.0,0.2230384522896181,-0.5943142370338922,0.4611636704448331,-0.6199778266365047
-7518.990795612335,3172.0,-3948.0,21276.0,584.0,729.0,171.0,0.23247829050468366,-0.5346926109532185,0.4510094818745975,-0.6757574294784016
-7519.006431102753,3832.0,-3344.0,21016.0,819.0,2206.0,457.0,0.20636756969339995,-0.36202062478010755,0.45876690031470707,-0.7847843172415566
-7519.022022008896,4632.0,-4328.0,18664.0,1206.0,3993.0,905.0,0.13735501270910533,-0.02852494376568891,0.4465339913168884,-0.8837009237663241
-7519.037603855133,4336.0,-5596.0,16408.0,1275.0,4375.0,1417.0,0.07318287507976737,0.3502061047168522,0.37290913383557406,-0.8561184082334115
-7519.0531804561615,3584.0,-6528.0,15372.0,570.0,3984.0,1736.0,0.05208046299183078,0.6611943046272608,0.2826773234190522,-0.6929669889162616
-7519.068793058395,2092.0,-6364.0,15068.0,936.0,3959.0,1391.0,-0.014537348941593657,0.8793048425192894,0.15333724664799372,-0.45066545041559425
-7519.084392786026,1412.0,-4496.0,15160.0,1749.0,3992.0,936.0,-0.15417064493294233,0.9753977192599568,0.0071072722259233325,-0.15741724233686022
-7519.100049257278,1424.0,-2156.0,15720.0,2320.0,3880.0,403.0,-0.3241067937227652,0.9275822579420119,-0.10347749412275602,0.15439672672703506
-7519.115616559982,1316.0,-552.0,15992.0,2449.0,4094.0,243.0,-0.4511008687717336,0.7391902018202952,-0.19010288102315154,0.46256539683914516
-7519.13120341301,1208.0,-764.0,15488.0,2321.0,4390.0,51.0,-0.4863853928825253,0.43084220762703623,-0.2500252465801882,0.7178381557078792
-7519.146805524826,572.0,-1672.0,14980.0,1793.0,4026.0,267.0,-0.45042283790229243,0.0900032822262822,-0.29722424427619665,0.8370641701201799
-7519.162443399429,-168.0,-2024.0,14588.0,1799.0,3447.0,968.0,-0.4208865377574686,-0.24328767100431647,-0.2913418918480567,0.8238844175770178
-7519.178036689758,-808.0,-2036.0,14096.0,1594.0,2672.0,1486.0,-0.4079268898126009,-0.509071568103513,-0.23285949599195468,0.7212615657601765
-7519.1936292648315,-1352.0,-1716.0,13792.0,1307.0,1885.0,1998.0,-0.42273262188335603,-0.6908271662620303,-0.12455157799175799,0.5731857126357561
-7519.209211111069,-1140.0,-732.0,13324.0,711.0,1461.0,2248.0,-0.4631344769165356,-0.7916416249219818,-0.0071117060729193465,0.3984462543667135
-7519.2247948646545,-580.0,184.0,13760.0,19.0,1335.0,1984.0,-0.5188903753636374,-0.8222831171510692,0.07506289327281944,0.22128898674994643
-7519.240390062332,-124.0,852.0,14784.0,-537.0,1116.0,1281.0,-0.5825726822039191,-0.8014234847675942,0.10482410534458467,0.08568182392669338
-7519.2560114860535,416.0,688.0,15880.0,-1080.0,754.0,397.0,-0.6633171802570554,-0.7430921066426305,0.08555293539095019,0.0224752011612439
-7519.271603107452,1260.0,748.0,17872.0,-590.0,13.0,-329.0,-0.6999213624558908,-0.7100824477737452,0.06218876071017844,0.04500624159900464
-7519.287216901779,1796.0,-204.0,18956.0,233.0,358.0,-969.0,-0.6808191418702206,-0.7277829946990171,-0.018751446148086933,0.08040890471448058
-7519.302799701691,2096.0,-584.0,18864.0,831.0,925.0,-1198.0,-0.6113060737447078,-0.7728874478416629,-0.1423819867602695,0.09315174189369305
-7519.318405389786,1352.0,-944.0,17588.0,1216.0,1188.0,-1330.0,-0.49507164778898916,-0.816483143785224,-0.28067051760584916,0.09738275009957731
-7519.334009647369,660.0,-1228.0,16144.0,1524.0,974.0,-1401.0,-0.3439610852761336,-0.8396880783621116,-0.40172195834417773,0.1234267841934133
-7519.349586963654,-108.0,-1252.0,15040.0,1664.0,594.0,-1532.0,-0.1809711557929245,-0.8252913125806208,-0.5035359987563657,0.18054137505391477
-7519.3651740550995,-424.0,-1260.0,14892.0,1834.0,-64.0,-1546.0,-0.026734916061643094,-0.7686080536495136,-0.5725695825851602,0.2840615729494909
-7519.3808171749115,-484.0,-1228.0,15088.0,2041.0,-686.0,-1572.0,0.11190834655311432,-0.6601284111250622,-0.6095296850320185,0.4244768142808479
-7519.396414756775,40.0,-1552.0,15624.0,2085.0,-775.0,-1490.0,0.2395956188959537,-0.517772145289279,-0.6092527740865458,0.5507422284846614
-7519.412038087845,584.0,-2220.0,15820.0,1947.0,-855.0,-1156.0,0.33044385146034283,-0.3663173061696618,-0.573062520275659,0.6543835573178526
-7519.427632570267,996.0,-2408.0,15696.0,1589.0,-1069.0,-738.0,0.36418612240219017,-0.21893769906759344,-0.5282099055465209,0.7351387949626793
-7519.443256855011,1248.0,-2220.0,15648.0,1231.0,-1344.0,-564.0,0.3570689427183646,-0.06656371283484333,-0.49573771463470484,0.7888695459760059
-7519.458842515945,1204.0,-1740.0,16248.0,673.0,-1450.0,-575.0,0.33422260813013654,0.07831676396698782,-0.49235566743796627,0.7998422528462366
-7519.47447514534,1152.0,-1216.0,16488.0,301.0,-1348.0,-513.0,0.30756241803989415,0.20157405430731867,-0.5028334899186341,0.7822606605574707
-7519.49006819725,1420.0,-456.0,16612.0,75.0,-1111.0,-1369.0,0.34691610097632036,0.33552775607642005,-0.49742667789483364,0.7208585463904963
-7519.505668878555,1764.0,-180.0,16512.0,-107.0,-839.0,-1891.0,0.42576282907880364,0.4596614155867515,-0.4664938550517007,0.6243563722703566
-7519.521295070648,1572.0,-200.0,16592.0,-297.0,-810.0,-2512.0,0.5276751368285333,0.5796031606485774,-0.4012614443455378,0.4739286649073898
-7519.536882162094,1724.0,-380.0,15976.0,-617.0,-445.0,-2934.0,0.642652203927073,0.649909015585925,-0.2888441240144688,0.2849306727436057
-7519.552486181259,1704.0,-1148.0,15484.0,-848.0,-339.0,-3014.0,0.7301797517952996,0.6621003060396056,-0.15228353015498067,0.07259780474609846
-7519.568095445633,1440.0,-2252.0,15012.0,-1054.0,-492.0,-2962.0,0.7741116894793236,0.6140473503453606,-0.01842290276511147,-0.1528317388470622
-7519.583737611771,1216.0,-2596.0,14564.0,-1306.0,-887.0,-2724.0,0.7776036289718723,0.49967447609410404,0.08202597288316474,-0.3727328184134415
-7519.599325180054,1272.0,-2364.0,14836.0,-1663.0,-1320.0,-2749.0,0.73708014232404,0.3100409762092121,0.15924659136494887,-0.5789887563687717
-7519.614876270294,1340.0,-2320.0,15380.0,-1990.0,-1755.0,-2791.0,0.6391647168003987,0.05146399105135489,0.2107521593996633,-0.737837007563941
-7519.630448818207,1924.0,-2576.0,16220.0,-2078.0,-2184.0,-2664.0,0.4879086052430838,-0.2399135335607239,0.22121498936946976,-0.8095990475676347
-7519.646030187607,1552.0,-2648.0,17820.0,-2125.0,-2463.0,-3205.0,0.24574055571175862,-0.5259501729573212,0.18503476571343053,-0.7929376585343997
-7519.6616015434265,2116.0,-3672.0,18804.0,-1702.0,-1688.0,-3256.0,-0.028717010270524455,-0.6900332333848039,0.11043738108294146,-0.714725860036683
-7519.677246809006,2676.0,-3844.0,18764.0,-1074.0,-591.0,-3128.0,-0.27142280596925356,-0.7237824886973483,-0.009100866504598277,-0.6343388240394209
-7519.692901134491,2256.0,-3612.0,18104.0,-438.0,60.0,-2727.0,-0.43752821326623953,-0.6880964731613436,-0.15412136005830945,-0.5579775197915678
-7519.708532333374,1308.0,-3236.0,17356.0,124.0,642.0,-1978.0,-0.5094776798195493,-0.6246132637759334,-0.29855507398290343,-0.511033885647447
-7519.724127531052,588.0,-2900.0,16172.0,569.0,768.0,-1149.0,-0.5054763770681777,-0.5807064381656073,-0.4171550255954057,-0.4829651638778304
-7519.739766597748,160.0,-3072.0,15796.0,911.0,577.0,-214.0,-0.44533196855103707,-0.5860246545786638,-0.48956825650168423,-0.4675226884743854
-7519.755352497101,180.0,-2568.0,15760.0,850.0,484.0,284.0,-0.36818518983264353,-0.6089977254106007,-0.5264219747700885,-0.4652325664780738
-7519.770943403244,692.0,-2464.0,15876.0,560.0,-10.0,1120.0,-0.29169922263177545,-0.6748097287346416,-0.486362904685052,-0.4722229541936904
-7519.786638259888,976.0,-1840.0,16584.0,163.0,-18.0,1397.0,-0.22363026636217512,-0.7334648499559979,-0.4072358454498126,-0.4961630619328534
-7519.80223274231,1144.0,-1256.0,16608.0,-231.0,423.0,1376.0,-0.16250027081663146,-0.7534240393634541,-0.31481443040353024,-0.5539293757361842
-7519.817812204361,1068.0,-1156.0,16152.0,-626.0,804.0,1123.0,-0.12618901963010404,-0.7300959603354461,-0.22013757999909797,-0.6344885073023756
-7519.833393573761,952.0,-1280.0,16220.0,-966.0,1002.0,827.0,-0.12149544327285529,-0.6730731102216753,-0.12370198737853041,-0.7189640212688357
-7519.848963260651,980.0,-1612.0,15872.0,-1210.0,980.0,432.0,-0.1533773996330182,-0.597366688626107,-0.032419455312886446,-0.7864969113219127
-7519.864525079727,1172.0,-2240.0,16112.0,-1257.0,834.0,-60.0,-0.2187898618801111,-0.518472649549976,0.039274834209340526,-0.8256964305390562
-7519.880110025406,1660.0,-2880.0,16156.0,-1127.0,526.0,-439.0,-0.30124793488648693,-0.4573359285943962,0.09001977820725389,-0.8318593448864089
-7519.895725011826,1996.0,-3088.0,15940.0,-811.0,18.0,-713.0,-0.383841421669447,-0.43815703992354904,0.11945592822306891,-0.8039990376788867
-7519.9113228321075,2104.0,-2660.0,16192.0,-608.0,-433.0,-1037.0,-0.47245123756651736,-0.4559529044111137,0.13612332007956615,-0.7418673862702497
-7519.926984786987,1996.0,-2232.0,16144.0,-576.0,-588.0,-1312.0,-0.5682233066920511,-0.48129112737290025,0.14412870516039925,-0.6516962795603951
-7519.94263958931,1964.0,-2168.0,15964.0,-563.0,-605.0,-1480.0,-0.6613145962667255,-0.5007660566557155,0.14242079490457113,-0.5400117391731523
-7519.958234071732,2020.0,-1956.0,16152.0,-564.0,-516.0,-1573.0,-0.7451410004493455,-0.5060464200290878,0.12853099057521467,-0.4149237215282425
-7519.973883628845,1684.0,-2212.0,16224.0,-581.0,-422.0,-1500.0,-0.8119720209276737,-0.49500412667854055,0.10960339509366653,-0.28923942951434906
-7519.989531517029,1964.0,-2808.0,16476.0,-650.0,-277.0,-1401.0,-0.8647937295126612,-0.46480766531752454,0.08432249136758367,-0.17022149425738756
-7520.0051810741425,2084.0,-3308.0,16296.0,-739.0,-375.0,-1167.0,-0.9024296539830483,-0.41972285501143514,0.07567921749652277,-0.06104179414302649
-7520.020790815353,2272.0,-3576.0,16380.0,-858.0,-258.0,-939.0,-0.9312899007987988,-0.35721173386078997,0.06575711408346986,0.027837022285891497
-7520.036371231079,1852.0,-3548.0,16068.0,-892.0,-639.0,-793.0,-0.9469944890224917,-0.2854713883397238,0.09017707553227099,0.11651445939825505
-7520.0519762039185,1832.0,-3364.0,15388.0,-907.0,-625.0,-714.0,-0.9512548122349367,-0.20813632221471798,0.1140492322668556,0.19694244386151757
-7520.067565917969,1924.0,-2976.0,15508.0,-954.0,-617.0,-838.0,-0.9409736239169756,-0.12543323398213466,0.13258721598724602,0.2850539827157107
-7520.08314371109,1944.0,-2920.0,15812.0,-918.0,-697.0,-959.0,-0.9113690018599375,-0.04314892778741045,0.155047082205449,0.3788206894814412
-7520.098729848862,1824.0,-2948.0,15884.0,-880.0,-706.0,-1076.0,-0.8616574467376776,0.035532168080447714,0.1762203024324184,0.47458435975455027
-7520.114301919937,2324.0,-3208.0,16504.0,-786.0,-597.0,-1070.0,-0.7993498406173759,0.1022329674417061,0.19007285249032824,0.5607678337950821
-7520.129933357239,2436.0,-3420.0,16712.0,-703.0,-438.0,-1040.0,-0.7300831928289685,0.15446222671344478,0.19390194962701646,0.636806081941925
-7520.145532369614,2428.0,-3528.0,16832.0,-624.0,-307.0,-948.0,-0.6603955000449274,0.1941848786349814,0.19027444145423875,0.6999754662552148
-7520.161159515381,2496.0,-3544.0,16356.0,-444.0,-261.0,-873.0,-0.5929663548654753,0.22028352296999,0.19196705708385975,0.7503430685360153
-7520.176776170731,2420.0,-3496.0,16272.0,-318.0,-202.0,-761.0,-0.5322499442231876,0.23646703019127555,0.1954356116776487,0.7890489605817343
-7520.192364692688,2396.0,-3592.0,16036.0,-321.0,-237.0,-643.0,-0.47634042036922897,0.256065065145635,0.19693314059086098,0.8177700315317553
-7520.2079837322235,2292.0,-3332.0,16040.0,-343.0,-318.0,-581.0,-0.4209232545581739,0.2823119244193934,0.19800801135377907,0.8389972696871515
-7520.223577737808,2412.0,-3556.0,16376.0,-364.0,-317.0,-547.0,-0.36575195675507055,0.30868551437698555,0.19586414727871276,0.8559065341229938
-7520.239177942276,2444.0,-3548.0,16376.0,-406.0,-233.0,-465.0,-0.31563821439709644,0.33041159388717634,0.1849929620046665,0.8700449989775749
-7520.2548043727875,2468.0,-3604.0,16296.0,-419.0,-112.0,-459.0,-0.2665505735614623,0.34237519306636477,0.16905200271053664,0.8849584392989207
-7520.270414829254,2432.0,-3776.0,16100.0,-360.0,-56.0,-395.0,-0.22427174515515919,0.3487037925878429,0.15400064710774702,0.8968788379989291
-7520.286024808884,2468.0,-3544.0,15868.0,-350.0,-60.0,-422.0,-0.17962743105685772,0.35399951114833533,0.14028489587797405,0.9070493261709418
-7520.301601648331,2408.0,-3492.0,15852.0,-399.0,-113.0,-476.0,-0.1280894906218932,0.3626457084173822,0.12482068351628538,0.9146042693565377
-7520.317175626755,2444.0,-3536.0,15936.0,-364.0,-131.0,-461.0,-0.07828006163699623,0.37145493581849437,0.11150921334304635,0.9184003255366372
-7520.332745075226,2412.0,-3440.0,16056.0,-327.0,-120.0,-399.0,-0.03453182335580866,0.37883041571953624,0.09880241918098148,0.9195287658716677
-7520.348326921463,2328.0,-3496.0,16204.0,-292.0,-70.0,-435.0,0.010590663788325098,0.3809774052782829,0.08972982734620712,0.9201590148405707
-7520.363959312439,2412.0,-3420.0,16132.0,-249.0,244.0,-280.0,0.03938396283828196,0.358484065166551,0.079075852942149,0.9293465919528024
-7520.379579305649,2472.0,-3636.0,15980.0,-220.0,-70.0,-554.0,0.09152992328539594,0.35888825784747824,0.07807382908066264,0.925594926917415
-7520.3952095508575,2488.0,-3632.0,15972.0,-231.0,-128.0,-632.0,0.15039990654371554,0.3622286835131597,0.07790471811173123,0.9165702940025365
-7520.410812616348,2368.0,-3652.0,15884.0,-195.0,-207.0,-564.0,0.2027642043948581,0.3716288256773152,0.07716213881053056,0.9026764080643762
-7520.426432609558,2416.0,-3680.0,16124.0,-122.0,-204.0,-452.0,0.2434516615611987,0.3819192329614383,0.07838966605160026,0.8881013727236079
-7520.442028045654,2352.0,-3768.0,15980.0,-106.0,-206.0,-278.0,0.2698000302089433,0.3933395613696803,0.0748957381583523,0.8757183117683883
-7520.457615852356,2308.0,-3856.0,16080.0,-165.0,-221.0,-127.0,0.28651001485197986,0.4051768950007194,0.06129509350540126,0.8660176711010339
-7520.473197460175,2392.0,-3788.0,15980.0,-149.0,-139.0,-31.0,0.29481419245304114,0.4115258916911174,0.047531658327347175,0.8610875529542533
-7520.48885846138,2508.0,-3668.0,15992.0,-114.0,-96.0,3.0,0.29905329155391014,0.41558254835802716,0.03627769712360139,0.8582203697200552
-7520.504466295242,2544.0,-3476.0,16028.0,-97.0,-122.0,-251.0,0.3216529376257857,0.42105030489900835,0.03482441418874984,0.8473743497637659
-7520.520089387894,2644.0,-3416.0,15928.0,-141.0,-137.0,-76.0,0.33281798350764413,0.4267177736589903,0.023244541647780698,0.8405973011977881
-7520.5357167720795,2668.0,-3508.0,16072.0,-191.0,-135.0,-94.0,0.3470219402569827,0.43057485635724385,0.00872027751395579,0.8331296554638405
-7520.551311969757,2668.0,-3624.0,15948.0,-172.0,-120.0,-134.0,0.3632405978369564,0.4336813631845559,-0.002467302023322437,0.8246033323545093
-7520.56689453125,2548.0,-3680.0,15784.0,-199.0,-175.0,-222.0,0.3865455376105499,0.43960945264488094,-0.014004724082265475,0.8106355187148034
-7520.582515478134,2484.0,-3720.0,15736.0,-193.0,-272.0,-290.0,0.41384187244624615,0.4521571118578102,-0.02575992127913011,0.7896994854134588
-7520.598120689392,2508.0,-3636.0,15788.0,-233.0,-333.0,-359.0,0.4465522760690213,0.4667775739232563,-0.03969571019923133,0.76232146225308
-7520.613693714142,2664.0,-3668.0,15972.0,-2.0,-312.0,-393.0,0.47127563636835723,0.4881584288877484,-0.035994584579462606,0.7336927236605233
-7520.629333019257,2804.0,-3668.0,16008.0,-289.0,-228.0,-385.0,0.5070094364785985,0.49136137283203185,-0.04747573900027636,0.7065773042043262
-7520.644910335541,2700.0,-3708.0,16004.0,-286.0,-219.0,-416.0,0.5434320826624596,0.49317832693374275,-0.05694342914396964,0.6769151758184343
-7520.6605224609375,2740.0,-3756.0,15872.0,-293.0,-124.0,-480.0,0.5830920037769862,0.48818795680120475,-0.05944068378314481,0.6466398062886295
-7520.676178455353,2764.0,-3852.0,15936.0,-274.0,-134.0,-459.0,0.6193071993096092,0.4834385152836899,-0.062136557770148995,0.6155362239641681
-7520.691864490509,2720.0,-4068.0,15936.0,-240.0,-102.0,-358.0,0.6476797157260513,0.4773388571045599,-0.06543091431970104,0.5902350352075195
-7520.707469463348,2676.0,-4096.0,16100.0,-233.0,-106.0,-360.0,0.6748796959540563,0.4711399168798279,-0.0684164759625303,0.5638118130442975
-7520.723109960556,2688.0,-3964.0,16012.0,-183.0,-9.0,-318.0,0.6976988916373422,0.462268012651463,-0.06487908095368783,0.5434291544828046
-7520.738721132278,2688.0,-3880.0,16032.0,-107.0,91.0,-301.0,0.7165663445008733,0.45274948652539476,-0.05228339003091693,0.5280312713339261
-7520.754326343536,2724.0,-3844.0,15668.0,-89.0,115.0,-291.0,0.7337841236213887,0.4428289526502534,-0.037722438123949056,0.5138486122175043
-7520.769994020462,2676.0,-3980.0,15656.0,-90.0,48.0,-217.0,0.7470510828595215,0.4353253308098312,-0.030342491460632604,0.5014836678952651
-7520.785614490509,2708.0,-4024.0,15396.0,-94.0,-65.0,-189.0,0.7586448736546474,0.43225429806735516,-0.031565470885674914,0.4864337555388069
-7520.801214456558,2780.0,-4036.0,15368.0,-20.0,-161.0,-145.0,0.7650392316588398,0.4378789783262856,-0.03765616543156711,0.4707005285399315
-7520.816806316376,2856.0,-4032.0,15864.0,-38.0,-214.0,-94.0,0.7695530839155332,0.44414182113403516,-0.049957161683914245,0.45610347044538296
-7520.832394123077,2848.0,-3952.0,16112.0,-40.0,-228.0,0.0,0.7700217544936547,0.45023524617490246,-0.0668959673342249,0.4470790201550023
-7520.847991943359,3064.0,-3992.0,16028.0,-4.0,-99.0,249.0,0.7597441176128125,0.4520482917979911,-0.08350905721991576,0.45985590677677296
-7520.863571166992,2748.0,-4024.0,16008.0,6.0,-237.0,22.0,0.7568031927859615,0.46149710202067484,-0.09986218816298342,0.451992141071938
