programtime,ax,ay,az,gx,gy,gz,q0,q1,q2,q3
-109.52492928504944,2412.0,9972.0,13236.0,72.0,-897.0,-1240.0,0.9911719405606289,0.006545636031503074,-0.07766387135490146,-0.10725512566021993
-109.5327160358429,2300.0,9952.0,13220.0,39.0,-669.0,-1378.0,0.9651123099830244,0.013204903277339109,-0.13395712301241544,-0.22458706294642916
-109.54053664207458,2152.0,10028.0,12864.0,-28.0,-563.0,-1494.0,0.9203647911324625,0.017434224649404133,-0.17741535076844656,-0.34806391994327934
-109.54833030700684,2144.0,10056.0,13060.0,-121.0,-393.0,-1505.0,0.8607730331783576,0.0192257691569614,-0.2011804755355309,-0.46714726951631724
-109.5561113357544,2076.0,10192.0,13072.0,-129.0,-287.0,-1579.0,0.7838308015210005,0.02562502741663045,-0.2127784443314535,-0.5828189823476323
-109.56390762329102,2100.0,10168.0,12880.0,-150.0,-210.0,-1610.0,0.6913538513571217,0.034539353009789164,-0.21383818643829508,-0.6892823190305413
-109.5716814994812,2176.0,10136.0,12868.0,-109.0,-259.0,-1792.0,0.5718717997822,0.04553310438146993,-0.21497356075217305,-0.7903643142227421
-109.57946467399597,2100.0,10092.0,12816.0,-137.0,-223.0,-1469.0,0.46295146981121554,0.05065233440620879,-0.20927109078469552,-0.8598348028433256
-109.58727359771729,2196.0,10084.0,12916.0,-67.0,-333.0,-1378.0,0.3510624708598079,0.04786077266730654,-0.2102797073729037,-0.9111788697399984
-109.59504890441895,2304.0,10004.0,12680.0,-255.0,-385.0,-1283.0,0.24134653529728373,0.032753444377919064,-0.19536354672529396,-0.9500063928165398
-109.60282397270203,2328.0,10224.0,12824.0,36.0,-265.0,-1096.0,0.14517604255491928,0.03003857595446865,-0.20013006463744681,-0.9684882848289551
-109.61063051223755,2428.0,9928.0,12612.0,67.0,-640.0,-1025.0,0.04696612653649731,-0.005383433688218332,-0.21032693951086184,-0.9764874705370655
-109.6183934211731,2460.0,9924.0,12856.0,135.0,-513.0,-890.0,-0.03803886210899114,-0.03220478542748992,-0.22371041808410128,-0.9733804731992824
-109.62616753578186,2460.0,9896.0,12748.0,182.0,-907.0,-783.0,-0.12102966757906965,-0.09418472773448124,-0.23728965383640485,-0.9592573569222603
-109.63398385047913,2436.0,9864.0,12904.0,226.0,-998.0,-697.0,-0.19701873519691138,-0.16480576952904893,-0.25020689290105474,-0.9334983594287392
-109.64176034927368,2380.0,9908.0,12900.0,221.0,-1051.0,-652.0,-0.26835497624688515,-0.2384290009168827,-0.2582447380012213,-0.8969096239532675
-109.64952611923218,2348.0,9812.0,12884.0,222.0,-1092.0,-591.0,-0.3327138185429932,-0.3136147894226796,-0.2608588624554783,-0.8502352219735093
-109.65733218193054,2272.0,9864.0,12884.0,262.0,-1107.0,-263.0,-0.3684656558026861,-0.39508838269824076,-0.2540523934724873,-0.8022441098080343
-109.66511178016663,2048.0,9888.0,12900.0,246.0,-1277.0,-495.0,-0.4199860985825455,-0.47771188854860097,-0.24548202596886265,-0.7315337336466201
-109.6728880405426,2180.0,9824.0,12964.0,254.0,-949.0,-469.0,-0.457722732014471,-0.5349694969584496,-0.24535549951786115,-0.6664069453251318
-109.68068432807922,2168.0,9856.0,12968.0,264.0,-853.0,-429.0,-0.486909074270487,-0.5836008476888246,-0.24573208696533372,-0.6016189370403864
-109.68847918510437,2172.0,9944.0,13044.0,261.0,-755.0,-439.0,-0.5113542815082824,-0.6228062129076056,-0.248905294360837,-0.5372851890625492
-109.69627451896667,2120.0,9916.0,13036.0,258.0,-655.0,-369.0,-0.5277059990818181,-0.6553125835051499,-0.2511989912363578,-0.4785298979527847
-109.7040524482727,2072.0,9968.0,13304.0,266.0,-598.0,-302.0,-0.5372652571632441,-0.6844455850354236,-0.2515122810391929,-0.4238181886815284
-109.7118730545044,2192.0,10000.0,13048.0,231.0,-490.0,-251.0,-0.5428816320956894,-0.7068234052024626,-0.25170058191413086,-0.37726254048766056
-109.71965336799622,2116.0,9964.0,13076.0,179.0,-438.0,-354.0,-0.5524953923818076,-0.7208879319201995,-0.25830438094293834,-0.32916299578533403
-109.72743654251099,2192.0,10032.0,13108.0,163.0,-390.0,-312.0,-0.559520137368529,-0.732051975481289,-0.263498161947688,-0.2856673585190206
-109.73526644706726,2132.0,10036.0,12968.0,158.0,-392.0,-25.0,-0.5587945667164457,-0.7483648537350062,-0.24967951888421305,-0.2556537027936633
-109.7430591583252,2188.0,10172.0,12996.0,114.0,-388.0,-223.0,-0.5644356854043017,-0.7570189691842831,-0.2476266079729442,-0.2168310410461462
-109.7508327960968,2160.0,10104.0,12956.0,121.0,-416.0,-197.0,-0.5687847607350959,-0.7658493289457635,-0.24219024037753933,-0.17692537628817678
-109.75862407684326,2172.0,10088.0,12744.0,106.0,-473.0,-172.0,-0.5738922656919747,-0.7739181063236061,-0.23156735752270738,-0.13444326317583066
-109.76638436317444,2300.0,10088.0,12776.0,118.0,-558.0,-136.0,-0.5781560053317322,-0.7825241661283976,-0.2138640987181144,-0.08748548567275914
-109.77417230606079,2292.0,10052.0,12704.0,138.0,-576.0,-28.0,-0.5790396372332347,-0.7922253225634655,-0.18746730691585378,-0.04413780284216804
-109.78197503089905,2340.0,10200.0,12768.0,209.0,-610.0,131.0,-0.5732393671804001,-0.8058769180590984,-0.14809497210834152,-0.005186529708084222
-109.78976249694824,2428.0,10020.0,12604.0,508.0,-678.0,231.0,-0.5446889951350347,-0.8320743013986475,-0.09782386750468812,0.03737307155111159
-109.79754304885864,2440.0,10028.0,12620.0,337.0,-713.0,405.0,-0.5261698369067395,-0.8466261314383565,-0.033276984544657225,0.07254059963132709
-109.8053388595581,2452.0,10052.0,12792.0,407.0,-740.0,486.0,-0.499636156993649,-0.8588741511298796,0.03908781221103701,0.10569316951488011
-109.81310939788818,2468.0,10012.0,12700.0,437.0,-729.0,586.0,-0.4680170080900788,-0.8656332393317298,0.1183843889782546,0.13275658759064593
-109.82088565826416,2484.0,10124.0,12948.0,477.0,-711.0,673.0,-0.43060310445032096,-0.8659601840442166,0.20290653576933346,0.15337165262831404
-109.8286874294281,2472.0,10200.0,12904.0,491.0,-646.0,672.0,-0.3895148942382517,-0.8601787304585412,0.28336501026835087,0.16755587064890695
-109.83649182319641,2564.0,10252.0,12972.0,484.0,-558.0,612.0,-0.34721816109974596,-0.8503111772419779,0.3541274040363544,0.17608018676257967
-109.8442702293396,2452.0,10360.0,12928.0,414.0,-430.0,754.0,-0.3137881710041981,-0.8299797443139891,0.42797772248733434,0.1717721654427149
-109.85206818580627,2492.0,10420.0,13116.0,331.0,-301.0,323.0,-0.2831774529066759,-0.8214772433780386,0.4640387744393266,0.1722024523465151
-109.85986518859863,2484.0,10456.0,13152.0,191.0,-107.0,164.0,-0.26763201546569526,-0.8176811964492938,0.48116679772936927,0.1680746204335607
-109.8676438331604,2416.0,10452.0,12856.0,92.0,-6.0,43.0,-0.26152837212811325,-0.8178730131688633,0.48569518878457696,0.16366682160296794
-109.87543368339539,2468.0,10460.0,13260.0,-49.0,98.0,-199.0,-0.2663787178513874,-0.8263986355848616,0.46844612264091073,0.16329698087235667
-109.88323712348938,2424.0,10444.0,12832.0,-62.0,146.0,-255.0,-0.2731872954811922,-0.8371461741729902,0.4456072477197338,0.16121155490485461
-109.89101219177246,2532.0,10412.0,12728.0,-96.0,220.0,-223.0,-0.28560156754174143,-0.8462477227922289,0.4225301249398974,0.1541584568064354
-109.8987934589386,2540.0,10248.0,12592.0,-49.0,178.0,-185.0,-0.29331882776388746,-0.8539883818832583,0.40365151879278205,0.14742238725483106
-109.90661549568176,2376.0,10168.0,12544.0,21.0,194.0,-92.0,-0.2974513827822253,-0.8600773639557066,0.39201674451909735,0.1345825951176217
-109.91438508033752,2364.0,10080.0,12488.0,132.0,92.0,112.0,-0.29206193322762997,-0.8605935405495386,0.39951962636049976,0.12026077197704803
-109.92216944694519,2348.0,9972.0,12480.0,304.0,13.0,346.0,-0.27318784595325785,-0.85569163928011,0.42801721225919664,0.09980724071630825
-109.92997312545776,2396.0,9892.0,12452.0,426.0,-75.0,564.0,-0.24310749593617234,-0.8424794870423901,0.4747238470592546,0.07592317410182878
-109.93777799606323,2444.0,9932.0,12716.0,563.0,-186.0,814.0,-0.19871432192875516,-0.8162960881748922,0.5401744982926188,0.048834681171082174
-109.94556021690369,2468.0,9880.0,12684.0,687.0,-313.0,985.0,-0.1384735173528284,-0.7758825059933098,0.6151151796200419,0.021557775545761076
-109.9533462524414,2488.0,9908.0,12840.0,742.0,-376.0,1081.0,-0.06964308725107181,-0.7210029034278332,0.6893988808299275,-0.0058169370993287565
-109.96112394332886,2512.0,10032.0,12924.0,743.0,-366.0,1146.0,-0.00032831805508628967,-0.6517941338943211,0.7576254645316698,-0.034175352542115185
-109.9689073562622,2612.0,10128.0,12872.0,667.0,-346.0,1104.0,0.06332398415772808,-0.5759341174806861,0.8129584131638433,-0.058211543685603544
-109.97670984268188,2620.0,10292.0,12984.0,606.0,-237.0,768.0,0.11404019697274867,-0.5172961542181134,0.843934249889978,-0.0847024448773868
-109.98452496528625,2576.0,10356.0,12960.0,508.0,-128.0,862.0,0.15217221639491765,-0.44794969328813916,0.874451962348096,-0.10732406247475224
-109.99230098724365,2556.0,10264.0,12844.0,363.0,-19.0,734.0,0.17423584519482851,-0.3862894892012014,0.8972163867598537,-0.12419764937997425
-110.00007820129395,2568.0,10408.0,12784.0,508.0,90.0,552.0,0.18988225056274022,-0.33362674790898916,0.9097215658043166,-0.1582548473552795
-110.00787234306335,2612.0,10748.0,13040.0,172.0,183.0,396.0,0.18567212716179385,-0.2965487212119151,0.9211457774948039,-0.1705144385273161
-110.01564407348633,2504.0,10496.0,12696.0,201.0,286.0,360.0,0.17307010124758831,-0.2598336872701485,0.9312211171812059,-0.18804368090828075
-110.02341365814209,2500.0,10488.0,12564.0,208.0,308.0,291.0,0.15739316226950018,-0.22778395806341836,0.9382695495871657,-0.2073453959876292
-110.03118133544922,2636.0,10388.0,12552.0,274.0,328.0,326.0,0.14171921402839077,-0.19116914781630726,0.9432660053210634,-0.23155833931000158
-110.03895688056946,2680.0,10480.0,12472.0,375.0,325.0,441.0,0.12990978711633053,-0.14340589326464911,0.9454841724314703,-0.26195014157265795
-110.04675579071045,2624.0,10180.0,12092.0,493.0,302.0,555.0,0.12354303507332211,-0.08489356742150872,0.9422839977811287,-0.29938448226475506
-110.05452132225037,2672.0,10132.0,12248.0,580.0,203.0,676.0,0.12840336571887742,-0.017670545090839734,0.9313694174637881,-0.3402224797414496
-110.06229567527771,2716.0,10076.0,12160.0,676.0,108.0,814.0,0.14422591919256633,0.05904370756424384,0.9098437920507659,-0.38457378862425096
-110.0700569152832,2632.0,10052.0,12284.0,817.0,252.0,980.0,0.15193715109285344,0.15463678350390686,0.8749099088293073,-0.43305336707806197
-110.07785654067993,2732.0,9960.0,12136.0,917.0,-150.0,1120.0,0.19183308175999944,0.24470683756857212,0.8165578301679991,-0.48636605800670224
-110.08563327789307,2756.0,10188.0,12192.0,1013.0,-274.0,1284.0,0.24175342026531077,0.33804426495993367,0.7338530637012877,-0.5373462939427012
-110.09340333938599,2844.0,9960.0,12168.0,1086.0,-350.0,1388.0,0.2936924690017625,0.42822874864749483,0.6268523778972571,-0.5808794787285948
-110.10117173194885,2872.0,9916.0,12100.0,1198.0,-464.0,1459.0,0.34343509869210187,0.5079813066701563,0.4925531164441096,-0.6175748963010255
-110.10895490646362,2916.0,9844.0,12184.0,1229.0,-561.0,1555.0,0.39070109094532973,0.5722368473326932,0.3350524639260333,-0.6384649516660748
-110.11673188209534,2916.0,9812.0,12188.0,1262.0,-630.0,1619.0,0.42894265264783404,0.6167184623563985,0.15946480558387766,-0.6404978647179826
-110.12454128265381,2956.0,9788.0,12192.0,1310.0,-690.0,1589.0,0.44897401005568194,0.6378498966076668,-0.02482966213604042,-0.6252626132836661
-110.13232803344727,3024.0,9748.0,12204.0,1334.0,-707.0,1588.0,0.4517663919496016,0.6364322618814438,-0.21004523257446833,-0.5888481157429697
-110.14012432098389,3024.0,9780.0,12184.0,1397.0,-696.0,1773.0,0.4433258287410496,0.6102586444076707,-0.3994314430012701,-0.5210576924282925
-110.14791178703308,3072.0,10012.0,12136.0,1407.0,-665.0,1596.0,0.4102089689600254,0.5680409080875025,-0.5635940121288682,-0.4375156203112796
-110.15568590164185,3088.0,10104.0,12132.0,1411.0,-690.0,1499.0,0.35729965396616814,0.5093254100027618,-0.7039464352067751,-0.3426134853750634
-110.16347217559814,3124.0,10288.0,12204.0,1369.0,-730.0,1463.0,0.29044086864796836,0.43281825998854123,-0.8186021979175043,-0.24125276621033012
-110.17129111289978,3128.0,10404.0,12348.0,1361.0,-777.0,1500.0,0.2114129520665225,0.33775757051081146,-0.9074828230818813,-0.13303876529978548
-110.17907762527466,3180.0,10512.0,12472.0,1331.0,-803.0,1288.0,0.12170780531528684,0.24715577148401882,-0.960918174464391,-0.027156891049934417
-110.18684911727905,3196.0,10508.0,12448.0,1343.0,-827.0,1549.0,0.026591730645565623,0.12718781651131505,-0.9880812065990195,0.08253283200147488
-110.19464945793152,3184.0,10576.0,12468.0,1360.0,-775.0,1584.0,-0.06551311030812663,-0.000681989279356935,-0.9793448717692035,0.19128823645938245
-110.2024290561676,3140.0,10584.0,12564.0,1417.0,-719.0,1559.0,-0.15011650437945961,-0.1276743765484442,-0.9340156422707588,0.2979581659887834
-110.21021437644958,3240.0,10684.0,12624.0,1388.0,-676.0,1539.0,-0.2257579418007397,-0.24929528063867532,-0.8565301260974649,0.3914605444392052
-110.21799159049988,3168.0,10724.0,12560.0,1387.0,-634.0,1557.0,-0.29100098723249035,-0.364846955726387,-0.7492939385453976,0.4698549967660551
-110.22580862045288,3280.0,10772.0,12572.0,1382.0,-556.0,1586.0,-0.3423381255886749,-0.47244703149985795,-0.6168984957132152,0.5282373104790848
-110.23361253738403,3260.0,10960.0,13000.0,1382.0,-485.0,1608.0,-0.3789113193522487,-0.567825145531739,-0.46399908681673985,0.5645402231921384
-110.24148058891296,3300.0,11028.0,12884.0,1353.0,-460.0,1663.0,-0.40516541212203827,-0.6455206974312078,-0.2942413347875772,0.5766854037604308
-110.24930834770203,3216.0,11208.0,12856.0,1290.0,-428.0,1730.0,-0.4229307583654292,-0.7011644368843751,-0.11448559317732361,0.5624864931995224
-110.25708675384521,3084.0,11296.0,12580.0,1215.0,-346.0,1759.0,-0.4308743161437887,-0.7335312240097216,0.064555943777455,0.5216433620908295
-110.26486229896545,3092.0,11376.0,12724.0,1057.0,-269.0,1742.0,-0.43418887276183,-0.7393118514509647,0.23072332959165173,0.4600703796769578
-110.27267479896545,2920.0,11528.0,12612.0,903.0,-185.0,1692.0,-0.4341642214223818,-0.7217861527803878,0.37790839250914343,0.38433244120466703
-110.2804434299469,2752.0,11516.0,12568.0,705.0,-84.0,1599.0,-0.43568804391852817,-0.6849077010558668,0.49968494743414416,0.30231163181153103
-110.28821659088135,2744.0,11508.0,12524.0,567.0,-25.0,1537.0,-0.4369288378285373,-0.6322688514213278,0.6013380607976432,0.2184532600633107
-110.2960352897644,2676.0,11432.0,12528.0,408.0,101.0,1374.0,-0.4425564152605703,-0.5730964147208544,0.6757589946717407,0.1380365888670627
-110.30381870269775,2584.0,11284.0,12364.0,344.0,154.0,1258.0,-0.4467703710753799,-0.5106631162743281,0.7320422403419433,0.06110299142683388
-110.31158518791199,2620.0,11096.0,12356.0,504.0,206.0,1151.0,-0.4409952667738751,-0.4550547087165294,0.7731915819518275,-0.02496326013932698
-110.31939649581909,2636.0,10848.0,12128.0,7.0,158.0,1079.0,-0.44710929877875766,-0.380435480491228,0.8062582655775511,-0.0728678894771578
-110.32717776298523,2672.0,10604.0,12032.0,259.0,83.0,1138.0,-0.43494766312623745,-0.3083310604235892,0.8347723015155724,-0.13750524405085185
-110.3349609375,2564.0,10256.0,12000.0,382.0,-125.0,1171.0,-0.399272318895676,-0.2376411211578368,0.8613939926134082,-0.20520405061315838
-110.34278964996338,2944.0,10128.0,12012.0,558.0,-366.0,1315.0,-0.3339558720073336,-0.1634421750562004,0.8841086821054522,-0.28304057869938043
-110.35060739517212,3092.0,10156.0,11952.0,758.0,-639.0,1490.0,-0.23424873078805258,-0.08532522465677493,0.8943995286227208,-0.37134434338079286
-110.35839200019836,3376.0,9976.0,11884.0,775.0,-887.0,1708.0,-0.10225448100411103,0.003350100639987374,0.8857167402324312,-0.45281194111056505
-110.36616635322571,3520.0,9668.0,11832.0,1219.0,-1121.0,1907.0,0.0580132946176242,0.093346157040437,0.8271047465497464,-0.5511975062065053
-110.37398433685303,3676.0,9688.0,11876.0,1486.0,-1332.0,2118.0,0.2364725689369767,0.1838550143505052,0.7090489018483145,-0.638378972575242
-110.38175892829895,3780.0,9736.0,11972.0,1668.0,-1389.0,2279.0,0.40760112540993293,0.27186174271038144,0.5310954358808264,-0.6912959955052436
-110.38954591751099,3972.0,9908.0,12028.0,1839.0,-1432.0,2400.0,0.5521641325185856,0.34760485857405043,0.2995649971223423,-0.6960937045792064
-110.3973503112793,3952.0,10048.0,12068.0,1952.0,-1390.0,2455.0,0.6499974423445699,0.40364941542975247,0.037622149886647416,-0.6427713809797722
-110.40516710281372,4092.0,9996.0,12076.0,2004.0,-1261.0,2443.0,0.6908480003546447,0.4356662358179915,-0.2230075620372331,-0.5321574942142419
-110.4129421710968,4344.0,10448.0,12204.0,1983.0,-1028.0,2475.0,0.6822110435953501,0.4408023946152925,-0.452523593692832,-0.36810832379788955
-110.42072343826294,4148.0,10684.0,12148.0,1946.0,-728.0,2417.0,0.6323645646979007,0.4216976605538743,-0.6274852530443559,-0.16896271070767213
-110.4285249710083,4204.0,10864.0,12128.0,1836.0,-420.0,2330.0,0.557523330950061,0.37654084860525344,-0.7385902238663952,0.043234314924289106
-110.43631029129028,4248.0,11044.0,12208.0,1686.0,-119.0,2266.0,0.4718517968837035,0.3038459442881451,-0.7887748738313514,0.25073436607214744
-110.44409584999084,4260.0,11308.0,12168.0,1501.0,194.0,2117.0,0.3892573119022318,0.2103317387232077,-0.7840540642001264,0.4353142878743874
-110.45190334320068,4240.0,11340.0,12272.0,1297.0,473.0,1995.0,0.31511698077343386,0.09775606124965654,-0.738884399278018,0.5875328802890535
-110.45967388153076,4244.0,11440.0,11848.0,1077.0,673.0,1936.0,0.24516865378720928,-0.031327445081180814,-0.6680839998999477,0.7018366558270803
-110.46744322776794,4184.0,11424.0,11876.0,877.0,870.0,1808.0,0.18426412586794422,-0.1682046891030003,-0.5802062113161315,0.7753158497232377
-110.47524309158325,4104.0,11400.0,11840.0,631.0,953.0,1766.0,0.12030137126986275,-0.3068118628842792,-0.487985569767097,0.8082475762804059
-110.48302173614502,4124.0,11372.0,11992.0,751.0,1014.0,1706.0,0.0621938718387659,-0.4356660081820249,-0.37222185566861604,0.8171768118241334
-110.49078583717346,4088.0,11304.0,11532.0,356.0,768.0,1613.0,-0.014218085249336824,-0.5341490121077488,-0.27771421260628343,0.7983467260737221
-110.49855828285217,4116.0,11240.0,11684.0,219.0,1257.0,1770.0,-0.09522303594017911,-0.6531202248761477,-0.17817134051159916,0.7298092344608728
-110.50630259513855,4108.0,11116.0,11668.0,187.0,934.0,1528.0,-0.16542286090448688,-0.7289280659795049,-0.08576255894065857,0.658744210753691
-110.51408171653748,4120.0,11024.0,11712.0,154.0,825.0,1429.0,-0.2293227980017527,-0.7810943152741043,0.002161625955316568,0.5807736670479773
-110.52187752723694,4088.0,11064.0,11864.0,138.0,654.0,1385.0,-0.28777160942705327,-0.8094227696343871,0.08975774198034898,0.5039502242878264
-110.52963829040527,4056.0,11024.0,11860.0,207.0,471.0,1362.0,-0.3341722997808712,-0.8180190276352306,0.18185141826807663,0.4313975036549983
-110.53740453720093,4244.0,11036.0,12064.0,323.0,505.0,1298.0,-0.36528408900777887,-0.8194228958503235,0.26990770054510543,0.3496619585549461
-110.54520511627197,4020.0,11180.0,12064.0,398.0,159.0,1222.0,-0.3755854473837447,-0.8029901375156226,0.3621025008043214,0.28813918455748116
-110.55298376083374,3956.0,11072.0,11904.0,436.0,283.0,1138.0,-0.3804482632156195,-0.7837074004528776,0.44093537917464315,0.21595791461237376
-110.56075882911682,3872.0,11064.0,12004.0,358.0,438.0,965.0,-0.38927181694831037,-0.7630263058128043,0.49677775669495877,0.13953554966584722
-110.56854391098022,3892.0,11076.0,12176.0,363.0,520.0,835.0,-0.39627245402666933,-0.7423365049201873,0.5368768469069571,0.06056324708769732
-110.57631421089172,3936.0,11192.0,11976.0,337.0,699.0,695.0,-0.4092938842411504,-0.7221002219979241,0.5571827172679289,-0.02443778409078146
-110.58409237861633,3872.0,11048.0,12140.0,391.0,855.0,589.0,-0.4231114268185984,-0.7022807931228123,0.5602651409918505,-0.11781926793061172
-110.5918972492218,3820.0,11124.0,12304.0,415.0,1023.0,554.0,-0.43957165925612723,-0.6760465621911735,0.5489423701504506,-0.22000017359519602
-110.5996778011322,3792.0,11244.0,12052.0,438.0,1179.0,521.0,-0.45711511449565584,-0.6407119318267247,0.5222969107917097,-0.3282376113304612
-110.60744190216064,3724.0,10924.0,12228.0,362.0,1319.0,269.0,-0.48583132015099845,-0.6006411555517329,0.47078192469056523,-0.42610152546366686
-110.6152548789978,3812.0,10924.0,12296.0,342.0,1431.0,586.0,-0.5002749180575935,-0.532738860405444,0.4239585930949374,-0.5349517962558291
-110.62302374839783,3628.0,10896.0,12280.0,373.0,1464.0,634.0,-0.502513505323707,-0.45256788331625913,0.36820412618561194,-0.6380346459384566
-110.6308069229126,3440.0,10860.0,12240.0,329.0,1508.0,681.0,-0.49484331129431747,-0.35725461145302867,0.3071411290525128,-0.7301805028259576
-110.63858890533447,3376.0,10924.0,12264.0,295.0,1472.0,748.0,-0.47251452461686866,-0.2534316049617965,0.24523869460860223,-0.8076883237358649
-110.64639377593994,3288.0,10940.0,12232.0,310.0,1451.0,795.0,-0.43609070125308774,-0.1453996926518388,0.1789353238713465,-0.8698654950786341
-110.65416646003723,3152.0,10940.0,12244.0,240.0,1437.0,872.0,-0.3851521478160409,-0.03158047984991635,0.11553565643427985,-0.9150475443480737
-110.66198086738586,3064.0,10844.0,12176.0,227.0,1430.0,847.0,-0.32784746287964756,0.08249108672384606,0.05085205985986538,-0.9397474818814392
-110.66976308822632,2884.0,10804.0,12172.0,171.0,1377.0,823.0,-0.26507913902622454,0.1920913975300546,-0.008664477086196548,-0.9448591809814249
-110.67753672599792,2908.0,10776.0,12248.0,143.0,1363.0,827.0,-0.19631443560474907,0.29744334501739855,-0.06543201413765871,-0.9320443929362694
-110.68534231185913,2828.0,10808.0,12144.0,139.0,1348.0,841.0,-0.12257546949777064,0.395877255881969,-0.12067721537169987,-0.9020495896805761
-110.6931140422821,2712.0,10684.0,12268.0,140.0,1213.0,823.0,-0.049360991836658256,0.47708546691141673,-0.17182923820923607,-0.8604810646628145
-110.70086717605591,2676.0,10528.0,12004.0,184.0,1114.0,906.0,0.027596908424184163,0.5418837965250102,-0.22647074715232027,-0.8088951491963209
-110.7086660861969,2696.0,10428.0,11976.0,222.0,956.0,945.0,0.10209085120964628,0.5869411014633745,-0.28261495878696846,-0.7518020926960038
-110.71644687652588,2752.0,10436.0,12072.0,331.0,1020.0,1034.0,0.17676091799096566,0.6259078303670783,-0.3453575416494817,-0.6765523883499301
-110.72421312332153,2892.0,10372.0,12052.0,482.0,653.0,1209.0,0.23968481007467324,0.6302655066013713,-0.42639060123661787,-0.6029159462023378
-110.73198819160461,2840.0,10384.0,11832.0,555.0,526.0,1241.0,0.2917933928995986,0.6182748553302877,-0.508765242227523,-0.5232119526803859
-110.73980116844177,2980.0,10528.0,12016.0,655.0,368.0,1325.0,0.33049788782540673,0.5876574146079468,-0.5955539228899254,-0.4367441289012017
-110.74756717681885,2828.0,10640.0,11868.0,706.0,259.0,1404.0,0.35793281341133604,0.5396491728472537,-0.6804366617306707,-0.34302889193410696
-110.75531339645386,3248.0,10660.0,11868.0,515.0,200.0,1375.0,0.38362906888064363,0.47604392529303774,-0.7481011461854674,-0.25798370835647183
-110.76309061050415,3316.0,10856.0,11784.0,819.0,95.0,1337.0,0.3824299683898949,0.4143956892111125,-0.8112832213417415,-0.15441200345153905
-110.77086114883423,3324.0,11004.0,11976.0,852.0,24.0,1250.0,0.36706610726790606,0.3515788931041697,-0.8596760894577005,-0.05110553818862185
-110.77864980697632,3408.0,11140.0,11856.0,815.0,-250.0,1115.0,0.325920146099155,0.2907383430944624,-0.8987887572088057,0.037762999568925704
-110.78642082214355,3444.0,11320.0,12016.0,780.0,-92.0,901.0,0.29441974530252113,0.2412477624689811,-0.9167023194540561,0.12154582751893235
-110.79419946670532,3432.0,11388.0,11904.0,742.0,-63.0,699.0,0.2653591602448618,0.2042599130888994,-0.9214971272510145,0.1967370032484605
-110.8020007610321,3456.0,11436.0,11796.0,615.0,-60.0,486.0,0.24072494193724805,0.18004000091352562,-0.9188160013169453,0.2557621084607826
-110.80980849266052,3436.0,11296.0,11780.0,475.0,-97.0,248.0,0.21976088852100606,0.17212351372365853,-0.9131030593172587,0.2971892510932089
-110.81758332252502,3320.0,11324.0,11844.0,394.0,-80.0,239.0,0.20115913310536018,0.16259339889618202,-0.9072391600273897,0.33168583978892335
-110.82536196708679,3312.0,11272.0,11832.0,315.0,-96.0,-165.0,0.1938223720847459,0.18389845920074388,-0.8969851610718941,0.3521815804380784
-110.83317518234253,3252.0,11220.0,11980.0,279.0,-204.0,-298.0,0.1824466164432193,0.21807302279300678,-0.8863566510378049,0.3654165787692025
-110.84098935127258,3296.0,11120.0,11800.0,241.0,-306.0,-369.0,0.16583212858169244,0.25995968287350824,-0.8755409951306681,0.3719524623604062
-110.84877014160156,3420.0,10948.0,11656.0,197.0,-353.0,-491.0,0.15015486713087936,0.3113413533432651,-0.861766472276609,0.37132011100291995
-110.8565583229065,3448.0,11204.0,11624.0,231.0,-440.0,-460.0,0.12553079895993025,0.36262314684275293,-0.8460483955390325,0.3700656486249022
-110.86432814598083,3588.0,10828.0,11576.0,233.0,-503.0,-484.0,0.09650511609174055,0.41633193569923305,-0.8269884708697444,0.36530063089676046
-110.8721113204956,3628.0,10740.0,11732.0,288.0,-563.0,-369.0,0.057105633178267994,0.4624235540114703,-0.8074709411051527,0.36179287254652903
-110.87990999221802,3712.0,10756.0,11608.0,362.0,-626.0,-263.0,0.006716230107195656,0.5014232703665801,-0.786753094271935,0.3599293886883461
-110.88768577575684,3768.0,10616.0,11888.0,398.0,-671.0,-182.0,-0.05089504575048656,0.5339492750276298,-0.7647927505665859,0.35693124645556074
-110.89545249938965,3860.0,10684.0,11824.0,449.0,-742.0,-98.0,-0.1179221419424265,0.5600068298933156,-0.7407788569896981,0.35175759259692696
-110.90325546264648,3944.0,10668.0,11896.0,550.0,-745.0,86.0,-0.19495130147397946,0.5697971118771565,-0.7180518829729348,0.3488935865118129
-110.91102886199951,3988.0,10664.0,12032.0,556.0,-747.0,206.0,-0.2747335240192207,0.568215986443952,-0.6962319878530584,0.34192558052840316
-110.91878843307495,4004.0,10764.0,12252.0,584.0,-758.0,238.0,-0.35555344535298705,0.5603016513628253,-0.6699370464183619,0.3329086373375628
-110.92658710479736,4296.0,10792.0,12300.0,569.0,-717.0,337.0,-0.433547439319785,0.5418065806701314,-0.6452787595458269,0.3195271028892489
-110.93435907363892,4028.0,10928.0,12296.0,532.0,-632.0,260.0,-0.5001563757102785,0.5231507384302457,-0.6170364106707014,0.3089060902974639
-110.94213652610779,4024.0,10960.0,12540.0,444.0,-540.0,273.0,-0.5557247061542925,0.5025238659066351,-0.5926564334736476,0.2956318099025736
-110.94990491867065,4076.0,11060.0,12124.0,398.0,-403.0,193.0,-0.5982425269102646,0.48294392157445426,-0.570491372307615,0.2888090056298157
-110.95766162872314,4132.0,11040.0,12080.0,300.0,-245.0,86.0,-0.6249368034282088,0.46885271807302875,-0.55338863106641,0.28877697879663156
-110.96543502807617,4152.0,11048.0,12056.0,192.0,-131.0,19.0,-0.6395275042465454,0.46062477133534147,-0.542024149731534,0.29161483578901976
-110.97320771217346,4164.0,11124.0,12120.0,147.0,30.0,-49.0,-0.64277161070156,0.45388368655117517,-0.5378891260179738,0.30250544403441265
-110.98098635673523,4068.0,11112.0,12052.0,112.0,119.0,-79.0,-0.6395176198980004,0.4480624399902736,-0.5383625617724423,0.3168959068712823
-110.98876333236694,4036.0,10760.0,12256.0,82.0,172.0,-121.0,-0.631235164992739,0.44427917220375096,-0.5408070789278242,0.3341943850576989
-110.9965443611145,3984.0,10952.0,11808.0,78.0,214.0,-135.0,-0.6201145823688947,0.43994777194967105,-0.5448913086012732,0.35354960684572045
-111.00431251525879,3900.0,10924.0,12048.0,100.0,167.0,-171.0,-0.610637845995328,0.43735711246618597,-0.544085905179867,0.37391269702703434
-111.01209092140198,3764.0,10940.0,12040.0,104.0,175.0,-193.0,-0.5998760180300954,0.43509267045782773,-0.5424341642163204,0.3957376764943852
-111.01990795135498,3672.0,10944.0,11952.0,142.0,103.0,-154.0,-0.5950051591149217,0.43125681698315554,-0.536905282470595,0.41439007720667526
-111.02768111228943,3620.0,10956.0,12060.0,152.0,10.0,-211.0,-0.5925289183865179,0.43273251570419163,-0.523787897017834,0.43277972418501726
-111.03545904159546,3476.0,10928.0,12084.0,203.0,-63.0,-173.0,-0.5964263223393834,0.43235154276805016,-0.5061164717278742,0.4485464329726999
-111.0432801246643,3412.0,10936.0,11976.0,185.0,-128.0,-217.0,-0.6003984378558149,0.4371054951701035,-0.48377015392021705,0.4630625660625193
-111.05106735229492,3552.0,11060.0,11956.0,154.0,-254.0,-191.0,-0.6090446937096099,0.4471019594872526,-0.45665444036397873,0.46971387139692594
-111.05883979797363,3184.0,11076.0,11964.0,211.0,-296.0,-226.0,-0.6194349355607537,0.45665170804921684,-0.4230736884462015,0.4783076753378563
-111.06662678718567,3296.0,11000.0,11960.0,223.0,-371.0,-206.0,-0.6329245723291875,0.4672179163149267,-0.385070890305663,0.4825290808391313
-111.07439684867859,3244.0,11048.0,11872.0,256.0,-400.0,-257.0,-0.6453226633270963,0.47795824453580266,-0.3412404938336392,0.48853812752419934
-111.08217406272888,3232.0,11072.0,11892.0,250.0,-464.0,-9.0,-0.6685363459292983,0.48333914761587443,-0.30365264649748175,0.4766943389935911
-111.0899760723114,3268.0,11024.0,11912.0,511.0,-508.0,-232.0,-0.6924493974418432,0.4796688082652439,-0.24233101953001426,0.4813598896183322
-111.0977566242218,3268.0,11032.0,11804.0,296.0,-570.0,-28.0,-0.7146532216063197,0.48544986664549206,-0.19386015815603327,0.4647875201651825
-111.10553693771362,3372.0,11252.0,11540.0,298.0,-628.0,-197.0,-0.72852079521027,0.49457324616712955,-0.13387648538404837,0.45467773398652167
-111.11333799362183,3316.0,11020.0,11792.0,303.0,-698.0,-173.0,-0.7412267889653485,0.5037322300682999,-0.06973222035483752,0.43814849669366684
-111.12111115455627,3364.0,11080.0,11928.0,331.0,-705.0,-159.0,-0.7522329698700917,0.5088831539375731,-0.0043615978179417595,0.4185265477164434
-111.12889361381531,3452.0,11080.0,11808.0,359.0,-762.0,-72.0,-0.7638116293351261,0.5116356940191917,0.06190583738001897,0.38857223111822903
-111.13669443130493,3512.0,11208.0,11904.0,344.0,-754.0,-22.0,-0.7723843034618422,0.5126595518737755,0.12457795743709826,0.35367075672034964
-111.14449977874756,3432.0,11488.0,11964.0,330.0,-793.0,-18.0,-0.7758463108722367,0.5130976264065972,0.1885692859586045,0.31501579654823475
-111.1522741317749,3468.0,11368.0,11880.0,333.0,-788.0,0.0,-0.7756851484435404,0.5106355112553046,0.25044365649932704,0.2735724767742602
-111.16007423400879,3516.0,11460.0,11824.0,191.0,-770.0,-85.0,-0.7635440250796225,0.5128382838271858,0.3102147470922312,0.24034189624969446
-111.16787004470825,3476.0,11576.0,11956.0,125.0,-723.0,-187.0,-0.7440745805926203,0.5133487533147985,0.3686163961248022,0.21667493739244792
-111.17564654350281,3408.0,11564.0,11752.0,-22.0,-657.0,-306.0,-0.7147894204123938,0.516192895294419,0.4237530509423289,0.2074953761681142
-111.18343877792358,3440.0,11628.0,11740.0,-208.0,-648.0,-445.0,-0.6717536855061383,0.5230112264936948,0.4792733442731925,0.21331503566244744
-111.19128036499023,3436.0,11504.0,11656.0,-307.0,-543.0,-611.0,-0.6218893266074005,0.5239341747073037,0.531755211560687,0.23660735619084106
-111.1990966796875,3556.0,11436.0,11716.0,-447.0,-594.0,-721.0,-0.5567545282878384,0.5247627778347611,0.5853578617997606,0.2683367210415756
-111.20691657066345,3576.0,11356.0,11688.0,-282.0,-612.0,-844.0,-0.4906534571305692,0.5073394183589272,0.644296625449003,0.2945297234916588
-111.21469616889954,3808.0,11196.0,11576.0,-621.0,-618.0,-932.0,-0.4019602227047935,0.49425643982892625,0.6917643883726773,0.34000085592557466
-111.22248435020447,3612.0,11180.0,11512.0,-674.0,-648.0,-955.0,-0.3033644621490734,0.47616855836306615,0.7307257765849171,0.3837620963120411
-111.23027658462524,3716.0,11176.0,11568.0,-679.0,-720.0,-984.0,-0.19481699281601228,0.4520969719478446,0.7622831382510487,0.42021314163629914
-111.23807048797607,3828.0,11148.0,11552.0,-754.0,-757.0,-1053.0,-0.07541768832463994,0.418987410590659,0.7823365860933575,0.4546550209929418
-111.2460036277771,3852.0,11076.0,11520.0,-730.0,-798.0,-1004.0,0.04525950350221588,0.383684286931814,0.7887689668731312,0.4781019370408903
-111.25382566452026,3952.0,11256.0,11640.0,-726.0,-811.0,-965.0,0.16438237322655788,0.3454126041564556,0.7812469965125299,0.4932764931581593
-111.26162314414978,3832.0,11048.0,11748.0,-680.0,-832.0,-1017.0,0.28308271913103533,0.2996158951962049,0.7642660174048156,0.49597574952344026
-111.26940274238586,4092.0,10956.0,11876.0,-656.0,-814.0,-1013.0,0.39524237671030665,0.24906156062547047,0.736230770254086,0.4896080632529132
-111.27718353271484,3864.0,10860.0,11872.0,-607.0,-1021.0,-999.0,0.5120937193765565,0.20569176785301982,0.6903672582577339,0.46780761851244285
-111.2849657535553,3588.0,10844.0,11856.0,-541.0,-704.0,-771.0,0.5926279240201054,0.1629790799855488,0.6471253122442868,0.45106406796753235
-111.29273986816406,3952.0,10764.0,11936.0,-269.0,-673.0,-991.0,0.669683158245171,0.11896995234112114,0.612180850945019,0.4032433802791524
-111.3006317615509,3784.0,10716.0,11968.0,-471.0,-711.0,-942.0,0.7412123631176872,0.06581413933373506,0.5602488558672849,0.36385979624664727
-111.3085424900055,3804.0,10616.0,12000.0,-418.0,-613.0,-924.0,0.7987153900111751,0.013105083927279488,0.5097589759811868,0.31941785945868373
-111.31636166572571,3680.0,10664.0,11956.0,-383.0,-628.0,-881.0,0.8474619029124084,-0.03496113015432012,0.453892773135359,0.27307030777055613
-111.32414555549622,3632.0,10640.0,12204.0,-421.0,-586.0,-870.0,0.8858817199400648,-0.08600994302919007,0.39579514072448063,0.2261903502694942
-111.33193135261536,3660.0,10636.0,11976.0,-398.0,-583.0,-850.0,0.9156271907536011,-0.133818659909195,0.3347922892359568,0.17785819317906915
-111.33970904350281,3548.0,10636.0,12064.0,-431.0,-257.0,-822.0,0.9276640691149285,-0.1874166113565936,0.2967942908580793,0.1273873524915034
-111.34754037857056,3484.0,10668.0,11988.0,-448.0,-419.0,-1022.0,0.9375733794017647,-0.24397203281992683,0.23976654387030474,0.06281568179488566
-111.3553204536438,3464.0,10512.0,11924.0,-487.0,-359.0,-768.0,0.9356146637858683,-0.2966334333251796,0.19057250046610666,0.017774397561341956
-111.36310148239136,3444.0,10808.0,12000.0,-486.0,-361.0,-690.0,0.9272284251006939,-0.3459179749663832,0.14193227361241084,-0.021057824855744367
-111.37087035179138,3352.0,10824.0,12076.0,-493.0,-270.0,-1010.0,0.909311755876374,-0.3966093493493561,0.08995980235706051,-0.08809306779528255
-111.3786563873291,3392.0,10752.0,12208.0,-476.0,-186.0,-1019.0,0.8821966754093229,-0.44145096506838083,0.04329702935007774,-0.15803619391263402
-111.38642406463623,3340.0,10628.0,12268.0,-471.0,-217.0,-638.0,0.8539610020098566,-0.4817098200791547,0.008412132412914386,-0.1965591318506923
-111.39420247077942,3452.0,10500.0,12268.0,-425.0,-245.0,-591.0,0.8243646710795267,-0.5167051151175771,-0.02741000494382458,-0.22953737106679353
-111.40201377868652,3388.0,10696.0,12424.0,-375.0,-294.0,-473.0,0.7959834679039087,-0.547359352589181,-0.06233615315875475,-0.25084310228943524
-111.40983033180237,3368.0,10732.0,12332.0,-332.0,-290.0,-460.0,0.7673571947781275,-0.573249460921556,-0.09709730039269752,-0.27040729544862224
-111.41761803627014,3296.0,10852.0,12336.0,-321.0,-346.0,-343.0,0.739374458237498,-0.5991059950231713,-0.12974038984805258,-0.27850466508727906
-111.4253921508789,3264.0,10776.0,12356.0,-341.0,-341.0,-296.0,0.7096806040319737,-0.62517201838629,-0.15878876402733044,-0.28337169249291266
-111.43319702148438,3124.0,11172.0,12404.0,-408.0,-357.0,-294.0,0.6742749346567934,-0.6541497060826345,-0.18662634250233834,-0.28742317723137717
-111.44096946716309,3180.0,11508.0,12296.0,-495.0,-311.0,-287.0,0.6327697981438326,-0.6852126703184233,-0.20860177991493656,-0.29422997197503387
-111.4487407207489,3172.0,11476.0,12192.0,-608.0,-269.0,-352.0,0.5812531143440268,-0.7176682073053186,-0.22844295917017346,-0.30807624980532705
-111.45655179023743,3168.0,11432.0,12100.0,-734.0,-236.0,-433.0,0.5174109004814175,-0.7503200455125877,-0.2471037297069054,-0.3290068937422645
-111.4643280506134,3164.0,11408.0,12024.0,-804.0,-121.0,-519.0,0.4456755103943104,-0.7761051483379429,-0.2625748046294522,-0.3606779867581544
-111.47212147712708,3240.0,11320.0,11932.0,-928.0,-119.0,-623.0,0.3587425983196309,-0.7977861925640594,-0.2788860943375977,-0.39631235848777435
-111.47989988327026,3268.0,11140.0,11856.0,-950.0,-38.0,-719.0,0.2653390316611528,-0.8069331613222368,-0.29571443773042394,-0.4370435250102694
-111.48768043518066,3332.0,11244.0,11756.0,-1003.0,-58.0,-1019.0,0.15309558654073438,-0.7997960707108921,-0.32804610032440795,-0.47882537810679443
-111.49543642997742,3456.0,10836.0,11708.0,-995.0,-65.0,-722.0,0.05124978581072183,-0.7905153653574534,-0.33581723122730295,-0.5095936653834653
-111.50319194793701,3452.0,10640.0,11824.0,-889.0,-184.0,-654.0,-0.04442708177321872,-0.7797211011281006,-0.3406145093523192,-0.5234911602686114
-111.51096749305725,3584.0,10540.0,11644.0,-749.0,-224.0,-512.0,-0.12511435211027694,-0.769193451476567,-0.33924454808711696,-0.5268785151197184
-111.51877999305725,3564.0,10364.0,11752.0,-617.0,-365.0,-383.0,-0.1945507087615068,-0.7658910239464846,-0.33176064346121703,-0.5152628810702357
-111.52660274505615,3572.0,10288.0,11852.0,-477.0,-432.0,-160.0,-0.24581624237120153,-0.7712115489238263,-0.313134321234967,-0.4967434133008025
-111.53437662124634,3364.0,10112.0,11860.0,-306.0,-598.0,46.0,-0.2803691292048803,-0.790386414504301,-0.2834392521469457,-0.4651286461811532
-111.54215383529663,3632.0,10172.0,11868.0,-214.0,-714.0,224.0,-0.3030960378337507,-0.8177174078771484,-0.24125704107937124,-0.4257535353156628
-111.54997086524963,3632.0,10168.0,11844.0,-130.0,-774.0,347.0,-0.31499170750242833,-0.8479032139101319,-0.19063988707270227,-0.3814404245783097
-111.55775737762451,3536.0,10224.0,11784.0,-130.0,-876.0,425.0,-0.3239507293485226,-0.8772845592664628,-0.13029044403460158,-0.3293207057269174
-111.56552791595459,3484.0,10192.0,11720.0,-58.0,-952.0,503.0,-0.32343302537871155,-0.9046767730392619,-0.06290837158393908,-0.27017318742299073
-111.57333731651306,3472.0,10360.0,11588.0,-79.0,-970.0,599.0,-0.3193917709990316,-0.9239772234191822,0.013570638585402054,-0.2099305241956611
-111.58111548423767,3416.0,10440.0,11644.0,-47.0,-1002.0,572.0,-0.310049097618857,-0.935569094629899,0.08804883421582732,-0.14431711274951856
-111.58889555931091,3444.0,10520.0,11736.0,-123.0,-942.0,611.0,-0.30378992372055147,-0.9348421598799672,0.16418843516421244,-0.08260736114382752
-111.59669542312622,3504.0,10552.0,11556.0,-124.0,-843.0,601.0,-0.29637436113903354,-0.9251617888697548,0.2355009071622129,-0.027878758948703133
-111.60450530052185,3448.0,10612.0,11764.0,-110.0,-1024.0,575.0,-0.2814255306430931,-0.9081561403529014,0.3070669735526122,0.041975816785550575
-111.61227345466614,3564.0,10736.0,11724.0,-162.0,-712.0,567.0,-0.2764662031321935,-0.8834664935675057,0.3677120935923557,0.08855060414887977
-111.62005162239075,3712.0,10764.0,11480.0,-102.0,-648.0,521.0,-0.2669517021181927,-0.8569528064303995,0.42160965795065447,0.12889520010455874
-111.62782955169678,3736.0,10704.0,11608.0,-104.0,-584.0,550.0,-0.2588846628800556,-0.8256279134447603,0.47400425004816704,0.16320922401202184
-111.63561010360718,3848.0,10624.0,11648.0,-37.0,-574.0,539.0,-0.2450017557704015,-0.7924045606427481,0.5240481091194918,0.19350124358845588
-111.64340925216675,3892.0,10564.0,11616.0,-88.0,-548.0,518.0,-0.23435456849553066,-0.7558773116811489,0.568854866698154,0.2239007962129181
-111.65124082565308,3968.0,10496.0,11732.0,-90.0,-497.0,453.0,-0.2241708369786972,-0.7205294223250013,0.6060797031036466,0.25149986262037155
-111.65901041030884,3972.0,10484.0,11812.0,-76.0,-441.0,436.0,-0.21496575309134827,-0.6852378399057096,0.6394998691504249,0.2743697233949403
-111.6667869091034,4012.0,10404.0,11760.0,-78.0,-367.0,293.0,-0.2060757606097237,-0.658022039465407,0.6614577727865366,0.2949803235593596
-111.67458248138428,3996.0,10384.0,11712.0,-56.0,-329.0,168.0,-0.1946086295189644,-0.6384641054440165,0.6752075212254843,0.31398387005841427
-111.68235325813293,3936.0,10376.0,11784.0,-40.0,-295.0,252.0,-0.1863374755715322,-0.614449704616539,0.6927471966162682,0.32837665458217
-111.69013786315918,3924.0,10364.0,11664.0,-27.0,-206.0,-212.0,-0.16928154119643912,-0.6206770886601564,0.6837036423869868,0.34446050689342933
-111.69789814949036,3872.0,10420.0,11612.0,-19.0,-94.0,-421.0,-0.15201963923660744,-0.6421986410889121,0.6612241566681315,0.3567261545057286
-111.7056839466095,3900.0,10460.0,11456.0,62.0,-233.0,-670.0,-0.11409733599223335,-0.6730971892795953,0.6274632914261308,0.3744486475019913
-111.71345734596252,3984.0,10440.0,11408.0,45.0,155.0,-829.0,-0.0926778803981771,-0.7220169401221063,0.5771093372382311,0.37019881352330375
-111.72123336791992,3952.0,10372.0,11468.0,69.0,203.0,-941.0,-0.06798723042004456,-0.7737606888763932,0.5165597714602745,0.3603305917601922
-111.72898721694946,3932.0,10360.0,11596.0,156.0,233.0,-1003.0,-0.036336451582456936,-0.8238123482110837,0.45048730305365187,0.34216087884032453
-111.73677563667297,3944.0,10332.0,11636.0,199.0,242.0,-968.0,-0.0026923501214007554,-0.8663018831075495,0.38455052433037207,0.31880196488160656
-111.74453997612,3912.0,10376.0,11780.0,361.0,266.0,-878.0,0.03989788111383564,-0.8999183961447894,0.32694500772254026,0.2857656404960607
-111.75231337547302,3892.0,10400.0,12068.0,423.0,164.0,-772.0,0.08738044321016161,-0.9217471921141108,0.27659406372929524,0.25737617582803346
-111.76008558273315,3980.0,10440.0,12192.0,493.0,55.0,-682.0,0.14061404883635314,-0.9331592443712196,0.2325998242307319,0.23524207889366888
-111.76790142059326,3964.0,10304.0,12424.0,277.0,-77.0,-538.0,0.17550299809572492,-0.9377706829890455,0.19325694118721704,0.2289903894678366
-111.77567481994629,4020.0,10724.0,12636.0,560.0,-238.0,-412.0,0.2330853854939579,-0.9294731358053175,0.1667474468010566,0.23226317372905123
-111.78345680236816,3896.0,10764.0,12912.0,464.0,-324.0,-325.0,0.28156145329835286,-0.9167047002953054,0.1429726023436041,0.24481518631839713
-111.79126453399658,3752.0,11168.0,12892.0,503.0,-377.0,-453.0,0.33541951035158646,-0.8998776101741306,0.1079706023119545,0.2570143727871869
-111.79905104637146,4012.0,11740.0,12828.0,110.0,-238.0,-614.0,0.35946397758602266,-0.8955774202504643,0.05515525350888363,0.2562901308398927
-111.80682301521301,4068.0,11948.0,12796.0,-82.0,-158.0,-900.0,0.37275571352734743,-0.8960730885471239,-0.021918459442724574,0.2400537005546753
-111.81463074684143,4044.0,12016.0,12700.0,-438.0,32.0,-1060.0,0.35897586813936866,-0.9044376324859278,-0.11240264079841836,0.201232555463519
-111.8223979473114,4240.0,12280.0,12404.0,-519.0,296.0,-1713.0,0.34667626895153125,-0.897901377649514,-0.24444255665841097,0.11762872546809985
-111.8301751613617,4352.0,11740.0,12064.0,-1091.0,488.0,-2129.0,0.2869920206556658,-0.8709338820686078,-0.3988020033297532,-0.008167942522934788
-111.83797478675842,4596.0,11420.0,12276.0,-1337.0,764.0,-2542.0,0.20338953645282942,-0.789245012729248,-0.5536491632565964,-0.17087308263381626
-111.8457658290863,4600.0,11044.0,11776.0,-1314.0,998.0,-2835.0,0.11420227136778884,-0.6351140380694648,-0.6841521831988444,-0.33988790811941433
-111.8535704612732,4704.0,10580.0,11568.0,-1733.0,1211.0,-3060.0,-0.000340510318175075,-0.41246517191273785,-0.7516509194459472,-0.5146778228249017
-111.86134719848633,4672.0,10468.0,11360.0,-1900.0,1260.0,-3190.0,-0.1224272262748689,-0.13855781411696894,-0.7390074155624,-0.6478281764152835
-111.86915326118469,4832.0,9852.0,11248.0,-2118.0,1105.0,-3195.0,-0.24309174285930824,0.14415412304395836,-0.6323207178522038,-0.7213158137306606
-111.8769268989563,4844.0,9680.0,11320.0,-2141.0,903.0,-3000.0,-0.33713988638380127,0.39101111166766206,-0.45456000648191286,-0.7258251911229728
-111.88471603393555,5024.0,9300.0,11616.0,-2020.0,441.0,-2786.0,-0.40884790352331024,0.5635254632550891,-0.23396405759783356,-0.6786333795209964
-111.89251446723938,4976.0,9584.0,12016.0,-1878.0,-115.0,-2138.0,-0.4323144760952754,0.6475738234828106,-0.013066746621971546,-0.627360818852308
-111.90028786659241,5608.0,9848.0,12392.0,-1548.0,-699.0,-1452.0,-0.41728330613657877,0.6569004596452003,0.17680356968046632,-0.6025752453311499
-111.90805745124817,5556.0,9936.0,12900.0,-1226.0,-1167.0,-1024.0,-0.37728223039639797,0.6151917961269482,0.3374938238105108,-0.6043964687975757
-111.91582489013672,5944.0,9360.0,12932.0,-949.0,-1450.0,-275.0,-0.2947126753591881,0.5553020606215328,0.4448667005917287,-0.6378696411938245
-111.92360186576843,5968.0,9508.0,13148.0,-841.0,-1653.0,148.0,-0.17919817210217992,0.4842408160833921,0.5201928530921182,-0.6802927625265534
-111.93139553070068,6116.0,9704.0,13608.0,-775.0,-1828.0,546.0,-0.03053694070312251,0.40604252333145546,0.5626648997028855,-0.7194478265596889
-111.93916535377502,5716.0,9736.0,14212.0,-661.0,-1836.0,913.0,0.1379906908993464,0.3314862508364058,0.5667089583916082,-0.7415634775326001
-111.94693064689636,5592.0,10108.0,14168.0,-578.0,-1639.0,1232.0,0.3102537744865292,0.2746278467863408,0.5393940739019835,-0.7330594615894277
-111.95470762252808,5508.0,10080.0,14140.0,-606.0,-1359.0,1365.0,0.4689363937046708,0.23191988114715334,0.5008035331911147,-0.6895706262097047
-111.9625039100647,5380.0,10028.0,13732.0,-853.0,-905.0,1398.0,0.6020126889409355,0.20096463959298655,0.48028877687210353,-0.6054061667988395
-111.9702787399292,5364.0,10044.0,13408.0,-1174.0,-736.0,1318.0,0.7133320601784272,0.1535126964339084,0.47380991745888623,-0.4930470424541604
-111.97806072235107,5028.0,9884.0,13156.0,-1403.0,-12.0,1184.0,0.773816075823787,0.11319190014665356,0.510886928098313,-0.35691850783636037
-111.98585104942322,4932.0,9876.0,12748.0,-1597.0,317.0,769.0,0.7898311622585774,0.04894316494866323,0.5673353944586349,-0.22781977948487717
-111.99362134933472,4712.0,9904.0,12288.0,-1664.0,600.0,877.0,0.7733725684532837,-0.01019778471238337,0.6286523967031687,-0.08116057953398823
-112.00139355659485,4684.0,9616.0,11924.0,-1759.0,741.0,806.0,0.7251834652223836,-0.0781252735756532,0.6807147746511686,0.06806452062854704
-112.00917530059814,4772.0,9476.0,11692.0,-1756.0,524.0,738.0,0.66790120986166,-0.14631139168084759,0.6981054255345043,0.21248474149696728
-112.01694369316101,4636.0,9400.0,11600.0,-1657.0,516.0,600.0,0.5966017696669653,-0.21312573812822866,0.6961684720578883,0.3376288001491103
-112.02471971511841,5016.0,8980.0,11452.0,-1377.0,477.0,856.0,0.511264833523749,-0.24415039165467825,0.6888401888333051,0.4522146066912227
-112.03252220153809,5180.0,9372.0,11392.0,-1099.0,192.0,914.0,0.4367749184393571,-0.24379934284244253,0.6681769382721119,0.5507532389493432
-112.04029583930969,5068.0,9408.0,11408.0,-875.0,-86.0,1095.0,0.36775795546630763,-0.20749765823079303,0.6412713168441805,0.6406792537712681
-112.04809999465942,5088.0,9320.0,11452.0,-556.0,-320.0,1203.0,0.30612765950419873,-0.13900601176169708,0.6172578742606135,0.7113057721148178
-112.05591654777527,5128.0,9000.0,11636.0,-324.0,-265.0,1321.0,0.2327120561325422,-0.059469875700708004,0.6015976567437726,0.7618324567876514
-112.06368803977966,5280.0,9112.0,11632.0,-36.0,-638.0,1388.0,0.17214358296373514,0.05475563463408795,0.5881066391202995,0.7883520713125904
-112.07146668434143,5316.0,8988.0,11700.0,162.0,-575.0,1462.0,0.09928610060742551,0.1702896212303997,0.5779928725597111,0.7918762241648328
-112.07925820350647,5436.0,8936.0,11744.0,285.0,-450.0,1496.0,0.014172752380153277,0.2767171168999067,0.5659671343203502,0.7764714889638801
-112.08702635765076,5484.0,8816.0,11520.0,403.0,-331.0,1571.0,-0.08482215314258595,0.3733356565134341,0.5490730089593097,0.7429296876180873
-112.09480309486389,5384.0,8776.0,12060.0,494.0,-224.0,1566.0,-0.18976197389174468,0.45443468056388936,0.5261553270779366,0.6932821115195561
-112.10260605812073,5412.0,8940.0,12156.0,662.0,-159.0,1648.0,-0.30477440141930057,0.5223795323398716,0.49743196372835274,0.6219273509769762
-112.1103765964508,5696.0,8876.0,12224.0,756.0,-129.0,1768.0,-0.42367710213154797,0.5778083126651744,0.45487078604669795,0.5288930278853154
-112.11814665794373,5632.0,9168.0,12056.0,918.0,-124.0,1913.0,-0.5441032847307603,0.614939485682236,0.39855396364469303,0.4086022302400816
-112.12591600418091,5716.0,9144.0,12432.0,1089.0,-132.0,1972.0,-0.6557403917373311,0.6244320153911522,0.3314599405589452,0.2649971784819152
-112.1336841583252,5820.0,9348.0,12364.0,1195.0,-88.0,1946.0,-0.7486520361560881,0.6023984545668851,0.253108962938834,0.11212530300873116
-112.14145231246948,5784.0,9524.0,12488.0,1423.0,5.0,1921.0,-0.824699724678659,0.5400486900971977,0.1622302499079019,-0.04357892213059671
-112.14925265312195,5788.0,9888.0,12372.0,1509.0,-13.0,1867.0,-0.869741647311056,0.44793246063460035,0.06796653638855002,-0.19566943443938004
-112.15702033042908,5752.0,10160.0,12104.0,1575.0,-19.0,1727.0,-0.8835879902238218,0.3312661706762736,-0.02448288574171841,-0.33005389863394
-112.16478991508484,5540.0,10280.0,12224.0,1613.0,41.0,1608.0,-0.8668997558183003,0.20044157469996685,-0.11826096455026436,-0.44082006846060257
-112.17255926132202,5480.0,10128.0,12104.0,1629.0,73.0,1479.0,-0.8227076195247786,0.06328662901010483,-0.20846561080821993,-0.5250610102404911
-112.18033242225647,5392.0,10244.0,12100.0,1585.0,115.0,1352.0,-0.7549736585915122,-0.06900708386673186,-0.2919247920936105,-0.5831232399504059
-112.1881046295166,5296.0,10056.0,12108.0,1580.0,136.0,1280.0,-0.6663432957092622,-0.19598359655833567,-0.367648686024064,-0.6183942802194707
-112.19589924812317,5356.0,9916.0,12088.0,1577.0,208.0,1398.0,-0.547919693863959,-0.3161299808154619,-0.43337804157432447,-0.6418950984287418
-112.20367813110352,5252.0,9764.0,12112.0,1669.0,230.0,1625.0,-0.3939841004994312,-0.43555525833043185,-0.4828674496557051,-0.6495438180426011
-112.21144008636475,5252.0,9480.0,12144.0,1768.0,284.0,1855.0,-0.20453917907399316,-0.5447629545752108,-0.5094753852823756,-0.6339021054844342
-112.21925377845764,5264.0,9428.0,12124.0,1835.0,339.0,2067.0,0.011787920598189523,-0.6322098662381439,-0.5040267603873073,-0.5883270814543513
-112.22701644897461,5260.0,9668.0,12016.0,1865.0,439.0,2396.0,0.24829535470149336,-0.68881815334112,-0.4512029795157887,-0.5101909835909133
-112.23479700088501,5136.0,9488.0,11960.0,1903.0,262.0,2659.0,0.472466512238381,-0.7119514476983712,-0.3560906623941555,-0.3782855681746068
-112.24263882637024,5116.0,9548.0,11984.0,1906.0,552.0,2827.0,0.6715954610897015,-0.6729955287101931,-0.2112058411404617,-0.22677885185340532
-112.25048613548279,5004.0,9532.0,11884.0,1838.0,532.0,3113.0,0.8108169922433986,-0.5830721061974321,-0.03197146093223182,-0.039756128454835254
-112.25826740264893,4960.0,9588.0,11704.0,1769.0,553.0,3225.0,0.8690081412040824,-0.44210248561488746,0.1570567737216326,0.15717319288706855
-112.26604866981506,4976.0,9752.0,11680.0,1718.0,523.0,3429.0,0.8348006326213454,-0.2574771561757105,0.334016577141517,0.35390160216836447
-112.27385687828064,4968.0,9764.0,11784.0,1655.0,456.0,3491.0,0.7110190813956995,-0.046385231749088145,0.47035207031027093,0.5206430697912352
-112.28163981437683,4964.0,9876.0,11884.0,1621.0,449.0,3333.0,0.5207223962144529,0.16241805434685766,0.55642830727469,0.6267823390669864
-112.28941249847412,5000.0,9740.0,11804.0,1587.0,403.0,3580.0,0.2674259608096688,0.36548290166599007,0.577491082353044,0.6792714139999882
-112.2971887588501,5000.0,10100.0,12028.0,1548.0,354.0,3544.0,-0.009399465602287882,0.529635901106228,0.5344705984683219,0.6585883704399125
-112.30497312545776,4984.0,10208.0,11584.0,1500.0,339.0,3510.0,-0.2810148640239487,0.6378471745273749,0.43444325930642574,0.5704740858165741
-112.31276249885559,4912.0,10348.0,11720.0,1531.0,257.0,3389.0,-0.5180257197823178,0.6807951502075192,0.3002051878878274,0.4219527962499682
-112.32053995132446,4952.0,10576.0,11604.0,1499.0,214.0,3284.0,-0.6996699534880899,0.6590510230615259,0.14363385130817008,0.2355483431185887
-112.32831120491028,5040.0,10568.0,11632.0,1458.0,163.0,3220.0,-0.8139199308502819,0.579901376773337,-0.020583021950969525,0.028724181249021305
-112.33607625961304,5144.0,10616.0,11712.0,1453.0,67.0,2827.0,-0.861940707900225,0.4541363371919782,-0.15875739482103038,-0.16004528389162864
-112.34389734268188,5176.0,10604.0,11672.0,1455.0,-18.0,2951.0,-0.8445690938827456,0.29156452704368585,-0.28320937861799456,-0.3485478734559707
-112.35169243812561,5312.0,10664.0,11636.0,1456.0,-138.0,2872.0,-0.7678832408255385,0.10475571384072672,-0.37576113083658297,-0.5081192197008494
-112.35947132110596,5364.0,10556.0,11732.0,1503.0,-156.0,2795.0,-0.6386600634390445,-0.09134594998547248,-0.4407580006507249,-0.624100653461974
-112.36727023124695,5568.0,10348.0,11916.0,1542.0,-161.0,2714.0,-0.4675860925090951,-0.28040532271892593,-0.47653391013929886,-0.6896749477618579
-112.37503743171692,5756.0,10252.0,11940.0,1290.0,-85.0,2570.0,-0.27624003335471137,-0.43170148004790293,-0.4729281237290556,-0.7167037504316224
-112.38281345367432,5752.0,10236.0,12032.0,1553.0,-256.0,2523.0,-0.06821458488005228,-0.5703407215025837,-0.4536781564583191,-0.6813474606675624
-112.39061379432678,5824.0,10176.0,12116.0,1585.0,104.0,2414.0,0.15353520384224575,-0.6487712763011263,-0.4153326960788633,-0.6188873272216764
-112.39840078353882,5820.0,10160.0,12100.0,1592.0,497.0,2360.0,0.3773572354765887,-0.6652123500042968,-0.35006108102062944,-0.540880102970978
-112.40617394447327,5820.0,10172.0,12036.0,1634.0,409.0,2308.0,0.5760562817314737,-0.6428144741435844,-0.2714314520656413,-0.42576246774316984
-112.41398811340332,5928.0,10156.0,11888.0,1616.0,495.0,2237.0,0.7397924647141033,-0.5789661688627402,-0.17593165210270026,-0.29419948717332506
-112.42179322242737,5908.0,10028.0,11808.0,1619.0,580.0,2112.0,0.860816143122239,-0.47848576342625665,-0.0713875614678238,-0.1579580893978618
-112.42957663536072,5960.0,10232.0,11868.0,1609.0,646.0,2122.0,0.9349936872343848,-0.3518052647398161,0.04232654025352305,-0.015110411091831203
-112.43735241889954,6020.0,10268.0,11764.0,1602.0,587.0,2157.0,0.9577216913758476,-0.20624434965474914,0.14999586724080047,0.1331678261231126
-112.44517731666565,6004.0,10212.0,11908.0,1565.0,610.0,2167.0,0.9266029150198937,-0.05241602107286511,0.2509707055127756,0.27508781068223365
-112.45298409461975,6108.0,10168.0,11816.0,1582.0,559.0,2186.0,0.8450245426706787,0.10717229801021706,0.3344547263503202,0.4032215976920782
-112.46076273918152,6048.0,10136.0,11900.0,1660.0,762.0,2229.0,0.7067831113146336,0.2599482642884997,0.41508329112457415,0.5104805528940302
-112.46853685379028,6044.0,10088.0,11808.0,1732.0,462.0,2188.0,0.53712084000623,0.4131649839789919,0.457159847172899,0.5760215042665446
-112.47631311416626,5892.0,10140.0,11840.0,1739.0,484.0,2181.0,0.33536757186511135,0.5410932588242907,0.4741964323033321,0.6081812399170169
-112.4840829372406,5836.0,10008.0,11804.0,1826.0,494.0,2151.0,0.11110671656117567,0.6376570721450644,0.4694558061593267,0.6005497497640603
-112.49190545082092,5928.0,9748.0,11964.0,1872.0,537.0,2083.0,-0.1205734958714029,0.6918335006636407,0.44329076983163157,0.5570652859718693
-112.49967741966248,6024.0,9920.0,11680.0,1976.0,650.0,1802.0,-0.3429015022866482,0.6894627106431095,0.4119870056258768,0.4871616133868096
-112.50746250152588,6060.0,9956.0,11664.0,1995.0,762.0,2017.0,-0.5580890249179311,0.648807082854111,0.3415900411204919,0.3884613923053257
-112.51525974273682,6116.0,9932.0,11412.0,2046.0,920.0,1986.0,-0.7437483289902143,0.5582744660122784,0.24545033904052116,0.27371915312572254
-112.52303075790405,6092.0,9984.0,11448.0,2072.0,1276.0,1911.0,-0.8860158054693985,0.4190541873100643,0.11492212247164792,0.1617482189173211
-112.53080773353577,6372.0,10132.0,11320.0,2041.0,1196.0,1935.0,-0.966249829903825,0.25462664172872435,-0.018793322203572944,0.03425420519197544
-112.53861093521118,6160.0,10164.0,11032.0,2115.0,1029.0,1959.0,-0.9829839232539052,0.06735384269395073,-0.13782710712703244,-0.10104333248519179
-112.54637694358826,6260.0,10008.0,11196.0,2111.0,1342.0,2007.0,-0.9259777579959816,-0.12163810437128386,-0.2727089402067502,-0.231082663116486
-112.55418395996094,6392.0,10432.0,11108.0,2071.0,1344.0,1797.0,-0.8075766787194445,-0.2945873292901599,-0.39016938512636845,-0.32985764250699634
-112.56198692321777,6428.0,10444.0,11028.0,2196.0,1478.0,2193.0,-0.6107609743841423,-0.46128149193736395,-0.4798307246809402,-0.4288972989161116
-112.56980276107788,6496.0,10556.0,11312.0,2233.0,1475.0,2277.0,-0.35743208797540754,-0.5931955518627232,-0.5260433651838561,-0.4935987415724068
-112.57757711410522,6660.0,10272.0,11368.0,2321.0,1513.0,2442.0,-0.0595806498483098,-0.6781428253990147,-0.520352875464411,-0.5155631285491754
-112.5853476524353,6836.0,10668.0,11384.0,2391.0,1504.0,2475.0,0.24860661600264972,-0.6986656375639962,-0.4648956990831287,-0.48366627579459665
-112.59314513206482,6996.0,10636.0,11280.0,2488.0,1498.0,2468.0,0.536416673789517,-0.646660321582251,-0.36713575291381945,-0.3991226872831632
-112.6009202003479,7020.0,10512.0,11576.0,2502.0,1449.0,2550.0,0.7704890636659922,-0.5313605795356695,-0.2298806160318774,-0.2667535185511615
-112.6087007522583,6804.0,10540.0,11684.0,2543.0,1358.0,2489.0,0.9239634141740383,-0.35916975397213674,-0.07816902775769004,-0.10572748081207112
-112.61650919914246,6848.0,10448.0,11656.0,2585.0,1330.0,2349.0,0.9847255670868936,-0.14661927509468428,0.07489360717779997,0.056650624886249654
-112.62428617477417,6792.0,10396.0,11896.0,2677.0,1520.0,2228.0,0.947305538013487,0.08614795676954673,0.23455128800819353,0.2004406158619239
-112.6320583820343,6624.0,10460.0,11804.0,2702.0,1236.0,2101.0,0.8243525043701995,0.31559613154440586,0.35071558425412125,0.3127948357215586
-112.63987803459167,6752.0,10416.0,11600.0,2750.0,1529.0,1944.0,0.6173770500735942,0.5056116660829356,0.45871443858412875,0.39087528061737586
-112.64764738082886,6664.0,10300.0,11544.0,2754.0,1398.0,1672.0,0.36604876383007445,0.6436947060664826,0.529755690134645,0.41355088761895453
-112.65544319152832,6580.0,10408.0,11516.0,2703.0,1528.0,1450.0,0.08739315010067512,0.7108037470508408,0.5696793883570408,0.40321937574366745
-112.66324782371521,6600.0,10716.0,11416.0,2634.0,1725.0,1234.0,-0.1968263352323742,0.7015787326631886,0.5744535807339521,0.3728937639806385
-112.67102837562561,6484.0,10592.0,11292.0,2512.0,1879.0,1037.0,-0.45989377477908955,0.6237792469197074,0.5384758673729084,0.33081854133152333
-112.67879581451416,6680.0,10548.0,11068.0,2430.0,1968.0,879.0,-0.6831813169111216,0.49125982281583785,0.4635113773055101,0.2776405550687552
-112.68658185005188,6620.0,10620.0,11108.0,2342.0,2010.0,795.0,-0.8518764208886195,0.32264961577348583,0.35291607001167874,0.21366805213398027
-112.69436502456665,6720.0,10660.0,11244.0,2310.0,2016.0,760.0,-0.95749088632644,0.13156174845089802,0.2166300568727957,0.13774660578627818
-112.70215082168579,7016.0,10728.0,10900.0,2548.0,2207.0,712.0,-0.9930750570053999,-0.09070978577701543,0.0524310429943595,0.05314745194770571
-112.7099540233612,7244.0,10752.0,11124.0,2311.0,2199.0,750.0,-0.9501869509338129,-0.2865025136329128,-0.11659553622239703,-0.03829554660973353
-112.71771764755249,6984.0,10816.0,11432.0,2364.0,1825.0,808.0,-0.8397490905227113,-0.46800451562767126,-0.24650756448497335,-0.12258572090612745
-112.72551083564758,6912.0,11064.0,11064.0,2458.0,1640.0,886.0,-0.6707613561773746,-0.6273379947592713,-0.3443370865973251,-0.19482867905976248
-112.7333152294159,6788.0,11232.0,11136.0,2441.0,1400.0,851.0,-0.46554853275036423,-0.7477668391712162,-0.4078873083970447,-0.2402857913786953
-112.74106478691101,6752.0,11332.0,11064.0,2405.0,1311.0,815.0,-0.23759548904298325,-0.8218075111351947,-0.44472624884544637,-0.26532878060259674
-112.7488214969635,6712.0,11276.0,11012.0,2388.0,1243.0,805.0,0.0005330969467135381,-0.8486189784170275,-0.45457185753473883,-0.2705734126175431
-112.75662398338318,6644.0,11584.0,10992.0,2376.0,1106.0,581.0,0.22793750851384909,-0.823121439848496,-0.4552704753428316,-0.25148435688000537
-112.76439332962036,6512.0,11648.0,11244.0,2197.0,963.0,331.0,0.42199737451224817,-0.7547135829308443,-0.45061490057711046,-0.22197259971072478
-112.7721655368805,6392.0,11708.0,11032.0,1959.0,784.0,195.0,0.5759159407905579,-0.6637181258314802,-0.4394138214188334,-0.18631846964853307
-112.7799334526062,6020.0,11700.0,11660.0,1762.0,655.0,72.0,0.6950204821582721,-0.5596702239557941,-0.42529411296568453,-0.15113135768094374
-112.78769946098328,5672.0,11756.0,12060.0,1564.0,545.0,-130.0,0.7818143397045673,-0.44796503626386586,-0.41488454887751675,-0.12635060593492997
-112.79547452926636,5524.0,11812.0,12444.0,1363.0,496.0,-263.0,0.8432730315656499,-0.3370168671510737,-0.40302673024511604,-0.11348867872032205
-112.80327343940735,5244.0,11992.0,12636.0,1136.0,454.0,-559.0,0.8811203998063958,-0.22747586548793128,-0.3945755055855377,-0.12724677621633934
-112.81103587150574,5088.0,12204.0,12940.0,768.0,484.0,-958.0,0.8965019154721464,-0.12895399696601123,-0.3823302136183177,-0.18297210163255484
-112.81880617141724,4764.0,12560.0,12868.0,378.0,577.0,-1324.0,0.8913378647656749,-0.04533351860787468,-0.35505683139270516,-0.2782019579495608
-112.8266110420227,4520.0,12616.0,12572.0,-100.0,863.0,-1760.0,0.8623563361255687,0.02234474922001441,-0.2882020180142464,-0.4156703724574266
-112.83439111709595,4520.0,13200.0,12292.0,-262.0,994.0,-2213.0,0.7898015314406168,0.09257413207903001,-0.19524066709118515,-0.5740423790258516
-112.84216451644897,4396.0,13420.0,12048.0,-898.0,911.0,-2541.0,0.6650643707791788,0.11629088720160397,-0.06519236830799453,-0.7347896075669236
-112.84997749328613,4276.0,13648.0,11948.0,-1153.0,801.0,-2655.0,0.4944169320927267,0.11213854264265996,0.07918231295272075,-0.8583163786328757
-112.85776281356812,4312.0,13736.0,11640.0,-1347.0,443.0,-2793.0,0.2849306383243909,0.06551483511782549,0.21821301342604332,-0.9310775577228058
-112.86554408073425,4344.0,13824.0,11528.0,-1394.0,249.0,-2779.0,0.060172537744926195,-0.001797966026724822,0.3409012624209099,-0.9381696873696849
-112.87334656715393,4544.0,14028.0,11432.0,-1405.0,-434.0,-2728.0,-0.14531721972577022,-0.12156890253579197,0.4373080799253159,-0.879127721562373
-112.88115882873535,4692.0,13792.0,11388.0,-1383.0,-704.0,-2549.0,-0.3181738844419795,-0.2471610367386824,0.508174777686784,-0.7612064086043608
-112.88893294334412,4760.0,13308.0,11476.0,-1332.0,-904.0,-2465.0,-0.455887333241914,-0.3676836941274245,0.5505566317575665,-0.5948637118619271
-112.89671277999878,4772.0,12968.0,11564.0,-1255.0,-966.0,-2410.0,-0.557605201878852,-0.4691207631902348,0.5592253776655509,-0.39530889865556784
-112.9045147895813,4376.0,12516.0,11732.0,-1302.0,-887.0,-2503.0,-0.6333456981060979,-0.5408082989508485,0.5274035170274571,-0.16806290698264773
-112.91230249404907,4472.0,12052.0,11936.0,-1379.0,-862.0,-2665.0,-0.6734139854509256,-0.578756540899552,0.4528423997974546,0.08054955934558614
-112.92007255554199,4352.0,11792.0,12112.0,-1433.0,-704.0,-2764.0,-0.6730252559135004,-0.5767632896471904,0.331774033392921,0.32296610253107283
-112.9278838634491,4400.0,11544.0,12068.0,-1520.0,-560.0,-2951.0,-0.6238911338779959,-0.5343934738941499,0.16619475819327134,0.5454931442986716
-112.93565773963928,4524.0,11336.0,12508.0,-1639.0,-506.0,-3017.0,-0.525897682469327,-0.44468600950132364,-0.023848877725499908,0.7246497164550703
-112.94342875480652,4596.0,11260.0,12664.0,-1672.0,-492.0,-2982.0,-0.3861765460950745,-0.31642471813744544,-0.2130912378108918,0.8398423645934628
-112.95122599601746,4752.0,10944.0,12672.0,-1612.0,-488.0,-2814.0,-0.2245698505965607,-0.16718855470963714,-0.37716948076055595,0.8828134299839087
-112.95899081230164,4956.0,10868.0,12576.0,-1558.0,-440.0,-2735.0,-0.04921606219554815,-0.012189085826110665,-0.5091042419347218,0.859210146735221
-112.96680092811584,4952.0,10864.0,12500.0,-1435.0,-360.0,-2681.0,0.12979786077890929,0.13540887820281214,-0.5969347754969221,0.7800550139852408
-112.97459268569946,5036.0,10988.0,12316.0,-1530.0,-198.0,-2701.0,0.3103113899845237,0.262823415938128,-0.6478571304821489,0.6441365008784413
-112.98235487937927,5040.0,11080.0,12156.0,-1231.0,20.0,-2802.0,0.4804751604892174,0.3737400127617576,-0.6300382323345921,0.4821968983832274
-112.99012684822083,5032.0,11176.0,12036.0,-1210.0,4.0,-2887.0,0.6190982474108536,0.46458220047674076,-0.5657493161756171,0.2842682717079424
-112.99790287017822,5048.0,11288.0,12016.0,-1315.0,455.0,-3067.0,0.739795752507606,0.511998874333336,-0.43103075041497035,0.0690788639875425
-113.00565528869629,4920.0,11216.0,11884.0,-1469.0,658.0,-3295.0,0.8096959658859645,0.5114836812763436,-0.23809064265729968,-0.16152316395807914
-113.01342487335205,4836.0,11220.0,11824.0,-1720.0,888.0,-3512.0,0.8075038405487933,0.44854804700748513,0.005419652542903629,-0.3830311010754006
-113.02119445800781,4660.0,11112.0,11828.0,-1869.0,1072.0,-3764.0,0.7056275131107493,0.32806821888961607,0.2717773609707569,-0.5662138487881635
-113.02895832061768,4284.0,10768.0,11708.0,-2020.0,1176.0,-3878.0,0.5059847304375497,0.15790070277429752,0.5160490588275248,-0.6728597101258544
-113.03673553466797,4316.0,10596.0,11804.0,-2139.0,1174.0,-4044.0,0.22664701598390927,-0.04601876580226017,0.6926078194860634,-0.6832333508592704
-113.04454946517944,3912.0,10376.0,11600.0,-2168.0,1210.0,-4181.0,-0.0962562775613627,-0.24810976861237932,0.7630939654985259,-0.5889515018818409
-113.05234122276306,3736.0,10072.0,11536.0,-2124.0,1184.0,-4177.0,-0.40164230979339005,-0.41244379832360184,0.7111136667361447,-0.40359747421076103
-113.06012725830078,3464.0,9932.0,11704.0,-2019.0,1136.0,-4046.0,-0.6367623566002378,-0.5120080149278515,0.5526391645502533,-0.16422986230205044
-113.0679042339325,3264.0,9828.0,11604.0,-1867.0,1088.0,-3792.0,-0.7729448401885266,-0.5378028559676283,0.3264355687302832,0.08224464485139396
-113.07568788528442,3096.0,9784.0,11420.0,-1674.0,1091.0,-3532.0,-0.8081502773049705,-0.5025880948373813,0.07059707498158546,0.298855130830433
-113.08345413208008,3056.0,9868.0,11488.0,-1415.0,1101.0,-3210.0,-0.7554698082717384,-0.4295267612213758,-0.17584137407896955,0.4624412842151508
-113.09125900268555,2964.0,9976.0,11484.0,-1239.0,1117.0,-2831.0,-0.6446730715018232,-0.3358805473912994,-0.389723027554503,0.565417412676934
-113.09904432296753,2972.0,10164.0,11504.0,-1124.0,1129.0,-2452.0,-0.5022411648079833,-0.23734307172820376,-0.5624238026070398,0.6124553411767901
-113.10682034492493,2944.0,10348.0,11544.0,-1094.0,1035.0,-2176.0,-0.34868015001078523,-0.13436667312318246,-0.693017007807808,0.6165185942300334
-113.11462116241455,2828.0,10548.0,11540.0,-1059.0,1437.0,-1943.0,-0.16533269106423548,-0.06036139955854813,-0.7956513772212901,0.5796209870550372
-113.12239718437195,2872.0,10612.0,11556.0,-1157.0,1665.0,-1771.0,0.0329100491379524,-0.004772874055076543,-0.8639910228057897,0.5024078630455511
-113.1301634311676,2920.0,10632.0,11708.0,-1278.0,1845.0,-1575.0,0.2340186329342587,0.02863088994355767,-0.8902338529811515,0.38974252858387665
-113.13797426223755,2740.0,10612.0,11780.0,-1418.0,1963.0,-1487.0,0.42778865271240574,0.047032953859683396,-0.8683164618451449,0.24659945650886267
-113.145747423172,2680.0,10640.0,11792.0,-1598.0,2019.0,-1454.0,0.5991165205928963,0.052423730930615475,-0.7952330547230332,0.07691252085225968
-113.15356159210205,2404.0,10472.0,11564.0,-1785.0,2052.0,-1440.0,0.7334628653152346,0.0437566710096116,-0.6694867038298611,-0.1091106426557487
-113.16134357452393,2360.0,10364.0,11792.0,-1934.0,2044.0,-1512.0,0.8148626031785278,0.026824005510020038,-0.4953913514524093,-0.29977795044944056
-113.16911840438843,2152.0,10192.0,11852.0,-1980.0,2090.0,-1558.0,0.8356614919832593,0.007901613328016447,-0.2799127502586774,-0.4725000397521153
-113.17688536643982,1984.0,10064.0,11772.0,-1990.0,2138.0,-1700.0,0.7856523094193884,-0.006927515285485651,-0.0390712020274791,-0.6173944439400786
-113.18468809127808,1868.0,9888.0,11736.0,-1986.0,2206.0,-1771.0,0.6669058310649558,-0.017197097999893583,0.20860055801196092,-0.7151410207148247
-113.19246554374695,1780.0,9888.0,11564.0,-1855.0,2275.0,-1780.0,0.49016349531626324,-0.014806098695630113,0.4347951250335255,-0.7552971114388295
-113.20022988319397,1776.0,10012.0,11748.0,-1753.0,2375.0,-1828.0,0.26540459354741625,-0.0024440308634949694,0.6215460812357573,-0.7370447051146508
-113.2080295085907,1664.0,9984.0,11636.0,-1598.0,2408.0,-1722.0,0.022703254010169902,0.021152990979378807,0.74810544930581,-0.6628539431495661
-113.2157986164093,1524.0,10100.0,11844.0,-1475.0,2434.0,-1567.0,-0.21569653276552814,0.05457758511846548,0.8092097368443916,-0.5437608801226849
-113.22356367111206,1492.0,10212.0,11580.0,-1336.0,2475.0,-1519.0,-0.4395177889117772,0.08658390780668786,0.8025652323004894,-0.39397511094165194
-113.23130750656128,1344.0,10300.0,11632.0,-1253.0,2442.0,-1343.0,-0.6255137462790822,0.12030569468130557,0.7363238376010502,-0.22822423014136473
-113.23909854888916,1320.0,10576.0,11960.0,-1200.0,2379.0,-1243.0,-0.7658387117421518,0.14844824958617076,0.6231180076114055,-0.05637493576329589
-113.24693822860718,1260.0,10696.0,12012.0,-1240.0,2390.0,-1127.0,-0.8579698151558846,0.1760624285764847,0.4689742319216604,0.11381119153499902
-113.25477266311646,1136.0,10872.0,11968.0,-1352.0,2395.0,-1090.0,-0.8950889721478752,0.20208211646776084,0.2835394182819423,0.2785389531528914
-113.26252889633179,1052.0,10800.0,11784.0,-1462.0,2344.0,-1130.0,-0.8708051232738894,0.22361763928737918,0.08203534664521658,0.43007416869684834
-113.27032470703125,1124.0,11176.0,12196.0,-1666.0,2251.0,-1142.0,-0.7847114098182802,0.24877044130772047,-0.12493029128944927,0.5538354386917675
-113.27809715270996,1100.0,11200.0,12052.0,-1834.0,2239.0,-1226.0,-0.637726021322761,0.26936280306728116,-0.3280498224377534,0.6427538533919007
-113.28591322898865,1256.0,11196.0,12068.0,-1958.0,2227.0,-1247.0,-0.44098277456156615,0.27824611959534606,-0.5125939066623952,0.6821735675931008
-113.29367113113403,820.0,11124.0,12016.0,-2071.0,2174.0,-1345.0,-0.20507430976829397,0.2774279301227282,-0.6601641000155624,0.6672043405970312
-113.30147576332092,836.0,10956.0,11832.0,-2183.0,2241.0,-1441.0,0.05828094436559154,0.2576222783484385,-0.7589114926464915,0.5952204965821397
-113.30925989151001,788.0,10944.0,12020.0,-2238.0,2168.0,-1303.0,0.3069152673005024,0.21094229083658728,-0.8007447541965285,0.46916330553573227
-113.31705379486084,736.0,10868.0,11860.0,-2278.0,2174.0,-1572.0,0.5403434420642188,0.1632483331184508,-0.7712186029292197,0.294280160473217
-113.3248302936554,944.0,10668.0,11872.0,-2311.0,2112.0,-1670.0,0.7244800137796424,0.10741909312144227,-0.6754253983001987,0.08596731586966166
-113.33262324333191,768.0,10584.0,11884.0,-2276.0,2123.0,-1662.0,0.844385368403621,0.04358915131254086,-0.5184966672669017,-0.1275717113895142
-113.34040021896362,832.0,10388.0,12104.0,-2198.0,2083.0,-1678.0,0.8886758337797696,-0.018314638961536456,-0.3196676467860301,-0.3282261903837381
-113.34818506240845,824.0,10328.0,12240.0,-2117.0,1959.0,-1649.0,0.8573790610331359,-0.07693715991240321,-0.10527378089724918,-0.4978948183925491
-113.35598301887512,860.0,10256.0,12220.0,-1898.0,1792.0,-1574.0,0.7660791443168554,-0.1220746674075425,0.09723082978890728,-0.6235115764431747
-113.36377000808716,944.0,10208.0,12400.0,-1765.0,1611.0,-1496.0,0.6333697949840249,-0.16011682182618653,0.27660257652248965,-0.7047668556560358
-113.37154459953308,948.0,10176.0,12780.0,-1663.0,1413.0,-1466.0,0.47360576660851766,-0.19531776113019778,0.4252882541757672,-0.7461088733438125
-113.37932109832764,936.0,10196.0,12616.0,-1615.0,1211.0,-1367.0,0.30531152112487964,-0.22876702966458543,0.544882633689306,-0.7466950091641569
-113.38709712028503,964.0,10192.0,12892.0,-1526.0,1060.0,-1394.0,0.1309243858233013,-0.26129812148004083,0.6318013415833678,-0.7179200245718528
-113.39486408233643,992.0,10300.0,12860.0,-1506.0,965.0,-1356.0,-0.040856172369770405,-0.28734530547022696,0.6930272639168614,-0.6599065540449061
-113.4026448726654,932.0,10324.0,13016.0,-1428.0,933.0,-1350.0,-0.20721857057008392,-0.3047340393713934,0.7250775782347876,-0.5817732675196247
-113.41042304039001,828.0,10360.0,13200.0,-1434.0,930.0,-1411.0,-0.3691022814375773,-0.3150413907396099,0.7299477843242691,-0.4813404825261619
-113.41818737983704,984.0,10476.0,13196.0,-1440.0,1000.0,-1489.0,-0.5245974608138902,-0.31522832848398313,0.7031758288824228,-0.36190103440627325
-113.42599487304688,636.0,10736.0,13136.0,-1485.0,1145.0,-1603.0,-0.6710884225047536,-0.30253021189197954,0.6388048867282405,-0.22370542408443073
-113.4338014125824,568.0,10572.0,13016.0,-1602.0,1361.0,-1784.0,-0.8013290107735127,-0.27378854330431884,0.5280372288050975,-0.06394008948911326
-113.44157695770264,576.0,10524.0,12944.0,-1698.0,1313.0,-2009.0,-0.8850266472221087,-0.2327759039379264,0.384999463246688,0.11966045943600845
-113.44935131072998,564.0,10452.0,12744.0,-1814.0,1749.0,-2074.0,-0.9223090610020035,-0.173775937383755,0.18135280522882305,0.2936989608691802
-113.45718932151794,456.0,10328.0,12612.0,-1908.0,1916.0,-2527.0,-0.8723637546855354,-0.1042997283105433,-0.05726453647825213,0.4741559016264933
-113.46496510505676,260.0,10264.0,12364.0,-1929.0,1996.0,-2701.0,-0.7278102263128261,-0.025359309608144528,-0.2969005408640227,0.6176562545019052
-113.47274708747864,276.0,10104.0,12240.0,-1929.0,1995.0,-2703.0,-0.5066123007172932,0.05640857853109611,-0.5053045368819016,0.69629690078055
-113.48055028915405,220.0,10108.0,12324.0,-1863.0,1914.0,-2731.0,-0.23442691769208301,0.13552488015192704,-0.6542016514581535,0.7061849802641087
-113.48833346366882,208.0,10096.0,12348.0,-1866.0,1808.0,-2608.0,0.04916469349363574,0.20104657036503554,-0.7381311305279062,0.6421258004501368
-113.49612736701965,260.0,10028.0,12668.0,-1839.0,1558.0,-2493.0,0.30780402228924336,0.25503280842416026,-0.7568086630130966,0.5171610949000107
-113.50390291213989,372.0,10024.0,12596.0,-1779.0,1513.0,-2557.0,0.5387849113455199,0.29469836912620195,-0.7078407928019393,0.3490345292177819
-113.5116856098175,432.0,10108.0,13048.0,-1690.0,978.0,-2109.0,0.6857806638679055,0.3062552492445049,-0.6391735986720993,0.16543794648036242
-113.5194821357727,368.0,10140.0,13240.0,-1624.0,713.0,-2048.0,0.7772016976954669,0.3046194015644744,-0.549892213216033,-0.027983837016366205
-113.52727246284485,336.0,10152.0,13320.0,-1539.0,562.0,-2001.0,0.8196583806594169,0.29033401624601024,-0.443465752742764,-0.21726579153087522
-113.53505277633667,308.0,10264.0,13536.0,-1395.0,449.0,-1952.0,0.817079330860738,0.2685781312254997,-0.3278423661941502,-0.3908536010270435
-113.54284071922302,284.0,10432.0,13700.0,-1260.0,435.0,-1993.0,0.7743059256772076,0.24528222212777923,-0.20246726209352314,-0.5470776661037935
-113.55061936378479,232.0,10540.0,13872.0,-1132.0,480.0,-2030.0,0.6952535908659924,0.223045119519117,-0.07080426768564539,-0.6796028801617497
-113.55840682983398,272.0,10540.0,13992.0,-976.0,623.0,-2119.0,0.5797651376103055,0.20930386481783367,0.06438885361378599,-0.7848046590804136
-113.5661849975586,340.0,10744.0,14124.0,-844.0,878.0,-2251.0,0.42567794060867414,0.2089505062296842,0.20244083324133702,-0.856828854475659
-113.57400703430176,320.0,10256.0,14240.0,-701.0,1072.0,-2284.0,0.24255272826783977,0.21711120668456882,0.3276319518055429,-0.8869544532262568
-113.58181285858154,372.0,10484.0,13976.0,-621.0,1040.0,-2301.0,0.04535364505417698,0.21323391838234115,0.4301805216959996,-0.8760245782425117
-113.58960723876953,324.0,10512.0,13756.0,-463.0,1445.0,-2256.0,-0.16810190036677666,0.23074897712284315,0.49926622982861013,-0.8180647238468147
-113.59738636016846,204.0,10608.0,13548.0,-408.0,1564.0,-2241.0,-0.3772679259536783,0.24372736510227583,0.5351184641901566,-0.7154817347980871
-113.6051926612854,164.0,10616.0,13448.0,-426.0,1646.0,-2193.0,-0.5657441032245656,0.25081213140597597,0.5384953970056838,-0.5718824982545931
-113.61295938491821,112.0,10656.0,12800.0,-266.0,1596.0,-2172.0,-0.7234953908142417,0.234968691413461,0.5064484718596046,-0.4060222640164757
-113.6207332611084,0.0,10648.0,12808.0,-577.0,1472.0,-2198.0,-0.8318057955329703,0.22023311761169054,0.4660727176557566,-0.2058463365760375
-113.6285343170166,-68.0,10596.0,12868.0,-618.0,1299.0,-2232.0,-0.8893806983378816,0.19239523596435998,0.41466578111649566,0.00619165351798011
-113.63630032539368,32.0,10580.0,12868.0,-705.0,1097.0,-2283.0,-0.8928657273792732,0.15956348230592352,0.3580462281591011,0.2216600696718502
-113.64407968521118,-20.0,10512.0,12724.0,-782.0,869.0,-2372.0,-0.8411555805981406,0.1260169188874424,0.3002362134803167,0.43178147424098967
-113.6518964767456,-76.0,10384.0,12564.0,-805.0,718.0,-2519.0,-0.7354363083359401,0.08925135612514781,0.23811185753103167,0.6280687662303769
-113.6596908569336,-108.0,10308.0,12412.0,-836.0,564.0,-2589.0,-0.5818263083962789,0.05624883984772327,0.1713012458242408,0.7930763507083074
-113.66747045516968,-28.0,10228.0,12032.0,-870.0,472.0,-2655.0,-0.38908875911369317,0.02696482849453025,0.09737035760092619,0.9156428610633595
-113.67527222633362,-116.0,10236.0,12376.0,-826.0,306.0,-2589.0,-0.17785517414988994,0.008145184574501682,0.026593581843352154,0.9836635473580896
-113.68304967880249,-60.0,10240.0,12576.0,-725.0,188.0,-2450.0,0.031753175350079495,-0.002437434134788662,-0.035616272255156296,0.9988579858621907
-113.69082498550415,-184.0,10456.0,12632.0,-661.0,56.0,-2214.0,0.22034503546442663,-0.002218374502585732,-0.09138317804827525,0.9711293729110165
-113.69864106178284,-136.0,10252.0,12652.0,-530.0,-29.0,-2008.0,0.38395298435105746,0.006020886841258565,-0.13473659374027966,0.9134494540130986
-113.70643520355225,-84.0,10308.0,12844.0,-472.0,-96.0,-1715.0,0.5136555577865061,0.01790007473549426,-0.17230954401956924,0.8403255180697926
-113.71420812606812,-192.0,10400.0,13112.0,-389.0,-126.0,-1544.0,0.6196623189245242,0.032713572163133246,-0.20183612651036645,0.7577668577713731
-113.72200202941895,-220.0,10488.0,13304.0,-355.0,-116.0,-1395.0,0.7053719357729086,0.04552184197338661,-0.22554455204614154,0.6704534653274865
-113.72979950904846,-464.0,10352.0,13420.0,-366.0,-64.0,-1363.0,0.779489201325048,0.05329015617745812,-0.24337534077446854,0.5747392345882889
-113.73759269714355,-240.0,10400.0,13652.0,-460.0,114.0,-1448.0,0.8492813215616932,0.04676736220588093,-0.2495062486235811,0.46290461498727314
-113.74537444114685,-252.0,10340.0,13540.0,-541.0,246.0,-1283.0,0.9019104537476392,0.02464827817518161,-0.24578406802883912,0.35431650781034907
-113.75319361686707,-204.0,10164.0,13344.0,-637.0,427.0,-1538.0,0.9494427462239733,-0.005447040422345516,-0.22581140531341176,0.2180321320899724
-113.76101231575012,-204.0,10068.0,13664.0,-695.0,615.0,-1920.0,0.9809702359020661,-0.03604641870889607,-0.18560507053669145,0.044145325500867916
-113.768798828125,-228.0,9864.0,13776.0,-674.0,742.0,-2286.0,0.976795695751464,-0.05793974709679489,-0.12870571911681836,-0.16108380531386565
-113.77655696868896,-312.0,9936.0,13624.0,-617.0,813.0,-2059.0,0.9352529376938279,-0.07418581485662394,-0.05988772271503453,-0.3408986184734852
-113.78435230255127,-252.0,9624.0,13812.0,-757.0,822.0,-2003.0,0.8580562061650041,-0.0987676744219644,0.016389206063154124,-0.5037021813290231
-113.7921290397644,-388.0,9688.0,13500.0,-298.0,760.0,-1969.0,0.7549193480988747,-0.08867622904221938,0.06812799657164176,-0.6462134944056463
-113.79991436004639,-148.0,9712.0,13348.0,-62.0,716.0,-1715.0,0.6450498696171508,-0.061525454986952395,0.10396323100369735,-0.7545309342199412
-113.80769062042236,-300.0,9736.0,13172.0,225.0,657.0,-1496.0,0.536284319706363,-0.01877239444454802,0.11665278761790535,-0.8357265418693328
-113.81547236442566,-320.0,9672.0,13084.0,507.0,565.0,-1532.0,0.41505525956950307,0.03038669175121543,0.10219613600067026,-0.9035273821277591
-113.82327771186829,-348.0,9840.0,13108.0,864.0,514.0,-1243.0,0.30721487967213634,0.0903501179545892,0.05514047761729031,-0.9457353761078009
-113.83104991912842,-380.0,9896.0,12924.0,1072.0,422.0,-869.0,0.22327593193739326,0.14859585935509056,-0.01537270836826907,-0.9632397461885774
-113.83882689476013,-428.0,9976.0,13268.0,1211.0,388.0,-789.0,0.14062147301548752,0.20407940388878132,-0.09885808802504828,-0.9637449230306667
-113.84663391113281,-272.0,9936.0,13300.0,1035.0,431.0,-790.0,0.05911672484460098,0.25784068764898277,-0.16564061950548642,-0.9500455661736368
-113.85440683364868,-368.0,9884.0,13332.0,1234.0,470.0,-777.0,-0.025956023887298847,0.3113978449760581,-0.24604426520634298,-0.917507431319932
-113.86222004890442,-420.0,9776.0,13204.0,1159.0,499.0,-843.0,-0.11316863176326801,0.363410532062504,-0.31441136347333387,-0.8696385113883335
-113.86998701095581,-236.0,9644.0,13552.0,1060.0,643.0,-929.0,-0.19779530037996768,0.4231761846024877,-0.3684204404483463,-0.8037818827223753
-113.87776303291321,-400.0,9472.0,13388.0,928.0,717.0,-940.0,-0.2725865566314572,0.4833715338100196,-0.407691827670704,-0.7251454358240665
-113.88553881645203,-340.0,9376.0,13440.0,815.0,850.0,-960.0,-0.3345384046821738,0.547017374327733,-0.43518464074725416,-0.6320366891518103
-113.89334082603455,-356.0,9264.0,13232.0,742.0,927.0,-866.0,-0.3794169383923365,0.6043287514240412,-0.45808721343930137,-0.5300807975645424
-113.90111351013184,-500.0,9144.0,13072.0,692.0,995.0,-1020.0,-0.4193507537064905,0.6618577707811644,-0.4648356999100606,-0.4123311881382613
-113.90889382362366,-660.0,9112.0,12860.0,606.0,1022.0,-692.0,-0.43470026361832126,0.6994574197799162,-0.48063817623736216,-0.301300418632644
-113.91670608520508,-696.0,9024.0,13196.0,501.0,970.0,-529.0,-0.4360948030110195,0.7240600861999891,-0.49556129882443684,-0.19994327562156727
-113.92451930046082,-808.0,9076.0,13160.0,393.0,970.0,-480.0,-0.42523871806270724,0.7430175235227646,-0.5064654745026335,-0.1029063435134367
-113.93231129646301,-1008.0,9036.0,13156.0,391.0,769.0,-427.0,-0.4189910024203644,0.7516166495210833,-0.5090423500349438,-0.01987052904129496
-113.9400839805603,-1144.0,9188.0,13244.0,362.0,768.0,-377.0,-0.40796136754794887,0.7539670659684619,-0.5113529910431088,0.06016065636761688
-113.94789910316467,-1040.0,9004.0,13120.0,359.0,1102.0,-294.0,-0.37882733714877753,0.7444592521190072,-0.5265071979437346,0.15830489909226436
-113.95567560195923,-1420.0,9336.0,13080.0,354.0,1171.0,-8.0,-0.3459616830928892,0.7128724590382653,-0.5566566299242691,0.2495130604550136
-113.96347689628601,-1444.0,9300.0,13012.0,297.0,1027.0,-314.0,-0.3062780435528688,0.6935077943228171,-0.5590224502448085,0.3357597345918938
-113.97125935554504,-1408.0,9336.0,13256.0,244.0,1313.0,-363.0,-0.24457586175603774,0.661393228116083,-0.5609117676490744,0.4337276041033923
-113.97903227806091,-1532.0,9300.0,13124.0,195.0,1387.0,-429.0,-0.17029942066206927,0.6206525420541241,-0.5538429948877185,0.5282484892337318
-113.98681163787842,-1516.0,9228.0,12980.0,107.0,1363.0,-367.0,-0.09256762521566166,0.5696015708698592,-0.5451075282002034,0.6081472419767979
-113.99463033676147,-1512.0,9340.0,12920.0,57.0,1347.0,-350.0,-0.012614954465086784,0.5105026575867025,-0.53159690649933,0.6757459792859299
-114.00241088867188,-1544.0,9384.0,12764.0,-34.0,1318.0,-401.0,0.07321754415686035,0.4481421385434515,-0.5134110602204899,0.7281599399394426
-114.01020050048828,-1512.0,9416.0,12780.0,-113.0,1525.0,-391.0,0.16927946404170519,0.3645330790003171,-0.4908183041011573,0.773018427805939
-114.01797914505005,-1452.0,9520.0,12620.0,-140.0,1102.0,-328.0,0.24190284953759897,0.30059348368224725,-0.47101674948970274,0.7932652713017978
-114.02577495574951,-1484.0,9440.0,12992.0,-229.0,867.0,-336.0,0.3058197772818327,0.24864353133535702,-0.45800325791805796,0.7967958796861456
-114.03355026245117,-1392.0,9248.0,13016.0,-317.0,667.0,-366.0,0.36394911341683606,0.20786664334413424,-0.4529644400076646,0.7868644848488743
-114.04133677482605,-1336.0,9464.0,13080.0,-366.0,468.0,-471.0,0.420598533771777,0.18231320109008128,-0.4535198098020854,0.7643157411792585
-114.0491099357605,-1200.0,9472.0,13164.0,-378.0,277.0,-491.0,0.46959440037052386,0.1691020171331055,-0.4597669773095045,0.7345065918818185
-114.05688953399658,-1144.0,9428.0,13332.0,-343.0,59.0,-477.0,0.5070212120319894,0.17019132336354162,-0.4714914671710921,0.7011848546469256
-114.06469798088074,-1100.0,9504.0,13288.0,-506.0,-141.0,-505.0,0.5386496168546651,0.17687430218394504,-0.5000137213167172,0.6546436816958319
-114.07247614860535,-1072.0,9220.0,13660.0,-202.0,-191.0,-456.0,0.5589786660336916,0.1979990529197436,-0.5127744538047732,0.620807204764326
-114.08026218414307,-1156.0,9684.0,13692.0,-33.0,-211.0,-473.0,0.5752461886114769,0.22878139688069082,-0.5159941195026322,0.5920312184065907
-114.0880651473999,-1340.0,9768.0,13576.0,-4.0,-191.0,-390.0,0.5865593917485051,0.25585169757559895,-0.5174756123867312,0.5680730405364134
-114.095862865448,-1408.0,9952.0,13996.0,12.0,-207.0,-396.0,0.5962292330015683,0.2844159113075724,-0.5180880383987898,0.5433259386202163
-114.1036467552185,-1716.0,10004.0,14024.0,50.0,-159.0,-480.0,0.6100684536874573,0.315965197513838,-0.5114227243472064,0.5161678726894162
-114.11142086982727,-1636.0,10204.0,14276.0,-26.0,-43.0,-266.0,0.6207870271029811,0.328306679569287,-0.5072576800454695,0.4995276140172034
-114.11922526359558,-1640.0,10468.0,14236.0,-140.0,72.0,-576.0,0.6523260242268587,0.34262457092027354,-0.49213477110629095,0.4635542347840615
-114.12699437141418,-1712.0,10196.0,14136.0,-250.0,138.0,-628.0,0.6900020367076563,0.34915088812283396,-0.47459487812360146,0.4204171123077251
-114.13478350639343,-1744.0,10144.0,14128.0,-419.0,497.0,-682.0,0.7459775343740825,0.3328023409216829,-0.4376081803656088,0.3758446495073638
-114.1426191329956,-1756.0,10120.0,14132.0,-550.0,495.0,-746.0,0.8020752075154556,0.3079522043496455,-0.3998837982125202,0.31927065203736105
-114.15039849281311,-1700.0,9968.0,13960.0,-630.0,188.0,-704.0,0.8423230428206187,0.2821922373418985,-0.38379305269812747,0.25211569847599774
-114.1581802368164,-1748.0,9852.0,13904.0,-665.0,70.0,-708.0,0.8735769498185542,0.2545806309500023,-0.37427101183693284,0.17881058354965662
-114.1659893989563,-1732.0,9600.0,13772.0,-637.0,-92.0,-616.0,0.8917430865041136,0.2269219427880772,-0.3761749975567684,0.10859590584624772
-114.17380619049072,-1720.0,9228.0,13924.0,-614.0,-248.0,-591.0,0.8987618625446407,0.20033680689343614,-0.3881981326371025,0.037342844777776225
-114.18158745765686,-1660.0,9412.0,13696.0,-767.0,-400.0,-756.0,0.8966727562185496,0.1663257063650527,-0.4065909014866984,-0.05475003640025802
-114.1893720626831,-1616.0,9300.0,13504.0,-366.0,-565.0,-351.0,0.8784143597011258,0.14720761452655914,-0.4427783586880558,-0.10327369449076881
-114.19717717170715,-1600.0,9292.0,13480.0,-220.0,-691.0,-167.0,0.8513219768166637,0.13038585581211085,-0.49039718843168917,-0.13327046923983496
-114.20496320724487,-1560.0,9164.0,13536.0,-243.0,-791.0,-39.0,0.8177301930556938,0.10461214594866179,-0.544304968859085,-0.15526020469013985
-114.21273350715637,-1488.0,9184.0,13316.0,182.0,-889.0,73.0,0.7724767960161616,0.10185156214207736,-0.6088199157339016,-0.1491447924387201
-114.22054958343506,-1416.0,9100.0,13556.0,332.0,-954.0,209.0,0.7187349388089816,0.10037410407574188,-0.6764627566818584,-0.12547217137127462
-114.22830724716187,-1452.0,9064.0,13288.0,485.0,-925.0,328.0,0.660542825693519,0.10090058856505534,-0.7392131462059183,-0.08406052062885751
-114.23611545562744,-1464.0,9092.0,13132.0,651.0,-904.0,459.0,0.5966448405086195,0.10167191709339717,-0.7956919901890614,-0.023494942391246817
-114.24394917488098,-1288.0,9104.0,13088.0,799.0,-793.0,532.0,0.5325151105202077,0.10413273829983177,-0.8383606557324998,0.05230144167805268
-114.2517397403717,-1468.0,9192.0,13336.0,884.0,-616.0,678.0,0.47346853581807663,0.09784809199858054,-0.8637659883473148,0.1419915978391336
-114.25951600074768,-1528.0,9248.0,13208.0,906.0,-453.0,716.0,0.4203137204436432,0.08644224837492093,-0.8722468676917744,0.23462633250468648
-114.26730275154114,-1584.0,9352.0,13344.0,841.0,-473.0,786.0,0.3598022339821856,0.06676872564170046,-0.8731467632023362,0.3220233215264003
-114.27508759498596,-1536.0,9472.0,13200.0,723.0,-24.0,789.0,0.33019659286861736,0.029901652293277504,-0.85443027801303,0.40003125035760007
-114.28285670280457,-1616.0,9448.0,13360.0,567.0,165.0,826.0,0.31100910543769594,-0.02102766026777945,-0.8287537403556172,0.4647562927869627
-114.2906448841095,-1640.0,9428.0,13224.0,427.0,12.0,891.0,0.2755334839587143,-0.07409230151786042,-0.8064414011809633,0.5179226742812525
-114.29843306541443,-1744.0,9308.0,13228.0,338.0,327.0,1053.0,0.25189283527445966,-0.15408540407679083,-0.7725401187311763,0.5621293914560118
-114.30619978904724,-1716.0,9224.0,13248.0,508.0,345.0,1232.0,0.21997953491242012,-0.24118224395555785,-0.7182403230166101,0.6144680364455686
-114.31398940086365,-1704.0,9140.0,13304.0,162.0,287.0,1029.0,0.18538066205009546,-0.31656549175106735,-0.6793022464122063,0.6355853660914506
-114.32179284095764,-1656.0,9068.0,13000.0,109.0,149.0,1506.0,0.11268907187244792,-0.4087898475929964,-0.6237157792520694,0.6566358658323539
-114.32957434654236,-1636.0,9052.0,13100.0,172.0,-102.0,1708.0,0.015182665980605298,-0.4887533981157099,-0.5477016916987525,0.6789053390527965
-114.33735847473145,-1584.0,9028.0,13108.0,228.0,-16.0,1899.0,-0.08722952704572497,-0.5703758285699755,-0.4469190691312294,0.683612294682716
-114.34516310691833,-1744.0,8908.0,13300.0,350.0,-469.0,1997.0,-0.20399241194005754,-0.6128897349346096,-0.3177360624955302,0.6941160301221247
-114.352956533432,-1384.0,8840.0,13064.0,439.0,-655.0,2118.0,-0.32089739638355946,-0.6275964772950998,-0.16291225419968908,0.6903673805392385
-114.36075592041016,-1336.0,8872.0,13392.0,589.0,-826.0,2235.0,-0.42549789455353887,-0.6120960575526603,0.017860659999210177,0.6663114548643063
-114.36855149269104,-1176.0,8896.0,13344.0,520.0,-960.0,2405.0,-0.5224880299201294,-0.5570506730317069,0.20690246294778314,0.6114672330478926
-114.37632632255554,-1124.0,8920.0,13476.0,978.0,-978.0,2485.0,-0.5726272790573756,-0.4895409532020039,0.4120199843127027,0.5125301814960559
-114.38411045074463,-964.0,9068.0,13392.0,1190.0,-930.0,2543.0,-0.5830826159124848,-0.40265188077085784,0.6006250604702518,0.3703183261296298
-114.39191913604736,-840.0,9184.0,13324.0,1379.0,-926.0,2599.0,-0.5505712131341504,-0.2960767749967039,0.7566456900976289,0.19156508615148013
-114.39970302581787,-720.0,9388.0,13164.0,1533.0,-813.0,2707.0,-0.4839136348908284,-0.17077862522450452,0.858101618186625,-0.01799633292284227
-114.40748357772827,-628.0,9460.0,13132.0,1598.0,-793.0,2722.0,-0.38140359843593596,-0.03429905455882479,0.8942573960499441,-0.23164321610283187
-114.41527056694031,-700.0,9680.0,13112.0,1716.0,-753.0,2849.0,-0.24913158118954876,0.110914632668622,0.8560267613810941,-0.43914642582329566
-114.42304801940918,-696.0,9904.0,13064.0,1686.0,-821.0,2861.0,-0.09051119220248588,0.24582883923680926,0.7488520104339583,-0.6087664349769841
-114.43083429336548,-560.0,10008.0,13020.0,1705.0,-832.0,3062.0,0.08586714729640127,0.3704173554119018,0.5714700451142636,-0.7272137260544059
-114.43861603736877,-752.0,10136.0,12976.0,1665.0,-880.0,2730.0,0.23944120498462274,0.4449268857321756,0.35617033548443594,-0.7860347752034154
-114.4464042186737,-692.0,10224.0,13024.0,1576.0,-922.0,2714.0,0.3780752667772027,0.47974593168952695,0.11846506159575142,-0.7828594783610974
-114.45418286323547,-688.0,10296.0,12988.0,1541.0,-857.0,2639.0,0.4845756118920016,0.4810712796226933,-0.12123756938382087,-0.7204570438628385
-114.46203637123108,-624.0,10408.0,12788.0,1494.0,-808.0,2476.0,0.5505089747076314,0.45177862111933437,-0.34188118723762223,-0.6131502263547319
-114.46984767913818,-648.0,10252.0,12792.0,1509.0,-744.0,2467.0,0.5815133452896264,0.39741783075138387,-0.5376402740104724,-0.4635129262629857
-114.47761249542236,-548.0,10572.0,12688.0,1506.0,-700.0,2341.0,0.5735068711707746,0.3255738360724672,-0.6937606993175154,-0.2894609439413865
-114.48539686203003,-464.0,10592.0,12532.0,1513.0,-741.0,2335.0,0.5282972013553698,0.23392454916422073,-0.8101699231634784,-0.09902559234704736
-114.49319767951965,-160.0,10560.0,12364.0,1512.0,-856.0,2286.0,0.44303125849007413,0.1305719453289502,-0.8820683450771338,0.0928962093230998
-114.50096702575684,-56.0,10452.0,12032.0,1607.0,-973.0,2282.0,0.3208576121494783,0.024137413717387826,-0.9030856668663946,0.2844363835469185
-114.50873684883118,212.0,10316.0,11980.0,1737.0,-1139.0,2390.0,0.16204088173144615,-0.08416731497532783,-0.8644732213936404,0.46834246575646066
-114.51653456687927,336.0,10172.0,11732.0,1950.0,-1307.0,2556.0,-0.025590140156577252,-0.18760450411274207,-0.7507463604064557,0.632874076811366
-114.52430438995361,324.0,10076.0,11544.0,2117.0,-1586.0,2731.0,-0.23324049728201648,-0.26924524935021615,-0.5556583345640598,0.751232108844845
-114.53207969665527,400.0,9728.0,11532.0,2050.0,-1913.0,2958.0,-0.4445691026162335,-0.3099642001864907,-0.29453529244337234,0.7871019432748487
-114.53987002372742,308.0,9984.0,11580.0,2440.0,-2197.0,3188.0,-0.6074360999475331,-0.3116739943043216,0.04162909424976783,0.7294845606775129
-114.54762864112854,312.0,10048.0,11564.0,2560.0,-2400.0,3284.0,-0.6807071080333728,-0.2605503731200851,0.38860823050944754,0.5636798553435655
-114.55543613433838,336.0,10264.0,11992.0,2595.0,-2311.0,3408.0,-0.6544717163173159,-0.17067485441897917,0.6727399284956675,0.29992975047062465
-114.5632746219635,400.0,10284.0,12092.0,2590.0,-2632.0,3399.0,-0.5041625492957058,-0.045960176393350295,0.8623609542308445,-0.006432005256093798
-114.57105946540833,512.0,10500.0,12528.0,2618.0,-2809.0,3461.0,-0.25553035662323526,0.08909901067846875,0.9100322078730337,-0.31401748959867154
-114.57885146141052,540.0,10888.0,12696.0,2601.0,-2352.0,3451.0,0.005187628762967598,0.22120574857134498,0.7942074566989515,-0.5659289893887675
-114.58663320541382,696.0,10960.0,12840.0,2517.0,-2303.0,3411.0,0.2624484838553803,0.31800188114621575,0.5556466327832307,-0.7219781273599206
-114.59442138671875,876.0,10940.0,12944.0,2379.0,-1691.0,3270.0,0.45256801234264427,0.3964866655507823,0.25784650573518186,-0.7559733445861746
-114.60219860076904,992.0,10916.0,12852.0,2274.0,-1394.0,3177.0,0.5782131074165342,0.4379287796530396,-0.053994934364542745,-0.6862743863982422
-114.60998439788818,892.0,10732.0,12712.0,2235.0,-1116.0,3155.0,0.6383584667280753,0.4423155126319602,-0.3443276680245537,-0.5275356976304824
-114.61775755882263,920.0,10636.0,12436.0,2250.0,-843.0,3158.0,0.6347031364233193,0.4099108202567938,-0.5827920728909536,-0.2991294833784682
-114.62554454803467,640.0,10576.0,12128.0,2293.0,-618.0,3293.0,0.5724375230792819,0.3329843773709227,-0.748997339833302,-0.020968345676106816
-114.63334703445435,732.0,10580.0,11872.0,2367.0,-451.0,3311.0,0.45229407414364226,0.22032928746139135,-0.8211711587347419,0.2693752097791153
-114.64116168022156,464.0,10576.0,11496.0,2353.0,-298.0,3317.0,0.2899478646455423,0.0777208163048152,-0.7926558781041083,0.5306471232442596
-114.64894199371338,496.0,10424.0,11116.0,2281.0,-152.0,3085.0,0.11483009038222806,-0.06726583694256798,-0.6748328726884169,0.7258718560891615
-114.65672564506531,500.0,10400.0,11108.0,2259.0,-68.0,3342.0,-0.08267682285543124,-0.22369930642314548,-0.4835535429138094,0.8421989874155859
-114.66455245018005,500.0,10456.0,11128.0,2245.0,-41.0,3542.0,-0.2826472299392415,-0.3628164877264726,-0.23372157514844946,0.8566498496770005
-114.67234206199646,472.0,10624.0,11020.0,2232.0,-121.0,3779.0,-0.46414448967419997,-0.45366891285050687,0.05233792030414859,0.7589566208396579
-114.68012499809265,744.0,10676.0,11132.0,2254.0,-136.0,4056.0,-0.5959779125500869,-0.4793962798912526,0.34100792228754156,0.5465374017539906
-114.68789887428284,448.0,10704.0,11232.0,2233.0,-13.0,4308.0,-0.6517451335624816,-0.4296063209032067,0.5786622762844633,0.23625549712740543
-114.6956684589386,424.0,10648.0,11188.0,2193.0,-359.0,4593.0,-0.5903190632853027,-0.2877107626951105,0.7458363641172551,-0.11168723522280419
-114.70344305038452,384.0,10660.0,11124.0,2095.0,-474.0,4786.0,-0.41850658040114574,-0.08067111129696027,0.7910020197513448,-0.43893076756174876
-114.71124482154846,368.0,10580.0,11484.0,2018.0,-492.0,4946.0,-0.16381992416438393,0.15236391431504276,0.6941150041890801,-0.6842168011829051
-114.71901297569275,164.0,10424.0,11652.0,1956.0,-457.0,5070.0,0.12700005324565322,0.3650254758715597,0.46618773916399886,-0.7957992085278182
-114.72677755355835,152.0,10248.0,11712.0,1846.0,-349.0,5201.0,0.39959755548075654,0.5158895274057879,0.15149403142513848,-0.7424482120723275
-114.73452949523926,28.0,10144.0,11828.0,1729.0,-189.0,5176.0,0.595566321866414,0.5707465934303071,-0.18088990672228142,-0.5355631839402473
-114.74230813980103,-4.0,10108.0,11868.0,1601.0,-249.0,5172.0,0.6813677650760653,0.5066515997563276,-0.4758004949019161,-0.22946898315609815
-114.75008821487427,-76.0,10084.0,11948.0,1445.0,237.0,5129.0,0.6619409340324895,0.3483662867130687,-0.6503502990101981,0.13236169654129284
-114.7578911781311,-88.0,9948.0,12004.0,1526.0,473.0,5004.0,0.5314918104879586,0.13364372343161257,-0.6885439928895195,0.4749347117523879
-114.7656762599945,-16.0,9960.0,12032.0,1098.0,597.0,4888.0,0.3221596664380205,-0.12255991352381436,-0.6152472065644451,0.7089873706436707
-114.77345967292786,128.0,9864.0,12232.0,1067.0,831.0,4837.0,0.07225427948875006,-0.3697476260687906,-0.43410277952254006,0.8183036043687334
-114.7812385559082,76.0,9796.0,12220.0,1089.0,928.0,4767.0,-0.18156910925561565,-0.5592439007286466,-0.1801952152389346,0.7885484147894306
-114.78902053833008,532.0,9524.0,12404.0,1197.0,975.0,4900.0,-0.4061792353666513,-0.6590490035021999,0.11503322407841358,0.6224469431990532
-114.79678773880005,740.0,9684.0,12580.0,1467.0,942.0,5054.0,-0.5491017300721942,-0.6446116683803679,0.4097172807054154,0.3392562997365883
-114.80457711219788,1120.0,9576.0,12628.0,1862.0,1018.0,5347.0,-0.5712307426753198,-0.5117844462219665,0.6406553933582769,-0.03650734431356815
-114.81235337257385,1080.0,9560.0,12688.0,2298.0,497.0,5406.0,-0.4261452766774807,-0.28671945835948215,0.7558069653682276,-0.4061378909488615
-114.82013320922852,1572.0,9712.0,12932.0,2562.0,299.0,6067.0,-0.14452725198994915,0.024993550092304265,0.6982825579806697,-0.7006344732497751
-114.8279070854187,1660.0,9752.0,12612.0,3320.0,151.0,6450.0,0.19724024374411586,0.32565222769166297,0.4048010804903767,-0.8313741625050917
-114.83568501472473,1788.0,9864.0,12552.0,3829.0,54.0,6765.0,0.4778328920190631,0.5250014168615537,-0.053456052343674954,-0.7022760782383876
-114.84345817565918,2008.0,10072.0,12856.0,4127.0,70.0,6885.0,0.58242846508735,0.5479737685990893,-0.5070413180062635,-0.32157570464476376
-114.85127520561218,2012.0,10316.0,12756.0,4339.0,237.0,6848.0,0.4715290766921298,0.38528815962438456,-0.7707166349958837,0.18764123328241109
-114.85904788970947,1920.0,10672.0,12504.0,4361.0,572.0,6699.0,0.2078977970794656,0.08582768768132583,-0.7382982014171953,0.6358678162801737
-114.86685132980347,1832.0,10816.0,12492.0,4253.0,955.0,6421.0,-0.09833536969930914,-0.2515148106911321,-0.441219064228839,0.8558014912525754
-114.87462830543518,1776.0,11176.0,12156.0,4348.0,1277.0,6018.0,-0.33694926069104825,-0.5146423321840753,0.004102902409112078,0.7884108268128445
-114.88240718841553,1608.0,11340.0,11956.0,3982.0,1513.0,5699.0,-0.46799283749972564,-0.623250310637772,0.41606783454667795,0.46843282484739923
-114.89017820358276,1452.0,11360.0,11804.0,3803.0,1686.0,5272.0,-0.4641583655132017,-0.5659132487479073,0.6810988709063875,0.02008817228486705
-114.89800429344177,1424.0,11192.0,11652.0,3679.0,1742.0,4866.0,-0.3452311731818635,-0.3750535023623931,0.7499914902752534,-0.42150097502127004
-114.90579962730408,1596.0,11148.0,11604.0,3624.0,1682.0,4854.0,-0.1386822446104287,-0.09171173372291219,0.6354349434615615,-0.7540415277392573
-114.91357016563416,1564.0,11016.0,11656.0,3724.0,1338.0,4408.0,0.0950574227437127,0.173886365401686,0.36356830468378515,-0.9102448605392249
-114.9213457107544,1652.0,10864.0,11548.0,3990.0,999.0,4154.0,0.29648472546176374,0.37244320322731056,-0.007495699174645532,-0.8793899490166612
-114.92911434173584,2172.0,10912.0,11812.0,4440.0,216.0,4033.0,0.4091656421018819,0.44386906834104445,-0.41985541046571534,-0.6777058077042529
-114.93688631057739,3016.0,10908.0,12064.0,4943.0,-919.0,3807.0,0.3585705452975676,0.3735109337934295,-0.7819267902000334,-0.3471415289896016
-114.94469618797302,3872.0,10980.0,12544.0,5572.0,-1622.0,3669.0,0.15221949776800173,0.21299257487776588,-0.9616733218245181,0.08153410106938754
-114.95246744155884,4668.0,11648.0,13004.0,6314.0,-2752.0,3443.0,-0.18313125210521183,0.022785752863199563,-0.8443211279495144,0.5030562462259007
-114.96023797988892,5624.0,12140.0,13480.0,7001.0,-3518.0,3338.0,-0.4838613293703717,-0.14498668218527944,-0.39102397366120833,0.7693876317897502
-114.96804547309875,6148.0,13552.0,13644.0,7811.0,-4085.0,3360.0,-0.5790419897362253,-0.2433201711957775,0.2692382968164069,0.7300797271113415
-114.97582602500916,6996.0,15064.0,13696.0,8400.0,-4467.0,3248.0,-0.3778798565721758,-0.23051330288625582,0.8262995886987432,0.34828066398487983
-114.98359513282776,7508.0,16496.0,13160.0,8661.0,-4745.0,2900.0,0.037488242574565005,-0.12107941332816356,0.9703723571102841,-0.20569855588459862
-114.99140191078186,8116.0,18044.0,12420.0,7762.0,-4780.0,2375.0,0.43799058657098017,0.015189674181206737,0.6491827582598341,-0.621687434529307
-114.99916934967041,8132.0,19584.0,11152.0,6550.0,-4622.0,1686.0,0.6367001368717539,0.08976164859470544,0.09329054140647541,-0.7601662035588911
-115.00695610046387,8008.0,20816.0,10708.0,4449.0,-4234.0,1085.0,0.6220717717768225,0.057080800515694086,-0.3916251929104365,-0.6755724988843135
-115.0147750377655,7264.0,20984.0,9548.0,2581.0,-3810.0,407.0,0.4664082842179342,-0.038143668473475736,-0.6981505244484376,-0.5418433520683259
-115.0225522518158,6616.0,20624.0,9052.0,856.0,-2955.0,-446.0,0.25872130097912577,-0.11170650025051174,-0.8303154566906593,-0.48079225097960226
-115.03034234046936,5812.0,19696.0,8828.0,-267.0,-2808.0,-1446.0,-0.00778314168292368,-0.12599564407960653,-0.8640802193911413,-0.48726778555068223
-115.03814339637756,5428.0,17844.0,9116.0,-1524.0,-2497.0,-2478.0,-0.3018068989044508,-0.04197499689103537,-0.7820939074986486,-0.5435805508507194
-115.04596090316772,5524.0,16376.0,9932.0,-2017.0,-2801.0,-3290.0,-0.6060833395241468,0.09489271987743163,-0.5766101122572127,-0.5396101701304802
-115.05371809005737,6128.0,14176.0,11216.0,-2057.0,-3245.0,-3741.0,-0.8409958549234341,0.21645138254155613,-0.2508727526509653,-0.42771209121882253
-115.06150770187378,6556.0,12280.0,11840.0,-2413.0,-3605.0,-4350.0,-0.9137241835400891,0.3119810165246147,0.16399080389052986,-0.20219539554995702
-115.06932950019836,6936.0,11104.0,12716.0,-2386.0,-3653.0,-4250.0,-0.769560186778294,0.332637358526697,0.5414310071066979,0.06310286191264305
-115.0771222114563,7584.0,9884.0,13396.0,-2252.0,-3536.0,-4436.0,-0.4524925536181359,0.2591120260298338,0.7901721494968992,0.32208604602854707
-115.08490371704102,7768.0,9412.0,13956.0,-2185.0,-3170.0,-4581.0,-0.04935978389863297,0.1050447386738001,0.8486933878546963,0.5159929728418318
-115.09271478652954,8124.0,8836.0,14192.0,-2144.0,-2695.0,-4736.0,0.34123389912179286,-0.10255636924156195,0.7186497140441703,0.5971467204317197
-115.10052609443665,8588.0,8668.0,14144.0,-2135.0,-2140.0,-4736.0,0.6313730199300641,-0.3156958490743423,0.4499479880587767,0.5470384343201855
-115.10831093788147,8840.0,8920.0,13964.0,-2130.0,-1398.0,-4434.0,0.7664595496599452,-0.4934158864947459,0.1360068375188476,0.3880498187575918
-115.11609101295471,9092.0,9028.0,13368.0,-1940.0,-689.0,-4076.0,0.7703008114897019,-0.6020579653518437,-0.1406463494709754,0.15614567094605278
-115.12389898300171,9020.0,9956.0,12460.0,-1609.0,-88.0,-3147.0,0.6952792012907102,-0.6404878394448849,-0.31907361210320784,-0.06748473779445915
-115.13167309761047,8224.0,10444.0,11632.0,-1430.0,185.0,-2790.0,0.582602329857925,-0.625301692018138,-0.43923196782209273,-0.27685302535190665
-115.13945364952087,7428.0,10964.0,10708.0,-1447.0,162.0,-1999.0,0.45114872372217907,-0.6043019148759036,-0.49378022779107866,-0.4329724141371545
-115.14725518226624,6904.0,11448.0,10096.0,-1607.0,-173.0,-1786.0,0.28517609387169457,-0.5842530045236197,-0.5226465933019114,-0.5515102543916226
-115.15503692626953,6284.0,11860.0,9828.0,-1698.0,-720.0,-1080.0,0.11177572818951151,-0.60141673895718,-0.5051798342168746,-0.6087671375743166
-115.16281151771545,5616.0,12108.0,9484.0,-1583.0,-1132.0,-794.0,-0.06245247861612001,-0.6313477485043866,-0.4659932762018345,-0.6167252021020592
-115.17062377929688,4652.0,12524.0,9652.0,-1945.0,-1862.0,-610.0,-0.2705510289930487,-0.6766821089185707,-0.3740229471246048,-0.5735941938378937
-115.17839550971985,4160.0,12740.0,10184.0,-2162.0,-2470.0,-712.0,-0.49384948046034466,-0.6966026509979225,-0.2393946087699722,-0.4621121709753882
-115.18617129325867,3624.0,12892.0,10248.0,-2527.0,-2925.0,-1198.0,-0.7138297416789403,-0.6416258002322786,-0.07938637221673803,-0.26918624830613264
-115.19397449493408,3912.0,13076.0,10876.0,-2834.0,-3080.0,-2030.0,-0.8725055474938066,-0.48473556360023384,0.06064532913494154,0.009361999135399073
-115.20174717903137,4240.0,13220.0,10920.0,-3717.0,-2939.0,-3193.0,-0.9053206958119592,-0.1932854164124537,0.13110134937577061,0.35475008347943543
-115.2095239162445,4464.0,13096.0,11092.0,-4522.0,-2431.0,-4600.0,-0.6953030576343819,0.15969778675660629,0.09066478236475381,0.6948598219699228
-115.21730780601501,4640.0,12876.0,11076.0,-5151.0,-2041.0,-6134.0,-0.19089431100804405,0.44386480601217576,-0.009829740007416736,0.8754694581879623
-115.22509741783142,4892.0,12516.0,11140.0,-6214.0,-1232.0,-7663.0,0.47915605735116773,0.48940131290477584,-0.12615607749423804,0.717621398609346
-115.23289275169373,5300.0,12004.0,11008.0,-6738.0,-286.0,-8852.0,0.9456717553704908,0.23163382243842617,-0.13039889116838496,0.18720799282913608
-115.24075603485107,5632.0,11468.0,10936.0,-6932.0,225.0,-9639.0,0.865131655850357,-0.16255600483862623,-0.020997030187096706,-0.4740062109929005
-115.24855422973633,5868.0,10904.0,10620.0,-6794.0,593.0,-10017.0,0.24423023410427336,-0.43451779877484387,0.11164747017527468,-0.8596980386744506
-115.25634789466858,6068.0,10392.0,10124.0,-6462.0,833.0,-9874.0,-0.5217292104550257,-0.4215128582520761,0.16667460554380803,-0.7227344720939749
-115.26413130760193,6520.0,10260.0,9916.0,-5723.0,751.0,-9377.0,-0.9623599570531819,-0.18021811203052895,0.10687327750369391,-0.17309779811530804
-115.27191591262817,6552.0,9816.0,9692.0,-4894.0,517.0,-8352.0,-0.8935155928638725,0.12245453323986362,0.004685452035192827,0.4319870589929234
-115.27970099449158,6452.0,9844.0,9528.0,-4089.0,72.0,-7312.0,-0.4635321565007508,0.3514865448030437,-0.061912241352047016,0.8110252912720709
-115.2874915599823,6584.0,9612.0,9684.0,-3060.0,-452.0,-6150.0,0.05424306586603897,0.4632176055325484,-0.06112363243233744,0.8824687197223602
-115.29527974128723,6268.0,9600.0,9884.0,-1867.0,-1120.0,-4939.0,0.4561779077128175,0.5128253746391522,-0.009320433630130113,0.7272035348909655
-115.30308842658997,5980.0,9480.0,10436.0,-1071.0,-1938.0,-3723.0,0.6912151242412123,0.5575385706620798,0.011558579301287904,0.45960721653258013
-115.31088209152222,5556.0,9832.0,10820.0,-766.0,-2333.0,-2980.0,0.8059692292116011,0.5702090606940128,-0.01411169951256867,0.15835431349785395
-115.31868004798889,5232.0,10156.0,11424.0,-193.0,-3326.0,-2004.0,0.7947801310286197,0.5728188891050111,-0.14308025643411681,-0.1404674475648305
-115.3264479637146,5120.0,10408.0,12156.0,-143.0,-3547.0,-1596.0,0.6989582969274278,0.5105088065899103,-0.2912911854417314,-0.40741563891731786
-115.33424019813538,5012.0,10640.0,12480.0,-472.0,-3615.0,-1439.0,0.5459667680964456,0.3685824449585105,-0.4077343514937303,-0.6323131882340551
-115.34203362464905,4996.0,10892.0,12956.0,-795.0,-3549.0,-1637.0,0.335275139237707,0.18215799573734093,-0.4535674831479213,-0.8054101960050862
-115.34986710548401,5012.0,11108.0,12824.0,-1763.0,-2699.0,-2039.0,0.10743560464705458,0.020244757997376506,-0.3568324408640629,-0.9277490769463177
-115.35765171051025,5136.0,11036.0,12864.0,-2702.0,-1996.0,-2639.0,-0.15319122337177557,-0.07947621802943591,-0.14254544658213383,-0.9746264799954372
-115.36545944213867,5176.0,10776.0,12820.0,-3555.0,-972.0,-3222.0,-0.42666591965732864,-0.06873205798453491,0.13812588713245033,-0.891152813221195
-115.37324547767639,5288.0,10600.0,12520.0,-3869.0,177.0,-3769.0,-0.6740225389423408,0.039324428862405905,0.37045716519246263,-0.6378939528243944
-115.38102865219116,5284.0,10144.0,12360.0,-4393.0,970.0,-4128.0,-0.8121460112428027,0.19248910079110162,0.504794389963278,-0.2203393436511977
-115.38880276679993,5276.0,9836.0,12204.0,-4299.0,1443.0,-4281.0,-0.7781168139263506,0.29528682267164486,0.4892390307946992,0.2607395002462287
-115.39658403396606,5256.0,9656.0,12092.0,-3902.0,1764.0,-4208.0,-0.5820532312729798,0.3013916798269984,0.34457733336867374,0.6720443085275533
-115.40435695648193,5356.0,9688.0,11852.0,-3352.0,1937.0,-3948.0,-0.2886451821635041,0.215302404498673,0.13818661497148396,0.9226230502613786
-115.41214108467102,5312.0,9732.0,11844.0,-2636.0,1997.0,-3602.0,0.02473477403222803,0.0711296703957102,-0.05186399472823788,0.995810668246631
-115.41991114616394,5208.0,10020.0,11780.0,-2080.0,1887.0,-3243.0,0.30723072853277783,-0.07732355369924515,-0.1949061174972364,0.9282467090438253
-115.42769813537598,4948.0,10440.0,11552.0,-1619.0,1735.0,-2898.0,0.5329080661573223,-0.20134141736462483,-0.2840910768109518,0.7712087180228585
-115.43547177314758,4632.0,10792.0,11268.0,-1334.0,1574.0,-2714.0,0.7008978148286075,-0.2893312178724402,-0.333767654317523,0.5600257605363456
-115.44326376914978,4040.0,11092.0,11640.0,-1327.0,1387.0,-2519.0,0.8009881190536378,-0.351576070376416,-0.3636703248733941,0.3202439611922019
-115.45104646682739,3768.0,11312.0,11756.0,-1435.0,1367.0,-2447.0,0.8377758350598707,-0.3975354483345516,-0.36954695806626153,0.05943284690435238
-115.45881533622742,3180.0,11360.0,11916.0,-1637.0,1388.0,-2434.0,0.8067152134941669,-0.42889481748288033,-0.3473081986282673,-0.2112742649235245
-115.46663999557495,2772.0,11288.0,11876.0,-1880.0,1474.0,-2449.0,0.7051353948193848,-0.44045546348810494,-0.2879601995969677,-0.4752493904303965
-115.47442746162415,2376.0,11212.0,11832.0,-2076.0,1608.0,-2502.0,0.5357494948236661,-0.41799436335727885,-0.1898080842205359,-0.7086791108550187
-115.48220109939575,2092.0,11016.0,12136.0,-2363.0,1601.0,-2688.0,0.2930735246116353,-0.3639874998772121,-0.06332675223569444,-0.8818223922968438
-115.48999977111816,2196.0,10656.0,12312.0,-2586.0,1584.0,-2870.0,-0.0012019090607837295,-0.274501399360721,0.07973167191918468,-0.9582746984328592
-115.49780464172363,2436.0,10240.0,12416.0,-2782.0,1787.0,-2947.0,-0.30485067996676624,-0.1354044687279383,0.2251027537355578,-0.9154564124156725
-115.50557255744934,2720.0,10068.0,12504.0,-2883.0,1448.0,-2962.0,-0.5642985139019766,-0.0011718902529252737,0.3564920923546145,-0.7446336024984939
-115.51334834098816,2960.0,9808.0,12544.0,-2876.0,1284.0,-2934.0,-0.7445348843773234,0.12404476137742292,0.449031499242779,-0.4781750890707775
-115.52114582061768,3072.0,9744.0,12428.0,-2789.0,1131.0,-2895.0,-0.826424572441177,0.22444014377177812,0.49152279384459735,-0.1582857891925953
-115.52891683578491,3192.0,9756.0,12416.0,-2610.0,905.0,-2802.0,-0.806677323648969,0.28831577010346193,0.4890677046354312,0.16419041538048076
-115.53669595718384,3436.0,9828.0,12312.0,-2448.0,809.0,-2749.0,-0.703191092096107,0.3149596187905242,0.44279536810036124,0.4585357003733488
-115.54446721076965,3492.0,9940.0,12268.0,-2224.0,775.0,-2702.0,-0.5381434967777797,0.3014045544610468,0.36309698240092675,0.6983677060097084
-115.55224847793579,3464.0,10128.0,12284.0,-2022.0,641.0,-2656.0,-0.3291425962109002,0.26161359259751,0.2680582919454979,0.8668149927447231
-115.56006932258606,3452.0,10296.0,12476.0,-1855.0,587.0,-2637.0,-0.09704735829197078,0.20048595257950674,0.16457320505043058,0.9608864934248305
-115.56789803504944,3444.0,10588.0,12788.0,-1611.0,607.0,-2617.0,0.1369212520740956,0.12104665992458145,0.06791657268299339,0.9808096736913641
-115.57569289207458,3308.0,10708.0,12964.0,-1422.0,682.0,-2626.0,0.3600506601152795,0.029152127415603295,-0.01698778896335534,0.9323224177524814
-115.58347487449646,3124.0,10812.0,13164.0,-1335.0,955.0,-2772.0,0.5683903742677276,-0.08299143651901203,-0.08497689039657105,0.8141398725052301
-115.5912652015686,2936.0,10812.0,13352.0,-1330.0,1170.0,-2922.0,0.742780027989004,-0.20143055816008398,-0.13646080633662494,0.6237643854805512
-115.5990400314331,2772.0,10788.0,13356.0,-1490.0,1456.0,-3157.0,0.8602269756259915,-0.3223479760444104,-0.16956284857015314,0.3568609997326799
-115.60682415962219,2772.0,10692.0,13372.0,-1714.0,1786.0,-3467.0,0.8871917457026519,-0.42661456169176176,-0.17465889072625387,0.01962381206344793
-115.61463212966919,2400.0,10560.0,13356.0,-2005.0,2138.0,-3840.0,0.7848752252736624,-0.4854269443554389,-0.14329585155420935,-0.3574882674616238
-115.62241673469543,2160.0,10432.0,13232.0,-2379.0,2463.0,-4157.0,0.52960860711059,-0.47003061633049176,-0.06923115994186585,-0.7027040554027439
-115.63018536567688,2068.0,10264.0,13060.0,-2707.0,2730.0,-4374.0,0.14864803384471473,-0.357556143812452,0.03873427125059788,-0.9211715487827199
-115.63799595832825,1880.0,10216.0,13004.0,-3000.0,2560.0,-4434.0,-0.27543209116777245,-0.18246021049776087,0.15499959295741933,-0.9310319870568868
-115.64579653739929,1756.0,10024.0,12888.0,-3202.0,2731.0,-4415.0,-0.6374898267760447,0.050045676445450556,0.24621489390778814,-0.7283408385118485
-115.65358519554138,1716.0,10024.0,12736.0,-3289.0,2485.0,-4254.0,-0.8412704017269533,0.2659897007010854,0.2979359183056998,-0.3643456859665789
-115.66136240959167,1760.0,9972.0,12328.0,-3319.0,2110.0,-3971.0,-0.8497683024066578,0.4254362317799647,0.3061656424268193,0.05621782912158907
-115.66918992996216,1744.0,9840.0,12476.0,-3242.0,1587.0,-3704.0,-0.6869422349621093,0.5094626177044214,0.28260734516276076,0.43438611332209615
-115.6769654750824,1844.0,9628.0,12624.0,-3325.0,1098.0,-3383.0,-0.40303537996131916,0.5370962902526369,0.22194065115216313,0.7069882635959696
-115.68474173545837,1568.0,9680.0,12424.0,-2855.0,564.0,-3096.0,-0.08347108064216471,0.5087156791408742,0.16042725023993953,0.8417268166531944
-115.6925437450409,2020.0,9036.0,12508.0,-2600.0,160.0,-2865.0,0.22764968311199094,0.4505494685626316,0.09050126622795661,0.8584814028085156
-115.70031476020813,1644.0,8876.0,12632.0,-2312.0,-200.0,-2773.0,0.5035422141211083,0.3790534302304044,0.02142502176629409,0.7760829234501231
-115.70809388160706,1508.0,8776.0,12640.0,-1998.0,-464.0,-2645.0,0.719687024957254,0.30481007729534704,-0.044711017745214805,0.6222076243341673
-115.71589183807373,1332.0,8628.0,12632.0,-1633.0,-638.0,-2642.0,0.8714306022182774,0.23818266250923914,-0.09914974938593846,0.41718946774122423
-115.72366547584534,1264.0,8584.0,12660.0,-1414.0,-802.0,-2736.0,0.9573015922238127,0.17691947941827968,-0.14881398219333428,0.1735729184863803
-115.73145174980164,1048.0,8612.0,12640.0,-1165.0,-917.0,-2846.0,0.969216515671389,0.12580828868622912,-0.19151227145955027,-0.09008146384277937
-115.73925375938416,880.0,8644.0,12708.0,-954.0,-970.0,-2931.0,0.9051312853695561,0.08348338584599352,-0.22491876872313082,-0.3509692693228494
-115.74702334403992,724.0,8800.0,12892.0,-915.0,-1044.0,-3062.0,0.7652371217219637,0.03802393477405801,-0.24652853767212832,-0.5934559866040824
-115.75479626655579,632.0,8980.0,12920.0,-875.0,-1115.0,-3172.0,0.554880574687976,-0.009184714323197814,-0.25368470210633265,-0.7922545429178453
-115.76255440711975,556.0,9204.0,12884.0,-892.0,-1132.0,-3295.0,0.2874024727619033,-0.05474475082139058,-0.2380526432140563,-0.9261391741885495
-115.77035188674927,548.0,9400.0,12972.0,-996.0,-1153.0,-3441.0,-0.018508641291518198,-0.09609967891928364,-0.1929313137141473,-0.9763195122999877
-115.77813744544983,288.0,9596.0,13120.0,-1162.0,-1149.0,-3541.0,-0.33070408215041563,-0.1252798674470729,-0.11553761628319018,-0.9282191681306162
-115.78596472740173,628.0,9476.0,13008.0,-1337.0,-1118.0,-3607.0,-0.6124406229535235,-0.13300789943259395,-0.013906381314212249,-0.7791225799600296
-115.7937319278717,644.0,9840.0,12880.0,-1486.0,-1170.0,-3709.0,-0.8302189706752436,-0.12102565527035604,0.09991741221398483,-0.5348885512270576
-115.80156016349792,704.0,9916.0,12684.0,-1709.0,-1158.0,-3690.0,-0.9479885728777434,-0.07846157220225491,0.21048843997051195,-0.22551289102743052
-115.80936121940613,976.0,9920.0,12608.0,-1876.0,-1318.0,-3713.0,-0.9436371294108589,-0.016486720093590212,0.3091645414048725,0.11702325579005418
-115.81717324256897,1216.0,9852.0,12384.0,-2030.0,-1528.0,-3613.0,-0.810341345503676,0.0639714350281562,0.3815569485956549,0.4400782365058553
-115.82494950294495,1492.0,9652.0,12360.0,-2079.0,-1827.0,-3431.0,-0.5656919280561429,0.15556058096466205,0.4199575358717421,0.6924082728034052
-115.83273363113403,1596.0,9372.0,12188.0,-1925.0,-2246.0,-3204.0,-0.2463319263511464,0.25109603177672907,0.4279834082279381,0.8325272170732386
-115.84054946899414,1732.0,9160.0,12216.0,-1702.0,-2313.0,-2986.0,0.08878175089863873,0.32351150815439855,0.39440658033436377,0.8555124512173927
-115.84833073616028,1764.0,8956.0,12132.0,-1356.0,-2967.0,-3034.0,0.42485352794253717,0.4006907311642292,0.33156207241787244,0.7409541213110434
-115.856112241745,1848.0,8924.0,12260.0,-973.0,-3327.0,-2796.0,0.6860720915525677,0.46480538401277804,0.22644391046025195,0.5118439172256406
-115.8639166355133,1860.0,8540.0,12516.0,-584.0,-3366.0,-2521.0,0.8336181207506212,0.4971691307509562,0.09467455034934398,0.2212248035385974
-115.87173819541931,1792.0,8508.0,12764.0,-495.0,-3825.0,-2103.0,0.8659432091053999,0.4831396450270911,-0.09525094745062872,-0.08743968788310787
-115.87950825691223,1672.0,8524.0,12824.0,48.0,-3878.0,-1964.0,0.7636785442000609,0.4425082325191947,-0.28600225246112404,-0.3730740635160494
-115.88728189468384,1468.0,8672.0,13540.0,321.0,-3800.0,-1844.0,0.5594664649921982,0.362074483763071,-0.44875335498690533,-0.59541562722592
-115.89505457878113,1336.0,8716.0,13584.0,553.0,-3840.0,-1859.0,0.27621722568428003,0.24547109301418657,-0.5674567207051948,-0.7358266486450504
-115.90283060073853,1248.0,8896.0,13996.0,697.0,-3209.0,-1983.0,-0.02368250589117916,0.14631924114902087,-0.6134968628605441,-0.7756619223892324
-115.91063594818115,1124.0,9076.0,14168.0,708.0,-2872.0,-2266.0,-0.32325183281496606,0.06815862308387748,-0.5957041690462935,-0.7321196607535819
-115.91841650009155,1016.0,9176.0,14416.0,626.0,-2431.0,-2621.0,-0.5918894528646919,0.029875784213675375,-0.5256346261945266,-0.6103134873575168
-115.92618298530579,1040.0,9132.0,14416.0,480.0,-2012.0,-3031.0,-0.8065788036386368,0.03507820180699879,-0.41826612776176686,-0.41623743181750245
-115.93397879600525,876.0,9100.0,14460.0,378.0,-1654.0,-3257.0,-0.9394105498722287,0.06389774539350182,-0.29084635073900844,-0.16980370191543395
-115.94174790382385,804.0,9212.0,14308.0,339.0,-1354.0,-3348.0,-0.9775278536097892,0.09608475438447947,-0.15828940789348311,0.10075454699736065
-115.94951939582825,836.0,8716.0,13968.0,357.0,-1110.0,-3342.0,-0.9234585137795323,0.11588136652361697,-0.030845566876670664,0.36447830281756644
-115.95732355117798,772.0,8576.0,13764.0,482.0,-1268.0,-3099.0,-0.7990906585794796,0.12028574174731986,0.11331049944015419,0.5780537954377027
-115.96507716178894,724.0,8500.0,13604.0,737.0,-1031.0,-2707.0,-0.6386763329266151,0.09078207004235912,0.24275930210800692,0.724512994195597
-115.97288608551025,560.0,8492.0,13276.0,990.0,-1138.0,-2535.0,-0.44748117662319487,0.05184586660082979,0.3765818720450181,0.8094805101615478
-115.98069477081299,440.0,8540.0,13056.0,1357.0,-1276.0,-1687.0,-0.28566715061748155,0.03254939249773888,0.5174807805867502,0.8059456916129306
-115.98850703239441,304.0,8588.0,12892.0,1589.0,-1398.0,-1184.0,-0.1406263659193997,0.036891616683063885,0.6528593711304318,0.7433961765801529
-115.99627470970154,160.0,8764.0,13048.0,1811.0,-1285.0,-669.0,-0.029227575773694708,0.05869957911305394,0.7725153243176576,0.6316012839764718
-116.00406646728516,108.0,8884.0,12924.0,1988.0,-1650.0,-59.0,0.0732688216752091,0.13716207558800156,0.8648260917799372,0.4773825256200286
-116.01187634468079,224.0,9148.0,13424.0,2087.0,-1737.0,375.0,0.15930811585356727,0.24430496348141498,0.9104550392725855,0.29327057558624176
-116.01966738700867,340.0,9264.0,13800.0,2163.0,-1742.0,937.0,0.2205707611606727,0.3811748335577537,0.8928395447877511,0.09429651555821858
-116.02744150161743,724.0,9356.0,14228.0,2085.0,-1621.0,1372.0,0.25773345798944364,0.5242022866741864,0.8063571638160459,-0.09259347515295177
-116.0352554321289,1108.0,9496.0,14536.0,2053.0,-1560.0,1766.0,0.2777800051303852,0.658048477662545,0.6500761850263989,-0.25925166047162257
-116.04302859306335,1304.0,9580.0,14764.0,1894.0,-1475.0,2062.0,0.28861019629121903,0.759167802872685,0.43660995975650435,-0.3869627174801567
-116.05080842971802,1676.0,9880.0,14752.0,1795.0,-1375.0,2325.0,0.28930702742048064,0.814517514705916,0.18012817146188234,-0.4694853607602923
-116.05861639976501,1760.0,10168.0,14592.0,1749.0,-1313.0,2558.0,0.2787398879236154,0.8107781194731193,-0.10231361742777077,-0.5044549925937954
