programtime,ax,ay,az,gx,gy,gz,q0,q1,q2,q3
-9.525177478790283,14496.0,6376.0,4592.0,231.0,-351.0,141.0,0.9992408803640686,0.02027601388204514,-0.030909117993882552,0.012295230584930227
-9.532979011535645,14476.0,6584.0,4656.0,203.0,-343.0,101.0,0.997183005410422,0.038186634666555044,-0.06103722654192829,0.02103073059954285
-9.540772199630737,14456.0,6304.0,4844.0,198.0,-263.0,143.0,0.994339807714758,0.055243840064255374,-0.08429078852881056,0.03363819106200973
-9.548568487167358,14408.0,6208.0,4644.0,145.0,-237.0,35.0,0.991458647953141,0.06837653537564163,-0.1048591728208582,0.03659170239656045
-9.556391477584839,14488.0,6156.0,4852.0,182.0,-224.0,27.0,0.9878732131181038,0.08469338061456097,-0.12406899548250006,0.03924831771877834
-9.564191579818726,14496.0,6236.0,4744.0,135.0,-223.0,-55.0,0.9843292714436097,0.09779171788570486,-0.1426707919691721,0.03431778563871343
-9.571981430053711,14492.0,6224.0,4884.0,175.0,-185.0,-93.0,0.9804768533841338,0.11462522162059399,-0.1574831193802806,0.026930756703702756
-9.5797860622406,14560.0,6312.0,5008.0,194.0,-208.0,-91.0,0.975494520179878,0.13303258232457504,-0.17413567346315953,0.019736777006814334
-9.587597846984863,14508.0,6460.0,4920.0,194.0,-175.0,-126.0,0.9704183297346851,0.151823281838426,-0.1874542934432318,0.009942045888678933
-9.595386505126953,14520.0,6556.0,5076.0,189.0,-189.0,-59.0,0.9645229732104339,0.1690083853983571,-0.20273316146551446,0.005555632866081072
-9.603179216384888,14528.0,6608.0,4632.0,225.0,-212.0,-88.0,0.9570391927465192,0.189623674361436,-0.21935794563399785,-0.000968171467781913
-9.61098861694336,14612.0,6408.0,4756.0,8.0,-223.0,-236.0,0.9521532903720361,0.19478893977224343,-0.23425932624921,-0.024165029306350096
-9.618767261505127,14608.0,6752.0,4856.0,258.0,-202.0,121.0,0.9433671633849526,0.21329643768445145,-0.25379826313763093,-0.01222564298810175
-9.62655758857727,14520.0,6700.0,4784.0,293.0,-234.0,212.0,0.9322036726765742,0.23237068521458926,-0.27739044475417013,0.007397192730509213
-9.634350776672363,14576.0,6724.0,4764.0,352.0,-273.0,278.0,0.9172124462411059,0.25424373871062655,-0.3049461346935533,0.03300461668176601
-9.642132759094238,14612.0,6608.0,4432.0,374.0,-307.0,294.0,0.8986902735074728,0.2769554236524826,-0.33480388118353316,0.05964768861389678
-9.649917840957642,14568.0,6408.0,4760.0,386.0,-301.0,369.0,0.8772735046054303,0.2976267741390755,-0.36503786889225753,0.09250327403650402
-9.657701253890991,14520.0,6288.0,4744.0,351.0,-297.0,308.0,0.8550877385496443,0.31674894494233685,-0.3927151179651244,0.119456692494016
-9.66549015045166,14524.0,6184.0,4832.0,324.0,-285.0,219.0,0.8332089571086966,0.3361137556334944,-0.41651262685006984,0.13895182165858913
-9.673279523849487,14596.0,6076.0,4816.0,291.0,-295.0,190.0,0.810873121267444,0.35365851077239285,-0.43988392416116395,0.1546369044853839
-9.681071043014526,14440.0,6016.0,4808.0,282.0,-322.0,73.0,0.788132338718135,0.3748291148044269,-0.4610127852396451,0.16067906897663295
-9.688858270645142,14644.0,6060.0,4720.0,234.0,-276.0,49.0,0.7682402245973855,0.3924320062242831,-0.4782583364563759,0.16453887507614423
-9.696661949157715,14684.0,6236.0,4616.0,189.0,-6.0,56.0,0.7606621646466653,0.4025690474649332,-0.47782140006879087,0.17611911575557743
-9.704455137252808,14584.0,6288.0,4816.0,190.0,-278.0,7.0,0.7420646467154668,0.41878670141200214,-0.4933601531439339,0.17479564670007716
-9.712287902832031,14580.0,6360.0,4640.0,125.0,-215.0,32.0,0.7276977824243535,0.4285172228916355,-0.5063559875739336,0.17444925046541446
-9.720076560974121,14552.0,6352.0,4816.0,166.0,-183.0,-4.0,0.7134301263313735,0.44177927822686136,-0.5150920352142387,0.17472469611078847
-9.727876901626587,14840.0,6380.0,4464.0,182.0,-156.0,-50.0,0.7001361112366008,0.45749504358331883,-0.5198982800456423,0.17382027857753035
-9.735737800598145,14584.0,6388.0,4468.0,209.0,-151.0,-66.0,0.6858925547151065,0.475292779045406,-0.5230920215235607,0.17327121685979507
-9.743520736694336,14636.0,6496.0,4508.0,246.0,-148.0,-101.0,0.6703605533772978,0.49656756934872837,-0.5237740727286003,0.17233136187030432
-9.75131106376648,14732.0,6192.0,4580.0,271.0,-202.0,-45.0,0.6499047767953539,0.5171611390008756,-0.5292641309555699,0.17334248495318097
-9.759117364883423,14816.0,6496.0,4836.0,332.0,-2.0,-6.0,0.6347886052892114,0.5359569281477855,-0.5237902712832279,0.18824810616420506
-9.766918420791626,14752.0,6588.0,4700.0,344.0,-320.0,78.0,0.6024056331559233,0.5561158408133314,-0.5389821802358856,0.19323776578780774
-9.7747220993042,14752.0,6552.0,4820.0,376.0,-433.0,143.0,0.5607711659518446,0.5755982841031634,-0.5615334596944463,0.1972371375225474
-9.782507181167603,14680.0,6488.0,4708.0,309.0,-476.0,180.0,0.5182658899450165,0.5892165174270102,-0.5876944545603964,0.19707762681147745
-9.790339231491089,14692.0,6508.0,4644.0,325.0,-503.0,157.0,0.4725087358302697,0.6035678510964453,-0.6119728729722104,0.19475766078138884
-9.798136234283447,14672.0,6648.0,4664.0,259.0,-517.0,116.0,0.4288588081404087,0.6159704635723778,-0.6341009764003006,0.18594747219309868
-9.805922269821167,14548.0,6372.0,4656.0,275.0,-480.0,147.0,0.3847890183616078,0.6250912989416308,-0.6546361430408872,0.1806925553539104
-9.813717603683472,14436.0,6332.0,4792.0,502.0,-500.0,161.0,0.32578077897351326,0.6393162685159856,-0.6708985822109264,0.18718088911418415
-9.821505069732666,14516.0,6192.0,4616.0,227.0,-451.0,196.0,0.28332745717690927,0.6409168900080396,-0.6901357882605147,0.18073097652070363
-9.829286575317383,14444.0,6344.0,4512.0,167.0,-401.0,160.0,0.2472452371112301,0.6411892808462606,-0.7057516645208408,0.17222278269651
-9.837076425552368,14468.0,6372.0,4392.0,191.0,-429.0,126.0,0.2081865474918093,0.6434032388616648,-0.7185069640134439,0.16259882019849917
-9.844866514205933,14488.0,6304.0,4480.0,182.0,-399.0,100.0,0.1715261902379404,0.6455931606717794,-0.7281976599626011,0.1533505949817994
-9.852654218673706,14520.0,6376.0,4472.0,196.0,-411.0,67.0,0.13348529188998395,0.6492402221018766,-0.7348832619529616,0.14358064686971667
-9.860443353652954,14824.0,6360.0,4528.0,176.0,-365.0,129.0,0.0985419116662067,0.647141499331423,-0.7437061681383315,0.13564109613700176
-9.86823558807373,14668.0,6372.0,4296.0,199.0,-315.0,37.0,0.06650486128155432,0.649834414342484,-0.7457318736747764,0.13105842188729916
-9.876014709472656,14656.0,6324.0,4416.0,219.0,-305.0,253.0,0.03143167397286434,0.6376315260157295,-0.7587404490392202,0.12942572346283357
-9.883806467056274,14732.0,6280.0,4384.0,205.0,-275.0,-254.0,0.0047933374224643195,0.6576746008105508,-0.7425117271519193,0.1269546312936673
-9.89164137840271,14780.0,6380.0,4376.0,212.0,-276.0,-97.0,-0.02406408302556208,0.6667865977258403,-0.7343318236928971,0.12479313167478855
-9.899429082870483,14804.0,6440.0,4344.0,201.0,-270.0,-44.0,-0.05245662718364978,0.6718425974909599,-0.7286839315190872,0.12204734494040397
-9.9072265625,14620.0,6440.0,4416.0,210.0,-257.0,-59.0,-0.08034943706783752,0.6770924459766576,-0.7214887732502734,0.12059741969894759
-9.915030717849731,14788.0,6488.0,4472.0,195.0,-233.0,-22.0,-0.10617743592999507,0.679338633527196,-0.7162407317080536,0.11926687444150491
-9.922837257385254,14808.0,6520.0,4352.0,217.0,-214.0,-8.0,-0.1321957120318474,0.6798325287004792,-0.7112653115295855,0.12022347215010365
-9.930626392364502,14752.0,6520.0,4300.0,256.0,-255.0,85.0,-0.16393039076483776,0.673943530220142,-0.7103022883299929,0.11999001729842178
-9.938465356826782,14720.0,6388.0,4236.0,284.0,-507.0,81.0,-0.2125535272161308,0.6693143465056491,-0.7039120946195048,0.10652261111181444
-9.946258783340454,14648.0,6420.0,4220.0,279.0,-194.0,61.0,-0.2411495798222072,0.6619176146018579,-0.7009616179123643,0.11119695070027537
-9.954059600830078,14680.0,6320.0,4136.0,267.0,-184.0,33.0,-0.2679684520045163,0.6558252088281457,-0.6961188701524875,0.11620982236216838
-9.961852312088013,14592.0,6276.0,4060.0,509.0,-205.0,47.0,-0.30960964767864285,0.6424291660678975,-0.6880532184019545,0.13419911063909776
-9.969677209854126,14464.0,6180.0,3840.0,187.0,-140.0,-22.0,-0.32810846589713427,0.6402336228741795,-0.6806962653833162,0.13819673310624186
-9.97746729850769,14480.0,6124.0,4064.0,175.0,-139.0,-47.0,-0.34544722892007895,0.6395954822811823,-0.6718360695112976,0.14219749217391736
-9.985263109207153,14408.0,6112.0,4000.0,92.0,-61.0,-108.0,-0.3527255316745643,0.6438858027175589,-0.6627549424862534,0.14748443502181316
-9.993062734603882,14440.0,6120.0,4100.0,29.0,37.0,-164.0,-0.35000308740629693,0.6519640426733654,-0.6542184501703711,0.15632960475783184
-10.000871181488037,14440.0,6080.0,4188.0,24.0,96.0,-294.0,-0.3416870563562001,0.6664975381041418,-0.639842552915846,0.17214091523483177
-10.008673191070557,14452.0,6212.0,4200.0,6.0,158.0,-322.0,-0.32814719855770136,0.6816260304342874,-0.6254060564949306,0.19123973230630703
-10.016475200653076,14628.0,6264.0,4032.0,65.0,194.0,-307.0,-0.31606537319474903,0.6929575561842707,-0.6112721277545263,0.2150788018955871
-10.024256944656372,14652.0,6400.0,4228.0,92.0,189.0,-248.0,-0.3066945791024426,0.6998528100287612,-0.5994902221417526,0.23823507928190268
-10.032052278518677,14792.0,6620.0,4284.0,141.0,215.0,-205.0,-0.2995965495750739,0.7020758555499633,-0.5895171582924291,0.2641986385568941
-10.03984260559082,14748.0,6476.0,4392.0,204.0,216.0,-72.0,-0.29914085691532855,0.6952473900299837,-0.5858056660621023,0.2897887782333805
-10.047664165496826,14752.0,6876.0,4404.0,274.0,234.0,-2.0,-0.30352561835449143,0.6819700060060135,-0.5845368751359612,0.3179713061220575
-10.055458784103394,14768.0,6476.0,4436.0,339.0,285.0,75.0,-0.3109288755108552,0.6607758792587918,-0.5866497653552382,0.3500578874585886
-10.063244104385376,14648.0,6404.0,4160.0,350.0,322.0,34.0,-0.3153120530753466,0.639178567427931,-0.5860997463825003,0.38537793841443035
-10.07103180885315,14648.0,6268.0,4412.0,408.0,354.0,-26.0,-0.3186541336455663,0.6167207241174406,-0.5799662678246772,0.42632642392909226
-10.078824520111084,14356.0,6260.0,4372.0,419.0,387.0,-46.0,-0.3194243675638536,0.5922942768091393,-0.5718853825232342,0.4691510122783763
-10.086610555648804,14656.0,6284.0,4356.0,399.0,417.0,-104.0,-0.3144772540771975,0.5685831077554976,-0.5609875874475141,0.5129427189979243
-10.094408988952637,14612.0,6276.0,4848.0,334.0,419.0,-51.0,-0.3078243486492075,0.5425984294083626,-0.5543085378717236,0.5509747359224207
-10.102200746536255,14356.0,6408.0,4852.0,291.0,379.0,-42.0,-0.30089336937623573,0.5181800760095114,-0.5479360210194063,0.5837111494237658
-10.110022783279419,14660.0,6324.0,4792.0,295.0,309.0,44.0,-0.3013910344834771,0.4922952565691501,-0.5425308610726136,0.6103024573736392
-10.117839813232422,14748.0,6296.0,4776.0,281.0,295.0,110.0,-0.30505066092588556,0.4637277738668042,-0.5395775108121057,0.6330535173577589
-10.125670671463013,14936.0,6336.0,4580.0,331.0,221.0,2.0,-0.3078639082654359,0.44241294944123255,-0.5268231239184271,0.6572275041863894
-10.133477449417114,14980.0,6352.0,4492.0,394.0,158.0,313.0,-0.3333158980644679,0.40801605459863727,-0.5198855486440433,0.6724153683537588
-10.141266345977783,14892.0,6324.0,4548.0,439.0,81.0,432.0,-0.36999375072871116,0.37042778027027856,-0.5109893659278504,0.681746105184612
-10.149065732955933,14764.0,6240.0,4496.0,386.0,124.0,425.0,-0.4016231552950105,0.331282619677956,-0.5049766629742205,0.688439711871425
-10.156853437423706,14716.0,6056.0,4392.0,400.0,204.0,351.0,-0.42468926208431496,0.2892683656121349,-0.49749600155035956,0.6988995434021753
-10.164650440216064,14492.0,5768.0,4404.0,325.0,308.0,343.0,-0.4398455082109266,0.24334296644729828,-0.49701143968970246,0.7073187106282924
-10.172441005706787,14428.0,5516.0,4596.0,231.0,444.0,93.0,-0.4307480038914145,0.2029313377362394,-0.5011406931353335,0.722587735151919
-10.180242776870728,14372.0,5328.0,4572.0,140.0,575.0,-184.0,-0.3958336194821913,0.16931261232553502,-0.5097909157498819,0.7448236081207601
-10.188031911849976,14456.0,5384.0,4776.0,22.0,608.0,-455.0,-0.3387174271657446,0.1490597313339317,-0.5213677873141818,0.7689130844120087
-10.195833444595337,14520.0,5564.0,5068.0,-26.0,622.0,-570.0,-0.2710124551696971,0.133780895252038,-0.5325175099627633,0.7906200242793716
-10.203661918640137,14336.0,5832.0,5136.0,-57.0,561.0,-715.0,-0.19423519151810592,0.1293676493407647,-0.5395502911401989,0.808963648757159
-10.211480855941772,14756.0,6068.0,5180.0,-3.0,465.0,-742.0,-0.11946479624115078,0.13128330022926743,-0.5375814122380447,0.8243173434764803
-10.219273328781128,14928.0,6320.0,5284.0,28.0,386.0,-736.0,-0.04848214062452895,0.13753937286060244,-0.5296455919574988,0.8355883854348182
-10.227107763290405,14912.0,6424.0,5304.0,146.0,258.0,-688.0,0.011964506280483971,0.14975006457486043,-0.5106160573591388,0.8465831386912321
-10.234899997711182,15048.0,6820.0,5240.0,310.0,161.0,-560.0,0.05650188875541281,0.16303742692879702,-0.4792971486643039,0.8605234321445153
-10.242686033248901,14852.0,6972.0,5192.0,450.0,1.0,-364.0,0.07751287380077897,0.1803663851153635,-0.43961283173635857,0.8764703530002034
-10.250503063201904,15148.0,6920.0,5196.0,590.0,-186.0,-159.0,0.07327228977950835,0.20457388527934067,-0.39247265706289386,0.8937258586782499
-10.258345603942871,15048.0,7416.0,5224.0,714.0,-379.0,57.0,0.04311998243018447,0.2363703742529287,-0.33920230847730426,0.9095116861340587
-10.266144275665283,15020.0,6968.0,5176.0,765.0,-485.0,229.0,-0.005049503266743288,0.27028752949343676,-0.28389690549903634,0.9199574451925289
-10.273936748504639,14988.0,6812.0,4936.0,748.0,-602.0,318.0,-0.06276813390450939,0.30942220051286046,-0.22997756234969416,0.9205587346886767
-10.281731367111206,14904.0,6512.0,4924.0,723.0,-624.0,344.0,-0.12184559693040713,0.34752687478919386,-0.17684677954899955,0.9127452757319955
-10.289527416229248,14812.0,6380.0,4868.0,598.0,-638.0,299.0,-0.17295199843035539,0.38629734603947435,-0.1308302567925335,0.8965184942818551
-10.297316551208496,14632.0,5964.0,4676.0,497.0,-636.0,295.0,-0.2192944821631256,0.4241523580778317,-0.09177995707295682,0.8738313033472237
-10.305115938186646,14608.0,5652.0,4528.0,387.0,-567.0,481.0,-0.27396310704270294,0.455049025106924,-0.06877377989851165,0.8444789919987458
-10.31292724609375,14460.0,5592.0,4164.0,286.0,-528.0,126.0,-0.29719560236203396,0.48577361682898573,-0.039747306370157054,0.8210474522010713
-10.320717096328735,14552.0,5560.0,4204.0,195.0,-495.0,46.0,-0.30997771073824204,0.5155385005866191,-0.014594143306664604,0.7986994955798605
-10.328545093536377,14304.0,5572.0,4048.0,119.0,-400.0,-99.0,-0.30855675672855915,0.5399930512706727,0.009245917596799304,0.7830164400983766
-10.336374282836914,14172.0,5696.0,3828.0,104.0,-309.0,-228.0,-0.2972752442181322,0.5578101277437459,0.03567054439893525,0.7740819742274323
-10.344199895858765,14192.0,5852.0,3720.0,15.0,-227.0,-298.0,-0.27684042321910096,0.571526572071788,0.05731973567795268,0.770344861337797
-10.352061748504639,14352.0,6084.0,3372.0,-13.0,-152.0,-340.0,-0.25225505257470815,0.580049547539148,0.07730306060358738,0.7706712318955983
-10.35991382598877,14392.0,6360.0,3812.0,-50.0,-93.0,-351.0,-0.22518772817415858,0.5847117799424927,0.09397037810598456,0.7736744725754244
-10.367754697799683,14616.0,6548.0,3536.0,-35.0,-36.0,-319.0,-0.20129606716227197,0.5849575287034833,0.10881198672585427,0.7781160160945718
-10.375597476959229,14772.0,6776.0,3628.0,-253.0,-17.0,-227.0,-0.17253503937189812,0.5881139584500973,0.10373537116204473,0.7833215207275792
-10.38339877128601,14632.0,6944.0,3692.0,68.0,-16.0,-117.0,-0.16767548719209233,0.5870547929715759,0.11488323091259867,0.7836156228018154
-10.391203165054321,14928.0,7120.0,3948.0,46.0,5.0,19.0,-0.1711860626209137,0.5861890804044554,0.1172417780363873,0.783155195004026
-10.398998022079468,14884.0,7004.0,3844.0,74.0,38.0,102.0,-0.18212560393187957,0.5834599872212884,0.11676761313182421,0.7827962903767994
-10.406841278076172,14856.0,6892.0,4052.0,50.0,5.0,194.0,-0.1977539826367896,0.584176373359361,0.11047023450598534,0.7793764523310833
-10.4151771068573,14808.0,6664.0,4224.0,238.0,2.0,188.0,-0.2224275581692152,0.5815006283547727,0.11725749651529552,0.7737142108691363
-10.423136949539185,14760.0,6308.0,4472.0,-45.0,-28.0,125.0,-0.2280977140626947,0.5854510776128197,0.10866778383342436,0.770330955705464
-10.431007146835327,14780.0,6108.0,4516.0,-116.0,-34.0,99.0,-0.2283006285684006,0.5908769397913511,0.09673322309602983,0.7677147572943581
-10.438805103302002,14776.0,5916.0,4352.0,-169.0,-68.0,6.0,-0.21920264415433444,0.5987263239332061,0.08669877436546905,0.7654804454384861
-10.446614027023315,14736.0,5716.0,4640.0,-300.0,-94.0,-53.0,-0.1990190000136501,0.610047855974772,0.07144271624747921,0.7636288295692699
-10.454406261444092,14704.0,5892.0,4548.0,-388.0,-167.0,-105.0,-0.17002051327692208,0.6267498246070179,0.0542766176669224,0.7585062499378384
-10.462202072143555,14676.0,6008.0,4460.0,-422.0,-148.0,-67.0,-0.1415126396961147,0.6419286920465985,0.032406367845368766,0.7528954472280011
-10.469998121261597,14824.0,6172.0,4352.0,-440.0,-183.0,-95.0,-0.10982467325400522,0.6584648453175563,0.01128821622458046,0.7444697205394216
-10.477834463119507,14896.0,6372.0,4584.0,-412.0,-282.0,-34.0,-0.08340970240067483,0.679986753138937,-0.010609517536019627,0.7283874485729762
-10.485656023025513,14944.0,6604.0,4204.0,-368.0,-321.0,96.0,-0.06773524763351023,0.7022577120098227,-0.03713664528520369,0.7077195148699216
-10.493447303771973,15136.0,6680.0,4336.0,-277.0,-501.0,243.0,-0.06713244099295294,0.7329126326051343,-0.06590937379591368,0.673786511277845
-10.501238346099854,15216.0,6776.0,4160.0,-201.0,-710.0,457.0,-0.08484316123463145,0.7709525874152462,-0.10235982502841577,0.6228613105416033
-10.509064674377441,15240.0,6876.0,4196.0,-202.0,-884.0,669.0,-0.11483361785055798,0.810577167833675,-0.15096063181746772,0.5540656845892565
-10.516915082931519,15156.0,6704.0,4188.0,-192.0,-1094.0,788.0,-0.1525865206982144,0.8490237057087248,-0.20350063530506193,0.46310214021992435
-10.524728059768677,15100.0,6524.0,4196.0,-223.0,-1200.0,852.0,-0.19012299554724843,0.877979492326301,-0.25743331720851875,0.3559962707804812
-10.532556295394897,15120.0,6344.0,3876.0,-373.0,-1234.0,884.0,-0.2146646626878649,0.8943725435508701,-0.3133336979151095,0.2363024115118068
-10.540396213531494,15104.0,6056.0,4036.0,-470.0,-1278.0,849.0,-0.2281423632069139,0.8975765833143232,-0.36179408142702263,0.10682875006536034
-10.548208475112915,14984.0,5840.0,3852.0,-593.0,-1033.0,518.0,-0.21767764077556062,0.8969375559665043,-0.3848509077343114,-0.0030404307748600704
-10.556007862091064,14976.0,5628.0,4064.0,-698.0,-1301.0,726.0,-0.2043880567247254,0.8765005518739626,-0.4125482057128015,-0.14062817212805342
-10.563810586929321,14968.0,5680.0,4072.0,-788.0,-1296.0,677.0,-0.1805156905876859,0.8414963759407894,-0.42709283553611926,-0.2772898205197695
-10.571640968322754,14852.0,5628.0,3904.0,-928.0,-1252.0,599.0,-0.14295861187385314,0.795100027560236,-0.4244379020930074,-0.4089391748557479
-10.579444408416748,15208.0,5612.0,3956.0,-1016.0,-1306.0,504.0,-0.10162431339295555,0.7341663905772426,-0.40232199242346806,-0.5374097359432605
-10.587241172790527,15152.0,5732.0,4084.0,-1099.0,-1393.0,533.0,-0.05433576598074441,0.651365428055259,-0.367826756662366,-0.6614183099619482
-10.595043897628784,15144.0,5944.0,4212.0,-1145.0,-1455.0,569.0,-0.0029774297473042655,0.5467038102706274,-0.3226392341458481,-0.7726642241863267
-10.602846145629883,15156.0,6320.0,4244.0,-1224.0,-1537.0,643.0,0.054721280434562695,0.4183807512465272,-0.26613500045782146,-0.8666806159049071
-10.610650062561035,15148.0,5904.0,4096.0,-1276.0,-1590.0,716.0,0.11658829087064224,0.27042320357834293,-0.1999043639100217,-0.9345141554240995
-10.618496417999268,15300.0,6060.0,4032.0,-1244.0,-1625.0,788.0,0.1787106519112296,0.10923957537536506,-0.1313025904609364,-0.9689627690492142
-10.626330375671387,15184.0,5956.0,3964.0,-1230.0,-1583.0,828.0,0.23813244017868612,-0.05264092396422096,-0.05897515389006797,-0.9680102299471738
-10.634131669998169,15088.0,5964.0,3868.0,-1146.0,-1626.0,783.0,0.28570284021007575,-0.21439595984504067,0.007324884438324743,-0.9339992535146829
-10.641928672790527,14804.0,5948.0,3640.0,-1066.0,-1525.0,716.0,0.32021176649734956,-0.3596139653703093,0.06832769668283366,-0.8737697330380054
-10.64971399307251,14604.0,5904.0,3636.0,-965.0,-1407.0,601.0,0.33981454721212784,-0.4844322045399308,0.11970558599575587,-0.7971963907275371
-10.65751314163208,14428.0,5836.0,3456.0,-899.0,-1183.0,448.0,0.34206130189594264,-0.5834833378472435,0.1643433833184291,-0.7180059279416461
-10.665295124053955,14264.0,5644.0,3444.0,-822.0,-901.0,272.0,0.32807665824016025,-0.6567370512726849,0.201388131788512,-0.648463547301127
-10.67308759689331,14168.0,5736.0,3464.0,-748.0,-664.0,-7.0,0.29521804302791416,-0.7131680844381737,0.22327759279263248,-0.5953021980190246
-10.680881261825562,14328.0,5688.0,3440.0,-724.0,-416.0,-229.0,0.2455310355064764,-0.7557506680046601,0.23510006382995682,-0.5597172486182446
-10.68866753578186,14540.0,5912.0,3756.0,-689.0,-220.0,-355.0,0.18666926667391812,-0.7865966446417069,0.23990657240425373,-0.5374617568116568
-10.696455240249634,14344.0,6048.0,4144.0,-618.0,-172.0,-437.0,0.1269314045617681,-0.8120027839678685,0.23544015149461744,-0.518756043269473
-10.704251527786255,14864.0,6344.0,4392.0,-635.0,-255.0,-331.0,0.07190434184847579,-0.8355207967878182,0.23728731472306938,-0.4903361031271327
-10.712075471878052,15024.0,6376.0,4604.0,-656.0,-332.0,-256.0,0.019825629004388216,-0.8571386092333538,0.24396414753663528,-0.4532128017971418
-10.719871044158936,15236.0,6380.0,4736.0,-685.0,-487.0,-86.0,-0.024495335961405414,-0.877003582574788,0.2630038651609719,-0.4013647487977914
-10.727724552154541,15420.0,6388.0,4608.0,-720.0,-753.0,46.0,-0.060567583599821645,-0.897048042001482,0.2921003721410841,-0.3260578947874536
-10.735496520996094,15456.0,6408.0,4804.0,-752.0,-1010.0,188.0,-0.08790611862557217,-0.911388978406556,0.331488648882513,-0.22750367032047417
-10.743297576904297,15568.0,6368.0,4696.0,-733.0,-1025.0,307.0,-0.10985968801310883,-0.9113956364567057,0.3759135530118774,-0.126403494648389
-10.751131057739258,15504.0,6160.0,4688.0,-761.0,-1473.0,476.0,-0.1156087993516936,-0.8946369283708366,0.431438314811754,0.01097052505800299
-10.758971691131592,15304.0,6292.0,4472.0,-781.0,-1492.0,542.0,-0.119610973973419,-0.8547756888777378,0.4823670663469997,0.14957857437650612
-10.766770362854004,15264.0,6220.0,4108.0,-819.0,-1463.0,477.0,-0.1240225321745529,-0.797844341483676,0.5166169568589027,0.2849030329100382
-10.774579524993896,15192.0,6056.0,4088.0,-878.0,-1397.0,437.0,-0.1316926463790292,-0.7258569819738512,0.5344747971072944,0.4124625799592211
-10.782374143600464,15328.0,5652.0,3776.0,-947.0,-1284.0,360.0,-0.14340979635399465,-0.6453655535830427,0.5325930144246313,0.5284710148572418
-10.790165901184082,15004.0,5816.0,3676.0,-980.0,-1195.0,267.0,-0.15406179507470302,-0.560271524231594,0.5126572167172864,0.6320944237859181
-10.797971248626709,14948.0,5680.0,3736.0,-1076.0,-1127.0,146.0,-0.16292099667590704,-0.4726032457788208,0.47126878102236464,0.7266420418301897
-10.805808067321777,14788.0,5568.0,3980.0,-1118.0,-1053.0,145.0,-0.17348720711723847,-0.38038337140653167,0.4176124532552142,0.8067282805320652
-10.813623905181885,14672.0,5472.0,3976.0,-1183.0,-999.0,74.0,-0.18005265291854408,-0.2866320812933059,0.34879711832160104,0.8739357312760527
-10.821415185928345,14548.0,5480.0,3932.0,-1195.0,-920.0,-130.0,-0.17066676209826462,-0.19966617192569272,0.2666319997832636,0.9273152930880694
-10.829224109649658,14516.0,5268.0,3856.0,-1199.0,-901.0,-285.0,-0.1463370753723321,-0.11423772530762336,0.17660070776912248,0.9666164660833464
-10.837050914764404,14340.0,5408.0,3884.0,-1205.0,-908.0,-392.0,-0.11033951129015517,-0.027745583305806995,0.08201046075999734,0.9901159826915245
-10.844843864440918,14676.0,5580.0,3896.0,-1188.0,-936.0,-414.0,-0.07011968542998834,0.06133115248309439,-0.012374532773107702,0.9955745026812116
-10.8526451587677,14696.0,5648.0,3844.0,-1079.0,-1061.0,-379.0,-0.032252270281250245,0.15934131809640462,-0.09655714603812506,0.9819607186430513
-10.860439777374268,15040.0,5728.0,3932.0,-993.0,-1160.0,-328.0,-5.873327368146897e-05,0.2621500108969602,-0.17206938527471924,0.9495627914931727
-10.868244886398315,14692.0,5848.0,4048.0,-933.0,-1343.0,-185.0,0.016376592583229765,0.3726386883981916,-0.24246527009666793,0.8955907591758572
-10.876036882400513,14444.0,5864.0,4036.0,-889.0,-1427.0,-175.0,0.028602906032409992,0.4815856334985097,-0.3047784375439673,0.8211986698616836
-10.883839130401611,14332.0,5824.0,3892.0,-900.0,-1373.0,-207.0,0.04446207611209126,0.5773886773822438,-0.3600514627902676,0.7314426725049437
-10.891671180725098,14368.0,5760.0,3892.0,-893.0,-1369.0,-307.0,0.0655372143536584,0.6640719669132783,-0.40249662715562207,0.6266655897869616
-10.89947509765625,14360.0,5744.0,3888.0,-932.0,-1531.0,-444.0,0.08907317953548832,0.748440072059629,-0.43079995820590694,0.4963011416797312
-10.907269477844238,14524.0,5836.0,3640.0,-960.0,-1221.0,-756.0,0.13721975648172766,0.8130954033484107,-0.4275658491305588,0.3704511413696078
-10.915119409561157,14688.0,6044.0,4004.0,-980.0,-1190.0,-585.0,0.17955523769698045,0.8528569910115393,-0.4275287137530131,0.2400293074085291
-10.922953367233276,14816.0,6452.0,4148.0,-1046.0,-1149.0,-559.0,0.22406146896668214,0.8723535130579915,-0.4214550107601093,0.10569522356790442
-10.93075942993164,14964.0,6404.0,4276.0,-1064.0,-1144.0,-570.0,0.2655844731413146,0.8738784693387699,-0.40598308870453825,-0.03128961710059868
-10.938554048538208,15160.0,6756.0,4276.0,-1080.0,-1071.0,-502.0,0.30578093524875943,0.8553547304850809,-0.3858328480408689,-0.16124304030828812
-10.946354389190674,15372.0,6908.0,3928.0,-1043.0,-1046.0,-418.0,0.33962239588550486,0.8195107351059313,-0.3646396671445311,-0.28301359755999583
-10.954148769378662,15580.0,6872.0,3928.0,-994.0,-1078.0,-303.0,0.3659352766829584,0.7664959019305876,-0.3474660485238574,-0.3972942873057683
-10.96195387840271,15336.0,6988.0,3992.0,-970.0,-1112.0,-161.0,0.3883997220400401,0.695958995050954,-0.3358387866679289,-0.501995062223025
-10.969744205474854,14968.0,6960.0,3752.0,-847.0,-1245.0,-94.0,0.3959477580579699,0.6101026296879591,-0.33244430815739245,-0.6004006463274811
-10.977545261383057,14780.0,6904.0,3624.0,-762.0,-788.0,-143.0,0.4044233791532554,0.5439919528898493,-0.31079712904549905,-0.6662729396894533
-10.985316514968872,14504.0,6524.0,3568.0,-626.0,-566.0,-11.0,0.41715781251854944,0.4878287696263467,-0.2931833435176589,-0.7085520291858531
-10.99311876296997,14512.0,6316.0,3608.0,-544.0,-361.0,-371.0,0.40740122033822396,0.45407152975694715,-0.2564821686804611,-0.7497067351171919
-11.00091004371643,14356.0,6240.0,3692.0,-485.0,-162.0,-427.0,0.39452214318814677,0.4348954369893034,-0.21337837294740125,-0.7808251452011737
-11.008699178695679,14692.0,5928.0,4028.0,-463.0,-122.0,-381.0,0.3834380890242972,0.41697812955172536,-0.1714739852209522,-0.8060404107446378
-11.01653790473938,14916.0,6056.0,4096.0,-449.0,-111.0,-333.0,0.3743463517007845,0.39846799870406263,-0.13147968563450782,-0.8269227020964793
-11.024344444274902,14852.0,5952.0,4380.0,-471.0,-165.0,-174.0,0.3759852299756431,0.37259735992640713,-0.09688378368034907,-0.8428640736653884
-11.032138586044312,14824.0,5924.0,4704.0,-765.0,-202.0,-107.0,0.390439081115674,0.3325486032882948,-0.04381488520852775,-0.8573499905072118
-11.03993558883667,14592.0,5632.0,4664.0,-578.0,-261.0,-78.0,0.3998480540138784,0.2929735219229242,-0.007359050146695706,-0.8684664032271662
-11.047735929489136,14800.0,5444.0,4464.0,-627.0,-13.0,-74.0,0.40972091269113053,0.2695485162475918,0.04135819787682202,-0.8704951869830473
-11.055532217025757,14716.0,5176.0,4392.0,-691.0,-315.0,-117.0,0.4173536707205997,0.21979179759327197,0.0849684531498436,-0.877660436168842
-11.063331365585327,14716.0,5204.0,4272.0,-746.0,-350.0,-120.0,0.42399955676206696,0.16428217047919058,0.13112408205464257,-0.8809325850674068
-11.071128606796265,14656.0,5184.0,4224.0,-837.0,-334.0,-219.0,0.4216383877237511,0.10457584137988518,0.18544888625142372,-0.8814157214308759
-11.078971862792969,14576.0,5432.0,4328.0,-894.0,-230.0,-349.0,0.4051855149014079,0.04795788208648104,0.2478199816390737,-0.8786978984612797
-11.086771965026855,14380.0,5600.0,4068.0,-976.0,-44.0,-500.0,0.3701740341683323,-0.0009340949911559558,0.32153712261986533,-0.8715412730739879
-11.09457778930664,14432.0,5796.0,3948.0,-952.0,95.0,-644.0,0.31680878745150937,-0.04250647150511679,0.3947973190852123,-0.8613712724004776
-11.102371454238892,14612.0,6036.0,4060.0,-905.0,225.0,-723.0,0.24996226063957522,-0.07530256432149567,0.463769827988813,-0.8466203037429393
-11.11017632484436,14632.0,6384.0,4240.0,-724.0,230.0,-700.0,0.18334488389368042,-0.10218272370930069,0.5154664361167377,-0.8308054512113352
-11.118006467819214,14612.0,6744.0,4112.0,-759.0,112.0,-566.0,0.12994864868069306,-0.13137074815460584,0.5651859784136183,-0.8040024160660227
-11.125845193862915,14988.0,7104.0,4524.0,-351.0,4.0,-287.0,0.10539813325669976,-0.14925244322508077,0.5860155659149987,-0.7894306164588949
-11.133670806884766,15136.0,7136.0,4432.0,-213.0,-95.0,-28.0,0.10542025379911699,-0.15929347755158837,0.5992366176841254,-0.7774494415233321
-11.141470670700073,15524.0,6768.0,4216.0,-90.0,-122.0,190.0,0.12330138088595344,-0.1585637363459417,0.6066416152232504,-0.7691815531244608
-11.149263143539429,15140.0,6456.0,4332.0,14.0,-85.0,369.0,0.15257743476043864,-0.1446326495305494,0.6094784487479168,-0.7644197430754457
-11.157061576843262,14748.0,6032.0,3844.0,63.0,58.0,368.0,0.17464120455653204,-0.12041115481239827,0.6102844751917476,-0.7632525550613777
-11.164854049682617,14400.0,5712.0,4084.0,52.0,330.0,107.0,0.16456153708647464,-0.09201603333494571,0.6126111298940168,-0.7675676866902457
-11.172654390335083,14264.0,5384.0,4144.0,-46.0,615.0,-175.0,0.1192957055320899,-0.06086246701335491,0.6220742426464757,-0.771419426373528
-11.180452823638916,14360.0,5304.0,4372.0,-134.0,832.0,-445.0,0.04318976801647867,-0.030422380076047736,0.6351342078189123,-0.7705930578375553
-11.188254594802856,14544.0,5532.0,4680.0,-212.0,839.0,-562.0,-0.04163118737842459,-0.006051869100097824,0.648378028311835,-0.7601553469655495
-11.196038246154785,14828.0,5848.0,5068.0,-197.0,653.0,-482.0,-0.11049895962122207,0.01055105429179304,0.6570226379929166,-0.745654013829999
-11.20383071899414,15056.0,6112.0,5564.0,-202.0,453.0,-489.0,-0.16793283621798286,0.013778562412622866,0.6649699514298257,-0.7276150613016753
-11.211660146713257,15180.0,6468.0,5264.0,-198.0,150.0,-499.0,-0.20797681169164278,-0.002892368429206521,0.6750986831818891,-0.7077987340830215
-11.219486713409424,15312.0,6392.0,5204.0,-169.0,-114.0,-36.0,-0.20362924194931173,-0.009129458546074342,0.687441962273565,-0.6970475832504368
-11.22728443145752,15164.0,6652.0,4596.0,-80.0,-224.0,167.0,-0.1801704221305101,-0.011450966820868769,0.6961608090647375,-0.6948148114933296
-11.23503303527832,15020.0,6272.0,4100.0,-51.0,-212.0,294.0,-0.14956972320317946,-0.005774998255713663,0.7024894874220359,-0.6957758743716226
-11.242823362350464,14980.0,6068.0,3748.0,71.0,-85.0,371.0,-0.12185606069192347,0.01074594375811444,0.6990462950611696,-0.7045352386691853
-11.25062608718872,14632.0,5960.0,3504.0,208.0,131.0,383.0,-0.10653813357096376,0.03979818326323974,0.6839375410777131,-0.7206213781235833
-11.258419513702393,14880.0,5820.0,3588.0,335.0,373.0,380.0,-0.10603465867211129,0.08257508184320451,0.6570639403951716,-0.7417580368632667
-11.266192197799683,14796.0,5780.0,3968.0,504.0,588.0,359.0,-0.1199357529691693,0.1360608231017003,0.6146751944416317,-0.76764397536537
-11.273977756500244,14748.0,5872.0,4328.0,566.0,700.0,340.0,-0.14105042929531905,0.19445902536165596,0.5633782720851057,-0.7905032488190048
-11.28176760673523,14808.0,5764.0,4628.0,616.0,720.0,288.0,-0.16652673061521278,0.24964294242452612,0.5052179988342932,-0.8091365910290456
-11.289557456970215,14868.0,5768.0,4872.0,577.0,704.0,203.0,-0.19526220084607732,0.2987916546458723,0.44831190030679896,-0.8195197740616359
-11.297351837158203,14976.0,5756.0,5056.0,483.0,613.0,88.0,-0.2251166601434226,0.33690935140373035,0.4000699419365519,-0.82204538793273
-11.305187940597534,14992.0,5688.0,4956.0,363.0,449.0,31.0,-0.24901804191661023,0.36246052434463505,0.36382387221075707,-0.8211239693867184
-11.313012599945068,15016.0,5616.0,4740.0,288.0,283.0,247.0,-0.24928592890573023,0.38384666314647464,0.3289406036379595,-0.8260244210186639
-11.320832252502441,15028.0,5532.0,4788.0,220.0,50.0,-24.0,-0.25985009541917276,0.3817462883517855,0.3127382835230484,-0.8300255810873178
-11.32862663269043,14860.0,5492.0,4468.0,143.0,-64.0,249.0,-0.2448242593057625,0.38037960797222536,0.2954424811046292,-0.8414785655339188
-11.336435556411743,14612.0,5328.0,4236.0,119.0,-39.0,-60.0,-0.2522312106523706,0.37323536551169656,0.289510672460868,-0.8445462384235962
-11.344260215759277,14468.0,5380.0,3944.0,69.0,90.0,-107.0,-0.2646910172125604,0.3754467370245495,0.2859076323711568,-0.8409727931488141
-11.352131605148315,14524.0,5532.0,3736.0,122.0,321.0,-132.0,-0.28631797497870193,0.39253136765762603,0.2737288562840223,-0.8300684645535993
-11.359942197799683,14728.0,5828.0,3860.0,243.0,440.0,-78.0,-0.31057767779292733,0.4159078733811854,0.2475654742716435,-0.8180913658418286
-11.367785692214966,14872.0,6216.0,4244.0,425.0,452.0,126.0,-0.32635017149044965,0.4385668287542876,0.2000936883372037,-0.8130911499777718
-11.375611543655396,15280.0,6508.0,4552.0,613.0,475.0,363.0,-0.3314894306917001,0.4597295142508912,0.12880921375036075,-0.8137393424920205
-11.383429050445557,15440.0,6476.0,4948.0,753.0,422.0,525.0,-0.3279397251327094,0.4718448026177721,0.041887081457588106,-0.817351510263145
-11.391218900680542,15488.0,6228.0,5368.0,841.0,350.0,516.0,-0.32572217795631697,0.4725160648045527,-0.04918116260808888,-0.8174440926042158
-11.39903211593628,15280.0,6004.0,5196.0,828.0,280.0,356.0,-0.33216371712129417,0.46570434652885045,-0.1304692990036198,-0.8097928677568142
-11.406826257705688,15192.0,5668.0,5052.0,677.0,189.0,465.0,-0.3237943333342834,0.4527734314596517,-0.20216509117844428,-0.8057808172038287
-11.414658784866333,14948.0,5452.0,5044.0,354.0,73.0,46.0,-0.33308612153202843,0.4467232875720403,-0.23083637727798864,-0.7976255430393093
-11.422491073608398,14716.0,5048.0,5100.0,-39.0,-109.0,-224.0,-0.34926507223785785,0.44453425118801143,-0.21616725054469127,-0.796037014608835
-11.43031120300293,14820.0,4872.0,5096.0,-446.0,-306.0,-428.0,-0.36680721897042323,0.44399938165667097,-0.15894745943264174,-0.8019056792039739
-11.438110113143921,14436.0,4720.0,4924.0,-847.0,-432.0,-633.0,-0.3823989092660862,0.44729613940995244,-0.060979831766203654,-0.8062125637689017
-11.445901155471802,14428.0,4704.0,4744.0,-1230.0,-580.0,-837.0,-0.3926013369640261,0.44750958438269184,0.07689836267087728,-0.7998037283722974
-11.453695058822632,14368.0,4768.0,4564.0,-1503.0,-517.0,-965.0,-0.39270948596136407,0.45039354107898455,0.234209146750482,-0.7668578703832317
-11.461493015289307,14724.0,5076.0,4392.0,-1719.0,-980.0,-995.0,-0.3650167423434797,0.4155345473863777,0.414353700783384,-0.7227757801590102
-11.469280004501343,14784.0,5360.0,4428.0,-1891.0,-1060.0,-913.0,-0.3093338251425185,0.36807129250150145,0.588309519381557,-0.650175374544448
-11.477074146270752,15080.0,5704.0,4268.0,-1857.0,-1069.0,-627.0,-0.22620906107828984,0.31922787182669204,0.7290261843034685,-0.5616438810625509
-11.484856367111206,14964.0,5928.0,4164.0,-1721.0,-987.0,-421.0,-0.13410240076642765,0.27369300785485356,0.8317126504102562,-0.4640719240673696
-11.492644786834717,14968.0,6132.0,3776.0,-1765.0,-754.0,-260.0,-0.047156987040794615,0.24145101154874796,0.9054233440160964,-0.3459569275300471
-11.500438451766968,15048.0,5888.0,3644.0,-1185.0,-443.0,-174.0,0.007434641335794477,0.21781464559125266,0.9408923748087568,-0.25927407371525396
-11.50823450088501,15312.0,6268.0,3680.0,-778.0,-512.0,-199.0,0.05947785847874136,0.18870505559597628,0.9586642735468683,-0.20448862307756266
-11.516069650650024,15320.0,6280.0,3804.0,-445.0,-51.0,-241.0,0.0666193746582314,0.16514026373297666,0.9693740381506695,-0.16912872722814862
-11.523874044418335,15340.0,6548.0,3768.0,-153.0,106.0,-197.0,0.05684069837465017,0.1490935686770512,0.9748308601419431,-0.1557081786623395
-11.531744956970215,15296.0,6508.0,3848.0,78.0,127.0,-97.0,0.04360210333126709,0.14292528643547928,0.9755591602670884,-0.16110724347899125
-11.539547204971313,15164.0,6416.0,3832.0,210.0,68.0,-76.0,0.03402078541114044,0.13816850852800946,0.9736241504611115,-0.17834815123805842
-11.547343969345093,15012.0,6240.0,3632.0,264.0,48.0,-74.0,0.025500596277583856,0.13335690678072862,0.9702765081223506,-0.20032262176115284
-11.555115699768066,14756.0,6008.0,4092.0,297.0,80.0,-113.0,0.013190157786840307,0.12577759253046025,0.9661939492782604,-0.22466701879198564
-11.562940120697021,14640.0,5700.0,3824.0,152.0,31.0,-164.0,0.005589703593722269,0.11268546480478847,0.9648740309233204,-0.23725270427383255
-11.570736408233643,14624.0,5600.0,3996.0,81.0,25.0,-176.0,-0.0010583075168405362,0.0983811442046975,0.9648103762675756,-0.2438461980359618
-11.578537702560425,14388.0,5496.0,3980.0,-98.0,-69.0,-169.0,0.0018947588866544502,0.0826496154507508,0.968205840019956,-0.23609934838083674
-11.58633303642273,14840.0,5292.0,3860.0,-289.0,-39.0,-118.0,0.004736924741765151,0.07177296062371843,0.9746483869239585,-0.21186487564913362
-11.594138145446777,14684.0,5220.0,4140.0,-490.0,-252.0,-192.0,0.025558977424390467,0.05048696144809188,0.983543277092629,-0.17158213042928003
-11.601924896240234,14876.0,5108.0,4332.0,-633.0,51.0,-211.0,0.02067161798542638,0.03165188851442799,0.9923823661660666,-0.11725221313891618
-11.609728574752808,14820.0,5220.0,4548.0,-683.0,44.0,-275.0,0.015796203527125678,0.0070209640094322815,0.9981490260864034,-0.058307012796680234
-11.617517709732056,14760.0,5468.0,4668.0,-735.0,65.0,-326.0,0.008797251995006127,-0.022017667670083813,0.9997045722673179,0.005347789779418586
-11.625317811965942,14956.0,5720.0,4548.0,-678.0,92.0,-401.0,-0.0004550388119570152,-0.057437033317466656,0.9963008715218264,0.06391677047705742
-11.633105516433716,15076.0,5820.0,4656.0,-538.0,51.0,-349.0,-0.005743880379638263,-0.08790688716477223,0.9899830599607845,0.1103309930067975
-11.640895366668701,15184.0,5980.0,4716.0,-351.0,-251.0,-376.0,0.016739478017560715,-0.11764748560683082,0.9826150487667473,0.14264124558911112
-11.64869213104248,15192.0,6112.0,4832.0,-164.0,-89.0,-298.0,0.02627473849239146,-0.1422559709874985,0.9769216045608348,0.15715296808474336
-11.656475305557251,15272.0,6156.0,4436.0,60.0,-203.0,-277.0,0.04799428669751493,-0.1628612492440482,0.9733914697268462,0.15388894892770896
-11.66426420211792,15192.0,6184.0,4064.0,280.0,-237.0,-266.0,0.07551303907466377,-0.18094652865940056,0.9716258369916516,0.13228517523174535
-11.67205548286438,15000.0,6312.0,3772.0,364.0,-167.0,-157.0,0.09706002060778711,-0.18978523346410617,0.9715743402335301,0.10297678844463662
-11.679842472076416,14836.0,6336.0,3768.0,440.0,-64.0,-122.0,0.11067709006278569,-0.1956584558511222,0.9721915763718375,0.06566497712502717
-11.687665700912476,14792.0,6164.0,3500.0,437.0,80.0,-67.0,0.11154333814256029,-0.19742151466929375,0.9735896241144252,0.02657203564705402
-11.695464372634888,14724.0,6184.0,3604.0,391.0,168.0,-68.0,0.1039828554196213,-0.1996387606365054,0.9742834400407436,-0.010183785773322277
-11.703251838684082,14656.0,6064.0,3740.0,306.0,210.0,-76.0,0.09123323225697587,-0.2030282286637481,0.9740711232437813,-0.04051521393505751
-11.711045980453491,14740.0,5928.0,3908.0,257.0,239.0,-60.0,0.07511192042263037,-0.20514347063670738,0.9735404620293445,-0.06703226579223887
-11.718852519989014,14924.0,5872.0,4136.0,197.0,188.0,-44.0,0.06228069754609352,-0.20643878470804541,0.9725569981669635,-0.08739009210375198
-11.72664761543274,15092.0,5724.0,4468.0,87.0,96.0,-67.0,0.05507601379355221,-0.2109144867282886,0.9711340577599339,-0.0968522268793052
-11.734472513198853,14848.0,5636.0,4592.0,28.0,13.0,-46.0,0.053993366647936095,-0.2145781264939725,0.9701059608515081,-0.09967631969896654
-11.742300033569336,15088.0,5520.0,4464.0,251.0,252.0,254.0,0.03942771353164723,-0.1895661638030487,0.9731625774426916,-0.12435723867857332
-11.750096082687378,14992.0,5388.0,4360.0,-2.0,8.0,-64.0,0.03790946599431738,-0.19493419982774682,0.9721398148708806,-0.12452995811591491
-11.757897853851318,14772.0,5356.0,4272.0,-250.0,110.0,-196.0,0.02206973354027663,-0.21112162208676252,0.9714684158368408,-0.10578139997359774
-11.765692472457886,14720.0,5364.0,4264.0,76.0,214.0,-366.0,0.0018284140180026987,-0.2398791695341424,0.963751015061398,-0.11678451050509178
-11.773490190505981,14616.0,5628.0,4176.0,178.0,0.0,-460.0,0.0007487577628762911,-0.2783056851450533,0.9514196957183989,-0.1317040150369911
-11.781284809112549,14836.0,5796.0,4032.0,262.0,276.0,-262.0,-0.018924466383384332,-0.29664854142173736,0.9412887035733731,-0.16005337850110574
-11.78911280632019,14868.0,5896.0,4140.0,342.0,281.0,-439.0,-0.039354249610116104,-0.3288896375052564,0.9233006928592958,-0.1944188261070156
-11.796916961669922,15292.0,6432.0,3872.0,427.0,196.0,-359.0,-0.04904713687614505,-0.35551246911990936,0.9038548139088596,-0.23292002498346678
-11.804698944091797,15140.0,6572.0,4308.0,461.0,124.0,-301.0,-0.05070970152746588,-0.378279574068757,0.8835180515570136,-0.27153073967095054
-11.812464952468872,15132.0,6568.0,4132.0,538.0,-14.0,-211.0,-0.03694864120435919,-0.39679046999945616,0.8627393435211048,-0.3112441902614978
-11.820288181304932,15140.0,6380.0,4136.0,549.0,-68.0,-163.0,-0.017348229064816863,-0.41219582149994755,0.8413042562591674,-0.34928611779815594
-11.828073740005493,15260.0,6412.0,4200.0,502.0,-157.0,-46.0,0.01070191198078872,-0.4207129098116642,0.8236765586229509,-0.38005663179690785
-11.835869073867798,15204.0,6312.0,4072.0,441.0,-140.0,36.0,0.03799972231874519,-0.42205373983835814,0.8095411215025389,-0.40628787132840366
-11.843745946884155,15208.0,6172.0,3984.0,379.0,-121.0,89.0,0.06350444876062211,-0.41858053968551007,0.7984377141580989,-0.42808262449460216
-11.851540565490723,15064.0,5968.0,4056.0,325.0,-66.0,133.0,0.0847863081482902,-0.40982607417600947,0.790366606126164,-0.44740864854925655
-11.859342336654663,14936.0,5736.0,3796.0,360.0,122.0,153.0,0.09504112563882802,-0.39164422248076897,0.7821449666087608,-0.4752170437214126
-11.867130279541016,14852.0,5552.0,3420.0,411.0,264.0,28.0,0.09202110036614337,-0.3750887406217314,0.7675012335601595,-0.5116467631382425
-11.874959468841553,14772.0,5124.0,3400.0,488.0,446.0,-32.0,0.07643505469195569,-0.3528701466273352,0.7469447656179982,-0.5583134058477501
-11.882752895355225,14696.0,5368.0,3596.0,555.0,522.0,-94.0,0.054661691396669876,-0.3291910396628678,0.718812568010878,-0.6098801939470918
-11.89055347442627,14608.0,5436.0,3688.0,596.0,595.0,-199.0,0.023658322125656262,-0.3063696524370208,0.682189716869553,-0.663472011510099
-11.89834451675415,14708.0,5584.0,3964.0,617.0,604.0,-506.0,-0.025156683653001898,-0.29920478386494986,0.6316783736507681,-0.7147209741163556
-11.906141757965088,14888.0,5700.0,4236.0,632.0,517.0,-256.0,-0.05312885277085869,-0.2817863388178571,0.5826995746941073,-0.7604176417668035
-11.91393494606018,15060.0,5828.0,4228.0,629.0,405.0,-228.0,-0.07337371046172579,-0.26893368389795946,0.532104992047032,-0.7994718567384216
-11.921772480010986,15144.0,5692.0,4316.0,657.0,261.0,-143.0,-0.08005072836693237,-0.2612187338205392,0.48014474538965635,-0.8335572430636183
-11.929565191268921,14980.0,6040.0,4228.0,624.0,134.0,-123.0,-0.08041349505277778,-0.2607517771173863,0.4301656888659527,-0.860522899559333
-11.93735933303833,14924.0,5900.0,4252.0,621.0,137.0,-63.0,-0.07618869907047199,-0.256992314273688,0.38037881099564674,-0.8851339970217736
-11.945184469223022,14816.0,6116.0,3932.0,566.0,49.0,-39.0,-0.0681928913428828,-0.2581705784460532,0.33487428262322355,-0.9036353782542544
-11.952977180480957,14672.0,6056.0,4016.0,521.0,120.0,-15.0,-0.06121293784678593,-0.2522057051884609,0.2922418076997719,-0.9204564000227964
-11.960775375366211,14916.0,6136.0,4040.0,463.0,155.0,-21.0,-0.05673538800982131,-0.2427885428135192,0.2533533051338258,-0.9346908162615217
-11.968563795089722,14900.0,6160.0,4120.0,416.0,288.0,-21.0,-0.056059925271866866,-0.22185856266762533,0.21716301023288603,-0.9489342916852355
-11.97635269165039,14852.0,6184.0,4604.0,439.0,355.0,27.0,-0.05208783192001669,-0.19412242881642566,0.17920407887488632,-0.9630624271099395
-11.984154224395752,14916.0,6144.0,4264.0,472.0,420.0,46.0,-0.04680471630154837,-0.16028117193652044,0.13803605771479355,-0.9762506395517215
-11.991936445236206,14952.0,5980.0,4540.0,437.0,511.0,-38.0,-0.05006228870147235,-0.11907054672899053,0.09787138929056839,-0.9867812134966716
-11.999753475189209,15028.0,6140.0,4548.0,469.0,270.0,-66.0,-0.053162732243196474,-0.09861585911408974,0.055420635782358035,-0.9921578449828977
-12.00753927230835,15048.0,5892.0,4612.0,521.0,532.0,-89.0,-0.0588597442131799,-0.05558672823513183,0.006942819218161938,-0.9966932544251399
-12.015326976776123,14948.0,5932.0,4692.0,574.0,489.0,-78.0,-0.063025602633878,-0.016325451942737775,-0.04587902582751316,-0.9968231377835389
-12.023155212402344,14952.0,5876.0,4644.0,580.0,407.0,-134.0,-0.07207046963306998,0.01607761612512137,-0.09865956592056108,-0.9923777747002239
-12.030974864959717,14872.0,5884.0,4736.0,592.0,244.0,-130.0,-0.08189264150488036,0.034230041106251,-0.15111347745146933,-0.9845235479589819
-12.038762331008911,14816.0,6016.0,4652.0,586.0,163.0,-75.0,-0.0877611119769608,0.04465323758070418,-0.20218061605934512,-0.9743854853639765
-12.046557903289795,14876.0,5936.0,4404.0,544.0,36.0,-64.0,-0.09451189969234802,0.04430937662189875,-0.24823508224796206,-0.9630594602106713
-12.05436372756958,15004.0,5920.0,4528.0,476.0,-68.0,-57.0,-0.10244274921009845,0.03555660621085549,-0.28724279367690597,-0.9516999466059296
-12.06215214729309,14888.0,5984.0,4136.0,439.0,-185.0,253.0,-0.08723810832269031,0.009602443488087595,-0.3225077285143059,-0.9424892946786608
-12.069932460784912,14728.0,6032.0,4124.0,391.0,-210.0,77.0,-0.0869693622201847,-0.01311331553766223,-0.35288362707562854,-0.9315242974461658
-12.077725410461426,14720.0,5992.0,3924.0,357.0,-151.0,88.0,-0.08389034418598816,-0.031095942336048687,-0.3804422140974004,-0.9204668240926761
-12.085525512695312,14744.0,5952.0,4024.0,276.0,-59.0,65.0,-0.07972809871633618,-0.040303748214988847,-0.40187649519278257,-0.9113255843914766
-12.093318939208984,14648.0,5836.0,4072.0,264.0,29.0,31.0,-0.07516462909880194,-0.041208642688247483,-0.4228419134619051,-0.9021401457202238
-12.101119995117188,14764.0,5780.0,4224.0,237.0,124.0,-14.0,-0.07068198899452215,-0.032767914846152796,-0.44222827517896357,-0.8935124357392303
-12.108912944793701,14852.0,5788.0,4364.0,217.0,207.0,-74.0,-0.06767693453912828,-0.015389555501720829,-0.4604522294098683,-0.8849670833111976
-12.116710186004639,15012.0,5780.0,4388.0,240.0,216.0,-120.0,-0.06776829614637428,0.004417182376427104,-0.4801907680364627,-0.8745311731606958
-12.124551057815552,15000.0,5768.0,4532.0,507.0,174.0,-116.0,-0.06930083174349788,0.0192700003023441,-0.5192588916531202,-0.8515845614189939
-12.132384300231934,15020.0,6132.0,4652.0,225.0,156.0,-151.0,-0.07365527064934714,0.03608243931842762,-0.5364500862287792,-0.8399370593464361
-12.140169143676758,14992.0,5820.0,4500.0,229.0,67.0,-227.0,-0.08769616787287399,0.04989009827171183,-0.5527054392690677,-0.8272466727870464
-12.147961378097534,14852.0,5844.0,4444.0,206.0,24.0,-187.0,-0.10076080936324588,0.058820544494920995,-0.5667603727411579,-0.8155795992618308
-12.155774354934692,14860.0,5848.0,4264.0,190.0,20.0,-188.0,-0.11395310780139832,0.06763403678985361,-0.5793197511619652,-0.8042567700700756
-12.163604497909546,14756.0,5812.0,4160.0,147.0,40.0,-200.0,-0.12666407417185233,0.07886165865575816,-0.5886974834723636,-0.7944635448285567
-12.171401023864746,14704.0,5944.0,4088.0,102.0,57.0,-131.0,-0.13336415699084808,0.08820186012298455,-0.5954140067403181,-0.7873478228066719
-12.17918848991394,14708.0,5672.0,4124.0,111.0,114.0,-171.0,-0.1398790137585327,0.10341162219372255,-0.6029133099385233,-0.7786112242988649
-12.186975240707397,14768.0,5972.0,4188.0,17.0,151.0,-131.0,-0.14083133861337266,0.12014952385619487,-0.604625672787565,-0.7746989233164582
-12.194767236709595,14732.0,5968.0,4188.0,25.0,186.0,-203.0,-0.14482849154792513,0.14290381671755137,-0.6062904958563732,-0.7687750268041634
-12.202547073364258,14812.0,5940.0,4592.0,-42.0,195.0,-260.0,-0.15124286354987854,0.1700309815283633,-0.6024423202179966,-0.7650348438836567
-12.210335493087769,14804.0,5984.0,4408.0,-24.0,188.0,-270.0,-0.15884060028386687,0.19684437466575982,-0.5990685055970411,-0.7596965719717544
-12.21812891960144,14904.0,6096.0,4564.0,-11.0,153.0,-262.0,-0.1678468411311542,0.22059812566465029,-0.5957559648025809,-0.7538161150291776
-12.225928783416748,14964.0,6172.0,4380.0,10.0,98.0,-490.0,-0.19488443902411112,0.25198086904100475,-0.5878700818736211,-0.743595631981186
-12.233723878860474,15108.0,6128.0,4552.0,7.0,245.0,-135.0,-0.19106628203982237,0.27445857126636747,-0.5893614168020003,-0.7354041670476461
-12.241518020629883,15116.0,6104.0,4744.0,110.0,-96.0,-29.0,-0.20038200653640612,0.26778636893114993,-0.5940911077226788,-0.7315690451324155
-12.249299049377441,15340.0,6100.0,4612.0,84.0,-238.0,-238.0,-0.2296786386648157,0.2631972949681551,-0.5894743428473762,-0.7283508124435483
-12.257086992263794,15020.0,5996.0,4368.0,145.0,-329.0,78.0,-0.2447545735364531,0.23509392353966332,-0.5935944273895062,-0.7297065859781178
-12.26486587524414,14936.0,5844.0,4356.0,114.0,-342.0,124.0,-0.2566753221799822,0.20418666550663095,-0.5957684613900945,-0.7331340430139397
-12.272666692733765,14740.0,5740.0,4124.0,91.0,-299.0,21.0,-0.2722999004350415,0.18169686104367175,-0.5950454359189703,-0.7340026867130294
-12.280471563339233,14608.0,5636.0,3996.0,59.0,-169.0,22.0,-0.2804687109093991,0.1681419972513304,-0.5950802147534684,-0.7341288095219527
-12.288264989852905,14488.0,5644.0,4024.0,22.0,-53.0,-112.0,-0.2906044527858152,0.16985122086074975,-0.5935073027569094,-0.7310599813745708
-12.296054124832153,14628.0,5652.0,3952.0,-14.0,155.0,-261.0,-0.29882046755334707,0.19338938030741748,-0.5924649782240736,-0.7226978105221157
-12.30385136604309,14664.0,5744.0,4068.0,31.0,196.0,-347.0,-0.3108176125383758,0.2226011612588125,-0.593315898738467,-0.7083906966119313
-12.311689853668213,14708.0,5700.0,4248.0,8.0,279.0,-350.0,-0.31784055090762925,0.2574239753976906,-0.5941306342163422,-0.6926175500049583
-12.319482564926147,14824.0,6028.0,4104.0,8.0,282.0,-328.0,-0.32291611200030124,0.29092260872735926,-0.5946561643794409,-0.6763677006683628
-12.327261924743652,14896.0,6184.0,4468.0,-251.0,220.0,-291.0,-0.3219892561934039,0.32572786128825915,-0.57822994066035,-0.6751847265752708
-12.33509612083435,14928.0,6164.0,4516.0,-1.0,171.0,-248.0,-0.32776426667380965,0.3481172351315226,-0.5757440566737484,-0.6632524084396677
-12.342914581298828,15028.0,6148.0,4436.0,31.0,62.0,-131.0,-0.33308117543504234,0.3572666988640278,-0.5753026672621618,-0.6560825233876094
-12.350785970687866,15000.0,6184.0,4508.0,67.0,-24.0,-25.0,-0.3377366114269921,0.35508787381496887,-0.5776679887419623,-0.6527988035790154
-12.358604907989502,14944.0,6388.0,4100.0,19.0,-108.0,253.0,-0.32919154723374033,0.3354126409413448,-0.5832588744302619,-0.6625257511410049
-12.366401672363281,14848.0,5948.0,4348.0,69.0,-66.0,33.0,-0.3325831773329975,0.327810592292683,-0.5863120423560567,-0.6619417155037729
-12.374207973480225,14704.0,5836.0,4336.0,37.0,-41.0,17.0,-0.3346866297321794,0.32338288792771197,-0.5877531360806413,-0.6617813979717313
-12.381999254226685,14676.0,5888.0,4276.0,30.0,38.0,-111.0,-0.3399099446403424,0.3302673687223412,-0.5874457066538104,-0.6559666427691471
-12.389826774597168,14628.0,5768.0,4124.0,52.0,139.0,-147.0,-0.3425764839103493,0.3440575655613699,-0.5902287361276214,-0.6448998242369092
-12.397620916366577,14640.0,5744.0,4272.0,56.0,165.0,-240.0,-0.34908924121015533,0.363814687321121,-0.5909276181158215,-0.6297460798676836
-12.405584335327148,14608.0,5984.0,4328.0,89.0,263.0,-347.0,-0.3570975200765678,0.39307116069113923,-0.5923899833521369,-0.6058469537863016
-12.41333794593811,14632.0,6040.0,4316.0,121.0,21.0,-322.0,-0.37696775212084715,0.4067950202810702,-0.5881520349149458,-0.5886342745380085
-12.421131134033203,14748.0,6176.0,4304.0,186.0,332.0,-322.0,-0.3826620094775695,0.43377971631183443,-0.5966589505539184,-0.5562400928941653
-12.428946495056152,14792.0,6316.0,4596.0,15.0,322.0,-297.0,-0.3805567216649883,0.4639791248256515,-0.5964840481002525,-0.5330166354660566
-12.436742544174194,14780.0,6440.0,4336.0,290.0,317.0,-224.0,-0.3858289463502025,0.4802745619521884,-0.6109162754534146,-0.4972460896639144
-12.444575071334839,14780.0,6440.0,4344.0,365.0,330.0,-157.0,-0.3899080161430167,0.4901349414518629,-0.6306781876936218,-0.45824065913326
-12.45240044593811,14740.0,6196.0,4276.0,356.0,335.0,-88.0,-0.38980770653869234,0.4957613229818807,-0.6519698382482736,-0.42095842142997913
-12.46018385887146,14668.0,6648.0,4172.0,429.0,418.0,-94.0,-0.38744997686395605,0.5011413433234824,-0.6769707718945859,-0.37476718565064393
-12.467979431152344,14708.0,6276.0,4252.0,417.0,470.0,-1.0,-0.37733730187404185,0.5016961275748452,-0.705432028974392,-0.3290641406897684
-12.475776672363281,14668.0,6256.0,4248.0,448.0,573.0,26.0,-0.360149999439512,0.5007716166909366,-0.7368548718490969,-0.2767032049917677
-12.48360800743103,14352.0,6204.0,4328.0,439.0,671.0,-5.0,-0.3354266622272328,0.5022591322691712,-0.7664859031721226,-0.2184584137947825
-12.491404056549072,14428.0,6168.0,4308.0,257.0,715.0,29.0,-0.29758683074676395,0.5053114868933173,-0.7918757046228333,-0.1703973233588279
-12.49920392036438,14328.0,6388.0,4164.0,543.0,727.0,52.0,-0.26959486423001605,0.49686186820290995,-0.8185828420655048,-0.1018284036144839
-12.507004499435425,14428.0,6016.0,3944.0,765.0,789.0,-67.0,-0.24578263325793845,0.48841293311920625,-0.8372071599578667,-0.011308194637980627
-12.51479196548462,15048.0,5824.0,4064.0,454.0,762.0,-118.0,-0.20884896871112052,0.48657701845430706,-0.8464077663014231,0.056734526745661186
-12.52260684967041,14876.0,6032.0,4792.0,439.0,671.0,-123.0,-0.17678237352729076,0.48314268468291366,-0.8491223554694175,0.11963429311661515
-12.53040361404419,14808.0,6304.0,5092.0,414.0,760.0,-151.0,-0.13584519193355593,0.4786211588452907,-0.8476691035421519,0.18418729878623827
-12.538204669952393,15068.0,6396.0,5048.0,455.0,483.0,-208.0,-0.11546156038312687,0.47998891735799054,-0.835844983751269,0.2400883804461154
-12.545991897583008,15176.0,6040.0,5160.0,526.0,402.0,-298.0,-0.10161925018817798,0.487053282262458,-0.8147367714556967,0.2977526179003415
-12.553829193115234,15220.0,6100.0,5188.0,582.0,293.0,-385.0,-0.09520608174868948,0.5005941863898002,-0.7841063844124271,0.3542858174898723
-12.561621189117432,15080.0,6248.0,4920.0,597.0,243.0,-337.0,-0.09393996308845698,0.510190393308908,-0.7513897168218632,0.4077922747730778
-12.569421768188477,15060.0,6632.0,4848.0,653.0,169.0,-284.0,-0.10150683529597368,0.5164331090716443,-0.7153808890171574,0.4595904588563747
-12.57720136642456,14956.0,6532.0,4384.0,667.0,161.0,-111.0,-0.11673466913106019,0.510102785628739,-0.6837332867920585,0.5086029469529165
-12.585034608840942,14740.0,6508.0,4176.0,730.0,182.0,-241.0,-0.12725367174378038,0.5078128626566136,-0.6408592078719191,0.5614553190005396
-12.592830181121826,14696.0,6508.0,4048.0,785.0,222.0,136.0,-0.1557660744464428,0.4794174167322178,-0.6092168039311943,0.6121688953166545
-12.60063123703003,14504.0,6348.0,4056.0,781.0,327.0,151.0,-0.1785017197053948,0.4421206740511526,-0.576533543025745,0.663532606135488
-12.608422040939331,14424.0,6256.0,3888.0,790.0,448.0,132.0,-0.19334332238137147,0.3960365772494238,-0.5410112939110846,0.716296146179601
-12.616212368011475,14460.0,6084.0,4096.0,512.0,762.0,67.0,-0.17854601899506034,0.33560729426340336,-0.522366409499533,0.7632970570916536
-12.62403392791748,14460.0,6004.0,4172.0,712.0,563.0,-7.0,-0.17259880619460136,0.2865422092771069,-0.481851622113635,0.8098902571763977
-12.63182783126831,14516.0,6060.0,4392.0,660.0,581.0,-70.0,-0.15912615566695337,0.23790869320957297,-0.4407407082160033,0.8507796121200987
-12.639652490615845,14660.0,6052.0,4608.0,596.0,576.0,-141.0,-0.13838089430009015,0.19193062102051556,-0.4003130066403824,0.8853038244139262
-12.647440433502197,14792.0,6020.0,4848.0,590.0,538.0,-120.0,-0.11978300535162728,0.14724929880733956,-0.35815023319171835,0.9141652400383622
-12.655234813690186,14796.0,6072.0,4864.0,623.0,442.0,-87.0,-0.10668679238633123,0.10815769762855554,-0.31107034682204987,0.9381658062954625
-12.663036823272705,14844.0,6372.0,4912.0,583.0,368.0,-32.0,-0.0993072739220126,0.07356169671286412,-0.26579839316280407,0.9560742420518263
-12.670818567276001,14880.0,6232.0,4784.0,652.0,345.0,37.0,-0.09829502737745396,0.03843247469686124,-0.21400309817289795,0.9711146721443055
-12.678612232208252,14892.0,6196.0,4860.0,709.0,510.0,165.0,-0.1047570522001796,-0.013653838353967012,-0.15819475312736253,0.9817402674819371
-12.686404943466187,14676.0,6260.0,4268.0,706.0,282.0,11.0,-0.10070581270023117,-0.04405512733972844,-0.09988336271344478,0.9889088931223748
-12.694187879562378,14728.0,6232.0,4264.0,750.0,305.0,307.0,-0.12129520173146965,-0.07914140138396315,-0.036390526900477435,0.9887870560316868
-12.70197057723999,14808.0,5916.0,3924.0,751.0,387.0,326.0,-0.14257185040102877,-0.12086188422164537,0.026642613030776183,0.9820162135049058
-12.709758996963501,14564.0,6036.0,3936.0,728.0,576.0,232.0,-0.15560540844368861,-0.17784833428418578,0.08417882751248382,0.9680242000353281
-12.717555046081543,14476.0,5980.0,3772.0,686.0,743.0,210.0,-0.16753612523322012,-0.24712367840447494,0.13490995938802258,0.9448073016079006
-12.725385904312134,14548.0,5888.0,4088.0,640.0,833.0,132.0,-0.17376581040883246,-0.32199836937415877,0.177736937910136,0.9135272706141142
-12.733225107192993,14672.0,5724.0,4104.0,640.0,949.0,68.0,-0.17514504280413787,-0.4040841076449609,0.21533944969436566,0.8715900236551815
-12.741041421890259,14760.0,5684.0,4324.0,636.0,943.0,-45.0,-0.16630138359778007,-0.48383673172980074,0.24662236073538082,0.8230572750591518
-12.748846530914307,14960.0,5700.0,4708.0,652.0,875.0,-157.0,-0.14575585791187726,-0.5568369370082957,0.27296987037004417,0.7708276755136347
-12.756640195846558,15044.0,5712.0,5004.0,689.0,819.0,-167.0,-0.12011091970444006,-0.6218153303158291,0.2995399766787636,0.7135789124709724
-12.76444125175476,15228.0,5756.0,5344.0,727.0,742.0,-196.0,-0.08756674343222215,-0.6778288949464514,0.3250954966541438,0.6536000096967131
-12.77222990989685,15228.0,5664.0,5328.0,707.0,582.0,-309.0,-0.044551448380392274,-0.7225916068002588,0.341548150413909,0.599350814780348
-12.780027151107788,15124.0,5676.0,5204.0,725.0,504.0,-318.0,0.002699799998612425,-0.7586878345649393,0.3563197483071943,0.5453638397706881
-12.787811279296875,15348.0,5696.0,4904.0,752.0,475.0,-270.0,0.05034323745135577,-0.786918557089479,0.37316948604002753,0.4888448400461543
-12.795644283294678,14988.0,5716.0,5064.0,709.0,444.0,-313.0,0.09757690561786152,-0.8104786461129084,0.382751423053714,0.43255573032314215
-12.803433179855347,14812.0,5784.0,4520.0,690.0,475.0,-365.0,0.14378709474833742,-0.8320918507484664,0.385834920537025,0.3715909544055292
-12.811232805252075,14716.0,5584.0,4404.0,649.0,583.0,-422.0,0.1842678076713628,-0.8540293312187588,0.38221148571697977,0.3009878015136961
-12.819030046463013,14664.0,5692.0,4160.0,571.0,698.0,-267.0,0.2098061682244614,-0.8691826188081512,0.3872504012989478,0.2248111955187662
-12.826845645904541,14640.0,5800.0,4140.0,505.0,779.0,-530.0,0.23113495883922694,-0.8892909435256283,0.36961791343271977,0.13827814952236359
-12.834619522094727,14676.0,5840.0,4184.0,495.0,857.0,-566.0,0.24746985743897393,-0.9034641245756246,0.34722945525049637,0.04407891412430223
-12.842406511306763,14680.0,5928.0,4132.0,505.0,854.0,-532.0,0.2621447288201386,-0.9076093069617954,0.3240905709533083,-0.04990780387178031
-12.850214958190918,14836.0,6032.0,4308.0,472.0,853.0,-484.0,0.2720211541060231,-0.902730130148978,0.3018237432037457,-0.14136913340088075
-12.858019351959229,14816.0,6152.0,4312.0,535.0,797.0,-382.0,0.2872434917139809,-0.8866626294382011,0.2828597016306396,-0.22651919834557319
-12.865845441818237,15076.0,6188.0,4368.0,763.0,746.0,-289.0,0.3206118962090707,-0.8559399843582319,0.2628379610042234,-0.30901611841649324
-12.873676538467407,15080.0,5888.0,4320.0,573.0,753.0,-260.0,0.3378297100507603,-0.8225397351972678,0.24805162636064212,-0.3844084568378648
-12.881467342376709,14772.0,6088.0,4180.0,633.0,801.0,-512.0,0.3469563752300687,-0.7841826761440364,0.21252867229777758,-0.46851933532580414
-12.889272212982178,14656.0,6060.0,4272.0,682.0,921.0,-219.0,0.36561690146395603,-0.7261515874621088,0.1964113652638004,-0.5481338604623557
-12.897063255310059,14572.0,6020.0,4184.0,752.0,1043.0,-340.0,0.3764981195351486,-0.6536720574326351,0.17087509040710017,-0.6338483342225079
-12.904865741729736,14616.0,6028.0,4308.0,757.0,1138.0,-373.0,0.3790674391851714,-0.5670706058535897,0.1438270194964034,-0.7169746111189852
-12.912651538848877,14388.0,6084.0,4440.0,710.0,1218.0,-451.0,0.36750050628796993,-0.4691397434292302,0.11617230043116623,-0.7945786780588645
-12.920451402664185,14448.0,6236.0,4772.0,714.0,1288.0,-452.0,0.3490487734290332,-0.35834306373560304,0.08839544677899579,-0.8613602309307127
-12.928274393081665,14580.0,6364.0,4908.0,668.0,1207.0,-431.0,0.3255321994950296,-0.248747519383806,0.06071022268083353,-0.9102020256813181
-12.936068534851074,14680.0,6428.0,5044.0,673.0,1130.0,-336.0,0.30525142069198363,-0.1408525059274689,0.031579807203113076,-0.9412676864295789
-12.943856000900269,14828.0,6504.0,5364.0,673.0,978.0,-198.0,0.2929114560910468,-0.043122564806740975,-0.00031920076419175226,-0.9551665935353808
-12.951670169830322,14788.0,6456.0,5480.0,634.0,784.0,-48.0,0.2901861135976898,0.03804061887926608,-0.03339615336858386,-0.9556304870244215
-12.959460973739624,14888.0,6484.0,5660.0,713.0,575.0,-246.0,0.2680819557734862,0.1041523390270946,-0.0774200422594391,-0.9546153635472219
-12.967220783233643,15084.0,6160.0,5692.0,676.0,418.0,115.0,0.27371461569154365,0.15336733232206898,-0.12487681021768782,-0.94125690053412
-12.975003719329834,14804.0,6300.0,5400.0,685.0,280.0,111.0,0.276191932894375,0.19084794532762184,-0.17574259021388128,-0.9254240217074603
-12.982794046401978,14684.0,6280.0,5204.0,696.0,189.0,115.0,0.2763084209281123,0.22041436125300715,-0.2290125127375515,-0.9069864579404011
-12.990576267242432,14832.0,6432.0,4972.0,694.0,190.0,186.0,0.28098820871844743,0.24769382390740985,-0.2825024768201521,-0.8831114010983002
-12.998368740081787,14832.0,6440.0,4920.0,710.0,236.0,227.0,0.2883988230927599,0.27680427219077053,-0.3357039275918054,-0.8529410218386057
-13.006155967712402,14460.0,6564.0,4644.0,772.0,306.0,226.0,0.29483700057181245,0.3112793598594703,-0.38996323729436194,-0.8149263627949438
-13.013943433761597,14456.0,6524.0,4548.0,815.0,471.0,218.0,0.30329698705827735,0.3568463262052889,-0.44028631925057005,-0.7660415094470697
-13.02173376083374,14452.0,6484.0,4520.0,898.0,614.0,175.0,0.3093473992731885,0.4128472572195336,-0.48737612531445373,-0.7045039682235245
-13.029558897018433,14448.0,6448.0,4544.0,967.0,685.0,183.0,0.3133366248195274,0.4705598354713452,-0.5321144660511709,-0.6302759679751121
-13.037357091903687,14528.0,6368.0,4720.0,1034.0,706.0,222.0,0.3140935637044372,0.5240159758052291,-0.5753411127346847,-0.5438153127097056
-13.045187711715698,14364.0,6316.0,4912.0,1095.0,640.0,275.0,0.30738391150266403,0.5668711712474612,-0.6184439384343434,-0.44910945344277936
-13.053013801574707,14572.0,6168.0,4928.0,1067.0,547.0,276.0,0.2933908992171455,0.5985147246411093,-0.6555177423311264,-0.3549625249705027
-13.060796022415161,14476.0,6068.0,4864.0,1021.0,483.0,501.0,0.2817143798936942,0.6073661458343034,-0.6969366369004496,-0.2569488221443837
-13.06859278678894,14576.0,5832.0,5360.0,887.0,447.0,180.0,0.26502664210421784,0.6257727482121601,-0.712629355770009,-0.1741515083620732
-13.076404809951782,14452.0,5772.0,5064.0,798.0,506.0,237.0,0.2557254249465664,0.634844773985913,-0.7233893002493502,-0.09101944991829321
-13.084200143814087,14484.0,5784.0,4984.0,654.0,568.0,-137.0,0.25365150314358414,0.6606351456328319,-0.7062384416231547,-0.021198652820052694
-13.091965436935425,14432.0,5812.0,4892.0,640.0,622.0,-310.0,0.2537856846883242,0.6926803116093555,-0.6734712990674102,0.04715104970729246
-13.09977412223816,14452.0,5964.0,4868.0,595.0,684.0,-377.0,0.2587533492182092,0.7225253389405742,-0.6307387099097425,0.11477159351756601
-13.107588768005371,14504.0,6208.0,4952.0,606.0,676.0,-417.0,0.2610681890108678,0.7495183748816252,-0.5808633906519127,0.1807299858954147
-13.115389823913574,14512.0,6376.0,5280.0,611.0,662.0,-452.0,0.26090876750583664,0.7728921188671626,-0.5245017773508371,0.24384887366446079
-13.123175382614136,14508.0,6552.0,5196.0,599.0,590.0,-405.0,0.25541001475261094,0.789858203754961,-0.46939147324147623,0.3009341907681047
-13.13099193572998,14704.0,6588.0,5312.0,574.0,498.0,-313.0,0.24395815543024427,0.8002929480494455,-0.4204998468644609,0.35099215730321537
-13.138781070709229,14792.0,6404.0,5512.0,596.0,325.0,-227.0,0.22089662884891412,0.8097281809572255,-0.3786695276285633,0.39006966194828385
-13.146587133407593,14928.0,6580.0,5616.0,549.0,125.0,-73.0,0.18859744950619114,0.8174150612664386,-0.35191855276620865,0.4152312029140891
-13.15437126159668,14984.0,6396.0,5400.0,759.0,-95.0,52.0,0.1294655756188869,0.8298507939110276,-0.3288890133943845,0.43176190364988887
-13.162154912948608,14860.0,6416.0,5240.0,470.0,-251.0,180.0,0.08144672860900344,0.8384027570109367,-0.32659714227750414,0.428697508846878
-13.16994309425354,14672.0,6388.0,5152.0,411.0,-370.0,246.0,0.03168179974501409,0.8469427596796117,-0.33132868702581975,0.4146149135582883
-13.177734851837158,14472.0,6240.0,4900.0,284.0,-393.0,242.0,-0.009320358758709395,0.8539722050609588,-0.33958925124331174,0.3941113349498331
-13.18551778793335,14468.0,6384.0,4808.0,165.0,-331.0,131.0,-0.0358124172260649,0.8608180451189066,-0.3431501370066861,0.37410927206149647
-13.19330620765686,14388.0,6028.0,4608.0,121.0,-259.0,73.0,-0.05492748489329203,0.8664073991411051,-0.34370541540334465,0.35803320731359206
-13.201087713241577,14480.0,6000.0,4656.0,29.0,-227.0,44.0,-0.06519573989809616,0.8718481265281364,-0.34491429854379335,0.3415618339752872
-13.208876132965088,14532.0,5960.0,4612.0,-251.0,-160.0,-45.0,-0.049456802760892746,0.8790845157773398,-0.34789180918070306,0.3220803127888562
-13.21664834022522,14648.0,6064.0,4684.0,-12.0,-174.0,-30.0,-0.05287578394906451,0.884820223522505,-0.3450887028584508,0.30856297684075434
-13.224445581436157,14636.0,6116.0,4744.0,-9.0,-151.0,-53.0,-0.05520381468575893,0.890425443401437,-0.34046357104380404,0.29695054365936946
-13.232232332229614,14576.0,6144.0,4868.0,27.0,-170.0,-13.0,-0.0619206755335086,0.8949748953295844,-0.3378545093331283,0.2846754242897418
-13.24002742767334,14568.0,6100.0,4636.0,-17.0,-130.0,-28.0,-0.0636368494297894,0.8990504423480566,-0.3353238488116079,0.2742563945044558
-13.247807264328003,14472.0,6012.0,4756.0,-4.0,-140.0,-84.0,-0.06531622931144616,0.904780464766452,-0.3279781987118343,0.2636975576968394
-13.255652904510498,14408.0,6080.0,4744.0,-12.0,-89.0,-163.0,-0.0630702913134488,0.9114329161713107,-0.31479498459958943,0.25732527148346956
-13.263465404510498,14400.0,6124.0,4536.0,12.0,-56.0,-212.0,-0.06070473897072129,0.9182694995005618,-0.29725973619373636,0.25442623723097985
-13.271254539489746,14348.0,6216.0,4544.0,51.0,74.0,-5.0,-0.06267483300138994,0.9164437015230148,-0.2960743117329001,0.2618068165249576
-13.279058456420898,14568.0,6276.0,4812.0,96.0,203.0,-327.0,-0.05751656737547675,0.919162870418967,-0.26863383143477465,0.2822540110063643
-13.286837339401245,14400.0,6424.0,4600.0,189.0,337.0,-339.0,-0.056283588417238545,0.9169157502949762,-0.23819007665485217,0.3152192124840035
-13.294650077819824,14380.0,6568.0,4588.0,284.0,368.0,-359.0,-0.061317240170900116,0.9116338765670419,-0.2031386764726255,0.3519922574064969
-13.302463054656982,14456.0,6872.0,4680.0,385.0,481.0,-284.0,-0.07448023943128257,0.898222235026998,-0.1709346942217672,0.3980337181052302
-13.310300350189209,14552.0,6696.0,5036.0,500.0,452.0,-198.0,-0.09978582964359402,0.8805260148497855,-0.14065609662720419,0.4415117074967476
-13.318081378936768,14672.0,6752.0,4952.0,617.0,384.0,-151.0,-0.13630029642045594,0.8603560678561591,-0.10832245531052168,0.47903644054944705
-13.325905561447144,14732.0,6728.0,4992.0,719.0,267.0,-254.0,-0.17662310304582224,0.8408980541943364,-0.06212731256617041,0.5077744961653248
-13.333701133728027,14696.0,6684.0,5172.0,758.0,184.0,194.0,-0.239187915694404,0.8179379106347744,-0.045410370019768734,0.5212529267321709
-13.341500997543335,14692.0,6540.0,5268.0,786.0,92.0,229.0,-0.3044903763512105,0.7943271521446681,-0.027749301726670745,0.5249380557065014
-13.349315881729126,14632.0,6592.0,5228.0,761.0,1.0,291.0,-0.36957102873206676,0.7713484217407868,-0.012939387408873342,0.5179492632038415
-13.357216119766235,14528.0,6196.0,5112.0,704.0,-35.0,196.0,-0.4249283761392206,0.748419314353288,0.006930204046728918,0.5091722472076712
-13.365054368972778,14472.0,6052.0,4992.0,644.0,-236.0,107.0,-0.4706741467049083,0.7336836853472701,0.03738170623775888,0.48864783384110916
-13.372852802276611,14460.0,6028.0,4664.0,572.0,108.0,-27.0,-0.505778513687681,0.704515179863948,0.059136293525222185,0.49431705940746967
-13.380648374557495,14428.0,6008.0,4940.0,468.0,126.0,-106.0,-0.5300648293831328,0.6771635439997451,0.08036229984509803,0.504006658777781
-13.388437509536743,14420.0,6388.0,4948.0,409.0,169.0,-185.0,-0.5467291857934667,0.6488606637436033,0.10154675140096232,0.5193797201737227
-13.396219730377197,14444.0,6096.0,5116.0,384.0,183.0,-222.0,-0.5594619142846287,0.6196400633215821,0.12286442229274906,0.536612422635251
-13.40401840209961,14436.0,6232.0,4968.0,377.0,169.0,-265.0,-0.5686371947289043,0.5898378824817667,0.1466600570648379,0.5542867857183738
-13.411803722381592,14448.0,6260.0,4972.0,362.0,185.0,-269.0,-0.5760039406040176,0.5588711871639422,0.1688942506215786,0.5721513686722987
-13.419634580612183,14488.0,6328.0,4960.0,369.0,213.0,-250.0,-0.5840028663861021,0.5254054929834721,0.18885407253623793,0.5892570400785117
-13.427471160888672,14568.0,6360.0,4996.0,391.0,144.0,-244.0,-0.5911091117739058,0.49350467227328404,0.2128607317473212,0.6014428196448085
-13.435258388519287,14556.0,6372.0,5020.0,328.0,111.0,-225.0,-0.5949700986558508,0.4661678791351444,0.2341397831066276,0.6114545380769285
-13.443053722381592,14508.0,6632.0,5068.0,304.0,65.0,-127.0,-0.6014948937025472,0.4440217677947727,0.25230258915371173,0.6143223633244193
-13.450847864151001,14552.0,6272.0,4868.0,506.0,13.0,-53.0,-0.617794332894075,0.4150892887501568,0.2807886570055987,0.6059610339830822
-13.45863127708435,14572.0,6316.0,5344.0,253.0,-85.0,25.0,-0.6258877087760321,0.4063346259880306,0.2980252659376868,0.5952627055250708
-13.466399431228638,14544.0,6292.0,5200.0,123.0,-100.0,17.0,-0.6283312914763707,0.4050993276406808,0.3095040282502002,0.5876236715735705
-13.474202156066895,14584.0,6368.0,5288.0,54.0,-164.0,-3.0,-0.6254476352962081,0.41029566345100005,0.32158962927961043,0.580562515492938
-13.481992244720459,14524.0,6068.0,5276.0,-14.0,-171.0,0.0,-0.6199406409055332,0.4195420038361498,0.33042402692944495,0.5748722216271316
-13.489832401275635,14596.0,6080.0,5580.0,-65.0,-260.0,11.0,-0.6103174301322932,0.4361481957361738,0.3409665363237513,0.5665943936716789
-13.497654676437378,14664.0,5996.0,5432.0,-130.0,-321.0,15.0,-0.5961602343250577,0.4590198226068419,0.3511235833242416,0.5573203806582173
-13.505455017089844,14660.0,6012.0,5620.0,-129.0,-353.0,52.0,-0.5822751895678348,0.4840534403129178,0.3611251985954992,0.5442760893832578
-13.513245344161987,14644.0,6100.0,5352.0,-166.0,-401.0,71.0,-0.5654811784379997,0.513220237190539,0.37051573370362,0.5287287736150987
-13.521043300628662,14368.0,5896.0,5200.0,-195.0,-434.0,58.0,-0.5448310167692845,0.5440952692910458,0.3801476264685094,0.5124522252772551
-13.528848648071289,14664.0,6380.0,4932.0,-167.0,-386.0,83.0,-0.5273654025452643,0.5714876130399581,0.38694421993701955,0.4955419366688294
-13.53664779663086,14600.0,6092.0,4640.0,-97.0,-321.0,50.0,-0.5135639566598827,0.591105215588148,0.3949620924125248,0.4804702197654454
-13.54443883895874,14840.0,6096.0,4716.0,-34.0,-275.0,42.0,-0.503893163049152,0.6052737501002954,0.40366343291514983,0.4656084198111136
-13.55224609375,14548.0,6140.0,4760.0,-243.0,-200.0,-249.0,-0.47355899881750313,0.6147869599334381,0.4155570864107727,0.4744377477273018
-13.560100317001343,14416.0,6204.0,4552.0,117.0,-163.0,33.0,-0.47518261850911525,0.6176540725563904,0.4253640985110001,0.46018508170001576
-13.567959547042847,14472.0,6188.0,4596.0,161.0,-49.0,21.0,-0.4828057406409725,0.6135124123672882,0.4327392281475322,0.45081914011904006
-13.575783014297485,14540.0,5892.0,4512.0,5.0,-45.0,1.0,-0.4813852198984734,0.6149598773472227,0.43482795459084467,0.44834949450482225
-13.58364200592041,14480.0,6088.0,4844.0,350.0,-23.0,-25.0,-0.4980662485513989,0.5997781034203886,0.4506693209383433,0.4348487114806142
-13.591444253921509,14480.0,6112.0,4768.0,430.0,13.0,6.0,-0.5209319262035169,0.5802708798715748,0.4658299425804691,0.418232111189993
-13.59926176071167,14536.0,6120.0,4740.0,446.0,80.0,-74.0,-0.5436201283708858,0.5534654738737146,0.48188151416139896,0.4073614262166753
-13.607032537460327,14500.0,6080.0,4812.0,470.0,85.0,-85.0,-0.5663569714078199,0.5239379790194093,0.4982638425591957,0.39555267446569464
-13.614847898483276,14840.0,6032.0,4940.0,497.0,136.0,-69.0,-0.591998052925214,0.49100092843889426,0.5113700377088568,0.38334981171058613
-13.622638702392578,14604.0,5932.0,4888.0,502.0,179.0,-169.0,-0.6151019885048243,0.4508157981579559,0.5255747486971586,0.3770753815890592
-13.630478858947754,14524.0,5868.0,5028.0,480.0,221.0,-180.0,-0.6374345053985166,0.4088421261939623,0.5359888185045264,0.3731505776689494
-13.638307332992554,14576.0,5988.0,5024.0,451.0,237.0,-202.0,-0.6572657359087396,0.36596251765729476,0.5441131711117185,0.3715024159989099
-13.646110773086548,14496.0,6092.0,5372.0,398.0,210.0,-187.0,-0.6732601516825905,0.32693437278109,0.5504749772856868,0.3698810395693365
-13.653897285461426,14844.0,6124.0,5180.0,405.0,138.0,-198.0,-0.6844430307445648,0.2887000651033517,0.5606518406941663,0.3658681779012198
-13.661691188812256,14348.0,6120.0,5104.0,359.0,65.0,-219.0,-0.6891664295293403,0.25405645821735295,0.5733840803663165,0.36295405333224845
-13.669481754302979,14552.0,6132.0,5220.0,319.0,-24.0,-173.0,-0.6891837663314806,0.22662414913933443,0.5884835163679237,0.35686745748985205
-13.677290916442871,14556.0,6092.0,5168.0,274.0,-3.0,-197.0,-0.68799941674137,0.19980221731559322,0.6008202935814226,0.3546136649087854
-13.685078382492065,14352.0,6092.0,5312.0,248.0,-65.0,-239.0,-0.6812054057887501,0.17409190258801127,0.6162314958095048,0.3548379181398896
-13.692867040634155,14520.0,6100.0,5052.0,287.0,-27.0,-16.0,-0.6834273639699309,0.1567559250055752,0.6266970717269134,0.3400079387921264
-13.700662612915039,14484.0,6108.0,4968.0,299.0,-65.0,-382.0,-0.672048121694646,0.11965902645513031,0.6439958407013388,0.34540179020075246
-13.708451271057129,14464.0,6376.0,4924.0,326.0,-24.0,-392.0,-0.6616989291161223,0.07900907753480255,0.6585432494572365,0.3496181938457729
-13.71622633934021,14448.0,6424.0,5200.0,297.0,-249.0,-432.0,-0.6355505490726729,0.04450378148578263,0.6839348578546585,0.35542653702026517
-13.724019765853882,14508.0,6628.0,5276.0,284.0,-24.0,-449.0,-0.6207603639112946,0.0026846789849169113,0.6949151750831443,0.36296316966687964
-13.731832265853882,14608.0,6700.0,5256.0,360.0,-98.0,-346.0,-0.6034985832153679,-0.034621773256031385,0.7108636846436291,0.35953249467681603
-13.739675283432007,14660.0,6836.0,5224.0,402.0,-216.0,-263.0,-0.5801769099008202,-0.06520020360351018,0.7331559359475768,0.34874927993162813
-13.747466325759888,14608.0,6884.0,5344.0,460.0,-290.0,-136.0,-0.5543605842449847,-0.08819395268294317,0.7600422136034096,0.3274782479593831
-13.755252838134766,14580.0,6856.0,5240.0,547.0,-360.0,-98.0,-0.5227564602978008,-0.11062382527991436,0.7909158408182175,0.2982284111887477
-13.763037204742432,14588.0,6792.0,5096.0,579.0,-426.0,-70.0,-0.48513330336364197,-0.13047132927601524,0.823021290259943,0.26506389037982736
-13.77082633972168,14572.0,6708.0,4980.0,593.0,-489.0,-238.0,-0.43682882781190335,-0.16092392624627855,0.8525559064164052,0.23755523902549977
-13.778606653213501,14360.0,6552.0,5056.0,573.0,-515.0,32.0,-0.39039265118867267,-0.16928745453268257,0.8824590086301706,0.2005029519064015
-13.78640627861023,14400.0,6424.0,4912.0,524.0,-273.0,47.0,-0.36211285817578326,-0.1784739660427212,0.9003623334917834,0.16238531281485175
-13.794208765029907,14392.0,6324.0,4668.0,444.0,-504.0,63.0,-0.3160835251619494,-0.1800755817598832,0.9219190868307016,0.13315099440965747
-13.801994323730469,14388.0,6128.0,4800.0,381.0,-474.0,60.0,-0.2724078602725239,-0.17997495796893656,0.938990881770223,0.10816235998813768
-13.809825658798218,14352.0,6180.0,4608.0,272.0,-463.0,40.0,-0.23045263329382007,-0.1785812948094686,0.9521103234141927,0.0921207739884946
-13.817617416381836,14496.0,6088.0,4760.0,207.0,-448.0,95.0,-0.1907126029703035,-0.17107127762051358,0.9633132206606051,0.0799434796720092
-13.82541275024414,14568.0,6048.0,4620.0,119.0,-448.0,148.0,-0.1522956668932777,-0.15732962109271217,0.9729123963500939,0.07412751986052885
-13.833215236663818,14548.0,5844.0,4860.0,41.0,-405.0,106.0,-0.11807413842083898,-0.14614521916858145,0.9793406651955193,0.07477923672211075
-13.841049909591675,14472.0,5792.0,4476.0,12.0,-357.0,75.0,-0.08797532725205735,-0.13744916038357768,0.9835433289937388,0.077527995567129
-13.84884762763977,14472.0,5708.0,4300.0,-38.0,-298.0,-53.0,-0.06259170931003606,-0.13963310208123675,0.9845800499879857,0.08477617527627848
-13.85664439201355,14448.0,5660.0,4232.0,-61.0,-169.0,-231.0,-0.04720941010172832,-0.1578417573600255,0.9819084775658795,0.09334341388444302
-13.86444091796875,14444.0,5840.0,4140.0,-131.0,-232.0,-373.0,-0.026191838739627632,-0.18722204770519124,0.975872004624029,0.10925073467758387
-13.872246980667114,14376.0,5736.0,4080.0,-132.0,159.0,-589.0,-0.036344590068452864,-0.2382444431690229,0.9631899450561596,0.11909570023535934
-13.880043029785156,14208.0,5864.0,4132.0,-156.0,352.0,-688.0,-0.06200896955982797,-0.29853367279622123,0.9439039465780269,0.12679855494189277
-13.88783860206604,14240.0,6044.0,4196.0,-164.0,430.0,-883.0,-0.0917203212033513,-0.3737335974032055,0.9132989743621538,0.13340001603991922
-13.89566683769226,14420.0,6236.0,4416.0,-94.0,508.0,-953.0,-0.12376575292422301,-0.45282944021834015,0.8731373225201888,0.13137257132644115
-13.90346384048462,14404.0,6296.0,4624.0,-19.0,538.0,-934.0,-0.15426050510819372,-0.5276263678659098,0.826527180250465,0.12110711293564864
-13.911259174346924,14532.0,6456.0,4792.0,52.0,486.0,-935.0,-0.17643065972271763,-0.5983654483590481,0.7741846234511442,0.10709426376651457
-13.919048309326172,14788.0,6592.0,4624.0,94.0,467.0,-860.0,-0.1944587612951384,-0.6598437677760951,0.7202974748351274,0.08923866890953769
-13.926831483840942,14828.0,6656.0,5016.0,190.0,395.0,-741.0,-0.20213795988170163,-0.7107038040691614,0.6704965984961717,0.06689289544899389
-13.934627771377563,14932.0,6740.0,4996.0,229.0,323.0,-637.0,-0.20280896569163592,-0.7522738770783091,0.6252743009435826,0.04454869111625992
-13.942448377609253,15092.0,6716.0,5052.0,262.0,205.0,-554.0,-0.19445298359310523,-0.7866693165758932,0.5853523400370598,0.02649644396697244
-13.950237512588501,14744.0,6584.0,4988.0,250.0,187.0,-465.0,-0.1856623732083004,-0.8141068135953639,0.5501671179013639,0.00870181661334331
-13.958015441894531,14716.0,6532.0,4888.0,273.0,160.0,-462.0,-0.17350325750587536,-0.8398133422633652,0.514334960845678,-0.008349721142690978
-13.96581745147705,14648.0,6352.0,4876.0,264.0,136.0,-460.0,-0.16051871779735746,-0.863357332683805,0.4778149914633598,-0.023252769096759107
-13.973609924316406,14612.0,6320.0,4612.0,220.0,120.0,-449.0,-0.14981191329672902,-0.8840126350618543,0.4414037181653757,-0.03522512278405523
-13.981406688690186,14608.0,6272.0,4888.0,213.0,99.0,-481.0,-0.13861996159826975,-0.9040211416898538,0.40189781133936076,-0.044815520357336325
-13.989195823669434,14672.0,6312.0,4792.0,242.0,41.0,-410.0,-0.12255693775580918,-0.9203544789836071,0.3677805699100376,-0.05162249915860078
-13.997008323669434,14692.0,6244.0,4768.0,507.0,0.0,-372.0,-0.08346890377793344,-0.9362969990668456,0.33510559736463574,-0.06391486724870947
-14.004806518554688,14684.0,6288.0,4828.0,280.0,-38.0,-282.0,-0.06109641623378835,-0.9462123191023776,0.3105813723595068,-0.06699765850813931
-14.01259732246399,14572.0,6368.0,4764.0,329.0,-14.0,-299.0,-0.03534874445856436,-0.9554258532430767,0.2838182892626555,-0.07320576411705203
-14.020396947860718,14584.0,6260.0,4656.0,313.0,-40.0,-320.0,-0.010369586779127821,-0.9638266680981529,0.2550519450601892,-0.07667549056809114
-14.028200149536133,14516.0,6264.0,4536.0,284.0,-22.0,-350.0,0.011587453889123463,-0.9712643155598308,0.22354366586569727,-0.08086772955750902
-14.036001682281494,14452.0,6220.0,4464.0,274.0,43.0,-451.0,0.03069186370162083,-0.9784342728745861,0.183211034182791,-0.09032220170353017
-14.04379391670227,14396.0,6128.0,4520.0,199.0,202.0,-756.0,0.03833683963418488,-0.9859450237240738,0.11731107038035132,-0.11260910126101935
-14.051636219024658,14348.0,5960.0,4364.0,159.0,246.0,-608.0,0.04339155742328748,-0.9874965021862974,0.06411959487641271,-0.13731900257099916
-14.059428691864014,14372.0,6180.0,4492.0,131.0,323.0,-720.0,0.04408311461864868,-0.9847431089086628,0.0016899627284848332,-0.16832953540123885
-14.067229270935059,14428.0,6288.0,4636.0,92.0,368.0,-719.0,0.0412189545843861,-0.9766078210718462,-0.059914703096377885,-0.20235708526548823
-14.075013637542725,14336.0,6448.0,4800.0,74.0,337.0,-726.0,0.036331468807777836,-0.9641903569772727,-0.12161473455997912,-0.23286656313050794
-14.082810401916504,14668.0,6584.0,4872.0,89.0,267.0,-665.0,0.03303458640172048,-0.9495001013042934,-0.17820369573037056,-0.25612832048104545
-14.090595245361328,14780.0,6672.0,4900.0,136.0,164.0,-521.0,0.035134530065796504,-0.9361673397654348,-0.22369012921915427,-0.2689219270410706
-14.098394632339478,14860.0,6764.0,5308.0,166.0,-33.0,-362.0,0.03950789279006227,-0.9287598672970776,-0.2571177078351641,-0.2640733224375283
-14.106178998947144,14864.0,6864.0,5580.0,230.0,-203.0,-191.0,0.049150322491617916,-0.9278616025088157,-0.27846819543303963,-0.24313073956414627
-14.113971710205078,14768.0,6880.0,5288.0,2.0,-363.0,-81.0,0.03873075651597154,-0.9330644593169262,-0.2864803019793851,-0.21405531957209847
-14.121753454208374,14732.0,6844.0,5128.0,306.0,-407.0,12.0,0.05363072689518731,-0.9389822038345105,-0.2923098125855272,-0.173179500752813
-14.129589557647705,14704.0,6708.0,4904.0,355.0,-469.0,26.0,0.07104683957363608,-0.9438095783102066,-0.29735314013264047,-0.1255266367340651
-14.137376308441162,14620.0,6624.0,4928.0,402.0,-445.0,9.0,0.0925768431171493,-0.9451197049787995,-0.3033684322362393,-0.07839557195260619
-14.145203828811646,14572.0,6648.0,4832.0,416.0,-474.0,5.0,0.11419849323441046,-0.9436986951578199,-0.309176020281349,-0.028313696039293342
-14.153018236160278,14464.0,6676.0,4796.0,382.0,-441.0,85.0,0.13379282065618683,-0.9420263526091208,-0.3071216437134943,0.019029663516180417
-14.160809516906738,14520.0,6692.0,4760.0,409.0,-419.0,128.0,0.15576470711812523,-0.9387041026049189,-0.3004158239672691,0.06574417448843277
-14.16859745979309,14496.0,6612.0,4828.0,394.0,-449.0,199.0,0.17487054956455114,-0.9345846384778856,-0.2875385585603675,0.11529710211960088
-14.176411390304565,14576.0,6568.0,4808.0,408.0,-420.0,196.0,0.19536195812923904,-0.9277119458032497,-0.2734775328519012,0.16246319569396367
-14.18419337272644,14528.0,6564.0,4636.0,393.0,-445.0,216.0,0.2131837697925384,-0.9184720855475916,-0.2576324105798637,0.2111569307072537
-14.191986560821533,14568.0,6576.0,4900.0,440.0,-741.0,207.0,0.227311388419794,-0.8986104120717556,-0.24600450413120697,0.2833913265399176
-14.199769735336304,14824.0,6608.0,5028.0,414.0,-478.0,308.0,0.24146142646360416,-0.8835353777524594,-0.22069598052042969,0.3351938244838443
-14.207582950592041,14500.0,6544.0,4760.0,433.0,-473.0,228.0,0.2586321130582322,-0.8634526608317876,-0.2000821658320352,0.3840912124919049
-14.215374231338501,14608.0,6536.0,4796.0,439.0,-476.0,230.0,0.2752188671492633,-0.8401003777402178,-0.1784762796427575,0.4320094305575972
-14.22317099571228,14548.0,6436.0,4800.0,428.0,-466.0,206.0,0.29110776209574424,-0.8140884789594287,-0.15818027265293352,0.47696459052698564
-14.23101019859314,14620.0,6456.0,4788.0,411.0,-483.0,162.0,0.30642479183921206,-0.7844927498449092,-0.14162019749225582,0.5202102383165125
-14.238804340362549,14632.0,6368.0,4812.0,375.0,-570.0,161.0,0.31718128514070065,-0.7491598770129408,-0.12859324225659038,0.5671148817271389
-14.2465980052948,14604.0,6484.0,4912.0,327.0,-664.0,187.0,0.32117214818366374,-0.7077459505686935,-0.11831721201049267,0.6180171179075634
-14.254385471343994,14700.0,6448.0,5032.0,314.0,-752.0,172.0,0.3227059863624109,-0.6583789503661421,-0.11155643475897886,0.6707854842977047
-14.262181997299194,14640.0,6448.0,5164.0,228.0,-913.0,225.0,0.31266484319154964,-0.5985023070806826,-0.11061334760574684,0.7292464409118183
-14.269968271255493,14580.0,6508.0,5000.0,205.0,-783.0,16.0,0.31404766072289136,-0.541788006387188,-0.11781191012843242,0.7706881189958531
-14.27776837348938,14580.0,6504.0,5084.0,168.0,-1068.0,159.0,0.2989934227391737,-0.46475107427174833,-0.12769209594535108,0.8235921932334308
-14.28555703163147,14356.0,6572.0,4956.0,102.0,-1089.0,91.0,0.2831924510686653,-0.3829131546989608,-0.14442127376129033,0.867365002349863
-14.293355226516724,14328.0,6528.0,4924.0,33.0,-1053.0,-65.0,0.27481950948807277,-0.3000941154020246,-0.16938885509378637,0.897621955433259
-14.301177501678467,14576.0,6556.0,5100.0,33.0,-977.0,-236.0,0.27870523135473974,-0.21819749846566122,-0.195638163721729,0.9145703661142857
-14.30898666381836,14612.0,6684.0,4712.0,54.0,-907.0,-366.0,0.2924508576470357,-0.13746921870431172,-0.2195184337758562,0.9205359129349243
-14.316784143447876,14768.0,6828.0,4652.0,159.0,-896.0,-404.0,0.3085506475576923,-0.05319733576544782,-0.23352717161704425,0.9205604822474895
-14.32459020614624,15084.0,6920.0,4664.0,1.0,-959.0,-367.0,0.3172914723553069,0.03153164750393284,-0.25986869956647407,0.911482383681615
-14.332411527633667,14832.0,7084.0,4488.0,293.0,-980.0,-218.0,0.3103855806928787,0.12233673854947733,-0.2619251914743497,0.9055880452888866
-14.340197324752808,14804.0,7148.0,4584.0,328.0,-991.0,-148.0,0.2947616170923447,0.21231815426962036,-0.2600602418734428,0.8946537101322355
-14.348027229309082,14588.0,7068.0,4488.0,19.0,-1055.0,-1.0,0.2694924194650657,0.29422905562889545,-0.2843605179473469,0.871746634353876
-14.355872869491577,14448.0,6900.0,4468.0,220.0,-1064.0,61.0,0.23186833638533555,0.377382792153193,-0.29273176523542155,0.8474239885622254
-14.363742351531982,14332.0,6556.0,4272.0,120.0,-1268.0,60.0,0.1900525083708752,0.4693647726336219,-0.30938637672660496,0.8048955361837399
-14.37152099609375,14088.0,6360.0,4104.0,-6.0,-987.0,28.0,0.16125838745362553,0.5360047900190689,-0.32589775379746216,0.7618958272770885
-14.379323720932007,14228.0,6092.0,3968.0,-105.0,-990.0,-256.0,0.15460236075913583,0.6053002698452216,-0.3332807853145245,0.7061399376279024
-14.387124300003052,14220.0,6056.0,3936.0,-282.0,-1042.0,14.0,0.1379043661803357,0.6624150842783131,-0.36365987769156355,0.6402656755334555
-14.394941806793213,14120.0,5920.0,3584.0,-443.0,-1041.0,19.0,0.1289615417988936,0.7112061113347782,-0.3999475860481762,0.5635571988282573
-14.402738332748413,13968.0,5952.0,3640.0,-594.0,-995.0,-27.0,0.13191391044613662,0.7505676956509657,-0.4363481292678459,0.47837972841714266
-14.410529851913452,13940.0,5916.0,3780.0,-736.0,-902.0,-2.0,0.14525720214577614,0.7758220360056332,-0.47480599630559583,0.3893067936025592
-14.41833782196045,13900.0,6036.0,3440.0,-797.0,-715.0,-72.0,0.17143167134905643,0.7895213488842647,-0.5038090587883797,0.3056855475766021
-14.42613434791565,14108.0,6052.0,3216.0,-775.0,-551.0,-48.0,0.20133197249079562,0.7919814059240956,-0.527557616030711,0.23219356427655702
-14.43396544456482,14128.0,5900.0,3100.0,-687.0,-363.0,-85.0,0.23342105165446045,0.7893130872141925,-0.5406903646471249,0.17364732239422886
-14.44176959991455,14548.0,6232.0,3088.0,-478.0,-200.0,-231.0,0.2602297820309446,0.7924997877932961,-0.5354091788580391,0.13252002900040458
-14.449573278427124,14708.0,6492.0,3580.0,-299.0,-86.0,113.0,0.2756015161059756,0.7810538153576997,-0.548387086615322,0.11519698376618688
-14.457357406616211,14880.0,6528.0,3512.0,-88.0,100.0,231.0,0.28411866860323554,0.7666207808408955,-0.5624410154690326,0.12340690682528313
-14.465188026428223,14848.0,6488.0,3728.0,95.0,246.0,197.0,0.2877295186082079,0.7562970078392407,-0.568239173036044,0.14943494331050328
-14.473014831542969,14776.0,6332.0,3936.0,241.0,365.0,129.0,0.28814483043732536,0.750549752446653,-0.5639661683708684,0.18865255558193242
-14.480807781219482,14760.0,5976.0,4220.0,305.0,551.0,222.0,0.2912671898431057,0.7369201206909759,-0.558642183952473,0.24501238774908732
-14.488614320755005,14736.0,5828.0,4384.0,393.0,626.0,-253.0,0.30135556746376874,0.7440841890281298,-0.5167958307680346,0.2973980680800014
-14.496410846710205,14756.0,5804.0,5064.0,509.0,709.0,-369.0,0.3089306049315747,0.7530869910645991,-0.459339040936759,0.3555692769309216
-14.504209280014038,14768.0,5804.0,5088.0,550.0,741.0,-448.0,0.3152547495916569,0.7597772911599792,-0.39120694072502127,0.4126863702935625
-14.512004375457764,14812.0,5900.0,5196.0,593.0,674.0,-479.0,0.31507926298147726,0.7650837274189166,-0.3182094205238858,0.46272531027346986
-14.519800662994385,14960.0,5988.0,5140.0,697.0,590.0,-487.0,0.30347102560113287,0.7707203448268014,-0.24026059290861862,0.5061327238836192
-14.527619361877441,14900.0,6332.0,5044.0,798.0,431.0,-314.0,0.2718578919524534,0.7765813555177119,-0.17179792237923053,0.5417565493020101
-14.535447120666504,14820.0,6604.0,4888.0,844.0,500.0,-136.0,0.22783498287946857,0.7720160385173429,-0.11032903555613689,0.5830179763622676
-14.543244123458862,14744.0,6568.0,4420.0,952.0,110.0,-245.0,0.17666179520345388,0.7846788572066921,-0.042959292731493154,0.5926417132942151
-14.551054239273071,14764.0,6632.0,4312.0,1089.0,-59.0,128.0,0.09489374341016076,0.8002655022830406,0.003733583996691539,0.592078004715442
-14.558848857879639,14788.0,6632.0,4136.0,1133.0,-211.0,278.0,0.001537298657484912,0.8161849793823256,0.04095782017002914,0.5763351222252815
-14.566647052764893,14736.0,6436.0,3992.0,1208.0,-312.0,451.0,-0.10530604212968125,0.828030898492241,0.06915396649511614,0.5463453098097447
-14.574472665786743,14688.0,6624.0,3744.0,1234.0,-388.0,691.0,-0.22320093524318937,0.8324937516295629,0.0810362083166987,0.5005683059742734
-14.582294464111328,14508.0,6360.0,3780.0,1138.0,-436.0,920.0,-0.3399311833045696,0.8284938794570635,0.0718474215769653,0.4391840506349035
-14.590094804763794,14588.0,6284.0,3556.0,967.0,-472.0,983.0,-0.4409702273793987,0.8174287935348916,0.05151516247798923,0.3670171850198833
-14.5978844165802,14196.0,6044.0,3768.0,721.0,-512.0,909.0,-0.5160390168286472,0.805216363004542,0.029384138981211373,0.29063192226008794
-14.605735063552856,13840.0,5964.0,4008.0,419.0,-548.0,855.0,-0.5631673681354626,0.7987509176724304,0.004683854104282523,0.2117015552506791
-14.613529205322266,14288.0,6132.0,4108.0,55.0,-678.0,833.0,-0.5795623807595556,0.8053629317206417,-0.018866978007017955,0.12305296485469747
-14.621320962905884,14720.0,5832.0,4496.0,-252.0,-908.0,826.0,-0.5688304808791352,0.8215989439209589,-0.03341768109282007,0.017038719469352464
-14.629092931747437,15372.0,5672.0,4780.0,-590.0,-1067.0,834.0,-0.5265307655263798,0.8430722349106639,-0.04071567353442438,-0.10167002314144208
-14.636926174163818,15652.0,5820.0,5316.0,-914.0,-1839.0,1033.0,-0.4477368342611063,0.8481934607231046,-0.023575433113936943,-0.2820350676527586
-14.644721031188965,16172.0,6028.0,5612.0,-1276.0,-2409.0,1370.0,-0.31358562357334313,0.8077944637328958,0.0005738134782502681,-0.4991310767610979
-14.652543306350708,16724.0,5896.0,5620.0,-1291.0,-2924.0,1540.0,-0.1483678274586549,0.6837666310914878,0.02702203676456098,-0.7139467707820316
-14.660377979278564,16336.0,6088.0,5804.0,-1854.0,-3390.0,2119.0,0.0955333800459073,0.4680167839366673,0.0559818387287812,-0.8767552092705967
-14.668182134628296,15916.0,5780.0,5512.0,-2192.0,-3623.0,2198.0,0.34251462972107954,0.1689891812431958,0.0956862857139781,-0.9192227802747542
-14.675978183746338,15152.0,5192.0,4924.0,-2490.0,-3472.0,1705.0,0.5057780223824788,-0.15774059849488709,0.15434450684816442,-0.8339569946149145
-14.683780670166016,14164.0,4716.0,4720.0,-2616.0,-3163.0,888.0,0.5416950892635097,-0.4615880470151144,0.20381795810461945,-0.672280555329867
-14.691611528396606,13612.0,4356.0,4252.0,-2696.0,-2475.0,-141.0,0.4464823203180244,-0.7018580967411052,0.2277182967738785,-0.5061552400171216
-14.69941520690918,13216.0,4700.0,3848.0,-2626.0,-1656.0,-1170.0,0.2562153594102902,-0.8650768137241366,0.1991935461069669,-0.3825150025142582
-14.707196950912476,13076.0,4968.0,3648.0,-2459.0,-1230.0,-1572.0,0.03792506000432175,-0.9527158203995016,0.13012550484344182,-0.27195883580684155
-14.715005159378052,13080.0,6272.0,3680.0,-2231.0,-357.0,-2062.0,-0.18606811438135593,-0.9583811561320754,0.010039168450650143,-0.21629477912869916
-14.722801446914673,13092.0,7276.0,3784.0,-1934.0,62.0,-2411.0,-0.37991933071979617,-0.8958128291611127,-0.1507514353743321,-0.17451269864500882
-14.730602025985718,13408.0,8012.0,4020.0,-1614.0,421.0,-2313.0,-0.5200058240641033,-0.781547012928523,-0.3114323436841267,-0.14760794297505825
-14.738467931747437,13840.0,8804.0,4320.0,-1252.0,658.0,-2126.0,-0.6002299636708407,-0.6426754837130658,-0.45885211998084163,-0.1270706312842019
-14.746309041976929,14928.0,8968.0,4880.0,-801.0,583.0,-1745.0,-0.6315804097439782,-0.5165309065083374,-0.5696374887327681,-0.09907138880387863
-14.754183053970337,15568.0,9376.0,5420.0,-286.0,388.0,-1396.0,-0.632050398153482,-0.42454533752041573,-0.6460728570934595,-0.053510876565384065
-14.762071371078491,15956.0,9548.0,6012.0,343.0,28.0,-955.0,-0.6198192252324966,-0.3880250192298001,-0.6818805720446681,0.017308898056694784
-14.76989483833313,16036.0,9388.0,6284.0,934.0,-352.0,-482.0,-0.6056081722031521,-0.40749238721413833,-0.6745536103044013,0.11030014935881985
-14.777700662612915,15668.0,9148.0,5916.0,1467.0,-720.0,-163.0,-0.5882723055274599,-0.4638241013571787,-0.6217645397163362,0.22849891619205787
-14.785490036010742,15248.0,8536.0,5968.0,1856.0,-940.0,-92.0,-0.5532873921240534,-0.5267969049830143,-0.5314408594261492,0.36596269693682787
-14.793286561965942,14580.0,7976.0,5608.0,2080.0,-1018.0,-149.0,-0.4902036920368278,-0.5761489141832402,-0.4142073641150414,0.5061472399527689
-14.80108094215393,14004.0,7320.0,4764.0,2242.0,-867.0,-334.0,-0.3855434789591815,-0.6082161356425339,-0.28837839694889,0.6310841927582264
-14.808873891830444,13636.0,6904.0,4460.0,2325.0,-617.0,-688.0,-0.23427717900565267,-0.6205179939853805,-0.17193116025909366,0.7283620656441921
-14.816671133041382,13600.0,6332.0,3840.0,2351.0,-345.0,-1060.0,-0.04365757938547429,-0.6150569228634946,-0.07093800756609941,0.7840706578379544
-14.824463367462158,13400.0,6364.0,4316.0,2217.0,-115.0,-1355.0,0.16321113169413595,-0.592118624871123,0.008333953725179833,0.7891059534607228
-14.832273006439209,13264.0,6356.0,4164.0,1975.0,186.0,-1686.0,0.37180522894164564,-0.5635730626446247,0.05842740360680664,0.7353451660960147
-14.840076923370361,13084.0,6404.0,4316.0,1684.0,341.0,-1751.0,0.5527970468846507,-0.5276805729273436,0.0894256056678106,0.6387266230255516
-14.84786868095398,13248.0,6868.0,4208.0,1337.0,543.0,-1827.0,0.6977928537342671,-0.4974276948489285,0.10386607939242772,0.5048392409731186
-14.85569953918457,12980.0,7248.0,4112.0,1113.0,688.0,-1858.0,0.806119328620523,-0.4675749015599475,0.11190178751655137,0.3449975788410743
-14.86350417137146,13124.0,7372.0,3980.0,832.0,812.0,-1828.0,0.8718183496910507,-0.4433685147609817,0.11730370305403835,0.17203768921496274
-14.871309995651245,13292.0,7568.0,3880.0,738.0,922.0,-1832.0,0.9023314681429494,-0.4123080838120392,0.12526087152397586,-0.010472807039565737
-14.879126071929932,13076.0,8076.0,4200.0,693.0,863.0,-1627.0,0.9031770091798202,-0.3692189806929516,0.13193587047378869,-0.17476143873113537
-14.88692855834961,13468.0,8564.0,4260.0,679.0,778.0,-1509.0,0.8819537516057994,-0.31710041525590976,0.13238988129881546,-0.32261095146115354
-14.894720792770386,13372.0,8832.0,4328.0,733.0,720.0,-1002.0,0.8590119613666345,-0.24995645490483748,0.13811283655698936,-0.4249059487211684
-14.902524471282959,13300.0,8820.0,4492.0,833.0,679.0,-643.0,0.8401610788619295,-0.16901680407910427,0.1429710784664149,-0.49509792185646934
-14.910326480865479,13324.0,8792.0,4768.0,949.0,666.0,-313.0,0.8278042158030872,-0.07412233596800262,0.14509066025472317,-0.5368377407710182
-14.918115615844727,13088.0,8604.0,4696.0,1059.0,691.0,-38.0,0.8191717943795436,0.034082981386190155,0.1439674807403094,-0.5541383276422197
-14.925910711288452,13204.0,8272.0,4664.0,1189.0,712.0,142.0,0.8076506120538521,0.15415854154498984,0.13563678692821982,-0.552755185366495
-14.933741092681885,13172.0,7832.0,4640.0,1295.0,832.0,184.0,0.7821933441787676,0.2851292602166864,0.1278690894789531,-0.5390031291621087
-14.94153094291687,13064.0,7656.0,4580.0,1410.0,931.0,216.0,0.7388429227668094,0.4229117031292219,0.11814775721735928,-0.5111730962191254
-14.949321985244751,12936.0,7236.0,4576.0,1473.0,1068.0,107.0,0.6699132736866665,0.5595841528263692,0.1156676245939628,-0.47402825049230773
-14.957105875015259,12848.0,6912.0,4536.0,1611.0,1316.0,224.0,0.5777603923369994,0.6989144130259944,0.11298016195753766,-0.4061367446010945
-14.964900255203247,12708.0,6852.0,4212.0,1682.0,1303.0,-240.0,0.4461616379761666,0.8134774800364748,0.13131203148125584,-0.3492153098880352
-14.97269868850708,12336.0,6688.0,4172.0,1760.0,1835.0,-463.0,0.2791064547090922,0.909797874940431,0.1774697777431339,-0.2507426802149962
-14.980486154556274,12004.0,7084.0,3860.0,1842.0,2248.0,-709.0,0.0798568421932131,0.9606957548844547,0.24013750658526267,-0.11410753363791847
-14.988291025161743,11784.0,7324.0,3956.0,1920.0,2648.0,-976.0,-0.14025464657570125,0.939195940852727,0.30793077930558876,0.05846583580125024
-14.996092081069946,11556.0,7628.0,4136.0,2001.0,2816.0,-1237.0,-0.355851745703252,0.8257252759065367,0.36673739206125067,0.23885348871878465
-15.003925085067749,11496.0,8036.0,4328.0,2115.0,3454.0,-1435.0,-0.5514061909892217,0.6011055342482862,0.3810809009641984,0.4352019027476271
-15.011750221252441,11592.0,8220.0,4404.0,2244.0,3778.0,-1462.0,-0.6853134832917384,0.27888030872334535,0.33494959394102874,0.5834209222710957
-15.019584894180298,12356.0,8760.0,4724.0,2456.0,4022.0,-1442.0,-0.7248936171916499,-0.10566220690320365,0.23408662175337508,0.6391933942894299
-15.027384757995605,12820.0,9320.0,4912.0,2582.0,4063.0,-1254.0,-0.6551087697495861,-0.4780600180075524,0.10075597705424687,0.5763153234711417
-15.035202741622925,13224.0,9516.0,5612.0,2723.0,4000.0,-843.0,-0.4911764534846269,-0.7741752638858678,-0.023838103857567818,0.398534938410658
-15.043004512786865,13348.0,10068.0,5920.0,2825.0,3740.0,-380.0,-0.25845426845908526,-0.9478602335250527,-0.10314264715874841,0.15531890790949252
-15.050802230834961,13416.0,10232.0,6520.0,2879.0,3522.0,101.0,0.009314946083643055,-0.9865046831268456,-0.12562974016827755,-0.10458924578326283
-15.058593273162842,13404.0,10120.0,6632.0,2957.0,3299.0,589.0,0.28456705823587924,-0.8947388710178913,-0.09244111181956052,-0.33153971542210475
-15.066396951675415,13144.0,10148.0,6888.0,3089.0,3164.0,890.0,0.5369431075559435,-0.6825719057798644,-0.031435334398364656,-0.4947721823622197
-15.074187517166138,13164.0,9504.0,6472.0,3228.0,3047.0,1139.0,0.7304828685787826,-0.37393538906603885,0.03684241310393392,-0.5702716371288531
-15.081987619400024,13216.0,8988.0,6028.0,3391.0,3004.0,1533.0,0.8377071478574198,-0.0029976751574421956,0.10090173772206701,-0.5367090344841462
-15.089811325073242,13164.0,8484.0,6132.0,3562.0,2959.0,1330.0,0.8065223825490465,0.37586025314625937,0.1386574268053556,-0.43476986388658156
-15.097622394561768,13116.0,8092.0,5656.0,3670.0,2932.0,1301.0,0.6442340852379592,0.7004480209706268,0.14985729703304743,-0.2681003615474835
-15.105416536331177,12980.0,7688.0,5180.0,3787.0,2956.0,1318.0,0.3713655452236612,0.9168821909721835,0.13457473488637972,-0.05748321867329657
-15.113216400146484,12716.0,7616.0,5064.0,3835.0,3007.0,1235.0,0.03238365405983997,0.9805195870610505,0.10431076050688638,0.16325410739652016
-15.121039390563965,12484.0,7564.0,4940.0,3833.0,3091.0,1232.0,-0.3120757422682634,0.8763260481903291,0.056890556983788095,0.3625256582325007
-15.12882924079895,12320.0,7524.0,4980.0,3841.0,3241.0,1067.0,-0.598284855643647,0.6153309278615873,0.00784326903270204,0.5131876497494257
-15.136651515960693,12456.0,7376.0,4756.0,3813.0,3471.0,960.0,-0.7713922160114705,0.2376155766142965,-0.049089391123347786,0.5882882954014191
-15.144437551498413,12376.0,7644.0,4884.0,3785.0,3641.0,780.0,-0.7932821797025819,-0.18825742309801463,-0.10501579703524246,0.5694156727627616
-15.152235984802246,12496.0,7524.0,5212.0,3771.0,3699.0,588.0,-0.6592577793526962,-0.5792451240325033,-0.14854930745070322,0.4558369992699561
-15.160025358200073,12396.0,8068.0,5412.0,3725.0,3661.0,719.0,-0.41076078870398913,-0.8617171654882041,-0.15851371967167155,0.2521755377551571
-15.167805910110474,12536.0,8536.0,5632.0,3638.0,3334.0,885.0,-0.10126339453190164,-0.9873881446106795,-0.12032313247648507,0.018240630504525228
-15.175636053085327,12864.0,8520.0,5640.0,3591.0,3480.0,829.0,0.2226091197443177,-0.9449958134790508,-0.06758148844769052,-0.2299148423502104
-15.183435201644897,13676.0,8120.0,5860.0,3719.0,3346.0,514.0,0.5122170340761728,-0.7403716012303753,-0.03189882857281861,-0.4341267865836669
-15.191223621368408,14152.0,8104.0,6248.0,3891.0,2987.0,613.0,0.7300924773925818,-0.41762817645977646,-0.00578539419424397,-0.5408495261120798
-15.199000835418701,14612.0,8668.0,6164.0,4030.0,2503.0,962.0,0.8507827256866721,-0.03971148760182149,-0.0015954436104258798,-0.5240126009794929
-15.206796646118164,14796.0,8736.0,5932.0,4215.0,2150.0,1343.0,0.8519264975988634,0.3412528604417226,-0.02792715953783543,-0.39621686194484984
-15.214613914489746,14828.0,8500.0,5448.0,4315.0,1946.0,1651.0,0.7194513201760785,0.6644700870231388,-0.07505000786290333,-0.18771467089212374
-15.222411632537842,14432.0,8352.0,5464.0,4111.0,1873.0,1698.0,0.48031704104748557,0.8682290294454076,-0.11375579786197781,0.050333994084103405
-15.230219841003418,13652.0,8012.0,5256.0,4420.0,1962.0,1637.0,0.14405554256321912,0.9395338684580399,-0.12440126238571303,0.28469007111932887
-15.23804759979248,13456.0,7800.0,4944.0,4451.0,2179.0,1636.0,-0.21648655668131525,0.8404430809192219,-0.10970037583977534,0.4845150421317031
-15.245849132537842,13104.0,7796.0,4752.0,4398.0,2494.0,1545.0,-0.5270860285885931,0.5784043120237107,-0.0763416611011925,0.6179002517230378
-15.253683090209961,12968.0,7720.0,4952.0,4269.0,2847.0,1338.0,-0.7221076166669724,0.19921271911941033,-0.04030971976901884,0.6612488253182297
-15.261484861373901,12828.0,7860.0,4972.0,4177.0,3228.0,1187.0,-0.7702801506013272,-0.23008863902932974,-0.020803522996840143,0.5943861717857739
-15.269275188446045,12812.0,8108.0,4884.0,4060.0,3579.0,1226.0,-0.6713399089860999,-0.6217681455559732,-0.023281400067468518,0.40269725127609207
-15.277076959609985,13280.0,8444.0,5184.0,3900.0,3733.0,1029.0,-0.4403313980277283,-0.8868167805104303,-0.04411438747572855,0.13310964853722126
-15.284868955612183,13268.0,9028.0,5772.0,4072.0,3672.0,1511.0,-0.11519914846038216,-0.9779031211533105,-0.018726499951704223,-0.17344728315017013
-15.292675018310547,13772.0,9248.0,5908.0,3692.0,3560.0,1866.0,0.2112153312895621,-0.8704097229728773,0.044113412555962746,-0.4425257109086283
-15.300466537475586,14132.0,9844.0,6188.0,3446.0,3236.0,2253.0,0.49796879963672186,-0.6122264757294097,0.1289384056617094,-0.6004837254661658
-15.30826711654663,14040.0,10332.0,6980.0,3581.0,2825.0,2757.0,0.7271549735112495,-0.25155971698590535,0.19148763270271593,-0.6093404957901084
-15.316034317016602,14216.0,10496.0,7548.0,3247.0,2549.0,3421.0,0.8494071235240226,0.1333926394071101,0.23134780138644742,-0.45518363003551354
-15.323835611343384,14376.0,10756.0,7220.0,3277.0,2246.0,3975.0,0.8294706882499042,0.49006908767795593,0.19851411643417202,-0.1800078115335163
-15.33164381980896,14340.0,10792.0,7636.0,3580.0,2284.0,4500.0,0.6225255553340076,0.7594185402350354,0.10110763952733992,0.1597581263428654
-15.339457035064697,14316.0,10504.0,6924.0,3418.0,1855.0,4643.0,0.2783727568271003,0.8488449543778211,-0.05156425554827596,0.4464437021994454
-15.347296476364136,13956.0,10408.0,7112.0,3495.0,1657.0,5281.0,-0.1552771305514453,0.7339767778078073,-0.2312880167901444,0.6194133964129773
-15.355153322219849,13352.0,10252.0,6888.0,3497.0,1380.0,5626.0,-0.5644641887153742,0.42912315460417705,-0.3627184791681779,0.6047055504213419
-15.362979650497437,13064.0,10000.0,6544.0,3553.0,1057.0,5969.0,-0.8346787751866008,0.00792702807949279,-0.3841929728616723,0.39451776142847284
-15.370779991149902,12760.0,9544.0,6324.0,3497.0,846.0,6169.0,-0.8666271705201973,-0.4097955379372429,-0.2795930541961353,0.053410564948887164
-15.37858271598816,12516.0,9020.0,6328.0,3411.0,620.0,6149.0,-0.6454699112090518,-0.6987658916492798,-0.07697881804908398,-0.2986119287020056
-15.386382341384888,12212.0,8452.0,6312.0,3307.0,571.0,6482.0,-0.22854803256714368,-0.7705255220892827,0.16879913400865842,-0.5705813429973444
-15.394172191619873,12580.0,8196.0,5260.0,3202.0,615.0,6499.0,0.25440268315442194,-0.5977399030166509,0.3665073357776132,-0.6660770645853762
-15.401962518692017,16904.0,6684.0,3540.0,2934.0,426.0,6012.0,0.6415581689410921,-0.27237857425958656,0.44790519306026866,-0.5599946126338284
-15.409754037857056,23980.0,4580.0,5588.0,2799.0,229.0,4752.0,0.83912766431312,0.07319765109998735,0.39346928982039314,-0.36835958630947535
-15.417613506317139,30932.0,976.0,8884.0,2408.0,-1459.0,2994.0,0.9131834368573764,0.28747559028909914,0.1787185335365967,-0.22696581550491818
-15.425426721572876,32767.0,752.0,13004.0,2696.0,-4886.0,4370.0,0.857477056022417,0.40277432683841063,-0.3180449308714454,-0.036788068472964536
-15.433227777481079,29368.0,1884.0,16976.0,2679.0,-9042.0,7112.0,0.3726048746415091,0.2621992613806861,-0.8727007245672054,0.1755294848869635
-15.441073894500732,27432.0,1944.0,16904.0,2428.0,-11413.0,10214.0,-0.42117046976736633,-0.1557226799775989,-0.8559294597361815,0.2564188805300005
-15.44885540008545,22176.0,844.0,12100.0,1440.0,-11978.0,11227.0,-0.8834728082535153,-0.44485623618688447,-0.1316748350786272,0.06511884527003373
-15.456669092178345,17612.0,-260.0,6068.0,-477.0,-11408.0,10431.0,-0.6502203741524296,-0.27561606821036705,0.684811827837443,-0.1796719467119819
-15.464468955993652,14776.0,-1516.0,1072.0,-2784.0,-9059.0,7322.0,-0.04213703922723814,0.12314806870280746,0.9806994561032375,-0.1459027069616762
-15.472281455993652,13456.0,-1912.0,-3880.0,-4414.0,-5454.0,3509.0,0.4263585195628327,0.30553745312770353,0.8410346016868472,0.1323860880072834
-15.480075597763062,10544.0,524.0,-3536.0,-6025.0,-1619.0,-163.0,0.6214472403417672,0.07737262827582136,0.6283591637198327,0.46149925810840237
-15.487877130508423,7700.0,2792.0,-2176.0,-6450.0,1496.0,-3058.0,0.5956291440419297,-0.42208835568271263,0.3967918139252254,0.5564383156890539
-15.495740413665771,6880.0,6200.0,-1236.0,-5901.0,3675.0,-4992.0,0.39525307920561287,-0.8654350385908647,0.09403752272798335,0.29317936775444137
-15.50354790687561,8668.0,7988.0,-1600.0,-4722.0,5403.0,-5734.0,0.10988898280191801,-0.9469061605665556,-0.21343285909648532,-0.21386806493201357
-15.511350631713867,9336.0,11652.0,-1088.0,-3822.0,6106.0,-4832.0,-0.14555570320972805,-0.6214311161393878,-0.3849940307719008,-0.6666457090740785
-15.519150733947754,12688.0,13880.0,-1388.0,-2724.0,5544.0,-2872.0,-0.23579570763259175,-0.14416142542047433,-0.38928162167355257,-0.8786795130819834
-15.526973009109497,15096.0,14872.0,16.0,-2033.0,4238.0,-445.0,-0.14000756254613173,0.21956384765260495,-0.3017165126273515,-0.9171459781528041
-15.534783840179443,17556.0,14496.0,3300.0,-867.0,1319.0,2103.0,0.07776260164184483,0.273005419199585,-0.2815412408356372,-0.9165999937717001
-15.542592525482178,18508.0,13944.0,6500.0,305.0,-962.0,5165.0,0.41812749141029804,0.06447863782487961,-0.39587875291143676,-0.8150410536804048
-15.550393342971802,19068.0,11960.0,7512.0,1952.0,-3471.0,7728.0,0.6666938725977359,-0.30140739837844843,-0.5615802066252047,-0.3863942701052407
-15.558189392089844,19452.0,8320.0,7152.0,3319.0,-5361.0,9290.0,0.5746846191307378,-0.5315989900012936,-0.5293780956270518,0.3269540246493984
-15.565978050231934,18560.0,4396.0,7028.0,4468.0,-6306.0,9665.0,0.14598837107269638,-0.3899612082629672,-0.18326943759302122,0.8905222988819343
-15.573814392089844,17092.0,2108.0,6504.0,5006.0,-6647.0,9535.0,-0.3563982896851527,0.02561573831793448,0.2991125253791163,0.8847913823163359
-15.581602096557617,16016.0,8.0,5772.0,4996.0,-6442.0,8877.0,-0.6096698251179369,0.41314180421876834,0.5962322894629034,0.31956785030623697
-15.589388370513916,15120.0,-2012.0,4496.0,4526.0,-6081.0,7734.0,-0.4885782606856597,0.540942677168054,0.557460772601357,-0.39737864841273507
-15.59721851348877,14744.0,-4076.0,3756.0,3706.0,-5049.0,6292.0,-0.15792182661899093,0.4061611488805877,0.27445859733895445,-0.8571851002928458
-15.605039834976196,13608.0,-5136.0,2956.0,2802.0,-3733.0,4157.0,0.12561031689387528,0.16472672774479588,-0.027209424551886376,-0.9779298546786817
-15.612830400466919,13076.0,-5488.0,2188.0,1080.0,-2608.0,1979.0,0.26121968776231796,-0.048853829779852684,-0.1688643213035664,-0.9491377239536338
-15.620619535446167,12456.0,-4788.0,2016.0,-394.0,-1380.0,-138.0,0.22603694385898646,-0.1690859177453284,-0.16690230780569018,-0.9447014724664318
-15.62841534614563,12272.0,-3436.0,1252.0,-1711.0,-451.0,-1285.0,0.08677576602535808,-0.21767810444691227,-0.05271661909473426,-0.9707250729976702
-15.636198043823242,12428.0,-1580.0,972.0,-2691.0,884.0,-2071.0,-0.12973175867481662,-0.14721027545444637,0.13635308093770754,-0.9710338011163977
-15.643998861312866,12664.0,144.0,1056.0,-3464.0,1630.0,-2730.0,-0.39317679697505625,-0.002478105531273338,0.34820226306494517,-0.8509765268853554
-15.651784420013428,13280.0,1796.0,1124.0,-3859.0,1919.0,-2765.0,-0.6005296189439723,0.17175195945309876,0.5189431594477716,-0.5835781339781274
-15.659627914428711,14048.0,3384.0,1524.0,-3898.0,1731.0,-2351.0,-0.6813490752203439,0.3290093779494222,0.6093066126865455,-0.23719552831823057
-15.667437076568604,14988.0,4652.0,1648.0,-3704.0,1142.0,-1985.0,-0.6327031681176509,0.4366870208685187,0.6310817819150913,0.1035709003231065
-15.675227642059326,15732.0,5732.0,2148.0,-3255.0,366.0,-1209.0,-0.4953916176533851,0.5226401602780834,0.6002940943825112,0.34796753910780537
-15.683029651641846,16696.0,6628.0,2920.0,-2814.0,-460.0,49.0,-0.33421987709616935,0.6411565747596015,0.5167131820648049,0.4585006083712657
-15.69081711769104,17316.0,6744.0,3064.0,-1812.0,-1029.0,1260.0,-0.2316650027206812,0.774622569000577,0.3948695891050592,0.4363132013925029
-15.698603630065918,17740.0,5860.0,3284.0,-943.0,-1962.0,1938.0,-0.16871954570602604,0.9062844591026582,0.2593385791270996,0.2879682195348848
-15.706403493881226,17452.0,4748.0,3524.0,-119.0,-2488.0,2267.0,-0.15347511314805323,0.9803941038532317,0.10905021104521195,0.05814501049106386
-15.714209079742432,17304.0,3700.0,3384.0,484.0,-2700.0,2425.0,-0.17288693839493696,0.962750498495995,-0.05699697412126729,-0.19993231134350892
-15.721994876861572,17064.0,2668.0,3164.0,813.0,-2645.0,2332.0,-0.20374655644231535,0.8512938594221363,-0.2166920128704747,-0.43223914353769993
-15.72984004020691,16780.0,1544.0,2924.0,794.0,-2417.0,1992.0,-0.22454197600696704,0.6817236792870476,-0.33849188202419944,-0.6084874459789068
-15.737697839736938,16440.0,920.0,3100.0,594.0,-2155.0,1419.0,-0.2418039564560906,0.5004765281055932,-0.40167041879854093,-0.7278152005280991
-15.745501279830933,16000.0,160.0,3016.0,277.0,-1820.0,993.0,-0.2504629986948156,0.33851420710690594,-0.4173373635925964,-0.8052986668442736
-15.753287315368652,16116.0,24.0,2592.0,-43.0,-1493.0,107.0,-0.29351740679069604,0.2285280903487186,-0.38157619913609353,-0.8461808601506449
-15.761085033416748,15772.0,208.0,2560.0,-376.0,-1286.0,-401.0,-0.3557772464097973,0.15519254315991837,-0.3105106617487935,-0.8677101788183343
-15.768877744674683,15472.0,988.0,2664.0,-624.0,-1183.0,-661.0,-0.42580911990233794,0.10179204958242101,-0.2156678122609397,-0.8728186333966446
-15.776666402816772,15508.0,2176.0,2308.0,-810.0,-1135.0,-519.0,-0.47548532693020856,0.05446500067566375,-0.10618933902689622,-0.8715911265338259
-15.784460544586182,15572.0,2796.0,1828.0,-926.0,-1124.0,-421.0,-0.5090651958630485,0.010895184211601372,0.01288125868432247,-0.8605626034732272
-15.792256116867065,15932.0,3104.0,1788.0,-810.0,-1146.0,-337.0,-0.5281333701339235,-0.03956031290317657,0.12406790570278851,-0.8391169642955093
-15.800039291381836,16216.0,3492.0,1960.0,-587.0,-1220.0,46.0,-0.5100335255226086,-0.10094625656421562,0.2219809584989971,-0.8248636918864332
-15.80783462524414,16452.0,3992.0,1984.0,-400.0,-1435.0,434.0,-0.4504291285174147,-0.1767154715887666,0.31563636772508935,-0.8162468533804674
-15.8156578540802,16588.0,3860.0,2268.0,-194.0,-1602.0,526.0,-0.36786847787633425,-0.26609841000037004,0.39621128854757726,-0.7980482654624922
-15.823446989059448,16452.0,3832.0,2672.0,67.0,-1773.0,877.0,-0.24048503816067276,-0.35640099228632227,0.4619143913403375,-0.7757450445802863
-15.831235647201538,16208.0,3240.0,2760.0,211.0,-1911.0,949.0,-0.09122917791034539,-0.44446085227543924,0.5082956832527451,-0.7319612600944246
-15.839056253433228,16148.0,2748.0,3032.0,234.0,-1977.0,926.0,0.06337361315487142,-0.522189123168972,0.5351247791132764,-0.6610172278985502
-15.846849203109741,15932.0,2420.0,3144.0,93.0,-1961.0,901.0,0.20738065884476972,-0.5825647127714844,0.5501623257559997,-0.5611889459792812
-15.854646682739258,15764.0,2148.0,3372.0,-144.0,-1932.0,960.0,0.3338520815439955,-0.6227855398157156,0.5610624975886541,-0.43114943215174306
-15.862486839294434,15628.0,1968.0,3196.0,-391.0,-1956.0,884.0,0.4337822366594886,-0.6528298372345458,0.556758409652598,-0.2750749862421473
-15.870306968688965,15496.0,1992.0,3252.0,-694.0,-1893.0,861.0,0.49782622664277204,-0.6706056967964956,0.5409449059731616,-0.09917487682066163
-15.878109693527222,15232.0,2024.0,2996.0,-879.0,-1754.0,794.0,0.5271255293471262,-0.6751212916725424,0.510146657778082,0.07810445184983036
-15.885899782180786,15160.0,2100.0,2460.0,-799.0,-1633.0,736.0,0.5398787362011488,-0.6584403102469276,0.46612943983751487,0.24023041721760513
-15.893697500228882,15072.0,2268.0,2124.0,-1187.0,-1500.0,629.0,0.5116581179503229,-0.6474364822614028,0.40054160496240754,0.3982441392747067
-15.901485919952393,15156.0,2428.0,2228.0,-1248.0,-1337.0,474.0,0.46512256852601264,-0.6316032094046168,0.3198912956362849,0.5314206818460229
-15.909269571304321,15104.0,2512.0,1932.0,-1241.0,-1153.0,220.0,0.41412706123081905,-0.6155453883722085,0.22513156404876697,0.6315998977825983
-15.91706132888794,15328.0,2692.0,2104.0,-1186.0,-982.0,186.0,0.356212821973282,-0.5951605713399429,0.13300266179032538,0.7079594704083222
-15.924858808517456,15236.0,3024.0,2444.0,-1064.0,-791.0,76.0,0.30341188985454237,-0.5745754197129209,0.04626917361847359,0.7587249012186693
-15.932646036148071,15120.0,3256.0,2520.0,-939.0,-544.0,-98.0,0.2638388250588767,-0.5612047689790993,-0.035107272176710703,0.7837128052462695
-15.940463066101074,15576.0,3236.0,2376.0,-782.0,-348.0,-230.0,0.2395167170950456,-0.5529686691067027,-0.1075909730328459,0.7907474791235312
-15.948236465454102,15656.0,3552.0,2620.0,-658.0,-298.0,-360.0,0.22927901396633368,-0.5413466473563637,-0.17620678970014042,0.789510043263682
-15.956036806106567,15860.0,3804.0,3036.0,-559.0,-245.0,-348.0,0.2227103864647603,-0.5292109047769634,-0.2356656982887182,0.7840902885994416
-15.96382474899292,16072.0,4216.0,3296.0,-437.0,-9.0,-211.0,0.21664282276642616,-0.5321800516648804,-0.275280717314143,0.7707598890891839
-15.97166657447815,16300.0,4400.0,3576.0,-358.0,-371.0,-7.0,0.19143460670361317,-0.5132121173440521,-0.30642823912256767,0.778503595518807
-15.979462146759033,16368.0,4572.0,3540.0,-193.0,-463.0,244.0,0.15370143374271883,-0.4908263700707603,-0.3160024020357307,0.7972501650148729
-15.987249612808228,16392.0,4456.0,3560.0,-48.0,-603.0,294.0,0.11441283478392433,-0.45672928366879884,-0.314315960746588,0.8243261135594587
-15.995046138763428,16244.0,4376.0,3220.0,110.0,-766.0,660.0,0.050148186447068296,-0.41686861246560486,-0.2866228206364257,0.8611347618273757
-16.00284481048584,16236.0,4224.0,3180.0,244.0,-1015.0,1011.0,-0.041983466628534014,-0.3617664020681323,-0.2340538200762831,0.9014328972098967
-16.010626077651978,15920.0,3936.0,3020.0,329.0,-694.0,782.0,-0.10679272818279566,-0.32270224884429893,-0.1800691406097583,0.9230567026993362
-16.018449544906616,16096.0,3664.0,2784.0,415.0,-616.0,520.0,-0.14621708458108978,-0.2840310512249118,-0.12578697675438197,0.9392148649780147
-16.02622961997986,16112.0,3500.0,2692.0,464.0,-469.0,662.0,-0.19349645909180482,-0.25769603894903514,-0.06505076928429794,0.9444153054903504
-16.034016847610474,16080.0,3236.0,2636.0,534.0,-268.0,571.0,-0.22950248969227868,-0.2469833532780522,-0.0035502856454981127,0.9414431612691282
-16.041845083236694,16096.0,3092.0,2696.0,514.0,-108.0,448.0,-0.25484732654304415,-0.24784485570318196,0.05053167792406138,0.9333125506396617
-16.049664735794067,16040.0,2996.0,3056.0,546.0,-34.0,343.0,-0.2704549834192752,-0.25504989655300825,0.10314424885711727,0.9225859938995824
-16.057442903518677,16024.0,3040.0,2996.0,473.0,2.0,224.0,-0.2777633256638072,-0.26383410538554625,0.14614610555048688,0.9120747861793003
-16.065237283706665,16080.0,3060.0,3060.0,425.0,11.0,183.0,-0.28253773509436847,-0.27220934350233933,0.18390302513986212,0.9012514515395674
-16.0730562210083,16228.0,3036.0,3220.0,372.0,5.0,197.0,-0.28917328532154096,-0.2781819252789534,0.21769881086024798,0.889719537413041
-16.080851554870605,16220.0,3096.0,3208.0,334.0,-30.0,0.0,-0.28047463247445,-0.28392031385895944,0.2444114159055291,0.8837342902092272
-16.088658809661865,16176.0,3212.0,3100.0,306.0,-31.0,209.0,-0.2883050781921905,-0.2841745512742061,0.2739277402811092,0.8724039198680754
-16.096450328826904,16024.0,3232.0,3124.0,227.0,-74.0,153.0,-0.2925778731147405,-0.28027235066764666,0.296896501747561,0.8646953595717666
-16.104243755340576,15864.0,3580.0,3060.0,230.0,-70.0,86.0,-0.2916729359153991,-0.27832974740002,0.3181881266640275,0.858030166262684
-16.112033128738403,15824.0,3416.0,2904.0,207.0,-86.0,80.0,-0.2903052703477465,-0.274643729443957,0.33786715790531197,0.8521381669039496
-16.11982750892639,15692.0,3400.0,2596.0,200.0,-111.0,253.0,-0.30104438197187056,-0.2636440600296298,0.36157461109009087,0.8420973164126085
-16.12765669822693,15644.0,3428.0,2768.0,211.0,-167.0,45.0,-0.2942708411413232,-0.2551853345167114,0.3825101792302267,0.8378371440123863
-16.13545513153076,15828.0,3504.0,2836.0,219.0,-510.0,46.0,-0.2755350474283979,-0.22148031068303556,0.4122655922020169,0.8396808864709836
-16.14327335357666,15732.0,3428.0,2768.0,186.0,-508.0,92.0,-0.26023854685505854,-0.18495523292619323,0.439479650680055,0.8395981760235798
-16.151108264923096,15684.0,3488.0,2808.0,203.0,-319.0,196.0,-0.2590476524350775,-0.15830932060901065,0.4645225111459958,0.831896213126858
-16.1589035987854,15648.0,3468.0,2888.0,183.0,-356.0,218.0,-0.25785254789079304,-0.1274034852676314,0.488550386444233,0.8237711668862157
-16.166688442230225,15592.0,3408.0,2780.0,215.0,-369.0,160.0,-0.25117956162645444,-0.09855293892819045,0.5137407764580934,0.814411788135458
-16.174487113952637,15736.0,3364.0,2628.0,215.0,-302.0,136.0,-0.24546295028867385,-0.07539893345868001,0.536539625181377,0.8038583031101322
