programtime,ax,ay,az,gx,gy,gz,q0,q1,q2,q3
-735.2789554595947,7312.0,11332.0,9380.0,45.0,21.0,-42.0,0.9999830783198373,0.004204206060377902,0.001653648029846985,-0.0036651294079909926
-735.2867367267609,7320.0,11368.0,9528.0,112.0,22.0,14.0,0.9998896742594474,0.014262022355948709,0.0033512282230282395,-0.0024501626581345656
-735.2945499420166,7344.0,11368.0,9472.0,93.0,48.0,5.0,0.9997143732337406,0.022661492586260802,0.007329214825533808,-0.0019777041419980824
-735.3023264408112,7340.0,11272.0,9492.0,127.0,39.0,11.0,0.9993653695497439,0.03402340765820243,0.01049923632774289,-0.0010158309709648605
-735.3101146221161,7364.0,11328.0,9412.0,167.0,65.0,12.0,0.9986783562041507,0.04886660063426882,0.01592450294109506,7.998690906662015e-05
-735.317907333374,7388.0,11368.0,9500.0,205.0,48.0,28.0,0.9975520953403777,0.06702342277022727,0.01979037536048059,0.002453349807220964
-735.3256735801697,7368.0,11432.0,9564.0,192.0,29.0,41.0,0.9962032970920781,0.0840491586499571,0.021912955761118694,0.00587810878752589
-735.3334641456604,7332.0,11452.0,9552.0,190.0,39.0,42.0,0.9945434330877401,0.10086776693986049,0.024885975465220877,0.009473200080349943
-735.3412556648254,7316.0,11500.0,9216.0,190.0,62.0,124.0,0.9924003968098031,0.11780344640738918,0.029120925165608255,0.020390491504273182
-735.3490526676178,7412.0,11588.0,9396.0,158.0,25.0,88.0,0.9904029170744347,0.131896837267265,0.030449476448679933,0.027894722679105977
-735.3568542003632,7392.0,11624.0,9412.0,171.0,114.0,90.0,0.9876941779820145,0.1468545701686944,0.039464256648344874,0.03655842513285053
-735.3646447658539,7192.0,11632.0,9680.0,181.0,126.0,78.0,0.9844559927380617,0.16252907807931435,0.04967793495535676,0.04430349782327326
-735.3724818229675,7224.0,11584.0,9424.0,164.0,179.0,93.0,0.9807116301758693,0.17651885555901123,0.06413435079840948,0.054153274301672785
-735.3802742958069,7276.0,11600.0,9536.0,153.0,206.0,59.0,0.9766368266865451,0.1891472666899339,0.08132975225876822,0.061557222654125734
-735.3880755901337,7188.0,11528.0,9488.0,163.0,228.0,26.0,0.9718695838921991,0.20215854102119712,0.10094369016478326,0.06642143941003428
-735.3959262371063,7156.0,11484.0,9536.0,115.0,221.0,8.0,0.9675977627514358,0.2108622778796455,0.11994204373375053,0.0700398131836055
-735.403737783432,7044.0,11528.0,9220.0,107.0,237.0,31.0,0.9626892891544955,0.21892405612570448,0.13975786181183258,0.07595610744677715
-735.4115278720856,7036.0,11476.0,9424.0,122.0,259.0,84.0,0.9563057162323136,0.2286017462773591,0.16041649967203314,0.08652840766659338
-735.4193284511566,7052.0,11484.0,9552.0,127.0,290.0,64.0,0.9488446429008366,0.23800148392422965,0.18397405060188005,0.09593063115285705
-735.4271516799927,7060.0,11464.0,9524.0,132.0,343.0,86.0,0.9393649779753073,0.24748762627980914,0.21132513996373242,0.1080971702272789
-735.4349544048309,7000.0,11444.0,9588.0,145.0,380.0,82.0,0.927848675105866,0.2573045573217773,0.24166044824084196,0.12038034989884679
-735.4427480697632,7016.0,11472.0,9556.0,202.0,422.0,40.0,0.9132382882127779,0.27000684038058614,0.27657205748030333,0.12884111188203923
-735.4505360126495,7148.0,11516.0,9592.0,197.0,496.0,122.0,0.8942524962097345,0.2829001272457459,0.31483880160283223,0.14545281032792787
-735.4583191871643,7068.0,11540.0,9648.0,172.0,588.0,78.0,0.8716226256011198,0.2907152700859781,0.36022888127153685,0.16122587688365678
-735.4661228656769,7016.0,11472.0,9524.0,210.0,631.0,109.0,0.8434991041153634,0.3008414228119571,0.4074953323015947,0.17874913658384356
-735.473911523819,7092.0,11760.0,9548.0,229.0,640.0,91.0,0.8118894610683184,0.3105086799502198,0.45477851261647606,0.19389782655850693
-735.4816930294037,6972.0,11564.0,9644.0,198.0,590.0,163.0,0.779159828734468,0.3206149234421418,0.4945557219445451,0.21337916965949086
-735.4894835948944,6888.0,11604.0,9968.0,174.0,573.0,101.0,0.7466717285934166,0.3257602710424708,0.5330193962680483,0.22858674224832148
-735.4972865581512,6892.0,11748.0,9968.0,178.0,558.0,75.0,0.7132509158671324,0.32935428110551307,0.5698928230157055,0.24087560857703605
-735.5050756931305,6984.0,11784.0,9512.0,141.0,495.0,65.0,0.6825480372452045,0.3306909515004165,0.6010481141251637,0.25201753104705343
-735.5128707885742,7064.0,11856.0,9764.0,97.0,421.0,60.0,0.6559046504459578,0.33018140966792403,0.6259476786173886,0.2626001330284712
-735.5206501483917,7116.0,11924.0,9788.0,247.0,373.0,34.0,0.6271832523577024,0.33743280320905183,0.6513638804927129,0.26173529847915183
-735.5284910202026,7080.0,11944.0,9816.0,-70.0,263.0,243.0,0.6084653633692773,0.34128757797791553,0.6565565132841865,0.2867511736017369
-735.5362861156464,7112.0,12028.0,9656.0,-124.0,233.0,-1.0,0.5987027360190257,0.32877708524731103,0.6655670241243622,0.30080092835271627
-735.5440528392792,7064.0,11664.0,9620.0,-109.0,229.0,-66.0,0.5901339457531541,0.3132043886543769,0.6762786167364856,0.31030979607875286
-735.5518562793732,7128.0,11660.0,9436.0,-161.0,169.0,-121.0,0.5877066960700057,0.29316942011205444,0.6836428720700589,0.31825297166474453
-735.5596642494202,7152.0,11476.0,9224.0,-185.0,176.0,-100.0,0.5845698752800365,0.2728045843038715,0.6897874079060617,0.32870815565195716
-735.5674698352814,7236.0,11376.0,9180.0,-145.0,131.0,-146.0,0.584210239480905,0.2528636068899082,0.695526479250129,0.3331685895432063
-735.5753035545349,7264.0,11344.0,9188.0,-131.0,46.0,-150.0,0.5885943081515299,0.23576925931932716,0.6971604624044914,0.3345697033976532
-735.5831422805786,7100.0,11332.0,9252.0,-146.0,17.0,-139.0,0.594548082723213,0.2193493245097638,0.6964205036400014,0.3367446113556511
-735.5909366607666,7056.0,11272.0,9324.0,-124.0,-8.0,-94.0,0.6001328294609861,0.2074893963567849,0.6939944153433634,0.3393530445934899
-735.5987567901611,7108.0,11396.0,9584.0,-203.0,59.0,-196.0,0.60586734652254,0.1832519906007963,0.6943006867433718,0.34247630975917803
-735.6065471172333,6912.0,11424.0,9872.0,-13.0,155.0,-308.0,0.6056357173272587,0.15927142358140564,0.7066176812505155,0.32943807319736745
-735.6143476963043,7208.0,11632.0,9780.0,-400.0,203.0,-472.0,0.6112824550370948,0.10308956427550625,0.7111707872227869,0.3315756524569167
-735.6221401691437,7280.0,11856.0,9900.0,-509.0,322.0,-607.0,0.6117605513886356,0.02893713328925091,0.7170069519322387,0.3328854171670982
-735.6299395561218,7168.0,12036.0,9984.0,-688.0,412.0,-690.0,0.6052067653871412,-0.06259962538180275,0.7176379174647949,0.3388242574676201
-735.6377286911011,7336.0,12232.0,9908.0,-817.0,495.0,-1002.0,0.5950588612970307,-0.18175131715087411,0.7089433300780863,0.3320704218138031
-735.6455268859863,7272.0,12340.0,9972.0,-996.0,557.0,-836.0,0.5647473998245276,-0.29900620132676536,0.6904680466065511,0.3389831007217122
-735.6533210277557,7196.0,12288.0,9560.0,-1123.0,510.0,-942.0,0.5277599684382935,-0.42229663292788827,0.6518287568903133,0.34388114403469217
-735.6611285209656,6912.0,12308.0,9628.0,-1228.0,379.0,-954.0,0.48485787475312153,-0.5392237477928331,0.5915174977959313,0.35250197291274565
-735.6689174175262,7096.0,12256.0,9852.0,-1334.0,275.0,-927.0,0.4319425281687533,-0.6453194110761081,0.5132061958595713,0.36552415868026833
-735.6767003536224,7004.0,12264.0,9772.0,-1430.0,202.0,-931.0,0.36791509263729266,-0.7390840004274866,0.41809192990339716,0.37893596170256544
-735.6846714019775,7068.0,11648.0,9780.0,-1512.0,47.0,-944.0,0.29628638245974037,-0.8138239239463881,0.30503034524906825,0.3960574312630157
-735.692501783371,7228.0,11380.0,9864.0,-1512.0,4.0,-945.0,0.218772112473683,-0.8677640082317282,0.18353694019656278,0.4067414171248001
-735.7003562450409,7208.0,11064.0,9936.0,-1460.0,-42.0,-927.0,0.14013648442019352,-0.8988043510446195,0.06001733383378101,0.41098713351769717
-735.7159848213196,7144.0,10552.0,10104.0,-1267.0,-58.0,-1021.0,0.07684601523839811,-0.9084352557856128,-0.0655750537392189,0.405635289779879
-735.7238264083862,7224.0,10476.0,9892.0,-1151.0,30.0,-663.0,0.009110453097511689,-0.9073390677177402,-0.15762862440207354,0.38962293644826695
-735.7316203117371,7272.0,10296.0,9968.0,-924.0,76.0,-561.0,-0.04380496938713067,-0.8989272580755288,-0.2323706066027061,0.36880185809306143
-735.7394201755524,7232.0,10288.0,9772.0,-795.0,155.0,-339.0,-0.09191750178562869,-0.8913890247324187,-0.28430366581854233,0.34080523037978033
-735.7472138404846,7304.0,10408.0,9736.0,-586.0,220.0,-162.0,-0.12709370464870084,-0.8878026975721386,-0.3155834570828232,0.309936512915075
-735.7550165653229,7388.0,10568.0,9768.0,-485.0,272.0,19.0,-0.1575788400655432,-0.8892602378425254,-0.329838523717155,0.2749394239245088
-735.7627999782562,7424.0,10560.0,9672.0,-356.0,310.0,150.0,-0.17978598202573914,-0.8952893069191641,-0.330669864889685,0.2383096683667716
-735.7705955505371,7444.0,10696.0,9760.0,-283.0,334.0,281.0,-0.19797244713327442,-0.904976268739163,-0.31948386861512373,0.1993863608417565
-735.7783894538879,7496.0,10860.0,9736.0,-237.0,366.0,409.0,-0.21338790847706599,-0.917407763886858,-0.2971935496628649,0.15653941776653124
-735.7861864566803,7572.0,10816.0,9688.0,-217.0,480.0,435.0,-0.2239342685016966,-0.9295536295539591,-0.2737514698877718,0.10413273216407698
-735.7939746379852,7500.0,11240.0,9588.0,-207.0,573.0,481.0,-0.2309598583019532,-0.9400443758569258,-0.24721171748744794,0.04313330511114009
-735.8018102645874,7460.0,11404.0,9632.0,-253.0,685.0,495.0,-0.23817887180904057,-0.9453887505598503,-0.2206784784472894,-0.02849463965111508
-735.8096652030945,7348.0,11608.0,9644.0,-249.0,757.0,457.0,-0.24231554161763846,-0.9440765535197904,-0.19742962370097672,-0.10499610978524718
-735.817483663559,7332.0,11708.0,9684.0,-247.0,849.0,379.0,-0.24379464708330004,-0.9342794308445048,-0.18123593637353624,-0.18665382535915148
-735.8252897262573,7276.0,11824.0,9676.0,-264.0,909.0,301.0,-0.2452094837093129,-0.9151336748855906,-0.17107748869461056,-0.2704351291000331
-735.833086013794,7316.0,11840.0,9948.0,-283.0,889.0,232.0,-0.2482812238413988,-0.8883743011658208,-0.1643083104088278,-0.3495000916259584
-735.8408710956573,7216.0,11840.0,9808.0,-269.0,898.0,152.0,-0.25085694773974987,-0.8543264442547988,-0.16321545219489636,-0.42492097451463157
-735.8486638069153,7192.0,11640.0,9928.0,-317.0,853.0,103.0,-0.25779514130716635,-0.8145289194557807,-0.1619415651091989,-0.4938210546124976
-735.856495141983,7084.0,11628.0,9824.0,-336.0,812.0,-243.0,-0.27989314579429925,-0.7660059863450042,-0.18244051001083225,-0.5491904188239045
-735.8642809391022,6976.0,11496.0,9956.0,-327.0,783.0,-27.0,-0.2898851516338111,-0.7179628693406418,-0.1871941596078286,-0.6045281331080578
-735.8720774650574,6844.0,11276.0,9880.0,-273.0,682.0,-102.0,-0.3007028700180926,-0.6718574492946151,-0.19603895285635703,-0.6478843112417515
-735.8798763751984,6704.0,11112.0,9784.0,-240.0,641.0,-186.0,-0.3138283530571484,-0.6247760777531954,-0.20981098214448718,-0.6834807746062332
-735.8876624107361,6700.0,10764.0,9812.0,-195.0,572.0,-1.0,-0.31370973593230517,-0.5843120194179798,-0.21361107283673134,-0.7173116303995819
-735.8954949378967,6664.0,10880.0,9840.0,-189.0,546.0,-326.0,-0.33312443204290004,-0.5377886399407823,-0.2329792869421514,-0.738601478053399
-735.9033167362213,6624.0,10520.0,9808.0,-234.0,515.0,-396.0,-0.35860813200150476,-0.48864850055984854,-0.25099266760405653,-0.7547354048751144
-735.9111394882202,6624.0,10552.0,9964.0,-280.0,481.0,-431.0,-0.38775483745219436,-0.43772941743329424,-0.2654408329936787,-0.7665378707706184
-735.9189417362213,6412.0,10824.0,10040.0,-361.0,386.0,-412.0,-0.4195154291744004,-0.3892809482210258,-0.2695392745786027,-0.774477712717673
-735.9267511367798,6620.0,10756.0,10012.0,-361.0,314.0,-417.0,-0.45187032059363536,-0.34442041115082267,-0.2701611039114484,-0.777303526096885
-735.9345438480377,6584.0,10900.0,9868.0,-361.0,208.0,-421.0,-0.4856073487360383,-0.305925638490061,-0.26594206884915356,-0.7745126355226468
-735.9423406124115,6520.0,11004.0,9928.0,-274.0,151.0,-391.0,-0.5152303421168724,-0.27503039419530856,-0.2638588760557356,-0.7676421499354422
-735.9501466751099,6552.0,11036.0,9836.0,-275.0,88.0,-441.0,-0.5486501541597643,-0.2466332943013243,-0.2595893038305038,-0.7554921705877155
-735.957935333252,6724.0,11268.0,9956.0,-302.0,71.0,-523.0,-0.5870887230447568,-0.21563006509524602,-0.2538804161519194,-0.7378178912138312
-735.9657213687897,6764.0,11496.0,9836.0,-419.0,35.0,-563.0,-0.6291675294242229,-0.17939753569087324,-0.23876321790369667,-0.7176049539144315
-735.9735252857208,6756.0,11528.0,9836.0,-456.0,-51.0,-573.0,-0.6717887386409087,-0.14562303867217058,-0.21587123014148102,-0.6934648031734155
-735.9813702106476,6796.0,11600.0,9836.0,-542.0,-24.0,-639.0,-0.7158154139060624,-0.10330087922941045,-0.18922950255253213,-0.6641757425024226
-735.9891712665558,6992.0,11588.0,9732.0,-560.0,-84.0,-711.0,-0.7610175540110196,-0.06157331714975862,-0.1573980663213884,-0.6263280752293865
-735.9969770908356,6972.0,11504.0,9820.0,-562.0,-142.0,-741.0,-0.8037508375279726,-0.022082521435953108,-0.12078825615134602,-0.5821573246091042
-736.0047745704651,6912.0,11464.0,9744.0,-587.0,-240.0,-795.0,-0.8444659770859765,0.014892974534826084,-0.07533709785226225,-0.5300752159278252
-736.0126032829285,6820.0,11280.0,9868.0,-587.0,-322.0,-700.0,-0.8750825426433989,0.0473630325893372,-0.023430525955180713,-0.4810803437661624
-736.0204126834869,6820.0,11132.0,9776.0,-557.0,-398.0,-700.0,-0.8997220980191407,0.07402569308593322,0.033146048058487726,-0.4288609128811896
-736.0282242298126,6852.0,11040.0,10020.0,-518.0,-424.0,-586.0,-0.9143613929536837,0.09651999467376628,0.0893617658290741,-0.3829381262186946
-736.0360331535339,7028.0,10792.0,9964.0,-484.0,-434.0,-546.0,-0.9226611067339148,0.11574306944747687,0.14438978470640013,-0.3383069819969188
-736.0438017845154,7200.0,11000.0,9960.0,-391.0,-259.0,-498.0,-0.9285506862009453,0.132755857467677,0.1815073393500406,-0.29533809646885184
-736.0515925884247,7204.0,10664.0,9952.0,-333.0,-579.0,-427.0,-0.924372393704813,0.13741823022876648,0.24139234778111457,-0.2614988378367094
-736.0593934059143,7148.0,10676.0,10044.0,-496.0,-621.0,-324.0,-0.9102521204385968,0.1557020565268331,0.3058358987491277,-0.23165135412223709
-736.0671796798706,7196.0,10632.0,10012.0,-175.0,-593.0,-274.0,-0.8960968990967552,0.14976283370126933,0.3595630142979433,-0.21282828717048544
-736.0749671459198,7080.0,10728.0,9916.0,-107.0,-546.0,-236.0,-0.8807992402947874,0.14012511659787993,0.406737692056539,-0.19779307332431048
-736.0827558040619,6932.0,10832.0,9892.0,-122.0,-520.0,-191.0,-0.8631693041462006,0.13333687316202653,0.4505551832647615,-0.1848243963019879
-736.090544462204,7344.0,10968.0,9932.0,-82.0,-470.0,-190.0,-0.8460325936299335,0.12410452987011068,0.4889529040150541,-0.1724876048786447
-736.0983605384827,7252.0,11008.0,10208.0,-100.0,-404.0,-144.0,-0.8293534117812342,0.11896019608299414,0.5214010039253268,-0.16174790020393937
-736.1061730384827,7176.0,11148.0,10052.0,-131.0,-381.0,-74.0,-0.8112735773041807,0.11942167802908432,0.5511797677209044,-0.15418984804430264
-736.113970041275,7212.0,11252.0,10212.0,-181.0,-306.0,-58.0,-0.7951491106955713,0.1250850804247319,0.5755354893985042,-0.14439707357839718
-736.12175822258,7120.0,11144.0,10152.0,-181.0,-511.0,249.0,-0.7634316834750584,0.14335194425737033,0.6096746954937451,-0.15785769040081454
-736.129555940628,7056.0,11216.0,10132.0,-144.0,-221.0,90.0,-0.7485083457631498,0.15449492313731458,0.6250138483842219,-0.15882148587534697
-736.1373949050903,7072.0,11124.0,9976.0,-124.0,-197.0,104.0,-0.734565905499437,0.16535412396933324,0.6379868242811164,-0.16138078016858964
-736.1452412605286,7140.0,11072.0,9964.0,-75.0,-212.0,128.0,-0.7197919570645828,0.17412282057833067,0.6505700471347262,-0.16834308916645296
-736.153032541275,7080.0,11036.0,9908.0,-25.0,-303.0,79.0,-0.7008822610179559,0.17553042206373057,0.6684729338297678,-0.17634359602069324
-736.160840511322,6976.0,10764.0,9872.0,14.0,-362.0,90.0,-0.6783308361506953,0.1741387409302136,0.6886114368479257,-0.18803527508575085
-736.1686315536499,6944.0,10984.0,9800.0,41.0,-425.0,105.0,-0.6513070256388145,0.1708072601014726,0.7109390081287847,-0.20295261755150723
-736.1764647960663,6984.0,11068.0,9980.0,32.0,-453.0,69.0,-0.6220518246589822,0.16500824627989194,0.7344647371156581,-0.2153725981449191
-736.1842586994171,6984.0,11084.0,9868.0,106.0,-409.0,-5.0,-0.5971454920594951,0.15104455515333537,0.754199011088208,-0.22756681512277535
-736.1920580863953,7072.0,11172.0,9864.0,130.0,-439.0,-247.0,-0.5743720150750217,0.11907443321170813,0.7769148412867272,-0.2287387091036176
-736.1998870372772,7068.0,11056.0,9808.0,140.0,-487.0,-58.0,-0.5435210349587655,0.09821841463150734,0.7983081446624112,-0.24008776260002193
-736.2076940536499,7028.0,11508.0,9776.0,61.0,-428.0,-122.0,-0.5164777873524813,0.07771766870748711,0.8177157453071368,-0.2419744181085108
-736.2154819965363,7020.0,11188.0,9888.0,14.0,-367.0,-153.0,-0.4934096160252015,0.05831012234112205,0.8344628732451327,-0.23836651111660911
-736.2232930660248,7048.0,11196.0,9916.0,-246.0,-293.0,-219.0,-0.47511774660714823,0.046759163815970686,0.8526474466532495,-0.2122946988831115
-736.2310938835144,7044.0,11148.0,9980.0,-38.0,-331.0,-1.0,-0.4502515385235645,0.042051884172222664,0.8666831350683286,-0.21063127612693802
-736.2388896942139,7020.0,11100.0,9956.0,-87.0,-369.0,-335.0,-0.4278517833008354,0.013276384940480156,0.8831219382860449,-0.1919953938174204
-736.2466928958893,6852.0,11016.0,10208.0,-75.0,-428.0,-253.0,-0.39871952853254955,-0.010635828590153603,0.8997597119442499,-0.17703693817670593
-736.2545363903046,6856.0,10928.0,10208.0,-73.0,-506.0,-290.0,-0.3631400987622012,-0.038682408279343,0.9169952484413738,-0.1604763356281295
-736.2623345851898,7080.0,10864.0,9948.0,23.0,-546.0,-6.0,-0.3191686607867791,-0.04752231094477005,0.9328758701748125,-0.16004876375539037
-736.2701370716095,7124.0,10852.0,10128.0,44.0,-642.0,-233.0,-0.2695667263551325,-0.0765863073662242,0.9474731092868695,-0.15415260213325982
-736.2779307365417,7088.0,10916.0,10136.0,100.0,-698.0,-208.0,-0.21360954045106903,-0.10534470903204479,0.9591750229802077,-0.15250157965790076
-736.2857236862183,7068.0,10760.0,10144.0,106.0,-741.0,-228.0,-0.15334586984172638,-0.13598063676119482,0.9672221506572524,-0.14991871766548617
-736.2935144901276,7404.0,11088.0,10232.0,122.0,-679.0,-171.0,-0.09669199918448208,-0.16064629893586613,0.9708144087578896,-0.14954199303201005
-736.3013830184937,7256.0,11136.0,10188.0,106.0,-610.0,-167.0,-0.04568396989433977,-0.18338372679225698,0.9707179734847824,-0.14829025455529202
-736.3092088699341,7312.0,11152.0,10136.0,40.0,-560.0,-190.0,-0.00010950423331872541,-0.20662783362573833,0.968099803808191,-0.14173107015223954
-736.3170113563538,7316.0,11188.0,10412.0,25.0,-463.0,-174.0,0.037227987287599455,-0.22685829859012901,0.9637609881348757,-0.13532977156780554
-736.3248074054718,7196.0,11188.0,10028.0,-50.0,-404.0,-192.0,0.06785598616563467,-0.24776271314991266,0.9585031626464174,-0.12361589829345918
-736.3326117992401,7412.0,11164.0,10160.0,-68.0,-325.0,-230.0,0.0909926817433249,-0.27075451899713515,0.9517528528987983,-0.11215538021328401
-736.3404381275177,7100.0,11072.0,10208.0,-74.0,-325.0,-231.0,0.11386887792163979,-0.2935366516359369,0.9438524260522712,-0.10006353293019075
-736.3482201099396,7080.0,11088.0,10264.0,-119.0,-311.0,-236.0,0.134255914576376,-0.3166828269996741,0.9351679387068464,-0.08454740031215105
-736.3560256958008,7108.0,11256.0,10360.0,-91.0,-349.0,-198.0,0.15862790859405224,-0.33627363100159796,0.9256876573879977,-0.06971077870458176
-736.3638250827789,6980.0,11244.0,10012.0,-68.0,-385.0,-167.0,0.18656057218875946,-0.35281020455882756,0.9152477379050671,-0.055151525123233194
-736.3716161251068,7016.0,10956.0,10240.0,-107.0,-430.0,-194.0,0.21646052601891028,-0.37179014312478353,0.9019913048782039,-0.03645018621330452
-736.3794083595276,7032.0,10964.0,10164.0,-68.0,-435.0,-213.0,0.24757194684511424,-0.39087124246823923,0.8862782056986196,-0.020946241913299496
-736.3871958255768,6996.0,10876.0,10136.0,-31.0,-469.0,-211.0,0.2821028848919124,-0.40830555263931634,0.8681328762298666,-0.007060256965710677
-736.3949854373932,6960.0,10892.0,10188.0,-54.0,-526.0,-209.0,0.3194975977219136,-0.4252677196121704,0.8467319806510754,0.010658548142102904
-736.402797460556,6864.0,10864.0,10468.0,-44.0,-553.0,-196.0,0.3584355126844986,-0.4398781483391686,0.822916569223394,0.028974436282761525
-736.4105911254883,6900.0,10880.0,10480.0,6.0,-552.0,-195.0,0.39828493634271783,-0.4516999553672382,0.797140784810205,0.04362142817334976
-736.4183769226074,6956.0,10808.0,10344.0,-251.0,-490.0,-201.0,0.42269490255328385,-0.47191433659859183,0.7702229812300545,0.07336509696898097
-736.4261772632599,6988.0,10860.0,10260.0,-22.0,-452.0,-200.0,0.45303806423968135,-0.48280927579152827,0.7444779560891531,0.08604817520981675
-736.4339647293091,7048.0,10804.0,10120.0,-37.0,-385.0,-131.0,0.4771846498101087,-0.489561101983763,0.7229997654642547,0.09947902567214785
-736.4417569637299,7040.0,10892.0,10108.0,-34.0,-335.0,-125.0,0.4977238545657452,-0.4956886654342974,0.7030673030007683,0.11072524105825328
-736.4495491981506,7044.0,10876.0,10216.0,-30.0,-325.0,-59.0,0.5167379851131139,-0.49723529704309355,0.6858192937479866,0.12405970513715939
-736.457371711731,7092.0,10896.0,10264.0,-37.0,-299.0,-44.0,0.5333359713924438,-0.49809309751283387,0.6697863847435142,0.13726691750440956
-736.4651801586151,7160.0,10956.0,10468.0,-12.0,-329.0,235.0,0.5489102886892031,-0.48063448110871004,0.6641283432651187,0.16316106831111796
-736.4729809761047,7128.0,10892.0,10300.0,-254.0,-358.0,34.0,0.5581317637349247,-0.4853357993684235,0.6443048460571662,0.19444629466463684
-736.4807684421539,7324.0,10932.0,10092.0,-78.0,-333.0,21.0,0.5729629955279056,-0.48204168653952767,0.6273633929555257,0.21392613532045887
-736.4885976314545,7320.0,11248.0,9984.0,-58.0,-428.0,-29.0,0.5940993963264148,-0.4781458188596353,0.6032196278083779,0.23355633970920187
-736.4964327812195,7352.0,10964.0,10116.0,-84.0,-385.0,2.0,0.6104893628835704,-0.47420985065982213,0.5812733780615534,0.25406498243581654
-736.5042550563812,7232.0,10904.0,10076.0,-118.0,-439.0,-3.0,0.6274801504015489,-0.47047985815231136,0.5546912614478791,0.27791179967462915
-736.5120661258698,7296.0,10968.0,10088.0,-70.0,-470.0,-256.0,0.6528796827700007,-0.47470975839327256,0.5161515824863057,0.2863325147607694
-736.5198624134064,7352.0,10964.0,10280.0,-88.0,-420.0,16.0,0.6673237762537204,-0.46809865666241507,0.4903188487911372,0.3084640202640349
-736.5276668071747,7356.0,11012.0,9996.0,-60.0,-395.0,-9.0,0.6816429753739962,-0.46097510416782106,0.46502668331613806,0.3265195113078917
-736.5354452133179,7328.0,10752.0,10224.0,-89.0,-363.0,252.0,0.6851238641371091,-0.445253725504189,0.4506609736800098,0.3595262125579468
-736.5432507991791,7336.0,10964.0,10220.0,-114.0,-330.0,-29.0,0.6942995727955309,-0.4425423050221975,0.4260000685408007,0.3750044707531055
-736.5510549545288,7336.0,10980.0,10240.0,-114.0,-219.0,-5.0,0.6980822700656825,-0.4422519871503924,0.40868571552674077,0.38738909381378894
-736.5588586330414,7208.0,10864.0,10480.0,-157.0,-194.0,37.0,0.6975649106831191,-0.44371224467253967,0.3928649993258318,0.40271544745145105
-736.5666871070862,7052.0,10784.0,10440.0,-89.0,-135.0,-250.0,0.7073412299327586,-0.4526837677707567,0.3716861409129499,0.3957211183236528
-736.5745239257812,7028.0,10784.0,10152.0,-87.0,-188.0,-39.0,0.7112753368721517,-0.45262601498066396,0.35545076974953194,0.4035738296824959
-736.5823218822479,7028.0,10672.0,10012.0,-113.0,-185.0,-81.0,0.7153052013952302,-0.4554174342709261,0.33669389084424056,0.40935394622158267
-736.5901172161102,7040.0,10852.0,9892.0,-32.0,-196.0,-94.0,0.7230664335200031,-0.4529600435908588,0.319497661046329,0.4122176320983316
-736.5978991985321,7116.0,10876.0,10084.0,-64.0,-9.0,-80.0,0.723687351878597,-0.45875368969982205,0.31343100687625036,0.40936862709089344
-736.6056876182556,7120.0,10908.0,9976.0,-33.0,-362.0,-91.0,0.7351774042038826,-0.4500165607494915,0.2855668184670809,0.4188685612335088
-736.6134901046753,7116.0,11108.0,10024.0,-7.0,-424.0,-30.0,0.7461047242674463,-0.43526574959317965,0.25672557897888837,0.43354751153113513
-736.6212894916534,6936.0,11148.0,10076.0,-60.0,-442.0,-74.0,0.7559935886036658,-0.4236161497658067,0.22266376600244128,0.44659142284347014
-736.629077911377,7236.0,11136.0,10196.0,-60.0,-425.0,-29.0,0.7626828865422717,-0.4111122694986056,0.19105007488915213,0.46130400532414995
-736.6368744373322,7384.0,11144.0,10324.0,-79.0,-358.0,-90.0,0.7690822166914593,-0.40305778192592656,0.1606969174647032,0.4692903889014199
-736.6446599960327,7456.0,10772.0,10208.0,-122.0,-267.0,-21.0,0.7692033144105151,-0.4002851273364608,0.1369678642114795,0.47889234918346457
-736.6524820327759,7472.0,11024.0,10148.0,-81.0,-180.0,-85.0,0.7720052402588004,-0.3989527434856078,0.11848707258120422,0.48042213844638254
-736.6602728366852,7472.0,10884.0,10172.0,-129.0,-46.0,-53.0,0.7702145720876598,-0.40603679639801354,0.10810502093740885,0.4798092718599585
-736.6680579185486,7484.0,10872.0,10068.0,-133.0,56.0,-64.0,0.7676485753723205,-0.41769668470854426,0.10400503519203291,0.474792688409417
-736.6758470535278,7440.0,10912.0,9992.0,-96.0,98.0,-116.0,0.7680412899625083,-0.429005436770064,0.1023362309716065,0.4643212335926269
-736.6836423873901,7380.0,10896.0,10084.0,-28.0,144.0,-25.0,0.7667253948572302,-0.4367248660233549,0.10989470913526699,0.4575223635867236
-736.691447019577,7280.0,10920.0,10004.0,5.0,140.0,-51.0,0.7676144492045479,-0.4422571166202704,0.11749521748730807,0.4487444417914648
-736.6992700099945,7236.0,10980.0,10132.0,83.0,117.0,-103.0,0.7736302237184876,-0.44210942058706315,0.12457925210299464,0.43648086684631765
-736.7070772647858,7152.0,11112.0,10020.0,75.0,152.0,-96.0,0.7784862242634789,-0.4436439574222078,0.13396086109369876,0.42331279849514286
-736.7148678302765,7100.0,11092.0,10108.0,31.0,189.0,-93.0,0.7808492060337962,-0.4493616490719154,0.14430471647277163,0.40929790444549313
-736.7226715087891,7068.0,11140.0,10056.0,51.0,129.0,-157.0,0.7867730903493011,-0.45223127951380016,0.1487164715945454,0.39288469709062296
-736.730539560318,6980.0,11188.0,10020.0,68.0,125.0,-182.0,0.7939865530062742,-0.45395568902719347,0.15239640718640188,0.3745462870216941
-736.7383399009705,6848.0,11048.0,10032.0,72.0,62.0,-200.0,0.8024766370183686,-0.4534071349474022,0.15106984702322016,0.357254976646734
-736.74613904953,6800.0,10936.0,9964.0,66.0,87.0,-247.0,0.8114938638795531,-0.4544671117088181,0.14937772811001454,0.3355944689734452
-736.7539339065552,6884.0,10812.0,9880.0,50.0,253.0,-246.0,0.8170684742519327,-0.46116297904926806,0.15889636952788574,0.3073755990459888
-736.7617235183716,6860.0,10856.0,9928.0,61.0,-49.0,-193.0,0.825323505987883,-0.4579447514084423,0.14920923222877622,0.29472753542726166
-736.7695214748383,6776.0,10932.0,10152.0,111.0,-69.0,-143.0,0.8342978635030379,-0.44981337072379074,0.14132056243721133,0.28573327615942484
-736.7773163318634,6876.0,10828.0,10116.0,129.0,-61.0,-136.0,0.8434629584956292,-0.4403480159030745,0.13469477303118907,0.27662462047710557
-736.7850923538208,6888.0,10940.0,10156.0,203.0,-156.0,-77.0,0.8548061646442893,-0.422257771784876,0.12507346740173392,0.2745203504396339
-736.7928886413574,7020.0,10872.0,10192.0,220.0,-98.0,245.0,0.8578091343213844,-0.40046216167866905,0.13195536473339578,0.2939070054566942
-736.8007822036743,7160.0,11252.0,10424.0,236.0,-70.0,-33.0,0.8675861969738108,-0.3810987652107421,0.13153559747143098,0.29112936741799383
-736.8086361885071,7264.0,10992.0,10268.0,231.0,-94.0,9.0,0.8759913531774929,-0.36083226165954546,0.13050046317591724,0.2922479379136717
-736.8164899349213,7196.0,11068.0,10184.0,1.0,-140.0,55.0,0.8762184785092856,-0.3563233631788582,0.12148581960906991,0.3008588280335026
-736.8242888450623,7212.0,11064.0,10084.0,268.0,-148.0,124.0,0.8825751155600167,-0.33027797957180216,0.12095420789462712,0.3120059313487085
-736.8320770263672,7176.0,11036.0,10164.0,272.0,-99.0,152.0,0.8870333574065601,-0.30467734576448213,0.12500685074804835,0.3235997915512481
-736.8398723602295,7272.0,10988.0,10184.0,241.0,-113.0,79.0,0.8922510660004813,-0.28164928538342265,0.12506529430227048,0.330030888592414
-736.8476724624634,7240.0,11036.0,9976.0,497.0,-46.0,118.0,0.900731658773393,-0.23984674335090134,0.13849496612357187,0.3346269011088758
-736.8554584980011,7192.0,11076.0,10012.0,203.0,-39.0,57.0,0.9036888022660479,-0.2217644799985694,0.1424517505770926,0.33745305277540694
-736.8634753227234,7244.0,10780.0,10160.0,235.0,-21.0,29.0,0.9075049742141532,-0.20194592806389422,0.14816411642768493,0.3371942444914874
-736.8715448379517,7196.0,11056.0,10056.0,238.0,-4.0,-19.0,0.9121643855225764,-0.18291635240486168,0.15439938940708797,0.3326538296154717
-736.8794498443604,7116.0,11084.0,10080.0,280.0,61.0,-71.0,0.9176175632008775,-0.1630278295417129,0.16610763616706842,0.3221927803461625
-736.8873102664948,7072.0,11148.0,10088.0,5.0,122.0,-98.0,0.9186406469634902,-0.1671920951781007,0.17451278502932294,0.3125563195933913
-736.8951449394226,7148.0,11164.0,10008.0,311.0,196.0,-76.0,0.921820518028659,-0.14841395209801986,0.19739785723651004,0.2987546105459391
-736.902993440628,7180.0,11188.0,10088.0,303.0,121.0,-66.0,0.925036758819592,-0.1280102756116752,0.21397866619202838,0.28658941813166666
-736.910801410675,7052.0,11140.0,10060.0,19.0,87.0,-52.0,0.9249342944209317,-0.12935716680446466,0.22077044932966755,0.2811115136438774
-736.9185962677002,6944.0,11172.0,10136.0,254.0,37.0,240.0,0.9208088461036806,-0.10482667381316191,0.23247030886479902,0.2950931935690526
-736.9263927936554,7160.0,11136.0,10096.0,237.0,4.0,240.0,0.9163529395217914,-0.08071833291610306,0.24086025728184185,0.3094643395015686
-736.9341833591461,6984.0,11076.0,10084.0,186.0,-33.0,18.0,0.91777528048367,-0.06430160040698409,0.24320786216430462,0.3072519723283972
-736.9420189857483,6996.0,11104.0,10168.0,164.0,-103.0,13.0,0.9204276603872557,-0.04785766637435734,0.23925744567040444,0.3054151935554563
-736.9498164653778,7096.0,11132.0,9860.0,162.0,-106.0,56.0,0.9217042388791407,-0.030579280050959952,0.23511751545435158,0.3069950448954537
-736.9576075077057,6964.0,11000.0,9832.0,138.0,-123.0,40.0,0.9234163401088931,-0.015092765161925807,0.22885097414127825,0.307736417887536
-736.9654097557068,6992.0,11028.0,10180.0,117.0,-120.0,26.0,0.925181609666292,-0.001653549284104095,0.22218107101668272,0.30768787202607445
-736.973256111145,7008.0,10956.0,9848.0,192.0,-140.0,-27.0,0.9284556221440773,0.017351499166424207,0.21582804171098108,0.30180679183367465
-736.9810512065887,7064.0,11256.0,9968.0,237.0,-136.0,-31.0,0.931209738740224,0.03981374886515564,0.21087899799732912,0.29460708762741683
-736.9888212680817,7124.0,11024.0,10084.0,265.0,-80.0,-57.0,0.9329430361865563,0.06260525966851924,0.21115482463315205,0.2848008299267931
-736.9966275691986,7180.0,11052.0,10216.0,299.0,-32.0,-29.0,0.9322925748384366,0.08744057264917902,0.21588390866427207,0.2767288187662024
-737.0044491291046,7124.0,11052.0,10460.0,285.0,-21.0,-36.0,0.9310830677332798,0.1106739921786373,0.2210706903798621,0.268259833539423
-737.0122497081757,7092.0,11208.0,10308.0,281.0,26.0,-8.0,0.9277647940024848,0.13294888499745938,0.2295705555438994,0.26243940446267683
-737.0200345516205,7148.0,11236.0,10300.0,295.0,56.0,-4.0,0.922985843978095,0.1556526335877465,0.24061656751189942,0.25685220830671085
-737.0278112888336,7004.0,11148.0,10184.0,266.0,66.0,-8.0,0.9178946620776177,0.17560438616443003,0.2517153931325614,0.25153896268639936
-737.0355792045593,7004.0,11136.0,10244.0,265.0,48.0,-25.0,0.9130666967328727,0.19538486465976898,0.2614631914695318,0.24448100434547246
-737.0433685779572,6948.0,11024.0,10128.0,259.0,18.0,-68.0,0.9094365918917683,0.2142252615993296,0.26927769249974204,0.23349977932109137
-737.0511651039124,6892.0,11012.0,10228.0,265.0,-34.0,-75.0,0.9065421787414549,0.23430090102658832,0.2730629584939968,0.22072830955573103
-737.0589597225189,6772.0,11000.0,9992.0,252.0,-58.0,-55.0,0.903589851617268,0.25414778968985297,0.27413760129051484,0.20924353421008923
-737.0667538642883,6852.0,10936.0,9944.0,295.0,-118.0,-53.0,0.9004831096025671,0.2783440699896828,0.2710393435576503,0.19542881636521175
-737.074548959732,6800.0,10880.0,9928.0,324.0,-219.0,-35.0,0.8978651714269078,0.30667256189472797,0.2597972874618038,0.17970932960462188
-737.082347869873,6892.0,10848.0,9936.0,352.0,-212.0,51.0,0.8918728131978223,0.3386339647180479,0.24691747405515205,0.1700637645830573
-737.090158700943,6968.0,10924.0,9872.0,395.0,-5.0,36.0,0.8792551105878894,0.3701079332897384,0.250911458433585,0.1642376578248972
-737.0979537963867,7060.0,10876.0,9904.0,419.0,-266.0,114.0,0.8690671405832905,0.40823868069037883,0.23232924854221787,0.15519859863533145
-737.1057596206665,7148.0,10952.0,10032.0,435.0,-502.0,97.0,0.8609749596078151,0.4492684600770229,0.19608912903539277,0.13575353837923482
-737.113557100296,7252.0,11040.0,10076.0,421.0,-191.0,169.0,0.8449841496873568,0.48561630530686184,0.17967384674500825,0.13377555678485809
-737.1213998794556,7256.0,11260.0,10172.0,416.0,-156.0,142.0,0.8274973976579825,0.5198893610416504,0.16662535383963986,0.13114534152148274
-737.1292312145233,7364.0,11012.0,10064.0,385.0,-111.0,149.0,0.8094274496697427,0.5507004873883132,0.15592167566456622,0.13131872665147187
-737.1370332241058,7332.0,11088.0,10144.0,354.0,-17.0,113.0,0.7909980217679655,0.5770696694977241,0.1530638336028486,0.13373177987207246
-737.1448180675507,7432.0,11124.0,10252.0,345.0,26.0,92.0,0.7718982962478103,0.6014411379906113,0.1539945974421456,0.13684751273193652
-737.1526114940643,7372.0,11124.0,9988.0,335.0,93.0,91.0,0.7516860878891308,0.623733023113562,0.1592394964679847,0.143415215079061
-737.1604273319244,7288.0,11148.0,9732.0,334.0,139.0,66.0,0.7304529682988358,0.6444068894305748,0.1687071861880031,0.15071863616141612
-737.1682274341583,7312.0,11032.0,10068.0,329.0,138.0,31.0,0.7092514023523514,0.6636127909968762,0.17986621391937865,0.15565557162166577
-737.1760168075562,7200.0,11128.0,9984.0,284.0,151.0,45.0,0.6896342991510728,0.6794899730395374,0.1902646017170361,0.16277988606273014
-737.183819770813,7100.0,11068.0,10152.0,283.0,163.0,90.0,0.6686659678574924,0.6953140850252495,0.1985584261025835,0.1732013222188784
-737.1916115283966,7128.0,11072.0,10016.0,289.0,155.0,74.0,0.6471373482871419,0.7107312017648444,0.20728739220174294,0.18195149992233478
-737.1994087696075,7156.0,11060.0,10188.0,240.0,115.0,61.0,0.6291157453833943,0.7232774527188747,0.2136525003891265,0.1882437631813234
-737.2072157859802,7240.0,11072.0,9916.0,235.0,66.0,122.0,0.6109653689632752,0.7370837588962748,0.2132819419842313,0.19478106561558292
-737.2150025367737,7408.0,11040.0,9900.0,262.0,47.0,136.0,0.5908150574781873,0.7524543027084769,0.2113337752195361,0.20022019289773113
-737.2227892875671,7164.0,11016.0,10060.0,273.0,44.0,124.0,0.5698037453791657,0.7677043284985858,0.21007897124173008,0.20450081075249188
-737.2305827140808,7108.0,10916.0,10076.0,294.0,73.0,64.0,0.547519963162729,0.7818353465253085,0.21452136513216402,0.20720995334145353
-737.2383625507355,7152.0,10880.0,10056.0,296.0,136.0,32.0,0.5240782195035751,0.7937237475183451,0.22403594468013596,0.2124912420752353
-737.2461402416229,7156.0,10796.0,10200.0,378.0,214.0,-29.0,0.4939828614487565,0.8058287501493809,0.24261308228048828,0.2185402716524953
-737.2539403438568,7132.0,10664.0,9988.0,393.0,250.0,-47.0,0.4616508108749016,0.8162652715689948,0.2639220228189541,0.22568717535582897
-737.2617328166962,7044.0,10504.0,9956.0,467.0,7.0,-150.0,0.4308681146024752,0.8306727642460159,0.28378346984804026,0.20929015456967356
-737.2695262432098,6808.0,10492.0,10012.0,585.0,267.0,-220.0,0.385269193145075,0.8408197775272382,0.31986008753883416,0.2056192474746421
-737.277313709259,6696.0,10176.0,10004.0,643.0,333.0,-199.0,0.33172319110818677,0.8490479879500107,0.3564036606557648,0.20506991322524754
-737.2850914001465,6592.0,10244.0,10224.0,705.0,339.0,-270.0,0.2731268007477276,0.8527385989607056,0.3977840207663197,0.20001626278586526
-737.2928893566132,6832.0,10568.0,9868.0,762.0,347.0,-259.0,0.20834219857354258,0.8533339662381677,0.437337307714096,0.19274529732049633
-737.3006875514984,6932.0,11068.0,9772.0,757.0,287.0,-138.0,0.1430172468040488,0.8547891908017178,0.4643621372294941,0.1823439385139813
-737.3085660934448,6964.0,11348.0,9732.0,751.0,126.0,2.0,0.0817187159027177,0.860325097573966,0.47667538803533455,0.1610694024230545
-737.316379070282,7032.0,11696.0,9676.0,720.0,41.0,230.0,0.02270958959771291,0.8725397317611621,0.4687896807788115,0.1356278962225796
-737.3241758346558,7128.0,11636.0,9636.0,686.0,-50.0,391.0,-0.03200163909875247,0.8883671478665989,0.44596858062434364,0.10436345520471238
-737.331981420517,7156.0,11364.0,9812.0,713.0,-167.0,276.0,-0.08307419114357838,0.8965472362171776,0.4305289466733697,0.06282163698519119
-737.3398041725159,7224.0,11256.0,9872.0,836.0,-261.0,561.0,-0.14115726596273026,0.9092603527893682,0.3914994988020177,0.00695554088835685
-737.3476054668427,7256.0,10508.0,9676.0,924.0,-222.0,478.0,-0.20629181331014196,0.9104324677508919,0.35533888804301844,-0.047861091406127695
-737.3553955554962,7376.0,10180.0,9664.0,998.0,-171.0,384.0,-0.27745165192528876,0.8996511303032035,0.3223069687924954,-0.09882632471103188
-737.3631925582886,7380.0,9768.0,9872.0,1104.0,-116.0,222.0,-0.3572367848682667,0.8739024628681404,0.2967271683595943,-0.14362921877974263
-737.3709771633148,7300.0,9592.0,9952.0,1232.0,-39.0,178.0,-0.44537196625916087,0.8346807798524101,0.2673578796518752,-0.1829523752332145
-737.3787803649902,7152.0,9620.0,10128.0,1363.0,124.0,68.0,-0.5426539986207999,0.779679898233869,0.2341606159644335,-0.2068687990056442
-737.3865871429443,7296.0,9968.0,9992.0,1455.0,250.0,-250.0,-0.6458581530828503,0.7041326497735496,0.21127882811826226,-0.20597503345858034
-737.3943910598755,7528.0,10544.0,9860.0,1290.0,355.0,-68.0,-0.7280168440034764,0.6321592656669431,0.17110611326573194,-0.20270381269661292
-737.4021871089935,7676.0,11392.0,9820.0,1558.0,331.0,5.0,-0.8111104031337282,0.5338484054990615,0.1210896271384301,-0.20601722276020157
-737.4100260734558,7504.0,12104.0,9676.0,1421.0,257.0,227.0,-0.8689912227847726,0.4365798321050258,0.06625681374394166,-0.22329876747235738
-737.4178600311279,7456.0,13084.0,9608.0,1143.0,135.0,461.0,-0.8991702296519047,0.3529308970791719,0.016114305417456624,-0.258211171631951
-737.4256508350372,7520.0,13508.0,9656.0,836.0,23.0,641.0,-0.9067550375428538,0.28729883664559336,-0.02413493536087627,-0.30768845484982527
-737.4334471225739,7600.0,13476.0,9516.0,517.0,-110.0,821.0,-0.8947240197259072,0.24057011009064028,-0.04967704922518238,-0.37299750862005787
-737.4412384033203,7620.0,13116.0,9256.0,359.0,-284.0,728.0,-0.877377275571077,0.1992968355564808,-0.05427994968913508,-0.43306301471078373
-737.4490220546722,7504.0,12480.0,9636.0,236.0,-416.0,744.0,-0.8528346755239431,0.1612045575934867,-0.04412151237076559,-0.49471143000862117
-737.4568207263947,7400.0,11992.0,9568.0,146.0,-504.0,581.0,-0.8298378009915189,0.12573939952319999,-0.02101757521974876,-0.5432468030140515
-737.4646043777466,7180.0,11056.0,9704.0,191.0,-485.0,435.0,-0.8107976921996598,0.08764353758929225,0.0002840162462437356,-0.5787275973869846
-737.4724433422089,7172.0,10568.0,9708.0,188.0,-443.0,304.0,-0.7959029225885088,0.05158640679882342,0.019778516640948096,-0.6028981594997119
-737.4802477359772,7432.0,10260.0,9852.0,239.0,-420.0,109.0,-0.7897886261180567,0.01273660950730955,0.03583614672530707,-0.6121988855108226
-737.4880418777466,7448.0,10076.0,9904.0,376.0,-347.0,-6.0,-0.7886556239703594,-0.0320318359252582,0.03960588172516156,-0.6127215047637491
-737.4958372116089,7584.0,10180.0,9912.0,534.0,-264.0,-35.0,-0.7870433200762379,-0.08323315315362824,0.029055483480521085,-0.6105659943193612
-737.5036518573761,7424.0,10352.0,9772.0,712.0,-143.0,-77.0,-0.7839932546215518,-0.13998340572499945,0.0003490805735055866,-0.6047802088133261
-737.5114524364471,7468.0,10716.0,9788.0,898.0,-60.0,-52.0,-0.7733274770789803,-0.2042638602285466,-0.0434566062943347,-0.5986254354507257
-737.5192921161652,7716.0,11064.0,9632.0,985.0,34.0,-17.0,-0.7536734561267305,-0.26819573414035386,-0.09712985135994637,-0.5921259677582976
-737.5271208286285,7740.0,11656.0,9576.0,976.0,129.0,31.0,-0.7253677994773846,-0.3250584244284597,-0.1546831992403868,-0.5867296515961867
-737.5349123477936,7680.0,12080.0,9232.0,891.0,259.0,85.0,-0.689858129921238,-0.36838218985838644,-0.21345288282046773,-0.5855153196905643
-737.5427231788635,7708.0,12356.0,9440.0,643.0,390.0,158.0,-0.6522738370512486,-0.3894388582247954,-0.263899892571975,-0.5943341348967842
-737.5505216121674,7728.0,12480.0,9428.0,744.0,592.0,222.0,-0.5995735022552169,-0.4048816249268397,-0.3272119197795789,-0.6078773270522414
-737.5583233833313,7628.0,12416.0,9268.0,310.0,654.0,237.0,-0.5560743744655764,-0.39239745823802685,-0.368449312262727,-0.6332855825961755
-737.5661132335663,7420.0,12356.0,9268.0,197.0,696.0,239.0,-0.5125424298474066,-0.37043374412374525,-0.4038061312557797,-0.6610746608219226
-737.5739133358002,7268.0,12196.0,9268.0,142.0,640.0,501.0,-0.45524427621332014,-0.3566688228577058,-0.4231076302022059,-0.6975098085625623
-737.5817074775696,7124.0,12076.0,8960.0,126.0,504.0,234.0,-0.41787720411628626,-0.3392935137145593,-0.44274983494066,-0.7170991127390983
-737.5895063877106,7060.0,11908.0,9352.0,83.0,340.0,269.0,-0.38509284122198906,-0.3312577115542928,-0.4518256273315564,-0.733365825943529
-737.5972957611084,6660.0,11856.0,9500.0,117.0,190.0,305.0,-0.35444390688821614,-0.33492531089545263,-0.45641798454700044,-0.7442292498776544
-737.6051244735718,6664.0,11740.0,9688.0,41.0,252.0,233.0,-0.3278733909185451,-0.3289855854612344,-0.4596448300641488,-0.7569637734275025
-737.6129236221313,6924.0,11588.0,9844.0,90.0,-85.0,205.0,-0.3150354023759409,-0.34535492301252435,-0.45696104999511206,-0.7567491468037522
-737.6207585334778,7080.0,11436.0,10052.0,90.0,-199.0,109.0,-0.31294977973257815,-0.36524410300725785,-0.45384050972754564,-0.750125304408534
-737.6285870075226,7212.0,11292.0,9992.0,121.0,-180.0,-1.0,-0.31620106109974205,-0.38021594031748795,-0.4565992856444609,-0.7395740801548238
-737.6363880634308,7276.0,11496.0,10104.0,138.0,-68.0,-53.0,-0.31769896480484766,-0.3862396241044534,-0.46515432687424824,-0.7304230094429828
-737.6441888809204,7280.0,11040.0,9748.0,132.0,87.0,-91.0,-0.31545531974296864,-0.38058995079217545,-0.47880435241224706,-0.7255243777523671
-737.6519775390625,7316.0,10988.0,9884.0,156.0,210.0,-183.0,-0.31294077683311594,-0.36378208193036715,-0.5001687661345341,-0.7208064042757606
-737.6598000526428,7404.0,10880.0,9772.0,214.0,364.0,-161.0,-0.30011963020925836,-0.33943549704065284,-0.528095780699121,-0.7182106914545404
-737.6676001548767,7096.0,10800.0,9668.0,291.0,483.0,-77.0,-0.27369029299292774,-0.3128571128982598,-0.5604050671406482,-0.7163520162277038
-737.6753869056702,7024.0,10804.0,9544.0,330.0,555.0,-95.0,-0.24303872603869345,-0.28095843730005815,-0.5957570754012806,-0.712087102301896
-737.6831748485565,7004.0,10892.0,9500.0,377.0,597.0,-34.0,-0.20443004276455537,-0.24963902064953505,-0.6313275176003429,-0.7052051350529233
-737.6909687519073,6956.0,11004.0,9384.0,433.0,636.0,11.0,-0.15886519781005531,-0.21836799202480534,-0.6674363165775395,-0.6939784091001915
-737.6987547874451,6840.0,11148.0,9228.0,476.0,628.0,66.0,-0.1088990587563563,-0.1903571839174567,-0.7019112217860074,-0.6776619911606887
-737.7065696716309,6812.0,11300.0,9432.0,542.0,584.0,194.0,-0.05245303958105252,-0.17244264681166208,-0.7342918166865156,-0.6544675241343251
-737.7143650054932,6708.0,11464.0,9596.0,569.0,566.0,161.0,0.0016308324681256787,-0.15266697900618006,-0.7648972972244091,-0.6257972983365954
-737.7221508026123,6836.0,11628.0,9708.0,551.0,521.0,201.0,0.054660489125830054,-0.1372447817115197,-0.7902834109973843,-0.5946664873051295
-737.7299411296844,6956.0,11752.0,9628.0,573.0,507.0,193.0,0.10631800227109067,-0.12123107529742594,-0.81326785655067,-0.5591018711082918
-737.7377421855927,7088.0,11888.0,9980.0,567.0,466.0,182.0,0.1540002893256994,-0.10592082436803153,-0.8327840200194703,-0.521090650322003
-737.7455410957336,7084.0,11992.0,9804.0,756.0,473.0,131.0,0.2007689525280556,-0.08350709126440155,-0.8568693565527306,-0.467432668103392
-737.7533869743347,7172.0,12024.0,9864.0,466.0,451.0,102.0,0.24172388427444474,-0.0644565342126169,-0.8657365773157469,-0.43349175040153687
-737.7612249851227,7060.0,11984.0,9760.0,425.0,458.0,63.0,0.2807512048868677,-0.04284536358810184,-0.8704168794072994,-0.4021411342009594
-737.7690358161926,7120.0,11812.0,9716.0,385.0,434.0,45.0,0.3164049210518013,-0.021554734256466077,-0.8719279798210743,-0.37304814350225185
-737.7768135070801,7132.0,11684.0,9936.0,368.0,448.0,-36.0,0.34964472346071185,0.0059441251187921824,-0.8704128222491208,-0.34654689956335644
-737.7846179008484,7200.0,11564.0,9696.0,1.0,459.0,-125.0,0.3804841368436148,0.029346524929267495,-0.8555523655492265,-0.34985818968271654
-737.7924420833588,7084.0,11384.0,9684.0,258.0,420.0,-100.0,0.4078219717869727,0.05816893132169559,-0.8483260067056853,-0.33262681957933427
-737.8002665042877,6956.0,11288.0,9952.0,255.0,331.0,-102.0,0.42785802793428934,0.08436528958399382,-0.8427509327694953,-0.3155802135143064
-737.8081426620483,6948.0,11180.0,9772.0,249.0,336.0,-191.0,0.4452087906929385,0.11689048010976172,-0.834896276501661,-0.3017846182844688
-737.815972328186,6980.0,11084.0,9892.0,227.0,338.0,-317.0,0.45880072767183955,0.15756820034175736,-0.8235823751423247,-0.29391533795257735
-737.8238039016724,6976.0,11152.0,9840.0,180.0,381.0,-342.0,0.4745041058288873,0.198919011520997,-0.8072407074571514,-0.28920498030136954
-737.8316118717194,6888.0,11216.0,9904.0,123.0,317.0,-357.0,0.48534317583499126,0.23694968943443054,-0.7901908857362617,-0.2896466993540129
-737.8394134044647,6912.0,11204.0,9764.0,79.0,307.0,-368.0,0.49523938157279107,0.2731850861744385,-0.7707809451507613,-0.2932654057739558
-737.8472294807434,6792.0,11140.0,9828.0,89.0,311.0,-296.0,0.5062012018561386,0.3046663185101434,-0.7519078884780196,-0.2925291521359924
-737.8550386428833,6772.0,11192.0,9816.0,80.0,241.0,-300.0,0.5120410623506153,0.33382180566073894,-0.7347928488441444,-0.2940347289348034
-737.8628315925598,6664.0,11264.0,9888.0,57.0,154.0,-309.0,0.5122019598185416,0.3599394178414477,-0.7199356793574796,-0.29964209555749866
-737.8706645965576,6668.0,11192.0,9700.0,103.0,122.0,-284.0,0.5091164848792581,0.38538514341011865,-0.7078717450819526,-0.3019872324744564
-737.8784592151642,6732.0,11024.0,9708.0,150.0,46.0,-199.0,0.5016659870717128,0.4054117199792467,-0.702826720359908,-0.3000119595398965
-737.8862481117249,6704.0,11360.0,9676.0,185.0,-46.0,-247.0,0.48577157263525134,0.42725219876914733,-0.7006009426962628,-0.301064539525185
-737.8940525054932,6808.0,11348.0,9328.0,197.0,-109.0,-222.0,0.46587294232063425,0.44609270203158163,-0.7017760461244344,-0.3024468282089156
-737.9018766880035,6820.0,11416.0,9708.0,204.0,-175.0,-203.0,0.44178425911306696,0.4619486516509627,-0.7059985986999305,-0.30495260331977897
-737.9097065925598,6680.0,11496.0,9704.0,180.0,-201.0,-161.0,0.4178203171974878,0.47322832450704805,-0.7117174808573545,-0.3081223180220863
-737.9175045490265,7012.0,11568.0,9796.0,204.0,-185.0,-173.0,0.3932131841369654,0.4861890885067379,-0.7164591286495636,-0.3093378072796217
-737.9252953529358,7072.0,11536.0,9800.0,223.0,-242.0,-84.0,0.36630898658990885,0.492291032082919,-0.726851537783367,-0.30847059518884923
-737.9330976009369,7068.0,11548.0,9868.0,183.0,-278.0,-97.0,0.33816119498995945,0.4965318368541262,-0.7361163352872209,-0.3118266860237302
-737.9408893585205,7192.0,11432.0,9964.0,222.0,-273.0,-108.0,0.3080176379568994,0.5022842167327297,-0.7451109487284945,-0.3124825985772064
-737.948676109314,7192.0,11492.0,9836.0,247.0,-9.0,-90.0,0.29418711921462715,0.514349492884787,-0.7479098045908573,-0.2992147427086885
-737.9565076828003,6940.0,11364.0,9828.0,242.0,-287.0,-100.0,0.2619368712849958,0.5192533009013961,-0.75664241456091,-0.29875967172941525
-737.9643180370331,7132.0,11268.0,9912.0,257.0,-231.0,-73.0,0.23312808652111305,0.5236353758762557,-0.7649259078292109,-0.29384629304722293
-737.9721128940582,7072.0,11052.0,9688.0,308.0,-232.0,-80.0,0.20149681379252057,0.5289418589769835,-0.7734100826035639,-0.28540565513069877
-737.97993683815,7084.0,11280.0,9760.0,259.0,-211.0,-107.0,0.1726518226457302,0.535176858434565,-0.7782485238350417,-0.27947506772840286
-737.9877347946167,7044.0,11032.0,9924.0,256.0,-186.0,-105.0,0.1455341447611255,0.5413673043652096,-0.7820443889084502,-0.2723009883379107
-737.9955394268036,7112.0,11292.0,9684.0,206.0,-183.0,-80.0,0.12146599375727596,0.5448922556182365,-0.7852255099484714,-0.2678793397296451
-738.0033304691315,7104.0,11216.0,9524.0,159.0,-146.0,-64.0,0.10247620198144443,0.5474137885416024,-0.7872843268838073,-0.26461322866610143
-738.011150598526,7152.0,11332.0,9952.0,157.0,-144.0,-108.0,0.08265790074848917,0.5527644283223521,-0.7868581337107297,-0.2616742930411465
-738.0189483165741,7128.0,11472.0,9620.0,96.0,-139.0,-133.0,0.06552070633291626,0.5592896602838063,-0.7834912278995614,-0.26276150544875826
-738.0267417430878,7092.0,11436.0,9776.0,69.0,-64.0,-125.0,0.0549918110122102,0.566683785334009,-0.7792588972901197,-0.26191784810375707
-738.0345339775085,7044.0,11564.0,9728.0,3.0,-83.0,-161.0,0.04559908671790708,0.5756516341045845,-0.7716605331979808,-0.266619468433613
-738.0423355102539,7032.0,11604.0,9956.0,8.0,-89.0,-211.0,0.03437089727349469,0.5876789614672734,-0.7614426042894402,-0.271398673619229
-738.0501370429993,7052.0,11604.0,9976.0,-48.0,-123.0,-228.0,0.02333551052944548,0.5995881646925428,-0.7487782289779173,-0.2815681986973173
-738.0579454898834,6980.0,11556.0,9700.0,-98.0,-156.0,-15.0,0.017982980364047996,0.5964259837303449,-0.7458043473326877,-0.29619002996080074
-738.0657455921173,7068.0,11608.0,9656.0,-88.0,-160.0,-278.0,0.0050442614744924345,0.6099604998471915,-0.7289997363640598,-0.310615724704131
-738.0735425949097,7056.0,11756.0,9528.0,-68.0,-219.0,-3.0,-0.005265522802206287,0.6040276772420754,-0.7269490252738063,-0.32660060325820794
-738.08136510849,6944.0,11548.0,9556.0,-21.0,-257.0,-283.0,-0.028435051187528076,0.6142904235548788,-0.7109168200079402,-0.3412271947288614
-738.089168548584,6992.0,11756.0,9608.0,-4.0,-306.0,-295.0,-0.055876834791300435,0.6230274222689282,-0.6937480403109506,-0.3569709610029308
-738.0969500541687,6920.0,11488.0,9756.0,41.0,-288.0,-393.0,-0.08763712590503323,0.6370360782270496,-0.6716446131717047,-0.36796505648992955
-738.1047515869141,6940.0,11524.0,9516.0,-7.0,-354.0,-388.0,-0.12026496749261859,0.6477491632099324,-0.6464684408531484,-0.38475435557733617
-738.1125729084015,6904.0,11528.0,9492.0,-36.0,-372.0,-382.0,-0.1518169103794663,0.656437099651305,-0.6190957793889214,-0.4034381933667656
-738.120377779007,7116.0,11592.0,9780.0,-119.0,-356.0,-447.0,-0.17968137053186808,0.6687259321609516,-0.5838324883425765,-0.4238630183148456
-738.1281776428223,6900.0,11520.0,9724.0,-194.0,-356.0,-493.0,-0.20436360987660435,0.6826206952323711,-0.5414711093525607,-0.44617657842516184
-738.1359720230103,6656.0,11548.0,9684.0,-294.0,-342.0,-519.0,-0.22276629964084585,0.6977754619065889,-0.4921293128992154,-0.4704182393261529
-738.1437940597534,6988.0,11484.0,9604.0,-347.0,-307.0,-546.0,-0.2367239217742459,0.7139325866499433,-0.43782368150121165,-0.4925164672331956
-738.151593208313,7108.0,11404.0,9472.0,-349.0,-283.0,-502.0,-0.2468948484580873,0.7268604810981951,-0.38504915290562347,-0.51230257140602
-738.1593818664551,7076.0,11436.0,9580.0,-386.0,-295.0,-546.0,-0.2561681431005528,0.7387898741312422,-0.32615354258899554,-0.531216783430462
-738.1671805381775,7124.0,11268.0,9812.0,-415.0,-299.0,-494.0,-0.26028200040705896,0.7467843025323888,-0.2678809794736711,-0.5502783537370337
-738.1749842166901,7100.0,11308.0,9780.0,-317.0,-279.0,-736.0,-0.2806884134830825,0.7556789502092787,-0.19782829484660233,-0.5576982199227808
-738.1827836036682,7120.0,11504.0,9840.0,-358.0,-277.0,-494.0,-0.28538680954045437,0.7581554936600072,-0.14082037984678852,-0.569143423921666
-738.190593957901,7136.0,11016.0,9948.0,-273.0,-276.0,-486.0,-0.29439969755848533,0.7560599288974814,-0.08812113880341532,-0.5778727082057058
-738.198390007019,7164.0,11336.0,9824.0,-269.0,-244.0,-493.0,-0.30293887125591656,0.7533380983652017,-0.03572787297592489,-0.5826090189194711
-738.2062163352966,7132.0,11428.0,9852.0,-250.0,-256.0,-397.0,-0.30713767177372653,0.7473122872435651,0.009818084025113324,-0.5891471812189903
-738.2140381336212,7088.0,11388.0,9980.0,-214.0,-219.0,-359.0,-0.3111776438879569,0.740808400604424,0.050038249266817846,-0.5931842556479118
-738.2218940258026,7028.0,11484.0,9848.0,-162.0,-238.0,-366.0,-0.318342906885004,0.7306410289003311,0.08845285570515155,-0.5974927387350201
-738.2296946048737,7076.0,11368.0,9872.0,-169.0,-205.0,-310.0,-0.3219428587009084,0.7217507447554242,0.12262542611455259,-0.6003262971473943
-738.2374913692474,6936.0,11504.0,9656.0,-158.0,-190.0,-339.0,-0.3274995509256192,0.7120866014225868,0.1574648884142681,-0.6007341551257342
-738.2452981472015,6880.0,11456.0,9672.0,-189.0,-221.0,-333.0,-0.329934194198248,0.7007599503928376,0.1942174392658604,-0.6019622128582428
-738.253089427948,6848.0,11360.0,9724.0,-216.0,-252.0,-324.0,-0.32921231672411255,0.687640582179598,0.23242461840113837,-0.6039441009049854
-738.2608892917633,6788.0,11396.0,9704.0,-242.0,-285.0,-408.0,-0.33003964145098197,0.6704685303751984,0.27751128886066073,-0.6037659061278003
-738.2686533927917,6812.0,11396.0,9536.0,-253.0,-270.0,-394.0,-0.3291063572009192,0.6532152385340787,0.3212996792569859,-0.6014693457743012
-738.2764894962311,6796.0,11376.0,9676.0,-272.0,-285.0,-414.0,-0.3269528925295589,0.633625546875446,0.3668940044161759,-0.5975025204438972
-738.2843053340912,6780.0,11360.0,9656.0,-297.0,-319.0,-375.0,-0.31948930947102694,0.6126423842232906,0.4116901314245223,-0.594228176607764
-738.2921125888824,6884.0,11408.0,9632.0,-319.0,-315.0,-394.0,-0.31115121490825937,0.5902005706479563,0.4574527191916075,-0.5878649654233062
-738.2999589443207,6964.0,11376.0,9496.0,-289.0,-347.0,-416.0,-0.3033472225899773,0.562785974111339,0.5024024086806717,-0.5821032809067113
-738.3078787326813,7072.0,11408.0,9748.0,-275.0,-316.0,-473.0,-0.29959163573061554,0.5324197340938651,0.5471341013015477,-0.5722048179984331
-738.3157889842987,7112.0,11424.0,9748.0,-238.0,-312.0,-435.0,-0.2950087559566004,0.5015901987666734,0.5866191422099926,-0.5632540176536343
-738.323602437973,7092.0,11368.0,9900.0,-205.0,-282.0,-450.0,-0.293396879053657,0.4693428119060887,0.6228833876642014,-0.552857921753526
-738.3314170837402,7104.0,11388.0,10192.0,-178.0,-205.0,-444.0,-0.29612484274977424,0.4393738997889694,0.6542284017796879,-0.5396719855573839
-738.3392162322998,7100.0,11404.0,9852.0,-165.0,-185.0,-494.0,-0.30220020074318454,0.4061990759736154,0.6849242075185189,-0.523981086780896
-738.3470268249512,7096.0,11384.0,9900.0,-140.0,-91.0,-540.0,-0.316163078051161,0.3729484073127863,0.7120003095072059,-0.503990032462661
-738.3548197746277,7112.0,11508.0,9852.0,-157.0,-19.0,-510.0,-0.3320056944296209,0.34433008347016897,0.73522839027751,-0.4802584997828492
-738.3626623153687,7024.0,11492.0,9908.0,-220.0,-59.0,-495.0,-0.34203397635133764,0.31606056497715346,0.7601719615842585,-0.45305305109750227
-738.3704631328583,6940.0,11468.0,9824.0,-185.0,-38.0,-475.0,-0.3529080700233241,0.28822835967048,0.780942841393616,-0.4272102354463697
-738.3782815933228,6972.0,11436.0,9860.0,-205.0,-60.0,-423.0,-0.35919663320186845,0.26319737244794866,0.8003859318580435,-0.4013568012587668
-738.3860764503479,6980.0,11336.0,9676.0,-217.0,-83.0,-438.0,-0.3634889725038339,0.23622207241188062,0.8198780647917139,-0.37399847358904775
-738.3938879966736,6660.0,11368.0,9692.0,-245.0,-92.0,-387.0,-0.36425676488769754,0.21307087289909726,0.8380701043144273,-0.3457691608717733
-738.4016721248627,6668.0,11360.0,9712.0,-229.0,-135.0,-344.0,-0.3603185861886676,0.1909278659538717,0.8550479326617637,-0.3203281119417159
-738.409517288208,6900.0,11312.0,9496.0,-236.0,-144.0,-381.0,-0.356065586359744,0.16570083223140786,0.8717807736090794,-0.29284606053977474
-738.4173634052277,6988.0,11340.0,9508.0,-227.0,-117.0,-319.0,-0.3518856247954934,0.14535257221925718,0.8852607629920543,-0.2671376392765659
-738.4251673221588,6980.0,11352.0,9684.0,-10.0,-147.0,-358.0,-0.3486248743670342,0.11445853178684014,0.8940296309174978,-0.25704272118714694
-738.4329600334167,7024.0,11300.0,9628.0,-212.0,-139.0,-332.0,-0.34295877169611955,0.09177803725084645,0.9057180086752762,-0.23158359517971777
-738.4407606124878,7020.0,11240.0,9660.0,-205.0,-86.0,-323.0,-0.34092587691176685,0.07055792993407566,0.9144737220465404,-0.20622545105225853
-738.4485800266266,6980.0,11016.0,9604.0,-152.0,-72.0,-304.0,-0.339638560695588,0.049456589972305176,0.92078472905221,-0.18535149457500763
-738.456374168396,7060.0,11504.0,9656.0,-117.0,-97.0,-287.0,-0.3359255599096222,0.02823840242462767,0.9264026702249125,-0.16773402585064096
-738.4641728401184,6992.0,11292.0,9624.0,-81.0,-59.0,-224.0,-0.3342389058616902,0.0115966373519036,0.9296384102521309,-0.15466834839229252
-738.4719641208649,7032.0,11368.0,9896.0,-7.0,-33.0,-225.0,-0.3346073834474946,-0.006936704089111659,0.930719386608241,-0.14748289551802665
-738.4797828197479,7048.0,11344.0,9500.0,17.0,-22.0,-172.0,-0.3350687082115916,-0.021722641632864196,0.9309096538150211,-0.1437508401780763
-738.4875798225403,7028.0,11424.0,9612.0,8.0,21.0,-135.0,-0.3385139770391908,-0.032694954218442145,0.9298498472154558,-0.14042289325874802
-738.4953970909119,6996.0,11484.0,9612.0,25.0,70.0,-96.0,-0.34536669263624536,-0.04039939214487925,0.9271247844264825,-0.13974752532325477
-738.5031976699829,7024.0,11528.0,9616.0,7.0,74.0,-243.0,-0.3542939112383149,-0.05939374064919517,0.9236978335138807,-0.1331560002137208
-738.5110442638397,6888.0,11484.0,9564.0,-19.0,120.0,54.0,-0.36350398621742175,-0.053087762355359586,0.9203975784819844,-0.13384632612307568
-738.5188324451447,6840.0,11492.0,9496.0,-20.0,99.0,-21.0,-0.3718690524591216,-0.05301711495964769,0.9173265223822891,-0.13196455841825983
-738.5266168117523,6852.0,11504.0,9704.0,9.0,148.0,-20.0,-0.383964906329242,-0.053237328744600194,0.9122177624223725,-0.1326479983144708
-738.5344214439392,7148.0,11536.0,9504.0,-23.0,142.0,-236.0,-0.3980866518127868,-0.06963261562073324,0.906330120700006,-0.12346671131204914
-738.5422246456146,6948.0,11512.0,9556.0,-38.0,96.0,86.0,-0.40505084247484857,-0.060507501442729886,0.9038289284705213,-0.12395936971202594
-738.5500490665436,7160.0,11516.0,9552.0,-62.0,64.0,104.0,-0.4093669749796901,-0.049453492934290084,0.9026858827675328,-0.12300906017353358
-738.5578815937042,6952.0,11464.0,9708.0,-38.0,17.0,108.0,-0.4097827221285629,-0.03944087987726883,0.9028716258637147,-0.12387640957674027
-738.5656759738922,6976.0,11384.0,9728.0,-247.0,22.0,199.0,-0.4101494826928558,-0.01471818185411543,0.9050576937546071,-0.11149595483820803
-738.573480129242,7064.0,11340.0,9720.0,96.0,-49.0,257.0,-0.4036256667525594,0.0016307467737052188,0.9059085810992745,-0.12811441954054584
-738.5812706947327,7056.0,11472.0,9620.0,144.0,-125.0,237.0,-0.39106302726581976,0.013854184042015352,0.9083209518410948,-0.14775255915452082
-738.5890686511993,7064.0,11416.0,9564.0,234.0,-110.0,227.0,-0.37961392626171303,0.022394481120527613,0.908349648410098,-0.17404789696161385
-738.5968639850616,6912.0,11492.0,9416.0,242.0,-98.0,288.0,-0.36781606219014834,0.03566019890368492,0.9068149348405695,-0.20279637215486937
-738.6046681404114,7072.0,11536.0,9560.0,257.0,-107.0,274.0,-0.35517528326866976,0.04713465122880271,0.9043045130450044,-0.23208229250633666
-738.6125228404999,7036.0,11648.0,9456.0,245.0,-64.0,508.0,-0.3405065050716992,0.07820574205215723,0.8981194421917379,-0.26705926209575653
-738.6203193664551,7096.0,11708.0,9260.0,234.0,34.0,489.0,-0.3330771894393596,0.11021468257383563,0.8873082126417944,-0.29932665333837194
-738.628116607666,7108.0,11752.0,9404.0,224.0,74.0,265.0,-0.3339581831584226,0.12605846389964434,0.8763246012858305,-0.32347548402006854
-738.6359314918518,6972.0,11768.0,9264.0,165.0,107.0,286.0,-0.33580653042884534,0.14603758915001172,0.8649935513528456,-0.3430643566367473
-738.6437168121338,7024.0,11736.0,8976.0,109.0,195.0,357.0,-0.34107562698755184,0.17547522865125034,0.850880056306414,-0.358997201360726
-738.6515071392059,7080.0,11728.0,9080.0,44.0,257.0,429.0,-0.3471374559759597,0.2138329247706442,0.8344708320873788,-0.37071484639540453
-738.6593241691589,6948.0,12000.0,9096.0,58.0,272.0,365.0,-0.3560090173983162,0.2472220543343292,0.8168789110327196,-0.3805885969019532
-738.667144536972,6992.0,11712.0,9028.0,46.0,384.0,410.0,-0.3703868875632495,0.2873926730774711,0.7936051382257582,-0.38782713876709296
-738.674934387207,6940.0,11672.0,9044.0,9.0,433.0,389.0,-0.387011269697304,0.3282389530630998,0.7685470455735145,-0.38963688937207047
-738.6827244758606,6844.0,11656.0,9104.0,14.0,458.0,454.0,-0.40212977474565026,0.37316415021524496,0.7384184666346448,-0.39214580118890263
-738.6905882358551,6804.0,11688.0,9228.0,37.0,532.0,567.0,-0.41732311916204595,0.4255970573011588,0.6983968286722356,-0.3961696968850837
-738.6983885765076,6824.0,11656.0,9348.0,22.0,498.0,539.0,-0.42904602798752817,0.4738602179311188,0.6581206495534698,-0.3978105206775162
-738.7061848640442,6944.0,11712.0,9524.0,-245.0,579.0,607.0,-0.42991015352089984,0.5364119753742378,0.6180427452474099,-0.3813956182519532
-738.7140369415283,6976.0,11640.0,9616.0,53.0,581.0,700.0,-0.4391024950640392,0.5896307772311646,0.5599340135973456,-0.38209742970488003
-738.7218773365021,6972.0,11624.0,9568.0,63.0,566.0,762.0,-0.4431221572266286,0.6410978351590025,0.49521922520139544,-0.38391957298396395
-738.7296721935272,6992.0,11556.0,9612.0,101.0,583.0,864.0,-0.443221797691029,0.6911662757753241,0.41918944792157886,-0.3874581577842998
-738.7374777793884,6960.0,11420.0,9712.0,166.0,521.0,923.0,-0.4392044309976704,0.7329054415189398,0.33626225335996784,-0.39607673315813074
-738.7452702522278,7000.0,11380.0,9508.0,215.0,540.0,771.0,-0.4406260127463113,0.7632339283906648,0.25788619472393964,-0.39600176516708546
-738.7530710697174,7032.0,11416.0,9440.0,293.0,527.0,1057.0,-0.43306476825394485,0.7895128165839954,0.1561847351624062,-0.40587035793343235
-738.7608580589294,7004.0,11472.0,9464.0,395.0,572.0,1084.0,-0.42701144169887256,0.8045374383207256,0.04556397189224746,-0.41024951366696044
-738.7686386108398,7008.0,11460.0,9396.0,430.0,576.0,1075.0,-0.4183581221072348,0.8082577020910888,-0.06639445365506653,-0.409008245884097
-738.7764642238617,7076.0,11580.0,9456.0,451.0,700.0,1105.0,-0.4037375103465129,0.8045058870056367,-0.18469943753424994,-0.39452809568775316
-738.7842531204224,7020.0,11552.0,9464.0,450.0,726.0,1147.0,-0.38116697676214517,0.7890079355745574,-0.30399640100318626,-0.3738507745123599
-738.7920520305634,7164.0,11716.0,9344.0,384.0,807.0,1156.0,-0.3456556763314646,0.7656628460042888,-0.419622249417197,-0.34380187239528226
-738.7998793125153,6996.0,11724.0,9348.0,337.0,923.0,1191.0,-0.2959217276889178,0.7329164009338763,-0.5323981217200054,-0.3030117494632013
-738.8077247142792,6872.0,11720.0,9412.0,341.0,982.0,1189.0,-0.23835624646283826,0.6882896004204707,-0.636852393685252,-0.2527108117642378
-738.8155918121338,6736.0,11720.0,9524.0,331.0,946.0,1256.0,-0.17617271338200716,0.6262931615778355,-0.7321508168541444,-0.20168101596399557
-738.8234007358551,6796.0,11580.0,9440.0,273.0,882.0,1261.0,-0.11143875314432804,0.5518978952996412,-0.8119512620262217,-0.1540300800346786
-738.8312087059021,6744.0,11712.0,9384.0,246.0,772.0,1027.0,-0.054347848661181516,0.4839323581648952,-0.866620756234851,-0.10873936237536046
-738.8390033245087,6580.0,11396.0,9756.0,178.0,695.0,1031.0,0.0005567777222813193,0.40922542171685805,-0.909710319193905,-0.07043705964441635
-738.8467891216278,6508.0,11308.0,9780.0,197.0,590.0,1331.0,0.048227763079428804,0.3046630267689094,-0.9506506841638106,-0.03343351144046677
-738.8545863628387,6416.0,11080.0,9892.0,182.0,467.0,1306.0,0.08538465167038242,0.1969480126936485,-0.9766886526529452,-0.00046619108156477877
-738.8623869419098,6516.0,10920.0,9924.0,114.0,317.0,1265.0,0.10985226149899778,0.08937982189256943,-0.9896321049216612,0.02391704392960082
-738.8701934814453,6620.0,10772.0,10144.0,73.0,150.0,1025.0,0.11967053830070426,0.0012203307363246878,-0.9919661830506818,0.040994691602387216
-738.8780307769775,6704.0,10532.0,10200.0,14.0,69.0,1141.0,0.12101606184608807,-0.09719081624720662,-0.986414686885806,0.05380635193397335
-738.8858613967896,6616.0,10388.0,10332.0,18.0,23.0,1045.0,0.11780089975925391,-0.18630792567178994,-0.9731772422250533,0.06586622854714602
-738.8936638832092,6568.0,10492.0,10452.0,106.0,-250.0,966.0,0.0924208036002346,-0.26482184862149105,-0.9557722673949955,0.08847121810629811
-738.9014580249786,6640.0,10540.0,10556.0,126.0,50.0,770.0,0.09337479368747655,-0.3276661166284904,-0.9344270964053726,0.10374037507571679
-738.9092853069305,6608.0,10544.0,10512.0,186.0,96.0,516.0,0.1017615542637963,-0.3686680452448904,-0.9161259840000475,0.12017337445987185
-738.9170732498169,6584.0,10644.0,10288.0,210.0,126.0,283.0,0.11559247615412273,-0.3905418121753404,-0.9032219810565191,0.13529791327177484
-738.9248743057251,6524.0,10644.0,10144.0,163.0,212.0,-72.0,0.1387009958450187,-0.3856037107234777,-0.9013566769384114,0.14009979645391712
-738.9326758384705,6372.0,10704.0,9744.0,189.0,217.0,-291.0,0.1656191763970583,-0.3628309740999165,-0.9056431263542982,0.14399479272000867
-738.9405150413513,6192.0,10824.0,10000.0,183.0,13.0,-268.0,0.17577406657376035,-0.33901265648168627,-0.9112846296692056,0.1540591444673508
-738.9483213424683,6220.0,11160.0,9884.0,171.0,-212.0,-673.0,0.17270956613909835,-0.27942588649057215,-0.9302954055032752,0.16322695311283378
-738.9561128616333,6328.0,11512.0,9900.0,46.0,-283.0,-718.0,0.16075343439380774,-0.21588508538756387,-0.9492670544057682,0.16261618202871492
-738.9639501571655,6468.0,11956.0,9696.0,-141.0,-787.0,-819.0,0.10403147293188739,-0.13812163944079142,-0.97290947206394,0.15345039760807322
-738.971776008606,6416.0,12444.0,9676.0,-359.0,-1054.0,-727.0,0.0198323172996249,-0.06507078721652958,-0.9894191260600879,0.12814938481335042
-738.9795911312103,6856.0,12736.0,9688.0,-525.0,-1240.0,-694.0,-0.0817381321717227,0.007771120357615261,-0.9927464246408657,0.08782382250985962
-738.987389087677,7080.0,13008.0,9556.0,-741.0,-1449.0,-706.0,-0.19899323417425144,0.08434245990116929,-0.9759836551302695,0.02727539420889525
-738.995192527771,7340.0,12748.0,9544.0,-921.0,-1701.0,-737.0,-0.33001269946568756,0.16450605413088365,-0.9281771240380196,-0.05016575284163252
-739.0029728412628,7776.0,12556.0,9448.0,-1094.0,-1811.0,-807.0,-0.45573991662198393,0.2486422002470985,-0.8433102680214961,-0.1389459481351699
-739.010792016983,8048.0,11704.0,9316.0,-1205.0,-1982.0,-859.0,-0.572710368739907,0.32817391217825614,-0.7147250841475056,-0.23124180200335587
-739.0185794830322,8312.0,11068.0,9472.0,-1222.0,-2095.0,-832.0,-0.6686735642861346,0.3891940753682874,-0.5479149850699772,-0.31810816597325375
-739.0263931751251,8628.0,10644.0,9464.0,-1179.0,-2186.0,-879.0,-0.7383340909243765,0.42808414185366644,-0.34858927194913764,-0.38741741978679134
-739.0341799259186,8948.0,9832.0,9664.0,-991.0,-2221.0,-791.0,-0.7765649661005419,0.4301922463268245,-0.1389124957906618,-0.43884485087414943
-739.0419690608978,8948.0,9504.0,9700.0,-783.0,-2254.0,-751.0,-0.7848302902168369,0.3965134249461723,0.07045481172556896,-0.47101447844023486
-739.0497581958771,9268.0,9340.0,9960.0,-523.0,-2230.0,-603.0,-0.7617715166091019,0.32976614994278974,0.2601218211648144,-0.49324951189928085
-739.057555437088,9232.0,9268.0,10212.0,-276.0,-2167.0,-408.0,-0.7090652786397849,0.2408473323202418,0.4199995758227414,-0.512659096720642
-739.0653853416443,9636.0,9452.0,10120.0,-55.0,-2059.0,-171.0,-0.6300144846026001,0.14332956797226415,0.5446559253569637,-0.5346852411553491
-739.0731785297394,9680.0,9516.0,10412.0,173.0,-2044.0,66.0,-0.5237063881572668,0.04074377832430512,0.6379361480604457,-0.5631243508577223
-739.0809655189514,9964.0,10176.0,10340.0,234.0,-1437.0,305.0,-0.42607586585029206,-0.02353262644564355,0.6852133901580434,-0.5902441714922856
-739.0887649059296,9808.0,10540.0,10272.0,227.0,-1108.0,564.0,-0.3284074550877968,-0.055093701453462166,0.711498589045859,-0.6187753916314588
-739.0965790748596,9760.0,10896.0,10024.0,120.0,-815.0,736.0,-0.23647378072992614,-0.05666539822386644,0.7284795556462641,-0.6404582114992727
-739.104371547699,9524.0,11040.0,9936.0,79.0,-601.0,974.0,-0.14279570857193932,-0.02988183015389401,0.7375452786139567,-0.6593507593340229
-739.1121950149536,9052.0,11180.0,9580.0,75.0,-444.0,1142.0,-0.04808848390995771,0.016994400441759042,0.7374762682873617,-0.6734444607997114
-739.1199924945831,8596.0,11032.0,9308.0,20.0,-298.0,1207.0,0.04172047952673261,0.07659500428720412,0.7314263611974824,-0.6763195140255179
-739.1278123855591,8284.0,10852.0,8992.0,2.0,-188.0,1261.0,0.12733829324750165,0.14508270194259595,0.7177248168397238,-0.6690344206109534
-739.1356182098389,7940.0,10648.0,9192.0,-10.0,-67.0,1305.0,0.2065297589175762,0.22135956779634916,0.6964808401910245,-0.6505842294993524
-739.1434223651886,7784.0,10360.0,8916.0,-82.0,-22.0,1262.0,0.2794384467640439,0.2935606576360956,0.672227748548324,-0.6195531848356626
-739.1512229442596,7636.0,10184.0,8796.0,-121.0,16.0,1035.0,0.33622129623413916,0.35075598994277885,0.6499078416540728,-0.5844187478464744
-739.1590301990509,7488.0,9920.0,8756.0,-85.0,-67.0,1368.0,0.409534456340781,0.41945535339861867,0.6060043677391002,-0.5376778234742756
-739.1668238639832,7360.0,9712.0,8976.0,-12.0,-256.0,1427.0,0.48667488870620235,0.4786837003941566,0.5407831023081078,-0.49149069567773235
-739.1746592521667,7348.0,9532.0,8920.0,125.0,-407.0,1286.0,0.5520702738514857,0.5235926582853129,0.4610937684047298,-0.45657603710399747
-739.1824569702148,7488.0,9324.0,8856.0,312.0,-524.0,1618.0,0.6164901689618482,0.5763303892378501,0.3454341142363029,-0.4104368730220531
-739.1902601718903,7616.0,9360.0,8852.0,496.0,-649.0,1539.0,0.6587643488275848,0.6190286077606845,0.21273622130396616,-0.3709129488612481
-739.1980555057526,7816.0,9304.0,8760.0,745.0,-787.0,1844.0,0.6811533382966695,0.659179607476858,0.04283600275870175,-0.31571736043748866
-739.2059280872345,8072.0,9352.0,8880.0,768.0,-867.0,1984.0,0.6814187673159301,0.6748289959943413,-0.14135305974213913,-0.24554755591624766
-739.2138302326202,8404.0,9324.0,9452.0,1193.0,-821.0,1986.0,0.6293806769838183,0.687898398991702,-0.325419076468145,-0.1574108661264003
-739.2216620445251,8936.0,9624.0,9412.0,1354.0,-758.0,2003.0,0.5411302296160972,0.67845790680589,-0.49401803014824497,-0.05309547228010909
-739.2294600009918,8832.0,9676.0,9644.0,1564.0,-602.0,1961.0,0.42123159600025367,0.648668842238732,-0.6300386722964675,0.06959847017461192
-739.237268447876,8852.0,9844.0,9892.0,1719.0,-412.0,1992.0,0.28175633810720657,0.5890910622355083,-0.7280883156161031,0.20850057792237334
-739.2450685501099,9068.0,9920.0,9940.0,1883.0,-143.0,2295.0,0.1298865032145102,0.4763782077486465,-0.7891947168130095,0.365191728300804
-739.2528796195984,9164.0,9832.0,9956.0,2046.0,108.0,2078.0,-0.013472195087363461,0.3420767388806937,-0.7840923891185145,0.517688255615962
-739.2606694698334,9372.0,9740.0,9500.0,2241.0,368.0,2125.0,-0.14587780320090687,0.17120000790265413,-0.7205882292648033,0.6558679956152942
-739.2684826850891,9408.0,9728.0,9712.0,2338.0,607.0,2239.0,-0.26023920895397085,-0.032796473810859504,-0.6034178449027003,0.7530516913742148
-739.2762861251831,9312.0,9612.0,9408.0,2583.0,798.0,2349.0,-0.34857916878818274,-0.25542492552863144,-0.4246566594110397,0.7955610549313542
-739.2840738296509,8996.0,9684.0,9400.0,2723.0,982.0,2448.0,-0.40016590672675045,-0.47198378290174936,-0.2000406566421443,0.7596593259228058
-739.2918510437012,8864.0,9716.0,9072.0,2893.0,1164.0,2514.0,-0.4034914152015883,-0.6551393666641242,0.051791542068304636,0.6366354720526786
-739.2996394634247,8824.0,9928.0,9176.0,3012.0,1355.0,2555.0,-0.3565318273320373,-0.7749986768251789,0.2984627137242709,0.42799779851635217
-739.3074247837067,8572.0,10036.0,8656.0,3063.0,1462.0,2569.0,-0.2657630897021614,-0.8042217610365614,0.5073478828763018,0.15873079401347093
-739.3152914047241,8396.0,10632.0,8476.0,3031.0,1564.0,2639.0,-0.1487438813056112,-0.7293358885138713,0.6535588358758274,-0.13713229943546235
-739.3230893611908,8272.0,10940.0,8684.0,2963.0,1697.0,2680.0,-0.023325163880042146,-0.5560228576191325,0.7169268173044493,-0.4198933878554601
-739.3308756351471,8268.0,11128.0,8392.0,3052.0,1762.0,2799.0,0.10893853654421713,-0.3001765893420213,0.6862412129398355,-0.6535284294730102
-739.3386771678925,8340.0,11116.0,8532.0,2707.0,1479.0,2952.0,0.24327449018076525,-0.012425032622439054,0.5839291720735192,-0.7743964507880666
-739.3464906215668,8132.0,10816.0,8220.0,2421.0,1494.0,2901.0,0.3447985823819836,0.2712556743797125,0.4288633596381892,-0.7896901388924817
-739.3542740345001,8232.0,10800.0,9028.0,2409.0,1251.0,3054.0,0.42525494186880264,0.5126445720898936,0.21474572274784154,-0.7143094929261674
-739.3620705604553,8328.0,10732.0,9464.0,2357.0,1105.0,3146.0,0.46656904215447265,0.6856766646202013,-0.030264132663348715,-0.5578932897718962
-739.3699066638947,8612.0,10656.0,9284.0,2422.0,895.0,3183.0,0.4510963707265533,0.7715053370734319,-0.28470498639542874,-0.34674868407265974
-739.3777043819427,8884.0,10596.0,9592.0,2377.0,745.0,3158.0,0.38236600507624063,0.7633958912614369,-0.5095377725399842,-0.10674366361608441
-739.3855059146881,8972.0,10704.0,9896.0,2378.0,712.0,3099.0,0.2688826371503013,0.6722795319697298,-0.6750388237917389,0.14165078435196238
-739.3932909965515,9028.0,10668.0,10044.0,2470.0,694.0,3067.0,0.11992425153096188,0.510724318814524,-0.7630267879663551,0.37758305697147737
-739.4010863304138,8916.0,10572.0,10040.0,2715.0,764.0,3028.0,-0.04696822564638652,0.29372589311901454,-0.752896732570977,0.5870822732590499
-739.408876657486,8920.0,10292.0,9960.0,2841.0,846.0,3043.0,-0.20636359415241165,0.03634279436984367,-0.6457744476649537,0.7342129330438916
-739.4167079925537,8860.0,10152.0,9380.0,3024.0,853.0,2819.0,-0.32702917355936034,-0.21738275415378297,-0.4468150580623634,0.8038364023396332
-739.424524307251,8928.0,10040.0,9388.0,3180.0,923.0,3142.0,-0.4191358713523505,-0.4602205732978972,-0.17674921655104397,0.7624184282319343
-739.432341337204,8792.0,9916.0,9060.0,3302.0,1058.0,3231.0,-0.4484181588425518,-0.6479271923464823,0.12405583422445791,0.6030934075523744
-739.4401371479034,8640.0,9812.0,8992.0,3370.0,1252.0,3265.0,-0.40822181001118835,-0.7460097101674833,0.40254374753554156,0.3387963953277234
-739.4479660987854,8860.0,9960.0,8716.0,3336.0,1381.0,3276.0,-0.3096532441514027,-0.7274042987147917,0.6122172733319764,0.013706379234277009
-739.4557831287384,8800.0,9976.0,8464.0,3346.0,1504.0,3554.0,-0.16617951188596972,-0.5751145012787447,0.7317797780678713,-0.32576991368015973
-739.4635820388794,8820.0,9868.0,8288.0,3321.0,1632.0,3279.0,-0.009704349451761926,-0.33735963956653015,0.7145433549134111,-0.6127985746902042
-739.4713706970215,8928.0,10072.0,8368.0,3318.0,1748.0,3232.0,0.13932715367562234,-0.041412195288684804,0.578943914228151,-0.8023072469498258
-739.4791672229767,9028.0,10224.0,8404.0,3258.0,1781.0,3109.0,0.2567956491131825,0.2579025435698413,0.3532899116867754,-0.8618169822631112
-739.4869577884674,9200.0,10552.0,8316.0,3159.0,1880.0,2989.0,0.32582637756383326,0.5195507157422884,0.08347786285039335,-0.7854525268081053
-739.4947428703308,9184.0,10828.0,8696.0,3098.0,1805.0,3061.0,0.3533881985877788,0.696907601226973,-0.20026329689378794,-0.591042459023192
-739.502539396286,8984.0,10992.0,8936.0,3099.0,1716.0,2692.0,0.311232404989719,0.7773141511385425,-0.43910480801293894,-0.32573619403437953
-739.5103235244751,8816.0,11044.0,9028.0,3124.0,1583.0,2575.0,0.2181087606198333,0.755855502367118,-0.6167614579798101,-0.026764379926519033
-739.5181133747101,8832.0,11040.0,9024.0,3186.0,1383.0,2492.0,0.08272027448482851,0.642305364312187,-0.7141912807738009,0.26557859407644513
-739.5259120464325,9004.0,10992.0,8992.0,3199.0,1188.0,2376.0,-0.07291068912745415,0.4603612983938178,-0.7187670423590642,0.5158734778708062
-739.5337042808533,9056.0,10924.0,8912.0,3074.0,965.0,2307.0,-0.22654278642226885,0.23874147793245962,-0.6418352751867838,0.6926242503410954
-739.5414869785309,9180.0,10888.0,9052.0,3399.0,799.0,2205.0,-0.3630235002209823,-0.0002728341050148866,-0.4684864074214309,0.8054404695011411
-739.549250125885,9224.0,10928.0,8976.0,3436.0,654.0,2165.0,-0.45967686064681307,-0.22928917727275813,-0.23286018451600615,0.8257722394453835
-739.5570533275604,9300.0,10848.0,8812.0,3465.0,511.0,1910.0,-0.48886886100348076,-0.4191864253192287,0.03290576540750512,0.764334474017882
-739.5648365020752,9700.0,10812.0,8580.0,3448.0,491.0,1654.0,-0.44978585391360193,-0.5631322225914629,0.2868936729470649,0.6310838343052003
-739.5726265907288,9836.0,11020.0,8476.0,3398.0,476.0,1332.0,-0.3505558751379508,-0.656221239358555,0.49599646073837356,0.4477407445788182
-739.5804586410522,9896.0,11236.0,8392.0,3339.0,523.0,1181.0,-0.21784872518659612,-0.6944988210502994,0.6473045887804321,0.22629646448434676
-739.588255405426,9968.0,11564.0,8268.0,3226.0,566.0,921.0,-0.06957096999816137,-0.6853716670979223,0.7248238917481091,-0.007475561788592748
-739.5960545539856,10148.0,12020.0,8412.0,3087.0,599.0,672.0,0.07466994956062979,-0.6366117083522917,0.7311252545601586,-0.23367882566833667
-739.6038472652435,10172.0,12124.0,8176.0,2884.0,721.0,406.0,0.19069220999634195,-0.5583816054616796,0.6767251018106433,-0.4403289682818093
-739.6116445064545,10056.0,12308.0,8636.0,2644.0,863.0,102.0,0.2647440771876705,-0.4617635522228164,0.5775960569577475,-0.6189247049677996
-739.6194598674774,9848.0,12244.0,8760.0,2459.0,1126.0,-74.0,0.2949228821517752,-0.3385391465116349,0.4551751869036612,-0.7689130569119509
-739.6272974014282,9756.0,12264.0,8836.0,2234.0,1227.0,-146.0,0.2950964660577967,-0.19960117107515485,0.3243921848172533,-0.8762688849064055
-739.635098695755,9792.0,12236.0,8796.0,1995.0,1270.0,-284.0,0.2664267324786529,-0.05792783468280393,0.1951579618587907,-0.9421117407785728
-739.6429023742676,9592.0,12028.0,9112.0,1735.0,1364.0,-302.0,0.22293558721173595,0.08769375768821007,0.08088532484121923,-0.9675056036232608
-739.6506953239441,9648.0,11472.0,9196.0,1741.0,1398.0,-267.0,0.17389866069297027,0.23312172511230117,-0.036458836312871494,-0.9560775441064219
-739.6585283279419,9340.0,11088.0,8908.0,1630.0,1426.0,-242.0,0.12294510642070851,0.37077326334413635,-0.1435591051137062,-0.909286792676157
-739.6663229465485,9460.0,10916.0,8904.0,1589.0,1570.0,-229.0,0.07175831340355432,0.5054863152408946,-0.2409872523700869,-0.8253844399773819
-739.6741225719452,9472.0,10840.0,8788.0,1604.0,1646.0,-307.0,0.013331024990407501,0.6277098592843198,-0.3261838713883078,-0.7066871290579023
-739.6819150447845,9468.0,10544.0,8708.0,1542.0,1829.0,-413.0,-0.043496899019261126,0.7376266180480365,-0.3879986480752792,-0.5508829650792262
-739.6897168159485,9444.0,10880.0,8756.0,1529.0,1874.0,-375.0,-0.09429815332252427,0.8161804078923622,-0.43472998387717243,-0.36873736069290897
-739.6975209712982,9608.0,10768.0,8616.0,1505.0,1895.0,-415.0,-0.1397247530591911,0.8609746597255254,-0.4588159277741137,-0.16937406269509833
-739.7053062915802,9684.0,10892.0,8624.0,1515.0,1815.0,-762.0,-0.1877343495569031,0.8794201160577945,-0.43596767944750975,0.03616982093535021
-739.7130887508392,9660.0,10904.0,8360.0,1487.0,1772.0,-590.0,-0.22763739576674868,0.8535815068219859,-0.4062869992969731,0.23347526948758848
-739.7208914756775,9572.0,10968.0,8168.0,1446.0,1627.0,-758.0,-0.257018247411878,0.802493913211083,-0.34571049733911946,0.4128309481931171
-739.728678226471,9664.0,11096.0,7880.0,1303.0,1468.0,-877.0,-0.26764967033942605,0.7340026116889786,-0.2655580470985554,0.5648740953718414
-739.7365865707397,9448.0,11240.0,7820.0,1513.0,1501.0,-1132.0,-0.26801607897702134,0.6368766808983417,-0.15009892691470464,0.7071250150268683
-739.7443792819977,9500.0,11344.0,7724.0,1145.0,1067.0,-1321.0,-0.23236548527056414,0.5527181748207998,-0.03031152597104732,0.7997437788886171
-739.7521779537201,9504.0,11388.0,7788.0,1072.0,890.0,-1516.0,-0.17300409509659853,0.4653183275486266,0.0982412797528047,0.8624946887254944
-739.7599532604218,9664.0,11596.0,7808.0,935.0,1017.0,-1844.0,-0.07915623973570436,0.3516915642509191,0.22392311741587267,0.9054864829650429
-739.767742395401,9616.0,11816.0,8364.0,739.0,666.0,-2260.0,0.06240956943483548,0.24414992281967185,0.3395461590092141,0.9062032149204704
-739.7755298614502,9680.0,12140.0,8928.0,762.0,708.0,-2730.0,0.23353019113575976,0.10821455806388053,0.4476117499247303,0.8563859997573846
-739.7833304405212,9256.0,12708.0,9520.0,183.0,845.0,-3105.0,0.4146552461425867,-0.0695338355278328,0.4888185696770932,0.7643837246449323
-739.7911524772644,9316.0,13224.0,9656.0,-140.0,938.0,-3495.0,0.5786934132765054,-0.2727710675139478,0.46931424033947106,0.6086493423739768
-739.7989459037781,9372.0,13952.0,9712.0,-572.0,1113.0,-3734.0,0.6788879340456362,-0.4857130495196564,0.3841877426077403,0.3944537805162128
-739.8067831993103,9128.0,14116.0,9896.0,-772.0,1276.0,-3882.0,0.6928504583431639,-0.6631646031553304,0.25251448169232876,0.1280913269162099
-739.8147072792053,9012.0,13884.0,9712.0,-1479.0,1394.0,-3948.0,0.5787426515473071,-0.7973859608293185,0.08551793276587583,-0.14805153132523893
-739.822539806366,8800.0,13292.0,9388.0,-1727.0,1476.0,-4068.0,0.3658407374555774,-0.8298740722420966,-0.09337097180934299,-0.4107936716426602
-739.8303399085999,8332.0,12676.0,9524.0,-1817.0,1503.0,-4102.0,0.09180601833589393,-0.7398697126111268,-0.256411846150061,-0.6151564260510946
-739.8381526470184,8020.0,12132.0,9532.0,-1704.0,1652.0,-4008.0,-0.18208003655010424,-0.5326258308282188,-0.38030945871041977,-0.7338401053634571
-739.8459508419037,7844.0,12176.0,9420.0,-1654.0,1787.0,-3990.0,-0.4215431905292955,-0.2400378989182182,-0.4520061122179943,-0.7485810711732455
-739.853759765625,8116.0,11952.0,9300.0,-1548.0,1747.0,-3946.0,-0.5968054095041061,0.08035025228616176,-0.46205047734466276,-0.65105798246374
-739.8615493774414,7980.0,12152.0,9324.0,-1956.0,1609.0,-3704.0,-0.678513874669582,0.3937334799669888,-0.3805568776370317,-0.4896624669270749
-739.8693890571594,7908.0,12092.0,9080.0,-2122.0,1525.0,-3521.0,-0.658871354559933,0.6551045741785316,-0.24204630245914563,-0.2795355478227758
-739.8772189617157,8232.0,12068.0,8792.0,-2206.0,950.0,-3240.0,-0.5581748866080883,0.8240074609358699,-0.05429782128730406,-0.08064891124820484
-739.8850219249725,8476.0,11940.0,8772.0,-2178.0,727.0,-2945.0,-0.3981926063348254,0.902453224323152,0.1307040472939816,0.099685897648553
-739.892817735672,9064.0,11748.0,8636.0,-2056.0,524.0,-2637.0,-0.21025573111520895,0.9007538885054565,0.2899753588383544,0.24566084576520583
-739.9006140232086,9152.0,11580.0,8796.0,-1943.0,340.0,-2283.0,-0.016527432623035174,0.8425555959221358,0.40769298868812626,0.3515868864530206
-739.9084520339966,9308.0,11668.0,8952.0,-2035.0,490.0,-2096.0,0.17434296698650203,0.7317251393038144,0.4827952961678367,0.44843232752709483
-739.9162743091583,9228.0,11896.0,9236.0,-2243.0,156.0,-1978.0,0.3758704740679364,0.5882777937610773,0.5066289330172654,0.5059424357783514
-739.924075126648,9228.0,12172.0,9692.0,-2361.0,231.0,-1893.0,0.5514846151689652,0.4029435914900704,0.49011689165016814,0.5415594277899691
-739.9318702220917,8828.0,12164.0,9508.0,-2464.0,495.0,-1879.0,0.6806979668604071,0.17418694778722785,0.44691453389710617,0.5536935836039732
-739.9396533966064,8480.0,11980.0,9784.0,-2491.0,822.0,-1987.0,0.7521126965274761,-0.08731796457171653,0.38967285725501843,0.5242681843331055
-739.947452545166,8332.0,11276.0,9880.0,-2434.0,1038.0,-2118.0,0.7625574078528782,-0.3513730263448809,0.31665144590967315,0.44133327303666137
-739.9552338123322,7704.0,10844.0,9892.0,-2331.0,1103.0,-2246.0,0.7159670524052426,-0.5854312292892578,0.22169027844825157,0.3090548108095936
-739.9630150794983,7428.0,10656.0,10216.0,-2094.0,1170.0,-2316.0,0.6230201860762219,-0.7610368193091682,0.11516939191183599,0.13930117933453517
-739.9708046913147,7024.0,10296.0,9792.0,-1845.0,1128.0,-2058.0,0.4975654148423564,-0.8668093060424433,0.016779905351655664,-0.028084153670022968
-739.9786033630371,6792.0,10280.0,9940.0,-1666.0,1251.0,-2207.0,0.35212636544871107,-0.9079917967821564,-0.0887596584503262,-0.20899675299863663
-739.9863922595978,6640.0,10408.0,9976.0,-1478.0,1531.0,-2141.0,0.2009033055832,-0.8788683150624738,-0.17837341534278142,-0.3942223627395373
-739.994188785553,6572.0,10640.0,9992.0,-1377.0,1302.0,-2051.0,0.04363119837862697,-0.8027071823310821,-0.2579770281113646,-0.5359154326281044
-740.0020172595978,6624.0,10788.0,9768.0,-1294.0,1222.0,-2066.0,-0.11307491249030138,-0.684709286375081,-0.3283914415457686,-0.64073888475457
-740.0097885131836,6708.0,11296.0,9720.0,-1202.0,1390.0,-1946.0,-0.24732301674726653,-0.5250369992957168,-0.38091723982727344,-0.7197704711642124
-740.0176100730896,6576.0,11620.0,9364.0,-1118.0,1302.0,-1902.0,-0.3657885485979264,-0.3471262186008066,-0.41560225870082124,-0.7569523688035483
-740.0254051685333,6352.0,11904.0,8964.0,-1097.0,1290.0,-1835.0,-0.46255598865555564,-0.1566749267448711,-0.42960287926381385,-0.7595632237125569
-740.0332689285278,6272.0,12100.0,9020.0,-1182.0,1317.0,-1750.0,-0.5328394773863617,0.042709178219458965,-0.41847712702859924,-0.7342580687934843
-740.0410635471344,6088.0,12244.0,9032.0,-1029.0,1307.0,-1615.0,-0.5731018300668496,0.2284144546413658,-0.39918094300573403,-0.6782593191589543
-740.0488619804382,5820.0,12204.0,9132.0,-1375.0,1259.0,-1480.0,-0.577106559303091,0.4142360347529309,-0.3439177556302135,-0.6140660421190811
-740.056637763977,5748.0,12116.0,9216.0,-1533.0,1223.0,-1313.0,-0.5439320692204135,0.5840208794039031,-0.27023635187123857,-0.5385441770377015
-740.0644423961639,5640.0,12044.0,9224.0,-1577.0,1126.0,-1216.0,-0.48458988900607003,0.7260972615028224,-0.18397346813340026,-0.4517844279456248
-740.0722398757935,5564.0,12004.0,9708.0,-1754.0,1079.0,-1154.0,-0.3933458099726839,0.8436181889431641,-0.08552688970547018,-0.35534852778433945
-740.0800380706787,5488.0,11812.0,9780.0,-1847.0,1276.0,-1068.0,-0.2745357241060565,0.9328716111450993,0.006437906018163398,-0.23310780054560815
-740.0878286361694,5560.0,11712.0,9924.0,-1888.0,965.0,-1055.0,-0.13981645257742376,0.9765159062261549,0.1054080548490594,-0.1255276322126482
-740.0956208705902,5520.0,11552.0,9936.0,-1938.0,941.0,-1150.0,0.004079794433575237,0.9779252420547802,0.20850242261576737,-0.013126918634434635
-740.1034121513367,5300.0,11596.0,10108.0,-1944.0,900.0,-1191.0,0.14897705805414638,0.935402507620991,0.3057967491689969,0.09652115367921625
-740.1112141609192,5088.0,11756.0,10176.0,-1926.0,881.0,-1157.0,0.2862646453441885,0.853285058369857,0.38699127403719497,0.20048669733372407
-740.1190400123596,4896.0,11952.0,10164.0,-1861.0,520.0,-1137.0,0.41933845210866527,0.7450827045632674,0.44365571301641504,0.26865709417711625
-740.1268484592438,4816.0,12196.0,10236.0,-2047.0,657.0,-1051.0,0.5400954479839394,0.6010032335914106,0.47767836070944836,0.34484112862248656
-740.1346802711487,4748.0,12460.0,10204.0,-1763.0,630.0,-1079.0,0.6277880583980873,0.446008761609717,0.5019503801725285,0.39370566943438884
-740.1425070762634,4752.0,12316.0,9880.0,-1736.0,673.0,-1022.0,0.6892969228804986,0.27823163739855206,0.5101000518055551,0.43272952892767386
-740.1502921581268,4876.0,12676.0,10044.0,-1706.0,680.0,-986.0,0.7257882675291701,0.10439398005351491,0.5021007800728259,0.45850637323362453
-740.1580898761749,4808.0,12580.0,10124.0,-1691.0,567.0,-930.0,0.7422205125572896,-0.06500283755757928,0.47147342128383285,0.47180096955344913
-740.1658809185028,4792.0,12624.0,10216.0,-1663.0,510.0,-922.0,0.7389553292658062,-0.22813042217909046,0.4244989233788603,0.4708526264939408
-740.1736686229706,4844.0,12572.0,10056.0,-1622.0,442.0,-953.0,0.7193216755066616,-0.3806559594325335,0.3622227919501721,0.45439191969775256
-740.1814680099487,5244.0,12416.0,9952.0,-1554.0,757.0,-777.0,0.6655739907975597,-0.5255274362797747,0.31797818972830344,0.4239363718155454
-740.1892580986023,5292.0,12052.0,10000.0,-1528.0,563.0,-1071.0,0.6107559566384068,-0.6553469039838916,0.24155234148372967,0.37302823377481803
-740.1970465183258,5372.0,12168.0,10068.0,-1446.0,615.0,-1095.0,0.543223036601797,-0.764880995084029,0.1623745574977505,0.305778185850132
-740.2048411369324,5044.0,11792.0,10260.0,-1284.0,675.0,-1166.0,0.4728753134822862,-0.8491516035444762,0.08120280473932841,0.22076366684611168
-740.2126247882843,4932.0,11604.0,10276.0,-1175.0,594.0,-1343.0,0.40207976814399154,-0.9064780067753757,-0.016251522469725176,0.1279272109413464
-740.2204811573029,4856.0,11648.0,10284.0,-1089.0,489.0,-1398.0,0.32801562585536165,-0.9362003654523551,-0.12033826094337746,0.038122537621673995
-740.2282826900482,4632.0,11708.0,10388.0,-891.0,368.0,-1394.0,0.2608506310897215,-0.9380825743964252,-0.2242596003667466,-0.04081254117567608
-740.2360825538635,4888.0,11752.0,10432.0,-513.0,370.0,-1389.0,0.21917606979642337,-0.9131796983971703,-0.3248934560107739,-0.11184333285995036
-740.2438952922821,4996.0,11588.0,10272.0,-624.0,343.0,-1338.0,0.16463561323437645,-0.87617189792765,-0.4152920021696657,-0.18097091774843418
-740.2516770362854,4980.0,11664.0,10356.0,-768.0,264.0,-1282.0,0.09435577580742276,-0.8292927995736813,-0.4931195018664088,-0.2453642130100691
-740.2594652175903,4872.0,11540.0,10328.0,-422.0,109.0,-1186.0,0.042797193061718856,-0.7746510257862987,-0.5656119171413558,-0.27958424079685373
-740.267308473587,4708.0,11736.0,10308.0,-318.0,-24.0,-1036.0,-0.005194238436269356,-0.7220123781419595,-0.6251982480932333,-0.2963077728950273
-740.2751314640045,4876.0,11872.0,10148.0,-264.0,-49.0,-992.0,-0.05000635834279584,-0.6663093556356758,-0.6781314232079619,-0.3060538834512746
-740.2829260826111,4916.0,11840.0,10148.0,-183.0,-6.0,-1006.0,-0.08757246242461611,-0.6036864839808185,-0.7288075147328278,-0.3110197732503919
-740.2907214164734,5044.0,11916.0,10224.0,-153.0,59.0,-1049.0,-0.1198816612689057,-0.5318709038182338,-0.777021785416749,-0.31460908116383174
-740.2985413074493,5008.0,12004.0,10292.0,-160.0,151.0,-1041.0,-0.14506129268737733,-0.4534680121577833,-0.8189758688204636,-0.320316264968394
-740.3063275814056,4972.0,11616.0,10236.0,-182.0,272.0,-1107.0,-0.16296890965031066,-0.36256967587892786,-0.8567681666266264,-0.32853108418487226
-740.3141152858734,5156.0,11572.0,10188.0,-160.0,285.0,-1249.0,-0.1814001491749105,-0.25707890905621317,-0.8900833100117703,-0.3297819304271815
-740.3219079971313,4988.0,11460.0,10356.0,-138.0,249.0,-1533.0,-0.20737400973111092,-0.12744894226056766,-0.9159665163526365,-0.3189954985975806
-740.3297085762024,5028.0,11428.0,10224.0,-101.0,201.0,-1341.0,-0.22816173038781956,-0.012733328592460524,-0.9251798673679144,-0.3030219466416269
-740.3375036716461,5012.0,11384.0,10160.0,-46.0,158.0,-1388.0,-0.2503014244043617,0.10366129748477836,-0.9217891619424674,-0.2773234091639639
-740.3452999591827,4964.0,11312.0,10000.0,-5.0,80.0,-1367.0,-0.27494111290333456,0.2141463257534911,-0.9045899963474202,-0.24549068029139098
-740.353107213974,4892.0,11356.0,10012.0,97.0,-37.0,-1352.0,-0.3064954348968685,0.3155496235520375,-0.8743970765582437,-0.20474065539101818
-740.360901594162,4904.0,11280.0,9776.0,151.0,-162.0,-1391.0,-0.3452680195350188,0.41165806268532246,-0.8282128155305251,-0.15934605832443285
-740.3687081336975,4968.0,11252.0,9976.0,211.0,-20.0,-1333.0,-0.3702691794430614,0.4979241456212742,-0.777276839025814,-0.10398555416943699
-740.376570224762,4952.0,11232.0,9744.0,245.0,-325.0,-1306.0,-0.4118933302307076,0.571590233282143,-0.7072182722467754,-0.058913539430323444
-740.3843808174133,5024.0,11440.0,10220.0,182.0,-292.0,-1307.0,-0.442655133947706,0.6397824764794358,-0.6280956020568697,-0.015189794481719731
-740.39217877388,5100.0,11664.0,10212.0,99.0,-204.0,-1343.0,-0.4579307602912435,0.7043519167304154,-0.5415327139169774,0.030497802133709055
-740.3999800682068,5148.0,11800.0,10192.0,254.0,-138.0,-1314.0,-0.4733272399799736,0.751511785379905,-0.4514475709511651,0.0859444646870335
-740.4078042507172,5188.0,11912.0,10456.0,-88.0,-61.0,-1321.0,-0.4570080160970756,0.8023093322088221,-0.36051577785147065,0.13218087075593943
-740.415602684021,5168.0,11984.0,10280.0,-114.0,51.0,-1332.0,-0.4291353917879279,0.8424606370424955,-0.2687370016858153,0.18407420914917003
-740.423416852951,5272.0,11920.0,10268.0,-165.0,76.0,-1304.0,-0.3916808865819292,0.872266039662992,-0.17714898550039418,0.23314432455716144
-740.4312222003937,5352.0,11772.0,10284.0,-174.0,34.0,-1229.0,-0.3508241855220355,0.8913003743499691,-0.08772958411241596,0.27351335179085445
-740.4390139579773,5192.0,11660.0,10152.0,-136.0,-78.0,-1117.0,-0.3126356672354212,0.9015096308955305,-0.0016386433320018953,0.2992267364773708
-740.446799993515,5044.0,11448.0,10188.0,-88.0,-12.0,-948.0,-0.27995552388898687,0.9012334004995346,0.07078444148616105,0.32309878568571015
-740.4546105861664,5088.0,11344.0,10108.0,-12.0,-435.0,-819.0,-0.2523648129494242,0.9057482110258857,0.1450694414673774,0.30803739474413316
-740.4624152183533,5056.0,11192.0,9728.0,66.0,-576.0,-713.0,-0.23034008887789456,0.9078136320856655,0.21524794935802802,0.2765613370525958
-740.4702053070068,4940.0,11044.0,10004.0,133.0,-710.0,-609.0,-0.21208259713217467,0.9077339477874338,0.2800717552532511,0.2293466021925664
-740.4780366420746,4884.0,11004.0,10376.0,198.0,-746.0,-544.0,-0.19794064046072096,0.9026254748179561,0.33982217229852796,0.17495041091111704
-740.4858462810516,4608.0,11036.0,10216.0,216.0,-527.0,-463.0,-0.19183329380564385,0.8913665539354512,0.3879306004887905,0.13481655357307631
-740.4936389923096,5112.0,11140.0,10296.0,183.0,-710.0,-391.0,-0.1769372840948691,0.8810926750883115,0.4312808779240098,0.079785335369041
-740.5014338493347,5052.0,11080.0,10324.0,60.0,-623.0,-380.0,-0.15511035788596444,0.8684208160887257,0.4696037656042339,0.03547346036974071
-740.5092384815216,4976.0,11216.0,10304.0,-19.0,-523.0,-366.0,-0.13086913717798124,0.8539650973408561,0.5036012848160222,0.0016209224425404118
-740.5170571804047,4912.0,11200.0,10460.0,-69.0,-399.0,-313.0,-0.10800778764889368,0.8402109124023697,0.5309619044031121,-0.021433538200438057
-740.5248625278473,4904.0,11200.0,10280.0,-169.0,-328.0,-326.0,-0.0809181551866588,0.8253188301252089,0.5577734379640372,-0.034494531504611625
-740.532651424408,4752.0,11172.0,10516.0,-508.0,-305.0,-280.0,-0.030233597595852004,0.8130260662437993,0.5806852236592441,-0.02965158020002958
-740.5404901504517,4676.0,11052.0,10720.0,-241.0,-237.0,-291.0,-0.001834080900553382,0.7976944319244386,0.6021331197148813,-0.033405621778707
-740.5482892990112,4824.0,11360.0,10572.0,-239.0,-170.0,-242.0,0.02306217000715757,0.7840864538166743,0.6193674891200297,-0.0325650530001612
-740.5560851097107,5040.0,11400.0,10532.0,-203.0,-179.0,-276.0,0.04586175373318302,0.7678112993579042,0.6381104334168543,-0.03431592760509608
-740.563894033432,4944.0,11476.0,10508.0,-154.0,-288.0,-213.0,0.0715864927825684,0.7540332966029808,0.6513148741664414,-0.04580498176710797
-740.5716836452484,4812.0,11540.0,10608.0,-73.0,-323.0,-56.0,0.0945339654273365,0.7487839305507605,0.6529889549076596,-0.06317736539409903
-740.5794882774353,4840.0,11572.0,10724.0,-16.0,-317.0,65.0,0.1140072852324746,0.7503140019158039,0.6459476393458766,-0.08235827017672032
-740.5873236656189,4964.0,11560.0,10732.0,65.0,-380.0,139.0,0.13213930820466818,0.7555900222402895,0.632181767233907,-0.10940354059684215
-740.5951611995697,5172.0,11744.0,10832.0,113.0,-358.0,246.0,0.1467295612633027,0.7664698455157561,0.6102688946127188,-0.13625816685506184
-740.6029570102692,5268.0,11956.0,10992.0,112.0,-276.0,323.0,0.15771900680018108,0.7812623348598382,0.5833486933887873,-0.1563911153004321
-740.6107592582703,5336.0,12096.0,11208.0,140.0,-133.0,382.0,0.16010443466190355,0.8002761389405689,0.5531533438036487,-0.16717072017195467
-740.6185705661774,5504.0,12200.0,10848.0,120.0,26.0,401.0,0.15627306889299952,0.8211534184970456,0.5233851612387421,-0.16538973433824633
-740.6263740062714,5608.0,12256.0,10804.0,77.0,219.0,360.0,0.14590514243172784,0.8412323499393186,0.4990901922700206,-0.14815128351594894
-740.6341695785522,5880.0,12180.0,11076.0,57.0,363.0,364.0,0.13053949908585813,0.861639190231057,0.4757462578359007,-0.11917568204763257
-740.6419670581818,5628.0,12136.0,10828.0,12.0,505.0,412.0,0.11282964026270453,0.882715324701444,0.4496457414109031,-0.07682340168498196
-740.6497616767883,5656.0,12068.0,10832.0,230.0,690.0,421.0,0.07071773264124039,0.9037063141600227,0.4213156511972766,-0.028408134285860993
-740.6575658321381,5524.0,11948.0,10632.0,-91.0,851.0,336.0,0.047337576443981275,0.9146685352474202,0.39899781017644004,0.04406100270255564
-740.6653957366943,5480.0,12000.0,10664.0,-209.0,988.0,279.0,0.02847893412749721,0.9158908538466607,0.37841612355510823,0.13089740862416419
-740.6732361316681,5424.0,11948.0,10572.0,-315.0,1133.0,163.0,0.014355726979147412,0.9026924249757445,0.3626573217568801,0.23112759673054334
-740.6810307502747,5396.0,12036.0,10600.0,-425.0,1176.0,51.0,0.00958986974491097,0.8748103385963371,0.3494593974813728,0.3353998142444235
-740.6888294219971,5384.0,12092.0,10252.0,-543.0,1188.0,-33.0,0.015744240329863754,0.8331146899632258,0.33490812666196446,0.4398961001869501
-740.696619272232,5320.0,12132.0,10584.0,-595.0,1158.0,-106.0,0.029111912953070692,0.7796086676190762,0.31929772620257824,0.5379700585899602
-740.7044625282288,5224.0,11796.0,10348.0,-626.0,1168.0,-241.0,0.05020577818564588,0.7114545273467114,0.3071628085275244,0.6300498745433765
-740.7122642993927,5184.0,11900.0,10316.0,-642.0,1151.0,-7.0,0.0592943414492303,0.640801282985455,0.2755316904798717,0.714100962285867
-740.7200891971588,5220.0,11624.0,10384.0,-619.0,1116.0,-242.0,0.08173332410106487,0.5584808646085042,0.25465965946703034,0.7852179604655412
-740.727890253067,5020.0,11548.0,10340.0,-549.0,1075.0,-204.0,0.09813412469978902,0.4734691089912902,0.23337658297827255,0.8436421438724986
-740.7356922626495,4952.0,11568.0,10684.0,-440.0,1036.0,-80.0,0.10074281444406188,0.38968781914166295,0.2122372313965084,0.8904772015945432
-740.743483543396,4948.0,11464.0,10448.0,-311.0,979.0,-34.0,0.09558149052272863,0.30879737792318934,0.19723895904539113,0.92552965975808
-740.7512965202332,5048.0,11404.0,10488.0,-214.0,1057.0,-18.0,0.08435211609645288,0.22023600971152482,0.18870238215238427,0.953295458662429
-740.7590789794922,5084.0,11408.0,10680.0,-113.0,1025.0,11.0,0.0685173430229612,0.13378745316522242,0.18618343046472188,0.970949031258091
-740.7668650150299,5032.0,11264.0,10704.0,-68.0,1274.0,28.0,0.04597169585501486,0.025848187359570892,0.18683741459294462,0.9809741356930175
-740.774688243866,5016.0,11616.0,10740.0,-18.0,770.0,-51.0,0.03770839072676416,-0.04068925141970384,0.1883246419252835,0.98053877604683
-740.7825179100037,5108.0,11576.0,10608.0,43.0,1020.0,-40.0,0.024371859469332516,-0.1277527194925546,0.19467734119957952,0.9722067619347885
-740.7903258800507,5080.0,11596.0,10696.0,165.0,1040.0,-143.0,0.020511042732685406,-0.21688975427446205,0.20860452683221628,0.9534266007417082
-740.7981185913086,4988.0,11772.0,10508.0,17.0,974.0,-212.0,0.020568617237570915,-0.3003799184597386,0.20714602073263869,0.930827246413473
-740.8059840202332,4972.0,11452.0,10584.0,356.0,866.0,-225.0,0.03231098018218637,-0.37261250887557884,0.23105788920378767,0.8981804777581192
-740.8138659000397,5008.0,11504.0,10400.0,442.0,800.0,-208.0,0.0466003174297147,-0.4366025483764703,0.2604498124201004,0.8598677342341415
-740.8217284679413,5164.0,11400.0,10416.0,531.0,748.0,-218.0,0.06587158227186389,-0.49368009476059627,0.2941357216788226,0.8157359106467288
-740.829509973526,5212.0,11432.0,10268.0,596.0,721.0,-99.0,0.07972934046951913,-0.5421448618792043,0.33539606637487784,0.7663104199125395
-740.8373210430145,5336.0,11624.0,10436.0,613.0,764.0,-70.0,0.09063189476823023,-0.5887354715024392,0.37707736275400916,0.7092172211276333
-740.8451235294342,5388.0,11620.0,10256.0,568.0,784.0,-54.0,0.09692812236651638,-0.6321815246470714,0.4142318391498783,0.6475827687824278
-740.8529303073883,5356.0,11704.0,10460.0,455.0,878.0,53.0,0.08689014347139853,-0.6734441883653022,0.44866760368568237,0.5810511247106115
-740.86075091362,5444.0,11528.0,10476.0,414.0,951.0,-23.0,0.07476624756449889,-0.7164379803403428,0.4736182268051197,0.5067666166875529
-740.8685927391052,5420.0,11816.0,10608.0,362.0,1005.0,28.0,0.054306252771088796,-0.7540488817352786,0.49581515822821975,0.42735049284499943
-740.8764288425446,5460.0,11916.0,10656.0,302.0,1055.0,51.0,0.02642416491004005,-0.7861205633795689,0.513106756296903,0.34356612170449347
-740.8842401504517,5380.0,11956.0,10608.0,296.0,1010.0,62.0,-0.000436868827342832,-0.809502327778553,0.5263609185656675,0.2600960858479772
-740.8920357227325,5244.0,11912.0,10696.0,254.0,1076.0,34.0,-0.03262674828084583,-0.8285071166155644,0.5320273358253764,0.17163439908285838
-740.8998303413391,5260.0,11772.0,10688.0,342.0,1164.0,-25.0,-0.0613150242154675,-0.8433507146146374,0.5290751888460257,0.07127050239740972
-740.9076199531555,5132.0,11800.0,10492.0,327.0,1227.0,-151.0,-0.09248157661786618,-0.8543932487589326,0.5102565843593401,-0.03312933110357237
-740.9154231548309,4892.0,11532.0,10456.0,347.0,1227.0,-236.0,-0.12125044207772875,-0.858667231259172,0.47868026983840956,-0.1373102892178526
-740.9232270717621,4876.0,11852.0,10384.0,368.0,1166.0,-213.0,-0.14419136790437273,-0.8524903652901851,0.4433493855575643,-0.23645369279206202
-740.9310286045074,5136.0,11896.0,10340.0,414.0,1168.0,-507.0,-0.16800547509995623,-0.8474333833048106,0.37975754704510456,-0.33077942296836566
-740.9388241767883,5224.0,11968.0,10196.0,407.0,1206.0,-230.0,-0.18345631966799525,-0.8209667894106107,0.33115634456172893,-0.4274257653853144
-740.9466519355774,5208.0,11852.0,10212.0,372.0,1172.0,-234.0,-0.1983351488386208,-0.7852554860853317,0.28001196341773976,-0.5153933358620327
-740.9544355869293,5152.0,11848.0,10056.0,315.0,1149.0,-157.0,-0.21084793291172108,-0.7387575288302362,0.2338243174509535,-0.5959082574961457
-740.9622304439545,5204.0,11800.0,9924.0,300.0,1150.0,-218.0,-0.22518432981236627,-0.6850526002408943,0.18188536730662855,-0.6685152695861762
-740.9700503349304,5216.0,11732.0,10112.0,234.0,1066.0,-150.0,-0.235905755788565,-0.6268649550810024,0.1375473101417246,-0.7297051047854161
-740.9778690338135,5232.0,11760.0,10484.0,237.0,928.0,-60.0,-0.23719934884835292,-0.5712720473403596,0.09955858090165912,-0.7794054181248159
-740.9856655597687,5232.0,11492.0,10164.0,269.0,822.0,-24.0,-0.23203528035010387,-0.519558177402583,0.06268016890996993,-0.8199330005508819
-740.9934530258179,5220.0,11320.0,10432.0,321.0,658.0,-58.0,-0.22490145148688465,-0.47820542480483275,0.02349174650142011,-0.8486383485635296
-741.0012383460999,5180.0,11300.0,10156.0,317.0,496.0,-127.0,-0.2219231718607932,-0.44723315200796765,-0.015242128553273587,-0.8663141988063155
-741.0090475082397,4872.0,11388.0,10296.0,361.0,350.0,-111.0,-0.21567461690655718,-0.4270757744949985,-0.05384625701282022,-0.8764652435022259
-741.0168552398682,5016.0,11432.0,10320.0,388.0,220.0,-146.0,-0.21130236977554737,-0.4164005994968179,-0.09329055915621891,-0.8793513068383129
-741.024665594101,5044.0,11568.0,10336.0,432.0,149.0,-179.0,-0.20806998205068833,-0.41096965825014087,-0.13583095187403663,-0.8771321309131149
-741.0325081348419,5056.0,11672.0,10416.0,430.0,136.0,-21.0,-0.19263001654950526,-0.4076516865473383,-0.17208331945662142,-0.8758430854576853
-741.0403048992157,5172.0,11680.0,10708.0,413.0,165.0,-364.0,-0.20316371394507607,-0.3958361644193058,-0.21932021643843402,-0.8682953869134941
-741.0481114387512,5144.0,11684.0,10520.0,377.0,203.0,-325.0,-0.21079054314872187,-0.3802905529091942,-0.26261918374745424,-0.8613812202590134
-741.0558848381042,5156.0,11748.0,10420.0,400.0,238.0,-358.0,-0.21882565101416412,-0.3608446543303907,-0.3086960647132604,-0.852416101167707
-741.0636806488037,5132.0,11700.0,10404.0,436.0,269.0,-336.0,-0.2226532645697492,-0.3393689213523495,-0.35640206072378905,-0.8415651074684672
-741.0714762210846,5136.0,11748.0,10480.0,422.0,316.0,-281.0,-0.2207457161838646,-0.31497984920397426,-0.4012411714122735,-0.8313029205684419
-741.0793104171753,5080.0,11596.0,10312.0,446.0,386.0,-276.0,-0.21467466759325493,-0.28531575901479495,-0.4477412022317625,-0.8197789461651189
-741.0871126651764,5040.0,11652.0,10464.0,385.0,397.0,-12.0,-0.1902032102420196,-0.2632953519798403,-0.4822712347633972,-0.8135802065925831
-741.0949194431305,5096.0,11624.0,10348.0,308.0,337.0,-231.0,-0.18513972802759554,-0.2344969101514715,-0.5143392038453805,-0.8038592312233409
-741.1027178764343,5036.0,11744.0,10364.0,267.0,511.0,-238.0,-0.1731456712221746,-0.19199634029870488,-0.5452017697531432,-0.7974415414981636
-741.1105270385742,5044.0,11704.0,10332.0,197.0,176.0,-152.0,-0.1719419509525724,-0.17547108266152645,-0.5637336480950043,-0.788574814876631
-741.118323802948,5032.0,11764.0,10428.0,164.0,118.0,-152.0,-0.17399626459912781,-0.16234240225151272,-0.5787983319929045,-0.7799761119540712
-741.1261174678802,5052.0,11792.0,10272.0,126.0,-12.0,-117.0,-0.18071094772172164,-0.1592038598598048,-0.5886089333454547,-0.7717105726664516
-741.1339130401611,5028.0,11764.0,10380.0,93.0,-54.0,-140.0,-0.19155193487824546,-0.15715533482002025,-0.5957234088600464,-0.7640181130825197
-741.1417078971863,5164.0,11820.0,10372.0,47.0,-212.0,-185.0,-0.21415185686772056,-0.16247208769558585,-0.5974956388264803,-0.7554738675184478
-741.1495065689087,5140.0,11796.0,10404.0,117.0,-337.0,-176.0,-0.24148133821200127,-0.17765931336563287,-0.6008770235873244,-0.7409930729734463
-741.1572957038879,5192.0,11792.0,10680.0,169.0,-487.0,-233.0,-0.279093426882477,-0.20031228371481336,-0.6042537914732752,-0.7189292062186118
-741.1650803089142,5248.0,11884.0,10616.0,104.0,-489.0,-20.0,-0.3039971058753825,-0.23230698836675318,-0.5984808326052599,-0.7038749290743885
-741.1728782653809,5376.0,11852.0,10512.0,142.0,-258.0,-355.0,-0.33610719284985735,-0.23323443420950907,-0.6069027218409091,-0.681397637092803
-741.1806650161743,5420.0,11772.0,10284.0,55.0,-467.0,-420.0,-0.38409951941769893,-0.2400604158336605,-0.6039498583280573,-0.6558072312489258
-741.1885099411011,5444.0,11592.0,10448.0,18.0,-475.0,-426.0,-0.4324569671677343,-0.24506954701044212,-0.5968965128585588,-0.6297907919408429
-741.1963109970093,5468.0,11488.0,10300.0,30.0,-436.0,-510.0,-0.4817225053972033,-0.2432413565995341,-0.5918221165067161,-0.5987684466026668
-741.2041001319885,5128.0,11228.0,9992.0,79.0,-478.0,-257.0,-0.5175627426048256,-0.2580415146598504,-0.580482854391077,-0.5732216324750916
-741.2118949890137,5340.0,11092.0,10060.0,82.0,-257.0,-496.0,-0.5528767816613698,-0.2492394488607026,-0.58327907129073,-0.5403632911529084
-741.2196896076202,5148.0,10960.0,10120.0,95.0,-585.0,-479.0,-0.6018555065874928,-0.25653473756668116,-0.5685339215174157,-0.49872743828261085
-741.2275211811066,5100.0,10836.0,10272.0,151.0,-673.0,-433.0,-0.6490906911242651,-0.27166456065841366,-0.5479021472502635,-0.45241891894199754
-741.2353250980377,5068.0,10828.0,10140.0,223.0,-659.0,-760.0,-0.7025136179886002,-0.2729516175256755,-0.535068028838999,-0.381672943166047
-741.2431633472443,5140.0,10800.0,10192.0,256.0,-664.0,-469.0,-0.7410281467641465,-0.2881497875843652,-0.5124682495877226,-0.32438137860067645
-741.2509491443634,5076.0,10892.0,10464.0,214.0,-720.0,-509.0,-0.7798571613842443,-0.29874927512089144,-0.4830692388504158,-0.2630889372986455
-741.2587585449219,5040.0,11084.0,10556.0,234.0,-711.0,-471.0,-0.812176015041811,-0.31029831891153414,-0.45079887159486903,-0.20215204980477602
-741.2665541172028,4992.0,11288.0,10648.0,252.0,-615.0,-488.0,-0.8360469826445119,-0.31906344579189677,-0.4235720510160257,-0.14075041018940518
-741.2743539810181,5060.0,11368.0,10560.0,210.0,-414.0,-442.0,-0.8496621028191816,-0.322704605330798,-0.4074080616919037,-0.08918923701673022
-741.2821469306946,5192.0,11860.0,10536.0,182.0,-506.0,-396.0,-0.8642025281434771,-0.32558622204950594,-0.38159471010590457,-0.039154560157701766
-741.2899475097656,5184.0,11808.0,10716.0,194.0,-105.0,-500.0,-0.8629834635018908,-0.3236350609005291,-0.3878889298692028,0.007878271581766879
-741.2977437973022,5056.0,12272.0,10596.0,190.0,-14.0,-141.0,-0.857880203361756,-0.3331718205470819,-0.3903879604039043,0.025205853387956126
-741.3055484294891,5148.0,12388.0,10980.0,156.0,38.0,41.0,-0.8521233125446818,-0.34636678767318946,-0.3914432651714692,0.02623125553100859
-741.3133783340454,5192.0,12428.0,10484.0,91.0,88.0,16.0,-0.8464231469956696,-0.35393084988315066,-0.3970604860227107,0.025372823460279227
-741.3212432861328,5204.0,12088.0,10772.0,72.0,88.0,456.0,-0.841522287140635,-0.3749894440795971,-0.388778129087311,-0.00864427081015145
-741.3290438652039,5268.0,12212.0,10752.0,-1.0,155.0,563.0,-0.8348526658718347,-0.3934423945996597,-0.38102818818396145,-0.05515095853767447
-741.3368453979492,5304.0,12196.0,10880.0,-119.0,216.0,594.0,-0.82765421431118,-0.40289161308391613,-0.3749926340764039,-0.10976053037419019
-741.344633102417,5272.0,12080.0,10920.0,-199.0,224.0,618.0,-0.8199817153294396,-0.40590194904666077,-0.36666166498842206,-0.16862033600200727
-741.352471113205,5344.0,12004.0,11172.0,-231.0,293.0,486.0,-0.8105263091220218,-0.4000676013044791,-0.3662723300965068,-0.22099230034819847
-741.3602707386017,4948.0,11848.0,10928.0,-314.0,377.0,369.0,-0.8012135699447257,-0.38186269442143256,-0.373244854158945,-0.2700481008811202
-741.3680567741394,4932.0,11720.0,10772.0,-396.0,490.0,306.0,-0.789795229365778,-0.35197692793090063,-0.38703263011144895,-0.3202209879199022
-741.3758492469788,4732.0,11648.0,10852.0,-398.0,532.0,70.0,-0.7807952947951766,-0.31157007560098954,-0.40951347864477344,-0.3543748106510444
-741.3836395740509,4660.0,11588.0,10720.0,-422.0,584.0,-28.0,-0.770758819229965,-0.2633160164343651,-0.43594258914145667,-0.38281794242304035
-741.3914246559143,4520.0,11676.0,10952.0,-391.0,620.0,-46.0,-0.7561560304534776,-0.21421857673007907,-0.4644863541518745,-0.40815546768269334
-741.3992168903351,4540.0,11664.0,10892.0,-359.0,655.0,-107.0,-0.7385399291882631,-0.16263264510337133,-0.49566526676090444,-0.42711279431564425
-741.4070093631744,4104.0,11604.0,10916.0,-293.0,781.0,-147.0,-0.7124626651024936,-0.10811736271996365,-0.5355438543783377,-0.4403411935659958
-741.4147982597351,3976.0,11696.0,10960.0,-260.0,907.0,-52.0,-0.6722515984089626,-0.054616635683986205,-0.580328777524663,-0.4564135422178966
-741.4225952625275,3888.0,11700.0,10916.0,-138.0,1067.0,12.0,-0.6156898543700667,-0.004737100959451106,-0.6344697807816203,-0.46728113633570584
-741.4303967952728,3920.0,11688.0,10836.0,-151.0,1096.0,131.0,-0.5471418079230661,0.04051095825078025,-0.6838317875466998,-0.48100809829457897
-741.4381964206696,3748.0,11604.0,10844.0,-100.0,1152.0,271.0,-0.46416383843107006,0.07695791347161397,-0.7316049400500687,-0.49333925684194885
-741.4460437297821,3712.0,11552.0,10848.0,-86.0,1191.0,442.0,-0.36623418673811564,0.10277810131977605,-0.7742855601261723,-0.5057579003174072
-741.4538793563843,3740.0,11344.0,10920.0,-80.0,1129.0,561.0,-0.26283639201259684,0.11647827964838073,-0.8069219628298565,-0.5159716923502353
-741.4616780281067,3512.0,11400.0,11100.0,-48.0,977.0,718.0,-0.16027451104027798,0.11032843574881208,-0.8297679897040692,-0.5230915795905031
-741.4694671630859,3600.0,11356.0,11068.0,70.0,846.0,848.0,-0.060588911501455976,0.08603410413274813,-0.8482588359223358,-0.5190222191860655
-741.4772717952728,3624.0,11432.0,11212.0,173.0,680.0,873.0,0.02791724338077072,0.051004885720673895,-0.8620684308333633,-0.5034452797625008
-741.4850747585297,3684.0,11608.0,11200.0,367.0,541.0,968.0,0.10900711625023082,0.002794274307389338,-0.8765724773758331,-0.4687540213641887
-741.4928815364838,3772.0,11560.0,11068.0,555.0,443.0,1002.0,0.18276090364077666,-0.05018647691121462,-0.8901445262969356,-0.4143941263329526
-741.5006868839264,4064.0,11920.0,11080.0,738.0,341.0,1051.0,0.24888069848408795,-0.107015971227222,-0.9007009191282925,-0.3396230765213345
-741.5085279941559,4256.0,12096.0,11260.0,879.0,322.0,1070.0,0.3117815558612598,-0.16124239564529208,-0.9027998418137255,-0.24848661310503464
-741.516331911087,4324.0,12152.0,11060.0,961.0,428.0,1137.0,0.3802854803183735,-0.21343473272105878,-0.8878820308408337,-0.14660855240152512
-741.5241446495056,4440.0,12168.0,10948.0,995.0,608.0,1076.0,0.4554218821856634,-0.2535595210897627,-0.8522288130634027,-0.04477196305436658
-741.5319802761078,4472.0,12088.0,10500.0,996.0,703.0,1271.0,0.5285835825890385,-0.3021712000100163,-0.7907370604153988,0.06345757155342338
-741.5398032665253,4408.0,12172.0,10564.0,952.0,888.0,945.0,0.6038966962820269,-0.32514218074053847,-0.7125579394523817,0.14782599719371595
-741.5476145744324,4388.0,12224.0,10400.0,813.0,1018.0,927.0,0.6718931607070016,-0.34961529266782204,-0.6161018635524544,0.21621105766158547
-741.5554041862488,4256.0,12184.0,10060.0,651.0,1152.0,961.0,0.7282795825624715,-0.3809010130231817,-0.5018119502639697,0.26964427394776475
-741.5632021427155,4100.0,12160.0,10128.0,446.0,1226.0,919.0,0.767857600539679,-0.4175117184796919,-0.3791312230090627,0.30387198943837135
-741.5709910392761,3748.0,12036.0,10400.0,271.0,1265.0,1032.0,0.784179033008837,-0.46212456986909595,-0.24695010647614676,0.33244513987129987
-741.5787799358368,3796.0,11880.0,10408.0,146.0,1194.0,1128.0,0.7751762166144088,-0.5057398464565493,-0.11427709682321323,0.3609290595714549
-741.5865707397461,3408.0,11668.0,10296.0,141.0,1097.0,1146.0,0.7491163828246437,-0.5368882245257512,0.01486758689370863,0.3877558951315461
-741.5943555831909,3412.0,11468.0,10468.0,90.0,897.0,1247.0,0.7037127099643743,-0.5546299480981676,0.1338303312849018,0.42339518766206297
-741.6021270751953,3480.0,11364.0,10252.0,196.0,594.0,1374.0,0.6499122376490275,-0.5436626210696422,0.24201097421951182,0.4727321928566358
-741.6099216938019,3528.0,11340.0,10700.0,268.0,299.0,1436.0,0.5920921425126934,-0.5060597886762738,0.33536794670117864,0.529961060253571
-741.6177175045013,3468.0,11356.0,10824.0,355.0,-27.0,1510.0,0.5338439757685693,-0.4381161673224887,0.41333416515516286,0.593481003387425
-741.6255366802216,3640.0,11284.0,11028.0,496.0,-236.0,1575.0,0.4747134976115354,-0.3421838115945162,0.48316315151379907,0.6512378239071539
-741.6333684921265,3864.0,11452.0,10996.0,550.0,-318.0,1596.0,0.40921422988525097,-0.23124523272317354,0.5428229979732287,0.6959975210254578
-741.6411674022675,4004.0,11592.0,11056.0,637.0,-324.0,1551.0,0.3393917611523831,-0.11388139129104558,0.5946208842828056,0.7199099007196902
-741.6489531993866,4096.0,11720.0,10848.0,673.0,-316.0,1479.0,0.26670998300738674,0.002810238863836676,0.6355479254733118,0.7245251699894887
-741.656751871109,4192.0,11804.0,10772.0,774.0,-205.0,1439.0,0.1849304124666536,0.1125818680577717,0.6723253140297886,0.7078875176497196
-741.6645953655243,4096.0,11940.0,10644.0,803.0,-84.0,1386.0,0.09536491563151907,0.2100725806000892,0.6999956861205382,0.6758558153624553
-741.672425031662,4172.0,11972.0,10716.0,824.0,45.0,1307.0,0.00038676904997782334,0.2914874273827868,0.7183834454993572,0.6316329276723459
-741.6802403926849,4020.0,11984.0,10400.0,743.0,279.0,1309.0,-0.10722596658793866,0.35501415175848544,0.7195621797163824,0.587109711776508
-741.6880340576172,3880.0,11932.0,10432.0,627.0,390.0,1260.0,-0.21398248967166095,0.4049576115883573,0.7032389860822137,0.5437607519715179
-741.695832490921,3548.0,11904.0,10256.0,401.0,501.0,1304.0,-0.3182421096582207,0.45004813457120285,0.661471741290396,0.5085604896996198
-741.703625202179,3240.0,11780.0,10252.0,342.0,547.0,1394.0,-0.421364099434382,0.492259010533418,0.6012894216798966,0.46753009917262844
-741.71142578125,3200.0,11580.0,10660.0,340.0,546.0,1476.0,-0.5197626554401308,0.5296386381903564,0.526477427364732,0.41491109098348034
-741.7192170619965,3276.0,11360.0,10712.0,421.0,413.0,1517.0,-0.6070699541442803,0.5595740945200404,0.4483585882049244,0.3425163936225902
-741.7270555496216,3268.0,11280.0,10876.0,619.0,186.0,1593.0,-0.6845839268702032,0.5769938778174193,0.37501937918235156,0.24038173239635555
-741.7348549365997,3280.0,11084.0,10792.0,933.0,251.0,1680.0,-0.764238955523393,0.5628667609693991,0.2908723841540571,0.12047026352119058
-741.742714881897,3316.0,11140.0,11124.0,1257.0,-206.0,1807.0,-0.8246275987760534,0.5173934694012327,0.22492003464002736,-0.041283158495018714
-741.7505295276642,3584.0,11244.0,11096.0,1560.0,-366.0,1855.0,-0.8617854405978761,0.43031858390496436,0.15829196720476527,-0.21701480096527095
-741.7583379745483,3976.0,11444.0,10888.0,1757.0,-428.0,1904.0,-0.8634829136381981,0.3081693241433726,0.08351464626086721,-0.3904538761132068
-741.7661261558533,4180.0,11636.0,10664.0,1915.0,-458.0,1852.0,-0.8259071807903252,0.15716481560778622,0.002844782631548733,-0.5414503270529317
-741.773930311203,4464.0,11932.0,10580.0,2013.0,-500.0,1852.0,-0.7442677423074145,-0.011084334539678003,-0.07939135897087014,-0.6630532990711947
-741.7817244529724,4588.0,12168.0,10288.0,2085.0,-506.0,1735.0,-0.6273722666898363,-0.18287997192361824,-0.16095856876306316,-0.7396291597817246
-741.7895135879517,4832.0,12392.0,10188.0,2296.0,-524.0,1721.0,-0.4718836521309038,-0.355482620848204,-0.2452405730098553,-0.768644902719253
-741.7973072528839,4852.0,12528.0,10072.0,1979.0,-508.0,1668.0,-0.3016502822595473,-0.4938455515234186,-0.2977877442358962,-0.7592405006558611
-741.8051278591156,4724.0,12696.0,9856.0,1826.0,-500.0,1661.0,-0.12305254228577538,-0.6036444939815007,-0.3262848413624361,-0.7169446275828528
-741.8129634857178,4564.0,12732.0,9744.0,1734.0,-768.0,1610.0,0.04601512363377281,-0.6997530582860741,-0.3339763365389128,-0.6298317810719792
-741.8207688331604,4572.0,12708.0,9904.0,1571.0,-527.0,1642.0,0.21244703905987197,-0.7547109682672434,-0.31572980519275956,-0.5344083645347958
-741.8286256790161,4396.0,12620.0,9808.0,1500.0,-608.0,1617.0,0.3627300356899968,-0.7842749120320952,-0.2848730534748289,-0.4149543673336985
-741.8364524841309,4280.0,12412.0,9804.0,1409.0,-704.0,1601.0,0.4903258991942071,-0.7898949837849754,-0.24399702511491944,-0.2758838141424674
-741.8442528247833,4256.0,12164.0,9956.0,1367.0,-830.0,1581.0,0.5936627066677924,-0.770310861826198,-0.19966104004148566,-0.11967136647503843
-741.8520243167877,4436.0,11976.0,9796.0,1247.0,-874.0,1469.0,0.6663931179306845,-0.7280688738661065,-0.1565865055469281,0.03628489441299384
-741.8598122596741,4684.0,11872.0,9800.0,1147.0,-945.0,1447.0,0.7102955797831736,-0.6672302144912473,-0.1141290712835268,0.19302483078197202
-741.8676180839539,4732.0,11804.0,10012.0,1137.0,-1042.0,1449.0,0.7294453135716936,-0.5836576670087368,-0.073941430091143,0.34897840501424804
-741.875426530838,4808.0,11760.0,9904.0,1140.0,-1058.0,1454.0,0.7240674819407649,-0.4798892016604082,-0.03194752876452937,0.49438041135499666
-741.8832325935364,5076.0,11688.0,9968.0,1130.0,-1076.0,1357.0,0.6986013240445978,-0.3598350709541924,0.00559055043852521,0.6184202919538786
-741.8910391330719,5364.0,11680.0,10068.0,1085.0,-1138.0,1506.0,0.6405046378184648,-0.22721498433283585,0.04137532639956144,0.7324037426126357
-741.8988363742828,5480.0,11700.0,10276.0,1052.0,-1245.0,1262.0,0.5759345176891855,-0.08265543756517946,0.06311775470416561,0.8108536606664233
-741.906685590744,5616.0,11800.0,10436.0,1071.0,-1164.0,1269.0,0.49258138598192125,0.05990267447910167,0.0882969793512707,0.8637006953869039
-741.9145092964172,5876.0,11612.0,10320.0,1031.0,-992.0,1347.0,0.3876123552226712,0.1869097138369556,0.11479421034809228,0.8953455814503577
-741.9223155975342,5384.0,11380.0,10520.0,962.0,-811.0,1340.0,0.2718711092769366,0.2926752287151499,0.13911193574721403,0.9061319880512584
-741.9301323890686,5540.0,11208.0,10568.0,892.0,-567.0,1358.0,0.1470209454844653,0.3710193065850139,0.16001416354723882,0.9028427233988803
-741.9379396438599,5452.0,11116.0,10420.0,831.0,-293.0,1381.0,0.015370622092220664,0.4196513927566591,0.17549728274359233,0.8904252670962959
-741.9457330703735,5224.0,10872.0,10588.0,1022.0,31.0,1509.0,-0.1379463233303779,0.4360605934231968,0.1974068358815254,0.8670942923870996
-741.9535348415375,4924.0,10648.0,10544.0,758.0,386.0,1603.0,-0.29102924149971804,0.41991370994202537,0.18694288878421675,0.8390630567054156
-741.9613261222839,4572.0,10512.0,10560.0,711.0,761.0,1705.0,-0.44753217167310627,0.36818877341838974,0.15501046099357002,0.8000773334052002
