programtime,ax,ay,az,gx,gy,gz,q0,q1,q2,q3
-141.66378045082092,3848.0,11016.0,11036.0,341.0,-152.0,49.0,0.9994498046178683,0.030052859915121594,-0.013365968514896971,0.004273704000753978
-141.67157649993896,3860.0,10944.0,11088.0,413.0,-211.0,96.0,0.99720949992323,0.06629403498573168,-0.031945055243623295,0.012562946853895253
-141.67938661575317,3908.0,11004.0,11388.0,501.0,-508.0,160.0,0.990663480538614,0.11008616526500076,-0.07646856244131046,0.02488902373589036
-141.68718457221985,3900.0,10992.0,11228.0,558.0,-217.0,256.0,0.9816613615056304,0.15714173587669686,-0.09638103490952134,0.04856070718533751
-141.69498085975647,4052.0,10960.0,11504.0,588.0,-273.0,273.0,0.9682565637087674,0.2062842720490132,-0.1208288271032563,0.07298232992272617
-141.70277667045593,4100.0,10888.0,11380.0,615.0,-285.0,329.0,0.9499618740455598,0.2563321920926257,-0.1465914367413035,0.10186852227728464
-141.71057081222534,4276.0,10844.0,11412.0,655.0,-282.0,424.0,0.9254466116443201,0.30718574308648344,-0.17309498435009502,0.1386492503884975
-141.71836233139038,4076.0,10772.0,11400.0,732.0,-277.0,443.0,0.8935245440746359,0.36205068881494873,-0.19764644837740836,0.17739523474048524
-141.72619676589966,4072.0,10748.0,11432.0,749.0,-236.0,424.0,0.8567051702913221,0.41558422645549953,-0.21691238281947567,0.2151627758165387
-141.73407649993896,3892.0,10652.0,11552.0,519.0,-312.0,409.0,0.8227399249643875,0.45153884248368525,-0.24459717471501963,0.2436881443967221
-141.7418851852417,3336.0,10760.0,11632.0,804.0,-295.0,421.0,0.7732539303532244,0.5047525946045477,-0.26414952932989205,0.27843886867329504
-141.74968552589417,3768.0,11084.0,11564.0,742.0,-503.0,329.0,0.7186207492385656,0.5574671486331915,-0.29336850806090436,0.29453270690485467
-141.75747752189636,4004.0,11488.0,11740.0,609.0,-2.0,343.0,0.6789967930797779,0.5857701861345871,-0.29383334027304897,0.33090574514083493
-141.76527094841003,4040.0,11776.0,11740.0,445.0,-393.0,403.0,0.6334285608440549,0.6118903580832741,-0.32410665783693254,0.34541760571448277
-141.77307176589966,3932.0,11900.0,11484.0,418.0,-559.0,540.0,0.5774433400297204,0.6346428615228786,-0.3700332778953675,0.3561783269984051
-141.78085899353027,4336.0,11832.0,11508.0,466.0,-703.0,551.0,0.5099674895036396,0.6596019761945413,-0.419775833257032,0.35867344822690095
-141.78862833976746,4280.0,11640.0,11592.0,508.0,-757.0,599.0,0.43240922835190965,0.6808581662688471,-0.46984291753337565,0.35875067875176847
-141.7964837551117,4316.0,11396.0,11604.0,579.0,-756.0,642.0,0.3452857132961724,0.6965481045239643,-0.5157452576596472,0.36000742142240605
-141.8043179512024,4140.0,11072.0,11608.0,593.0,-691.0,589.0,0.25857135905812756,0.7064538284285294,-0.551228459126136,0.36084764987863277
-141.81217789649963,4352.0,10928.0,11596.0,619.0,-602.0,570.0,0.17287800942482454,0.7090743984129547,-0.5780707680501477,0.36491215175508884
-141.81999254226685,4352.0,10776.0,11680.0,607.0,-534.0,579.0,0.08967008855405838,0.7033875945435613,-0.6003384351607616,0.36986339414662023
-141.8278112411499,4356.0,10744.0,11704.0,617.0,-446.0,667.0,0.006928035697865598,0.6850028955708007,-0.6224091458886659,0.37858934281768813
-141.83559846878052,4368.0,10704.0,11484.0,633.0,-410.0,721.0,-0.0766460831380344,0.657054073041889,-0.6421682804076583,0.3873308955879102
-141.8434202671051,4440.0,10784.0,11432.0,690.0,-263.0,779.0,-0.15656934667411093,0.614979834959407,-0.6588526318362363,0.40397902395768953
-141.85122203826904,4464.0,10952.0,11268.0,713.0,-213.0,853.0,-0.235993247298685,0.5609660909250258,-0.6732908792484424,0.41988525097052
-141.85903024673462,4364.0,11212.0,11308.0,732.0,-105.0,922.0,-0.310139630249372,0.4929352932310849,-0.6857856619368912,0.4364931068387528
-141.86681175231934,4228.0,11052.0,11468.0,686.0,-43.0,922.0,-0.3754759892061816,0.4187010782060849,-0.694640136429081,0.44853346530720467
-141.87467527389526,4152.0,11476.0,11344.0,626.0,21.0,931.0,-0.4314853512982102,0.33927527623105397,-0.7014595963313848,0.4546065477619224
-141.88251852989197,4108.0,11540.0,11424.0,617.0,57.0,851.0,-0.4780554728469641,0.260549849662614,-0.7013335588935193,0.4601173544777518
-141.89032793045044,4016.0,11648.0,11272.0,569.0,113.0,842.0,-0.5158900533547126,0.1799769427607448,-0.6995199354841416,0.4605839910205627
-141.89812326431274,3988.0,11648.0,11220.0,487.0,75.0,791.0,-0.549005303662225,0.10634551497464334,-0.6933992947965656,0.4544020532206597
-141.9059238433838,4012.0,11644.0,11280.0,428.0,10.0,856.0,-0.5843559386566847,0.033469930223338815,-0.6824054451926957,0.4378706533884964
-141.91371607780457,4272.0,11728.0,11052.0,443.0,25.0,853.0,-0.6146765010647324,-0.04079494252621393,-0.6668205076722502,0.41935543665347097
-141.92151069641113,4096.0,11608.0,11336.0,472.0,-91.0,848.0,-0.6470774494670577,-0.11179256837442038,-0.6392405302151265,0.4002058727426947
-141.92932796478271,4128.0,11584.0,11508.0,472.0,-84.0,786.0,-0.6725371232958842,-0.17884886702892683,-0.6082703683414489,0.38172510992745046
-141.93713927268982,4264.0,11436.0,11336.0,273.0,-110.0,824.0,-0.6996278732706652,-0.23432554775850517,-0.5780489304134498,0.34852806294229616
-141.94493007659912,4216.0,11368.0,11488.0,508.0,-70.0,518.0,-0.7071971272762696,-0.28881697095760883,-0.5464871240348188,0.3432328709829755
-141.95276546478271,4272.0,11308.0,11436.0,570.0,-98.0,850.0,-0.720172981906041,-0.3602024385840138,-0.49977874891873086,0.31910230569508474
-141.96059799194336,4260.0,11284.0,11564.0,553.0,-94.0,537.0,-0.7202959291466826,-0.4148455325456151,-0.46037244197672367,0.311663557783149
-141.9684386253357,4276.0,11028.0,11356.0,555.0,-62.0,742.0,-0.7206178983018763,-0.4763174228996889,-0.4129936323584887,0.28856163452636435
-141.97624230384827,4168.0,11268.0,11488.0,554.0,-49.0,735.0,-0.7156603262664482,-0.5346911322624772,-0.3640616051781611,0.2634290001559657
-141.98403072357178,4008.0,11312.0,11360.0,561.0,15.0,716.0,-0.7033631162392567,-0.5909480176818394,-0.3175260974549465,0.23502753997593182
-141.99182796478271,4072.0,11320.0,11016.0,572.0,92.0,664.0,-0.6830287709326912,-0.644412792838146,-0.27622764038056985,0.20470012504759344
-141.99962186813354,3840.0,11432.0,11256.0,539.0,139.0,665.0,-0.6594745928066996,-0.6930266599523777,-0.23667402088628567,0.1696841709624309
-142.007417678833,3968.0,11472.0,11152.0,514.0,177.0,606.0,-0.6322285996560769,-0.7358351251885302,-0.20197346498350002,0.1343145031567892
-142.0151867866516,3992.0,11552.0,11096.0,495.0,202.0,611.0,-0.6026494283406048,-0.7742804941718099,-0.16756313690725216,0.09605195477241343
-142.02299523353577,3968.0,11584.0,11244.0,522.0,198.0,639.0,-0.5683986660236905,-0.8104539145898658,-0.12998772876723608,0.056485388892944195
-142.03079414367676,4008.0,11504.0,11128.0,488.0,173.0,694.0,-0.533935924607506,-0.8409226950895318,-0.0867673432497186,0.015260322482560517
-142.03859996795654,4000.0,11580.0,11240.0,528.0,182.0,713.0,-0.49333507474156063,-0.8683941389222953,-0.04204103374850975,-0.027288733875002084
-142.04637360572815,3844.0,11512.0,11052.0,755.0,130.0,696.0,-0.43233319199907244,-0.8994249846846116,0.003328981837202909,-0.06412196114364332
-142.054181098938,3876.0,11764.0,11144.0,511.0,166.0,728.0,-0.3871030552621042,-0.9146645830745225,0.051209696281891516,-0.10448680338956934
-142.06201457977295,4216.0,11620.0,11156.0,539.0,103.0,712.0,-0.33711626624921553,-0.9258612838098441,0.09935493760444235,-0.1387879769497081
-142.06984996795654,4332.0,11460.0,11164.0,520.0,114.0,726.0,-0.286513484322092,-0.9305765929466329,0.14791170315430852,-0.17337634219074638
-142.07764172554016,4372.0,11284.0,11260.0,554.0,133.0,601.0,-0.23363134379070855,-0.9321949203553083,0.18452559003669347,-0.20586241105145517
-142.08543276786804,4376.0,11516.0,11400.0,528.0,166.0,560.0,-0.18294851377125823,-0.9287434926018666,0.21669115044057743,-0.23876832197616468
-142.09325742721558,4528.0,11500.0,11324.0,767.0,173.0,524.0,-0.11283157362146923,-0.9243183860015484,0.23958860297516574,-0.27477601536161045
-142.1010525226593,4388.0,11584.0,11332.0,464.0,191.0,470.0,-0.0680813035408837,-0.9128219085075449,0.2640006111276217,-0.30401443515244414
-142.10883808135986,4528.0,11688.0,11228.0,752.0,190.0,494.0,0.00048568609726019516,-0.8979676748299622,0.2813457832357064,-0.3383760767621926
-142.11664509773254,4484.0,11700.0,11108.0,508.0,279.0,449.0,0.04654564535276406,-0.8768779010431375,0.30090201747607315,-0.3719900878245351
-142.12446117401123,4476.0,11740.0,11020.0,449.0,296.0,465.0,0.08800041435686458,-0.851584833636253,0.3224643288311955,-0.4038266395684935
-142.13226771354675,4464.0,11868.0,11028.0,430.0,255.0,421.0,0.12735774795151303,-0.8260948811891761,0.33997137379911546,-0.4310066313955064
-142.14006638526917,4448.0,11876.0,10884.0,410.0,278.0,422.0,0.16422830907709662,-0.7972649060356475,0.3574511233053073,-0.4578497860100204
-142.14785528182983,4600.0,11784.0,10888.0,420.0,335.0,339.0,0.19620100547155012,-0.7660952695073588,0.368449862360072,-0.4887206793427553
-142.15563464164734,4596.0,11900.0,10924.0,373.0,337.0,270.0,0.22150358331775694,-0.735727065224512,0.37584930607388195,-0.5180532281506423
-142.1634180545807,4244.0,11792.0,10904.0,301.0,316.0,243.0,0.24118610535284857,-0.7069631205613306,0.3835352668752266,-0.5430774418200951
-142.17119884490967,4300.0,11796.0,10968.0,293.0,306.0,141.0,0.25547592011619674,-0.6810380300889242,0.38443738994483706,-0.5684427403228769
-142.17898392677307,4260.0,11564.0,10948.0,503.0,290.0,94.0,0.27990804808884834,-0.6514016081566489,0.37097862403256876,-0.5997518570349945
-142.18677353858948,4192.0,11740.0,10856.0,264.0,299.0,72.0,0.288794227872769,-0.6265527802702274,0.36825141883678303,-0.6232338245054703
-142.19456100463867,4192.0,11668.0,10772.0,498.0,250.0,29.0,0.30917546591888523,-0.598730544882803,0.34855050983902053,-0.6514942885314812
-142.2023425102234,4176.0,11620.0,10844.0,307.0,279.0,34.0,0.31842765978729215,-0.5731337211094545,0.3400798750380573,-0.6741418558461696
-142.21013236045837,4208.0,11552.0,10860.0,271.0,207.0,36.0,0.32778599666954017,-0.5520673802395308,0.3314356575276394,-0.6913236239143276
-142.21791648864746,4256.0,11472.0,10984.0,279.0,247.0,37.0,0.33611346251907076,-0.5277851633847023,0.3231654103614734,-0.7099539979254464
-142.22573447227478,4308.0,11508.0,10876.0,276.0,325.0,58.0,0.34298871830511124,-0.49751448378127433,0.31792308857927265,-0.7305908480753679
-142.233540058136,4216.0,11584.0,10912.0,232.0,282.0,22.0,0.3464415354715042,-0.471684366854113,0.31223537809424773,-0.7483322719433684
-142.2413308620453,4164.0,11624.0,11000.0,207.0,303.0,-29.0,0.3446119319271419,-0.4461392059064456,0.30638337926700454,-0.7670278027787129
-142.24913263320923,4112.0,11644.0,11048.0,139.0,239.0,-16.0,0.3424403278003619,-0.42620408372067825,0.3034033273261708,-0.7804044604454835
-142.25692105293274,3996.0,11684.0,11012.0,147.0,159.0,-38.0,0.3410256077059835,-0.4118522794171365,0.296515444103399,-0.7913013498256133
-142.2647545337677,4152.0,11660.0,11020.0,127.0,79.0,-21.0,0.3420439355694322,-0.40306597423703716,0.28914835544897144,-0.7980833259088161
-142.27257752418518,4164.0,11652.0,10952.0,136.0,28.0,-60.0,0.341889415702491,-0.3984752388362668,0.2782027935596771,-0.8043210286450188
-142.2803795337677,4220.0,11644.0,10812.0,163.0,-31.0,-32.0,0.34600238404119377,-0.3964604908688566,0.26451436182992716,-0.8081668032055893
-142.28817296028137,4292.0,11672.0,10832.0,131.0,-242.0,-30.0,0.3538778713819256,-0.4100849532389994,0.24667203928847461,-0.8035880090608808
-142.29597187042236,4564.0,11748.0,10984.0,178.0,48.0,237.0,0.3756830653965267,-0.39591406646224797,0.2438865030128818,-0.8016443475754965
-142.30376935005188,4412.0,11996.0,10944.0,169.0,166.0,9.0,0.37851460672136045,-0.37841253007984604,0.23757883741783456,-0.8106089967353765
-142.3115575313568,4560.0,11716.0,11000.0,167.0,217.0,228.0,0.3954486924640692,-0.3525701456843774,0.24015239390389573,-0.8134134567996667
-142.3193440437317,4484.0,11716.0,10944.0,87.0,277.0,-33.0,0.38983164017728966,-0.3304104720631639,0.24224061833251237,-0.8247300740833714
-142.32718992233276,4492.0,11680.0,10800.0,118.0,299.0,39.0,0.3895466177243395,-0.3038541912174914,0.24473699899360646,-0.8342840430109492
-142.33499145507812,4476.0,11572.0,10844.0,133.0,346.0,-235.0,0.3682833081435952,-0.2788816524705182,0.24018821997036063,-0.8537576048537385
-142.3427815437317,4400.0,11580.0,10804.0,176.0,358.0,62.0,0.3694350988973229,-0.24502879144361395,0.23971073999452713,-0.8637229649590679
-142.35055994987488,4392.0,11656.0,10896.0,131.0,372.0,74.0,0.3697919245362713,-0.21102069849666197,0.24302317013359667,-0.8715870215485992
-142.3583459854126,4560.0,11580.0,10880.0,151.0,354.0,143.0,0.3756919379958235,-0.17601718190730878,0.24518828297184458,-0.8762169966918415
-142.3661298751831,4320.0,11680.0,10676.0,188.0,358.0,195.0,0.3855334229837862,-0.1381437111463114,0.24510119850473291,-0.8787523526709179
-142.37391257286072,4200.0,11688.0,10560.0,200.0,509.0,179.0,0.39029826370079984,-0.08838673938038435,0.2484714358011488,-0.8821094009502225
-142.3816955089569,4240.0,11604.0,10508.0,137.0,185.0,172.0,0.4004740936202257,-0.06569029938248956,0.2452059044749793,-0.8804427007572412
-142.3894829750061,4216.0,11668.0,10632.0,82.0,136.0,157.0,0.4100406014900102,-0.04897034108297191,0.2442390793641481,-0.8773915220329412
-142.39727473258972,4256.0,11668.0,10776.0,100.0,58.0,139.0,0.41984763970183264,-0.03795088894402392,0.23894614191881838,-0.8747527826347683
-142.4050714969635,4260.0,11664.0,10796.0,70.0,-43.0,96.0,0.42830604528462823,-0.036633465026516016,0.23205195601643894,-0.8725616370903191
-142.41285276412964,4316.0,11676.0,10952.0,104.0,-83.0,57.0,0.43465194222892756,-0.03787691297278108,0.2209125709095671,-0.8722618096617546
-142.42064380645752,4376.0,11676.0,10972.0,149.0,-168.0,80.0,0.4444020857931216,-0.04342846398861663,0.20313107744740297,-0.8714117970473947
-142.42848443984985,4296.0,11592.0,10876.0,184.0,-185.0,51.0,0.4521577983382037,-0.04940435725947487,0.18181491848267387,-0.8718118319355761
-142.43627643585205,4360.0,11664.0,10960.0,226.0,-237.0,43.0,0.4599907105590552,-0.057767395001269935,0.15508992976259103,-0.8723637933570932
-142.44406867027283,4384.0,11680.0,10916.0,224.0,-231.0,4.0,0.46437975563749073,-0.06622974240318,0.12842798195113025,-0.8737684574458116
-142.45186686515808,4140.0,11520.0,10944.0,185.0,-168.0,-16.0,0.466007532365583,-0.07164231618678178,0.10708641858962527,-0.8753495628967783
-142.45966696739197,4384.0,11732.0,10832.0,221.0,-114.0,-54.0,0.4642159798146219,-0.07178559934233192,0.08489715139114277,-0.8787165785948743
-142.46745371818542,4292.0,11800.0,11052.0,153.0,-36.0,-147.0,0.4540859278210791,-0.0693549788789126,0.07045836030335818,-0.8854555192232626
-142.4752516746521,4132.0,11780.0,11024.0,145.0,118.0,-121.0,0.4447994530629305,-0.05515314580185665,0.06286967724633759,-0.8917168725251409
-142.4830355644226,4332.0,11780.0,11024.0,102.0,167.0,-122.0,0.43478903739369074,-0.038800938654134774,0.06049502347957398,-0.8976599201568664
-142.4908311367035,4348.0,11664.0,10756.0,69.0,212.0,-130.0,0.42361232577268304,-0.02020996679849422,0.0623548762279112,-0.9034688838615661
-142.49864864349365,4580.0,11600.0,10928.0,69.0,240.0,-95.0,0.4148295433962486,0.0007748785087119328,0.06527647750564074,-0.907554312960614
-142.50644707679749,4288.0,11488.0,10888.0,116.0,510.0,-15.0,0.41031194736878146,0.045255810029951916,0.07415033778676242,-0.9077982952787916
-142.5142321586609,4284.0,11412.0,10668.0,149.0,225.0,26.0,0.4102352721418585,0.06856363319395113,0.06995561179421945,-0.906704065322549
-142.5220320224762,4224.0,11352.0,10824.0,123.0,264.0,126.0,0.4177268275183692,0.09457726358784993,0.06856983810366002,-0.9010314179239873
-142.52986884117126,4288.0,11452.0,11004.0,189.0,341.0,224.0,0.43144447940770264,0.12949849615655334,0.06391864381945514,-0.8905055910291015
-142.53766775131226,4276.0,11460.0,10884.0,138.0,389.0,285.0,0.44948039205358864,0.16632157704998599,0.06423869218087584,-0.8753158861770125
-142.54545068740845,4100.0,11756.0,10980.0,130.0,440.0,288.0,0.46666437452826337,0.20637799727433145,0.06699672382620492,-0.857405343337523
-142.55325150489807,4416.0,11472.0,11040.0,131.0,471.0,383.0,0.4895619886127442,0.24877271302101006,0.0690708540302425,-0.8328687853949349
-142.56102538108826,4344.0,11480.0,11068.0,124.0,546.0,397.0,0.5116015001278954,0.29555524009399925,0.07433664694807247,-0.8033586173312534
-142.56882429122925,4388.0,11504.0,10924.0,106.0,573.0,477.0,0.5375296052007617,0.3427452807623657,0.07972965596792363,-0.7663098446497193
-142.57658338546753,4272.0,11412.0,11000.0,106.0,568.0,491.0,0.5621216984799283,0.3881947674644416,0.08414818610568071,-0.7254261515732616
-142.58436727523804,4324.0,11272.0,10816.0,106.0,521.0,640.0,0.5937748636629473,0.4298655042487694,0.08085028507062982,-0.6753593791034499
-142.59215879440308,4192.0,11764.0,10904.0,63.0,478.0,633.0,0.6239673302787262,0.4645691957261644,0.07773309356222227,-0.6235365260290936
-142.59997820854187,4188.0,11584.0,10944.0,82.0,423.0,663.0,0.6524257935877903,0.49528431029446235,0.06903548611691589,-0.5694454648990384
-142.60779285430908,4244.0,11552.0,10636.0,106.0,298.0,681.0,0.6785629555854734,0.5190258436918366,0.0509744579319412,-0.5172679127160595
-142.61559057235718,4224.0,11552.0,10608.0,150.0,229.0,624.0,0.6978130134153343,0.5399664018361151,0.029242502192369926,-0.46972136342931964
-142.62336897850037,4288.0,11628.0,10552.0,194.0,151.0,685.0,0.7150514580942622,0.5584809727921608,-0.0019849076473531296,-0.4204717296656492
-142.6311902999878,4344.0,11660.0,10632.0,229.0,92.0,575.0,0.7240544217050827,0.5750647841560225,-0.03280061126868133,-0.3794335361210265
-142.6389799118042,4100.0,11584.0,10604.0,270.0,32.0,520.0,0.7269915338774279,0.5907833248180797,-0.0658853360381237,-0.3436822591909326
-142.64676070213318,4388.0,11672.0,10712.0,346.0,72.0,491.0,0.7234173398922783,0.6110741500741126,-0.09700712501024703,-0.3063418893191511
-142.6545534133911,4360.0,11708.0,10820.0,342.0,77.0,384.0,0.7154954074349354,0.630673942182715,-0.12174318407445846,-0.2747640764776965
-142.66234588623047,4264.0,11740.0,11120.0,428.0,133.0,295.0,0.699795308751367,0.656587812126313,-0.13985653120648378,-0.24417027152307108
-142.67014908790588,4276.0,11812.0,11232.0,464.0,210.0,206.0,0.6795174345992646,0.685960125323516,-0.14860150777918768,-0.2136173083519514
-142.67793607711792,4320.0,11716.0,11524.0,395.0,217.0,155.0,0.6611399147589446,0.7106772257187614,-0.15227748552158127,-0.18612754057485667
-142.6857316493988,4244.0,11704.0,11660.0,308.0,247.0,93.0,0.6465616199510836,0.7306463278382553,-0.14872615915049114,-0.1612282382433248
-142.693510055542,4308.0,11660.0,11908.0,299.0,271.0,39.0,0.631302041874584,0.7502422057871697,-0.14005790575861551,-0.13776119778476797
-142.70130467414856,4020.0,11512.0,12000.0,281.0,278.0,3.0,0.6161046113888479,0.768465928779902,-0.1282520645404151,-0.11587334495456851
-142.7090871334076,3900.0,11320.0,11640.0,386.0,284.0,255.0,0.5954386215227215,0.788254468713117,-0.13385214608971122,-0.07868509096456212
-142.71687579154968,3916.0,11128.0,11288.0,528.0,215.0,15.0,0.5611652825871076,0.815894741603387,-0.12718704356516242,-0.056857296735135066
-142.72465753555298,3852.0,10964.0,10844.0,668.0,226.0,100.0,0.5157353524780794,0.8469095385033432,-0.12631752364540602,-0.028375394560395152
-142.73257756233215,3756.0,10824.0,10748.0,885.0,150.0,139.0,0.45102479848373755,0.8827515123309334,-0.13162384946969657,-0.0012493522051939391
-142.74038314819336,3744.0,10844.0,10356.0,995.0,116.0,509.0,0.37407461484420573,0.9116612916093828,-0.16559431698357796,0.0389922311879329
-142.74819111824036,3716.0,10848.0,10472.0,1100.0,25.0,353.0,0.284373029297844,0.9375981608074072,-0.1881664844640193,0.06808115145168353
-142.75598049163818,3840.0,10788.0,10088.0,1086.0,-37.0,465.0,0.19121400171008715,0.952061887753735,-0.21951727411039784,0.09395495625005684
-142.76380228996277,3936.0,11252.0,10232.0,1120.0,-140.0,576.0,0.090275818220386,0.9550322961453735,-0.2589515459032635,0.11272837636657979
-142.77158975601196,3960.0,11580.0,10472.0,1110.0,-7.0,660.0,-0.008773304907042605,0.9429568745731628,-0.30119115196414675,0.14156006426506915
-142.77939343452454,3892.0,11860.0,10524.0,999.0,-341.0,718.0,-0.10810186218698795,0.9218297061334318,-0.34553983022513923,0.13836981610755325
-142.7871811389923,4336.0,12120.0,10792.0,904.0,-344.0,662.0,-0.19812871440949958,0.8928367672858514,-0.3826423802287758,0.13104323088907105
-142.7949664592743,4540.0,12308.0,10960.0,1016.0,-324.0,613.0,-0.2934227767406192,0.8536016542722594,-0.4108282366988316,0.12840346507947298
-142.8027834892273,4768.0,12316.0,11220.0,699.0,-277.0,478.0,-0.3596912099496665,0.8191955136578258,-0.4302133523045506,0.1202389927881812
-142.81064796447754,4932.0,12340.0,11356.0,642.0,-217.0,372.0,-0.41669752121351195,0.7855633495332376,-0.4422537540972511,0.11689746221164703
-142.81844282150269,5060.0,12348.0,11588.0,648.0,-56.0,182.0,-0.4643486314302717,0.7542277343118752,-0.44530633777153733,0.13123695677708658
-142.8262276649475,5200.0,12428.0,11764.0,545.0,90.0,245.0,-0.49885722040315766,0.7205745043881303,-0.45819589718992065,0.14822407724711759
-142.83405303955078,5240.0,12428.0,11832.0,435.0,234.0,-162.0,-0.5142533217723525,0.7043488327228227,-0.45209002468729625,0.1872187289411465
-142.84188580513,4884.0,12384.0,12012.0,279.0,399.0,-303.0,-0.5100938599730168,0.6963759210590998,-0.44623649703871254,0.23608858358153967
-142.84967398643494,5024.0,12528.0,12032.0,70.0,535.0,-479.0,-0.48270208641840817,0.6994927722614471,-0.4386072682698578,0.29211679435144405
-142.85746145248413,4812.0,12112.0,11840.0,-87.0,704.0,-558.0,-0.4348743600186033,0.7043762416179259,-0.4350425370711133,0.35422647018728665
-142.8652696609497,4588.0,11888.0,11860.0,-195.0,1021.0,-662.0,-0.36155973074734343,0.7012900015657344,-0.436574429130734,0.4322842382449473
-142.87327575683594,4396.0,11740.0,11672.0,-356.0,877.0,-634.0,-0.2810235167648566,0.7001296715582489,-0.4366805771253436,0.4900554046129149
-142.88114976882935,4264.0,11652.0,11476.0,-430.0,866.0,-610.0,-0.1946443368857686,0.6934301581995409,-0.4368198374937493,0.5389402818398286
-142.8889594078064,3956.0,11484.0,11484.0,-499.0,884.0,-564.0,-0.10362512219423704,0.6783381306408938,-0.4388699939368223,0.580096839321454
-142.89676785469055,3792.0,11444.0,11240.0,-516.0,868.0,-532.0,-0.012757361136646932,0.6561709707172175,-0.4391082710417942,0.6135640416676486
-142.90460014343262,3736.0,11424.0,11116.0,-549.0,801.0,-267.0,0.06351981278690441,0.6217041792999237,-0.452288570741927,0.6363051120341167
-142.9124448299408,3340.0,11436.0,11084.0,-606.0,712.0,-537.0,0.15374797672250382,0.5973439658727121,-0.450776909778105,0.6452456305160839
-142.92024731636047,3516.0,11464.0,11136.0,-612.0,642.0,-580.0,0.242648994633151,0.5733296504675444,-0.4443888401389751,0.6441530377621617
-142.92804193496704,3356.0,11408.0,11088.0,-624.0,581.0,-582.0,0.32791789611906585,0.5477850322653808,-0.4361598916676292,0.6341655625555073
-142.9358811378479,3416.0,11404.0,11444.0,-611.0,562.0,-605.0,0.4104877910251061,0.5201147982247594,-0.4231401669324702,0.6180070947936667
-142.9436891078949,3428.0,11348.0,11280.0,-596.0,489.0,-603.0,0.4864860690000654,0.4928405834034905,-0.40875857402107557,0.5944374585973092
-142.9514787197113,3672.0,11328.0,11320.0,-600.0,456.0,-601.0,0.5579066935789387,0.4634928315171809,-0.3931201107451922,0.56512927275066
-142.95932602882385,3748.0,11272.0,11448.0,-541.0,265.0,-644.0,0.618952292604525,0.444847542074061,-0.3795443775990529,0.5243613155289173
-142.9671504497528,3936.0,11168.0,11500.0,-513.0,541.0,-572.0,0.6808139623463976,0.409935198441608,-0.3502147353692405,0.49577728959996764
-142.97494316101074,4028.0,11084.0,11480.0,-438.0,598.0,-480.0,0.7334827099504398,0.3716036111479669,-0.31530381131682955,0.473811541601332
-142.98274111747742,4028.0,11032.0,11452.0,-390.0,738.0,-445.0,0.7822934515339539,0.3272749888263225,-0.2685941729121282,0.45690831427483725
-142.99053406715393,4044.0,11044.0,11368.0,-330.0,861.0,-303.0,0.8211364389111353,0.2765940882134306,-0.21328100449557474,0.45137774887457505
-142.99833869934082,4008.0,11044.0,11288.0,-284.0,937.0,-223.0,0.8510152089236579,0.22277476146751887,-0.15109149323268198,0.4509056226156771
-143.00613284111023,3964.0,11040.0,11200.0,-230.0,1005.0,-101.0,0.8691902961029443,0.1670264143272777,-0.08298309421149741,0.45795656142535446
-143.01393246650696,3964.0,11096.0,11172.0,-187.0,1044.0,67.0,0.8730490516152356,0.11044787240458517,-0.01205231853403277,0.47480665809673783
-143.0217206478119,3936.0,11140.0,11048.0,-125.0,1049.0,180.0,0.8641153366171956,0.057336637779219046,0.06076076797281838,0.49631172066200363
-143.02951884269714,3864.0,11192.0,11040.0,-89.0,973.0,310.0,0.8425955469542511,0.010413064566808317,0.12823922716991518,0.522952209053616
-143.03730726242065,3720.0,11388.0,11152.0,-69.0,865.0,372.0,0.8132305305894373,-0.029545722368410538,0.18771872534803435,0.5500407571813749
-143.04512476921082,3692.0,11380.0,11188.0,-103.0,805.0,405.0,0.7778901491688689,-0.06832866518503435,0.24017747346861382,0.5766566487766354
-143.05291867256165,3756.0,11456.0,11360.0,-131.0,812.0,367.0,0.7393280141076941,-0.1097495120644674,0.2899716019439309,0.5977169917471439
-143.06071782112122,4084.0,11484.0,11388.0,-182.0,789.0,266.0,0.7017954969785583,-0.15520635358696436,0.3329755507713911,0.6103452718055127
-143.06855630874634,3900.0,11672.0,11412.0,-247.0,815.0,237.0,0.6601720321938421,-0.20598752904300224,0.37180860989279874,0.6192740777696055
-143.0763454437256,3860.0,11536.0,11348.0,-201.0,821.0,182.0,0.6183155196800623,-0.25507666665237927,0.41032609975287,0.6198824921820935
-143.08414459228516,3920.0,11792.0,11396.0,-209.0,897.0,16.0,0.5787992032840119,-0.313096339931308,0.44632206630586324,0.6064311810320083
-143.09197235107422,3604.0,11836.0,11396.0,-321.0,961.0,33.0,0.5287716862107757,-0.37724293557018634,0.47690581207619925,0.5921563288795807
-143.09982061386108,3748.0,11800.0,11308.0,-311.0,880.0,-12.0,0.48091775893830596,-0.4359871349519604,0.49939140814579774,0.573795737840824
-143.10762691497803,3936.0,11872.0,11252.0,-343.0,1015.0,-82.0,0.42584596033624195,-0.5024678964428148,0.5194224845252889,0.5444093254888389
-143.1154158115387,3904.0,11976.0,11552.0,-462.0,719.0,-136.0,0.37835135076167786,-0.55828412379942,0.5167629720845446,0.5273756945221081
-143.12320756912231,3812.0,12008.0,12008.0,-537.0,615.0,-264.0,0.33563295265119414,-0.6144330745670917,0.49810208545949,0.5115826721396836
-143.13100171089172,3728.0,12156.0,12040.0,-702.0,577.0,-344.0,0.2871979726331696,-0.6732338993369287,0.4635577871949741,0.4993872437596806
-143.13880038261414,4092.0,12184.0,12036.0,-857.0,644.0,-516.0,0.2319871049917473,-0.7396342248204688,0.4098354285295703,0.4807890578140853
-143.14659571647644,3840.0,12164.0,12376.0,-982.0,702.0,-697.0,0.17141919266512906,-0.807911911078556,0.33538515340707414,0.45322246545989314
-143.15439772605896,3780.0,11976.0,12404.0,-773.0,792.0,-869.0,0.12709505026617024,-0.8696843451743839,0.2534877442591502,0.4040296418170951
-143.16218447685242,4084.0,11644.0,12076.0,-1085.0,931.0,-1044.0,0.060178446511769755,-0.9266390694239022,0.14459907734246047,0.3417743355261535
-143.17002511024475,3800.0,11384.0,11836.0,-1180.0,1011.0,-1121.0,-0.014446901133600327,-0.963751679193451,0.023719030658257367,0.26535145653278785
-143.1778438091278,3784.0,11108.0,11376.0,-1179.0,770.0,-1135.0,-0.08791838866863852,-0.9704228550939549,-0.09880765751237452,0.2019576343249358
-143.18563389778137,3736.0,10768.0,11260.0,-1164.0,985.0,-1144.0,-0.15579049890820615,-0.9558357889687771,-0.22074730898623074,0.11566283133187226
-143.19341802597046,3672.0,10584.0,10660.0,-1116.0,809.0,-1090.0,-0.219821275468575,-0.917083274568031,-0.3300876855820621,0.04097553155267362
-143.20124673843384,3804.0,10264.0,10532.0,-1141.0,715.0,-1071.0,-0.2836305916124323,-0.8572534715922534,-0.42879880379857305,-0.02831534576027789
-143.20905447006226,3720.0,10060.0,10320.0,-1042.0,523.0,-916.0,-0.34152588842961934,-0.7892684521287875,-0.5034905995208002,-0.08314201224875611
-143.21684575080872,3596.0,9856.0,10320.0,-861.0,275.0,-744.0,-0.3921978302186023,-0.7251021406731485,-0.5537775076609944,-0.11721015131726062
-143.22464156150818,4132.0,9756.0,10380.0,-592.0,38.0,-579.0,-0.43270211233000233,-0.6746696951734656,-0.5840936695634238,-0.12815720649121148
-143.23250889778137,4368.0,9640.0,10572.0,-508.0,-107.0,-353.0,-0.4713922661371437,-0.6377039693060423,-0.5942089131943392,-0.13430840047371886
-143.2403130531311,4704.0,9708.0,11024.0,47.0,-180.0,-110.0,-0.47939281147405993,-0.6359150623987481,-0.5933072733669207,-0.11739269607306385
-143.24809980392456,5096.0,9852.0,11068.0,312.0,-100.0,10.0,-0.4670353198599465,-0.6502375693537551,-0.5914592165944556,-0.0961514872984866
-143.2559299468994,5320.0,10232.0,11648.0,490.0,163.0,122.0,-0.42939976021683957,-0.6744132110611095,-0.59459670258109,-0.08507307418718935
-143.26372146606445,5504.0,10856.0,11896.0,538.0,393.0,150.0,-0.37562351263180527,-0.69819945872494,-0.6033706163345018,-0.08583933794285895
-143.27151894569397,5564.0,11400.0,12000.0,409.0,672.0,164.0,-0.3133739830862779,-0.7134519955533417,-0.6169158723043356,-0.11044366557017218
-143.2793447971344,5520.0,11820.0,11984.0,88.0,907.0,101.0,-0.2573175720311718,-0.7102721373601688,-0.6342209600331669,-0.1645142299875861
-143.2871766090393,5488.0,12120.0,11956.0,-334.0,1004.0,114.0,-0.2199149863393434,-0.6916668639527266,-0.6421078613837977,-0.24684376119783266
-143.29496574401855,5256.0,12208.0,11736.0,-707.0,977.0,91.0,-0.20479317899780433,-0.6584547563815444,-0.6365573353412124,-0.34538651748119736
-143.30275964736938,5060.0,11984.0,11728.0,-925.0,779.0,98.0,-0.21059038001976585,-0.620365026548945,-0.6134820837341433,-0.440951991281671
-143.31055617332458,5080.0,11664.0,11260.0,-1007.0,466.0,154.0,-0.2331737691316062,-0.5892950277270784,-0.5721568088513562,-0.5205746341977634
-143.31832766532898,4996.0,11340.0,11204.0,-985.0,155.0,213.0,-0.26542036226211446,-0.5705129273655803,-0.5174751304183901,-0.5799021645104234
-143.32608294487,5048.0,11124.0,11040.0,-842.0,-230.0,334.0,-0.29988946393878013,-0.5757335949754275,-0.45130920724544765,-0.6123047741857539
-143.33391880989075,5020.0,11024.0,11128.0,-671.0,-518.0,451.0,-0.3288205776813431,-0.6014074728215675,-0.3778169652935456,-0.622447122303621
-143.34172224998474,5044.0,10936.0,11204.0,-544.0,-647.0,547.0,-0.34773039250086035,-0.6364116897907164,-0.299756844357003,-0.6198464079835051
-143.3495147228241,5216.0,10932.0,11048.0,-414.0,-720.0,541.0,-0.35904488754312974,-0.674306355898484,-0.2245761496712828,-0.6049489731563067
-143.35731291770935,5332.0,11252.0,11336.0,-474.0,-604.0,451.0,-0.373943107784822,-0.6979471030718438,-0.15360225134853447,-0.5911368215857576
-143.36511325836182,5176.0,10928.0,11500.0,-571.0,-470.0,294.0,-0.3990078481872671,-0.7056692721512479,-0.09068310166434068,-0.5784463592235928
-143.37290263175964,5240.0,10780.0,11628.0,-640.0,-340.0,264.0,-0.4269376400604783,-0.7009167575537877,-0.030227637076119567,-0.5705490692628187
-143.38068962097168,5292.0,10560.0,11588.0,-674.0,-241.0,338.0,-0.451019461663693,-0.6869238331798232,0.03287384765555763,-0.5688905015470466
-143.38852643966675,5404.0,10416.0,11368.0,-604.0,-144.0,429.0,-0.46463662397103606,-0.6674904060405035,0.09398571534443703,-0.5742264804237749
-143.39632368087769,5380.0,10208.0,11304.0,-526.0,-74.0,536.0,-0.4669283020643173,-0.6439555546802167,0.15415492112524454,-0.5861189850369104
-143.4041247367859,5228.0,10100.0,11032.0,-411.0,-16.0,808.0,-0.4472146814572155,-0.615127071054295,0.22044632794616184,-0.6107545592464608
-143.4119427204132,5152.0,9948.0,10912.0,-328.0,66.0,999.0,-0.4112411073842645,-0.5770707165519526,0.2876465362444128,-0.6443055252612472
-143.41973972320557,5168.0,9900.0,10716.0,-217.0,79.0,1205.0,-0.3544976308653277,-0.5314974600593527,0.3555305109884381,-0.6822315848871457
-143.4275360107422,5224.0,9752.0,10744.0,-180.0,115.0,1328.0,-0.2855054160383034,-0.4745864927192691,0.42125706134288576,-0.718189951621418
-143.43535351753235,5192.0,9688.0,10920.0,-101.0,250.0,1386.0,-0.2105214657592941,-0.40238738277331715,0.47503332318407915,-0.7537296919347733
-143.44317197799683,5332.0,9660.0,10768.0,252.0,349.0,1376.0,-0.12473347352218402,-0.3244583874560914,0.49631123178650044,-0.7955145986058647
-143.4509539604187,5384.0,9832.0,10568.0,55.0,457.0,1388.0,-0.046305281993597944,-0.23134353432601054,0.5224432227033374,-0.8193833468141725
-143.4587390422821,5124.0,9932.0,10508.0,153.0,569.0,1422.0,0.032187415043323404,-0.12532370528792225,0.5329862040926963,-0.8361720190562428
-143.46653652191162,5420.0,10052.0,10540.0,269.0,694.0,1449.0,0.1074808615462512,-0.006472900742310687,0.52572563643487,-0.8438118991531268
-143.47432613372803,5548.0,10236.0,10564.0,400.0,659.0,1577.0,0.19137374884703356,0.11678646392274926,0.49739150915297964,-0.8380564997177543
-143.48212504386902,5660.0,10160.0,10928.0,578.0,595.0,1703.0,0.280437847459744,0.24060145288702223,0.44154480769455806,-0.8176207784656498
-143.48991012573242,5728.0,10156.0,10688.0,757.0,487.0,1878.0,0.3737233552489373,0.3603238323117687,0.3540387502374595,-0.7779165462566887
-143.4977056980133,5728.0,10216.0,10804.0,1054.0,372.0,2102.0,0.46201253191640324,0.4747301539734697,0.2235464942133128,-0.7149843817772926
-143.50548720359802,5752.0,10392.0,10656.0,1269.0,274.0,2210.0,0.5290238667767374,0.5719118916998626,0.062111122326082804,-0.6238531437736509
-143.51328325271606,5772.0,10420.0,10460.0,1430.0,297.0,2056.0,0.5548185264320785,0.6495992342924615,-0.1023827729759495,-0.5096224144718713
-143.52104926109314,5748.0,10664.0,10280.0,1511.0,332.0,2458.0,0.5637456496703219,0.6935046918794068,-0.2840076090169665,-0.34724884857908694
-143.5288589000702,5672.0,10908.0,10472.0,1570.0,454.0,2497.0,0.5378369754393352,0.6991671669394138,-0.44556627250031605,-0.15286385228155133
-143.53666996955872,5864.0,10700.0,10092.0,1378.0,508.0,2506.0,0.49151987216575765,0.6524476773145419,-0.5748299146266463,0.0478624370810668
-143.54451370239258,5704.0,10904.0,10212.0,1227.0,604.0,2552.0,0.4279618263447004,0.556968720337822,-0.6680737072673849,0.2455851001485429
-143.5523021221161,5604.0,10824.0,9904.0,1108.0,649.0,2643.0,0.3442649800193056,0.41682585542524464,-0.7250460636104603,0.4266685310921072
-143.5600962638855,5480.0,10864.0,9952.0,1090.0,670.0,2578.0,0.24353947691445707,0.2536133078675079,-0.7352136310441084,0.579508179393243
-143.56786465644836,5464.0,10860.0,9960.0,1031.0,653.0,2593.0,0.12761315756894523,0.07384950032087799,-0.704805861289659,0.6939090943411697
-143.57566142082214,5408.0,10780.0,10032.0,916.0,635.0,2814.0,-0.009296457705988234,-0.12326816371562362,-0.6384180747629459,0.7596978988415545
-143.5834357738495,5152.0,10612.0,10008.0,920.0,609.0,2564.0,-0.13162521584051984,-0.2985220061417482,-0.5345913301068448,0.7795970267892491
-143.59123873710632,5596.0,10496.0,10164.0,953.0,528.0,2606.0,-0.25197579283509003,-0.45339911437358466,-0.3959362885010391,0.7577413136146126
-143.5990264415741,5536.0,10256.0,10440.0,1080.0,390.0,2688.0,-0.3620132647901659,-0.5773070828483461,-0.2195381214864382,0.6981876119090801
-143.60681915283203,5528.0,10032.0,10548.0,1313.0,278.0,2791.0,-0.4447450517345339,-0.6652678929471062,-0.0072664758349130915,0.5996396150191421
-143.6146101951599,5692.0,9800.0,10800.0,1526.0,235.0,2879.0,-0.487358181590996,-0.7102125174077645,0.22192388658459444,0.4569791806163948
-143.62241053581238,5740.0,9576.0,10892.0,1753.0,155.0,3090.0,-0.482366924804548,-0.6981357703453068,0.45542536525764665,0.2692885677092659
-143.63019490242004,5804.0,9436.0,10980.0,1802.0,72.0,3251.0,-0.42989302068505647,-0.6148174418349877,0.6590252307416541,0.053639996529351384
-143.6380386352539,5872.0,9412.0,10852.0,2303.0,38.0,3455.0,-0.30534280619848253,-0.47254920324244665,0.8026777751139273,-0.1979176863140837
-143.6458728313446,6068.0,9552.0,10848.0,2459.0,-35.0,3613.0,-0.12999986787656567,-0.2667951823944633,0.8503591938085358,-0.4345222738922337
-143.65366554260254,6356.0,9632.0,10676.0,2666.0,-186.0,3736.0,0.08124730113908728,-0.024877497345018738,0.778115381753227,-0.6223475225808268
-143.66146731376648,5896.0,9916.0,10720.0,2878.0,-293.0,3929.0,0.2951710101435787,0.22676062036699057,0.5779355076708301,-0.7262535678362322
-143.66924476623535,6148.0,10308.0,10372.0,3055.0,-346.0,3977.0,0.4618066249334461,0.44334323698508066,0.27152202711401185,-0.7186495698037171
-143.67704463005066,6144.0,10656.0,10424.0,3142.0,-408.0,3938.0,0.5461926667388222,0.5833977310565498,-0.08653709811319148,-0.5948377836426932
-143.6848509311676,6280.0,10924.0,10416.0,3138.0,-410.0,3760.0,0.5317767661635912,0.6278269257589647,-0.42329780874700595,-0.3792964373292002
-143.69263792037964,6316.0,11088.0,10484.0,3039.0,-247.0,3524.0,0.4380698967470098,0.5839327451369041,-0.6748153843146982,-0.10835825678345672
-143.70052647590637,6148.0,11080.0,10636.0,2955.0,-35.0,3249.0,0.2952888604425174,0.4717129966686053,-0.8120549615493822,0.17566467230355526
-143.70832514762878,6476.0,10812.0,10948.0,2865.0,160.0,3073.0,0.1329683967771052,0.30537180816831516,-0.8359919473837858,0.43610196989237
-143.71611738204956,6524.0,10568.0,11108.0,2807.0,353.0,2951.0,-0.026713011159872447,0.10283504764458147,-0.7569243716556695,0.6448076175142311
-143.7239294052124,6632.0,10124.0,11180.0,2846.0,393.0,2932.0,-0.18007525969952848,-0.11261197752164012,-0.5873416615940394,0.7809745296222956
-143.73172044754028,6880.0,9840.0,11176.0,3108.0,352.0,3053.0,-0.3172957604277001,-0.31948314723608806,-0.3278183265188851,0.8305354079418225
-143.73951959609985,7044.0,9700.0,11340.0,3513.0,272.0,3079.0,-0.40252425734714065,-0.4855674377350202,0.004964759888578801,0.7759986061958031
-143.7473165988922,7264.0,9512.0,11388.0,3934.0,251.0,3670.0,-0.43853243048076174,-0.578311497822116,0.3785513199386554,0.5744075357062076
-143.75515580177307,7496.0,9472.0,11356.0,4269.0,167.0,3860.0,-0.3772572753726519,-0.556125642158011,0.6979007390790556,0.24766060790051175
-143.76294350624084,7888.0,10152.0,11276.0,4513.0,176.0,3943.0,-0.22527683856626998,-0.4149123709565394,0.869230361970977,-0.14675369930810647
-143.7707326412201,8044.0,10516.0,11316.0,4583.0,340.0,3817.0,-0.03216962938792814,-0.1871491468577877,0.8353160808666619,-0.5159334810040981
-143.77851963043213,7916.0,11312.0,11520.0,4470.0,649.0,3497.0,0.1351059149626023,0.07561445305900838,0.6168409708406374,-0.7717098307803816
-143.7863154411316,7716.0,11824.0,11284.0,4316.0,1098.0,2952.0,0.2232534206709622,0.3257056808602908,0.28951831215441765,-0.8719248055545306
-143.79410028457642,7500.0,12400.0,11100.0,3425.0,1302.0,2324.0,0.25240633644256594,0.5145120816794749,-0.011251582831936162,-0.8194154996174233
-143.8019094467163,7284.0,12704.0,10276.0,2755.0,1981.0,1888.0,0.25170835963162635,0.6770795889156048,-0.236393829692414,-0.6498646699496637
-143.80975770950317,7156.0,12732.0,9592.0,2517.0,2069.0,1782.0,0.23483017596394548,0.7732631354972402,-0.41771671394479676,-0.4152489116528544
-143.8175549507141,7088.0,12760.0,9068.0,1947.0,2018.0,1399.0,0.21975575796348204,0.8056516046634135,-0.5221995017009919,-0.1730334625683666
-143.82538032531738,7144.0,12392.0,8508.0,1898.0,1223.0,1483.0,0.16015249997030936,0.7717379983166931,-0.6148436948455478,0.027182156207314942
-143.83322310447693,7284.0,12224.0,8640.0,2105.0,516.0,1610.0,0.04119971297831267,0.6945022895202482,-0.6921301175750163,0.19215892861699682
-143.84104561805725,7564.0,12152.0,8416.0,2275.0,-85.0,1635.0,-0.12549229027552983,0.5880012229379169,-0.7318079550770075,0.3208790485384249
-143.8488528728485,7680.0,12176.0,8744.0,2402.0,-500.0,1563.0,-0.3144671881648099,0.46123130527433215,-0.7165298566104077,0.4182834388169372
-143.85664319992065,8408.0,12040.0,9080.0,2383.0,-598.0,1487.0,-0.4870198986248915,0.31491218027423595,-0.6527535411717421,0.4873958879043589
-143.86448287963867,8532.0,12388.0,10224.0,2271.0,-487.0,998.0,-0.605116664758531,0.17792942517450508,-0.549579832219729,0.547847560646131
-143.87227392196655,7320.0,13188.0,12400.0,2002.0,-480.0,211.0,-0.6587124676141538,0.0836195723580544,-0.4247663600171977,0.6153691506129217
-143.88010811805725,5400.0,14760.0,14460.0,1720.0,175.0,-893.0,-0.6081648580747272,0.008240701187749578,-0.3309964448687882,0.7214630619311736
-143.88795471191406,5988.0,16604.0,14712.0,64.0,1241.0,-1699.0,-0.4577810935084633,-0.023886498484915523,-0.38495154212401617,0.8010481981957561
-143.89579033851624,5676.0,17524.0,14124.0,-1391.0,1913.0,-2499.0,-0.21236652981001386,-0.01736057631143578,-0.5398548433361152,0.8143437944339761
-143.9035885334015,5048.0,17932.0,13764.0,-3037.0,2010.0,-2824.0,0.07280879206358208,0.02703591070103158,-0.7395836551600702,0.6685685876190105
-143.91139030456543,5480.0,17188.0,12052.0,-3712.0,1810.0,-3205.0,0.3507265121948087,0.09530385744070219,-0.8525439977563981,0.3756019439381615
-143.919175863266,5816.0,15652.0,11636.0,-3646.0,1463.0,-2745.0,0.5350727772743659,0.12918834216816302,-0.8343357720612882,0.02985489451719505
-143.9269666671753,5488.0,14556.0,11844.0,-3167.0,261.0,-1872.0,0.5661335238207242,0.11134099070113956,-0.7702647325736639,-0.27163994321387996
-143.9347629547119,5996.0,13200.0,11292.0,-2741.0,-467.0,-1100.0,0.5180032539554843,0.03755452839652174,-0.6942734440558441,-0.4982435861777666
-143.94258666038513,7400.0,11832.0,10824.0,-2546.0,-971.0,-719.0,0.42366772125111696,-0.07398669353364087,-0.6068452334190687,-0.6684089270995721
-143.9503755569458,8680.0,10792.0,10424.0,-1593.0,-1498.0,211.0,0.340210741821665,-0.22730662101898508,-0.5576032465385468,-0.7222651664311083
-143.958163022995,9576.0,10428.0,10264.0,-781.0,-1946.0,886.0,0.28041409976905635,-0.40823685590518466,-0.5379208485395424,-0.6821669611157213
-143.9659607410431,10404.0,10728.0,10496.0,86.0,-2192.0,1565.0,0.2664797877156593,-0.5938219270650614,-0.5265044467679807,-0.5469525657763172
-143.97376084327698,10236.0,11404.0,11672.0,756.0,-2067.0,1925.0,0.2931820522624237,-0.739609464430702,-0.49502545918943636,-0.3492447839410218
-143.98155879974365,10336.0,12652.0,13048.0,1395.0,-1604.0,1801.0,0.3584022454755021,-0.8070702507237472,-0.4492531808252915,-0.1354880819599412
-143.98938870429993,10116.0,14188.0,14652.0,769.0,-666.0,1205.0,0.39698578623371994,-0.8302926374160047,-0.3906302010547446,-0.0206026164624811
-143.9972276687622,9384.0,14844.0,15152.0,138.0,604.0,-66.0,0.42685149804021233,-0.8209373650879066,-0.3741974154527126,-0.06193492949751248
-144.00502014160156,9052.0,15300.0,16120.0,-1140.0,2519.0,-1390.0,0.4054051355573518,-0.7765155896520363,-0.3608628427474507,-0.3200753408422843
-144.01282048225403,6284.0,14596.0,14612.0,-2299.0,3448.0,-2851.0,0.2550128564160374,-0.6149738837077839,-0.3368313074936472,-0.6658229762572172
-144.02061414718628,6608.0,14908.0,14276.0,-3181.0,4531.0,-4207.0,-0.02315583367369011,-0.2552544385889692,-0.23674936354262915,-0.9371545858659961
-144.02845191955566,5860.0,14512.0,13084.0,-3617.0,4928.0,-4469.0,-0.3065864205690271,0.2064837175298118,-0.04233277056105575,-0.9282118172348193
-144.03624773025513,4748.0,13372.0,12556.0,-3415.0,4914.0,-4185.0,-0.47727009865143905,0.5998010626768285,0.15017685748710077,-0.6244188094702882
-144.04404211044312,3788.0,12528.0,11836.0,-2916.0,4453.0,-3496.0,-0.501327893952212,0.8024791654453436,0.26797903391140215,-0.18134158142989762
-144.05183172225952,2396.0,11972.0,11704.0,-2177.0,4079.0,-2692.0,-0.44114879657975387,0.8148406422473498,0.2831530493347946,0.2474809440554345
-144.0596146583557,1708.0,11388.0,11332.0,-1364.0,3306.0,-2124.0,-0.3571404386913774,0.6987576749679268,0.26081109908800443,0.562286394391021
-144.0673794746399,872.0,11160.0,11136.0,-805.0,3005.0,-1615.0,-0.28414406561872463,0.5158738001417035,0.21626121341258256,0.7786959996521988
-144.07519459724426,520.0,10784.0,11012.0,-398.0,2980.0,-1290.0,-0.2257011229723884,0.28717733657977784,0.1667883858676154,0.9158437720395455
-144.08299684524536,16.0,11088.0,11208.0,-182.0,2995.0,-1075.0,-0.17218034995197717,0.0341841785219297,0.11595378771090345,0.977619602987118
-144.0907793045044,200.0,10920.0,11260.0,-46.0,3075.0,-947.0,-0.11778584560751033,-0.2282955446957742,0.06639159209855465,0.9641575573241142
-144.0985734462738,60.0,10960.0,11456.0,-199.0,3506.0,-957.0,-0.05873070921849999,-0.5019786462294014,-0.004926145073625957,0.8628695588668678
-144.10636711120605,128.0,10692.0,11580.0,-138.0,3337.0,-632.0,-0.015184251071094163,-0.7211585673846871,-0.057488250942038674,0.6902136337473355
-144.11414790153503,616.0,10768.0,11572.0,-211.0,3395.0,-409.0,0.01258451147891776,-0.8846217750447627,-0.09616482538636986,0.4561121260675923
-144.12193417549133,904.0,10788.0,11772.0,-263.0,3471.0,-260.0,0.030325345501431438,-0.9765929803504891,-0.11753206767349479,0.17757459620892
-144.12972044944763,840.0,10248.0,11444.0,-364.0,3645.0,-509.0,0.0423720800346216,-0.9790825098183906,-0.14931973084901443,-0.13155099308039453
-144.1375231742859,848.0,10092.0,11400.0,-292.0,3562.0,-59.0,0.06024808576771754,-0.8958779849720486,-0.13158398101918506,-0.4200695896430617
-144.14532470703125,1264.0,10196.0,11492.0,-158.0,3671.0,49.0,0.08740893450097877,-0.7261616141526324,-0.09776891868574068,-0.6749001606457566
-144.15312099456787,1036.0,10336.0,11488.0,123.0,3590.0,59.0,0.12332703387724049,-0.4905638739181805,-0.07055415393069724,-0.8597439384401339
-144.1609046459198,1376.0,10328.0,11324.0,327.0,3907.0,67.0,0.15736620035355298,-0.1836308588637407,-0.04759451248696733,-0.9691492914099347
-144.16869926452637,1040.0,10584.0,11216.0,554.0,3804.0,19.0,0.17405245138068448,0.1382007988271014,-0.0399988006780362,-0.9741695844750257
-144.17652678489685,1168.0,11132.0,10756.0,769.0,3759.0,253.0,0.1890946515110759,0.44415708907583307,-0.048965694412551074,-0.8743969657794359
-144.18432116508484,1120.0,11496.0,10552.0,821.0,3809.0,-36.0,0.1618213587033642,0.7085842224561074,-0.04502854351488063,-0.6853427447800109
-144.19212698936462,1008.0,11928.0,10304.0,925.0,3715.0,-28.0,0.11158579094432856,0.8952783340899054,-0.043864679678791534,-0.42907016401191256
-144.19995498657227,528.0,12180.0,10168.0,970.0,3518.0,-292.0,0.036587839478721594,0.9883564338874746,-0.022048949473853288,-0.14603675367048105
-144.20778918266296,44.0,12384.0,10124.0,940.0,3549.0,-575.0,-0.04273836080834344,0.9870773000007093,0.025588993837697426,0.15230574425510038
-144.2155818939209,44.0,12472.0,10092.0,1022.0,3535.0,-935.0,-0.11978692677516253,0.886740323358617,0.1011547564675376,0.43486826321037764
-144.2233760356903,-12.0,12368.0,10152.0,462.0,3473.0,-1323.0,-0.12919724244955288,0.7017926894400773,0.17567011648338612,0.6781851544870381
-144.2311646938324,-136.0,12476.0,10448.0,264.0,3504.0,-1652.0,-0.09586549387393589,0.4412735048522684,0.23964872170075635,0.8594509824224386
-144.23899602890015,-48.0,12276.0,10272.0,135.0,3688.0,-2015.0,-0.025291379495188327,0.11371291653778641,0.27846218923277355,0.953356453748225
-144.2467906475067,-1076.0,11836.0,10760.0,-55.0,3365.0,-2167.0,0.06971890597579831,-0.20671771963700913,0.272040960952187,0.9372303740819669
-144.25459146499634,-228.0,11964.0,10852.0,-32.0,3186.0,-2374.0,0.17722665122696837,-0.49475644417829817,0.2326039424991763,0.8183533350410207
-144.26237869262695,216.0,11768.0,10972.0,71.0,2928.0,-2476.0,0.2822508116212601,-0.7140072367940293,0.1670340595247667,0.6185691296076548
-144.2701735496521,352.0,11356.0,10868.0,204.0,2743.0,-2597.0,0.3752469705025671,-0.8497820153224476,0.07959816097684512,0.3615582530274604
-144.27796053886414,440.0,11188.0,11068.0,311.0,2420.0,-2609.0,0.4428206082335022,-0.8917471276531459,-0.023700467044267842,0.09019566013926895
-144.28576278686523,508.0,11064.0,10756.0,381.0,2197.0,-2816.0,0.47634183669912095,-0.8477880660035763,-0.14788212252649738,-0.1802352007491367
-144.29356384277344,580.0,11036.0,11080.0,402.0,2057.0,-2467.0,0.47523192007926957,-0.7379307663298911,-0.24179468287253988,-0.4137005409425018
-144.3013904094696,788.0,11224.0,11048.0,468.0,1987.0,-2462.0,0.4415150432205299,-0.5728061141524512,-0.322548690694111,-0.6106717320550028
-144.3092110157013,664.0,11008.0,11088.0,456.0,2000.0,-2406.0,0.3781958101055737,-0.3670072396973107,-0.37603686562249733,-0.7621482079760848
-144.3169548511505,668.0,11028.0,10776.0,368.0,1985.0,-2272.0,0.29375447044060476,-0.14306460232978369,-0.39414054669637166,-0.8590076018908482
-144.3247742652893,552.0,11376.0,10780.0,218.0,1980.0,-2549.0,0.16684564308362937,0.09520284062688027,-0.3767940936196676,-0.9061595673687479
-144.33259654045105,348.0,11532.0,10680.0,-47.0,2033.0,-2206.0,0.05781276841709191,0.31689658505518686,-0.31472985194582603,-0.8928490121417344
-144.34044909477234,132.0,11644.0,10636.0,-254.0,1945.0,-2231.0,-0.05368866295169747,0.511344143646959,-0.21638209578376486,-0.8299539040528955
-144.34822487831116,160.0,11680.0,10524.0,-320.0,1822.0,-2194.0,-0.15893104524000562,0.6655750502102177,-0.10080639752795272,-0.722211081065655
-144.35602045059204,272.0,11748.0,10524.0,-427.0,1640.0,-2145.0,-0.24789861670968674,0.7720179854349755,0.027138447614384262,-0.584634937939418
-144.36381840705872,0.0,11668.0,10532.0,-438.0,1309.0,-2130.0,-0.3223371605016265,0.8232620614772336,0.16075671237323172,-0.4387432193424241
-144.37160277366638,180.0,11652.0,10684.0,-399.0,1029.0,-2110.0,-0.38076616577103767,0.8266138077301568,0.29244073081006505,-0.2936071505211497
-144.37939858436584,360.0,11620.0,10716.0,-377.0,844.0,-2130.0,-0.42114150323765204,0.7903276735770765,0.41921340986962874,-0.14927196526627304
-144.3871831893921,536.0,11528.0,10756.0,-364.0,659.0,-2232.0,-0.44003558200310416,0.7156339802672864,0.5423731761741516,-0.008248067940605498
-144.39497232437134,748.0,11496.0,11132.0,-348.0,764.0,-2326.0,-0.4458881650421089,0.6054516725207985,0.6437602652157144,0.14207300041366772
-144.40276837348938,692.0,11460.0,11280.0,-341.0,432.0,-2431.0,-0.41235865860941023,0.4658070766837821,0.734022331888461,0.2723881793877682
-144.41056776046753,640.0,11548.0,11296.0,-278.0,393.0,-2521.0,-0.357438464661542,0.29749775529429817,0.7960161129518867,0.3874160263801986
-144.41837191581726,720.0,11536.0,11352.0,-299.0,382.0,-2660.0,-0.2786083246037691,0.10609441825866303,0.820462961722063,0.4878133908761601
-144.4261622428894,772.0,11532.0,11480.0,-350.0,437.0,-2784.0,-0.18259877577918643,-0.1003962674518844,0.7965162309787458,0.5675739338210357
-144.43396925926208,668.0,11492.0,11356.0,-440.0,760.0,-2836.0,-0.09565556519895076,-0.31771912355595083,0.7140530624652007,0.616468000270392
-144.44177556037903,656.0,11424.0,11328.0,-765.0,612.0,-2872.0,-0.0005066238551499822,-0.5057685975102434,0.5684386011476928,0.6489032484354235
-144.4495768547058,632.0,11356.0,11300.0,-513.0,657.0,-2574.0,0.08756546450947052,-0.6526305698468213,0.41429240733932243,0.6283052044569126
-144.45739841461182,644.0,11332.0,11316.0,-564.0,651.0,-2723.0,0.1757922495120965,-0.7675485040769385,0.22630399320982073,0.573369759891486
-144.46523880958557,572.0,11164.0,11336.0,-526.0,574.0,-2626.0,0.25345527636982246,-0.8327062747498593,0.031978015640564066,0.4912617320616378
-144.4730248451233,628.0,11080.0,11312.0,-473.0,570.0,-2433.0,0.31414558822660454,-0.8536025210945796,-0.1488890660286417,0.38795274376637306
-144.48082065582275,628.0,11100.0,11320.0,-397.0,485.0,-2339.0,0.36207146111564625,-0.832120534766259,-0.31631216121299294,0.27645305086878974
-144.48860955238342,692.0,11064.0,11416.0,-333.0,397.0,-2155.0,0.393558207668459,-0.7782847333193798,-0.45980424067221687,0.167227005350865
-144.49643516540527,476.0,11128.0,11652.0,-285.0,327.0,-2059.0,0.41052380717438874,-0.6985094738828124,-0.5828690536139943,0.06179308196010424
-144.50422310829163,472.0,11140.0,11568.0,-226.0,325.0,-1987.0,0.4175354819483812,-0.5979607203164118,-0.6830050292492825,-0.040140108283336196
-144.51202869415283,244.0,11312.0,11624.0,-208.0,401.0,-1926.0,0.41767378321855364,-0.4821356101527553,-0.756990260668073,-0.14163195080282612
-144.51982927322388,100.0,11072.0,11532.0,-126.0,493.0,-1934.0,0.4147819791764287,-0.3475339292548007,-0.8066436288703542,-0.23770177485679456
-144.52762699127197,128.0,11436.0,11464.0,-149.0,498.0,-1879.0,0.40059554901336764,-0.20725130798894692,-0.8305519560228934,-0.32673161737746614
-144.53541707992554,116.0,11548.0,11528.0,-144.0,543.0,-2034.0,0.3730851934286885,-0.0484600701933685,-0.8302312953081707,-0.4113089548405783
-144.5432469844818,160.0,11536.0,11564.0,-147.0,554.0,-1694.0,0.3476021998455887,0.08838686730254165,-0.8042540674175631,-0.473852157738314
-144.55104780197144,204.0,11588.0,11420.0,-211.0,621.0,-1551.0,0.3252063618523223,0.21427855499254342,-0.7564852793700914,-0.5254098830222352
-144.55882692337036,164.0,11520.0,11296.0,-500.0,710.0,-1486.0,0.30985229905413253,0.3270934385980167,-0.6778807804513349,-0.5809294988995505
-144.5666046142578,164.0,11452.0,11488.0,-278.0,516.0,-1350.0,0.27764211448449355,0.42210377170863106,-0.6061894483781628,-0.6142292852420064
-144.57439589500427,180.0,11376.0,11572.0,-291.0,731.0,-1205.0,0.26046640204604166,0.5138814338141222,-0.5242650451604214,-0.627079969229821
-144.58217978477478,132.0,11236.0,11768.0,-300.0,716.0,-1041.0,0.24820846625027035,0.5900058320406558,-0.44198432649153113,-0.6284389632856394
-144.58997106552124,104.0,11228.0,11868.0,-289.0,688.0,-855.0,0.2416504204966548,0.6511693848806602,-0.3653797267579799,-0.6197428190323762
-144.5977554321289,16.0,11024.0,11884.0,-228.0,595.0,-685.0,0.23584838948089648,0.6979593317899138,-0.3005589297964091,-0.6057166318224072
-144.6055202484131,88.0,11484.0,11964.0,-233.0,541.0,-558.0,0.23425481797062792,0.7344606465649504,-0.24251672452380257,-0.5889633920976659
-144.61332321166992,112.0,11364.0,11984.0,-217.0,514.0,-441.0,0.23602906438035445,0.7642159163342062,-0.19223572891340343,-0.5686033226409574
-144.62113189697266,-4.0,11324.0,11924.0,-10.0,439.0,-377.0,0.22517149706654158,0.7910288970500936,-0.15737983364004193,-0.5466284559954389
-144.62894010543823,-48.0,11448.0,11632.0,-195.0,484.0,-306.0,0.23047097969730063,0.8132819962681062,-0.11730809653344287,-0.5212430647512074
-144.6367621421814,-80.0,11532.0,11764.0,-203.0,426.0,-276.0,0.236524907408587,0.8303904518943558,-0.07985662216243687,-0.49812707763667374
-144.64470076560974,-44.0,11348.0,11788.0,-190.0,432.0,-258.0,0.24193034511454242,0.8460534837861696,-0.04396641010550757,-0.4730012319946729
-144.6525843143463,-24.0,11592.0,11872.0,-135.0,440.0,-182.0,0.24595237755801946,0.8612064277802414,-0.015685649918510562,-0.4445052048178821
-144.66042470932007,56.0,11644.0,11860.0,-142.0,475.0,-107.0,0.25298516617641753,0.8758245483492842,0.008017924321584269,-0.4109325724410712
-144.66824865341187,-60.0,11664.0,11844.0,-167.0,542.0,-126.0,0.26062576339794025,0.8902988733742732,0.03552717846764257,-0.37172563418719096
-144.676043510437,-32.0,11732.0,11860.0,-162.0,609.0,-65.0,0.2689141932282631,0.9047481557698482,0.059564129199213056,-0.32491236637621246
-144.68384289741516,-184.0,11676.0,11836.0,-184.0,671.0,-67.0,0.277647558379544,0.9173672574654431,0.08563471345212902,-0.2720585306660698
-144.69163250923157,-296.0,11544.0,11852.0,-244.0,681.0,-139.0,0.2883061826903176,0.924642530015065,0.11879295043472336,-0.21864119382424327
-144.69943165779114,-392.0,11588.0,11660.0,-249.0,655.0,-80.0,0.2996251211635041,0.9282565172015026,0.1461855063704067,-0.16490731568951075
-144.70721411705017,-492.0,11420.0,11660.0,-203.0,585.0,-18.0,0.3080072664920053,0.9297473679245872,0.16560374982436032,-0.11522479624427949
-144.715008020401,-412.0,11216.0,11460.0,-83.0,374.0,120.0,0.3104609983344947,0.9324073765023613,0.16663403217331343,-0.08039621930660774
-144.72279334068298,-340.0,11060.0,11296.0,38.0,101.0,29.0,0.30619563283500806,0.9344911975291684,0.16672024067994717,-0.07193606550882557
-144.73059701919556,-328.0,10944.0,11348.0,211.0,-145.0,386.0,0.2933846043384646,0.9440359185915526,0.12991054156059917,-0.07645200806779288
-144.73838424682617,-160.0,10912.0,11484.0,399.0,-387.0,598.0,0.26830805590288676,0.9559998832938971,0.06787125450477044,-0.09730623357019558
-144.7461953163147,-64.0,10756.0,11736.0,270.0,-569.0,734.0,0.254576887322083,0.9584018219350455,-0.008982018768114356,-0.12874734751377853
-144.7540249824524,-88.0,11116.0,11916.0,610.0,-633.0,532.0,0.20829007784312703,0.9605448330922951,-0.07412502209211483,-0.16874343895880153
-144.7618486881256,-48.0,11380.0,11852.0,543.0,-475.0,718.0,0.16968986381087076,0.9549892679580807,-0.15038156054369012,-0.19127528448072414
-144.76963782310486,40.0,11644.0,11800.0,380.0,-364.0,658.0,0.14392235429978573,0.9433314145311362,-0.21639674720124422,-0.2063604760902955
-144.77742195129395,124.0,11792.0,12272.0,203.0,-257.0,640.0,0.13370322290234873,0.9273144498203879,-0.2754501035799578,-0.21526402341688886
-144.78524255752563,240.0,11868.0,12048.0,85.0,-193.0,654.0,0.13431497269397044,0.9072980767450423,-0.33165024998766773,-0.2208569666731909
-144.79303908348083,240.0,11656.0,12128.0,-3.0,-158.0,791.0,0.1449523304607221,0.8791125415262854,-0.3951180408596905,-0.22367765872433662
-144.80084538459778,64.0,11528.0,12104.0,-11.0,-174.0,987.0,0.1585428719538152,0.8383013242474661,-0.47104757415229304,-0.2241187863674547
-144.8086597919464,160.0,11440.0,12052.0,16.0,-152.0,1103.0,0.17197144520866747,0.7864577554092539,-0.5515740301939317,-0.2183485979004768
-144.81651186943054,112.0,11316.0,12244.0,100.0,-182.0,1268.0,0.17946418642313822,0.7189017044486782,-0.6392438530653185,-0.20576744506960276
-144.8243019580841,96.0,11332.0,12036.0,135.0,-148.0,1340.0,0.185583599125632,0.6391059317106865,-0.723023681093083,-0.18530810118934252
-144.8323473930359,76.0,11372.0,12088.0,232.0,-186.0,1449.0,0.1828908093287046,0.5438699947460758,-0.8039358073186028,-0.1563444862762395
-144.8402452468872,4.0,11460.0,11848.0,296.0,-168.0,1436.0,0.1752595379312843,0.4418669030249866,-0.8716118410489255,-0.11971020390310186
-144.84821152687073,4.0,11480.0,11788.0,308.0,-107.0,1428.0,0.16883935080712145,0.3340889302212532,-0.9240097970291002,-0.07799843150275154
-144.8560664653778,-4.0,11512.0,11832.0,358.0,-76.0,1446.0,0.16080161428905063,0.22035770910860109,-0.9616102856824548,-0.029849277179732934
-144.86385893821716,-96.0,11704.0,11812.0,280.0,-66.0,1452.0,0.15242751268663618,0.10139651338151669,-0.9830188457460886,0.012591638426539988
-144.8716700077057,-64.0,11716.0,11860.0,183.0,-17.0,1461.0,0.14656454913392042,-0.02133600338775581,-0.9878472293981445,0.047132359022420404
-144.87948656082153,-124.0,11800.0,11656.0,103.0,-35.0,1396.0,0.1369933241983065,-0.13921111261444416,-0.9779954798632279,0.07333441631895009
-144.8873279094696,-152.0,11908.0,11728.0,-41.0,-118.0,1312.0,0.11725782724270921,-0.24930476778640925,-0.9574154015896726,0.08633355957082497
-144.89516377449036,-116.0,11824.0,11680.0,-151.0,-235.0,1373.0,0.08336179414492656,-0.3611356382587775,-0.92419766629446,0.09214410275344961
-144.90296840667725,-176.0,11692.0,11680.0,-186.0,-431.0,1368.0,0.03145984652589029,-0.46569201265314464,-0.8787337545588848,0.09984095355352304
-144.91076564788818,-164.0,11540.0,11724.0,-158.0,-585.0,1410.0,-0.031868756388436,-0.5641496397914273,-0.8171000482250413,0.11431131825017382
-144.91856718063354,-96.0,11436.0,11720.0,-83.0,-774.0,1454.0,-0.10463633370552175,-0.6531769362195515,-0.7365716508526099,0.14097280170219845
-144.92636632919312,-96.0,11464.0,11532.0,46.0,-937.0,1496.0,-0.17861998990816816,-0.7296435918353772,-0.6346388977494413,0.1815174855548348
-144.93415689468384,252.0,11368.0,11916.0,161.0,-780.0,1527.0,-0.23322453578992808,-0.7954512629573445,-0.5168343163226687,0.21388289701707833
-144.9419505596161,80.0,11368.0,11920.0,215.0,-1036.0,1540.0,-0.290041185426842,-0.8388693984799905,-0.3797429281531936,0.2607097074672319
-144.94976687431335,36.0,11336.0,11880.0,212.0,-965.0,1487.0,-0.33638381568425746,-0.8611472722544317,-0.23867336402326683,0.297163808934178
-144.95756363868713,76.0,11348.0,11844.0,184.0,-923.0,1460.0,-0.3754694268053063,-0.8631155647613286,-0.09590505098666763,0.3238154607125364
-144.96539521217346,48.0,11300.0,11664.0,135.0,-881.0,1418.0,-0.4085257000844183,-0.8454570538477012,0.04320498846410031,0.341236650202639
-144.97322034835815,64.0,11248.0,11456.0,89.0,-844.0,1364.0,-0.435262347599568,-0.810336296526818,0.17493665944645853,0.3511394886295578
-144.98102498054504,88.0,11188.0,11380.0,46.0,-831.0,1352.0,-0.4565144642523313,-0.7586233104738127,0.30069002448171317,0.3545006712424487
-144.98882007598877,-20.0,11096.0,11380.0,45.0,-866.0,1438.0,-0.47039131713144483,-0.6884219343073412,0.4272357933947196,0.3496810346219363
-144.9966208934784,-132.0,10924.0,11036.0,83.0,-897.0,1473.0,-0.47169519720256475,-0.6026250764690826,0.548873417141919,0.33628058240347286
-145.00445652008057,-224.0,10760.0,11488.0,171.0,-894.0,1281.0,-0.45332425960187045,-0.5171460345578495,0.6519188363034435,0.3194666265359678
-145.0122582912445,-236.0,10820.0,11444.0,22.0,-917.0,1676.0,-0.440885256893196,-0.39162428152482115,0.7539924888206115,0.2893889064502788
-145.02004742622375,-328.0,10832.0,11520.0,386.0,-977.0,1764.0,-0.40162657080056247,-0.2615256344198202,0.8480715640922026,0.2259979255358253
-145.027850151062,-384.0,10904.0,11356.0,444.0,-993.0,1851.0,-0.34849286178145433,-0.11842451734770644,0.9178776859460969,0.14842140216482638
-145.03564310073853,-344.0,11012.0,11392.0,532.0,-1054.0,1842.0,-0.2774436713072335,0.026142972457104018,0.9585307939929202,0.059668008262157096
-145.04348134994507,-264.0,11044.0,11424.0,563.0,-1063.0,1916.0,-0.1960118924048082,0.17496682445140113,0.9642121419887347,-0.03550906389606037
-145.05131435394287,-280.0,11080.0,11332.0,611.0,-1137.0,1952.0,-0.10151010088620728,0.31869745196973015,0.9327058569959968,-0.134860735024828
-145.0591332912445,-188.0,11028.0,11324.0,714.0,-1172.0,2096.0,-0.0012379460178689424,0.4583967140915089,0.8561479656762948,-0.23849859720364425
-145.0669400691986,-152.0,10912.0,10768.0,528.0,-1277.0,2226.0,0.11644230647110548,0.583069761386097,0.7371810896044895,-0.32099047299006694
-145.07473421096802,-76.0,10932.0,11036.0,885.0,-1531.0,2314.0,0.22757645860977707,0.6765595752277779,0.5611657517501959,-0.41900966064862827
-145.08252263069153,-240.0,11008.0,11084.0,959.0,-1304.0,2464.0,0.31476679187279794,0.7443508492085869,0.3434162692354211,-0.47846519835928175
-145.09031558036804,-48.0,11044.0,10920.0,1031.0,-1282.0,2501.0,0.3780702553188236,0.7682653439434001,0.09921632559876804,-0.5069392114182607
-145.0981044769287,252.0,11008.0,11160.0,1055.0,-1243.0,2543.0,0.4164915558576608,0.7445629163505737,-0.15384451521857978,-0.49849043384196823
-145.10590481758118,-20.0,11368.0,11220.0,1070.0,-1219.0,2608.0,0.42903031897506066,0.6715624185065143,-0.4001240744747517,-0.4525899120346833
-145.11369252204895,-4.0,11284.0,11136.0,1058.0,-1171.0,2491.0,0.41122882689236956,0.5595772010337753,-0.6118277326224401,-0.3787228981854881
-145.12147045135498,-72.0,11708.0,11300.0,1268.0,-1063.0,2376.0,0.35985040318441547,0.42950394052702207,-0.7832803477026711,-0.2692692877075966
-145.12927079200745,80.0,11768.0,11352.0,980.0,-975.0,2218.0,0.30092293008467347,0.27855138351591463,-0.8970100702739496,-0.16500742625030118
-145.13706946372986,204.0,11660.0,11424.0,947.0,-794.0,2093.0,0.24057539165652111,0.12532320566075741,-0.9609859879054489,-0.05406945627256916
-145.1448929309845,272.0,11772.0,11380.0,898.0,-618.0,2032.0,0.1848345762014453,-0.028607768504178656,-0.9807571418131431,0.055975028398010704
-145.15269780158997,416.0,11036.0,11512.0,887.0,-767.0,1807.0,0.11064170970819111,-0.16239723855165772,-0.9673394165333725,0.16012495809373026
-145.16052675247192,296.0,11080.0,11572.0,971.0,-523.0,2160.0,0.04897277976673976,-0.32098939119961933,-0.9080796549124803,0.26449729282782236
-145.1683270931244,304.0,10860.0,11524.0,1028.0,-456.0,2294.0,-0.011075298683530063,-0.4762178846175785,-0.8023069352738784,0.35971856463194374
-145.1761384010315,340.0,10796.0,11752.0,1169.0,-448.0,2399.0,-0.06736446644717634,-0.6143972330768842,-0.6476012852316075,0.4456351018648848
-145.18396377563477,352.0,10908.0,11728.0,1268.0,-486.0,2434.0,-0.11812350888461232,-0.7195546473573073,-0.4516624319564509,0.5140904528139696
-145.19179964065552,368.0,10976.0,12020.0,1348.0,-536.0,2525.0,-0.1627918115911058,-0.783999382337391,-0.21998835032126385,0.5571794327650692
-145.19959831237793,396.0,11172.0,12408.0,1415.0,-462.0,2553.0,-0.1927717808493082,-0.8042800982261893,0.029226982891111968,0.561354030515984
-145.20739841461182,640.0,11360.0,12572.0,1438.0,-349.0,2451.0,-0.2048232279546753,-0.781022823787928,0.26940564263788147,0.5248536879240046
-145.21519827842712,816.0,11552.0,12732.0,1359.0,-156.0,2353.0,-0.21054290848493734,-0.7226394972378668,0.4814944584310423,0.44902887125295604
-145.22299242019653,1256.0,11616.0,12368.0,1197.0,45.0,2344.0,-0.22308332523478583,-0.6313621509410595,0.6582839273149279,0.3439155934238867
-145.23078274726868,1036.0,11512.0,12464.0,990.0,181.0,2361.0,-0.24383961823760592,-0.5077766149733688,0.7948738881285413,0.22556739976189175
-145.2385859489441,1420.0,11184.0,12440.0,866.0,-44.0,2719.0,-0.24842085114025927,-0.32668000913977907,0.9056766245377813,0.10638187868727207
-145.24638867378235,1632.0,10996.0,12208.0,998.0,-162.0,2842.0,-0.2259092597600063,-0.11810789266117777,0.9665423072514365,-0.028486845014697573
-145.2541913986206,1216.0,10504.0,11784.0,1258.0,-409.0,3001.0,-0.16441028847145894,0.10504028381763737,0.9637076512546898,-0.1822178880719753
-145.26202249526978,1272.0,10760.0,11872.0,823.0,-523.0,3144.0,-0.0749411926180838,0.33580761115261126,0.8931607191375879,-0.2896221602891997
-145.26986050605774,1180.0,10972.0,11792.0,707.0,-1042.0,3101.0,0.06141400547757613,0.5246848888234859,0.7594523138240145,-0.3796923365026443
-145.27766060829163,1248.0,11144.0,11836.0,640.0,-1894.0,3465.0,0.25731194751697706,0.6561970691216882,0.53752723859773,-0.4628827453109762
-145.28545594215393,848.0,11344.0,12516.0,522.0,-2379.0,3338.0,0.4458697462476519,0.6851853102082569,0.25560780242923503,-0.516125867781461
-145.29324746131897,1424.0,11300.0,12808.0,394.0,-2918.0,3202.0,0.5906141019664966,0.5987018630455904,-0.06293821491481195,-0.5373730946441077
-145.30104446411133,2164.0,12024.0,13244.0,349.0,-3460.0,2930.0,0.6421575187957237,0.40722030352597394,-0.381893927734538,-0.5253212097467804
-145.30881190299988,2924.0,12680.0,13508.0,313.0,-3812.0,2430.0,0.5723519953819524,0.156965416866848,-0.647393485777279,-0.47818064145598627
-145.31659579277039,3348.0,13536.0,13708.0,139.0,-4039.0,2012.0,0.3965832244538054,-0.11011405751403193,-0.82099772359574,-0.3956758499962211
-145.32438349723816,3644.0,14460.0,13652.0,-222.0,-3985.0,1347.0,0.14587637029941644,-0.3303102132461161,-0.8806499891274794,-0.306709706829346
-145.33217453956604,4040.0,14932.0,13720.0,-556.0,-3734.0,967.0,-0.12431561960672083,-0.48441747291839843,-0.8382371303051133,-0.2173565090605719
-145.33996987342834,3912.0,15884.0,13720.0,-1682.0,-3087.0,-120.0,-0.40497243366023,-0.49321373230002175,-0.7435976966401024,-0.19949939297533517
-145.34783005714417,4068.0,16572.0,13604.0,-2651.0,-2708.0,-749.0,-0.6708609565455579,-0.37716259883881015,-0.6006388680015505,-0.21662617862518294
-145.3556146621704,4320.0,16504.0,13464.0,-3514.0,-2329.0,-1272.0,-0.8706432725863507,-0.1388595211313026,-0.4102710824141683,-0.23318654383566276
-145.36341524124146,4896.0,16204.0,12608.0,-4175.0,-2232.0,-1692.0,-0.9483580461351111,0.17706461032015025,-0.16119079804932032,-0.208044867101285
-145.37120485305786,5592.0,15684.0,12080.0,-4588.0,-2064.0,-2109.0,-0.8531456961228531,0.49548334935241756,0.11342996237875444,-0.11735550833393706
-145.37899661064148,5736.0,14756.0,11048.0,-4572.0,-2728.0,-2396.0,-0.5818450863344407,0.6986781291762058,0.4161706606757745,-0.010351256541779262
-145.3868064880371,6864.0,14588.0,10268.0,-4227.0,-3205.0,-2541.0,-0.18675855615173179,0.7277909407620337,0.6563271916398513,0.06838278849959487
-145.39459776878357,7720.0,13544.0,9856.0,-3739.0,-3552.0,-2765.0,0.24116227443363852,0.5801995564661505,0.7726194953874554,0.09093045371992008
-145.40241646766663,8568.0,13536.0,9600.0,-3416.0,-3715.0,-3022.0,0.6126888940052168,0.2970846034945517,0.729735586403037,0.06195991822271004
-145.410222530365,8984.0,13140.0,10028.0,-3270.0,-3747.0,-3384.0,0.8451040670581147,-0.06467285816242195,0.5306306742787357,-0.006901070455469109
-145.4180326461792,8776.0,12800.0,10700.0,-3389.0,-3823.0,-3624.0,0.8782481064293034,-0.42530638461357695,0.2018800552940731,-0.08389985717945563
-145.4258735179901,8440.0,12684.0,11056.0,-3714.0,-3222.0,-4557.0,0.6592810284819126,-0.7023867095792291,-0.16157630070433598,-0.21423009765436118
-145.4336817264557,7712.0,12640.0,11688.0,-4158.0,-2868.0,-4904.0,0.2319226964199132,-0.788986127107895,-0.4682510318300888,-0.3231930155598333
-145.44147753715515,7284.0,12708.0,11936.0,-4507.0,-2611.0,-5405.0,-0.28247582643553015,-0.6130234120690331,-0.6408854128484802,-0.3656167273701213
-145.44930005073547,7160.0,12428.0,11996.0,-4849.0,-2509.0,-6019.0,-0.7132240750247315,-0.19311709733089677,-0.6086842952606406,-0.288999367173464
-145.4571030139923,6672.0,12508.0,11812.0,-4993.0,-2305.0,-6136.0,-0.8724797373063498,0.31297286531369306,-0.359265474179609,-0.10842238066783372
-145.4649109840393,6796.0,11808.0,11584.0,-5000.0,-2581.0,-5961.0,-0.7102589038004111,0.6962722263384301,0.03867458978746996,0.0961329938508889
-145.47269988059998,7024.0,11444.0,11696.0,-5105.0,-3221.0,-5657.0,-0.27701243838926015,0.8274512080959553,0.43731378165540336,0.21758966788988515
-145.4805727005005,6960.0,10960.0,11796.0,-4462.0,-3778.0,-5165.0,0.2377264107105632,0.6694142145910535,0.6752869291708232,0.19838932996800768
-145.488374710083,7168.0,10820.0,12176.0,-4134.0,-4153.0,-4659.0,0.673724333072747,0.31884783568030195,0.6610782719746929,0.08606450505651596
-145.496196269989,7588.0,10868.0,12420.0,-3806.0,-4422.0,-4320.0,0.9015648184949808,-0.10222046763998204,0.4160527374768435,-0.06026585837437492
-145.50399613380432,7532.0,11096.0,12620.0,-3635.0,-4432.0,-4153.0,0.8578043913873336,-0.47834315510931713,0.04184377383087389,-0.18332635017438392
-145.51182079315186,7444.0,11444.0,12320.0,-3588.0,-4269.0,-4351.0,0.556514338452414,-0.7071457144771036,-0.3421985417916683,-0.27043832492676484
-145.519615650177,7460.0,11744.0,12180.0,-3636.0,-3979.0,-4114.0,0.09992416293319199,-0.7355541856481908,-0.6055259618313363,-0.2869033133056555
-145.52741885185242,7328.0,11876.0,11684.0,-3725.0,-3731.0,-4210.0,-0.38078802475553186,-0.5505287097040514,-0.7023286047549756,-0.24218412610512255
-145.5351951122284,7240.0,11632.0,11260.0,-3755.0,-3555.0,-4316.0,-0.7503825778842313,-0.2036650991591909,-0.6138795272847577,-0.13637609824648608
-145.54301500320435,7396.0,11472.0,10884.0,-3670.0,-3551.0,-4426.0,-0.9118389263656923,0.19943076022598055,-0.3584460430944398,0.017134130555356144
-145.55083775520325,7104.0,10972.0,10348.0,-3514.0,-3124.0,-4422.0,-0.8206229953737466,0.5419110534986116,-0.033061069774929085,0.17837397575089783
-145.55867171287537,6964.0,10484.0,10416.0,-3266.0,-2997.0,-4529.0,-0.5288131347600273,0.7310758553922466,0.30197393449778676,0.30772797248819395
-145.56650614738464,6808.0,9896.0,10040.0,-2943.0,-2945.0,-4479.0,-0.12620988733226932,0.7303456783206808,0.5687732729347498,0.35659952116200766
-145.5743157863617,6640.0,9484.0,10024.0,-2687.0,-2897.0,-4510.0,0.2917837756247237,0.5547588069394568,0.7128235388029504,0.314622785147119
-145.58211398124695,6552.0,9096.0,10316.0,-2358.0,-2961.0,-4380.0,0.6341706693457719,0.27085078940344726,0.7003539926850696,0.18431412575043338
-145.58992958068848,6160.0,8768.0,10368.0,-2297.0,-3001.0,-4371.0,0.8413626071040506,-0.06714488392781491,0.5361783491961231,0.010644518904840906
-145.59772634506226,6236.0,8540.0,10644.0,-2036.0,-2978.0,-4255.0,0.874665274528971,-0.37127852836015807,0.26119270630736935,-0.16997435713573766
-145.60553979873657,6148.0,8360.0,10852.0,-1524.0,-2937.0,-4236.0,0.7509209448966974,-0.5682148268117495,-0.07046867213413556,-0.32906505641650297
-145.61337637901306,6068.0,7980.0,11252.0,-1199.0,-3069.0,-4209.0,0.499974416350359,-0.6424359941818378,-0.4042014621793213,-0.4170404708740028
-145.6211860179901,5936.0,8084.0,11204.0,-974.0,-2566.0,-4244.0,0.18329186777407033,-0.5750309845005984,-0.6575878161793025,-0.45091210017552324
-145.62896180152893,5664.0,8012.0,11244.0,-721.0,-2280.0,-4294.0,-0.14040947231969042,-0.3949520373814672,-0.8098115864857928,-0.41049148912553285
-145.63677191734314,5712.0,7992.0,11308.0,-535.0,-1933.0,-4281.0,-0.414960893048378,-0.1433031409521816,-0.8453432240028722,-0.30441172885774587
-145.64459228515625,5412.0,7944.0,11384.0,-292.0,-1633.0,-4250.0,-0.6058104721985428,0.12771410013142984,-0.7725439479332491,-0.14092064757836967
-145.65239548683167,5412.0,8000.0,11392.0,-92.0,-1350.0,-4117.0,-0.6982395484980811,0.36810891308421606,-0.6117719392642038,0.05188887501255262
-145.66020345687866,5688.0,8076.0,11512.0,72.0,-1214.0,-3920.0,-0.7038872854041416,0.5446113432981731,-0.3873287785293823,0.2406607394659225
-145.6680064201355,5580.0,8204.0,11268.0,298.0,-1138.0,-3654.0,-0.6445977120609616,0.6387784046595522,-0.1302434272444509,0.39936523259541545
-145.67584919929504,5552.0,8248.0,11680.0,570.0,-1097.0,-3196.0,-0.5532429512831557,0.652614555169603,0.12420338514256209,0.5025833247884509
-145.68364000320435,5656.0,8744.0,11652.0,832.0,-1207.0,-3056.0,-0.434851520916663,0.6061519758551918,0.37698925608619543,0.5489654248847453
-145.6914312839508,5876.0,9224.0,11732.0,995.0,-1324.0,-2400.0,-0.3187519611267166,0.5356405497228529,0.5833251558314438,0.5207860898149006
-145.69922852516174,6040.0,9648.0,11624.0,1174.0,-1386.0,-2009.0,-0.20606611324170848,0.451156700219665,0.7485347733641557,0.4401023538735403
-145.707022190094,6004.0,10108.0,11684.0,1328.0,-1294.0,-1745.0,-0.10424865815434349,0.3542685446866798,0.870284014269053,0.3259321248762442
-145.7148129940033,6116.0,10304.0,11916.0,1347.0,-1665.0,-1773.0,0.030133784033709254,0.2474882162695517,0.950965945257026,0.18304455421819124
-145.7226529121399,6200.0,10932.0,11884.0,1206.0,-1719.0,-1432.0,0.16562023667661682,0.15547546876119053,0.9729884487648007,0.041119270262688766
-145.73045659065247,6468.0,11156.0,11920.0,1268.0,-1678.0,-1408.0,0.28901803218017863,0.058833773240388576,0.9494975435626603,-0.10705876409463212
-145.73826146125793,6456.0,11156.0,12168.0,745.0,-1620.0,-1501.0,0.39731484825506913,-0.06066488216295605,0.8911179838127381,-0.2106405050167864
-145.74604964256287,6468.0,11016.0,12316.0,419.0,-1590.0,-1781.0,0.4798749500317343,-0.20926424244533542,0.8010904469223008,-0.2901423874852635
-145.75387382507324,6456.0,10796.0,12160.0,182.0,-1415.0,-1987.0,0.5201364526469917,-0.368117019388748,0.685433276527513,-0.3523196759945515
-145.76166796684265,6388.0,10740.0,12368.0,-36.0,-1029.0,-2272.0,0.49901648013545624,-0.5250228652894561,0.5537934780309886,-0.4106657121879185
-145.76947355270386,6168.0,10448.0,12240.0,-75.0,-1070.0,-2550.0,0.4431750925886672,-0.670624294329633,0.3819690393127104,-0.4560247210080097
-145.77727103233337,5944.0,9712.0,12232.0,-85.0,-902.0,-2815.0,0.34491153714623135,-0.7781397375805207,0.17971048167707648,-0.49319237941896005
-145.78507351875305,5632.0,9424.0,12268.0,-40.0,-775.0,-2924.0,0.22087713361678415,-0.8300729040314376,-0.03923213490058178,-0.5105419722502659
-145.79286551475525,5628.0,9128.0,12168.0,75.0,-614.0,-2951.0,0.089606428244877,-0.8179588437928462,-0.2594464448460696,-0.505570529337897
-145.80066061019897,5196.0,8892.0,12080.0,377.0,-508.0,-3057.0,-0.028881129073018423,-0.7410964634271985,-0.48081187866871744,-0.4677198409413751
-145.80860948562622,5104.0,8640.0,12072.0,674.0,-445.0,-2626.0,-0.10814153999068288,-0.632747506612412,-0.6584025753413552,-0.39299115637389426
-145.81645107269287,5152.0,8316.0,12136.0,1068.0,-562.0,-2345.0,-0.15779781344362365,-0.5138639476108647,-0.798350128961809,-0.2714420103905296
-145.8242678642273,5164.0,8212.0,12260.0,1469.0,-649.0,-1988.0,-0.17983967747173618,-0.40107107855957214,-0.8914637501961632,-0.10996391424515661
-145.83207368850708,5136.0,8288.0,12236.0,1550.0,-716.0,-1767.0,-0.19386283946257613,-0.28822423270139635,-0.9356827186209918,0.061982588145612506
-145.83988094329834,4900.0,8276.0,12272.0,2147.0,-632.0,-1221.0,-0.1804613817376336,-0.21613060322547378,-0.9215501163808344,0.2673324429417567
-145.84773087501526,4668.0,8452.0,12460.0,2374.0,-354.0,-1000.0,-0.13733394320602085,-0.16073799465199373,-0.8576226863306634,0.4688134095882043
-145.85552549362183,4276.0,8924.0,12352.0,2497.0,-36.0,-1272.0,-0.05142799167873355,-0.09127546898268729,-0.750688921106968,0.652296017281371
-145.86332893371582,4076.0,9640.0,12240.0,2506.0,391.0,-1009.0,0.05021647169336316,-0.05705450228843407,-0.6009026420784759,0.7957003861268359
-145.87115931510925,3932.0,9756.0,11852.0,2377.0,863.0,-1150.0,0.18194835114848154,-0.0449129009816619,-0.42529586337856407,0.8854383419712759
-145.87895560264587,3780.0,10240.0,11612.0,2110.0,1205.0,-1349.0,0.3296849051597901,-0.05284084506911571,-0.24118026454016045,0.911234211604514
-145.8867471218109,3424.0,10236.0,11740.0,1906.0,1323.0,-1478.0,0.4705240814940924,-0.06996882417412904,-0.05648851778264341,0.8777929708858179
-145.89454770088196,3320.0,10060.0,11492.0,2030.0,1315.0,-1409.0,0.5802662168000083,-0.07787145952197413,0.1404998379267571,0.7984277982229065
-145.9023380279541,2912.0,9872.0,11160.0,2266.0,1226.0,-1533.0,0.6650199213000045,-0.06485120619045773,0.33874596844242577,0.6624152732189843
-145.91013741493225,2712.0,9648.0,10912.0,2485.0,1035.0,-1141.0,0.6922458246882018,-0.013479413409782277,0.5193181920213034,0.5009217893559874
-145.91792964935303,2740.0,9636.0,11000.0,2785.0,678.0,-948.0,0.6829555048537822,0.07962917097209925,0.6583478654118211,0.3062826498969704
-145.9257230758667,2628.0,9924.0,11124.0,3034.0,326.0,-791.0,0.6405407611545526,0.19902173800659045,0.7369098447715785,0.0840342893056784
-145.93352055549622,2456.0,10304.0,11400.0,3265.0,18.0,-667.0,0.5642514316555867,0.32511887228668557,0.7426006658796794,-0.15640425759138107
-145.9413239955902,2308.0,11344.0,12152.0,3441.0,-194.0,-716.0,0.4487814996832297,0.42592390619865483,0.6751714479977606,-0.4016559566085853
-145.94915223121643,1984.0,12856.0,12296.0,3504.0,-362.0,-1002.0,0.2903253823690733,0.46812987793870375,0.5479996042271393,-0.6294934658121913
-145.95695114135742,2468.0,15168.0,12904.0,3230.0,-264.0,-1117.0,0.10506549659369187,0.4618228463647412,0.39219409709175046,-0.7885839779043676
-145.96476697921753,2500.0,15708.0,12644.0,2665.0,-32.0,-1315.0,-0.08878453905530559,0.42494598046637383,0.25296115378504763,-0.8646090873833947
-145.97259664535522,2924.0,16748.0,12156.0,1957.0,67.0,-1517.0,-0.2710311986607035,0.37265232234144147,0.15722189255440533,-0.8734721589768524
-145.98042607307434,3540.0,16948.0,11636.0,767.0,149.0,-1646.0,-0.41824169663203836,0.33889384395264965,0.1467427784530779,-0.8298743294627339
-145.9882218837738,3892.0,16888.0,11332.0,-521.0,351.0,-1668.0,-0.5218898807924082,0.3575252246007525,0.21822836587139421,-0.7430902007359322
-145.99602246284485,4028.0,15448.0,11460.0,-1662.0,667.0,-1449.0,-0.5654571938195392,0.43995901004902743,0.334070474687091,-0.612446854328401
-146.00382137298584,3916.0,13644.0,11136.0,-1989.0,817.0,-925.0,-0.5510377547717306,0.5435168435511861,0.42673099592803937,-0.46781138368636277
-146.0116240978241,3904.0,11804.0,10932.0,-1903.0,1008.0,-443.0,-0.5072017141415647,0.6478367999126623,0.46840759715069136,-0.3219444436269947
-146.01941752433777,3672.0,10488.0,11100.0,-1765.0,974.0,-2.0,-0.44055463567650915,0.741842878001253,0.46780977830952813,-0.1916631645902425
-146.02721524238586,3596.0,8656.0,11140.0,-893.0,407.0,323.0,-0.39239048493109047,0.7929463140023127,0.4443832693159679,-0.14067466153412705
-146.0350046157837,3568.0,7200.0,11168.0,-109.0,190.0,660.0,-0.38344156996544015,0.8230844002220795,0.39281168329209276,-0.1456146077930732
-146.0428078174591,3516.0,6636.0,11212.0,605.0,-98.0,1018.0,-0.40845444236571316,0.8320157043489395,0.31358018362365575,-0.20635480286876526
-146.05065321922302,3368.0,6436.0,11000.0,1051.0,-374.0,1269.0,-0.44689432632670345,0.813717515319062,0.2135067674188685,-0.3042435317740034
-146.0584568977356,3408.0,6880.0,10852.0,1780.0,-474.0,1619.0,-0.5099814543064285,0.7449490467779805,0.06817166038067314,-0.42464391987760824
-146.0662477016449,3440.0,7448.0,10744.0,1983.0,-399.0,1917.0,-0.5495087401627603,0.6347076536305396,-0.109066147455873,-0.5322508002687124
-146.074045419693,3708.0,8652.0,10908.0,2296.0,-268.0,2109.0,-0.560761520268521,0.4745435152851797,-0.3084497833707581,-0.6043291326962933
-146.0818636417389,3680.0,9480.0,10884.0,1979.0,73.0,2218.0,-0.5069681597597389,0.31132590827252465,-0.4919869301156438,-0.6356164916232869
-146.08965301513672,3516.0,10576.0,10992.0,1820.0,426.0,2137.0,-0.4072217570913225,0.1577041280924024,-0.6501750303413043,-0.6217493694848071
-146.09744954109192,3540.0,11536.0,11048.0,1657.0,677.0,2060.0,-0.27216186760684,0.018000565578329273,-0.770874288904804,-0.5756359336986617
-146.10524249076843,3836.0,12396.0,11400.0,1467.0,949.0,1949.0,-0.1098237325185561,-0.09785966902013167,-0.8482492267652725,-0.5087587662606715
-146.11303567886353,3600.0,13040.0,11160.0,1219.0,1202.0,1759.0,0.06621906861204353,-0.18228923418959342,-0.8788634496081503,-0.43587235171961447
-146.12083411216736,3652.0,13344.0,10928.0,967.0,1406.0,1558.0,0.24385222535916565,-0.23792298265869236,-0.8652560445635861,-0.3677780905061525
-146.12862348556519,3556.0,13844.0,10784.0,742.0,1381.0,1356.0,0.40061449578590425,-0.275693676014539,-0.818190468361598,-0.3067007992392997
-146.13643884658813,3392.0,13596.0,10556.0,629.0,1134.0,1028.0,0.5189048516717792,-0.29364709268438693,-0.7626847045004299,-0.2506415396349696
-146.1442198753357,3412.0,13624.0,10640.0,533.0,655.0,1034.0,0.5948089282170566,-0.32175468617279634,-0.7133197443605629,-0.18398696460484104
-146.15202522277832,3332.0,13516.0,10736.0,644.0,216.0,1476.0,0.6436622694823025,-0.3729333508406516,-0.6643296002437202,-0.07270337623297772
-146.15984535217285,3432.0,13216.0,10828.0,841.0,-740.0,1682.0,0.6291574000866071,-0.4213273127081235,-0.6465064822135277,0.09313232488401442
-146.16764664649963,3400.0,12764.0,10756.0,1023.0,-1269.0,1687.0,0.5697059342530888,-0.4408177719462907,-0.6327127847226741,0.28423471368149683
-146.17544722557068,3444.0,12288.0,10936.0,1223.0,-1632.0,1543.0,0.4766848286195666,-0.414467333701368,-0.6091544616691749,0.4794989523314426
-146.18323969841003,3448.0,11924.0,10796.0,1342.0,-1644.0,1737.0,0.3551398465843527,-0.3716224911884298,-0.5431717200444708,0.6638801819265874
-146.19104051589966,3460.0,11792.0,10592.0,1144.0,-1442.0,1555.0,0.22879778384386104,-0.3192733016159176,-0.46098311925182,0.7957453718044933
-146.1988353729248,3448.0,11544.0,10748.0,1077.0,-1227.0,1465.0,0.10577426805339087,-0.26656892040506935,-0.3631396861112258,0.886500075162369
-146.20667457580566,3636.0,11488.0,10636.0,941.0,-905.0,1240.0,0.0029892064584163876,-0.2243142035238584,-0.26638885255609634,0.9373959579473619
-146.2145013809204,3712.0,11304.0,10768.0,758.0,-633.0,1157.0,-0.09077951355902088,-0.1973928502242363,-0.18008121528283214,0.9593570234801003
-146.22230696678162,3764.0,11312.0,10896.0,520.0,-239.0,999.0,-0.16841504484272224,-0.19610847260997613,-0.11658914594128407,0.9589498478491396
-146.2300956249237,3556.0,11244.0,10572.0,496.0,37.0,957.0,-0.23863870447015267,-0.2151781190202663,-0.05870056155048336,0.945147707978687
-146.23788976669312,3548.0,11232.0,10552.0,63.0,125.0,976.0,-0.3162172994117353,-0.2308396737683777,-0.037351704497103656,0.9194153113465203
-146.2456760406494,3356.0,11240.0,10592.0,-254.0,99.0,1011.0,-0.400538133602134,-0.23399597567079444,-0.039637563527138875,0.8850107064086988
-146.25351309776306,3080.0,11324.0,10948.0,130.0,-109.0,1184.0,-0.48713025807746263,-0.23287210454069332,-0.0012978108645601328,0.8417083879106426
-146.2613172531128,3384.0,11292.0,10840.0,206.0,-319.0,1215.0,-0.5687888012052746,-0.21692803964503676,0.05207676540844358,0.7916498820462375
-146.2691159248352,3520.0,11764.0,10860.0,284.0,-476.0,1246.0,-0.6428277563303132,-0.19108631883041965,0.11839124945655703,0.7322854679012073
-146.27689743041992,3584.0,12016.0,10928.0,281.0,-645.0,1221.0,-0.7041950835827248,-0.15188116277329314,0.19175098639008747,0.6665380378275346
-146.28469133377075,3656.0,12176.0,11132.0,325.0,-809.0,1180.0,-0.7488179392192729,-0.10430614655053831,0.2740328166349693,0.5943887087607607
-146.29251861572266,3676.0,12320.0,10760.0,411.0,-953.0,1102.0,-0.7726437471177705,-0.055148942549305954,0.3646366843905326,0.5167400918955127
-146.30029559135437,3656.0,12344.0,10944.0,533.0,-1052.0,961.0,-0.7730980294422498,-0.01325829672159302,0.4601797280127804,0.4363235867640392
-146.308096408844,3948.0,12360.0,11060.0,618.0,-1085.0,814.0,-0.7534578534981865,0.01865013368837856,0.5531135192741924,0.35499136653083363
-146.31588006019592,3904.0,12240.0,10744.0,667.0,-1050.0,643.0,-0.7184697970488376,0.037897397527569154,0.636946340499606,0.2768831835149966
-146.32366347312927,3748.0,12248.0,11004.0,612.0,-1103.0,596.0,-0.6687007360600009,0.058744255376045496,0.7135777322358401,0.20048755101073618
-146.33144450187683,3728.0,12124.0,10712.0,640.0,-1044.0,256.0,-0.607893719177386,0.05517348691130305,0.7796969282951265,0.13962024399734344
-146.33923745155334,3624.0,11960.0,10572.0,623.0,-1035.0,521.0,-0.5433099014916893,0.06965447807066211,0.8341650213377816,0.06427535921589894
-146.3470265865326,3708.0,11872.0,10660.0,584.0,-957.0,262.0,-0.4763247354390425,0.06601250028107733,0.8767806222359744,0.0035828322684924242
-146.35483479499817,3756.0,11528.0,10728.0,518.0,-988.0,620.0,-0.40147890407010806,0.09162377210041202,0.9088043201003013,-0.06704089602463531
-146.36265969276428,3592.0,11500.0,10800.0,553.0,-1020.0,638.0,-0.3191924243909137,0.11608003413140555,0.9300114181687679,-0.14042928456422382
-146.37046146392822,3840.0,11468.0,10968.0,640.0,-1073.0,745.0,-0.22766540588759696,0.14439063973846744,0.9369919296694385,-0.22218445006861803
-146.37826561927795,3852.0,11432.0,10816.0,666.0,-1106.0,773.0,-0.12953589334093255,0.17143925629911538,0.928345072955916,-0.3033223685362616
-146.38607168197632,3904.0,11416.0,10876.0,706.0,-1140.0,811.0,-0.02602979838534757,0.19714684571174226,0.9020133221624789,-0.38318081562538686
-146.39388871192932,3984.0,11536.0,10892.0,810.0,-1080.0,816.0,0.07167758157664468,0.22134047543730787,0.85526311174905,-0.46302886293819967
-146.4016604423523,3864.0,11644.0,10964.0,761.0,-1091.0,756.0,0.16750558240102875,0.23634905511607823,0.7959923399755485,-0.5314858405550237
-146.4094603061676,3932.0,11752.0,11072.0,725.0,-1013.0,680.0,0.25258066946983126,0.24533048731725024,0.7279200117848178,-0.5883437888225242
-146.4172706604004,3944.0,11936.0,10756.0,673.0,-867.0,605.0,0.3224509733999823,0.25258537411924414,0.657309295472247,-0.6325903007636329
-146.42506337165833,3940.0,11984.0,10900.0,667.0,-883.0,563.0,0.38728804634052166,0.2534282937791086,0.5797341507963861,-0.6705895790081625
-146.43286657333374,3988.0,12028.0,10952.0,620.0,-803.0,530.0,0.4430967362027857,0.2529531535778356,0.5019570338337105,-0.6983689001139226
-146.44065833091736,4056.0,12024.0,10840.0,647.0,-751.0,547.0,0.4927397547090789,0.25492828285685265,0.41919945411757786,-0.7186730288499897
-146.44849109649658,4340.0,12080.0,10844.0,637.0,-680.0,562.0,0.5363718665135798,0.2590687767573522,0.3357889555713514,-0.7296810036162985
-146.45628571510315,3840.0,12068.0,10804.0,657.0,-699.0,534.0,0.5734726924910241,0.25977030118944044,0.2477823582257536,-0.7363778680399942
-146.46409010887146,4100.0,12040.0,10908.0,664.0,-671.0,596.0,0.6084361793310025,0.26152099352568636,0.15700095244626067,-0.7326410352672016
-146.4718770980835,4120.0,11984.0,10912.0,640.0,-642.0,590.0,0.6375909916826376,0.26135911494669467,0.06792613634697198,-0.7214951007182266
-146.47969508171082,4076.0,11976.0,10900.0,625.0,-659.0,582.0,0.6610254886604665,0.25692780825559763,-0.021585801332332656,-0.7046754273188527
-146.4874861240387,4144.0,11852.0,10848.0,619.0,-603.0,640.0,0.6824116163514269,0.25319627908860526,-0.10862257230891897,-0.6770577279001487
-146.49531769752502,4100.0,11732.0,10880.0,623.0,-613.0,642.0,0.6976730785310596,0.2468385676324936,-0.1955528201354723,-0.643492106835194
-146.50313591957092,4152.0,11580.0,10916.0,628.0,-616.0,635.0,0.7061409936589294,0.2385086894414493,-0.28102798596910594,-0.6045674265435167
-146.51092672348022,4064.0,11580.0,10712.0,694.0,-611.0,644.0,0.7072700064562255,0.23204102259665318,-0.3671841608389204,-0.5577650883918138
-146.51871991157532,4012.0,11524.0,10636.0,706.0,-670.0,662.0,0.7001389157294281,0.22052397639172586,-0.4537394666594851,-0.5052674251455049
-146.52649402618408,4024.0,11468.0,10744.0,704.0,-649.0,704.0,0.6883122421681271,0.2059527863004667,-0.5349236843753661,-0.4445968499560509
-146.53428769111633,4048.0,11556.0,10652.0,682.0,-661.0,774.0,0.6714746999619471,0.18412361471800073,-0.6113537886635165,-0.3761206812991737
-146.542085647583,4132.0,11700.0,10760.0,727.0,-672.0,821.0,0.6469052250786412,0.15990211432118784,-0.6833630959726599,-0.2982613328345254
-146.5498948097229,4188.0,11732.0,10708.0,691.0,-707.0,907.0,0.6145921595507494,0.12560348585152165,-0.7487007797937881,-0.21435340934276387
-146.5576889514923,4212.0,11824.0,10824.0,685.0,-734.0,952.0,0.5728556288567653,0.08582919201829224,-0.8053906633175144,-0.12576031856504252
-146.56548738479614,4252.0,11932.0,10860.0,650.0,-719.0,911.0,0.5240107720129935,0.04613410367338697,-0.8495327574510985,-0.039729703121629455
-146.5732855796814,4392.0,12036.0,10996.0,577.0,-722.0,807.0,0.4683558789100509,0.01016760850342508,-0.8827160093832829,0.03676733885076207
-146.58106565475464,4436.0,12028.0,10860.0,523.0,-648.0,763.0,0.4135913044823491,-0.02499872767060965,-0.9037967494780326,0.10709216640063704
-146.58886313438416,4576.0,12136.0,10968.0,511.0,-598.0,627.0,0.3603577974530135,-0.05019516453818789,-0.9157007133668418,0.17063090813581827
-146.59666323661804,4552.0,12148.0,10916.0,429.0,-757.0,574.0,0.29204261269659876,-0.07098016537976878,-0.9267718422350311,0.22531507036213044
-146.60450673103333,4652.0,12200.0,10924.0,380.0,-370.0,441.0,0.25538967453521544,-0.08950266519290186,-0.9243208612593191,0.26906566578624364
-146.61231088638306,4544.0,12196.0,10872.0,334.0,-209.0,350.0,0.23272482900572417,-0.1052516688471484,-0.9174296888146425,0.3050967162239134
-146.62009954452515,4648.0,12000.0,11224.0,351.0,-148.0,279.0,0.21653551022338785,-0.11640087872033425,-0.9077528938934241,0.33992336176489096
-146.62793040275574,4612.0,11944.0,11260.0,355.0,-63.0,237.0,0.20802056207243305,-0.12648890860078904,-0.8953648443280211,0.3728938150432489
-146.63572239875793,4536.0,11936.0,10964.0,314.0,-42.0,210.0,0.20130662558848103,-0.13573581187649553,-0.8830990939854634,0.40148153390966984
-146.64352560043335,4572.0,11924.0,10812.0,337.0,55.0,201.0,0.20242125172970746,-0.1471249812212473,-0.8674173390495945,0.4300779425464029
-146.65132021903992,4552.0,11908.0,10816.0,349.0,26.0,172.0,0.2023442105554427,-0.15484417485572816,-0.8511468535945979,0.4589434993372926
-146.65915393829346,4512.0,11860.0,10792.0,282.0,25.0,141.0,0.20233365893916055,-0.16125423749643764,-0.8371732343944221,0.4818704566201542
-146.6669487953186,4500.0,11980.0,10632.0,239.0,-6.0,113.0,0.20049839961418583,-0.16496835990989123,-0.8254040426988338,0.5012923281651263
-146.67474961280823,4480.0,11984.0,10640.0,185.0,14.0,72.0,0.20103530384274848,-0.16747863358641987,-0.8158897779243427,0.5156157330604317
-146.68253421783447,4388.0,11972.0,10564.0,76.0,11.0,-7.0,0.20328497063932394,-0.16611012856987822,-0.8123443460155055,0.5207487968255984
-146.69033122062683,4324.0,11892.0,10720.0,47.0,255.0,-93.0,0.22625641393445856,-0.17019587557344584,-0.8067802591690059,0.5186010147565264
-146.6981258392334,4308.0,11912.0,10708.0,-28.0,-20.0,-157.0,0.23156478347426449,-0.15874052830442206,-0.8106773812658478,0.5137911825168834
-146.70592856407166,4244.0,11880.0,10700.0,-75.0,-97.0,-185.0,0.2319646382961218,-0.1427565479774958,-0.8183937014986004,0.506008620417793
-146.71373200416565,4260.0,11860.0,10560.0,-85.0,-210.0,-226.0,0.22584854017385675,-0.1189785596276206,-0.8288762836486199,0.4977957871006216
-146.72152137756348,4292.0,11824.0,10680.0,-45.0,-276.0,-214.0,0.21466085765734025,-0.09231381724029539,-0.8380828827487632,0.49296648667010157
-146.72931718826294,4396.0,11728.0,10480.0,-5.0,-347.0,-215.0,0.19841333478429277,-0.06167598013730856,-0.8459795541410343,0.4910670178592888
-146.73711514472961,4496.0,11712.0,10524.0,25.0,-407.0,-150.0,0.1748490484688004,-0.03266527947222072,-0.8521360655272102,0.4921635049395302
-146.7448992729187,4560.0,11656.0,10556.0,53.0,-376.0,-153.0,0.15355828031927887,-0.004289830041963162,-0.8554720294862708,0.4945392387568835
-146.75276255607605,4644.0,11624.0,10712.0,87.0,-380.0,-92.0,0.12915723837626544,0.02016656646458966,-0.8563045755654698,0.4996540715712087
-146.7605836391449,4668.0,11608.0,10844.0,118.0,-386.0,-107.0,0.10474232922892165,0.04632662020309174,-0.8547364941532961,0.5062691125190151
-146.76838040351868,4596.0,11640.0,10780.0,94.0,-340.0,-76.0,0.08235823541836172,0.06787383622503658,-0.8529429016667155,0.5109781501309367
-146.7761743068695,4592.0,11596.0,10828.0,141.0,-338.0,12.0,0.05583711420512989,0.08305169352925884,-0.8487024466271177,0.519315693936078
-146.7839651107788,4600.0,11568.0,10760.0,143.0,-442.0,-35.0,0.02366255441923377,0.10631348933132724,-0.8434045766419065,0.5261237930411824
-146.7917697429657,4512.0,11600.0,10708.0,202.0,-458.0,88.0,-0.015920729446239,0.12118787063873505,-0.8350493415478873,0.5364257894288725
-146.7995822429657,4564.0,11608.0,10652.0,9.0,-506.0,87.0,-0.056885618425502237,0.1384075467202583,-0.8339876973855087,0.5311044134978026
-146.80744767189026,4576.0,11704.0,10556.0,276.0,-540.0,80.0,-0.10306943268594372,0.1560421356167314,-0.8182916701533942,0.5435313114398619
-146.81530261039734,4368.0,11996.0,10632.0,230.0,-501.0,10.0,-0.1422813392122217,0.17683724045867202,-0.8020568425904699,0.5524395280505773
-146.823139667511,4564.0,11896.0,10884.0,243.0,-470.0,-32.0,-0.1771930147576419,0.19852343585047047,-0.7831422575390374,0.5620313918242307
-146.83094000816345,4660.0,11908.0,10700.0,182.0,-396.0,-50.0,-0.20480574740573068,0.21840416064785756,-0.7666291902678065,0.5680087262275222
-146.83874535560608,4668.0,11936.0,10828.0,174.0,-328.0,-167.0,-0.22164645784702064,0.24258694901214106,-0.748447071745599,0.5760654482680663
-146.8465404510498,4700.0,11948.0,10780.0,87.0,-274.0,-189.0,-0.2317758283897408,0.2669168762734513,-0.7343996268106812,0.5793897951077536
-146.8543837070465,4640.0,11964.0,10700.0,55.0,-268.0,-195.0,-0.2402665258815205,0.2917405809005282,-0.7213022096393611,0.5804158443443996
-146.86218667030334,4856.0,11896.0,10724.0,14.0,-305.0,-185.0,-0.250325022497844,0.31840085254143785,-0.7090983140021424,0.5771809606108455
-146.87004613876343,4540.0,11876.0,10620.0,-45.0,-416.0,-163.0,-0.2664010354631779,0.35016986971161285,-0.6971673240407982,0.5660117250906479
-146.87788200378418,4404.0,11828.0,10668.0,13.0,-471.0,-172.0,-0.2866846377819493,0.38324308912318794,-0.679621171214939,0.5559242005305968
-146.88569855690002,4452.0,11784.0,10560.0,17.0,-557.0,-154.0,-0.3124230801799527,0.41845419773932324,-0.6588240330231846,0.5415152785252473
-146.89349722862244,4432.0,11548.0,10596.0,20.0,-596.0,-224.0,-0.3363203148020237,0.45825674217965745,-0.6324215802799625,0.5262436212388226
-146.90131402015686,4480.0,11880.0,10536.0,250.0,-585.0,-178.0,-0.36982429111998405,0.4868067583414261,-0.5956088447909704,0.521055925729167
-146.9090874195099,4556.0,11900.0,10732.0,-23.0,-575.0,-297.0,-0.38462265657598516,0.5282961875574849,-0.5645226870026948,0.5042645001583157
-146.91691541671753,4648.0,11912.0,10784.0,-55.0,-509.0,-376.0,-0.3900213947803214,0.5701950683126575,-0.5316501495155473,0.49000919808268173
-146.92470812797546,4732.0,11936.0,10912.0,-108.0,-414.0,-379.0,-0.3871665751514996,0.6084059700743584,-0.502637709905815,0.4767594270111234
-146.9325659275055,4752.0,11924.0,10876.0,-158.0,-319.0,-411.0,-0.37524166392352265,0.6443231416581433,-0.4760216767440063,0.4663097104387932
-146.94035863876343,4724.0,11884.0,10924.0,-209.0,-4.0,-523.0,-0.3419429148856226,0.6722452002340766,-0.45438732664332226,0.4740185556575868
-146.9481499195099,4684.0,11780.0,10808.0,-264.0,-221.0,-551.0,-0.31190004273830724,0.7099788951339338,-0.4256496894801665,0.4663375104467563
-146.95597004890442,4656.0,11720.0,10552.0,-274.0,-221.0,-524.0,-0.28134796685953706,0.744771356896757,-0.39766170966350184,0.4560966039751546
-146.963796377182,4604.0,11644.0,10656.0,-270.0,-240.0,-756.0,-0.24135031278939847,0.7850987446846803,-0.352380372917703,0.44855106776528714
-146.97158861160278,4524.0,11552.0,10600.0,-210.0,-395.0,-271.0,-0.228220997140541,0.8124752472909236,-0.3333174537802409,0.42035535444334093
-146.97938537597656,4380.0,11488.0,10528.0,-167.0,-763.0,-431.0,-0.22204929886704075,0.853753856411326,-0.29275087312109466,0.3689110838973011
-146.98717617988586,4352.0,11456.0,10600.0,-134.0,-598.0,-395.0,-0.21414996141654255,0.8839136626714508,-0.2554863444447999,0.3279682282939419
-146.99496293067932,4324.0,11448.0,10604.0,-70.0,-730.0,-388.0,-0.2133207500735709,0.9123858403447732,-0.21331812326922706,0.27666173246639314
-147.00275897979736,4344.0,11416.0,10624.0,-21.0,-514.0,-367.0,-0.21199287919975512,0.9306107686774275,-0.17473401785431922,0.2418483810049006
-147.01054859161377,4256.0,11476.0,10656.0,32.0,-777.0,-341.0,-0.21860515041163706,0.949023373577362,-0.13159566142603435,0.18506487108901395
-147.01833415031433,4104.0,11504.0,10832.0,-254.0,-821.0,-319.0,-0.2011602507425332,0.9677091811583203,-0.09328991593340076,0.11987696112361677
-147.02613615989685,4148.0,11752.0,10560.0,13.0,-845.0,-297.0,-0.20536426091310708,0.9757708262927618,-0.05305250976987419,0.05368655420746978
-147.03394293785095,4540.0,11628.0,10892.0,225.0,-842.0,-510.0,-0.22512963161732105,0.9742758534335706,0.00652110834737172,-0.007790091787567837
-147.04172134399414,4588.0,11696.0,10980.0,-70.0,-784.0,-274.0,-0.21830816340362813,0.9724006085311674,0.045166143358352416,-0.06883764822887983
-147.0495274066925,4656.0,11760.0,10964.0,-103.0,-820.0,-357.0,-0.2078056959822971,0.9650617089396173,0.09143669785758222,-0.13081292344703477
-147.05739855766296,4672.0,11808.0,11024.0,-168.0,-822.0,-442.0,-0.19145339190745728,0.9519469380230157,0.1450061729974613,-0.1900416683476668
-147.06524276733398,4696.0,11776.0,11012.0,-178.0,-523.0,-495.0,-0.17785006520629712,0.9380230363577553,0.197417573722554,-0.2225049193923431
-147.0730335712433,4696.0,11896.0,10896.0,-202.0,-733.0,-548.0,-0.15875945988686518,0.914430444639733,0.2567315436254937,-0.26963180509739965
-147.08083534240723,4704.0,11948.0,10504.0,-288.0,-724.0,-569.0,-0.13243506199967667,0.8855015208714714,0.3178324806574459,-0.3119784049042292
-147.08863377571106,4700.0,11888.0,10776.0,-295.0,-641.0,-614.0,-0.10817623417583544,0.8515926169357955,0.3794673908185819,-0.34509769116196104
-147.0964698791504,4708.0,11836.0,10812.0,-317.0,-620.0,-606.0,-0.08203051820117285,0.8132053562600143,0.4384901995416085,-0.37375712373094694
-147.10426473617554,4644.0,11768.0,10796.0,-393.0,-527.0,-660.0,-0.055278619601637866,0.7710234521978607,0.5002761333262727,-0.3901165220801909
-147.11206793785095,4360.0,11688.0,10768.0,-423.0,-476.0,-604.0,-0.026479264964249655,0.7283493110643489,0.5559898684615464,-0.39960154625220595
-147.11985731124878,4556.0,11624.0,10936.0,-448.0,-446.0,-595.0,0.0029195462542755376,0.682997528003018,0.6087221325871744,-0.4036870301235329
-147.12766098976135,4448.0,11572.0,10900.0,-374.0,-443.0,-556.0,0.029125791493437806,0.6361919717059236,0.6533231070337191,-0.40936582810808403
-147.1354477405548,4472.0,11732.0,10776.0,-308.0,-438.0,-488.0,0.05369711350991889,0.5907540899572804,0.6889301727365071,-0.41653504329491287
-147.14328408241272,4500.0,11444.0,10864.0,-287.0,-499.0,-492.0,0.08047341293746113,0.5405045335783215,0.7208145257704252,-0.42638632533165893
-147.15108942985535,4548.0,11424.0,10804.0,-222.0,-762.0,-482.0,0.12059070426231948,0.47869182856949094,0.744014344246807,-0.4502828787121586
-147.15891766548157,4552.0,11568.0,10904.0,-180.0,-477.0,-564.0,0.13665642814133064,0.42050051205262706,0.7679318668204782,-0.4634490133043191
-147.16671514511108,4832.0,11580.0,10880.0,-159.0,-438.0,-527.0,0.15028139809122695,0.3648764826652466,0.7869869317976045,-0.47427020037672296
-147.1745409965515,4616.0,11584.0,10868.0,-122.0,-376.0,-559.0,0.1566049607083877,0.30876291475951695,0.8034611068040433,-0.48434553637248856
-147.1823329925537,4652.0,11644.0,10848.0,-147.0,-345.0,-596.0,0.15929056146353485,0.24989931529057013,0.8194621909270352,-0.49056963510494567
-147.1901340484619,4672.0,11704.0,11040.0,-117.0,-307.0,-581.0,0.15867585126783104,0.19324096920134723,0.8314530505628712,-0.4961509112722144
-147.19791769981384,4680.0,11752.0,11248.0,-177.0,-258.0,-554.0,0.1561698270046686,0.13919326051285735,0.8435759187749556,-0.49458658556831214
-147.20570707321167,4720.0,11836.0,10972.0,-138.0,-203.0,-748.0,0.14018232940736094,0.07329338914638985,0.853828790422078,-0.49593688134250835
-147.21350240707397,4724.0,11848.0,10892.0,-160.0,-171.0,-489.0,0.1326370202843045,0.02745214621665838,0.8608164752953092,-0.49055967667385847
-147.22129583358765,4764.0,11764.0,10840.0,-137.0,-159.0,-761.0,0.11205781864697015,-0.03804226065690275,0.8646045530731348,-0.48831833724467066
-147.22908329963684,4660.0,11840.0,10944.0,-149.0,-134.0,-557.0,0.0977935639011081,-0.08714289418202573,0.8666283555993339,-0.4814538691549738
-147.2368836402893,4616.0,11560.0,10512.0,-157.0,-187.0,-650.0,0.08325900122578629,-0.14525990618707108,0.8650875789933282,-0.4728540779573226
-147.24467945098877,4536.0,12008.0,10732.0,-164.0,-152.0,-635.0,0.06631059905663901,-0.2003460585785101,0.8612038400514851,-0.46237680212720667
-147.2525131702423,4512.0,11704.0,10640.0,-157.0,-176.0,-632.0,0.05116939650532641,-0.25544329074475425,0.853977858227931,-0.4503912029904749
-147.26033401489258,4448.0,11692.0,10664.0,-139.0,-197.0,-662.0,0.03662412720578685,-0.31258516079597,0.84219698224879,-0.4377824044518044
-147.26813006401062,4372.0,11644.0,10644.0,-123.0,-314.0,-508.0,0.03684636934961653,-0.3618307482911786,0.8308421726802934,-0.4212150742229995
-147.2759702205658,4136.0,11716.0,10568.0,-127.0,-396.0,-498.0,0.04313287644921392,-0.4122751373984332,0.8171858061134615,-0.4004698794404043
-147.28380751609802,4104.0,11612.0,10572.0,-103.0,-411.0,-384.0,0.055207612527967055,-0.45387537341529377,0.8044051991278534,-0.37931720306646777
-147.29160261154175,4240.0,11628.0,10556.0,-177.0,-427.0,-328.0,0.0671901180330161,-0.4913147203655257,0.7942297202340678,-0.3511331443879498
-147.29940390586853,4292.0,11624.0,10668.0,-173.0,-369.0,-332.0,0.07505280997172205,-0.5261197055824675,0.7822960674816726,-0.3249276748999333
-147.3072054386139,4244.0,11668.0,10888.0,-174.0,-358.0,-369.0,0.08090689059454191,-0.5619967915437778,0.7670697306858251,-0.2986933370773415
-147.31499361991882,4276.0,11460.0,10732.0,-249.0,-328.0,-392.0,0.0802879215312426,-0.5978339186506205,0.7510822358141068,-0.26837274528446226
-147.32279658317566,4244.0,11732.0,10836.0,-204.0,-294.0,-354.0,0.08049859511180495,-0.6287674760068206,0.7346113197725316,-0.24190420865106393
-147.3305902481079,4324.0,11412.0,10852.0,-202.0,-296.0,-297.0,0.08200420739420736,-0.6549548821533433,0.7198956262134324,-0.21461523634615975
-147.338392496109,4320.0,11720.0,10596.0,-107.0,-311.0,-509.0,0.08572303611995172,-0.6925774375930333,0.689603755428058,-0.1934805274826512
-147.34618663787842,4376.0,11288.0,10964.0,-87.0,-378.0,-177.0,0.10010864683235089,-0.7097872326784341,0.6770709197392274,-0.1665992581002769
-147.35402536392212,4472.0,11568.0,10896.0,-47.0,-349.0,-116.0,0.11602586629673743,-0.7217620285096723,0.6671660772995974,-0.14313279796176026
-147.36186385154724,4568.0,11664.0,10840.0,-59.0,-338.0,-120.0,0.13037957515158738,-0.7332122581198202,0.6565886199517884,-0.11955055447772645
-147.3696608543396,4620.0,11752.0,11004.0,-76.0,-303.0,-160.0,0.14109911303967385,-0.7460686793140509,0.6433917255778989,-0.0975687117056441
-147.377459526062,4664.0,11756.0,10900.0,-80.0,-510.0,-217.0,0.16244436759878184,-0.7626832173258105,0.6229175013668427,-0.0624493709805956
-147.38525104522705,4636.0,11708.0,11036.0,-124.0,-231.0,-277.0,0.16510534981163233,-0.7803375549286433,0.6015465574839491,-0.04421835603880899
-147.39304304122925,4580.0,11708.0,10764.0,-110.0,-220.0,-352.0,0.16764416615745523,-0.8007001191122014,0.5744238451179474,-0.028495595571781822
-147.40084028244019,4644.0,11688.0,10904.0,-44.0,-178.0,-279.0,0.17268305299286163,-0.8154367955616705,0.5521979929638816,-0.01791011501469726
-147.4086151123047,4572.0,11648.0,10776.0,-13.0,-180.0,-279.0,0.17987869797960648,-0.8290204043937025,0.5294278359931299,-0.00865965286228671
-147.4164686203003,4572.0,11584.0,10788.0,-256.0,-198.0,-248.0,0.1701648249076369,-0.844122224319618,0.5082483307534145,0.013610182225868458
-147.42424702644348,4596.0,11560.0,10848.0,38.0,-163.0,-187.0,0.180331167078994,-0.8514618169090962,0.491981151946328,0.021165789740822647
-147.4320411682129,4564.0,11596.0,10904.0,19.0,-184.0,-143.0,0.18982754187907078,-0.8567909575991717,0.4783980244088397,0.031781906207200186
-147.43983554840088,4552.0,11584.0,10892.0,29.0,-130.0,-163.0,0.1978030097485675,-0.8626161872433076,0.46406193647015415,0.037600557971890984
-147.44763851165771,4580.0,11608.0,10852.0,-244.0,-67.0,-181.0,0.1826295990885631,-0.8736238004451293,0.4483162798140846,0.0494003854865419
-147.4554603099823,4476.0,11588.0,10892.0,-32.0,-8.0,-160.0,0.1811309100709636,-0.8802759305041825,0.43581198937763566,0.04872155074058852
-147.4632968902588,4504.0,11640.0,10888.0,-33.0,-244.0,-130.0,0.18833168187626567,-0.8844491673122659,0.4217067987086217,0.06666501305199415
-147.47113800048828,4484.0,11560.0,10940.0,-44.0,13.0,-159.0,0.18532006906142887,-0.8910123521876324,0.40935385582229333,0.06467519598385993
-147.47893404960632,4464.0,11576.0,10852.0,-249.0,57.0,-168.0,0.1647626383805802,-0.9010484211902497,0.39566967007993425,0.06641180499929564
-147.48673677444458,4456.0,11624.0,10892.0,-76.0,25.0,-111.0,0.1585070054882865,-0.9060597474104954,0.38683764117505104,0.06548207925599026
-147.49453139305115,4464.0,11576.0,10924.0,-63.0,92.0,-89.0,0.15086717144563333,-0.9103962422484643,0.38068878677556095,0.059108597540637076
-147.5023317337036,4556.0,11576.0,11000.0,-10.0,97.0,-72.0,0.14716395957088774,-0.9133745211464998,0.37617820513068695,0.050790856544019006
-147.51011729240417,4624.0,11584.0,10932.0,-2.0,162.0,-50.0,0.1418415684302425,-0.9156649634416477,0.3742288790495495,0.03730134415771767
-147.51791620254517,4352.0,11580.0,10968.0,48.0,232.0,-47.0,0.13817208013581106,-0.9171628275945483,0.37342324044694897,0.01661046187847597
-147.52570343017578,4556.0,11632.0,11184.0,48.0,276.0,-31.0,0.1329731019277044,-0.917722576963787,0.3742303656811772,-0.007420195199766837
-147.5335021018982,4480.0,11604.0,11052.0,24.0,331.0,-65.0,0.12393551427835482,-0.9189587252045985,0.37268944033999035,-0.035460269739019785
-147.54128217697144,4496.0,11572.0,11088.0,41.0,379.0,-45.0,0.11463830493767074,-0.9182968156698281,0.3728437035143993,-0.06765049978631417
-147.54906797409058,4464.0,11468.0,10800.0,120.0,358.0,-37.0,0.11227111962880386,-0.9156907049521635,0.37254505904095003,-0.10057786807086219
-147.55691933631897,4112.0,11572.0,11144.0,139.0,366.0,-18.0,0.11120272315881465,-0.9111739741509796,0.37325001237686734,-0.13446327176088735
-147.5647087097168,4220.0,11456.0,11036.0,166.0,319.0,37.0,0.11433590795230639,-0.9041693162547434,0.37714627722873567,-0.16482060935652812
-147.57256841659546,4160.0,11436.0,11068.0,213.0,270.0,69.0,0.12314038242079098,-0.8954742871689484,0.382034241787574,-0.19238525239300022
-147.5803780555725,4204.0,11264.0,10908.0,247.0,239.0,110.0,0.13620550151414496,-0.8847051394016772,0.3888495600064352,-0.21803875196015246
-147.58817267417908,4196.0,11548.0,10928.0,303.0,253.0,149.0,0.15369916864829086,-0.8706464268262228,0.39731513851243627,-0.24595130762083425
-147.5959689617157,4252.0,11568.0,10896.0,269.0,214.0,13.0,0.16687715892514296,-0.861610461314489,0.3952050841255183,-0.27127913348403326
-147.60378575325012,4284.0,11644.0,10904.0,5.0,303.0,3.0,0.15676929296733677,-0.8539656843722002,0.39956786239370745,-0.29412841079937224
-147.6115846633911,4424.0,11664.0,10944.0,216.0,363.0,275.0,0.16706025912060132,-0.831298925083032,0.41906361756457716,-0.32468238543543276
-147.61937189102173,4396.0,11644.0,11116.0,162.0,257.0,310.0,0.17802726334380795,-0.8097364288666872,0.44037689015344894,-0.34453070094160804
-147.62717986106873,4476.0,11660.0,10972.0,73.0,594.0,260.0,0.16785512581659356,-0.7794831610117432,0.46501152853970845,-0.38470110054612566
-147.63496947288513,4396.0,11704.0,11008.0,42.0,624.0,354.0,0.15691661954375333,-0.7420880792215903,0.4958279639153074,-0.42289134229465203
-147.6427698135376,4460.0,11652.0,10892.0,11.0,621.0,343.0,0.14309078609200285,-0.7028243754916484,0.5251078079277776,-0.45806627708622155
-147.65055966377258,4388.0,11552.0,11184.0,68.0,586.0,358.0,0.1344253907993431,-0.6609387290199643,0.5506369473930957,-0.49182188133055993
-147.65839266777039,4320.0,11460.0,10968.0,56.0,499.0,374.0,0.12948674230758048,-0.6199608010461782,0.5747673422344448,-0.5181932950487719
-147.66618633270264,4408.0,11528.0,10920.0,83.0,451.0,430.0,0.13055739360380839,-0.5761867469843907,0.5984371146534958,-0.5411438065617351
-147.67401933670044,4452.0,11544.0,10880.0,79.0,429.0,413.0,0.13140337223082374,-0.5327219975213049,0.6194697289631059,-0.5614246895369442
-147.68182182312012,4488.0,11300.0,11112.0,134.0,434.0,416.0,0.1343174433505098,-0.4867240918417926,0.6362579347499602,-0.5832960854491316
-147.68961787223816,4512.0,11528.0,11116.0,124.0,455.0,379.0,0.13338713816671122,-0.44044706871725836,0.6504237335310897,-0.6042873636686005
-147.69741034507751,4508.0,11464.0,11192.0,107.0,484.0,365.0,0.12905163012736368,-0.3923889261707811,0.6634367787298627,-0.6238815977479657
-147.70523405075073,4572.0,11544.0,11084.0,87.0,545.0,325.0,0.1179490321153232,-0.34238157588274964,0.6748592351629591,-0.642983588464254
-147.71302270889282,4536.0,11504.0,11164.0,83.0,597.0,295.0,0.10161022457908984,-0.2901539413693414,0.6839315107649864,-0.6616069385606134
-147.72081661224365,4568.0,11520.0,11056.0,46.0,600.0,280.0,0.0829527198438866,-0.23799188657230516,0.6924648010496623,-0.6759964552447804
-147.72860288619995,4596.0,11456.0,11048.0,66.0,577.0,223.0,0.0624803464117426,-0.18972243367636252,0.6962904983913277,-0.6894063724119057
-147.73643851280212,4516.0,11740.0,10856.0,25.0,611.0,217.0,0.038721858949635764,-0.13942189110672495,0.7005243445603802,-0.6988045482092676
-147.7442376613617,4468.0,11540.0,10924.0,27.0,614.0,239.0,0.016024684830185616,-0.08713812927350034,0.7026321358053373,-0.7060157488586482
-147.7520227432251,4424.0,11516.0,10916.0,45.0,577.0,220.0,-0.0054875520392180955,-0.03798902719260812,0.7012495275921542,-0.7118818867181244
-147.75983023643494,4444.0,11544.0,11064.0,57.0,564.0,6.0,-0.03943253427942572,-0.002623549449082341,0.6965375671725506,-0.7164311619031759
-147.76762223243713,4588.0,11440.0,11040.0,47.0,629.0,245.0,-0.06227009486383524,0.051328820131067744,0.6902187404858406,-0.7190868360578864
-147.77540135383606,4108.0,11396.0,11092.0,48.0,656.0,278.0,-0.0844260900969633,0.10875462316625553,0.6810053204824041,-0.7192193133707988
-147.7831826210022,4416.0,11456.0,11060.0,61.0,622.0,6.0,-0.12145435575522073,0.14745934237878588,0.6714705358891773,-0.7159831710633996
-147.7909722328186,4288.0,11428.0,11136.0,100.0,585.0,303.0,-0.13789293862834234,0.20034674180228657,0.6539481242654894,-0.7163787903723113
-147.79876708984375,4400.0,11268.0,11136.0,138.0,602.0,339.0,-0.15321369038093405,0.25516217475800423,0.6308875391409952,-0.716518487276665
-147.80661010742188,4372.0,11324.0,11080.0,153.0,481.0,319.0,-0.1629650193507803,0.3003208251820705,0.6068926260434565,-0.7175870294842551
-147.8145136833191,4292.0,11392.0,11084.0,150.0,450.0,343.0,-0.16905472600847432,0.34405650685161265,0.5812816297801268,-0.7177445831125621
-147.82233834266663,4316.0,11436.0,11188.0,171.0,400.0,320.0,-0.17426411458004387,0.38236552764025644,0.5543753726252165,-0.7183986134930065
-147.83015370368958,4240.0,11496.0,11172.0,187.0,371.0,253.0,-0.18244477380912938,0.4146142765602417,0.5280206806046741,-0.7183335346730929
-147.83796644210815,4188.0,11296.0,11152.0,99.0,333.0,189.0,-0.1894257423714474,0.4423227384214277,0.5093017312662234,-0.7134985842534117
-147.8457715511322,4176.0,11656.0,11132.0,80.0,286.0,165.0,-0.19487758802367477,0.4659012143674967,0.4929398339639244,-0.7084977799743519
-147.85357642173767,4092.0,11724.0,11180.0,44.0,262.0,96.0,-0.20195029045393864,0.4852981033203733,0.4816494347352548,-0.7012243956954348
-147.8614206314087,4136.0,11692.0,10768.0,-15.0,153.0,41.0,-0.20522518475429566,0.49656326375898135,0.4780289597863723,-0.694835133130984
-147.8692672252655,4344.0,11736.0,11100.0,-78.0,82.0,241.0,-0.19060437942535716,0.5128114034086583,0.47066107100024757,-0.6922229346986536
-147.87707543373108,4184.0,11776.0,10904.0,-116.0,60.0,-115.0,-0.19480580896839297,0.5135457294858342,0.4817090855706866,-0.6828453978739881
-147.8848900794983,4180.0,11812.0,10988.0,-179.0,41.0,-199.0,-0.20031554228695056,0.510487601171024,0.5004105708267774,-0.6699741436606025
-147.89270567893982,4208.0,11652.0,10952.0,-197.0,88.0,-355.0,-0.2160081182473572,0.5032072941527137,0.5258194440123029,-0.6508738927483055
-147.90058708190918,4296.0,11600.0,11056.0,-248.0,55.0,-401.0,-0.23023788293616876,0.4921474562325661,0.5559686174729338,-0.6290312352897272
-147.90842938423157,4220.0,11768.0,11132.0,-225.0,-14.0,-472.0,-0.24557121135200966,0.4724706093369232,0.5882330220835781,-0.6086445721423333
-147.91623187065125,4172.0,11500.0,11088.0,-228.0,-135.0,-266.0,-0.24326085181381132,0.4562511197011736,0.6138496981369664,-0.5965296487546948
-147.92402148246765,4172.0,11404.0,11164.0,-90.0,-5.0,-527.0,-0.2665862110619102,0.42916542788563533,0.6389061660570902,-0.5801273468417292
-147.93179869651794,4180.0,11432.0,11084.0,-70.0,-333.0,-554.0,-0.2730394671893131,0.38238531516803176,0.6698495342663409,-0.574919578327254
-147.93959522247314,4264.0,11268.0,11020.0,-44.0,-376.0,-527.0,-0.2756295619317947,0.3331793969975133,0.6974652469181383,-0.5714560904803453
-147.94739151000977,4368.0,11500.0,11096.0,-48.0,-389.0,-571.0,-0.27856811615693494,0.2796172927992016,0.7244759762061649,-0.5651093116632802
-147.95518565177917,4372.0,11552.0,11112.0,-96.0,-372.0,-645.0,-0.28395616188092043,0.22229477468567682,0.7523590735204313,-0.551280106451139
-147.96299195289612,4372.0,11620.0,11104.0,-149.0,-308.0,-689.0,-0.2933866502024678,0.16550336225211237,0.7787515505403567,-0.5292248417234501
-147.97078824043274,4420.0,11600.0,11064.0,-196.0,-170.0,-515.0,-0.30246753708845886,0.12745813121294128,0.7985614643756433,-0.504546728667994
-147.97857928276062,4508.0,11624.0,11060.0,-263.0,-40.0,-825.0,-0.33220344188072565,0.07487527762603337,0.8180131459601927,-0.4635612786237998
-147.9863612651825,4576.0,11616.0,11380.0,-296.0,92.0,-824.0,-0.369165032150437,0.02821664062832263,0.8302293496276666,-0.41670160456355415
-147.99414801597595,4804.0,11528.0,11268.0,-332.0,171.0,-781.0,-0.40806531459240086,-0.011478553004878805,0.836299162816781,-0.3659981586285238
-148.0019302368164,4664.0,11508.0,11292.0,-380.0,188.0,-753.0,-0.4450487936830892,-0.0468206464302879,0.8385657770590731,-0.31071986717039835
-148.00972604751587,4644.0,11360.0,11144.0,-358.0,277.0,-755.0,-0.4859235949005377,-0.08047565913510529,0.8319292811930475,-0.2555300360022822
-148.01752877235413,4640.0,11316.0,11040.0,-313.0,304.0,-637.0,-0.5233144389271019,-0.10648429357912453,0.8196263627008344,-0.20740231145570073
-148.02532863616943,4640.0,11308.0,11220.0,-302.0,330.0,-597.0,-0.559452149452788,-0.12920224493282637,0.8027048085985727,-0.16119882949234504
-148.0331163406372,4456.0,11204.0,11348.0,-283.0,268.0,-479.0,-0.5874089068127429,-0.14501156900518308,0.7869802166281678,-0.12076655036720743
-148.04091596603394,4248.0,11232.0,11328.0,-209.0,181.0,-412.0,-0.6063634259880556,-0.1605879678054618,0.7738806564334493,-0.08742785493350054
-148.04871487617493,4116.0,11152.0,11172.0,-163.0,54.0,-416.0,-0.6150973171009491,-0.17956010560421248,0.7657570354955894,-0.05504199814346815
-148.05657768249512,3844.0,11140.0,11108.0,-115.0,-62.0,-398.0,-0.6143578574390822,-0.2001992705095965,0.7627998124479345,-0.02492230365920848
-148.06442379951477,3772.0,11116.0,11260.0,-88.0,-182.0,-354.0,-0.6042661533449982,-0.21934917275768193,0.7659884241536551,0.003176538172281559
-148.07222247123718,3780.0,11232.0,10912.0,-76.0,-248.0,-327.0,-0.5887585093856322,-0.2370160013881597,0.7721837824997383,0.030315652003098322
-148.08002305030823,3780.0,11336.0,10844.0,-51.0,-287.0,-286.0,-0.5694500814217568,-0.2527845245918468,0.7802968010200028,0.05443795747067435
-148.0878119468689,3944.0,11420.0,10912.0,-85.0,-295.0,-355.0,-0.5491841101447421,-0.27113571086684396,0.785976843107811,0.08439574370510838
-148.0956130027771,4040.0,11460.0,11008.0,-93.0,-303.0,-388.0,-0.5273331085519709,-0.2908058665606319,0.7897941365944585,0.11652022313679783
-148.10340118408203,4068.0,11576.0,11140.0,-187.0,-209.0,-419.0,-0.5130099498982287,-0.308670918544186,0.786031489282653,0.15394009616276072
-148.11119651794434,4168.0,11684.0,11320.0,-226.0,-139.0,-478.0,-0.50266325885637,-0.3291083407967999,0.7753723482490568,0.1944609723945007
-148.11899590492249,4140.0,11704.0,11068.0,-265.0,-123.0,-554.0,-0.4919087955355965,-0.3523581178445684,0.759134399381906,0.2399676172712163
-148.1267867088318,4144.0,11756.0,11356.0,-289.0,-159.0,-643.0,-0.47594333301361486,-0.37845914286189847,0.7385741259305082,0.29112691639577776
-148.1345820426941,4084.0,11744.0,11316.0,-266.0,-269.0,-723.0,-0.44797815910303146,-0.40612790540376076,0.7171999750233614,0.3464100016533912
-148.1423716545105,4040.0,11680.0,11224.0,-226.0,-338.0,-815.0,-0.40899505750523457,-0.4366733660880095,0.6924219531547183,0.4032260570388056
-148.1501579284668,3992.0,11632.0,11100.0,-220.0,-406.0,-845.0,-0.36192556502102086,-0.4639093339171789,0.6645445385041615,0.4606284529130012
-148.1579248905182,4072.0,11588.0,11180.0,-215.0,-439.0,-860.0,-0.3095401074903833,-0.48746654666726463,0.6325249099100306,0.5162107380503057
-148.16576170921326,4168.0,11628.0,11132.0,-200.0,-403.0,-795.0,-0.2592610702761903,-0.506104652336411,0.5986222774405356,0.5641747488806915
-148.17355465888977,4248.0,11632.0,11012.0,-162.0,-358.0,-729.0,-0.21136802356822582,-0.5214410556950454,0.5650286667191924,0.6034611750842224
-148.18137431144714,4188.0,11636.0,11048.0,-232.0,-298.0,-714.0,-0.16930816423171788,-0.5352409651228316,0.5244800246977577,0.6401347971106593
-148.18914699554443,4304.0,11624.0,11120.0,-234.0,-204.0,-694.0,-0.1319416970425812,-0.5508271972793003,0.48092672392100205,0.6692460485782241
-148.19694209098816,4380.0,11564.0,11132.0,-287.0,-109.0,-714.0,-0.09933479678495886,-0.5696951881307977,0.4301013081561674,0.6932480475923891
-148.20476365089417,4412.0,11580.0,11120.0,-354.0,-92.0,-720.0,-0.06984880425969991,-0.5865075831932404,0.3727675962104128,0.7156635512696066
-148.21258878707886,4432.0,11552.0,11240.0,-370.0,-41.0,-735.0,-0.04153819094930187,-0.6039191782463097,0.31150512379849377,0.732475776177101
-148.22038316726685,4592.0,11464.0,11196.0,-356.0,-44.0,-720.0,-0.013140292918287633,-0.6177473273032774,0.25038066780757046,0.745335557651662
-148.22818517684937,4212.0,11412.0,11232.0,-328.0,-55.0,-744.0,0.01863992063229769,-0.6283449756904523,0.18856959422722197,0.754504243206337
-148.23598718643188,4264.0,11340.0,11272.0,-367.0,-246.0,-798.0,0.05485861882081643,-0.6237864803265742,0.11991924799187477,0.7703897279065448
-148.24382185935974,4244.0,11016.0,11228.0,-309.0,63.0,-772.0,0.08898025616659593,-0.6357921193872825,0.057331455959187795,0.7645678512042956
-148.25161051750183,4260.0,11168.0,11268.0,-508.0,91.0,-620.0,0.10139576586319705,-0.6472131203580679,-0.010169909629783695,0.7554671723109554
-148.25941228866577,4164.0,11080.0,11116.0,-191.0,81.0,-492.0,0.12293289876570218,-0.6530129514955458,-0.04971011848303464,0.7456476994536632
-148.26720190048218,4348.0,11084.0,11060.0,-123.0,147.0,-263.0,0.13357562675087747,-0.6624131278410476,-0.07102391700020566,0.733704302301614
