programtime,ax,ay,az,gx,gy,gz,q0,q1,q2,q3
-10336.18474817276,292.0,840.0,16436.0,1371.0,3706.0,-1055.0,0.9418096731589942,0.11297386031286652,0.30448815621512537,-0.08670876054281348
-10336.200332164764,152.0,880.0,16580.0,833.0,2859.0,-1023.0,0.8196265140577731,0.16955601518042468,0.5236633134319509,-0.15887060563587255
-10336.215945720673,384.0,420.0,15472.0,716.0,2813.0,-331.0,0.6550317480992067,0.2370410073692266,0.6974415193424499,-0.16828635388757746
-10336.23157286644,308.0,-244.0,14736.0,1017.0,2428.0,103.0,0.4753833422115788,0.32853449513394695,0.7983018378968963,-0.16967598258230068
-10336.247200489044,200.0,-272.0,15016.0,1456.0,2290.0,594.0,0.27495150883186736,0.45118228193702553,0.8306305876649877,-0.175752789714687
-10336.262794971466,328.0,128.0,15824.0,1638.0,2077.0,981.0,0.07275576388194373,0.5762731684270985,0.793010314106284,-0.183713025923587
-10336.278415203094,624.0,900.0,17092.0,1583.0,2490.0,1023.0,-0.15710021830237791,0.6725343521297014,0.7062009337677765,-0.15587593707929648
-10336.294004440308,976.0,1752.0,17608.0,1296.0,2720.0,647.0,-0.378626547114014,0.7065316345349019,0.5922177989147809,-0.0820552610774682
-10336.309586763382,1212.0,2432.0,17096.0,944.0,2736.0,60.0,-0.5602996598877653,0.6767269252555989,0.47633307518442136,0.034810361232108615
-10336.325181007385,972.0,2404.0,15900.0,871.0,2374.0,-487.0,-0.691790262513066,0.5918294930179452,0.3820674002684111,0.15870912241696425
-10336.34076333046,740.0,1680.0,14888.0,945.0,1826.0,-795.0,-0.776331873323009,0.4741470036349138,0.32003706693207634,0.2647068514344388
-10336.35633611679,604.0,1016.0,15016.0,1014.0,1384.0,-665.0,-0.8310224187478169,0.35023907651368036,0.2736099552362207,0.3344726015939209
-10336.371949911118,988.0,284.0,15436.0,989.0,1122.0,-269.0,-0.872624667597962,0.23706081308564547,0.22720436369571267,0.3615335911313711
-10336.38752746582,848.0,140.0,16788.0,827.0,1311.0,88.0,-0.9102401961403356,0.13303364527983433,0.15008185245843556,0.36227099265136753
-10336.403079032898,904.0,504.0,17652.0,514.0,1838.0,363.0,-0.9383756098471013,0.03807064232327862,0.01567932312082341,0.34315594102921537
-10336.418669223785,944.0,884.0,17332.0,400.0,2237.0,756.0,-0.9449826097909712,-0.05966202280964217,-0.15459051637957819,0.282046241727136
-10336.434255123138,512.0,1180.0,16596.0,408.0,2452.0,477.0,-0.8999303893219682,-0.15629666603560335,-0.3359074157712559,0.2299192349301002
-10336.449847698212,328.0,1400.0,15920.0,463.0,2247.0,357.0,-0.818396398537258,-0.24322130693547192,-0.4881193528786857,0.18113593806624786
-10336.465430736542,4.0,1584.0,15496.0,441.0,1943.0,143.0,-0.7178126037950244,-0.30686118713906674,-0.6076072178588826,0.14626943107292895
-10336.481037139893,-180.0,1664.0,15696.0,350.0,1783.0,72.0,-0.6073069483896091,-0.35094901813982793,-0.7040251237183294,0.11118310248316735
-10336.496690034866,-396.0,1544.0,16272.0,106.0,1405.0,-94.0,-0.5130224783212076,-0.361667531740673,-0.7744389002984402,0.07905012919861744
-10336.512262821198,-488.0,1432.0,16580.0,-144.0,1175.0,-173.0,-0.43466570899860496,-0.3497147032060892,-0.8289660782338018,0.03975662108237614
-10336.527921915054,-144.0,1248.0,16192.0,-271.0,1034.0,-135.0,-0.3661047467955324,-0.3317783652083835,-0.8693969864220873,-0.006269828835340045
-10336.543532371521,-40.0,620.0,16260.0,-227.0,1009.0,-108.0,-0.29501044359909995,-0.3144760624109662,-0.9009248589612563,-0.049071813127260125
-10336.559115171432,-508.0,608.0,16184.0,-25.0,954.0,-117.0,-0.22044654333125163,-0.2994871801811932,-0.9253323720905586,-0.07396452934806114
-10336.57470202446,-204.0,896.0,16348.0,180.0,827.0,42.0,-0.14830047566865284,-0.30018227202334874,-0.9387392240619686,-0.08164705559225394
-10336.590284824371,-244.0,1264.0,16508.0,268.0,805.0,80.0,-0.07456129114548316,-0.30363044569005343,-0.9463557050337315,-0.08160910404413749
-10336.605869054794,124.0,1308.0,16524.0,286.0,870.0,-70.0,0.00436566755029218,-0.29257212255335674,-0.9528518583650739,-0.08034818020147767
-10336.621529817581,128.0,1688.0,16556.0,322.0,902.0,-200.0,0.08590072445665373,-0.2685086497047556,-0.9563911327757494,-0.07642101621589353
-10336.637165546417,188.0,1648.0,16292.0,407.0,912.0,-336.0,0.16864109489020532,-0.23034631764249333,-0.9561036849648751,-0.06607948743266084
-10336.652736186981,140.0,1568.0,16164.0,363.0,866.0,-432.0,0.24475908056426468,-0.18320345547101463,-0.950267876790058,-0.05933336941158115
-10336.66831111908,128.0,1524.0,16180.0,267.0,785.0,-432.0,0.31091451423506494,-0.1371362953973484,-0.938652967732259,-0.058791219498215204
-10336.683904647827,212.0,1492.0,16492.0,146.0,740.0,-491.0,0.3696874631435554,-0.08886429665531285,-0.9223331142165412,-0.06881818650659219
-10336.699481010437,180.0,1440.0,16684.0,15.0,655.0,-391.0,0.41932099343016566,-0.05284136708147299,-0.9022909525124223,-0.08513948207456702
-10336.715077400208,116.0,1420.0,16680.0,-83.0,640.0,-355.0,0.46581232776511455,-0.023108087516404103,-0.8780348991910417,-0.10742256464987608
-10336.730688095093,300.0,1456.0,16748.0,-79.0,587.0,-355.0,0.5064688195359879,0.0063874227238766455,-0.8525471204431379,-0.1288873271228903
-10336.746262311935,264.0,1284.0,16676.0,-46.0,663.0,-248.0,0.552065783294123,0.030215444468666416,-0.8209499956563773,-0.14265869221046976
-10336.761852741241,312.0,1468.0,16624.0,-52.0,640.0,-221.0,0.5943548720455186,0.0514295180013149,-0.7874261248867827,-0.15510444416486743
-10336.777435302734,248.0,1320.0,16396.0,28.0,578.0,-192.0,0.630554912833139,0.07380131352874125,-0.7558054132896543,-0.16034975916876165
-10336.793018817902,164.0,1420.0,16804.0,106.0,547.0,-304.0,0.6607840294307872,0.10718245806968162,-0.7240213409115867,-0.16634147118485415
-10336.808648824692,12.0,1460.0,16728.0,209.0,451.0,-416.0,0.6802989968617188,0.15182847629211332,-0.6959370407881064,-0.1726644836521048
-10336.824234485626,268.0,1304.0,16672.0,340.0,472.0,-276.0,0.6993015395699407,0.1955751375454101,-0.6682136581053044,-0.16192044173214126
-10336.839849472046,8.0,1608.0,16832.0,528.0,470.0,-541.0,0.7080218322602986,0.2651833121199783,-0.6357238006891953,-0.15568604707272893
-10336.855434656143,156.0,1332.0,16520.0,658.0,477.0,-633.0,0.7079051753951391,0.3460267664328603,-0.5980116652082021,-0.1466894264618584
-10336.871042251587,32.0,1548.0,16480.0,659.0,375.0,-903.0,0.6924596275227008,0.43633449523793993,-0.5529792531968785,-0.15596736213194493
-10336.886623859406,20.0,1476.0,16428.0,678.0,399.0,-988.0,0.6684995069800018,0.527185888495861,-0.4973599725439347,-0.16678281041348564
-10336.902193784714,-236.0,1352.0,16420.0,814.0,271.0,-1142.0,0.6214721266005422,0.6233212581691439,-0.43738618456525213,-0.18421816013761041
-10336.917858600616,-192.0,1376.0,16196.0,978.0,10.0,-1262.0,0.543197256603655,0.7177232202287509,-0.3801800162274247,-0.2127751743602854
-10336.933594703674,-192.0,1396.0,16168.0,1006.0,-199.0,-1321.0,0.44441046209058926,0.7970691852561531,-0.322093357681685,-0.25186489242619586
-10336.950180530548,-116.0,1472.0,16316.0,916.0,-319.0,-1291.0,0.3400386629773245,0.8534118803505397,-0.2621724837847974,-0.29551219755411046
-10336.965945482254,-44.0,1440.0,16272.0,841.0,-435.0,-1300.0,0.23168447840664924,0.8881625409037794,-0.19798166475767956,-0.34393729635001646
-10336.981652498245,-76.0,1360.0,16300.0,879.0,-407.0,-1239.0,0.11823560370201198,0.9066004078859207,-0.13526903533745,-0.3818354757185073
-10336.99745130539,-4.0,1092.0,16312.0,931.0,-494.0,-1112.0,0.001666326321776461,0.9047893448754468,-0.08265697234205763,-0.4177574531707283
-10337.013160943985,-60.0,1112.0,16312.0,946.0,-593.0,-947.0,-0.11095666756480196,0.882919812891882,-0.042102212894623105,-0.4542781368228654
-10337.02889084816,-36.0,1268.0,16312.0,952.0,-617.0,-893.0,-0.22027852328556227,0.8457792152911304,-0.005013558476516371,-0.48591126287837183
-10337.04470205307,60.0,1160.0,16280.0,944.0,-623.0,-775.0,-0.32085744339951194,0.7958029881787485,0.023969060022526783,-0.5130044728679668
-10337.060485124588,132.0,1384.0,16596.0,1006.0,-638.0,-731.0,-0.4190742646101625,0.7320216718184878,0.04721209479186897,-0.5350626606621707
-10337.07610154152,-40.0,1492.0,16424.0,768.0,-726.0,-713.0,-0.49545093222081543,0.6628877255663552,0.08293526147480039,-0.5551846354674235
-10337.091748714447,80.0,1548.0,16548.0,949.0,-771.0,-834.0,-0.5804325656247867,0.5735509676311706,0.11754779714159416,-0.5659680553518319
-10337.107349395752,196.0,1620.0,16396.0,854.0,-660.0,-948.0,-0.6581595026895063,0.484005579911906,0.15500610709410598,-0.555461766818538
-10337.12298488617,40.0,1648.0,16428.0,804.0,-541.0,-1008.0,-0.7283423123811795,0.39484012130484464,0.18822853354908872,-0.5274360376018797
-10337.138621330261,-72.0,1628.0,16336.0,725.0,-465.0,-1168.0,-0.7931920578550836,0.30551708499480373,0.22278811532758702,-0.47735848772246364
-10337.154228925705,-228.0,1576.0,16076.0,676.0,-407.0,-1162.0,-0.8454604209086155,0.2173417128925611,0.2517588665285695,-0.4178238021441623
-10337.169827699661,-404.0,1756.0,16180.0,582.0,-356.0,-1226.0,-0.8868361495091148,0.1333023331722186,0.2777974578633783,-0.34435549117058456
-10337.185444831848,-512.0,1612.0,15940.0,465.0,-348.0,-1208.0,-0.913960144251884,0.057040498818405796,0.302520489812565,-0.2643947606462513
-10337.201035499573,-584.0,1360.0,15856.0,264.0,-319.0,-1271.0,-0.9299589516574499,-0.004979999435442595,0.325741452142729,-0.1704231621398519
-10337.216696023941,-700.0,1152.0,15888.0,13.0,-420.0,-1026.0,-0.9290293781143125,-0.04128201847331485,0.3572715728396416,-0.08693234606285019
-10337.232329130173,-752.0,1024.0,15740.0,-154.0,-557.0,-1348.0,-0.9150790954052385,-0.0744448673397393,0.3952848630564393,0.028949748143139987
-10337.247959852219,-780.0,1032.0,16036.0,-469.0,-574.0,-1457.0,-0.885775034291097,-0.08492449548679754,0.42594312672690327,0.16359361688962065
-10337.263551950455,-808.0,1156.0,16056.0,-806.0,-645.0,-1724.0,-0.8305747875053624,-0.07631037203890707,0.44452619717539105,0.3266782966535901
-10337.279145002365,-1208.0,1368.0,16100.0,-988.0,-699.0,-2011.0,-0.7374639470545267,-0.06149525292252206,0.4442011477930277,0.505025346851136
-10337.294789075851,-1244.0,1592.0,15756.0,-1089.0,-926.0,-2156.0,-0.5973991777595736,-0.03333499452806021,0.43311566717729394,0.6741022321559
-10337.31042599678,-1268.0,1724.0,15692.0,-1172.0,-1270.0,-2237.0,-0.40895984561929344,0.0173933887412857,0.4113172994101615,0.8144122997014901
-10337.326063394547,-812.0,1280.0,15660.0,-1396.0,-1610.0,-2228.0,-0.18413946249667346,0.09815617471455282,0.35990513633578936,0.909354890323882
-10337.34167265892,-376.0,1236.0,15716.0,-1559.0,-1790.0,-2206.0,0.058247381505239997,0.1885094261990435,0.27289826167588316,0.9415933185596485
-10337.357347249985,-224.0,964.0,15820.0,-1593.0,-1876.0,-2160.0,0.29486541112396475,0.27208251373988906,0.16131988552302542,0.9016658968678566
-10337.372954368591,-200.0,1124.0,15908.0,-1504.0,-1897.0,-2209.0,0.5106950008017096,0.3377813171639572,0.04469030986393376,0.7893650449160956
-10337.388553380966,-84.0,1344.0,16036.0,-1436.0,-1794.0,-2130.0,0.6818109952581656,0.37504564690697306,-0.06889335337507951,0.6242821760565779
-10337.404151678085,-200.0,1504.0,15948.0,-1446.0,-1690.0,-2021.0,0.8020622680697719,0.3801503505453534,-0.17607599664396012,0.42565135090218426
-10337.419776678085,-416.0,1476.0,15624.0,-1461.0,-1544.0,-1921.0,0.8714470428581339,0.35367851242501636,-0.266389210084023,0.2110174165642532
-10337.435430526733,-392.0,1364.0,15744.0,-1610.0,-2047.0,-1666.0,0.8731204663891727,0.2968836821749926,-0.3863577856067383,-0.015760454677104737
-10337.451023578644,-300.0,1192.0,16228.0,-1978.0,-2128.0,-1517.0,0.81783087817416,0.1867708620597868,-0.4868165140949399,-0.24347275287961342
-10337.46663236618,-320.0,888.0,16372.0,-2226.0,-2213.0,-1290.0,0.7025974798017403,0.0341283884531997,-0.5525579355580008,-0.4470701984361192
-10337.482240438461,-316.0,472.0,16312.0,-2110.0,-2375.0,-931.0,0.5361586301041786,-0.1374375684089513,-0.5888483682266309,-0.5889842420570177
-10337.497840166092,-484.0,140.0,16016.0,-1893.0,-2558.0,-514.0,0.34232179682834185,-0.31871854095963387,-0.5942038488375107,-0.6543363547071691
-10337.513450860977,-404.0,-104.0,15984.0,-1665.0,-2889.0,-107.0,0.13450092992229962,-0.5068355220205885,-0.5648518835167043,-0.6371574398496701
-10337.529039621353,-412.0,-160.0,16012.0,-1785.0,-3296.0,410.0,-0.07994946706928846,-0.6946253772814861,-0.4617078695578871,-0.5458291959397251
-10337.544703960419,-172.0,-332.0,16300.0,-1234.0,-3591.0,734.0,-0.25065123656782434,-0.8400829656908436,-0.31580378008056653,-0.36290844692556073
-10337.560313463211,-140.0,-396.0,16492.0,-928.0,-4309.0,1222.0,-0.370391120461815,-0.9193731316936476,-0.09518827403789071,-0.09220984268798711
-10337.575934648514,236.0,-324.0,16684.0,-401.0,-5047.0,1643.0,-0.39117912900771046,-0.8712066087528232,0.18417842077224225,0.23249998541078898
-10337.59153008461,732.0,-200.0,16920.0,180.0,-5862.0,1793.0,-0.2818451511743505,-0.6431440713167689,0.462278577105198,0.5415048766531948
-10337.607139110565,1340.0,-148.0,17528.0,675.0,-6489.0,2069.0,-0.06862524532842096,-0.23131950302646972,0.6609616648094501,0.7105712778289883
-10337.62273144722,1876.0,-32.0,18252.0,796.0,-6955.0,2465.0,0.16433587116954718,0.28331541520351294,0.6728118040073993,0.6633629273205703
-10337.63833117485,2216.0,508.0,18648.0,643.0,-7064.0,2325.0,0.3591772902315317,0.7022080396941752,0.4617491630487465,0.4058118450644089
-10337.653971910477,2564.0,612.0,19192.0,348.0,-7019.0,1944.0,0.46563620916085396,0.8774326913394636,0.11372182499649006,0.019029960760932035
-10337.669557571411,3588.0,1204.0,20120.0,-194.0,-6605.0,1238.0,0.4692455406649464,0.7699698203576582,-0.21553860035284989,-0.3748309086273331
-10337.685175895691,5060.0,1220.0,20504.0,-786.0,-5920.0,627.0,0.38198389293540524,0.47136104935676293,-0.4202169103673726,-0.6747776040507744
-10337.700767755508,6760.0,888.0,20284.0,-1675.0,-4916.0,-244.0,0.23336704364507754,0.12272211864819677,-0.4328676380994038,-0.8620352153021928
-10337.716353654861,7700.0,36.0,18712.0,-1705.0,-4005.0,-1242.0,0.006443823801430536,-0.1549186921859092,-0.346607535890405,-0.9251064219916568
-10337.732048034668,7572.0,-1000.0,16680.0,-1157.0,-2066.0,-2149.0,-0.23613844490624428,-0.24795020737140763,-0.272732769832511,-0.8990974172809213
-10337.747655153275,6968.0,-1828.0,15908.0,-387.0,-392.0,-2315.0,-0.4263851000432782,-0.21109699884547506,-0.27819639586726386,-0.8344103120563537
-10337.763323307037,5692.0,-1856.0,15928.0,225.0,306.0,-2459.0,-0.5803802665379652,-0.1343085651890169,-0.34303820402767227,-0.7262539129723551
-10337.77890753746,4720.0,-884.0,16240.0,354.0,-166.0,-2361.0,-0.7154679270823152,-0.09011558469244568,-0.37638835811697086,-0.5816499209886342
-10337.794487714767,4484.0,332.0,16996.0,-168.0,-1084.0,-2403.0,-0.852093737153832,-0.0542940900161963,-0.3106785179522486,-0.41769279784971597
-10337.810063362122,5244.0,1316.0,17172.0,-1106.0,-1716.0,-2617.0,-0.9598387765507639,0.034895072495952056,-0.148754530545377,-0.23529544531770938
-10337.825650930405,6080.0,1452.0,17320.0,-2124.0,-1313.0,-3540.0,-0.975724054950946,0.2167281784949389,0.014894776673561571,0.02774186122440357
-10337.841270446777,6212.0,1028.0,17116.0,-2887.0,-668.0,-4516.0,-0.8225630631549528,0.41435250748554076,0.13603231967114543,0.36496193593095905
-10337.856889009476,6060.0,388.0,16836.0,-3119.0,-54.0,-5208.0,-0.4800629891714479,0.5106914047742173,0.20228872972621306,0.6839686289174862
-10337.872519016266,5616.0,-272.0,16396.0,-3162.0,25.0,-5486.0,-0.010573797478544813,0.4766947226329901,0.2248967071689833,0.8497480846258424
-10337.888090848923,5620.0,-1004.0,16184.0,-3135.0,429.0,-5628.0,0.46072877933452017,0.2937072565222454,0.19690833443286626,0.8140590563282086
-10337.903710365295,5584.0,-1380.0,15720.0,-3058.0,558.0,-5536.0,0.807205052390984,0.03133993218012777,0.1257348353053595,0.5758720024763732
-10337.919380664825,5692.0,-1632.0,15624.0,-2853.0,976.0,-5413.0,0.9468000833667607,-0.2445900643730651,0.05769847440238396,0.20103777903248013
-10337.935063362122,5820.0,-1284.0,15360.0,-2614.0,1348.0,-5445.0,0.8621204907465415,-0.4500330284842581,0.005960412285745444,-0.2327724343508343
-10337.95067024231,5788.0,-1028.0,15000.0,-2373.0,1873.0,-5324.0,0.5819588453093074,-0.5231150276496012,-0.012450563268856804,-0.6225106856012215
-10337.966275453568,5528.0,-1044.0,14464.0,-2211.0,2366.0,-5016.0,0.1871737546653634,-0.4444834912949989,-0.0010694006739986844,-0.8760132806715188
-10337.981846570969,5188.0,-832.0,14208.0,-2060.0,2611.0,-4739.0,-0.2274443225851689,-0.24795842888799302,0.013598784716728173,-0.9415948017705916
-10337.99743270874,5120.0,-1004.0,13884.0,-1945.0,2654.0,-4463.0,-0.5755442606744472,0.003332177184537241,0.02191010300318987,-0.8174702734572704
-10338.013011455536,5120.0,-1256.0,13944.0,-1860.0,2602.0,-4343.0,-0.8051175500303795,0.24776726747426756,0.022983044144369115,-0.5383947357499623
-10338.0286090374,5036.0,-1424.0,14084.0,-1805.0,2470.0,-3729.0,-0.8722449488757481,0.44511866971680575,0.013835134940329789,-0.20215515840924633
-10338.044188022614,4972.0,-1700.0,14472.0,-1637.0,2244.0,-3572.0,-0.8133648509238042,0.5625585230930861,0.009990968748637195,0.147870578278734
-10338.059895515442,4964.0,-1928.0,14472.0,-1530.0,2127.0,-2897.0,-0.6651989784891654,0.6067470612692236,-0.01746906877435271,0.4348139306580331
-10338.075482845306,4976.0,-2164.0,14860.0,-813.0,1914.0,-2425.0,-0.5078814371223245,0.5633566865900467,-0.029848746113900444,0.6509951934202544
-10338.091101884842,4928.0,-2308.0,15124.0,-346.0,1656.0,-1986.0,-0.3644220395142305,0.47736704199673413,-0.02460302107442381,0.7991945793644926
-10338.106684207916,4992.0,-2368.0,15520.0,42.0,1552.0,-1628.0,-0.2446368910634788,0.3640926512585513,-0.003131252594843122,0.8986542873026878
-10338.122278213501,4908.0,-2292.0,15756.0,292.0,1340.0,-1239.0,-0.1544026431885683,0.24960895927682117,0.030114323227405405,0.9554832906763369
-10338.137874364853,4616.0,-1888.0,15792.0,303.0,1214.0,-897.0,-0.08863519466862305,0.14041803953079546,0.0578875447732806,0.9844163796892577
-10338.15351486206,4808.0,-1708.0,15584.0,43.0,1154.0,-257.0,-0.07257717887064875,0.03948422477992716,0.05518956420808937,0.9950515871567803
-10338.169130325317,4344.0,-1612.0,15864.0,-165.0,1023.0,-192.0,-0.06003327723322726,-0.0487848404199167,0.0346708875593869,0.9964005090954571
-10338.184716463089,4108.0,-1624.0,15372.0,-227.0,959.0,56.0,-0.06852391679170047,-0.1300369738581435,0.009980886907468072,0.9890880851339181
-10338.20030093193,3920.0,-1712.0,15744.0,-29.0,769.0,400.0,-0.10375395158574142,-0.1950335061527577,0.007329838856629409,0.9752657701726445
-10338.215911626816,3852.0,-1612.0,16176.0,371.0,1206.0,491.0,-0.13904088946827825,-0.29836917927481854,0.03605366923454733,0.9435802015989244
-10338.231523990631,3676.0,-1752.0,16696.0,766.0,1061.0,584.0,-0.16922226428249867,-0.38992323863368983,0.10064497926252802,0.899552267182827
-10338.247099161148,3328.0,-1932.0,16896.0,967.0,555.0,485.0,-0.17828572835318618,-0.4408430267893224,0.18379259621159502,0.860285944540886
-10338.26267337799,3424.0,-1512.0,16652.0,1021.0,162.0,407.0,-0.1713823674644382,-0.46003715033894593,0.2722635231758379,0.8275666005695169
-10338.278265714645,3744.0,-1096.0,16416.0,948.0,373.0,460.0,-0.17461333572270693,-0.4877715347945706,0.3519018428977708,0.7795859194451186
-10338.293851613998,3740.0,-1008.0,15892.0,977.0,752.0,427.0,-0.18402150547416063,-0.537135822306786,0.4223177243804959,0.7065896500741542
-10338.309445142746,3996.0,-1112.0,15728.0,1019.0,1009.0,624.0,-0.2100226732315496,-0.58720692745562,0.49359760822223364,0.6061682128205788
-10338.325035095215,4076.0,-1028.0,15544.0,1039.0,771.0,660.0,-0.2231696014458369,-0.6136437998956877,0.5637294600634278,0.5058119331299765
-10338.340702056885,4180.0,-1596.0,15744.0,1134.0,952.0,781.0,-0.24124306842625143,-0.6325809452914061,0.6303769432000882,0.3798263275132871
-10338.356293916702,3920.0,-1816.0,15976.0,1220.0,952.0,998.0,-0.2561127175084223,-0.6268490782621684,0.6969332475182684,0.23611555966509468
-10338.37191081047,3732.0,-1888.0,16264.0,1306.0,692.0,1042.0,-0.2452385459857442,-0.5994775903440525,0.7560312381744015,0.09434744905172385
-10338.387504577637,3880.0,-1776.0,16508.0,1318.0,461.0,1050.0,-0.21292582797410628,-0.5557551678337044,0.8026790329039452,-0.038796331579926624
-10338.403088331223,3936.0,-1132.0,16760.0,1086.0,496.0,813.0,-0.19077571149320605,-0.5132211306688379,0.8227010360499689,-0.1528780697862474
-10338.41866183281,3488.0,-740.0,16900.0,630.0,1111.0,457.0,-0.2346431294508711,-0.4727519456221578,0.8105855094640235,-0.25377023379213626
-10338.434237480164,3992.0,-712.0,16132.0,335.0,1283.0,284.0,-0.30324334110179574,-0.42809026971411457,0.7831058904014339,-0.3339571252003679
-10338.44980764389,3720.0,-880.0,16208.0,193.0,1817.0,321.0,-0.4056530795360745,-0.35365239232096857,0.7317921770634338,-0.41815759476220815
-10338.465381383896,3324.0,-1200.0,16500.0,203.0,2251.0,386.0,-0.5188592590098999,-0.24903936307367328,0.6437404236720863,-0.504343862766307
-10338.480952501297,3012.0,-984.0,17232.0,381.0,2536.0,476.0,-0.6164124514262257,-0.12466496769092916,0.5092922151190254,-0.5874655523317832
-10338.496567487717,3452.0,-204.0,19104.0,-41.0,2201.0,439.0,-0.6793416863844454,0.009761690933285012,0.39013347075745114,-0.6214462627815905
-10338.512152433395,4156.0,688.0,18528.0,-1460.0,1760.0,435.0,-0.7002227424600536,0.20240713307287783,0.3570765109112207,-0.5841368236795285
-10338.527787685394,4080.0,196.0,15764.0,-1722.0,2103.0,297.0,-0.7006436669512022,0.4123927731585359,0.3024592816916013,-0.4975429986708546
-10338.543405056,2668.0,-1244.0,13708.0,-1101.0,2918.0,-120.0,-0.7172404266744195,0.5819201958711027,0.16987525460679015,-0.3436240006948183
-10338.55898141861,1176.0,-2184.0,12884.0,-183.0,3362.0,-272.0,-0.7347972869848798,0.6618742023871234,-0.020460134314512737,-0.14689067416926607
-10338.574627876282,704.0,-2056.0,12792.0,549.0,2488.0,13.0,-0.7438436594731399,0.6427089662307662,-0.18333892948123492,-0.0029380137613808036
-10338.590215206146,744.0,-1456.0,13184.0,1202.0,514.0,1311.0,-0.7925342560938138,0.5367264206488092,-0.2868039792349569,-0.039467452290934756
-10338.605803728104,1748.0,-1072.0,13732.0,1580.0,-889.0,2074.0,-0.8573236235576914,0.36199370114344026,-0.31873620216694737,-0.17989996734456223
-10338.621376514435,1260.0,-752.0,14780.0,1623.0,-1455.0,2392.0,-0.8772719409612219,0.14531786642721564,-0.2990645938613575,-0.3461748517696132
-10338.636965751648,1104.0,-280.0,15660.0,1325.0,-1072.0,2331.0,-0.8258651837861316,-0.04797770591492504,-0.27765976037233636,-0.48841569939449797
-10338.65254855156,1300.0,300.0,17144.0,771.0,-366.0,1904.0,-0.7382621004306308,-0.16260624665303156,-0.2714352055890141,-0.5956938884897313
-10338.668113231659,1356.0,980.0,18448.0,54.0,64.0,909.0,-0.6866003249773664,-0.1836123812330981,-0.26438599012309993,-0.6518945738580085
-10338.683737754822,2164.0,1864.0,19480.0,-610.0,124.0,-666.0,-0.7291464819486687,-0.12414177333134821,-0.24675722226522603,-0.6261350503174037
-10338.699318647385,3340.0,2116.0,19260.0,-850.0,110.0,-1550.0,-0.8110908771678306,-0.03027122606096153,-0.22119289597624944,-0.5406375353390896
-10338.7149143219,3196.0,1748.0,17400.0,-885.0,204.0,-2519.0,-0.9040359003838225,0.08818819204015767,-0.1949902779195731,-0.37002800585732315
-10338.730493545532,2480.0,-268.0,15436.0,-337.0,309.0,-2673.0,-0.9561594038360914,0.16556452603609303,-0.18259720628680484,-0.15813235731661018
-10338.746080875397,2280.0,-1708.0,14648.0,-271.0,-191.0,-2215.0,-0.9676056655894671,0.21662758961088077,-0.12821824666980883,0.019283271492772022
-10338.761664628983,2244.0,-2236.0,15400.0,251.0,-581.0,-1467.0,-0.9670725369505028,0.2106163869561746,-0.05026937515672833,0.13373270259363504
-10338.77733039856,3796.0,-2664.0,15172.0,81.0,-710.0,-401.0,-0.9645582663563262,0.21310806476905794,0.018180250009708656,0.15453731602318502
-10338.792919635773,3388.0,-2672.0,15752.0,-42.0,-992.0,278.0,-0.9621050493317521,0.2292788654933268,0.09572785972850544,0.11234434903563008
-10338.808509349823,4788.0,-2872.0,16524.0,172.0,-988.0,992.0,-0.95982897698899,0.2307818199971896,0.15939495140983614,0.007831727530343552
-10338.824085950851,4536.0,-1736.0,16832.0,387.0,-236.0,1560.0,-0.9559213761912912,0.21776941094219146,0.14649824570225603,-0.1316399263316422
-10338.839742898941,3924.0,-796.0,16600.0,536.0,-480.0,1712.0,-0.9282590626795418,0.18670341116069125,0.14590726889625621,-0.28668452643541076
-10338.855328798294,3444.0,-216.0,16624.0,714.0,112.0,1780.0,-0.8844980572054482,0.15191780729438717,0.08866432546991924,-0.43211434136767257
-10338.870887517929,3076.0,188.0,16392.0,694.0,323.0,1458.0,-0.8327070660289594,0.12026204673124473,0.018032460901813638,-0.5401951616363095
-10338.886464118958,2520.0,248.0,16300.0,454.0,280.0,1378.0,-0.7666384853001392,0.10148804544015395,-0.03778973674188353,-0.6328803562178438
-10338.902052164078,2164.0,56.0,15880.0,160.0,-116.0,1047.0,-0.7075849361280988,0.08030284654209252,-0.047765383939269074,-0.7004237853606671
-10338.917694807053,1936.0,-248.0,16008.0,-44.0,-609.0,1216.0,-0.6310650797059513,0.0401919506654589,-0.015675142136946485,-0.7745293811059805
-10338.933421611786,1872.0,-168.0,16072.0,-56.0,-1053.0,1171.0,-0.5479963464406724,-0.029492601191294415,0.04178595417076109,-0.8349156393293187
-10338.949019432068,1976.0,-148.0,16012.0,-245.0,-1300.0,1198.0,-0.45116363585597924,-0.10715288789838057,0.12332756703417717,-0.8773596431941015
-10338.964695215225,1792.0,-496.0,16096.0,132.0,-1517.0,1182.0,-0.3383761171221778,-0.21261873097349607,0.18122115699683053,-0.8985843148293144
-10338.980304479599,2132.0,-364.0,16268.0,176.0,-1638.0,1277.0,-0.20571080152892074,-0.3206343641512046,0.2354459534202064,-0.8941151344640865
-10338.995914936066,2384.0,-552.0,16212.0,166.0,-1720.0,1309.0,-0.06247957183173761,-0.42327002160097094,0.28481901544270277,-0.8577977152918316
-10339.011528015137,2716.0,-728.0,16412.0,133.0,-1628.0,1441.0,0.08919433167073036,-0.5009561297425117,0.3309455380256465,-0.794708989588095
-10339.027121782303,3012.0,-972.0,16432.0,95.0,-1458.0,1658.0,0.2459571329929861,-0.5433341890357358,0.3784415320544647,-0.7078665513859367
-10339.042768001556,3224.0,-980.0,16488.0,14.0,-1209.0,1863.0,0.3943614949069193,-0.5459415999763743,0.4318568486494136,-0.5999386993890409
-10339.05834698677,3244.0,-916.0,16388.0,-24.0,-1015.0,1997.0,0.5261458239343325,-0.5148179507929194,0.4840923081206706,-0.4730620326302287
-10339.073997974396,3148.0,-812.0,16496.0,21.0,-803.0,2005.0,0.6327369539140484,-0.45422296528254635,0.5270771968206689,-0.3398750852198024
-10339.089570999146,3136.0,-624.0,16668.0,88.0,-538.0,1879.0,0.7065779050891142,-0.3734114596553996,0.5610372130593865,-0.2157516892180894
-10339.105173826218,3064.0,-332.0,16780.0,132.0,-268.0,1577.0,0.7465074480849614,-0.29020262416464554,0.5875825763687246,-0.11513376059837523
-10339.120728969574,2904.0,-128.0,16700.0,59.0,-112.0,1141.0,0.7614997517187942,-0.22777825769876123,0.6054511970706385,-0.04079266377257344
-10339.136349201202,2648.0,56.0,16408.0,-256.0,-25.0,725.0,0.7587077722111012,-0.206067787032855,0.617609938495436,0.02136696996565689
-10339.151975393295,2536.0,12.0,16460.0,-23.0,-84.0,267.0,0.7621980476269434,-0.19294862621197637,0.6165053274366175,0.041786900804627054
-10339.167560815811,2348.0,-88.0,16572.0,-75.0,-344.0,-191.0,0.7797678928764207,-0.20680337716838462,0.5896458412888957,0.038886736575959896
-10339.183153152466,2544.0,-444.0,16436.0,-78.0,-653.0,-527.0,0.8116631753487724,-0.23634560140384683,0.5338459602219324,0.01876531999527314
-10339.198776245117,2448.0,-664.0,16236.0,-123.0,-886.0,-720.0,0.8474410709901019,-0.2757285419836461,0.4535968610260508,-0.008203048338008568
-10339.214370727539,2480.0,-744.0,16344.0,-30.0,-1111.0,-734.0,0.8843164101059523,-0.30567075421835127,0.3512402294267449,-0.034353719815376146
-10339.229996919632,2604.0,-664.0,16128.0,31.0,-1203.0,-752.0,0.912879045531225,-0.32732706167819015,0.2362439922479332,-0.060808050864012524
-10339.24562907219,2768.0,-504.0,16072.0,20.0,-1286.0,-694.0,0.9288360426470871,-0.3439231658210658,0.11275656760024637,-0.07916071218935361
-10339.261217832565,2972.0,-392.0,16272.0,4.0,-1118.0,-559.0,0.9306520972460307,-0.35451165759649755,0.005145094886666042,-0.09045267557322774
-10339.27679181099,2828.0,-444.0,16444.0,26.0,-868.0,-505.0,0.924396768218563,-0.3578650221405407,-0.080951380546134,-0.10425984281161002
-10339.29236483574,3160.0,-624.0,16576.0,63.0,-611.0,-329.0,0.9174472593210099,-0.35511582964183336,-0.14085046464983245,-0.11110544770660995
-10339.30798125267,3120.0,-664.0,16640.0,31.0,-353.0,-185.0,0.9118134059535691,-0.3533308464543108,-0.17501202226036228,-0.11456185111794755
-10339.323568344116,2816.0,-556.0,16464.0,28.0,-220.0,-44.0,0.9087960088496458,-0.35233640508879627,-0.19405859219543928,-0.11086088012992726
-10339.339158535004,2900.0,-788.0,16536.0,26.0,-48.0,-10.0,0.9087721581238706,-0.350346050699381,-0.19834873545623447,-0.10976606270219465
-10339.35478591919,2816.0,-696.0,16476.0,51.0,92.0,-21.0,0.9117786845594367,-0.3448223830143854,-0.19209554012193564,-0.11338632201727633
-10339.370365858078,2752.0,-596.0,16472.0,103.0,181.0,-80.0,0.9170400961436912,-0.33320693248046496,-0.18100666722207107,-0.12347950693490352
-10339.385988235474,2592.0,-424.0,16568.0,135.0,254.0,-175.0,0.9227828042236222,-0.3165328618692275,-0.16707176161240309,-0.14270903986010477
-10339.401568889618,2568.0,-268.0,16496.0,122.0,267.0,-383.0,0.9245398239629596,-0.29729286270197736,-0.15745570039932272,-0.17902728871532841
-10339.417154550552,2592.0,-128.0,16588.0,52.0,222.0,-639.0,0.9174269744378427,-0.2801074408664536,-0.15658909945384789,-0.235260328311649
-10339.432751178741,2616.0,-64.0,16200.0,-20.0,202.0,-958.0,0.8968316405950004,-0.26325560361316463,-0.16275504141915662,-0.3160700746457928
-10339.44835138321,2716.0,-192.0,16152.0,-84.0,124.0,-1238.0,0.8575166125008133,-0.2471136816318931,-0.17803288458855815,-0.4146135304600398
-10339.463968038559,2672.0,-276.0,16156.0,-127.0,114.0,-1447.0,0.7978273510369462,-0.227935686946574,-0.19442300740910468,-0.5231792567978607
-10339.479544878006,2700.0,-508.0,16084.0,-159.0,70.0,-1660.0,0.7125959660603342,-0.2052639302140919,-0.2128991136532355,-0.636197827340891
-10339.495121955872,2832.0,-564.0,15872.0,-187.0,-6.0,-1737.0,0.6057470713345442,-0.18266580274515956,-0.2311299277447665,-0.7391093603640724
-10339.510680675507,2904.0,-728.0,16248.0,-195.0,-119.0,-1749.0,0.4817997958943537,-0.1633208634028674,-0.24954732027849616,-0.8239668604958108
-10339.526267290115,3048.0,-876.0,16288.0,-174.0,-184.0,-1684.0,0.3504185306114443,-0.1455151527374852,-0.2656010854594612,-0.8862777539409746
-10339.54185962677,3024.0,-1044.0,16260.0,-137.0,-218.0,-1571.0,0.22004275872394324,-0.12886630165397403,-0.27868243877471505,-0.9259107726718383
-10339.557443857193,3120.0,-1176.0,16164.0,-112.0,-199.0,-1446.0,0.09634967395312011,-0.11100400322754966,-0.28711696858058394,-0.9465509484172955
-10339.573008775711,3064.0,-1064.0,16428.0,-83.0,-148.0,-1247.0,-0.011082945643512471,-0.09211637311648535,-0.29156639325801803,-0.9520403250084726
-10339.588658332825,3008.0,-1020.0,16456.0,-76.0,-103.0,-1047.0,-0.10086412788885135,-0.07364903325565464,-0.29206763935038754,-0.9482081742159899
-10339.604254245758,2944.0,-896.0,16316.0,-44.0,-46.0,-943.0,-0.1797366676018201,-0.052864972515245086,-0.29282094633075967,-0.9376331470198319
-10339.619917869568,2844.0,-784.0,16324.0,-45.0,-31.0,-908.0,-0.25423857726207955,-0.031417339045574755,-0.2916565120960623,-0.9215813450754134
-10339.635551691055,2840.0,-756.0,16232.0,-60.0,-32.0,-852.0,-0.3228540200842087,-0.010981682330394328,-0.2873912974533657,-0.9016933661266066
-10339.651149988174,2788.0,-736.0,16372.0,-74.0,-55.0,-793.0,-0.38578808840666,0.006598151571631224,-0.279832718458509,-0.8791004862468759
-10339.666765213013,2776.0,-708.0,16620.0,-84.0,-41.0,-805.0,-0.44740609771819073,0.025814567799933723,-0.27060072178983435,-0.8520191554071447
-10339.68237066269,2688.0,-812.0,16400.0,-76.0,41.0,-768.0,-0.5022617369053878,0.0497842052775058,-0.2639537243218969,-0.8219386302895554
-10339.697989463806,2808.0,-812.0,16500.0,-54.0,114.0,-715.0,-0.5496237561456078,0.07655892989750683,-0.2611853378913861,-0.7898320556953261
-10339.71357345581,2748.0,-860.0,16592.0,-2.0,149.0,-706.0,-0.5937475373185065,0.10271547931855425,-0.26270279919405565,-0.7535918202396945
-10339.729146718979,2776.0,-872.0,16408.0,98.0,166.0,-553.0,-0.6264242412212901,0.12096461676739707,-0.27219317025270506,-0.7203270851276034
-10339.744725942612,3068.0,-936.0,16476.0,111.0,211.0,-496.0,-0.6530704890419946,0.13966845411108547,-0.2849069113094437,-0.6876188705647791
-10339.760298490524,2700.0,-924.0,16548.0,11.0,351.0,-562.0,-0.677138397081098,0.17367926203732795,-0.29799709813758407,-0.6500129495926905
-10339.775896549225,2700.0,-908.0,16608.0,-103.0,488.0,-651.0,-0.6981062517446525,0.22369632475008455,-0.31012095459892264,-0.6053367732816086
-10339.791480779648,2724.0,-1056.0,16612.0,-110.0,627.0,-633.0,-0.710339543963376,0.27968449167200515,-0.3289554383578622,-0.5558620665010898
-10339.807121276855,2648.0,-1028.0,16276.0,-77.0,573.0,-527.0,-0.7160015223556917,0.3265119139240172,-0.34690651193765015,-0.5102819436598363
-10339.82270526886,2648.0,-1060.0,16168.0,-74.0,400.0,-380.0,-0.7179543032045975,0.35991979671459884,-0.3572086087644745,-0.47686619534988156
-10339.83830165863,2580.0,-1016.0,16236.0,-98.0,249.0,-494.0,-0.7268971649592725,0.3912458265054152,-0.3526529070910537,-0.44066216304159295
-10339.853929519653,2620.0,-964.0,15924.0,-112.0,123.0,-261.0,-0.7291573151155211,0.41085441984596993,-0.3469814460774533,-0.42324004014808864
-10339.86952161789,2704.0,-944.0,16136.0,-64.0,78.0,-291.0,-0.7350834551311242,0.42635510380751906,-0.3389013006343917,-0.4037567929807318
-10339.885140419006,2740.0,-872.0,16068.0,-93.0,-42.0,-277.0,-0.7424794827607392,0.438774936709051,-0.322395563289107,-0.3902074747705544
-10339.900731086731,2588.0,-916.0,16048.0,-70.0,-180.0,-301.0,-0.7548468407606959,0.44531331322449863,-0.2965577656861322,-0.379415065159339
-10339.916355371475,2916.0,-924.0,16060.0,-148.0,-282.0,-369.0,-0.7680182947476386,0.45473859101476505,-0.25838388219316144,-0.3695923189104799
-10339.932084083557,3084.0,-964.0,16236.0,-218.0,-264.0,-409.0,-0.7777720266324991,0.4694152782327339,-0.21707204512061173,-0.3572109997981801
-10339.947763681412,3172.0,-928.0,16148.0,-154.0,-237.0,-272.0,-0.7840760593717689,0.47720853999366925,-0.18482394681037498,-0.3511934668563531
-10339.963359117508,3164.0,-920.0,16212.0,-152.0,-231.0,-509.0,-0.7961597683282258,0.48796421367686577,-0.14287357144349733,-0.3280361139405902
-10339.978970050812,3176.0,-988.0,16192.0,-151.0,-276.0,-568.0,-0.8082402996293816,0.49667890435626305,-0.0949369596223327,-0.3017360729514075
-10339.994651794434,3136.0,-1036.0,16256.0,-171.0,-249.0,-614.0,-0.8177096912178731,0.5061996551317708,-0.04609128161934851,-0.2701635870940654
-10340.010263442993,3116.0,-1000.0,16224.0,-92.0,-242.0,-591.0,-0.8273503193568891,0.5084541917839995,-0.00047728859064623724,-0.23867458204202388
-10340.02583861351,3080.0,-1000.0,16324.0,-30.0,-266.0,-563.0,-0.8366279674748032,0.5041739900737955,0.04432037832328729,-0.2095183424842049
-10340.041443109512,3320.0,-964.0,16452.0,31.0,-168.0,-550.0,-0.8464389834923567,0.4958967137371254,0.0801532295108589,-0.1766435855844322
-10340.057002782822,2840.0,-860.0,16468.0,14.0,-90.0,-556.0,-0.854063733424297,0.48880395789795317,0.11052817171587113,-0.13938921496943066
-10340.072631835938,3104.0,-900.0,16484.0,54.0,-230.0,-475.0,-0.859114918132552,0.4766946725285009,0.14712523574181688,-0.1141836749844676
-10340.088241577148,2944.0,-968.0,16384.0,71.0,89.0,-414.0,-0.8668374133747963,0.46642121539145737,0.15684050782710904,-0.08028202607671776
-10340.103851795197,2924.0,-980.0,16312.0,50.0,80.0,-342.0,-0.8720542722032846,0.45810282531739327,0.16425690136858348,-0.05179592764892671
-10340.119440793991,2852.0,-952.0,16632.0,37.0,94.0,-213.0,-0.875766377575876,0.4523666794239737,0.16538492719735265,-0.03233365290965826
-10340.135079145432,2812.0,-964.0,16348.0,12.0,107.0,-135.0,-0.8781733252705579,0.44955475975376147,0.16245042119555766,-0.0179440636249066
-10340.150691509247,2620.0,-1008.0,16360.0,53.0,106.0,-65.0,-0.8819028485988352,0.4445077414495042,0.15674590665679233,-0.009536989622564189
-10340.166273832321,2736.0,-776.0,16408.0,103.0,111.0,15.0,-0.8874317607524213,0.4366366946818746,0.14748835935242097,-0.007775006152781132
-10340.18187046051,2712.0,-1048.0,16508.0,111.0,107.0,83.0,-0.8929830687711573,0.42892345947013627,0.13591480556488122,-0.011535615825669629
-10340.197493314743,2740.0,-1028.0,16572.0,31.0,190.0,94.0,-0.8962504881705173,0.42752828108228647,0.11750878393283727,-0.012096157553564734
-10340.213119268417,2648.0,-1016.0,16632.0,15.0,240.0,44.0,-0.8991242929083565,0.4267486434359028,0.09703604383022947,-0.006716206179273269
-10340.22871184349,2680.0,-944.0,16308.0,68.0,144.0,91.0,-0.9028099680031525,0.4219961211523824,0.08228946522999767,-0.009048719171881351
-10340.244333744049,2624.0,-936.0,16140.0,85.0,138.0,80.0,-0.9068570382064302,0.41570971000658713,0.06839470351868297,-0.010858811734808797
-10340.259954929352,2720.0,-836.0,16116.0,89.0,43.0,32.0,-0.9103750470947036,0.4086566321957421,0.0637552313091724,-0.012341031985372692
-10340.275536298752,2612.0,-796.0,16300.0,64.0,49.0,-55.0,-0.9130557728987444,0.4030772042962717,0.06176494890474673,-0.006558508959513473
-10340.291111946106,2704.0,-840.0,16212.0,107.0,60.0,-50.0,-0.9172083634431721,0.39405950289853625,0.05869318992513659,-0.0010176746376668077
-10340.306683540344,3044.0,-972.0,16304.0,110.0,92.0,-22.0,-0.9214868127184872,0.3848853709902662,0.05209558932947032,0.0033696818876623393
-10340.322265625,2796.0,-964.0,16320.0,101.0,199.0,-125.0,-0.9256115484115025,0.3758052699960072,0.04033358346904494,0.01966882139412763
-10340.33785867691,2824.0,-928.0,16400.0,73.0,204.0,-130.0,-0.9283681246811082,0.36877123408841583,0.028268766016109278,0.036623474069452384
-10340.35349726677,2876.0,-860.0,16428.0,74.0,279.0,-176.0,-0.930561669202921,0.3610513225837481,0.011601559364567809,0.05968522506542311
-10340.369075536728,2828.0,-876.0,16316.0,133.0,303.0,-211.0,-0.9335007162080914,0.34801088999332336,-0.005606863695737155,0.08621714658078589
-10340.384706258774,2812.0,-912.0,16280.0,192.0,240.0,-199.0,-0.9373224829050928,0.33024648590728584,-0.017591316782438388,0.10979238206898038
-10340.40029335022,2732.0,-1008.0,16156.0,201.0,234.0,-221.0,-0.9402026638399298,0.3114825794923001,-0.02833783305858436,0.1348870668324678
-10340.415905475616,2780.0,-1008.0,16248.0,205.0,183.0,-207.0,-0.9425357585831692,0.29263849834581546,-0.03519627044207309,0.15732220321659815
-10340.43149137497,2740.0,-940.0,16244.0,234.0,120.0,-100.0,-0.9465547508006179,0.27171752642687713,-0.03917420102430505,0.16931943640157515
-10340.447154283524,2676.0,-964.0,16212.0,213.0,77.0,-100.0,-0.9497081157586754,0.2530156166830434,-0.03987894718575851,0.18013123590305158
-10340.462786436081,2764.0,-856.0,16260.0,258.0,-248.0,-53.0,-0.9550161623055028,0.2353459019221079,-0.01394708901354574,0.17989417692573476
-10340.478365659714,2772.0,-864.0,16196.0,282.0,20.0,3.0,-0.9605916073166444,0.21119397031600198,-0.011116419934925242,0.18038097478065665
-10340.493971347809,2804.0,-936.0,16428.0,286.0,19.0,43.0,-0.9662585533997545,0.18655021897443916,-0.008853848488032548,0.17738385819840927
-10340.509536027908,2812.0,-812.0,16420.0,6.0,-236.0,46.0,-0.9670811828398824,0.18935728118272985,0.010549312197195149,0.16966590073513435
-10340.52513551712,3056.0,-852.0,16436.0,269.0,55.0,35.0,-0.9718510281318172,0.16554846165907963,0.009450714457649466,0.16736179360201026
-10340.54076719284,2828.0,-828.0,16140.0,316.0,81.0,109.0,-0.977666870169116,0.1373187941806213,0.005775309371410679,0.15898957682870127
-10340.556345939636,2768.0,-896.0,16200.0,335.0,19.0,108.0,-0.9827464041620018,0.10822050606383184,0.007698900440080211,0.14979504032496355
-10340.571974277496,2768.0,-920.0,16288.0,286.0,30.0,113.0,-0.986599012682476,0.08312188445725685,0.008030913662787806,0.1401736242093317
-10340.587563991547,2820.0,-784.0,16468.0,266.0,-12.0,98.0,-0.9894200204257231,0.060237171664511424,0.011878087503135308,0.13144739391821178
-10340.603135585785,2596.0,-896.0,16340.0,240.0,-30.0,154.0,-0.992103527513641,0.039893786185609625,0.016716299019016268,0.11772698019517053
-10340.618722438812,2780.0,-776.0,16204.0,245.0,34.0,156.0,-0.9942789948643901,0.018523776362119264,0.01606950435562195,0.10396115192950138
-10340.634314775467,2752.0,-784.0,15992.0,247.0,-43.0,159.0,-0.9957190399485221,-0.0022227152042974146,0.022098761663176567,0.08972345152783623
-10340.649938821793,2768.0,-896.0,16160.0,183.0,-80.0,216.0,-0.9968867301300983,-0.01690192624921643,0.03079507539276172,0.07058920251101082
-10340.665526628494,2764.0,-872.0,16300.0,159.0,-126.0,507.0,-0.9983002571246999,-0.028335025253481843,0.04367204406896026,0.02620067814925924
-10340.681147098541,2788.0,-884.0,16180.0,168.0,-134.0,272.0,-0.9975400640251888,-0.04134100609519441,0.05656854632859212,0.002177486149079454
-10340.696725130081,2836.0,-912.0,16308.0,142.0,-144.0,0.0,-0.9961689872748767,-0.05336476111199258,0.06925068683970928,0.0019731790174663285
-10340.712295770645,2844.0,-964.0,16244.0,226.0,-131.0,313.0,-0.9937664112795419,-0.07073278251081391,0.08215265478431509,-0.02600258838553423
-10340.727890968323,3056.0,-880.0,16272.0,210.0,-124.0,330.0,-0.9902202300877753,-0.08648241893717061,0.09444722448177267,-0.0553571036758523
-10340.743496656418,2700.0,-860.0,16232.0,237.0,-124.0,299.0,-0.9853958163548033,-0.10471453329985907,0.10618001287759932,-0.0821934090517977
-10340.75907421112,2800.0,-848.0,16300.0,179.0,-174.0,283.0,-0.9796266492278983,-0.11835674414003082,0.12233267117690556,-0.10657404375275777
-10340.774654626846,2764.0,-768.0,16292.0,177.0,-190.0,249.0,-0.9730223139668902,-0.13223283861205656,0.1393536390312752,-0.12775999453607362
-10340.790246009827,2680.0,-824.0,16312.0,120.0,-239.0,249.0,-0.9655178591641743,-0.14170224858129218,0.1609974905611731,-0.1475653903021988
-10340.80583524704,2672.0,-908.0,16244.0,128.0,-287.0,217.0,-0.9566379286484264,-0.15278223055883283,0.1859857481518036,-0.16404500901011926
-10340.82141661644,2688.0,-904.0,16312.0,83.0,-347.0,227.0,-0.9460733800079402,-0.1606382641146835,0.2165009703292404,-0.1796325070500049
-10340.837004184723,2672.0,-916.0,16244.0,50.0,-414.0,214.0,-0.9334906712082378,-0.16685130322682867,0.2525247951905663,-0.1923201424517605
-10340.852653980255,2724.0,-952.0,16232.0,64.0,-414.0,221.0,-0.9190239255012442,-0.17379891351700377,0.28797479335604903,-0.2055711079119185
-10340.868249416351,2692.0,-872.0,16344.0,114.0,-356.0,21.0,-0.9075768091013249,-0.18853211345972498,0.3144493398144184,-0.20464992173500304
-10340.883865594864,2808.0,-904.0,16248.0,75.0,-403.0,502.0,-0.8849951919234994,-0.18743343033033963,0.3525503008741335,-0.23950053198364282
-10340.899450302124,2828.0,-916.0,16320.0,57.0,-412.0,278.0,-0.8648486152052564,-0.1915755185346961,0.3871800051552832,-0.25578767969483507
-10340.915090799332,2560.0,-812.0,16236.0,60.0,-431.0,265.0,-0.8426339936348153,-0.19646127321921183,0.42220955152793105,-0.2703886378802033
-10340.93077492714,2776.0,-896.0,16216.0,21.0,-498.0,255.0,-0.8170344422555187,-0.20001916118538304,0.46199142694272843,-0.28108891254962515
-10340.94640660286,2856.0,-860.0,16216.0,-244.0,-270.0,247.0,-0.8038591924336522,-0.17906021150223853,0.49101819352116166,-0.28398762830078583
-10340.96198797226,2784.0,-888.0,16292.0,34.0,-592.0,230.0,-0.7711771260985888,-0.18590422709505514,0.5343248364635346,-0.2919288058221192
-10340.97756433487,2968.0,-900.0,16252.0,21.0,-633.0,227.0,-0.7343753835311966,-0.19246727364949032,0.5789387684945208,-0.29745427711059746
-10340.993160009384,2936.0,-952.0,16292.0,23.0,-592.0,243.0,-0.6967856038738749,-0.1966732936424711,0.6192735886622817,-0.30382504865017523
-10341.00876879692,3032.0,-932.0,16280.0,29.0,-577.0,325.0,-0.6554899900178981,-0.19579994980662468,0.6579578310510815,-0.3147804714409958
-10341.024365186691,3040.0,-952.0,16280.0,14.0,-573.0,354.0,-0.6116627987136489,-0.1916469414100375,0.695100491689166,-0.32553859521022055
-10341.040027856827,3056.0,-980.0,16332.0,86.0,-538.0,417.0,-0.5648192226225934,-0.1858628502604678,0.726957967389501,-0.34346231277680134
-10341.055623292923,3184.0,-904.0,16332.0,122.0,-467.0,392.0,-0.5207818019887123,-0.18071540813640155,0.7514898410502286,-0.3624793439325688
-10341.071259737015,3160.0,-792.0,16204.0,107.0,-418.0,339.0,-0.4804868747827496,-0.1763479318138095,0.7714876309559928,-0.37794259536126384
-10341.086848974228,3152.0,-804.0,16308.0,51.0,-499.0,318.0,-0.4351071784050807,-0.17328722696689258,0.7944878934591191,-0.38657763439881704
-10341.102441072464,3156.0,-888.0,16248.0,-22.0,-499.0,305.0,-0.3901121015814867,-0.16790767775895585,0.8176633168695837,-0.38864670356906567
-10341.118041276932,3188.0,-988.0,16296.0,26.0,-405.0,302.0,-0.3503105463680627,-0.1608119940490803,0.8341259916363184,-0.3945324495526274
-10341.133620500565,3572.0,-876.0,16312.0,50.0,-277.0,322.0,-0.3181982128455806,-0.14832598357313753,0.8447490781889011,-0.4039161977910048
-10341.149208068848,3324.0,-824.0,16628.0,51.0,-172.0,361.0,-0.29200954087456565,-0.1291027198128009,0.8518211318497522,-0.4152874608140361
-10341.164794445038,3248.0,-808.0,16228.0,45.0,-114.0,310.0,-0.2717332857121317,-0.11128238314153921,0.8561738436752203,-0.4251395089201051
-10341.180380105972,3176.0,-840.0,16340.0,-35.0,-109.0,323.0,-0.25188472223538283,-0.09031606736744144,0.8627583155205336,-0.42900487605603627
-10341.195990562439,3196.0,-980.0,16172.0,-26.0,-138.0,321.0,-0.22962303729341826,-0.07070509510124662,0.8688405804113745,-0.4328857771991301
-10341.21158862114,3152.0,-1040.0,16408.0,-12.0,-134.0,273.0,-0.20919558333261107,-0.0548060610169777,0.8733083221306153,-0.43653874752115823
-10341.227254867554,3116.0,-1112.0,16236.0,35.0,-193.0,311.0,-0.1824183025341036,-0.039074773077263474,0.8764883706673934,-0.44380723416180884
-10341.24287891388,2996.0,-1084.0,16276.0,55.0,-198.0,396.0,-0.15166881724135203,-0.017314479150292116,0.8781496976182481,-0.45337609912890503
-10341.258479833603,3036.0,-980.0,16164.0,78.0,-182.0,384.0,-0.12235488220527173,0.0038764725351651476,0.8773839198751527,-0.46390916449853614
-10341.274064302444,3072.0,-944.0,16284.0,81.0,-229.0,371.0,-0.08978760478847565,0.02212746408342873,0.8757236392660132,-0.4738741066889756
-10341.289662599564,2976.0,-860.0,16184.0,39.0,-215.0,317.0,-0.06031067815533556,0.037130442635935,0.8746452874874725,-0.4795618556620821
-10341.305331230164,3028.0,-844.0,16328.0,42.0,-191.0,284.0,-0.03398563481666661,0.050563438524630445,0.8725332160630366,-0.484741273441171
-10341.320932388306,3008.0,-840.0,16464.0,42.0,-240.0,186.0,-0.008039600719055417,0.054419036563845835,0.870291808540463,-0.48945490217905774
-10341.336514472961,2968.0,-900.0,16540.0,36.0,168.0,171.0,-0.013682376843011192,0.07453414468762067,0.8675848473015874,-0.491481420373438
-10341.35210609436,2920.0,-956.0,16444.0,30.0,11.0,57.0,-0.01228367466960386,0.07927268253195903,0.8658550730670481,-0.4938217751222149
-10341.367723941803,2872.0,-948.0,16576.0,81.0,359.0,-105.0,-0.04449844084198675,0.08666343648804391,0.8621784285160736,-0.4971495699890212
-10341.383305549622,2860.0,-932.0,16772.0,10.0,483.0,-210.0,-0.0899675602328183,0.09167002760486176,0.8605010165205274,-0.4929913231607806
-10341.398885726929,2948.0,-924.0,16844.0,-50.0,583.0,-372.0,-0.14912678305397897,0.08903169817368073,0.8594304444846064,-0.4808470342939366
-10341.41446685791,3008.0,-896.0,16608.0,-73.0,718.0,-494.0,-0.22255344286300557,0.08280351732460105,0.8544509357551304,-0.46208997065039104
-10341.430058479309,2912.0,-996.0,16660.0,-101.0,860.0,-639.0,-0.31042749289618415,0.07146618624888602,0.84267199200635,-0.4340867076579042
-10341.445699453354,2896.0,-1108.0,16512.0,-159.0,982.0,-627.0,-0.40337170316083826,0.06650202814731496,0.8216195098732831,-0.39725323200322005
-10341.461346387863,2660.0,-1268.0,16312.0,-173.0,1023.0,-596.0,-0.4937919578093592,0.0649584728753343,0.7906845401619697,-0.3560447403815416
-10341.4769449234,2680.0,-1344.0,16356.0,-146.0,971.0,-498.0,-0.5729035494670892,0.06674014497866303,0.7526394494594518,-0.31758642158255274
-10341.492546796799,2680.0,-1368.0,16300.0,-51.0,908.0,-442.0,-0.6421083757022111,0.06515952505882303,0.7083658197538437,-0.2857777730188997
-10341.508148431778,2564.0,-1296.0,16212.0,13.0,879.0,-276.0,-0.7012499702228991,0.06905748997658515,0.6581011447351114,-0.26529686322844653
-10341.523782253265,2532.0,-1164.0,16296.0,83.0,875.0,-226.0,-0.7549815693779173,0.07101964274028509,0.6019589600376394,-0.2502088141435128
-10341.539415121078,2496.0,-960.0,16240.0,115.0,850.0,-218.0,-0.8028251988961478,0.070320748213306,0.5430075729934416,-0.23594378156640117
-10341.555014133453,2476.0,-840.0,16212.0,68.0,830.0,-212.0,-0.8446737429271189,0.072371635664866,0.48320823351827424,-0.21862849178648322
-10341.570640087128,2396.0,-836.0,16200.0,66.0,759.0,-222.0,-0.8793276995162099,0.072420124966975,0.42616948127399373,-0.1997941330318603
-10341.586225032806,2416.0,-1024.0,16064.0,35.0,685.0,-285.0,-0.9081833513505672,0.07089206731198733,0.3737793351207164,-0.17454605053853295
-10341.601793527603,2440.0,-916.0,15996.0,21.0,623.0,-338.0,-0.9320888514924325,0.06751583632484516,0.32530432735495113,-0.14432283039428587
-10341.61738038063,2400.0,-976.0,15992.0,115.0,494.0,-349.0,-0.9498965908042163,0.054344557338343855,0.2850561975855186,-0.11612966926807547
-10341.63296532631,2408.0,-1004.0,16348.0,164.0,337.0,-361.0,-0.9617993777055643,0.035102919486415834,0.2566308534421083,-0.08860218479413781
-10341.648559808731,2444.0,-1052.0,16152.0,147.0,201.0,-347.0,-0.9688318284414492,0.016517898626288594,0.23923467391567316,-0.062119385220971005
-10341.664145946503,2540.0,-1016.0,16284.0,134.0,140.0,-294.0,-0.9731495733859133,-0.00017573613765662984,0.2266977368447941,-0.03984988136837241
-10341.679778814316,2620.0,-1036.0,16132.0,140.0,156.0,-313.0,-0.9768583544821473,-0.01765068346797395,0.21255298470855913,-0.01604485409805678
-10341.695375442505,2728.0,-1136.0,16424.0,144.0,179.0,-225.0,-0.9799459460441157,-0.03372974885449019,0.19638792599714275,0.00017145395019574022
-10341.7109644413,2700.0,-1072.0,16192.0,165.0,195.0,-168.0,-0.9825061069901848,-0.050553313829705154,0.1788927946225375,0.011112165403967582
-10341.726616621017,2644.0,-1072.0,15936.0,142.0,109.0,-120.0,-0.9833445613380317,-0.06449542850122711,0.16889346581351106,0.018676471691869923
-10341.742216825485,2676.0,-1092.0,15996.0,152.0,-3.0,-3.0,-0.9824069418471197,-0.07733942196808342,0.16916528213864296,0.01668297752758748
-10341.757833242416,2708.0,-1084.0,16044.0,187.0,-93.0,-22.0,-0.9796324223586005,-0.09330251724826577,0.17704736576040886,0.01640693805246749
-10341.77342581749,2628.0,-1068.0,16360.0,207.0,-107.0,65.0,-0.9762312502014322,-0.10957852576553881,0.18679646985446005,0.008495391168859674
-10341.789011478424,2572.0,-1024.0,16428.0,190.0,-127.0,113.0,-0.9722536115262329,-0.1235642260014463,0.19860906484911947,-0.003039125962996019
-10341.804641962051,2824.0,-1084.0,16572.0,152.0,-62.0,141.0,-0.9693979590155754,-0.13377377000422142,0.20514234575833484,-0.01699392515171351
-10341.820250034332,2752.0,-1124.0,16436.0,159.0,72.0,153.0,-0.9684741111030091,-0.14411598130963313,0.20039051976348818,-0.03364698564978484
-10341.835862398148,2640.0,-1112.0,16420.0,180.0,180.0,92.0,-0.9688860986628114,-0.1569099850666676,0.18559096614880002,-0.046850588985519324
-10341.851467132568,2556.0,-1048.0,16188.0,206.0,189.0,49.0,-0.968696972824059,-0.1724579922325861,0.16924339315009893,-0.056930568516838156
-10341.867090463638,2596.0,-1040.0,16124.0,238.0,154.0,42.0,-0.9669472325909809,-0.19086838967951397,0.1555099633712324,-0.06632464472630463
-10341.882688760757,2560.0,-1120.0,16332.0,289.0,162.0,71.0,-0.9635705664193297,-0.21299068063370857,0.1411952991412153,-0.07893428275435468
-10341.898281812668,2532.0,-1092.0,16584.0,246.0,110.0,34.0,-0.9599225032724975,-0.23216146242976896,0.13077558829781868,-0.08687685870755436
-10341.913886070251,2608.0,-1280.0,16532.0,214.0,144.0,126.0,-0.9560484953781349,-0.24720635941991362,0.11955581505495363,-0.10279444262265747
-10341.929539442062,2568.0,-1076.0,16464.0,169.0,164.0,141.0,-0.9526497038329602,-0.2580158947582171,0.10732993203319169,-0.11986085903596778
-10341.945215463638,2656.0,-1108.0,16440.0,200.0,165.0,113.0,-0.9482962148994846,-0.27150244709733873,0.0940150428434795,-0.1348402081969849
-10341.960812568665,2712.0,-1080.0,16472.0,250.0,253.0,73.0,-0.9431932712476826,-0.2882002007004354,0.07182235780780169,-0.148891390980984
-10341.97653388977,2588.0,-1064.0,16144.0,250.0,227.0,115.0,-0.9364593245320628,-0.3046938975520728,0.05276793624924044,-0.16559319791427374
-10341.993181467056,2556.0,-988.0,16252.0,277.0,218.0,75.0,-0.9286363640649912,-0.323416311059316,0.03295258517842757,-0.1787470844713147
-10342.008815288544,2320.0,-988.0,16140.0,269.0,153.0,89.0,-0.9198171406199381,-0.34218720289905125,0.018895846630149038,-0.19101647304359523
-10342.024416685104,2540.0,-904.0,16212.0,249.0,86.0,10.0,-0.9122017141452361,-0.3603866406043628,0.008184851059343051,-0.19478837284994938
-10342.040063619614,2508.0,-928.0,16128.0,211.0,-9.0,1.0,-0.905477049919311,-0.3770369397274026,0.005396269321257777,-0.19474428984652872
-10342.055698871613,2304.0,-956.0,16312.0,221.0,-45.0,-78.0,-0.8994068233504231,-0.39498784165373907,0.002674386489348683,-0.18720261406648975
-10342.071288347244,2548.0,-920.0,16344.0,208.0,-103.0,-164.0,-0.8947114138025234,-0.41268732249446954,0.001755467294293149,-0.1708144554726383
-10342.0868973732,2796.0,-988.0,16280.0,177.0,-116.0,-173.0,-0.8907404011118896,-0.42792798542594085,0.001993393264532487,-0.15315091739724856
-10342.10248041153,2592.0,-1044.0,16372.0,149.0,-110.0,-207.0,-0.8877611366147169,-0.4406784720050242,0.0008654670313590668,-0.13297330406769903
-10342.118085384369,2624.0,-1268.0,16620.0,191.0,-83.0,-214.0,-0.8826936726972986,-0.4560983706737194,-0.003108529634330013,-0.11320995315097172
-10342.133671283722,2600.0,-1040.0,16340.0,212.0,-115.0,-271.0,-0.8766275974957557,-0.4730595491359592,-0.007087176932630928,-0.08768403619375614
-10342.149352788925,2580.0,-1032.0,16336.0,208.0,-94.0,-26.0,-0.8682268993265974,-0.4893884768130952,-0.0025198318354225898,-0.08169835063085736
-10342.164951562881,2592.0,-1016.0,16268.0,198.0,-146.0,-227.0,-0.8611591067858407,-0.5049842486525227,-0.002526864799098239,-0.058219553132490345
-10342.18054819107,2384.0,-1032.0,16280.0,176.0,-198.0,-215.0,-0.8542667738618119,-0.518763143313885,0.002015582312434034,-0.033301916502980006
-10342.196133852005,2304.0,-968.0,16296.0,172.0,-155.0,-227.0,-0.8468809606574889,-0.5316918759487935,0.002820571849389395,-0.009403823708676786
-10342.211784601212,2608.0,-780.0,16472.0,163.0,-152.0,-231.0,-0.8392487819716226,-0.5435403355245199,0.0032296321691065405,0.014661346905800685
-10342.227368831635,2732.0,-996.0,16412.0,186.0,-110.0,-226.0,-0.8299051865352027,-0.5567181558156563,0.0008313183075369334,0.036353614085212635
-10342.2429728508,2628.0,-996.0,16220.0,141.0,-100.0,-197.0,-0.8223158321186169,-0.566322626307374,-0.0010235431778312194,0.055446438467662014
-10342.258620262146,2556.0,-1044.0,16180.0,152.0,-53.0,-205.0,-0.8137142991943758,-0.5766547036373182,-0.006590707592810432,0.0727664389192484
-10342.274206399918,2628.0,-996.0,16240.0,136.0,-86.0,-184.0,-0.8056761344876708,-0.5853792225614911,-0.008852216596372118,0.09021513382819837
-10342.28979730606,2632.0,-1016.0,16232.0,153.0,-147.0,-145.0,-0.7967394377262366,-0.5945737708335718,-0.004691747013387987,0.10801058706622267
-10342.305387973785,2304.0,-1012.0,16240.0,195.0,-153.0,-162.0,-0.7850021657390159,-0.6062814126129994,-0.000599552901428813,0.1272559980565121
-10342.321004629135,2648.0,-960.0,16232.0,195.0,-193.0,-133.0,-0.7730509335209401,-0.6171360588488386,0.007771702611909666,0.14654330312040004
-10342.336596727371,2588.0,-968.0,16312.0,229.0,-192.0,-54.0,-0.7597360866997657,-0.6298146439843937,0.020759247619903776,0.16032356790937816
-10342.35219168663,2580.0,-972.0,16276.0,202.0,-235.0,-43.0,-0.747432616045175,-0.6396323458951478,0.03680806627995251,0.1756704665368279
-10342.367864131927,2636.0,-932.0,16376.0,193.0,-228.0,-253.0,-0.7317251456775814,-0.6490370918867855,0.04050521433732155,0.20417759952980716
-10342.383450508118,2688.0,-960.0,16420.0,195.0,-224.0,251.0,-0.724047625391903,-0.6561128174035564,0.07247759459302712,0.20004500814847265
-10342.399066448212,2752.0,-932.0,16448.0,198.0,-289.0,19.0,-0.7109835098073554,-0.6630310113406237,0.095249940956682,0.21405554309662816
-10342.414648771286,2760.0,-968.0,16368.0,181.0,-223.0,5.0,-0.6986323410619573,-0.6697308690602127,0.11272776502484017,0.22509079510865296
-10342.430245637894,2664.0,-1256.0,16280.0,188.0,-209.0,72.0,-0.686882304685668,-0.6760538814432314,0.13333234979219066,0.2310115438547154
-10342.445856809616,2704.0,-1020.0,16184.0,244.0,-222.0,189.0,-0.6734426672349938,-0.683524507328404,0.16262403501558376,0.22983177557537648
-10342.461431026459,2768.0,-1016.0,15880.0,293.0,-292.0,271.0,-0.6567429864898441,-0.6902994771277932,0.20164334271959267,0.22696969822063215
-10342.477004766464,2704.0,-908.0,16180.0,318.0,-353.0,321.0,-0.6370313902629512,-0.6949211397327378,0.24720316533333841,0.22397815166078702
-10342.492581367493,2816.0,-936.0,16188.0,2.0,-383.0,425.0,-0.6362593141330556,-0.6774384726013768,0.29393963771003373,0.22327268171753895
-10342.508167982101,2776.0,-956.0,16148.0,227.0,-398.0,411.0,-0.6198395210916653,-0.6706888808018275,0.344256885740971,0.2178591055741645
-10342.523797988892,2840.0,-904.0,16344.0,215.0,-389.0,457.0,-0.6034182462295531,-0.660088683665931,0.3955132249840411,0.2091378461114874
-10342.539433479309,2580.0,-928.0,16312.0,189.0,-345.0,390.0,-0.5871471935442943,-0.6494484310896093,0.4390673222402228,0.201729509514856
-10342.55509519577,2688.0,-948.0,16544.0,190.0,-308.0,460.0,-0.5720203106060654,-0.6352360336193116,0.48361737493543067,0.18810151649125087
-10342.57069158554,2780.0,-980.0,16612.0,250.0,-216.0,470.0,-0.5561511130257003,-0.6234857327506463,0.5238813725840797,0.16586074881081678
-10342.586269378662,2772.0,-924.0,16588.0,289.0,-120.0,497.0,-0.5415112819230592,-0.6121906542468416,0.5601745602525658,0.1348799334545879
-10342.60184931755,2768.0,-912.0,16448.0,301.0,-38.0,584.0,-0.529660927102656,-0.5963805861660163,0.5957108260729616,0.09443574770447556
-10342.617451429367,2720.0,-920.0,16360.0,345.0,33.0,604.0,-0.5175289460890445,-0.5800786243793032,0.6272843947512446,0.046763956202855374
-10342.633055448532,2660.0,-932.0,16188.0,314.0,24.0,606.0,-0.5046079292269428,-0.5601427875323689,0.656970286660043,0.0009683917518953482
-10342.648713588715,2628.0,-924.0,16352.0,349.0,11.0,649.0,-0.48730639355038596,-0.5371489096506233,0.6867977949791958,-0.048086551943108784
-10342.664298772812,2780.0,-872.0,16304.0,297.0,-240.0,643.0,-0.45540689351144603,-0.5111187576833283,0.7243373755019309,-0.0818385198881334
-10342.679901123047,2492.0,-864.0,16148.0,252.0,-85.0,725.0,-0.4327056209686561,-0.47479591600191756,0.7565160514328308,-0.12254855223342352
-10342.69548368454,2552.0,-860.0,16316.0,298.0,-117.0,718.0,-0.4040721552353468,-0.43883050807985907,0.7856272436586821,-0.1641441822395682
-10342.71108174324,2608.0,-848.0,16400.0,331.0,-112.0,634.0,-0.3739528980650082,-0.4077958036724239,0.8074794161487336,-0.20454536179547936
-10342.726659536362,2664.0,-792.0,16168.0,280.0,-112.0,678.0,-0.34333319466725987,-0.37035031522240053,0.8285029682940229,-0.2419623792704871
-10342.74224948883,2660.0,-820.0,16352.0,299.0,-115.0,597.0,-0.31225777634583957,-0.3379574422020881,0.8434281911850685,-0.27732424107181347
-10342.757868289948,2600.0,-780.0,16276.0,296.0,-92.0,615.0,-0.2814143132164309,-0.3024137397590895,0.8553357020617731,-0.31265436363553334
-10342.773498773575,2684.0,-892.0,16536.0,267.0,-67.0,539.0,-0.2543523445265303,-0.2701686173956851,0.8626849967324777,-0.3436399269890595
-10342.789090633392,2736.0,-760.0,16420.0,1.0,-75.0,505.0,-0.23335208036410368,-0.2341693805041451,0.875325330292699,-0.35286976913873913
-10342.804715156555,2656.0,-808.0,16136.0,214.0,-112.0,764.0,-0.19645438662503703,-0.18314669547762025,0.8844351969691124,-0.3816246117241597
-10342.820300102234,2616.0,-780.0,16284.0,210.0,-103.0,488.0,-0.1687428185798485,-0.15232932658830858,0.8859822157041025,-0.4041746539491684
-10342.8359105587,2584.0,-880.0,16440.0,229.0,-101.0,428.0,-0.14269083432247553,-0.12604400155798853,0.8842147736275138,-0.4265166697450992
-10342.851521730423,2656.0,-836.0,16336.0,188.0,-136.0,363.0,-0.11656285099040152,-0.10535592506507388,0.8822386988337425,-0.4438108934026034
-10342.867115736008,2656.0,-800.0,16312.0,192.0,-120.0,350.0,-0.09196671251815625,-0.08494870007552044,0.87861645930207,-0.4608242176661033
-10342.882699012756,2636.0,-824.0,16320.0,225.0,-165.0,274.0,-0.0666102589523222,-0.07233771164593494,0.872369486140456,-0.4788546841445437
-10342.898270845413,2652.0,-828.0,16372.0,215.0,-119.0,232.0,-0.046496928675736786,-0.06087192590132053,0.8651161653907389,-0.49568807191661524
-10342.913988113403,2592.0,-836.0,16284.0,224.0,-103.0,204.0,-0.028711149419382794,-0.05081663584995115,0.8565420767075828,-0.5127660385101308
-10342.930175304413,2580.0,-816.0,16612.0,214.0,-144.0,110.0,-0.012085976458496963,-0.0495641454906418,0.8475057636841777,-0.5283287851110573
-10342.945851325989,2592.0,-760.0,16200.0,218.0,-211.0,-254.0,-0.007259172969434814,-0.07827593188411018,0.8360209228953966,-0.5430370147389616
-10342.9614944458,2552.0,-752.0,16144.0,215.0,-238.0,-59.0,0.008763095096279771,-0.09396572948458627,0.8251833032798298,-0.5569256376168649
-10342.97716832161,2584.0,-1016.0,15912.0,251.0,-287.0,-185.0,0.022472705429981935,-0.12097261545199531,0.8106255170059636,-0.5724918121686766
-10342.992797374725,2492.0,-784.0,15496.0,352.0,-389.0,-361.0,0.03560921958656157,-0.16501287880208637,0.7871756181995713,-0.5931755890307748
-10343.00841331482,2188.0,-828.0,15236.0,717.0,-481.0,-298.0,0.06334990601199338,-0.20750261538162607,0.7418311348916004,-0.6345203080465563
-10343.024063587189,2252.0,-644.0,15964.0,934.0,-485.0,-344.0,0.09218725595110243,-0.25029707818889974,0.6779362385891283,-0.6850221448230198
-10343.039684772491,2904.0,-140.0,17644.0,516.0,-737.0,-277.0,0.13007065095630202,-0.3055566942515451,0.6328629844738888,-0.6994291781450601
-10343.05533671379,3380.0,-228.0,17920.0,-209.0,-917.0,-325.0,0.15473084086940816,-0.38041100219580065,0.6240909512179897,-0.6647227398698327
-10343.070949554443,3356.0,-552.0,17416.0,-461.0,-568.0,-493.0,0.14134838118310789,-0.44510237169439654,0.624859321528256,-0.6256639210855823
-10343.086622953415,2972.0,-1164.0,16804.0,-201.0,-246.0,-726.0,0.10705931408020669,-0.49938508824554856,0.6030764474347724,-0.6127410835386471
-10343.102221727371,2508.0,-1536.0,16288.0,136.0,301.0,-625.0,0.06359984537596848,-0.5138906584367471,0.5702152377437367,-0.637750761257447
-10343.117819309235,2108.0,-952.0,16340.0,237.0,278.0,-593.0,0.02733343151634122,-0.5255889087291733,0.5309122586955969,-0.6641847304095134
-10343.13340306282,2224.0,-636.0,16628.0,146.0,377.0,-710.0,-0.024545482590061743,-0.5348648527782489,0.48945487776816865,-0.6882957439762869
-10343.149011135101,2336.0,-364.0,16344.0,69.0,557.0,-891.0,-0.09825289453058751,-0.5372758442897068,0.44058001226146754,-0.7124396736951342
-10343.164587974548,2264.0,-176.0,16324.0,46.0,523.0,-1158.0,-0.18709741984709577,-0.54623874825092,0.37653106177480045,-0.7244598987622222
-10343.180191278458,2176.0,-92.0,16164.0,10.0,395.0,-1375.0,-0.28437878875584366,-0.5621448103926306,0.3014653553140435,-0.7157098268151486
-10343.195864915848,2204.0,-208.0,16168.0,-53.0,99.0,-1558.0,-0.3834142747924607,-0.5900620678550955,0.22373235939001912,-0.674361980931395
-10343.211458921432,2452.0,-456.0,16324.0,-163.0,-103.0,-1663.0,-0.4826174710500636,-0.6164683978435185,0.14948882685560452,-0.6039041163486317
-10343.227085828781,2600.0,-780.0,16164.0,-135.0,-186.0,-1588.0,-0.5657072832958928,-0.6349757576373178,0.07820802380111137,-0.5202543242030954
-10343.242686510086,2788.0,-1052.0,16268.0,-112.0,-265.0,-1372.0,-0.6278027549514301,-0.6458969260465968,0.02018879626985856,-0.43390468343188693
-10343.258298397064,2812.0,-1180.0,16176.0,-61.0,-288.0,-1243.0,-0.6737202994244629,-0.6514894148966331,-0.031583956720246456,-0.34736861415353615
-10343.273933172226,2816.0,-1100.0,16288.0,-37.0,-282.0,-1044.0,-0.7052085159270695,-0.6519632565010989,-0.0728956381805534,-0.2689072092203414
-10343.289540052414,2872.0,-1032.0,16276.0,-70.0,-275.0,-863.0,-0.7290046985527743,-0.6464708931642081,-0.10307809931532226,-0.20000609795951335
-10343.305173397064,2888.0,-988.0,16324.0,-79.0,-2.0,-847.0,-0.7463110464093612,-0.632001168820705,-0.14891786708377425,-0.14634826093892186
-10343.320759057999,2896.0,-856.0,16240.0,-117.0,-136.0,-776.0,-0.7627056796124385,-0.6144308673778685,-0.18088774057631446,-0.08963470761599161
-10343.336333274841,2892.0,-772.0,16272.0,-117.0,-99.0,-784.0,-0.774899082615432,-0.5934803177834932,-0.2148528818372539,-0.03392290275894296
-10343.352004528046,2560.0,-664.0,16308.0,-115.0,-73.0,-789.0,-0.7827573188362352,-0.5696144004624072,-0.24977863793641525,0.021001110084706853
-10343.367614984512,2576.0,-720.0,16464.0,-111.0,-89.0,-844.0,-0.7865828430328394,-0.5418391475005231,-0.2850036976229885,0.0804404228202847
-10343.383266687393,2764.0,-1020.0,16184.0,-125.0,-143.0,-878.0,-0.7875742296001141,-0.5087338099164848,-0.31654225320448975,0.1439366022034341
-10343.398861646652,3068.0,-912.0,16244.0,-131.0,-108.0,-914.0,-0.7824239558601152,-0.47145434426740557,-0.35011491069212974,0.20727542999265863
-10343.414464712143,2708.0,-844.0,16312.0,-88.0,-74.0,-929.0,-0.7690382495626841,-0.4341548043532687,-0.3835121951979878,0.27020024556050704
-10343.430068731308,2708.0,-788.0,16228.0,-47.0,-89.0,-964.0,-0.7484880433784605,-0.3951093848538658,-0.41359880874777594,0.33554470391037927
-10343.44566321373,2664.0,-804.0,16376.0,-46.0,-31.0,-943.0,-0.7212220397801336,-0.35583905247353537,-0.4438271561992828,0.39526547217051167
-10343.46134185791,2632.0,-848.0,16324.0,-47.0,-86.0,-898.0,-0.6929694240022692,-0.3140490081393109,-0.46636218614119396,0.451301350787126
-10343.476948261261,2620.0,-856.0,16364.0,-55.0,-97.0,-905.0,-0.6607686891209105,-0.2691141481909664,-0.48580811702375154,0.5049284980615779
-10343.492540359497,2724.0,-908.0,16324.0,-93.0,-35.0,-794.0,-0.627989863339751,-0.22789333135695777,-0.5051761388386272,0.5463427768476901
-10343.508162498474,2832.0,-1112.0,16344.0,-62.0,37.0,-690.0,-0.593669283531565,-0.1953919495685265,-0.5227918982337688,0.5797132040725496
-10343.523841142654,2860.0,-1244.0,16132.0,-20.0,67.0,-614.0,-0.5591346326312363,-0.16940334831040404,-0.5368280065748934,0.6086761532460284
-10343.539433479309,2940.0,-988.0,16392.0,7.0,124.0,-513.0,-0.525467517283949,-0.15206455354626094,-0.5493696923847051,0.6316274225549059
-10343.555048704147,2844.0,-908.0,16348.0,27.0,108.0,-470.0,-0.4936341498447723,-0.1365347678287494,-0.5584356519626228,0.652558967372343
-10343.57067155838,2576.0,-988.0,16152.0,29.0,162.0,-434.0,-0.4603444241619788,-0.1256946508673788,-0.5683284187454574,0.6702885008207974
-10343.586251020432,2820.0,-912.0,16320.0,40.0,237.0,-314.0,-0.42956707849271086,-0.12546094807736932,-0.5784727915403751,0.6819830679938106
-10343.601831912994,2836.0,-940.0,16312.0,92.0,278.0,-505.0,-0.3840027954301744,-0.11975017671731394,-0.5880513782717359,0.701710285510121
-10343.617447137833,2792.0,-828.0,16424.0,151.0,370.0,-112.0,-0.35637415760302055,-0.14158187800689215,-0.5918532473005054,0.7089864351823848
-10343.633058071136,2824.0,-804.0,16444.0,224.0,377.0,-83.0,-0.3287751294844063,-0.1674123029606796,-0.5901670093917849,0.7180410406623497
-10343.648734807968,2796.0,-540.0,16452.0,277.0,394.0,38.0,-0.3065689213758968,-0.20177836435325822,-0.5829137548834668,0.7249224389498512
-10343.664342403412,2788.0,-796.0,16140.0,328.0,363.0,101.0,-0.28846379740184136,-0.23837376827919102,-0.5694316656828009,0.7319249704051629
-10343.679981708527,2760.0,-836.0,16232.0,412.0,384.0,10.0,-0.2611503398706036,-0.2733766084891264,-0.5517868046689207,0.7433687188130218
-10343.695571184158,2852.0,-1024.0,16204.0,403.0,510.0,287.0,-0.24513969405721583,-0.32876867465366316,-0.5292863553139148,0.7427473615183839
-10343.711175203323,2752.0,-740.0,16228.0,399.0,51.0,711.0,-0.27674598605234335,-0.3724305561685844,-0.4827747077550221,0.7427218332511359
-10343.72681236267,2812.0,-872.0,16308.0,381.0,21.0,872.0,-0.3189330931895506,-0.4182036598792596,-0.4286576033539861,0.7346019602607623
-10343.742443799973,2892.0,-892.0,16200.0,384.0,-254.0,959.0,-0.37433260277615354,-0.44645766146276333,-0.3603133791030775,0.7285087012928214
-10343.758072137833,2820.0,-800.0,16292.0,351.0,26.0,793.0,-0.4091331258848819,-0.4830132630688645,-0.30697405482584894,0.7106864306197282
-10343.773661851883,3060.0,-612.0,16296.0,305.0,104.0,1049.0,-0.4565222768881172,-0.5259294242471323,-0.24633682505461912,0.6740206376944099
-10343.789352178574,2748.0,-608.0,16292.0,208.0,190.0,1018.0,-0.5007185555188038,-0.564759086752441,-0.19405187526000048,0.6266354377130205
-10343.80493402481,2672.0,-568.0,16176.0,127.0,196.0,1004.0,-0.5439276043806338,-0.5955014165937873,-0.14553996975948255,0.5730086746550581
-10343.820511102676,2716.0,-260.0,15936.0,109.0,92.0,934.0,-0.5819122963872264,-0.6149282592546533,-0.09553946877139244,0.5235585212660251
-10343.836092948914,2796.0,-568.0,16256.0,116.0,81.0,939.0,-0.6158957586029503,-0.6300652285332138,-0.04376830869047391,0.4709294612600288
-10343.851763486862,2744.0,-680.0,16412.0,165.0,102.0,920.0,-0.6421811405972555,-0.6443517345849689,0.00812404079784189,0.41514843701941684
-10343.867355108261,2916.0,-532.0,16596.0,185.0,108.0,962.0,-0.6643553972007237,-0.6554102415986428,0.06266635398114886,0.35375450456013524
-10343.882943153381,2940.0,-652.0,16852.0,287.0,175.0,930.0,-0.6752004698336355,-0.6697624778337522,0.1141688138478816,0.28720729581087967
-10343.898554801941,3052.0,-472.0,16612.0,298.0,282.0,811.0,-0.6788912083092261,-0.6840536874602593,0.15195708292853832,0.21928594323465056
-10343.914191246033,2852.0,-408.0,16356.0,145.0,366.0,520.0,-0.6840374321585039,-0.6915303318029477,0.16382304554319657,0.16444026681885732
-10343.929847240448,2800.0,-316.0,16156.0,52.0,390.0,726.0,-0.6951961339067333,-0.687963150792584,0.1846218351096796,0.09655991173052121
-10343.945442914963,2684.0,-300.0,16316.0,-101.0,567.0,690.0,-0.7141228426262165,-0.6733190253994179,0.19020387524312524,0.02219327639461455
-10343.961058855057,2496.0,-460.0,16200.0,-225.0,647.0,633.0,-0.7369779382696034,-0.6477818860478887,0.18601101381359586,-0.051400869177115206
-10343.976706504822,2428.0,-572.0,16252.0,-364.0,465.0,519.0,-0.7610915067702572,-0.6122889941055218,0.1866216938549363,-0.104948794190987
-10343.992320299149,2400.0,-828.0,16212.0,-455.0,301.0,460.0,-0.7846764783565964,-0.570567813769408,0.194980565788516,-0.14393669847915233
-10344.007962703705,2444.0,-956.0,16296.0,-435.0,99.0,325.0,-0.8031098806472486,-0.5332297213523183,0.2095830021273223,-0.16357123552932454
-10344.02356004715,2512.0,-932.0,16212.0,-375.0,-76.0,187.0,-0.8160398653430738,-0.5040978662093183,0.22877783893790407,-0.16620764081405112
-10344.039160490036,2664.0,-988.0,16540.0,-317.0,-18.0,193.0,-0.8264938027927955,-0.47750808583286164,0.24298181774045577,-0.17278269055922332
-10344.054807424545,2772.0,-960.0,16756.0,-226.0,126.0,219.0,-0.8350162658372111,-0.4542886916610379,0.24626988607723993,-0.1889993746753829
-10344.0704267025,2732.0,-812.0,17064.0,-252.0,412.0,177.0,-0.8501836986593342,-0.424713512288541,0.22712785982753733,-0.2126477046751935
-10344.085993051529,2604.0,-580.0,16724.0,-246.0,744.0,183.0,-0.8686048865712429,-0.3878713463843433,0.1827507753149995,-0.2483616794119447
-10344.101566314697,2440.0,-484.0,16384.0,-338.0,959.0,72.0,-0.890345262263117,-0.33875101026653104,0.11927725270204012,-0.27983209965420275
-10344.117134571075,2228.0,-280.0,16208.0,-415.0,1006.0,-35.0,-0.9099102934387695,-0.2807788738733517,0.04993776202918677,-0.301218694313785
-10344.132722854614,2036.0,-400.0,16364.0,-597.0,738.0,-184.0,-0.9293431756294036,-0.21372872855259265,0.0025197354911109327,-0.3010563791641071
-10344.148297309875,2024.0,-648.0,16012.0,-663.0,407.0,-299.0,-0.9471907591510469,-0.1486442708836034,-0.018512883146083115,-0.28353451230840515
-10344.163960933685,2136.0,-996.0,16304.0,-689.0,142.0,-414.0,-0.9637227914634178,-0.08701062492830726,-0.01836963102273692,-0.25165470196209644
-10344.179542303085,2204.0,-1268.0,16304.0,-716.0,67.0,-510.0,-0.9773695608195025,-0.024186217789279978,-0.011903145203432042,-0.20981440271537144
-10344.195131778717,2312.0,-1408.0,16236.0,-755.0,188.0,-597.0,-0.9860905075564993,0.04427303087443416,-0.015032681847997928,-0.15949742355478344
-10344.210713624954,2552.0,-1316.0,16436.0,-887.0,207.0,-712.0,-0.98730411413206,0.12373398807706072,-0.017336471400293246,-0.09808125800498739
-10344.22629570961,2172.0,-1532.0,16284.0,-953.0,248.0,-950.0,-0.9778735496055663,0.20771580866525474,-0.019914495878735287,-0.014861920005345483
-10344.241880178452,1984.0,-1184.0,16532.0,-988.0,282.0,-1327.0,-0.9511255523206746,0.2913364350441523,-0.01832103157644518,0.1007353222084034
-10344.257519960403,1984.0,-1272.0,16752.0,-947.0,404.0,-1710.0,-0.8979347409976608,0.36340702331776553,-0.016378430164474874,0.24775044568705132
-10344.273150205612,2184.0,-776.0,16488.0,-679.0,715.0,-2136.0,-0.8123271484141213,0.3957235428945006,-0.018896029161290472,0.42798413712466266
-10344.288737297058,1960.0,-1148.0,15956.0,-199.0,1074.0,-2355.0,-0.6980870974036988,0.36413371266047995,-0.020575892252994093,0.6161636766319213
-10344.304321527481,1884.0,-1496.0,15644.0,237.0,975.0,-2307.0,-0.5663588462141855,0.2941429166294402,0.0059717670171491625,0.76985838951742
-10344.319920778275,1864.0,-1620.0,15644.0,441.0,356.0,-1966.0,-0.4388656211875287,0.24327556957145716,0.0673973294776617,0.8623639392789145
-10344.335478782654,2296.0,-1636.0,16136.0,224.0,-284.0,-1436.0,-0.33116361208265616,0.2453316606583156,0.12446241799434218,0.9025808245348461
-10344.351081132889,2344.0,-1772.0,16432.0,-15.0,-1327.0,-1066.0,-0.2299816004057449,0.3348560289124788,0.18227628784861694,0.8954078725719948
-10344.366667032242,2516.0,-1760.0,16728.0,-927.0,-1791.0,-772.0,-0.11213123193929267,0.47266947315710667,0.16527968146412522,0.8583080932067907
-10344.382248163223,2984.0,-1700.0,16896.0,-1476.0,-1539.0,-673.0,0.020962136455795057,0.581578240986355,0.09563253907535936,0.8075777089026328
-10344.397845745087,3228.0,-1820.0,16900.0,-1720.0,-1056.0,-641.0,0.15956449544202306,0.6365944465527725,0.004861159221157419,0.7544952296360318
-10344.413445234299,3080.0,-1976.0,16968.0,-1720.0,-753.0,-713.0,0.29788501670758816,0.6518536043381085,-0.0781183179239114,0.6929999449763871
-10344.42904162407,3252.0,-2036.0,16860.0,-1503.0,-206.0,-791.0,0.4251622201491017,0.6235794962553054,-0.127974281315929,0.6434347532808109
-10344.444703817368,3044.0,-2020.0,15972.0,-1164.0,-33.0,-870.0,0.532786831872318,0.58710502525317,-0.14604694498763887,0.5917061525501579
-10344.460339307785,3004.0,-2132.0,15560.0,-936.0,-125.0,-696.0,0.6119636333385523,0.5558452369302169,-0.16367622675971252,0.5382812246835034
-10344.475958108902,2476.0,-2124.0,15288.0,-696.0,-350.0,-451.0,0.6599555084165538,0.5397329912446794,-0.19258811225407352,0.4858568143919884
-10344.4915599823,2504.0,-2164.0,15592.0,-470.0,-560.0,-199.0,0.6797151463384197,0.5384185460838073,-0.2348732618030507,0.43923494847420247
-10344.507143497467,2488.0,-1824.0,15616.0,-264.0,-760.0,41.0,0.6733919749326691,0.5495485367351983,-0.29126451854064994,0.399630622084651
-10344.52272439003,2568.0,-1996.0,15580.0,-124.0,-1056.0,16.0,0.649234146112434,0.5760852226479235,-0.35686051222400317,0.34535693794040545
-10344.538304328918,2312.0,-2056.0,15720.0,-62.0,-1418.0,537.0,0.5869579548032603,0.5933063109546485,-0.4620236452064738,0.3000035532200951
-10344.55395579338,2936.0,-1932.0,15752.0,-103.0,-1758.0,722.0,0.49577860876076,0.5966968123243168,-0.584149245812279,0.23859200295523314
-10344.569538116455,3332.0,-1864.0,15628.0,-146.0,-1890.0,880.0,0.38245055335035566,0.5753292216729557,-0.7031925448333001,0.16807172820574334
-10344.58512544632,3608.0,-1860.0,16144.0,-118.0,-1601.0,1029.0,0.2713386430775185,0.524475216385822,-0.7990446424221456,0.113264061318505
-10344.600738048553,3648.0,-2020.0,16220.0,-33.0,-1522.0,1069.0,0.15415096113425006,0.4581649941782176,-0.872923742087338,0.06577582984120835
-10344.616336584091,3744.0,-1968.0,16352.0,48.0,-1130.0,1097.0,0.05930261614009042,0.3781419275125067,-0.9230367948102176,0.038664684177519525
-10344.631958007812,3752.0,-1632.0,15768.0,63.0,-1186.0,1187.0,-0.04187565201256662,0.2837937386915618,-0.9579114016479763,0.010643788836574028
-10344.647562503815,3684.0,-1448.0,15684.0,205.0,-1027.0,1338.0,-0.1326163598627248,0.17025188632567567,-0.9764327504449993,-0.002506024286262129
-10344.663153886795,3704.0,-1420.0,15512.0,181.0,-1481.0,1446.0,-0.25703779719654074,0.043864010436790286,-0.9650710575271901,-0.025404198946281955
-10344.678794622421,3744.0,-1480.0,15524.0,308.0,-1675.0,1562.0,-0.38807019898344536,-0.09640989347997922,-0.9156954456736945,-0.04010615753948525
-10344.694396018982,3644.0,-1628.0,15468.0,301.0,-1837.0,1708.0,-0.5140871257375368,-0.24370641907268406,-0.8204048367161649,-0.05707462086085012
-10344.709999322891,3608.0,-1804.0,15268.0,250.0,-2166.0,1842.0,-0.6353454189485619,-0.38582259574613326,-0.6648858801479279,-0.073511152981757
-10344.725587368011,3576.0,-1936.0,15324.0,182.0,-2433.0,1945.0,-0.7313729005171643,-0.5059445627569323,-0.4491750129267397,-0.08576472216517646
-10344.7411673069,3836.0,-2112.0,15252.0,178.0,-2649.0,2007.0,-0.7801723985868912,-0.5913036500211407,-0.18501429566643826,-0.08637553099057942
-10344.756761312485,4028.0,-2312.0,15632.0,268.0,-2659.0,2024.0,-0.7621487089510547,-0.635516792730321,0.09461545329308864,-0.07934524308457394
-10344.77234339714,4172.0,-2452.0,15784.0,316.0,-2580.0,1990.0,-0.6823175649684142,-0.6325306234832643,0.36007318115903586,-0.06852047213394769
-10344.787966966629,4292.0,-2676.0,15148.0,397.0,-2497.0,2038.0,-0.5482236556463443,-0.5839540943577249,0.5954753699477556,-0.0621089595645522
-10344.803541898727,4196.0,-2948.0,15232.0,567.0,-2772.0,2183.0,-0.34699295760914634,-0.48933828385513345,0.7983785047437245,-0.05230386684122493
-10344.819134950638,4168.0,-3100.0,14980.0,920.0,-3381.0,2361.0,-0.057552774468497485,-0.3453390693859492,0.9358200189064382,-0.040859485074806794
-10344.8347260952,4104.0,-3012.0,14992.0,1258.0,-3921.0,2539.0,0.2853224960920713,-0.1457624152159562,0.9466284059108685,-0.035200179784329946
-10344.850321054459,4664.0,-2764.0,14848.0,1306.0,-4334.0,2814.0,0.6063347895035823,0.09608935183738418,0.7892155931296166,-0.01623905976911886
-10344.865988016129,5104.0,-2408.0,15248.0,1842.0,-4305.0,2971.0,0.8026345050693471,0.3529592889237582,0.4804217891499565,-0.019811515451225854
-10344.881584405899,5592.0,-2008.0,15572.0,1885.0,-3725.0,2959.0,0.82719168903325,0.5501975915405387,0.11403227192656655,-0.005758542921200638
-10344.897176265717,5964.0,-1476.0,15764.0,1816.0,-2822.0,3079.0,0.7152638147879476,0.6601597880381793,-0.22172172681558908,0.058533796821085
-10344.912789106369,6080.0,-1132.0,15648.0,1622.0,-1937.0,3097.0,0.5368521462123659,0.6715825264278954,-0.4842297161300444,0.16213656379891064
-10344.928443670273,5820.0,-1328.0,15688.0,1434.0,-1456.0,2934.0,0.3339166207690287,0.6064597006238481,-0.6721751149436742,0.26246321026742697
-10344.944087266922,5708.0,-1816.0,15392.0,1363.0,-1368.0,2718.0,0.1145283176186697,0.4973813556958924,-0.7918360666929133,0.3353963251943132
-10344.959774255753,5556.0,-2400.0,15488.0,1506.0,-1431.0,2597.0,-0.1207875756275198,0.3599491022548685,-0.840096095402654,0.38740877100183896
-10344.97536611557,5384.0,-2856.0,15896.0,1764.0,-1579.0,2325.0,-0.35600079205904345,0.21538693859142477,-0.8037659712080459,0.42524365517375345
-10344.990951776505,5996.0,-3040.0,16340.0,2009.0,-1482.0,2567.0,-0.5660562504042749,0.026597460703982712,-0.6980249954499508,0.43776021083402417
-10345.006523370743,6172.0,-2896.0,16340.0,2207.0,-1154.0,2965.0,-0.7150955650799828,-0.20745581465368332,-0.5337777389891105,0.40085127307891866
-10345.022139310837,5976.0,-2392.0,16032.0,2050.0,-831.0,2980.0,-0.7810723004169869,-0.4234461747621039,-0.3387520018371134,0.30962312551230103
-10345.037734031677,6032.0,-1936.0,15776.0,2370.0,-630.0,3019.0,-0.7516540518003549,-0.6222787909417438,-0.11367483241955628,0.18671723335187
-10345.053387641907,6036.0,-1716.0,15788.0,2374.0,-471.0,3248.0,-0.6415016965502736,-0.7565920680390888,0.1248368524143908,0.021442392187514595
-10345.068976163864,5908.0,-1744.0,15828.0,2330.0,-383.0,3426.0,-0.46051572680934666,-0.797940739668678,0.35429084690819496,-0.16029297281957247
-10345.08456993103,5836.0,-2008.0,16104.0,2259.0,-239.0,3558.0,-0.2308806088643476,-0.7337755592119976,0.5443401159848829,-0.334606352723783
-10345.100152015686,5872.0,-2344.0,16372.0,2166.0,-188.0,3599.0,0.0205370268679607,-0.574398375172636,0.6715627574761858,-0.4675983317949734
-10345.115772485733,6020.0,-2364.0,16144.0,2219.0,48.0,3565.0,0.2577160777072889,-0.33747964179791096,0.7133536392186616,-0.5575091928180339
-10345.131353378296,6088.0,-2584.0,16156.0,2258.0,279.0,3442.0,0.44631015043860356,-0.0552843404755546,0.6689838333759408,-0.5917867200227505
-10345.14693236351,6180.0,-2444.0,15904.0,2386.0,617.0,3221.0,0.5544869202575338,0.24283557010463885,0.5516445448348641,-0.5738148109880103
-10345.162623405457,6180.0,-2052.0,16012.0,2415.0,1092.0,3035.0,0.5686409838844283,0.5287410966673963,0.3953566966411735,-0.4906866276585162
-10345.178187131882,6444.0,-1944.0,16140.0,2452.0,1622.0,2749.0,0.48807124346829134,0.7686711482560517,0.2301171405179194,-0.3434781343519483
-10345.193793535233,6476.0,-1884.0,16168.0,2419.0,2114.0,2494.0,0.3375015639351192,0.9284154661152487,0.07565716441958151,-0.1356960209119719
-10345.209360599518,6396.0,-2072.0,15924.0,2534.0,2740.0,2309.0,0.13206957425070323,0.9812280977964416,-0.05675663101814572,0.1285602290270386
-10345.224944114685,6112.0,-2356.0,16264.0,2643.0,3309.0,2374.0,-0.09626715428617832,0.8864547667613937,-0.1770515169806714,0.4166333421924935
-10345.240532159805,5636.0,-2536.0,16528.0,2788.0,3850.0,2463.0,-0.30991753747530176,0.6204565397081778,-0.2704980577757283,0.6676942436760693
-10345.256121873856,5652.0,-2808.0,16644.0,2816.0,4367.0,2962.0,-0.4715580935531312,0.19474527231789843,-0.3411470482106701,0.7895099333203545
-10345.271753072739,5176.0,-2100.0,17696.0,2307.0,4829.0,3242.0,-0.5181645780449551,-0.2892205805442284,-0.3824742996357387,0.7082163059174112
-10345.287343263626,4316.0,-1248.0,18396.0,1572.0,4614.0,3332.0,-0.47155884564781686,-0.6726323673791471,-0.3642309388591454,0.4387867097155609
-10345.302925348282,3328.0,-260.0,19128.0,558.0,4730.0,3262.0,-0.3692045528613743,-0.8755732987054026,-0.30898916280645194,0.03981323911389759
-10345.31850528717,2804.0,-28.0,19588.0,-202.0,4540.0,2990.0,-0.24627672523518862,-0.8721342186913584,-0.20547701016347342,-0.36947107801467377
-10345.334127902985,3052.0,136.0,19360.0,-478.0,4389.0,2516.0,-0.11227637045933957,-0.6996303041964592,-0.0848765847944788,-0.7005051173546648
-10345.349732637405,3612.0,-288.0,17796.0,-73.0,4671.0,1978.0,0.03548827667840521,-0.3911727849743649,-0.0049102175135488264,-0.9196196628377221
-10345.365337610245,3764.0,-688.0,16268.0,748.0,4990.0,1941.0,0.1980183760366432,0.010026840273937498,0.01518861241724287,-0.9800293318461291
-10345.380930662155,3212.0,-944.0,16116.0,1498.0,5273.0,2189.0,0.33512759927026686,0.43517642578551174,-0.02110747675582654,-0.8353834120168395
-10345.396512746811,1932.0,-244.0,17592.0,1716.0,6017.0,2226.0,0.3836337124475999,0.7958484224609153,-0.04739490058660014,-0.4660516994267171
-10345.412082910538,156.0,1180.0,19360.0,1247.0,6157.0,1649.0,0.33895494018728467,0.9405909254068684,-0.005651491010552715,0.019139493573313023
-10345.4276740551,-340.0,2340.0,19020.0,496.0,5339.0,657.0,0.2711886417401129,0.8556342972554072,0.08973152977888998,0.4316189552312762
-10345.443279981613,1076.0,2832.0,16468.0,285.0,3842.0,-194.0,0.21528916525338088,0.6785950483285841,0.1951406389160706,0.6745957802653801
-10345.458861589432,1356.0,1912.0,14760.0,508.0,3329.0,-525.0,0.15282074872982487,0.4629862894629581,0.30544973164514866,0.8179180741155464
-10345.474447965622,1204.0,616.0,14112.0,862.0,3083.0,-640.0,0.0783718526159906,0.22808552813764998,0.41726430601355236,0.8761993742857472
-10345.490037679672,1080.0,-488.0,14676.0,1128.0,2919.0,-356.0,-0.022345692246475424,-0.0004732460981084072,0.5114354812619242,0.8590309625284415
-10345.50561761856,1560.0,-636.0,15704.0,1642.0,2844.0,115.0,-0.15176405467354098,-0.2035726858214866,0.6044795695380244,0.7550697208255657
-10345.52120256424,1708.0,-804.0,16792.0,1928.0,3211.0,445.0,-0.30044071193733085,-0.39630704094286906,0.6618787478173735,0.560885577544478
-10345.536796569824,1424.0,-480.0,17128.0,1804.0,3595.0,577.0,-0.4467788990333313,-0.5525330387305417,0.636947590139729,0.29898766513846287
-10345.552393436432,660.0,704.0,16728.0,1529.0,4075.0,486.0,-0.5719934570993733,-0.645874546675903,0.5056358721454789,-0.00138556536664021
-10345.568025827408,-256.0,1472.0,15960.0,1302.0,4077.0,408.0,-0.6353071617884719,-0.6481828932688459,0.3041502727638394,-0.2893723529150395
-10345.583617687225,-1016.0,1884.0,15384.0,1028.0,3445.0,147.0,-0.634421608004922,-0.5859473902835692,0.091008471991393,-0.49587532419159097
-10345.599270820618,-1088.0,1816.0,15152.0,673.0,3231.0,2.0,-0.6012067351526595,-0.4643051212318084,-0.11241754049262837,-0.640572800386173
-10345.614857435226,-1288.0,1404.0,15884.0,416.0,3051.0,7.0,-0.5350944914295981,-0.30459481420073403,-0.285349134371137,-0.7344874103191714
-10345.63043475151,-1488.0,732.0,15936.0,194.0,2916.0,49.0,-0.4401337924962977,-0.12378299940501407,-0.4191200714095199,-0.7844095738214846
-10345.64601278305,-1340.0,384.0,16092.0,-24.0,2501.0,208.0,-0.32696510921022437,0.03990370086666636,-0.49927777389969863,-0.8013883056958413
-10345.661603689194,-1572.0,348.0,15276.0,-38.0,1949.0,314.0,-0.21678659351965263,0.16126758494797425,-0.5451199182015172,-0.7936249830336518
-10345.677186250687,-1772.0,712.0,15036.0,92.0,1791.0,459.0,-0.09980853021865356,0.25837764707712474,-0.5841197147665372,-0.7629439085591678
-10345.692772626877,-2160.0,1300.0,14756.0,252.0,1057.0,500.0,-0.018223812750450687,0.299413128487689,-0.6179073289335915,-0.7267807124492268
-10345.708378076553,-2304.0,1736.0,14820.0,-7.0,605.0,227.0,0.02893461973799739,0.3250044885575345,-0.623258755942626,-0.7106921931039647
-10345.723988294601,-1664.0,2132.0,15140.0,-531.0,323.0,-126.0,0.05367307880257813,0.3499707256323711,-0.5849257557840345,-0.7297270394008158
-10345.739584207535,-1236.0,2124.0,16012.0,-899.0,242.0,-276.0,0.07564753588992994,0.3738609115789912,-0.516135026122662,-0.7668833704785014
-10345.755204677582,-980.0,1912.0,16712.0,-1228.0,318.0,-903.0,0.06897820343081199,0.42374019617827324,-0.3985812060415846,-0.810443875777152
-10345.770796775818,-792.0,1476.0,16752.0,-1389.0,482.0,-1079.0,0.06004803311020624,0.48083861147943524,-0.25419764098852327,-0.8370018057005578
-10345.78641986847,-1108.0,404.0,16636.0,-1345.0,416.0,-1186.0,0.03859114886081835,0.5236272059701952,-0.10257209021788993,-0.8448693619168481
-10345.802029848099,-1500.0,-284.0,15952.0,-1085.0,146.0,-1178.0,0.002590092971796301,0.5358595520298706,0.03151120258054598,-0.8437149258065024
-10345.817596912384,-1648.0,-656.0,15500.0,-1011.0,-304.0,-910.0,-0.016188247159043552,0.5068237152304435,0.14737391319193607,-0.8492046820669464
-10345.833195209503,-1920.0,-732.0,15568.0,-449.0,-903.0,-800.0,-0.04373636877809977,0.4273628410840159,0.21591411467645355,-0.8768290752422546
-10345.848769187927,-1704.0,-544.0,15884.0,-132.0,-1228.0,-576.0,-0.059336230011805095,0.32058360321697094,0.2503270524729101,-0.9116149033208236
-10345.864362478256,-1476.0,68.0,16168.0,20.0,-1253.0,-740.0,-0.09066737441203057,0.20281011678694458,0.27357328344206266,-0.9358446144167435
-10345.879971265793,-1120.0,316.0,16696.0,37.0,-1363.0,-267.0,-0.07999744233216256,0.08406236244144666,0.28376346126167,-0.9518467452767131
-10345.89555811882,-744.0,796.0,16760.0,-12.0,-1472.0,-498.0,-0.08405469737383539,-0.05007422189107621,0.29572080004623147,-0.9502508029838297
-10345.911141872406,-340.0,824.0,16732.0,-57.0,-1669.0,-522.0,-0.0835583176582966,-0.19920123597166609,0.3065989199380405,-0.9270026846942262
-10345.926829576492,-164.0,576.0,16556.0,-102.0,-1551.0,-385.0,-0.0742665904168629,-0.33091961223663763,0.31619888211259034,-0.8859994078642239
-10345.942461013794,-124.0,64.0,16464.0,-175.0,-1907.0,-265.0,-0.04653434071645873,-0.4776930363727893,0.3296493424999144,-0.8130038309407919
-10345.958057165146,4.0,-328.0,16500.0,-123.0,-1985.0,-162.0,-0.00595611261313324,-0.613378659341117,0.33457311564675385,-0.7153963763354254
-10345.973643302917,224.0,-580.0,16260.0,-70.0,-2183.0,-146.0,0.04413848025740517,-0.7404565579115828,0.3263169521922527,-0.5859122179288093
-10345.989236354828,4.0,-544.0,16008.0,35.0,-2305.0,-129.0,0.10339428664117781,-0.844854025813985,0.3012309023609887,-0.42987351630293374
-10346.004802703857,60.0,-156.0,16068.0,-22.0,-2428.0,-1.0,0.16200074966254552,-0.9158238580872935,0.2739736591736736,-0.24486905101679501
-10346.020412445068,212.0,216.0,16084.0,-82.0,-2507.0,-262.0,0.20492243151557948,-0.9539860756190711,0.21419423804256077,-0.04514635063915255
-10346.036072731018,260.0,708.0,16220.0,-192.0,-2464.0,-983.0,0.22517132664134432,-0.9599694515375873,0.08670239596680712,0.1422646136845553
-10346.051671981812,324.0,772.0,16432.0,-227.0,-2358.0,-1457.0,0.23528728786834605,-0.9194514109549636,-0.08217702061531557,0.3041314392549293
-10346.06727051735,396.0,936.0,16624.0,-330.0,-2238.0,-2043.0,0.23871133497465893,-0.8234726606013587,-0.2907604389855332,0.42469758995981577
-10346.082868814468,632.0,720.0,16560.0,-473.0,-2470.0,-2534.0,0.2253077367497675,-0.6467162116519284,-0.5173608176870429,0.5131591855062813
-10346.098464012146,520.0,420.0,16072.0,-696.0,-2878.0,-2912.0,0.1753504015642995,-0.37597799444091967,-0.7234266180950775,0.5518575111375595
-10346.114057064056,860.0,208.0,15824.0,-997.0,-3238.0,-3198.0,0.08544208495770042,-0.0308143244038623,-0.857707354737049,0.5060515993054353
-10346.129656791687,816.0,-472.0,15948.0,-1222.0,-3420.0,-3434.0,-0.020341904117036354,0.33754210322423395,-0.8674252095649136,0.365000056574132
-10346.145277738571,1404.0,-896.0,15932.0,-1299.0,-3517.0,-3645.0,-0.12029890217544241,0.6621901577593451,-0.723355368886548,0.1542380608184731
-10346.160879135132,1760.0,-968.0,16188.0,-1408.0,-3437.0,-3815.0,-0.18552873184538415,0.8743253699874235,-0.440435221157437,-0.08456389903615924
-10346.176460027695,1996.0,-780.0,16192.0,-1562.0,-3413.0,-4065.0,-0.20491931365660512,0.9281243585740256,-0.05705848945362888,-0.305511994352643
-10346.192068099976,2236.0,-628.0,15872.0,-1840.0,-3382.0,-4206.0,-0.16552240093127404,0.7983311729793627,0.3520799224804839,-0.4596840232436603
-10346.20764040947,2088.0,-572.0,15668.0,-2055.0,-3163.0,-4292.0,-0.08712251046342705,0.5093034048370031,0.6973972626915518,-0.49664551541548874
-10346.223217487335,1800.0,-788.0,15648.0,-2644.0,-2954.0,-4339.0,0.019684699406287583,0.12203435857392712,0.9140839353645995,-0.386226212270867
-10346.23882317543,2092.0,-1108.0,16484.0,-2490.0,-2581.0,-3709.0,0.11589082464855104,-0.24183757731675629,0.9419685515508671,-0.20193848283326832
-10346.25445985794,2140.0,-1788.0,18400.0,-2283.0,-2274.0,-3149.0,0.18536268685385845,-0.5248299237972612,0.8307774120534763,0.001765511542833995
-10346.27007818222,2380.0,-2392.0,19204.0,-1087.0,-2258.0,-2940.0,0.2840793001721036,-0.7156859074420705,0.624797937191262,0.12930649938843755
-10346.285668849945,2372.0,-2300.0,19000.0,102.0,-2558.0,-3060.0,0.4387071698477143,-0.8038081493813567,0.35066285880060744,0.19612250653638114
-10346.30129289627,2208.0,-1668.0,18404.0,826.0,-2174.0,-3271.0,0.5844455651107847,-0.7880678926510465,0.04907954799921235,0.18698549666502762
-10346.316886663437,1952.0,-588.0,17168.0,890.0,-1803.0,-3425.0,0.6702436194561395,-0.6876663603140135,-0.24943874972482988,0.12517498794297782
-10346.332510948181,1616.0,348.0,16148.0,580.0,-1350.0,-3502.0,0.6777540890897384,-0.5340494637424187,-0.5052376038234662,0.0132487237610373
-10346.348087310791,1752.0,608.0,15632.0,315.0,-930.0,-3473.0,0.6252469922448229,-0.34440223735039144,-0.6883876239594623,-0.12874694860963803
-10346.36375951767,1356.0,488.0,14984.0,511.0,-717.0,-3584.0,0.530494985332826,-0.10390280646807386,-0.8004313707724207,-0.25901524670985365
-10346.379343271255,1492.0,232.0,15152.0,272.0,-694.0,-3686.0,0.3812050009976247,0.14304922805140183,-0.8285836624983622,-0.3842769571664414
-10346.39491033554,1628.0,-96.0,15500.0,67.0,-645.0,-3882.0,0.19251758110911998,0.3824716084094728,-0.7601558282026779,-0.488687596091885
-10346.410492658615,1876.0,-464.0,15648.0,-337.0,-507.0,-3767.0,0.008981786237579238,0.5741060931881867,-0.5962777737958467,-0.5610475360940896
-10346.426074504852,2020.0,-700.0,15956.0,-715.0,-326.0,-3638.0,-0.14296499075487798,0.710347206070183,-0.3606002050282104,-0.5873119702341808
-10346.441647052765,2128.0,-1152.0,16464.0,-1015.0,-205.0,-3221.0,-0.2413322579191473,0.7805051023116533,-0.10189039922524208,-0.5676168365181238
-10346.457233905792,2048.0,-1392.0,16948.0,-975.0,-21.0,-2878.0,-0.3071153377173366,0.797937794045566,0.13818741855764285,-0.49987966904529846
-10346.472878694534,2208.0,-1796.0,17608.0,-641.0,169.0,-2464.0,-0.3631847064098783,0.7737483916474047,0.3252858300274409,-0.4044742565805445
-10346.488503694534,2256.0,-2132.0,18156.0,-130.0,304.0,-1915.0,-0.42465400245801516,0.723828267295986,0.443237801644974,-0.3150902550898863
-10346.504089593887,2164.0,-2108.0,17964.0,360.0,494.0,-1456.0,-0.5018932129640836,0.6614263892256391,0.5022476160650607,-0.24158987266333426
-10346.519697904587,2096.0,-1656.0,17460.0,582.0,638.0,-1188.0,-0.5838276532627013,0.5923897439622297,0.5262698369688019,-0.17680418895196434
-10346.535293579102,2168.0,-1264.0,16784.0,502.0,548.0,-1158.0,-0.6482673405953108,0.5182736478743626,0.5464967131661319,-0.11172834705256848
-10346.550886631012,1972.0,-500.0,16080.0,492.0,443.0,-1267.0,-0.6986949957111831,0.430896437294258,0.5694673373568561,-0.043133687286831035
-10346.566499233246,1976.0,-176.0,15804.0,-89.0,226.0,-1625.0,-0.7055859848177913,0.35271644451766637,0.6108091008970973,0.06820388593623757
-10346.582085371017,2248.0,-8.0,15436.0,-290.0,184.0,-1911.0,-0.6854224689331736,0.2637675258310879,0.6472634579349509,0.20413903943290526
-10346.597680091858,2668.0,-696.0,15516.0,-273.0,175.0,-1924.0,-0.6455505396849677,0.1658470598898854,0.6665213439544656,0.33392896174405257
-10346.613328456879,2840.0,-772.0,16040.0,-181.0,87.0,-1677.0,-0.5928047754986118,0.07510972057988315,0.6732260626544602,0.43555447028267935
-10346.628910303116,3048.0,-1380.0,16476.0,-84.0,96.0,-1299.0,-0.5450811743502717,-0.0005216619603951435,0.669132059112247,0.5051222908424575
-10346.644527196884,3216.0,-1728.0,16668.0,30.0,42.0,-821.0,-0.5101153955053084,-0.05159706953504471,0.6665839237828283,0.5410969397789522
-10346.660145998001,3196.0,-2200.0,16744.0,319.0,114.0,-502.0,-0.49100811867336325,-0.1002202076933534,0.6732611077676887,0.5436785981939791
-10346.675750732422,3092.0,-2288.0,16532.0,676.0,208.0,373.0,-0.5138607463149635,-0.11681833175567174,0.6978895167556981,0.4850266313976467
-10346.691359758377,2884.0,-2120.0,16256.0,918.0,160.0,772.0,-0.5439996956366091,-0.11705010562764905,0.7332791290638043,0.3907241006122626
-10346.706945419312,2636.0,-1720.0,15872.0,994.0,78.0,1588.0,-0.5853061811193578,-0.06437667864852163,0.7693805499795838,0.24764064065248223
-10346.722638845444,2436.0,-1388.0,15908.0,776.0,-6.0,1998.0,-0.6131919422829873,0.029795554405331194,0.7840035279994333,0.09190394410110082
-10346.738232135773,2448.0,-1088.0,15900.0,925.0,-177.0,2283.0,-0.6079363013522306,0.13485243809346595,0.7770291492317946,-0.09194549843538449
-10346.753831624985,2420.0,-808.0,16000.0,811.0,-307.0,2352.0,-0.5645260465115497,0.2431177741507061,0.7415011177837559,-0.26903565382210287
-10346.769495248795,2308.0,-540.0,15944.0,672.0,-429.0,2359.0,-0.4844025790304158,0.34454323220199506,0.6808224552965431,-0.4279309371107335
-10346.785101175308,2740.0,-312.0,16188.0,570.0,-495.0,2187.0,-0.3827889965532882,0.42332767074812006,0.6024496166809933,-0.5579612232562604
-10346.800736665726,2852.0,-284.0,15904.0,575.0,-507.0,1970.0,-0.27682187538545544,0.47493482184827024,0.5099103406507484,-0.6616630628964179
-10346.816314697266,2860.0,-356.0,16316.0,565.0,-432.0,2034.0,-0.16077308164462772,0.5177003296200797,0.39637294807693707,-0.7409634747830346
-10346.831941127777,2772.0,-272.0,16368.0,596.0,-344.0,1604.0,-0.07127128557753457,0.5362861043825335,0.28679372894261634,-0.7906117727035948
-10346.847541570663,2660.0,-636.0,16468.0,680.0,-257.0,1364.0,-0.002535516231523885,0.5434095513513736,0.1759651037442289,-0.8208141768523625
-10346.863154888153,2768.0,-640.0,16484.0,755.0,-143.0,1173.0,0.04752759141967199,0.5467816342678349,0.06573645234278086,-0.8333364814494958
-10346.87878870964,2584.0,-604.0,16572.0,831.0,61.0,977.0,0.07809604668547966,0.5566270223707954,-0.04084559229643105,-0.8260744536957155
-10346.894394397736,2688.0,-548.0,16772.0,865.0,268.0,749.0,0.09056663733404902,0.5760024271303307,-0.1370538285528107,-0.8007715880455473
-10346.910014152527,2668.0,-384.0,16788.0,854.0,392.0,526.0,0.08870992101415776,0.6010771573170937,-0.21910399919654422,-0.7634331918389091
-10346.92568898201,2648.0,-344.0,16676.0,782.0,550.0,366.0,0.08227956462854362,0.6341465770916985,-0.284993277115383,-0.7140497349670079
-10346.941363573074,2604.0,-428.0,16492.0,702.0,609.0,76.0,0.06311627989887868,0.6729433598394277,-0.32746671888460366,-0.6602492844999537
-10346.956953048706,2308.0,-516.0,16360.0,615.0,600.0,5.0,0.04431792294065544,0.7087095344291664,-0.35886290016411176,-0.6057921561073759
-10346.972592830658,2416.0,-728.0,16368.0,597.0,592.0,44.0,0.028189995373229262,0.7389000950744788,-0.389789766972965,-0.5489042823871434
-10346.98818564415,2584.0,-800.0,16152.0,534.0,494.0,125.0,0.01651791928015994,0.7580182172667759,-0.42133125551892925,-0.49760980070452365
-10347.003819227219,2672.0,-852.0,16148.0,545.0,502.0,262.0,0.010280882024033629,0.7691344674513205,-0.4605206134529208,-0.44299801244263737
-10347.01943731308,2632.0,-916.0,16372.0,561.0,263.0,501.0,0.002560317401928537,0.7578129363406716,-0.5143620364312969,-0.40142831709756066
-10347.035075187683,2776.0,-892.0,16248.0,609.0,517.0,640.0,0.007887533966025284,0.7443463084230914,-0.5756228147175522,-0.33844458205368505
-10347.050668001175,3048.0,-772.0,16428.0,657.0,491.0,763.0,0.012360668057214742,0.7175310272968153,-0.6412093890585164,-0.2717479680416402
-10347.06629395485,2772.0,-760.0,16320.0,689.0,487.0,800.0,0.015370798076504677,0.6815393995509139,-0.7035205147127802,-0.20081501638208207
-10347.081938505173,2728.0,-604.0,16432.0,683.0,451.0,735.0,0.015258103667334974,0.6422646105257164,-0.7551425876945611,-0.13047234415265546
-10347.097536087036,2648.0,-492.0,16324.0,686.0,426.0,669.0,0.012457080202568954,0.6014134340320798,-0.7965666817830571,-0.060234740737367724
-10347.113173007965,2568.0,-436.0,16288.0,648.0,419.0,604.0,0.010720355330554135,0.5602743809022833,-0.8282041788705887,0.0074518579860161464
-10347.128763437271,2624.0,-472.0,16176.0,627.0,403.0,582.0,0.00879335336750707,0.516763108233591,-0.8529821741809199,0.07280094391491515
-10347.144346475601,2812.0,-364.0,16152.0,546.0,332.0,630.0,0.004877927818110297,0.46673120365715876,-0.8749940552964256,0.1285441268547764
-10347.159955501556,2368.0,-372.0,16208.0,490.0,264.0,613.0,-0.0017846814194215422,0.41606822004607114,-0.8920268441992387,0.17655639441230153
-10347.17556643486,2364.0,-368.0,16272.0,441.0,217.0,541.0,-0.009213934475074468,0.3697740975617715,-0.9030690449849799,0.2182854098967293
-10347.191123485565,2296.0,-404.0,16476.0,415.0,200.0,478.0,-0.015916312380793177,0.32739571444378,-0.9092152814343019,0.2566832467661012
-10347.206720590591,2216.0,-428.0,16436.0,443.0,114.0,399.0,-0.02842217191697258,0.2921452306621966,-0.909560517891491,0.2941819311885364
-10347.222291707993,2220.0,-356.0,16400.0,492.0,119.0,356.0,-0.0405980661247739,0.2592219251181012,-0.9049621273085141,0.3349616973658971
-10347.237939834595,2212.0,-368.0,16528.0,516.0,103.0,367.0,-0.05477881289327372,0.22503398113661635,-0.8971148774223299,0.3762231860203821
-10347.253538370132,2292.0,-324.0,16732.0,559.0,197.0,353.0,-0.06181090368816826,0.1879036826515576,-0.8849998251129235,0.42148182378523685
-10347.26916885376,2344.0,-356.0,16744.0,551.0,287.0,341.0,-0.06110397616942218,0.14774267246472353,-0.8701685047331952,0.4660956770875089
-10347.284766435623,2412.0,-384.0,16724.0,528.0,386.0,321.0,-0.051546230032344716,0.1046257363893689,-0.8531160408983364,0.5085169242182438
-10347.300377368927,2360.0,-404.0,16884.0,563.0,472.0,322.0,-0.03573905558890041,0.05702189064534818,-0.8311006517341075,0.5520352620802272
-10347.315992355347,2352.0,-356.0,16388.0,627.0,506.0,290.0,-0.01607194325740782,0.009620629049145932,-0.8016086448853313,0.5975556179819014
-10347.331590175629,2316.0,-360.0,16300.0,657.0,504.0,314.0,0.002269136392268007,-0.03943597592364855,-0.7659489596580722,0.6416867195304103
-10347.347222805023,2140.0,-332.0,16256.0,659.0,434.0,344.0,0.014259948085502686,-0.08635713330082138,-0.7256332737320382,0.6824920889369985
-10347.362812280655,2172.0,-384.0,16252.0,619.0,314.0,353.0,0.017760038974490897,-0.12633701660847987,-0.6840275048205264,0.7182129989766949
-10347.378437757492,2060.0,-328.0,15896.0,568.0,187.0,458.0,0.006478206048164465,-0.16413844739556316,-0.6415831363375162,0.7492580877776949
-10347.39402270317,2128.0,-236.0,16288.0,565.0,47.0,257.0,0.0004111515831687647,-0.18097277299694325,-0.5999190906499723,0.7793239192158051
-10347.409593105316,2164.0,-308.0,16328.0,462.0,-2.0,535.0,-0.02872076996216928,-0.2083831461671572,-0.5588494116016227,0.8021464435617585
-10347.425181388855,1988.0,-332.0,16248.0,404.0,-128.0,615.0,-0.07051850547206232,-0.22987703638961107,-0.517821089533322,0.8210024407766637
-10347.440769672394,1932.0,-304.0,16188.0,368.0,-199.0,663.0,-0.11935965864420668,-0.24718803739835482,-0.4756679085379353,0.8356981433763236
-10347.456371068954,2024.0,-504.0,16304.0,382.0,-268.0,631.0,-0.16788155853185321,-0.25711555716877016,-0.43024276646943554,0.8488807539739819
-10347.47205376625,2040.0,-288.0,16296.0,407.0,-283.0,708.0,-0.22121447173028902,-0.2678236277100145,-0.37882204789265145,0.8578044753717217
-10347.48766207695,2216.0,-328.0,16392.0,394.0,-286.0,776.0,-0.27868659380652333,-0.2786513978900152,-0.3244707877642562,0.8598871372302885
-10347.503288269043,2188.0,-324.0,16500.0,402.0,-235.0,956.0,-0.34585105780034525,-0.29643597336307637,-0.2640448601766399,0.850172377420583
-10347.518895864487,2072.0,-464.0,16536.0,482.0,-251.0,1229.0,-0.4274617072458757,-0.3183194993341114,-0.18747722949568563,0.8251069467667472
-10347.534494400024,2160.0,-444.0,16492.0,508.0,-233.0,1406.0,-0.5139936804230564,-0.34033419154237265,-0.1021343182143976,0.7807379301630226
-10347.550081014633,2268.0,-376.0,16544.0,542.0,-189.0,1622.0,-0.6033962499608109,-0.3619396983433057,-0.008368087556970131,0.7105227620611646
-10347.565721035004,2352.0,-372.0,16544.0,518.0,-121.0,2047.0,-0.7022719102252148,-0.37660990620165957,0.09325044993627268,0.5968948787232872
-10347.581349849701,2452.0,-416.0,16680.0,535.0,253.0,1966.0,-0.7768858384107891,-0.39998376486819626,0.16755429979089156,0.456494182372802
-10347.596935033798,2460.0,-368.0,16756.0,601.0,213.0,2125.0,-0.828402470527623,-0.4103178242631941,0.246620897398225,0.2908036500495544
-10347.612523794174,2512.0,-420.0,16672.0,687.0,423.0,2327.0,-0.8526017520970363,-0.4110644343815783,0.3096725101417163,0.09054954207584608
-10347.62810254097,2452.0,-412.0,16876.0,797.0,624.0,2488.0,-0.8379253208085525,-0.39712739300442124,0.3492484917584861,-0.1348943344911816
-10347.643744945526,2312.0,-224.0,16540.0,909.0,808.0,2594.0,-0.7766890371412938,-0.36367149429179185,0.35823191152762957,-0.36900824027027584
-10347.659344911575,2224.0,-80.0,16424.0,934.0,817.0,2701.0,-0.6637022786863743,-0.30594427824838,0.34688785003085737,-0.5878487929515221
-10347.674982309341,2204.0,-24.0,16512.0,974.0,912.0,2738.0,-0.5072650402602555,-0.22472420599613332,0.3063909385197542,-0.7735022966754221
-10347.690643548965,2080.0,28.0,16492.0,979.0,915.0,2864.0,-0.30771755392940925,-0.12490323050956247,0.24653334580302996,-0.9104561490918385
-10347.706238031387,2032.0,68.0,16336.0,1015.0,935.0,2910.0,-0.08237282470867495,-0.014606257813834327,0.16579157123427543,-0.9826059891379962
-10347.72184586525,1932.0,84.0,16368.0,1065.0,953.0,2920.0,0.1496736465698232,0.09777154431102417,0.06833403486016665,-0.9815136190217937
-10347.737450361252,1828.0,148.0,16596.0,1031.0,900.0,2885.0,0.3685993084140809,0.19772589019295825,-0.03178151129526293,-0.9077604076648489
-10347.753056287766,1992.0,228.0,16356.0,1041.0,849.0,2859.0,0.55870133084387,0.27981702725792684,-0.13138218972790755,-0.7696063762678459
-10347.768748044968,1680.0,264.0,16488.0,1067.0,522.0,2873.0,0.7061553481563738,0.32207462214468663,-0.23905475676885599,-0.5834941176281822
-10347.784356117249,1536.0,216.0,16724.0,1113.0,516.0,2993.0,0.8066333608714119,0.34098214925505704,-0.3348788373213177,-0.3477498516649793
-10347.799957752228,1380.0,212.0,16888.0,1163.0,871.0,3136.0,0.8547308729239003,0.342253918375989,-0.3849353561770725,-0.06420406367092256
-10347.815532684326,1188.0,12.0,17288.0,1026.0,1084.0,3403.0,0.8367644170424161,0.2952614461643866,-0.39127569314100474,0.2440272950667747
-10347.83111667633,1124.0,-20.0,17348.0,1414.0,1338.0,3671.0,0.7219004038756405,0.2298831806881881,-0.33644003423470126,0.5593045981261213
-10347.846689462662,1068.0,232.0,17052.0,1482.0,1790.0,3858.0,0.5178675229738209,0.11396708875110442,-0.2126710689385806,0.8207287906288403
-10347.862258195877,956.0,208.0,16572.0,1445.0,1551.0,4213.0,0.21317545245744665,-0.00937171409314889,-0.07462212069002835,0.9741149503771318
-10347.877873182297,688.0,364.0,15996.0,1428.0,1482.0,4604.0,-0.15320257958017222,-0.12690290187529593,0.07176781432896366,0.977381196837781
-10347.893505573273,620.0,508.0,15748.0,1412.0,1227.0,5097.0,-0.5241887294630042,-0.19721351408093313,0.20979648849040516,0.801447714567149
-10347.909131288528,628.0,240.0,16024.0,1259.0,972.0,5450.0,-0.8078761034364539,-0.19964914670482017,0.31094833803638255,0.45911605372583186
-10347.924791812897,988.0,176.0,16228.0,1270.0,985.0,5659.0,-0.9245855703630583,-0.15562480695468403,0.3476572176670582,0.0075433109928629595
-10347.940415620804,1488.0,100.0,16600.0,1301.0,1275.0,5600.0,-0.8443648774507327,-0.08130475563604979,0.2859133391910989,-0.4457477458284752
-10347.956054449081,1900.0,100.0,16944.0,1212.0,1819.0,5447.0,-0.5956787793780631,0.03215547103215014,0.12735273627849175,-0.7924103091478191
-10347.971687316895,2024.0,364.0,16768.0,1078.0,2178.0,5199.0,-0.23551578197899362,0.16479446106827675,-0.06728588653149029,-0.9554306419168849
-10347.987584114075,1780.0,580.0,16492.0,742.0,2276.0,4998.0,0.165593257516577,0.2788023449691792,-0.22303705629066875,-0.919294619273891
-10348.003293991089,1392.0,600.0,15884.0,281.0,2175.0,4784.0,0.5316042107116918,0.33081911050149215,-0.3002827384123452,-0.7195734544104471
-10348.01889538765,1164.0,512.0,15948.0,-41.0,1738.0,4544.0,0.7950935833559402,0.29344525057276427,-0.32045073985964384,-0.42311629836949677
-10348.03450679779,1056.0,276.0,15872.0,-234.0,1158.0,4274.0,0.9245681837325177,0.18676398517149354,-0.317789851620559,-0.09644945660499472
