programtime,ax,ay,az,gx,gy,gz,q0,q1,q2,q3
-1134.6059951782227,4780.0,-4120.0,-15040.0,-88.0,99.0,82.0,0.9999080537245622,-0.007894172187722792,0.008388645299833348,0.007155191979427803
-1134.621589422226,4844.0,-3924.0,-15064.0,-198.0,146.0,83.0,0.999356112911295,-0.025415085113704057,0.020810519913349073,0.014434517533545528
-1134.6371734142303,4920.0,-4072.0,-15104.0,-77.0,88.0,63.0,0.9988777374931955,-0.032368199997218,0.028303568156986335,0.019861349375044246
-1134.652762889862,5056.0,-3900.0,-15028.0,-114.0,169.0,169.0,0.9975786875362957,-0.04241505192651736,0.043083247044111476,0.034373818053407834
-1134.6683497428894,4832.0,-3992.0,-15172.0,-100.0,230.0,245.0,0.9951427847641682,-0.05113345035184986,0.06349173078430706,0.05518159393262094
-1134.6839759349823,4728.0,-4076.0,-15052.0,-32.0,90.0,-92.0,0.9948746595793783,-0.055137993216191034,0.07057660524868063,0.04693779098423215
-1134.6995842456818,4856.0,-3988.0,-15060.0,-87.0,79.0,-232.0,0.9946574780252636,-0.0647165421741212,0.0757882769997389,0.026914822066257962
-1134.7151794433594,4980.0,-4084.0,-14960.0,-32.0,62.0,-142.0,0.9942968686358393,-0.0688683953859864,0.08014378872930024,0.014417151800457322
-1134.730800628662,5060.0,-4028.0,-14968.0,-90.0,139.0,-6.0,0.9926773139527884,-0.07718535815768857,0.09191134378938129,0.013655611754040536
-1134.7464091777802,4912.0,-4024.0,-15064.0,-46.0,91.0,-27.0,0.9916135123316787,-0.08180077160408374,0.09944598923946206,0.01103499661954593
-1134.7620105743408,4972.0,-4040.0,-15200.0,-142.0,82.0,-215.0,0.9897993164128985,-0.09631889137948298,0.1047450831376571,-0.006960743528607651
-1134.777568101883,4972.0,-4316.0,-15172.0,-49.0,136.0,100.0,0.9880660357873097,-0.09986008113119015,0.11727142975599938,0.0009406822028959787
-1134.793214559555,4820.0,-3864.0,-15056.0,-83.0,54.0,-105.0,0.9866924626901298,-0.10840687919737726,0.12093568414834172,-0.007777718993701698
-1134.8087859153748,4636.0,-4140.0,-15084.0,-19.0,-56.0,-350.0,0.9863590960599197,-0.11404225392924226,0.11271854778841696,-0.03721057541972292
-1134.8243880271912,5152.0,-3804.0,-15036.0,-132.0,59.0,-254.0,0.9832849924203981,-0.1279869299862374,0.11558952812224581,-0.05838690282924716
-1134.840005159378,5068.0,-4060.0,-15016.0,-185.0,268.0,353.0,0.9794155371670907,-0.13913322078678036,0.14329038023567364,-0.029240714100590464
-1134.8555617332458,4640.0,-4156.0,-15028.0,-22.0,51.0,219.0,0.9788347131483766,-0.13844129025585744,0.15032478285918194,-0.010912064257902329
-1134.8711392879486,4852.0,-3904.0,-15088.0,-134.0,-6.0,-352.0,0.9763810179925283,-0.15474881188247905,0.14559498957002082,-0.03917922838623343
-1134.8867177963257,5084.0,-4064.0,-14852.0,-85.0,63.0,-251.0,0.9732459622146818,-0.16523904006987017,0.14779683625680287,-0.06036929568982599
-1134.9022932052612,5028.0,-3960.0,-15072.0,-121.0,128.0,48.0,0.9699221175948229,-0.1745211765931911,0.15996191951164607,-0.0566182746739302
-1134.9178984165192,4888.0,-4036.0,-15172.0,-64.0,100.0,34.0,0.9676008675663645,-0.17927945840461357,0.16925238326398506,-0.054415692942642695
-1134.9335644245148,4764.0,-3956.0,-15104.0,-114.0,10.0,-213.0,0.9643740829806572,-0.19227978901240922,0.16728193627078974,-0.07090743691641258
-1134.9492211341858,4868.0,-4156.0,-15312.0,-27.0,-22.0,-284.0,0.9621126763289646,-0.19909020639180255,0.16079307539819457,-0.09406314193124325
-1134.9648489952087,5036.0,-3904.0,-15056.0,-144.0,61.0,-180.0,0.9569943028373695,-0.21347705023308627,0.16393321488496682,-0.1082374908156907
-1134.980481147766,4992.0,-4076.0,-15028.0,-75.0,84.0,-41.0,0.953876958988635,-0.21983874725567196,0.17088796378151203,-0.11219169376678112
-1134.996125459671,4864.0,-3920.0,-15356.0,-58.0,21.0,-231.0,0.9498981852996917,-0.22817183249771328,0.16875208555449192,-0.13097246290727532
-1135.0117542743683,4992.0,-4064.0,-15024.0,-23.0,17.0,-499.0,0.942502171405919,-0.23732163877733253,0.16034524823643298,-0.1722135245303514
-1135.0273599624634,5068.0,-3864.0,-15160.0,-120.0,73.0,-95.0,0.9373743294909593,-0.24771109683118597,0.1661727418738094,-0.17987550910617417
-1135.0429546833038,4940.0,-4020.0,-15356.0,-45.0,133.0,86.0,0.9356337307173529,-0.24834548892514532,0.17961474564902893,-0.17507879146228103
-1135.0585870742798,4828.0,-3968.0,-15172.0,-105.0,61.0,-198.0,0.929087197462489,-0.2593480252728937,0.18189700871443454,-0.19091636786585237
-1135.0741739273071,4924.0,-4028.0,-15152.0,-83.0,-23.0,-364.0,0.920915118797146,-0.27240305882348703,0.17311000150192732,-0.21850593789288353
-1135.0898170471191,5088.0,-4044.0,-15036.0,-63.0,150.0,-22.0,0.9165345660445213,-0.2752202237399592,0.18584001689557192,-0.22289393399184568
-1135.105392217636,4928.0,-4056.0,-15044.0,-63.0,102.0,-138.0,0.9104592190360182,-0.2807853478498462,0.19191337778899525,-0.23535686590958707
-1135.120979309082,4852.0,-4144.0,-15040.0,-59.0,-62.0,-389.0,0.9014048607798254,-0.29338930867747487,0.1785945616970505,-0.2636208888697846
-1135.1365613937378,5360.0,-3956.0,-15124.0,-81.0,66.0,-85.0,0.8961722532971776,-0.29985370244218035,0.18347748578566012,-0.2707379946770466
-1135.1521501541138,4948.0,-3844.0,-15176.0,16.0,208.0,303.0,0.8998447697985353,-0.2889951097009513,0.20721774788133343,-0.252630207612123
-1135.1833834648132,5048.0,-4084.0,-15160.0,-240.0,130.0,113.0,0.8935165004448387,-0.3031337855600577,0.22553248854044045,-0.24263814229752467
-1135.1989905834198,5008.0,-4100.0,-15132.0,16.0,216.0,347.0,0.8963465002190574,-0.29059987386680103,0.2511059253303299,-0.221496002486829
-1135.2146542072296,4816.0,-4040.0,-15112.0,-237.0,90.0,-88.0,0.8862906022476374,-0.3095357261320449,0.26049133500637317,-0.2254348398141363
-1135.230251789093,4820.0,-4224.0,-15288.0,-48.0,19.0,-150.0,0.8813940298664225,-0.3165455495554223,0.2588992108994625,-0.2364628464856993
-1135.2458436489105,4876.0,-3836.0,-15060.0,-181.0,93.0,37.0,0.8747776310146947,-0.32795008862134367,0.27083187608370973,-0.23208388687401263
-1135.2615005970001,4932.0,-4120.0,-15056.0,-98.0,224.0,282.0,0.8717899209091344,-0.3243474556111129,0.29789783639299905,-0.21456453787197047
-1135.2770874500275,4680.0,-3956.0,-15068.0,-168.0,0.0,-343.0,0.8599858766983686,-0.3461330534610068,0.29125858825828654,-0.2361877133698706
-1135.292757987976,5064.0,-4040.0,-15124.0,-124.0,24.0,-159.0,0.8520684886301806,-0.3592118640552745,0.290839128512594,-0.24568013499558633
-1135.308352947235,5348.0,-3928.0,-15024.0,-67.0,225.0,278.0,0.8496398298485252,-0.35242159670660295,0.31762542676021943,-0.23027215633924622
-1135.323937177658,4788.0,-3976.0,-15020.0,-110.0,197.0,131.0,0.8430536964517159,-0.3531720339775569,0.33846970517826935,-0.22353576445792447
-1135.3395245075226,4760.0,-3968.0,-15132.0,-118.0,242.0,-301.0,0.8257191126559528,-0.36606409732228357,0.3491753839748675,-0.249522694102744
-1135.3550655841827,5060.0,-3964.0,-15104.0,-151.0,-249.0,-176.0,0.8241183519976045,-0.38782586266521507,0.32884563679057066,-0.24956079281918103
-1135.370679140091,5096.0,-3980.0,-15124.0,-61.0,145.0,80.0,0.819370337812343,-0.3869852183648097,0.3433476687511131,-0.24695560055119886
-1135.386271238327,4868.0,-3948.0,-14884.0,-157.0,122.0,-110.0,0.8077094400115351,-0.3990652844395041,0.3517554243586579,-0.25420558747936745
-1135.4019157886505,4728.0,-4056.0,-15136.0,-63.0,-42.0,-336.0,0.7988120710979003,-0.41482590872677355,0.33842757740524265,-0.27438206094587875
-1135.4175481796265,5040.0,-4032.0,-15048.0,-107.0,37.0,-511.0,0.7806146921768704,-0.4362984318568945,0.32480745438041264,-0.3078709117401979
-1135.4331843852997,4972.0,-4044.0,-15176.0,-152.0,136.0,-99.0,0.767980035228593,-0.4459809579876961,0.3343911951071104,-0.3154206385725323
-1135.4487874507904,4852.0,-4164.0,-15112.0,-57.0,29.0,-230.0,0.7582346656244363,-0.4558751891550655,0.32895482883691385,-0.330222234780018
-1135.4643812179565,5004.0,-3840.0,-15060.0,-146.0,5.0,-369.0,0.7410157890758522,-0.4759570512385759,0.3186902609242423,-0.35042403357733637
-1135.4800119400024,5056.0,-4052.0,-15092.0,-105.0,83.0,-69.0,0.731984271095322,-0.4823445786078241,0.3244365872208143,-0.3553640882661069
-1135.495628118515,5004.0,-3988.0,-15336.0,-156.0,65.0,-121.0,0.719514506887466,-0.49389290791818163,0.32834354426036777,-0.36132974805452883
-1135.5112512111664,4904.0,-4084.0,-15172.0,-164.0,28.0,-242.0,0.7035861453068153,-0.5103243468233789,0.3248000450884001,-0.37288138580809005
-1135.5268366336823,5160.0,-3992.0,-15048.0,-202.0,78.0,79.0,0.6946114150006981,-0.5180953111495473,0.33966797940735316,-0.3656745745617374
-1135.5424473285675,5044.0,-4032.0,-15104.0,-106.0,216.0,393.0,0.695195919776612,-0.505819404248125,0.3736708660175205,-0.3481658330476134
-1135.5580327510834,4744.0,-3944.0,-15124.0,-127.0,122.0,32.0,0.686294063309134,-0.5089529322755949,0.3863703204441257,-0.3473979661348289
-1135.573613166809,4776.0,-4012.0,-14936.0,-44.0,-104.0,-313.0,0.677861899562029,-0.5253104199740778,0.3674946683191973,-0.3598609127785052
-1135.5892055034637,5236.0,-3592.0,-15080.0,-240.0,122.0,-103.0,0.6592914480124141,-0.5390476224342956,0.3774684586141818,-0.3637031895338026
-1135.6048464775085,5192.0,-4016.0,-15336.0,-162.0,317.0,389.0,0.6526717214673466,-0.5251747758206355,0.41876709935676865,-0.3504927892766325
-1135.6204483509064,4816.0,-4016.0,-15188.0,-126.0,207.0,229.0,0.6458447907817298,-0.5176608635427871,0.4447952006613014,-0.34215342471603594
-1135.6360821723938,4848.0,-4008.0,-15100.0,-82.0,15.0,-4.0,0.6411984385425632,-0.5221993841035292,0.44797920129330643,-0.33983378416673804
-1135.651712179184,5044.0,-3992.0,-15048.0,-152.0,-211.0,-238.0,0.6349344067741031,-0.5462286478714174,0.4297100366550789,-0.3374045757497539
-1135.6673061847687,5076.0,-3940.0,-15012.0,-29.0,172.0,120.0,0.6303016135442893,-0.5384043806806997,0.4458085658590538,-0.3377799896885413
-1135.6828916072845,4908.0,-4016.0,-15028.0,-83.0,113.0,233.0,0.6284693935471898,-0.5306463548224952,0.4653634657202892,-0.32692126309071284
-1135.6985085010529,4840.0,-3992.0,-15104.0,-129.0,73.0,-168.0,0.614387589031664,-0.5425718515498849,0.4652586710517431,-0.3341826526927377
-1135.7140958309174,4976.0,-3960.0,-14892.0,-48.0,35.0,-200.0,0.6045264058128871,-0.5523676228404141,0.45906493933007525,-0.3445246223282984
-1135.7296793460846,4944.0,-4008.0,-14860.0,-101.0,124.0,-159.0,0.5895607057804597,-0.5604416033393651,0.46096177077908207,-0.354735999478853
-1135.7453000545502,4820.0,-4000.0,-15124.0,-51.0,41.0,-298.0,0.5757529406934829,-0.573789526350087,0.44999044186230014,-0.36984149708533465
-1135.7608935832977,4888.0,-4128.0,-15148.0,-115.0,252.0,-380.0,0.5471393098470926,-0.5860701505310124,0.44702802452582396,-0.39664379431064206
-1135.776515007019,4932.0,-3940.0,-15128.0,17.0,66.0,-210.0,0.5378352880627622,-0.5912641693374764,0.4388387958298392,-0.4105610749288418
-1135.7921257019043,5100.0,-4052.0,-14864.0,-137.0,168.0,-140.0,0.5189559981143377,-0.5970918628611225,0.4443590997873379,-0.4203700390874362
-1135.8077585697174,4548.0,-4112.0,-15156.0,110.0,-151.0,-536.0,0.5100318195906752,-0.6178780297627415,0.4051356733053747,-0.44040818516115054
-1135.823364019394,5016.0,-4088.0,-14968.0,-166.0,-150.0,-894.0,0.47028581313686635,-0.6607033161312231,0.355546664004987,-0.4646385172694214
-1135.8389427661896,5304.0,-4212.0,-14876.0,-58.0,47.0,-213.0,0.45654900622167094,-0.6678604941673912,0.34752526018202495,-0.4740796966585985
-1135.85453915596,4720.0,-3892.0,-15000.0,-131.0,98.0,-197.0,0.4374814333934763,-0.6750314330753864,0.3453335821863215,-0.48341211901496917
-1135.870156288147,4296.0,-4300.0,-15084.0,-85.0,-150.0,-939.0,0.3958218539548086,-0.7106290054433408,0.28694812264649744,-0.505956768374569
-1135.8857889175415,4416.0,-3868.0,-15156.0,86.0,-420.0,-1776.0,0.32893166662919016,-0.7612462239073307,0.1565895103932847,-0.5364586382100349
-1135.9014210700989,4752.0,-3900.0,-15044.0,95.0,-697.0,-2375.0,0.22818672455385278,-0.8051876074555849,-0.025008453846193986,-0.5467890935027486
-1135.917056798935,5356.0,-3344.0,-15156.0,121.0,-334.0,-1175.0,0.1788005367570541,-0.8116882215174794,-0.11929055729907043,-0.5431043749082284
-1135.9327311515808,4396.0,-3628.0,-15388.0,117.0,-104.0,-1158.0,0.13042412494437972,-0.7987815325019765,-0.20738840877497866,-0.5494794435391273
-1135.9483296871185,3364.0,-3432.0,-15472.0,1029.0,-661.0,-2406.0,0.0728357081309334,-0.7547526840392488,-0.42045015963740406,-0.49826198813224465
-1135.963958978653,3188.0,-3840.0,-15320.0,257.0,-831.0,-4828.0,-0.13844378875279525,-0.5628716909338819,-0.6940134089610516,-0.4270294662939129
-1135.9795622825623,3972.0,-5740.0,-16336.0,1602.0,-1302.0,-5344.0,-0.30195915154082215,-0.27475546245781374,-0.8949471000347213,-0.17999942997071441
-1135.9952192306519,5348.0,-4308.0,-14736.0,2789.0,-824.0,-5123.0,-0.3376508081003774,0.034608621454673395,-0.9248843803387385,0.17141487133734082
-1136.0108134746552,5444.0,-3652.0,-14964.0,1113.0,28.0,-4739.0,-0.24625388656784372,0.35339199902545615,-0.8235774971706449,0.3690436620904905
-1136.0264673233032,4128.0,-6048.0,-15692.0,3482.0,-912.0,-5251.0,-0.21838346250217058,0.5991929772121517,-0.4633251163079148,0.6153099023772153
-1136.0420713424683,4808.0,-2088.0,-14692.0,2528.0,-1095.0,-6669.0,-0.03100056070832419,0.7443699569725238,0.03543649772201766,0.6661055374501024
-1136.0576691627502,5912.0,-3368.0,-15112.0,1681.0,-1342.0,-6739.0,0.21751389752889952,0.6783702994554037,0.48882591667827613,0.5035381459057658
-1136.0733034610748,7464.0,-3304.0,-15060.0,1889.0,-998.0,-4181.0,0.3069922216750895,0.5366039358017479,0.7406634217848685,0.26311535026105193
-1136.0889022350311,7632.0,-2676.0,-15004.0,1520.0,508.0,-855.0,0.2195828816922772,0.5041897957497312,0.8190263838997265,0.16362087399136255
-1136.1045544147491,5524.0,-3852.0,-14784.0,1163.0,317.0,-1353.0,0.16276659536073246,0.4200656365324294,0.8902174179919217,0.06756363772827015
-1136.1201477050781,5212.0,-4228.0,-14720.0,1015.0,-691.0,-2436.0,0.18806686421463079,0.24253682197934526,0.9492060930329623,-0.0693868684819721
-1136.135799407959,6076.0,-3976.0,-14876.0,715.0,-1188.0,-3215.0,0.24060700935259252,-0.018436057041663685,0.9501301726700407,-0.1975374238800252
-1136.151419878006,7284.0,-3708.0,-15140.0,1010.0,-408.0,-102.0,0.27278121647084125,-0.012715179649998111,0.9198930993987015,-0.2814701011223164
-1136.167007446289,6824.0,-2840.0,-15140.0,322.0,707.0,2813.0,0.2763850363789829,0.23073432966338578,0.9032197338294204,-0.2335960042502593
-1136.1826272010803,4368.0,-3588.0,-15416.0,899.0,517.0,2672.0,0.26359751731403464,0.45941711857656076,0.8184608386069175,-0.22265245494166264
-1136.19823884964,3668.0,-3572.0,-13968.0,-563.0,-358.0,-311.0,0.3047945715734422,0.416455604746453,0.8320349724454394,-0.20342763588643684
-1136.21382522583,5732.0,-7500.0,-13936.0,-1069.0,-1937.0,-2395.0,0.4246730802741979,0.17283306013172167,0.8528108166451797,-0.24999043827496925
-1136.2294039726257,9600.0,-4896.0,-15084.0,-251.0,1118.0,6275.0,0.4210675005853716,0.5722699308239836,0.703531928810019,0.015878015315380203
-1136.2450127601624,4052.0,-4920.0,-15824.0,1069.0,862.0,4673.0,0.28344101183768894,0.8258279686730075,0.46326374525475705,0.15184222501786807
-1136.2606201171875,1432.0,-3124.0,-15272.0,134.0,-2531.0,-2786.0,0.3921113608732401,0.7126348568069734,0.5731026152026585,-0.09976790057786117
-1136.2762515544891,5796.0,-2580.0,-15164.0,-1581.0,-1993.0,1280.0,0.5833071782141076,0.6845171707148162,0.42617838685466486,-0.09778016884028198
-1136.2918858528137,6048.0,-3120.0,-16496.0,-1333.0,1202.0,10768.0,0.5139530080651727,0.7439653525174619,-0.10461202129202005,0.41403403816054424
-1136.3074696063995,612.0,-2128.0,-16228.0,-785.0,528.0,10774.0,0.13107630838704165,0.4301750089786498,-0.588215562181763,0.672139059597816
-1136.3231027126312,-1720.0,-1088.0,-15188.0,-3744.0,-2706.0,2871.0,-0.032297276776492606,0.36024016640402895,-0.8552000354600526,0.3712368620855757
-1136.3386714458466,2236.0,-2372.0,-15688.0,-4888.0,-3375.0,3307.0,-0.20429185537942235,0.20348517238346545,-0.9529077212624739,-0.0939441174532185
-1136.3542852401733,4424.0,-2152.0,-16920.0,-4275.0,-578.0,10615.0,-0.06303528368896834,-0.4297953644719827,-0.7751072450760969,-0.45881505677036205
-1136.3698711395264,460.0,-2496.0,-16636.0,-3236.0,-709.0,11100.0,0.14919828944180374,-0.8378231627362357,-0.15852969722407656,-0.5006601177528861
-1136.3855049610138,-2440.0,-1660.0,-15596.0,-4054.0,-3786.0,3156.0,-0.053941926987153194,-0.9607924844161798,0.17475915907688602,-0.20839219448203214
-1136.4011027812958,952.0,-2064.0,-15380.0,-4685.0,-5622.0,39.0,-0.30348749258879165,-0.8768170467156721,0.24416464395438864,0.28190572018602517
-1136.4166688919067,4396.0,-2132.0,-15240.0,-5112.0,-3790.0,4153.0,-0.5967046357471775,-0.4665696501865222,0.44727646775263546,0.4756049837810578
-1136.4322626590729,4092.0,-2532.0,-15244.0,-4995.0,-3151.0,6297.0,-0.7494739967798114,0.1357917033500431,0.5276811978864159,0.3760344330634451
-1136.4478731155396,2736.0,-2944.0,-14688.0,-5464.0,-3814.0,2812.0,-0.5084053625972431,0.6324318633731976,0.47754864606916114,0.33689941541976914
-1136.4634790420532,4160.0,-4500.0,-14180.0,-4563.0,-4238.0,-131.0,-0.0667441550348598,0.8382427737664042,0.47327653426697086,0.26249493730228884
-1136.4791026115417,7152.0,-6260.0,-13552.0,-3226.0,-3554.0,202.0,0.2869942806545563,0.8732626158338066,0.3737394444959159,0.12395771168650895
-1136.4947142601013,8844.0,-7296.0,-12080.0,-2339.0,-1976.0,-237.0,0.513949639594081,0.8001974809137775,0.3061918766037059,0.04226457384453076
-1136.5103118419647,9904.0,-11396.0,-12476.0,-1826.0,-1742.0,-6548.0,0.6072123415991868,0.46886549485584716,0.5787625965991724,-0.2765721907947319
-1136.525957107544,13200.0,-12664.0,-17392.0,1651.0,-748.0,427.0,0.5799719573553052,0.5526712574481515,0.47568281861775535,-0.3631981083981618
-1136.5415391921997,9084.0,-3816.0,-18716.0,3009.0,5676.0,18500.0,0.39661144399112536,0.8347579182920617,-0.1134395588841278,0.364705424725425
-1136.557166814804,-5620.0,-7076.0,-17120.0,2698.0,557.0,6261.0,0.005205937591790258,0.728581290946098,-0.39879439041439496,0.5568709319681886
-1136.5727636814117,-2124.0,532.0,-13960.0,154.0,-3053.0,-4782.0,0.10891114685818612,0.9351251782341651,-0.07950805447331231,0.3276548983250893
-1136.5883457660675,6380.0,-2068.0,-16136.0,-2566.0,-466.0,2323.0,0.23763042181602587,0.8686034131125242,-0.33185701696844916,0.2809462824911793
-1136.6039757728577,6888.0,-3536.0,-16184.0,458.0,2860.0,11266.0,0.00648022244939696,0.33809944508642864,-0.7827179775363371,0.5224933871262692
-1136.6195538043976,1164.0,-1812.0,-15360.0,111.0,2026.0,6390.0,-0.12926415030686628,-0.1645087411070413,-0.8331113023448116,0.5120089954777675
-1136.6351375579834,-1516.0,-2740.0,-15692.0,-561.0,-1801.0,-3553.0,-0.10326450841603625,0.17035700978849472,-0.8388586994996989,0.506587616105241
-1136.6507258415222,3524.0,-3336.0,-15656.0,-2026.0,-1938.0,-3198.0,-0.06891238496015122,0.47665971322718365,-0.809558579731761,0.335650870649812
-1136.6663043498993,5928.0,-4792.0,-16516.0,-108.0,579.0,4714.0,-0.14906919808840652,0.11772922509257307,-0.9351894266766928,0.29889620267326955
-1136.6819050312042,3412.0,-2408.0,-15276.0,-354.0,1584.0,5749.0,-0.1470876831571647,-0.3441537754926453,-0.9081944169862178,0.1873667345946953
-1136.6975357532501,1036.0,-2768.0,-16088.0,-1146.0,205.0,1424.0,-0.18588263103111338,-0.44001902328004666,-0.8756622992227397,0.07103833016456537
-1136.7131781578064,2868.0,-2960.0,-16112.0,-1371.0,166.0,1084.0,-0.2295757308779741,-0.49587905145321437,-0.8355498017059633,-0.05705680494761198
-1136.7287755012512,2780.0,-3500.0,-16172.0,-445.0,543.0,2086.0,-0.19498954143012062,-0.6249837489724038,-0.7404660182941156,-0.15193573643132427
-1136.7443754673004,1184.0,-2892.0,-15464.0,-948.0,-572.0,-1761.0,-0.3018297644511536,-0.4946221999078747,-0.8012008441640072,-0.14941512627755626
-1136.760001897812,2388.0,-3564.0,-16060.0,-855.0,-1227.0,-3159.0,-0.44522297866392985,-0.2556476385847219,-0.8553127287732014,-0.06972029944150615
-1136.7755954265594,4216.0,-3140.0,-15604.0,-1203.0,-497.0,-1145.0,-0.5100683480368539,-0.12506534325436044,-0.8447713732950032,-0.102714493178414
-1136.7912349700928,3348.0,-3740.0,-15568.0,-236.0,595.0,1808.0,-0.4461069255704539,-0.23919543225352324,-0.8379095972197301,-0.2041608753757622
-1136.8068642616272,2020.0,-2840.0,-15480.0,-685.0,367.0,581.0,-0.42146318909187563,-0.24762379015445837,-0.8250702343959971,-0.2833908027861542
-1136.8224301338196,2000.0,-3416.0,-15884.0,-467.0,455.0,1452.0,-0.3592108143880759,-0.3207092699630177,-0.7914374577801074,-0.3764836057639223
-1136.8380284309387,1852.0,-3232.0,-16340.0,246.0,420.0,860.0,-0.29376910320891536,-0.37270260610703765,-0.7858427356571115,-0.3965396275478645
-1136.8536260128021,1872.0,-2340.0,-15604.0,-55.0,-423.0,-1986.0,-0.38707672317809894,-0.24597656730157333,-0.8249742601245348,-0.3302795919281361
-1136.869228363037,3184.0,-2744.0,-15868.0,-558.0,-135.0,-1223.0,-0.44076108149523047,-0.14203921606251696,-0.8250339042357885,-0.3238419166830513
-1136.8847918510437,2608.0,-3384.0,-16512.0,203.0,441.0,248.0,-0.39881537967372516,-0.15508843271867626,-0.8438681890720027,-0.3236979308628737
-1136.9004077911377,960.0,-2924.0,-15808.0,280.0,-583.0,-3754.0,-0.5160382073812851,0.09028716810022942,-0.8373974035045731,-0.1559435295321672
-1136.9160854816437,2612.0,-2908.0,-15444.0,-459.0,-1793.0,-5844.0,-0.637294102542975,0.4529566798650998,-0.6212214620187698,0.052634286893544
-1136.9317715168,5136.0,-3432.0,-15892.0,-492.0,-396.0,-1720.0,-0.6232451536842526,0.5683332420149219,-0.5268772984267166,0.10470490357411713
-1136.9473767280579,4472.0,-3488.0,-16148.0,501.0,568.0,942.0,-0.6268617237274288,0.49005970509059227,-0.5966904636804582,0.10414583680972606
-1136.9629561901093,2984.0,-2660.0,-15680.0,25.0,369.0,39.0,-0.608492972813377,0.4832195695360435,-0.6181110212329436,0.11905425269391763
-1136.9785919189453,2652.0,-3036.0,-15860.0,78.0,214.0,200.0,-0.6018470947921888,0.46606526547264465,-0.6369986074560997,0.12163887910164728
-1136.9941837787628,3092.0,-3428.0,-16068.0,423.0,661.0,1686.0,-0.5922014627492747,0.33883975360662527,-0.7264227999559046,0.08243157524665594
-1137.0098359584808,2576.0,-2960.0,-15752.0,701.0,650.0,1526.0,-0.5753804702383624,0.19888141781458205,-0.7905498835454596,0.0664407837295947
-1137.0254311561584,2336.0,-3364.0,-15276.0,223.0,234.0,510.0,-0.565015148664431,0.15102469663772006,-0.808901267208841,0.0602342319045154
-1137.041021823883,2828.0,-3244.0,-15836.0,233.0,235.0,-123.0,-0.5503199248631997,0.14699046737817995,-0.8174184873686813,0.08584171076116623
-1137.0566153526306,2840.0,-3092.0,-15920.0,129.0,-51.0,-937.0,-0.5464573099615159,0.2073860689897357,-0.7994190329029675,0.13894112642084186
-1137.072238445282,3216.0,-3260.0,-15864.0,72.0,-82.0,-660.0,-0.5442803697849173,0.25065874363265966,-0.7815168099577063,0.17366792755376798
-1137.0878489017487,3568.0,-3272.0,-15960.0,344.0,831.0,1554.0,-0.5121613621860142,0.11444757757139626,-0.8396740572693879,0.13978543779868532
-1137.1034474372864,1344.0,-2704.0,-15508.0,389.0,758.0,544.0,-0.4650476366162867,0.04782533814226051,-0.8710107427994616,0.1509427660973341
-1137.1190791130066,1488.0,-3536.0,-15948.0,172.0,-608.0,-2529.0,-0.4664630506233551,0.23513160628379248,-0.8128999110601202,0.2575249205960574
-1137.1346604824066,4080.0,-3016.0,-16292.0,780.0,-61.0,-540.0,-0.4727674039892039,0.24232772592586518,-0.7792803257779607,0.3324010060578982
-1137.1502358913422,4376.0,-3384.0,-15472.0,676.0,954.0,1978.0,-0.46995428286060964,0.051341812441940596,-0.8246069162610995,0.3106934565942882
-1137.1658072471619,2824.0,-3560.0,-15828.0,799.0,1142.0,2055.0,-0.43667660631959493,-0.15657339378518065,-0.8396726020968787,0.2823973001635266
-1137.1813876628876,1620.0,-3512.0,-16344.0,818.0,183.0,225.0,-0.4161764074931436,-0.2081344287619939,-0.8212338685832864,0.3302305111611414
-1137.1969735622406,2748.0,-2928.0,-15872.0,291.0,-664.0,-2298.0,-0.383610938189654,-0.03412542486811846,-0.8128712639188733,0.4369421149005406
-1137.2125616073608,4920.0,-3776.0,-15744.0,389.0,-101.0,-385.0,-0.3742589178374496,-0.015902181971335243,-0.7950485852549468,0.4770483519642421
-1137.2281556129456,5224.0,-3640.0,-15780.0,120.0,1319.0,3905.0,-0.4186465208401785,-0.32519634031009353,-0.7790079487105995,0.33485675546872246
-1137.243803024292,1572.0,-3992.0,-16640.0,1623.0,1321.0,4093.0,-0.3732205823762938,-0.6509434040887299,-0.6161302360191403,0.239504934869984
-1137.2594244480133,-216.0,-1940.0,-15596.0,454.0,-856.0,-3884.0,-0.29455237022428143,-0.41452990463578243,-0.7547859062218177,0.41436951519967835
-1137.2750215530396,4416.0,-4028.0,-15556.0,-563.0,-1330.0,-3843.0,-0.24789324437121893,-0.09304354161756004,-0.8285670802728377,0.4933238614201804
-1137.2906501293182,7804.0,-4300.0,-15120.0,-450.0,1654.0,5367.0,-0.3255677959117436,-0.48688079964901426,-0.7540978812017726,0.29713478888427564
-1137.3062691688538,3080.0,-4844.0,-15592.0,528.0,2750.0,7929.0,-0.26402195429315684,-0.8828203403184528,-0.388395255159862,-0.008353450816210544
-1137.3218612670898,-1076.0,-3244.0,-15128.0,-142.0,92.0,-1510.0,-0.2702760987763866,-0.821177665461927,-0.5024023819665234,0.014488573811094536
-1137.337424993515,1348.0,-4704.0,-15912.0,-127.0,-1041.0,-3647.0,-0.30387891421376073,-0.6237112151617544,-0.7019459002663939,0.16097788257060436
-1137.3529996871948,3868.0,-4584.0,-15844.0,1267.0,274.0,977.0,-0.22927284736685488,-0.7139260007799778,-0.6320028649496121,0.19574474594758529
-1137.3685739040375,1332.0,-3952.0,-15016.0,1433.0,126.0,-1241.0,-0.11004416255597099,-0.6672223451007828,-0.6781748424044743,0.28772123247204595
-1137.3841469287872,1332.0,-3236.0,-15352.0,743.0,-1021.0,-4381.0,-0.015789743283550362,-0.3618869173991958,-0.8407939759963533,0.40231086606079963
-1137.399778842926,3580.0,-2400.0,-16112.0,612.0,-332.0,-2132.0,0.05313765984846254,-0.1910233142777763,-0.8698121156523028,0.4517890724360521
-1137.4153764247894,3296.0,-2680.0,-15080.0,576.0,-171.0,-1824.0,0.1200549902885119,-0.042554922116511594,-0.8663717713335869,0.4828828343882044
-1137.430947303772,3360.0,-2780.0,-15456.0,-20.0,93.0,-1429.0,0.18577587938430767,0.06090601394956686,-0.8649701268980494,0.46217362503472065
-1137.4465689659119,3316.0,-3712.0,-15404.0,837.0,633.0,583.0,0.2044095343463952,0.00494716533803335,-0.8197466733415695,0.5349837935571862
-1137.4621698856354,1508.0,-3736.0,-14812.0,523.0,-111.0,-2195.0,0.2929839000221565,0.17313931528316376,-0.7815160445489089,0.5228918472721793
-1137.4777898788452,2532.0,-4136.0,-15400.0,389.0,-740.0,-3359.0,0.3731169300028718,0.4268939850370722,-0.7008543339712554,0.4328377116635147
-1137.4933800697327,4200.0,-3884.0,-16052.0,295.0,-103.0,-1592.0,0.4116518053771348,0.5325084940988546,-0.6276790812666148,0.3911476265844059
-1137.5089745521545,4308.0,-3992.0,-16124.0,363.0,472.0,166.0,0.41413818330887353,0.519672840946419,-0.6053415835556282,0.4381680850160905
-1137.5245554447174,3256.0,-3724.0,-15672.0,194.0,376.0,-55.0,0.42679704185409345,0.514950962491864,-0.581619517967742,0.46302108765397443
-1137.5401363372803,2868.0,-4024.0,-15432.0,246.0,412.0,-86.0,0.43952305108373935,0.5114682564343823,-0.5521616752139408,0.4902419756109714
-1137.5557479858398,2856.0,-4148.0,-15628.0,579.0,924.0,1032.0,0.4103504313460849,0.4407660924962186,-0.5336523497013212,0.5937616902916149
-1137.5713303089142,1348.0,-3720.0,-15872.0,990.0,254.0,-1315.0,0.4473817331684138,0.518963849635537,-0.4185040748812366,0.5961379428508892
-1137.5868837833405,2232.0,-3640.0,-15680.0,394.0,-1315.0,-5338.0,0.5939107513835544,0.7190059423636552,-0.1872632061485632,0.30859838926950756
-1137.6024718284607,5536.0,-3828.0,-15404.0,424.0,-119.0,-1744.0,0.6046855157262613,0.7635177029294561,-0.07184094342359154,0.21502330857886243
-1137.618040561676,4768.0,-3636.0,-15364.0,725.0,1219.0,1884.0,0.5175561699638376,0.7515095167302789,-0.11708006355318355,0.39199657640669333
-1137.6336016654968,1716.0,-3964.0,-15152.0,260.0,187.0,-1052.0,0.5357152711851269,0.7642920078083197,-0.030688910921587015,0.35766613729261554
-1137.6491706371307,2440.0,-4292.0,-15820.0,115.0,-121.0,-1808.0,0.5767286546193409,0.7689006025868074,0.08669298449137464,0.26203100717775274
-1137.6647639274597,3624.0,-4504.0,-15868.0,620.0,636.0,479.0,0.5171031106471069,0.7863304877632837,0.10031436916480285,0.32284015288081785
-1137.6803510189056,2820.0,-3780.0,-15096.0,594.0,398.0,-31.0,0.4725571437450664,0.8002789845750986,0.13684315082777745,0.34280788324436157
-1137.6959676742554,3148.0,-3760.0,-15300.0,152.0,-85.0,-1544.0,0.5042885095076469,0.7836727440985856,0.2434716150058574,0.2688339673887736
-1137.711586713791,4256.0,-3616.0,-15516.0,22.0,158.0,-840.0,0.5174405092228257,0.7611572359433204,0.307538608711124,0.24148495965250844
-1137.7271728515625,4304.0,-3832.0,-15508.0,-283.0,265.0,331.0,0.5213812980279997,0.7511168097828045,0.2912857522189934,0.2813142205480479
-1137.7427847385406,3352.0,-4464.0,-16104.0,-59.0,805.0,1260.0,0.46961336940391163,0.7544750351483118,0.24184144019015077,0.38954258101241346
-1137.7583711147308,2104.0,-3712.0,-15732.0,297.0,296.0,-433.0,0.45766976999493897,0.7466075247239838,0.2921959120474591,0.3843658864169124
-1137.7739877700806,2096.0,-4336.0,-15760.0,60.0,-484.0,-2087.0,0.5267530564247213,0.7000707586634402,0.4038930361117827,0.26325380489561045
-1137.789561510086,3708.0,-3600.0,-15396.0,208.0,-445.0,-1677.0,0.5615223667826739,0.6533701157246761,0.4851257857899221,0.14984356990681347
-1137.8052015304565,4612.0,-3848.0,-15316.0,-270.0,34.0,-804.0,0.5841499378902809,0.6041614637302263,0.5277471383277729,0.1234533668758303
-1137.8207762241364,4524.0,-4556.0,-15360.0,-335.0,306.0,286.0,0.5837611378723189,0.5964531884961318,0.5241882969046635,0.16939054646290536
-1137.8363518714905,3932.0,-4328.0,-15496.0,-338.0,1002.0,2440.0,0.5057547542245383,0.6586845435171922,0.43184761629561813,0.351929590984642
-1137.851939201355,2228.0,-4128.0,-15696.0,349.0,839.0,2334.0,0.37333772441390706,0.7194619711332483,0.3375331700896451,0.478607119370096
-1137.8675258159637,1432.0,-3124.0,-15400.0,-31.0,-244.0,-1486.0,0.44056002944325134,0.6792216727780913,0.4180494855631869,0.41206723638970355
-1137.883111000061,3452.0,-4000.0,-15524.0,-285.0,-483.0,-1727.0,0.5303507915707153,0.6151437612453718,0.4856071815642893,0.3232829350497794
-1137.898692369461,4892.0,-3732.0,-15472.0,147.0,642.0,1280.0,0.455312920744007,0.6531169568635307,0.4473036578501427,0.4074896594206592
-1137.9143061637878,3352.0,-3464.0,-15700.0,-67.0,567.0,1200.0,0.3914728233497819,0.6728059133429712,0.3964636307870689,0.4867215025170098
-1137.9300224781036,2956.0,-3876.0,-16076.0,-382.0,-375.0,-1538.0,0.4871193065104049,0.6164783932636062,0.4532423476446934,0.420999461003778
-1137.9456224441528,5000.0,-4544.0,-15548.0,-1077.0,245.0,12.0,0.5322594478634938,0.5597757498025884,0.42155949135169185,0.4750143001471657
-1137.9612035751343,4716.0,-5544.0,-16336.0,597.0,1943.0,4932.0,0.20572537153078627,0.6242540109174667,0.2680476684626123,0.7043681202281467
-1137.976907491684,2000.0,-4328.0,-16240.0,1358.0,1859.0,4331.0,-0.1637175760043844,0.584599898375234,0.1369619903379769,0.7827393738209255
-1137.993616104126,-736.0,-3772.0,-16536.0,1751.0,-247.0,-1359.0,-0.15437479564590337,0.5501537776019503,0.32336359468784315,0.7542779521437345
-1138.0093433856964,2112.0,-2592.0,-16408.0,1502.0,-420.0,-1175.0,-0.13533623669537903,0.5171834922250321,0.47749108484121194,0.6972858827656094
-1138.024962902069,2960.0,-2064.0,-15352.0,1519.0,-146.0,-2563.0,-0.04050805471257242,0.38858140922139106,0.6652605429685498,0.636232658608556
-1138.0405638217926,2832.0,-4604.0,-15260.0,344.0,-1686.0,-7882.0,0.3951883729806137,0.019227892313799,0.7831391248183922,0.4797390428105547
-1138.056156873703,6864.0,-5584.0,-15508.0,1240.0,-81.0,-3580.0,0.5206461128280981,-0.17022174743154728,0.7960230148440315,0.25748697391705205
-1138.0717771053314,6464.0,-4796.0,-15876.0,2116.0,2064.0,2012.0,0.3467620485833278,0.018396879999774216,0.9234413704320876,0.16332076366180673
-1138.0874192714691,2400.0,-5728.0,-14560.0,3362.0,744.0,-2428.0,0.2963726014819221,-0.08087492582854652,0.9365089482363024,-0.169037029482891
-1138.1030569076538,3816.0,-3504.0,-13476.0,982.0,-907.0,-6938.0,0.23388328559683436,-0.5413154128783453,0.7232218364668955,-0.3594807474069056
-1138.1186771392822,7228.0,-4904.0,-14260.0,213.0,-656.0,-5830.0,0.0909253921046997,-0.8237663759973752,0.380700767345632,-0.41013224280615224
-1138.1342470645905,9572.0,-5576.0,-14420.0,677.0,1922.0,-1315.0,0.02792709469925214,-0.7762559709103071,0.2712203020329833,-0.5684068021873881
-1138.1498267650604,9072.0,-6112.0,-15084.0,1467.0,3659.0,283.0,0.05178630212493781,-0.5527636648840204,0.214272478026788,-0.8036527949658799
-1138.1653962135315,8540.0,-7732.0,-15756.0,3164.0,4404.0,484.0,0.140936617587984,-0.1994667164497656,0.03231921286308596,-0.9691776758322066
-1138.1809799671173,8868.0,-7224.0,-14480.0,5241.0,6959.0,5879.0,0.5231321691918583,0.34628748991998,-0.1642777275533463,-0.7612033474121412
-1138.1965656280518,6012.0,-5020.0,-12636.0,4875.0,8456.0,9826.0,0.7328832356105524,0.6309264994417403,-0.2544493926044229,0.008331978542901748
-1138.212172985077,188.0,-2768.0,-12848.0,3016.0,5837.0,5107.0,0.5603148810746552,0.5715511730670455,-0.12964667490340345,0.5852932857110787
-1138.2278447151184,-1996.0,-3484.0,-13688.0,944.0,1778.0,-5527.0,0.7255367408915243,0.5246004921063697,0.25010337499753177,0.3685635129975617
-1138.243468284607,2736.0,-5048.0,-14440.0,1454.0,1050.0,-6650.0,0.728322869693896,0.3753751893116734,0.5724285461322848,-0.031061621061244965
-1138.2590925693512,4628.0,-5592.0,-15500.0,3155.0,2755.0,-4274.0,0.4214589857894481,0.32788723772208467,0.7792566330892456,-0.328056980451146
-1138.2746875286102,3400.0,-6524.0,-15604.0,4256.0,2500.0,-5526.0,-0.024205203130027938,0.15129445554213403,0.7621251825330337,-0.6290383947046742
-1138.2902760505676,3972.0,-5240.0,-13608.0,4132.0,1631.0,-4956.0,-0.3972271102129412,-0.08434456586317834,0.516705879265144,-0.7537318166656243
-1138.305893421173,4016.0,-2076.0,-13864.0,1303.0,1745.0,-2224.0,-0.5911434778990966,-0.11107636019996499,0.34203943765701295,-0.7219559916153908
-1138.321519613266,2260.0,-2544.0,-13932.0,-513.0,972.0,79.0,-0.6172307806424108,-0.02099525760623516,0.3237897082626991,-0.7167604811990992
-1138.3371331691742,1104.0,-2432.0,-12780.0,-3429.0,-281.0,670.0,-0.5484670936793603,0.15782778238471787,0.5306242678584998,-0.6266674753153133
-1138.352749824524,1692.0,-3324.0,-13348.0,-5677.0,-288.0,1492.0,-0.33386144016746105,0.4296729356580892,0.7425151421281853,-0.39062638267611816
-1138.368318080902,1104.0,-3776.0,-19540.0,-6158.0,1256.0,7024.0,0.04266317525645063,0.854949415854097,0.5039928812012352,-0.11503271493906976
-1138.3839235305786,-2236.0,-9064.0,-18280.0,-2431.0,154.0,-2439.0,0.1843508713046642,0.7087906895243938,0.6808817677474327,-0.005525671169776978
-1138.3995025157928,5048.0,-4860.0,-17572.0,-3738.0,-1845.0,-3151.0,0.476261130245844,0.4190653489973952,0.7715823086244606,0.04712016664221466
-1138.4151210784912,6572.0,-5568.0,-18004.0,540.0,1236.0,4893.0,0.3226464933481144,0.7003420583615295,0.5909390542567462,0.23708917262128087
-1138.430692911148,1796.0,-1184.0,-14128.0,-814.0,-1253.0,-3151.0,0.48021656682615227,0.5175415870522487,0.6998042712502816,0.10870481386307479
-1138.4462928771973,3640.0,-4356.0,-14216.0,-3782.0,-3698.0,-11384.0,0.6638543253411694,-0.20300218071968026,0.6898803624269768,-0.20531106859226625
-1138.4618875980377,10620.0,-4700.0,-14964.0,-2728.0,-911.0,-2525.0,0.5927065936637931,-0.5022761190721591,0.6083027208482714,-0.1624358145418171
-1138.477513551712,9416.0,-4792.0,-16508.0,-1130.0,4120.0,9020.0,0.34089845334029867,-0.017829908907809368,0.9296941390884749,0.1383443045559562
-1138.4931380748749,1212.0,-6412.0,-15460.0,1462.0,2810.0,5647.0,0.04072909077694596,0.3916647091176605,0.9052715718228674,0.15944678750484922
-1138.5087656974792,148.0,-4320.0,-13736.0,120.0,-1045.0,-4838.0,0.17111705764550642,0.022416107143638408,0.9809830472138228,0.08881853298919201
-1138.524353981018,6296.0,-3940.0,-15024.0,-1396.0,-615.0,-3527.0,0.2404362718246434,-0.2803082528416389,0.9177196567924133,0.14631580268976113
-1138.5399765968323,8100.0,-5184.0,-16056.0,-134.0,1838.0,4294.0,0.0323097639826675,0.03455388353899477,0.9812110398315703,0.18704813176401053
-1138.5555503368378,4652.0,-4888.0,-14332.0,117.0,1418.0,2015.0,-0.11977652078298279,0.1801848197589004,0.9590956399203454,0.1825447048899509
-1138.5711159706116,3840.0,-3568.0,-14740.0,-1091.0,-222.0,-1849.0,-0.05367830170522051,0.03971796998384872,0.9563777880451549,0.28439875056030384
-1138.586715221405,5872.0,-3716.0,-15796.0,-1313.0,662.0,-42.0,-0.10260865062844221,0.025772115738220837,0.9134371814813829,0.39298826745073845
-1138.6023049354553,5204.0,-4352.0,-15860.0,-161.0,1073.0,1586.0,-0.23889356865954628,0.11529338413435049,0.8825211722671144,0.38832161789969166
-1138.6179881095886,4056.0,-3776.0,-15020.0,-445.0,1004.0,70.0,-0.3126442278346385,0.09557769829381414,0.8420754167706165,0.42898424546961156
-1138.6335685253143,3120.0,-4424.0,-15440.0,-544.0,192.0,-2144.0,-0.23746531093715506,-0.05326058200429319,0.8192978338297447,0.5191575830015122
-1138.6491885185242,3996.0,-4996.0,-14980.0,-297.0,-505.0,-3655.0,-0.035314066836609335,-0.2717032725120128,0.760800709246264,0.5883132917078314
-1138.6647901535034,5184.0,-4852.0,-14432.0,-574.0,-920.0,-4334.0,0.21864012877400316,-0.4756410791164895,0.5884323426709736,0.6162056767389754
-1138.6803817749023,6444.0,-4420.0,-14424.0,-1259.0,-761.0,-2723.0,0.3396798143449281,-0.5780056775787171,0.3796898837127509,0.637465805059033
-1138.696007013321,6376.0,-4672.0,-14624.0,-1128.0,40.0,-817.0,0.3244709358944876,-0.6362546557745671,0.2749334593284822,0.6436693387964167
-1138.7116231918335,5376.0,-4384.0,-14640.0,-854.0,132.0,-140.0,0.28089276700030447,-0.6694760779414578,0.2222922384474772,0.6507589378848713
-1138.727284669876,4720.0,-3736.0,-14964.0,-1103.0,141.0,-508.0,0.24116066321446247,-0.7105600556496874,0.13267791417263433,0.6475666088703718
-1138.7428722381592,4564.0,-4168.0,-15228.0,-947.0,157.0,-507.0,0.20832250565982335,-0.7421193195512529,0.050765449970954744,0.635046075709192
-1138.7584760189056,4632.0,-3996.0,-15252.0,-683.0,87.0,-504.0,0.19110149883097055,-0.7596859194931944,-0.018150730680237134,0.6213115738855262
-1138.7740573883057,4804.0,-4036.0,-15084.0,-515.0,254.0,-920.0,0.20632813380669637,-0.7772959481330389,-0.10244969210933122,0.5854432259429683
-1138.7896378040314,5060.0,-4212.0,-15064.0,-824.0,-364.0,-1552.0,0.22375201945576728,-0.7506711919979486,-0.25339342442292756,0.5676438740557911
-1138.8052396774292,5664.0,-3916.0,-14640.0,-991.0,-321.0,-1248.0,0.21144675011916514,-0.719445701388007,-0.3867693199459151,0.5367472848249317
-1138.8208510875702,5620.0,-3848.0,-15044.0,-1027.0,28.0,71.0,0.14401808141305678,-0.7392248963171294,-0.4283192177365557,0.49934756693967836
-1138.8364174365997,4896.0,-3672.0,-15112.0,-948.0,312.0,142.0,0.08802993992230972,-0.7671659658856366,-0.4549202973199366,0.4435703253717195
-1138.8520662784576,4368.0,-4084.0,-15120.0,-747.0,-180.0,-905.0,0.06562366130541919,-0.7261921715521119,-0.5430194516203828,0.416495306354344
-1138.867651939392,5140.0,-3864.0,-15296.0,-879.0,-87.0,-676.0,0.03031506858244127,-0.6928199931745107,-0.6155306996958686,0.37443745994014455
-1138.883237361908,5664.0,-3704.0,-15340.0,-523.0,302.0,946.0,-0.015796170898973734,-0.7513309632472355,-0.5719974825372739,0.3287417597779945
-1138.8988275527954,4988.0,-3208.0,-15212.0,-566.0,1021.0,1289.0,-0.038338955600084414,-0.8346630353315837,-0.49948528038141216,0.2288715723213877
-1138.914500951767,4136.0,-3864.0,-14888.0,-428.0,284.0,-97.0,-0.0549462499001955,-0.8338379487756347,-0.515574785805427,0.18941442670830347
-1138.9301736354828,4668.0,-3604.0,-15052.0,-411.0,-302.0,-1246.0,-0.07710594114072322,-0.7655754002996902,-0.6074730361733792,0.19729543993480572
-1138.9457967281342,5812.0,-3816.0,-15204.0,-557.0,126.0,103.0,-0.10905196646897125,-0.7684985726175019,-0.6103064250621234,0.158251951084349
-1138.9613764286041,5644.0,-3732.0,-15180.0,-336.0,683.0,1565.0,-0.11525390507996172,-0.8483870238467915,-0.5106677549722574,0.07857759963117597
-1138.9771342277527,4848.0,-3664.0,-15016.0,-396.0,542.0,901.0,-0.12572307729512194,-0.8840657913516166,-0.4499868879996355,0.011540581687608891
-1138.9927458763123,4864.0,-3892.0,-15144.0,-481.0,233.0,396.0,-0.1535367365236726,-0.8931123425991203,-0.4217746906795913,-0.029714042756023455
-1139.008388519287,5332.0,-3856.0,-15180.0,-175.0,294.0,1526.0,-0.15070517000972178,-0.9375282900430206,-0.3034964702426395,-0.0788577811735092
-1139.024052619934,5156.0,-3652.0,-15056.0,-324.0,748.0,1912.0,-0.14162838906407718,-0.9630849692378675,-0.15215578229445506,-0.17104782767861323
-1139.0396492481232,4724.0,-3816.0,-15324.0,-126.0,580.0,1324.0,-0.12345487660091624,-0.9628139625231869,-0.0457537053270187,-0.23591262251668593
-1139.0552814006805,4944.0,-3620.0,-15072.0,-58.0,432.0,955.0,-0.1061953854751136,-0.9531768039676095,0.030958458139076352,-0.281457091492711
-1139.0708549022675,5212.0,-3736.0,-15332.0,-411.0,629.0,1213.0,-0.11115052485370805,-0.9235846537187471,0.1351489448254385,-0.3411329813321162
-1139.086445569992,4796.0,-3960.0,-15384.0,71.0,544.0,1151.0,-0.07686710264519923,-0.8891054319421565,0.21924944339653674,-0.3943509363399467
-1139.102022409439,4608.0,-3532.0,-15000.0,-112.0,167.0,77.0,-0.08592157127807976,-0.8810868367062761,0.22799594392556638,-0.4053656612560118
-1139.1176121234894,5364.0,-3484.0,-15228.0,-443.0,341.0,270.0,-0.11687938261690445,-0.8591864321764361,0.26156646704190334,-0.423934980866447
-1139.1331803798676,5436.0,-3796.0,-15220.0,-235.0,810.0,1556.0,-0.09413080977399069,-0.7821537911828659,0.374312386866397,-0.4891472933871184
-1139.1487798690796,4808.0,-3764.0,-15084.0,-132.0,763.0,960.0,-0.08647494833676517,-0.7131625951137966,0.436782204391079,-0.5414263589519617
-1139.1643514633179,5064.0,-3700.0,-15340.0,-305.0,499.0,550.0,-0.09817527986499656,-0.664834934021138,0.48058585301268164,-0.5633767503301959
-1139.1799848079681,5140.0,-3660.0,-15152.0,-106.0,689.0,1136.0,-0.07679117502041882,-0.5786615598345962,0.5422644316703416,-0.6043204454211499
-1139.1955769062042,4736.0,-3772.0,-14924.0,-388.0,296.0,-74.0,-0.11414768931187971,-0.563568504747616,0.5566217277673616,-0.5996107884774691
-1139.2111947536469,5112.0,-4208.0,-15176.0,-500.0,101.0,-75.0,-0.14735698978284384,-0.5565092651349436,0.5776403314277195,-0.5787184141611342
-1139.2268154621124,5396.0,-3584.0,-15104.0,-186.0,559.0,725.0,-0.1474010265544865,-0.48786091546983085,0.6131587899971027,-0.6035734940973723
-1139.242443561554,4996.0,-3592.0,-14892.0,-472.0,516.0,297.0,-0.17901281016543708,-0.43788770492449375,0.6427644459828757,-0.6025467937454811
-1139.2580268383026,4804.0,-4028.0,-14876.0,-201.0,148.0,-223.0,-0.20655929957828925,-0.43939559778374626,0.6423884733034535,-0.5929602126389668
-1139.2736206054688,5248.0,-3668.0,-15024.0,-383.0,44.0,-475.0,-0.2478552937876705,-0.45630130472104574,0.6424420258914971,-0.563582395058369
-1139.2892050743103,5436.0,-3944.0,-15036.0,-502.0,254.0,-79.0,-0.28550669326909095,-0.4369486869212285,0.6578420913991813,-0.5429599947324982
-1139.3047986030579,5240.0,-3916.0,-15052.0,-169.0,403.0,447.0,-0.29334166431473524,-0.38750783108929804,0.6720233893616128,-0.5587243622507071
-1139.320389509201,4816.0,-3788.0,-14964.0,-472.0,187.0,-508.0,-0.3442346334895445,-0.395412319579654,0.6719272376128472,-0.5231303871741013
-1139.3360204696655,4832.0,-4320.0,-15308.0,-211.0,-131.0,-797.0,-0.37905009221032054,-0.44069124412756105,0.6564343329336036,-0.48083908066073905
-1139.3516011238098,5232.0,-3612.0,-15144.0,-217.0,-47.0,-658.0,-0.4113761727390486,-0.47239280444115483,0.6407881609746854,-0.4438526958006156
-1139.367177248001,5296.0,-3932.0,-14936.0,-189.0,172.0,-24.0,-0.4294003539576325,-0.46025233419840444,0.6409615397787377,-0.43926236967267035
-1139.382737159729,4936.0,-3956.0,-15084.0,-359.0,-12.0,-832.0,-0.4733501557532588,-0.4923346378773156,0.6200042259381253,-0.3861877706679023
-1139.3983266353607,4904.0,-4040.0,-15224.0,-102.0,-280.0,-839.0,-0.48914762243789295,-0.5413901380818901,0.5973439189257674,-0.33288370998508565
-1139.4140095710754,5588.0,-3636.0,-14848.0,-354.0,132.0,-167.0,-0.5170197513135276,-0.5308846907231332,0.5938970806200916,-0.31327029788735755
-1139.429621219635,5316.0,-3848.0,-15224.0,-168.0,292.0,306.0,-0.5309017600714161,-0.49914876868452923,0.5992041377974472,-0.33158442231234064
-1139.4451854228973,4700.0,-3412.0,-15164.0,76.0,231.0,-664.0,-0.5575846974672181,-0.5297839574583049,0.5565155444347963,-0.31419534110589586
-1139.4607853889465,4928.0,-3312.0,-15064.0,-175.0,-368.0,-1477.0,-0.5828706024229868,-0.5978597465840599,0.5066182512603737,-0.21485700299359278
-1139.476375579834,5676.0,-3492.0,-15280.0,-41.0,-255.0,-660.0,-0.5847373660899747,-0.6286274038961288,0.4851792797232367,-0.1658639993977398
-1139.4920001029968,5480.0,-3200.0,-14968.0,-174.0,182.0,-240.0,-0.6049292886632597,-0.6270911441015912,0.4652096159627541,-0.15619624170416743
-1139.5075883865356,5216.0,-3600.0,-14916.0,-341.0,-11.0,-684.0,-0.6308190400585155,-0.635707800163782,0.432230828595666,-0.10544876633741306
-1139.5232009887695,5208.0,-3944.0,-15012.0,-252.0,-26.0,-564.0,-0.6478281895910705,-0.6425321807985951,0.40428753236515824,-0.06342416403429135
-1139.5388040542603,5328.0,-3728.0,-15180.0,-240.0,251.0,13.0,-0.6695296970199462,-0.626953910448182,0.3921545537632894,-0.06981106606281966
-1139.5544159412384,4648.0,-3748.0,-15228.0,19.0,109.0,-47.0,-0.6722365905182873,-0.6291066235126861,0.38325607640060155,-0.07374010118539212
-1139.5700144767761,4364.0,-3540.0,-15052.0,-53.0,-585.0,-2163.0,-0.6568267021885901,-0.6891926662586643,0.2937766640129702,0.08536640878439757
-1139.5855836868286,6004.0,-3592.0,-14980.0,-47.0,-371.0,-1037.0,-0.6392651587682278,-0.7072093046510332,0.2513193489975304,0.16743249690395243
-1139.601150751114,6312.0,-3324.0,-15204.0,-186.0,565.0,973.0,-0.6738338308581255,-0.6805356475654365,0.27591177868702765,0.08180398013248404
-1139.616758108139,4948.0,-3868.0,-15112.0,-253.0,378.0,682.0,-0.7008322080027821,-0.6504324781712763,0.2917850648411059,0.025165124708398472
-1139.6323511600494,4548.0,-3620.0,-14872.0,65.0,-308.0,-920.0,-0.6846074258937219,-0.674898430856394,0.25777790394632744,0.09682630157032329
-1139.6479697227478,5404.0,-3464.0,-15240.0,81.0,-133.0,-324.0,-0.6735726892189198,-0.6857307666009466,0.24735408801600026,0.12202091303151064
-1139.6635534763336,5476.0,-3420.0,-15260.0,264.0,197.0,410.0,-0.6654849246248866,-0.6939252130331988,0.26298650155965514,0.08022290079056275
-1139.6791336536407,4932.0,-3356.0,-15408.0,303.0,185.0,292.0,-0.6526795729788952,-0.705706708620235,0.2719666530213731,0.044961717814535465
-1139.6947243213654,4896.0,-3476.0,-15188.0,530.0,45.0,-229.0,-0.6191868673811284,-0.7407127929207931,0.25718871689537476,0.0424987713696975
-1139.710333108902,5060.0,-3388.0,-15284.0,508.0,231.0,-461.0,-0.5884148906467795,-0.7779655956054955,0.21648469109858742,0.04088798159942025
-1139.7259922027588,5216.0,-3524.0,-15104.0,551.0,-13.0,-484.0,-0.5476705913367567,-0.8138370394700213,0.18598725321484716,0.055990518957360895
-1139.741590499878,5464.0,-3672.0,-14892.0,763.0,102.0,131.0,-0.4943806760299654,-0.8468404510909717,0.1937899262244983,0.02990755854458221
-1139.7571709156036,5608.0,-3296.0,-15012.0,314.0,417.0,328.0,-0.47813778700757914,-0.854810498397403,0.20065960718353312,-0.020469257681424654
-1139.7727489471436,4992.0,-4164.0,-15112.0,409.0,59.0,-116.0,-0.44828524487134436,-0.8733059490941385,0.18876809200717268,-0.027270239225139683
-1139.7883269786835,5256.0,-4020.0,-15028.0,607.0,-236.0,-175.0,-0.39759119997323855,-0.8990446325528727,0.18298451648792577,-0.01251611390929624
-1139.8039231300354,5548.0,-3744.0,-14900.0,407.0,7.0,806.0,-0.36349084891558886,-0.8975881525670549,0.24485306413150865,-0.04750671648616969
-1139.819521188736,5224.0,-3660.0,-15324.0,406.0,389.0,1016.0,-0.33379206562405794,-0.8826900709011981,0.30891133878921045,-0.11838446024001639
-1139.8350973129272,4904.0,-4016.0,-14872.0,318.0,8.0,-58.0,-0.3096895219597425,-0.8931430225804144,0.30089309637981854,-0.12590188940295008
-1139.8506882190704,5568.0,-3592.0,-14784.0,353.0,87.0,418.0,-0.2792410183679738,-0.8897609480540797,0.3269482525666572,-0.15314943396020658
-1139.866275548935,5428.0,-3952.0,-14852.0,119.0,553.0,1250.0,-0.26686030032459795,-0.8436176617953577,0.4061281363825555,-0.22837416153328557
-1139.8818571567535,4624.0,-4552.0,-14980.0,550.0,83.0,433.0,-0.219954044125866,-0.8378823472090946,0.42440564964290084,-0.2635398172178962
-1139.897435426712,5028.0,-3764.0,-15072.0,301.0,-142.0,-140.0,-0.19550776092340194,-0.85173388276303,0.40986687876208383,-0.2614101185225211
-1139.9130873680115,5412.0,-3912.0,-15144.0,350.0,216.0,602.0,-0.16285164708492583,-0.8296046230775773,0.44214240456278325,-0.29957570745552425
-1139.9287478923798,5068.0,-3852.0,-15024.0,533.0,195.0,392.0,-0.12104933455969956,-0.8155282914846351,0.4530917061412978,-0.3390701553023706
-1139.9443469047546,5048.0,-3736.0,-15004.0,431.0,203.0,438.0,-0.08509610785955751,-0.7955564795524062,0.4687122458059742,-0.3743759753254163
-1139.9599783420563,5036.0,-3736.0,-15240.0,665.0,395.0,533.0,-0.03740581810641618,-0.7633207162126434,0.4795414138828106,-0.4312566768685234
-1139.9756181240082,4728.0,-3620.0,-15268.0,628.0,302.0,-69.0,-0.010730951370466495,-0.7555995943677651,0.4495822077712932,-0.4762666670358564
-1139.9913172721863,4900.0,-4556.0,-15440.0,1066.0,-38.0,-607.0,0.03566460380179835,-0.7776660982163515,0.36332017730078403,-0.5118221609961251
-1140.0069496631622,5132.0,-3344.0,-15224.0,1149.0,238.0,-167.0,0.09809996204424033,-0.7648340216855916,0.2998945616546352,-0.5616658869907778
-1140.022662639618,5076.0,-4004.0,-15220.0,1240.0,322.0,-190.0,0.1620609536573413,-0.7388861604127135,0.2278301110542282,-0.6130880277311315
-1140.038257598877,4808.0,-3732.0,-15172.0,1579.0,216.0,-559.0,0.2271673286015649,-0.7086678755329949,0.10926310774940684,-0.6589737629743098
-1140.053827047348,4924.0,-3576.0,-15348.0,1672.0,485.0,-663.0,0.2840318143110754,-0.6457193448096629,-0.017980760457592747,-0.7085542664123232
-1140.069406747818,4804.0,-3680.0,-15576.0,2214.0,417.0,-1035.0,0.3375885314202362,-0.5509559999299076,-0.19824904157651094,-0.7370066397996416
-1140.0849859714508,4952.0,-3624.0,-15324.0,2375.0,456.0,-1677.0,0.3407197902173186,-0.4096347595266096,-0.40508524930665474,-0.7429773409304005
-1140.1005651950836,5520.0,-3856.0,-15652.0,2808.0,1129.0,-564.0,0.4292061627175601,-0.22527049895444623,-0.5542060505179707,-0.6766763818512914
-1140.1161663532257,5076.0,-3700.0,-16060.0,3499.0,1689.0,158.0,0.5577241786105931,-0.0021795355870918814,-0.6578041159301187,-0.5061943651238707
-1140.1317918300629,3604.0,-3968.0,-16136.0,4100.0,1458.0,-1500.0,0.5343258372811912,0.3227364252925545,-0.7130836413969701,-0.3191376188655523
-1140.1473779678345,3912.0,-3648.0,-16328.0,4865.0,1584.0,-2629.0,0.37756075652253157,0.6768008184617076,-0.6263435577590036,-0.08415625299102862
-1140.162957906723,4740.0,-3460.0,-16920.0,6011.0,2347.0,-1949.0,0.11743297701217824,0.8607000492559868,-0.4120914616475873,0.2749282603843303
-1140.1785790920258,4448.0,-3396.0,-17344.0,7454.0,3752.0,-1561.0,-0.21718143954690164,0.7258065795161354,-0.06239611774442332,0.6497259083166128
-1140.1941678524017,4424.0,-3092.0,-17276.0,8157.0,4814.0,-2009.0,-0.45350648232757135,0.23640867147582018,0.3331156325182052,0.7921343231484835
-1140.209788799286,5332.0,-3452.0,-17196.0,8411.0,6084.0,-1421.0,-0.5208060154915194,-0.4118906924920413,0.5190383955771667,0.5382437139279513
-1140.225412607193,5552.0,-3592.0,-18524.0,8496.0,7570.0,-1081.0,-0.3592135558371148,-0.8513889747013825,0.37902804208395974,-0.049398161643776604
-1140.2409873008728,5176.0,-4236.0,-20188.0,7747.0,8323.0,-1596.0,-0.04626427013585956,-0.7849069223455009,-0.023861685568530244,-0.6174231616361169
-1140.2565610408783,4940.0,-3996.0,-20400.0,8721.0,8363.0,1779.0,0.454656869651498,-0.2555498827434201,-0.2775583498192227,-0.8068102321823609
-1140.2721309661865,2572.0,-3148.0,-18252.0,10244.0,8555.0,175.0,0.588008329234385,0.48775371758244,-0.427116869401501,-0.4836462504849571
-1140.2877576351166,780.0,-5416.0,-15152.0,8532.0,5758.0,-8836.0,0.04279041681177591,0.9666550084030954,-0.07470058326909793,-0.24117814539784196
-1140.3033056259155,3944.0,-8420.0,-12292.0,8217.0,1368.0,-14798.0,-0.5331095059479906,0.6278579784548991,0.5626045326219511,-0.07116708109549509
-1140.3189029693604,10908.0,-2348.0,-10696.0,3571.0,3504.0,1497.0,-0.8111755129531059,0.5068781833862547,0.26898506143990647,-0.11276449403285436
-1140.3344967365265,7548.0,-1912.0,-10960.0,-202.0,7655.0,24211.0,-0.30587133650341874,0.47922241335519605,-0.5518724316560646,-0.6101027972576887
-1140.350082397461,-5968.0,480.0,-11296.0,-2111.0,3998.0,22934.0,0.526454091869201,-0.15663553820732318,-0.662672227759214,-0.5090942112038964
-1140.3656628131866,-13260.0,2020.0,-11948.0,-8390.0,-6633.0,2279.0,0.09345438363006774,-0.7007245455208092,-0.4077131536559053,-0.5779458225655199
-1140.3812453746796,-7820.0,-1744.0,-15512.0,-10930.0,-13583.0,-9795.0,-0.7717500029368128,-0.5600391197521332,-0.2815090812381006,-0.10728818432038836
-1140.3968636989594,1984.0,-3440.0,-17592.0,-10075.0,-13670.0,-3610.0,-0.8999761887310838,0.04352800808027874,0.3068550967167083,0.306574822594119
-1140.4124402999878,4548.0,-4220.0,-18260.0,-9967.0,-11862.0,4877.0,-0.38900876591287986,0.734550593256448,0.5496274164637407,0.083769380210984
-1140.4280970096588,1288.0,-4892.0,-18072.0,-10179.0,-13641.0,3958.0,0.48746156167340204,0.7510531538047479,0.3753868274322804,-0.23955190636101553
-1140.4436750411987,260.0,-3944.0,-17752.0,-11612.0,-17158.0,-3157.0,0.8369649702788016,-0.09832248479231037,0.04570229893207163,-0.5364080791550353
-1140.4592933654785,3864.0,-3256.0,-17932.0,-13439.0,-18300.0,-5630.0,0.23360850723237775,-0.8618351657970791,-0.31236156577091895,-0.32418739113870676
-1140.4748594760895,7140.0,-3852.0,-17940.0,-13393.0,-16612.0,-632.0,-0.588490717085047,-0.7508661400459296,-0.1511840742913213,0.25888625169740076
-1140.4904432296753,6960.0,-3672.0,-17416.0,-13036.0,-14791.0,5049.0,-0.8595130260739313,0.09130166800122709,0.3163827815890447,0.3909006254067727
-1140.5060150623322,4976.0,-3420.0,-15876.0,-13322.0,-13576.0,7578.0,-0.31107347346894115,0.8609492723458015,0.4004900899668144,0.04009155010193416
-1140.5216207504272,3812.0,-4756.0,-16240.0,-14056.0,-13852.0,4053.0,0.6007141586010892,0.7082908690443925,0.2090703314098705,-0.3061962459088807
-1140.5371918678284,5460.0,-5804.0,-17888.0,-13763.0,-13381.0,3043.0,0.9024613377967554,-0.16008835698696341,-0.15884496361933337,-0.3670197941148104
-1140.5527606010437,7116.0,-6160.0,-18072.0,-11654.0,-11414.0,6740.0,0.4341000058762947,-0.8369202605388641,-0.32151193951970825,0.08804393871264615
-1140.568353652954,6608.0,-4312.0,-16784.0,-11194.0,-9547.0,10301.0,-0.3929906176076972,-0.7942828490654119,-0.009128886883315698,0.46323837662387646
-1140.5839774608612,3264.0,-3732.0,-16068.0,-12347.0,-9391.0,7437.0,-0.8631552488726897,0.0015295348942335671,0.18257799976538228,0.4707716546991803
-1140.5995540618896,2288.0,-4164.0,-16676.0,-12551.0,-10119.0,2605.0,-0.4636161348304981,0.8065398436407064,0.24641842598658864,0.2717195603543229
-1140.6151654720306,4752.0,-4136.0,-17128.0,-11412.0,-8695.0,3411.0,0.2735378492952835,0.9496646169104591,0.05373858919250602,-0.1429206927733721
-1140.6307318210602,5216.0,-3596.0,-16112.0,-10027.0,-5741.0,4801.0,0.804586929353899,0.44666180911816433,-0.2405819455464105,-0.308631542239701
-1140.6463460922241,4132.0,-5044.0,-16136.0,-7556.0,-4242.0,2954.0,0.8512513445073937,-0.20317501045230038,-0.35181473717939077,-0.3321407146157461
-1140.6619856357574,4532.0,-3352.0,-16008.0,-6736.0,-3336.0,1901.0,0.5667928829874732,-0.7111944912324375,-0.30717361262155274,-0.28034370894387295
-1140.6775574684143,4712.0,-3604.0,-15704.0,-5007.0,-2271.0,5335.0,0.2705705594297341,-0.9622520605499002,0.02825023626467497,-0.008029227132281573
-1140.6931660175323,3216.0,-1988.0,-14308.0,-4214.0,-1780.0,4918.0,-0.06533558642091561,-0.9066523371278978,0.3468951683043102,0.23103364026626128
-1140.7087397575378,1496.0,-1788.0,-13836.0,-5713.0,-1395.0,616.0,-0.43322741804799536,-0.7353296644694428,0.2563369008214473,0.4537572942443786
-1140.7243144512177,1528.0,-3296.0,-15036.0,-4466.0,-1139.0,689.0,-0.6683765390735437,-0.4688995412892781,0.15454859918908423,0.5563458930229183
-1140.7399146556854,1656.0,-1556.0,-14588.0,-3704.0,-379.0,1911.0,-0.8525041709654222,-0.19626680721210718,0.07057408796382297,0.4793070800451404
-1140.7554919719696,-952.0,-1976.0,-14716.0,-3811.0,-1153.0,-2935.0,-0.7233869453258538,0.10752200475711916,-0.048947271118299336,0.6802606195240261
-1140.7711234092712,-1112.0,-3668.0,-15376.0,-2024.0,-2075.0,-7473.0,-0.22093862798865307,0.3200815795672397,0.026044194356427547,0.9208993457618248
-1140.7867090702057,988.0,-2032.0,-14848.0,-478.0,-2297.0,-6354.0,0.2653587003344333,0.4302091718005664,0.18022823701097185,0.843814322727108
-1140.8022680282593,320.0,-1364.0,-14492.0,-114.0,-1629.0,-6788.0,0.6789485667902186,0.37663576188843656,0.33222609974416323,0.5355372677685525
-1140.8178734779358,524.0,-1044.0,-14856.0,-336.0,-1667.0,-8450.0,0.905536842161205,0.15173375930019026,0.39612168745874377,-0.008215990639134214
-1140.8335075378418,2392.0,-2752.0,-15356.0,707.0,-763.0,-6369.0,0.7997289640169606,-0.011386351089577309,0.3658955541215142,-0.47584070716504895
-1140.8490860462189,3236.0,-1188.0,-14652.0,1248.0,1360.0,189.0,0.755433387051834,0.13634969279655298,0.4041960848268081,-0.49734764904678014
-1140.86470079422,416.0,-1156.0,-14744.0,1179.0,2072.0,830.0,0.6877001395060184,0.3255253095251971,0.46877628553935347,-0.448721054885832
-1140.8802919387817,-1536.0,-1296.0,-14936.0,1608.0,1588.0,-533.0,0.5449263886921926,0.4533019788336201,0.5061758521040146,-0.4912825598768842
-1140.8959152698517,-1464.0,-956.0,-14820.0,1581.0,1112.0,-3197.0,0.2814460702286895,0.4136485680171584,0.5874758822500549,-0.636046428733549
-1140.9115121364594,-920.0,-1216.0,-15012.0,1570.0,1011.0,-3531.0,-0.021853267935121656,0.3091827176375095,0.6164361781587919,-0.7238334891753918
-1140.927181482315,-1308.0,-2552.0,-15008.0,2222.0,939.0,-6165.0,-0.4517586398475829,0.02835041727084833,0.5549212294191759,-0.6979776603183953
-1140.942812204361,-296.0,-1884.0,-15416.0,2417.0,296.0,-7014.0,-0.7546682132174279,-0.32608099988329164,0.34718215963884264,-0.4512334401425019
-1140.9584329128265,400.0,-1404.0,-15984.0,2831.0,1003.0,-4940.0,-0.8025450783329254,-0.5561161738904445,0.026168117713691617,-0.21440948672195836
-1140.974155664444,-148.0,-2844.0,-15600.0,4286.0,1059.0,-7565.0,-0.5865437795783768,-0.6784628845714791,-0.39350210990539636,0.20201633200526536
-1140.9897952079773,2900.0,-2652.0,-15080.0,4360.0,1941.0,-8065.0,-0.0923324857875735,-0.5101317906603504,-0.6916930748897533,0.5027931566514307
-1141.0053963661194,5260.0,-4840.0,-15860.0,6927.0,2805.0,-7962.0,0.5320001350050477,-0.1508830753292749,-0.5537580808669987,0.6225448914000415
-1141.0210378170013,6296.0,23368.0,-31248.0,16922.0,-8504.0,17558.0,-0.24748664985874605,0.10073591801956837,0.08188159473110403,0.9601552152682089
-1141.0367057323456,-10004.0,11592.0,-24372.0,-25877.0,22893.0,28480.0,-0.6371886323382985,-0.2616449582979729,-0.7019000117951165,0.18129792072198775
-1141.0522964000702,-24508.0,-32744.0,-22484.0,13251.0,-995.0,-32768.0,0.03793389985307986,0.3158290129045018,-0.36536902851937936,0.8748248549558417
-1141.067920923233,17568.0,3156.0,-18980.0,990.0,-1284.0,-29940.0,0.8051506926327271,0.4897820963670558,0.18957112118833366,0.27551524502780256
-1141.0835235118866,22700.0,-4532.0,-24272.0,4814.0,16553.0,14496.0,-0.010521528295367922,0.30381990543519816,0.38481060835656133,0.8714950132960775
-1141.0991129875183,-14376.0,-23848.0,-17808.0,20737.0,10291.0,9151.0,-0.6698746651930593,-0.07972212958384109,0.7149596212316918,0.18369827161772542
-1141.1147010326385,-12644.0,5932.0,-6084.0,8305.0,-2172.0,-32768.0,0.01569970696389232,-0.8251254349794221,0.2393555604155111,0.511498241883043
-1141.1303162574768,10356.0,384.0,-11324.0,-4390.0,-2071.0,-31709.0,0.3896361301664679,-0.4713038648098415,-0.7544762889426281,0.2383734098165434
-1141.1458897590637,21232.0,-6556.0,-15044.0,602.0,8477.0,5313.0,0.6489330986360394,-0.7353321016040264,-0.1770589997536121,0.08259930055081954
-1141.161515712738,12308.0,-4612.0,-15572.0,3610.0,15899.0,28717.0,0.30132555134907635,-0.35714949856150163,0.8497732736130513,0.24399289177023437
-1141.1771318912506,-4476.0,-3192.0,-16012.0,4536.0,11684.0,19381.0,-0.3719878114561913,0.42265229120464926,0.8260981964262574,0.023492099284185546
-1141.1927483081818,-9268.0,-2624.0,-14720.0,2850.0,3610.0,-4076.0,-0.6423176088506566,0.025474082818569662,0.7624808441368313,0.07349913461608201
-1141.2083415985107,748.0,-1956.0,-15492.0,157.0,1208.0,-8278.0,-0.5408932862366185,-0.4376244931188472,0.5769818020797761,0.4277981486582165
-1141.2239892482758,7224.0,-4288.0,-16220.0,1531.0,4735.0,2942.0,-0.7415301997025943,-0.48082580281691617,0.4671025209114628,0.027472626970406252
-1141.2395935058594,2936.0,-2512.0,-15828.0,3001.0,4647.0,2384.0,-0.7174561508954331,-0.5214651022845406,0.24238044259704047,-0.3931698611136745
-1141.2551860809326,176.0,-908.0,-15196.0,600.0,1882.0,-6545.0,-0.8196009958921445,-0.5437380652922036,-0.16639572058631683,-0.070111254841549
-1141.2708048820496,2388.0,-2072.0,-15392.0,149.0,868.0,-8227.0,-0.6891967338438596,-0.34852099466980185,-0.5025239407403452,0.3886009100814384
-1141.2864348888397,4960.0,-1984.0,-14388.0,-361.0,1594.0,-5994.0,-0.37517462464659485,-0.10380340822718931,-0.6972430176983646,0.6019310822117298
-1141.3020198345184,5208.0,-3796.0,-15764.0,-1562.0,2137.0,-4993.0,0.0028500929316256094,0.12460700840435741,-0.8023598520350507,0.58368111008417
-1141.3176074028015,5024.0,-6800.0,-16948.0,-252.0,3162.0,1619.0,0.13806882611589466,-0.14302633533145523,-0.7946995629312191,0.5735268706290597
-1141.3332159519196,3512.0,-2980.0,-15068.0,1162.0,3748.0,3552.0,0.21309821601305082,-0.5110594011742132,-0.5876279104042712,0.5900007438278528
-1141.348798751831,2020.0,-1080.0,-15440.0,-1820.0,3502.0,715.0,0.2592086786306339,-0.7191516552459875,-0.5516381418101697,0.3336571866148551
-1141.3643760681152,2276.0,-2784.0,-16952.0,1061.0,2156.0,-361.0,0.43040044606842337,-0.7245271255425344,-0.483981302932676,0.23574986487538857
-1141.3800075054169,4192.0,1404.0,-14456.0,-458.0,1966.0,-1607.0,0.5046970954279483,-0.6969317612053239,-0.5085480340572573,0.03075482313941099
-1141.39559340477,4556.0,-572.0,-14640.0,-1474.0,826.0,-3238.0,0.4383870109756541,-0.5911433515719153,-0.6413632569864932,-0.21683989275000104
-1141.4111833572388,4004.0,-2076.0,-15776.0,-1312.0,1685.0,-2168.0,0.4095718987948112,-0.47189628322595956,-0.6418023311278985,-0.444583541478914
-1141.4268019199371,2836.0,-3320.0,-16000.0,-688.0,1702.0,-1367.0,0.4152275518540319,-0.3472106900622955,-0.5989037909726966,-0.5902076465501818
-1141.4424414634705,1728.0,-2676.0,-15528.0,-178.0,1575.0,-2064.0,0.37619266794402767,-0.16074048992053724,-0.5806282418796194,-0.7039264281279984
-1141.458037853241,1800.0,-2524.0,-15716.0,-500.0,-481.0,-6936.0,-0.06948590103911202,0.12356399785830016,-0.5666453470435411,-0.8116752421159349
-1141.4736518859863,4808.0,-3772.0,-15344.0,-1701.0,-322.0,-6626.0,-0.460451344848973,0.3766272283803978,-0.32017335682033715,-0.7373096442144704
-1141.4893279075623,7812.0,-4384.0,-15640.0,-1042.0,2001.0,1384.0,-0.2739548679529394,0.49573436102245955,-0.36937062109751284,-0.7367235016589189
-1141.5049171447754,5760.0,-2556.0,-15448.0,-1287.0,4183.0,6372.0,0.27052849414008656,0.4892674835517324,-0.5491263107126808,-0.6212020269448038
-1141.5205748081207,1040.0,-3352.0,-16228.0,-1539.0,2829.0,2599.0,0.576206858949586,0.4532457399384606,-0.47971502681316786,-0.4821072992361045
-1141.5361578464508,912.0,-2972.0,-15576.0,-1150.0,235.0,-4263.0,0.42172558693035883,0.5447954536324299,-0.2342489718294242,-0.6859102435643726
-1141.5517404079437,5536.0,-2408.0,-15468.0,-2756.0,-216.0,-4351.0,0.2625026656013443,0.4738631562404437,0.11812918184279979,-0.8322208577698496
-1141.5673174858093,7332.0,-3608.0,-16756.0,-1842.0,2388.0,4246.0,0.5666021125667764,0.5908988957390182,0.11939065751927905,-0.5617351795520636
-1141.5828886032104,4432.0,-1704.0,-16400.0,-738.0,3660.0,6348.0,0.7382252512066669,0.6731311615642893,0.007754761810878923,-0.043101989295397866
-1141.5984621047974,1240.0,-988.0,-16284.0,-689.0,2258.0,510.0,0.7621353416136756,0.6241206058638461,0.12313775652476044,0.12025091815699661
-1141.6140270233154,3380.0,-1016.0,-16192.0,293.0,612.0,-2275.0,0.7473974186265878,0.6002480624691667,0.2847782371722799,-0.0008472103475102536
-1141.6296272277832,6884.0,584.0,-15900.0,172.0,1845.0,1583.0,0.6772759736354185,0.636915254925547,0.3151342178105648,0.19059548353579853
-1141.645221233368,5124.0,672.0,-15916.0,-563.0,3355.0,3387.0,0.5162460932627811,0.5913948774567701,0.2913036800958077,0.5467030602360361
-1141.660805463791,2096.0,-2680.0,-16628.0,509.0,1407.0,-415.0,0.4695440069075651,0.5320235665231325,0.3968392193462884,0.5822353340615998
-1141.6763916015625,3572.0,-1252.0,-15500.0,637.0,375.0,-2696.0,0.5477317093123977,0.4332288512925577,0.5536051443579836,0.453678389568895
-1141.6920194625854,5764.0,-1572.0,-15808.0,-365.0,1580.0,-94.0,0.4838686199559366,0.34541912294604027,0.6122404421983713,0.5212661787051492
-1141.7076036930084,4196.0,-2748.0,-16352.0,1450.0,1703.0,836.0,0.3043905799152469,0.36611191569068285,0.7098032817102752,0.5191220871061855
-1141.7232341766357,2740.0,-1772.0,-15564.0,274.0,745.0,-4068.0,0.40776426896253937,0.08253259946682533,0.8201434460553848,0.3927867091375321
-1141.7388334274292,5280.0,-3660.0,-15884.0,584.0,642.0,-1963.0,0.4174340924107681,-0.05815863147407893,0.8623056667456391,0.2807049860202333
-1141.7544419765472,6652.0,-2512.0,-15656.0,1146.0,2285.0,2682.0,0.1763462542464468,0.12317455059470292,0.9394342823387571,0.26682064737517036
-1141.770029783249,3620.0,-2316.0,-15552.0,1238.0,1828.0,1209.0,-0.014843741720496097,0.19417325288879944,0.9605363195645968,0.19861115273724206
-1141.785598039627,2368.0,-3100.0,-15412.0,646.0,-335.0,-4861.0,0.07945663947657466,-0.19144242947210324,0.9691924003630004,0.13305085388494817
-1141.801146030426,6056.0,-4792.0,-16300.0,1659.0,121.0,-1164.0,0.1085859798364154,-0.27550915037192925,0.9549884821717797,-0.01734335502558855
-1141.8167486190796,6572.0,-1364.0,-15268.0,1937.0,2353.0,3638.0,-0.03301961773600044,0.04583309344110057,0.9809871518213119,-0.18566970768463517
-1141.8323261737823,2824.0,-1688.0,-15108.0,1362.0,1189.0,-704.0,-0.1496685446125373,0.000860836468606505,0.9449277231884623,-0.29105013943306707
-1141.8479335308075,3508.0,-1540.0,-14928.0,1634.0,-1236.0,-5026.0,-0.15859410019147696,-0.4214578201267903,0.8315085390852186,-0.32529181770649457
-1141.863524198532,7968.0,-72.0,-14728.0,158.0,324.0,-541.0,-0.1914276049897994,-0.4530845656036385,0.8013959549182089,-0.340344490039671
-1141.8790991306305,7216.0,-1712.0,-15500.0,510.0,2283.0,4055.0,-0.19482603721744643,-0.10215354947685366,0.8411044347644746,-0.49411617800974705
-1141.8946781158447,3684.0,-880.0,-15516.0,1000.0,2033.0,2265.0,-0.2286677735627634,0.1297252989739623,0.7548787940688879,-0.6008663764973593
-1141.910255432129,2568.0,-1484.0,-15444.0,162.0,363.0,-1844.0,-0.3463857690300935,0.023740626937279508,0.7501304659148609,-0.5628121940331512
-1141.925971031189,5120.0,-1332.0,-15760.0,867.0,537.0,-795.0,-0.4196490285871567,-0.02799945229996577,0.6888202448925129,-0.5904552427601741
-1141.941568851471,5240.0,220.0,-15004.0,121.0,1221.0,-727.0,-0.5260790757568333,-0.013189627102844298,0.6314617081280969,-0.5694935916721717
-1141.957188129425,4048.0,-1152.0,-14996.0,-2.0,596.0,-2218.0,-0.6559857884348053,-0.10367401008036352,0.5901630267195879,-0.45895745652358555
-1141.9727811813354,3904.0,-684.0,-15092.0,-3.0,-391.0,-5741.0,-0.773587451852634,-0.37075170201987806,0.5013201479886681,-0.11306519803251751
-1141.9883811473846,4760.0,-3296.0,-15764.0,-677.0,-555.0,-6640.0,-0.7222485619488126,-0.5362432084749165,0.28568357583831,0.3304317336813095
-1142.0039973258972,5968.0,-5060.0,-15732.0,140.0,-492.0,-4047.0,-0.5526349364172987,-0.5953513030930957,0.12390775928022633,0.569910800166618
-1142.019586801529,5984.0,-4548.0,-15808.0,265.0,572.0,-1225.0,-0.4805545508353146,-0.6453890020256977,0.04559977559241617,0.5919974832730829
-1142.0352153778076,3992.0,-4888.0,-15876.0,507.0,341.0,-837.0,-0.40830329286369244,-0.6850225412193629,0.010306999297523522,0.6032630477855518
-1142.0508117675781,4320.0,-2344.0,-15072.0,1125.0,-118.0,-1995.0,-0.23119843544547902,-0.7068885723923574,-0.04463229301031632,0.6669811002489493
-1142.0664327144623,5516.0,-1220.0,-15336.0,-177.0,166.0,-2347.0,-0.1026266942679994,-0.6895799107278769,-0.19892032175760802,0.6887510536732452
-1142.0820214748383,6424.0,-2644.0,-14996.0,242.0,148.0,-1283.0,-0.008234860989535207,-0.6741245207011108,-0.26130166555514217,0.6908037038349528
-1142.0976004600525,7804.0,-1932.0,-15032.0,-21.0,1347.0,2948.0,-0.15052481630403908,-0.7916413921442901,-0.08679742930530748,0.5857579638267634
-1142.1131782531738,5396.0,-1600.0,-15492.0,87.0,2007.0,4157.0,-0.31697648018637975,-0.8598417213122094,0.1655299124823762,0.36441456251512144
-1142.1287825107574,1956.0,-1292.0,-15332.0,-131.0,741.0,-914.0,-0.30663215095228935,-0.8884025630868398,0.07193416316819036,0.33398066721353475
-1142.1443736553192,3220.0,-2748.0,-15440.0,-154.0,-1037.0,-5390.0,-0.13957437141643314,-0.8008447571878952,-0.29101552212126447,0.5044567727891625
-1142.1599986553192,6940.0,-2600.0,-15056.0,-9.0,-534.0,-2832.0,-0.028091572293547116,-0.6841155602864044,-0.4683466139989783,0.5584337139677256
-1142.1755900382996,7452.0,-3240.0,-15368.0,-460.0,1134.0,1679.0,-0.08946666454245926,-0.7940213775441981,-0.38712193629906716,0.46006779323760766
-1142.1911754608154,5264.0,-3420.0,-15480.0,-356.0,918.0,1066.0,-0.12479488023678684,-0.8573610338816439,-0.3321526207908692,0.37287120021509007
-1142.2067794799805,4556.0,-3356.0,-15528.0,-3.0,160.0,362.0,-0.13192758031346444,-0.8726070604992673,-0.30679291395108005,0.35641287781008657
-1142.2223522663116,5428.0,-1648.0,-15436.0,-430.0,1186.0,1625.0,-0.18045025398135156,-0.933217089593404,-0.20680536105549482,0.23189461435658387
-1142.237998008728,5576.0,-3620.0,-15700.0,-124.0,1703.0,2783.0,-0.20767116877736314,-0.9771157000019927,-0.00912401366733771,0.04510373424515871
-1142.2535717487335,5612.0,-3364.0,-15224.0,891.0,915.0,2640.0,-0.136696781696596,-0.9677875699371136,0.1966167224846522,-0.07773720980587646
-1142.2691886425018,6444.0,-1760.0,-15528.0,-388.0,1528.0,4010.0,-0.15747491898932944,-0.8273885002844626,0.4864861386950263,-0.2322954074964365
-1142.2847793102264,5080.0,-2696.0,-15832.0,404.0,1763.0,4835.0,-0.09559631372669783,-0.5397472720465106,0.7323580491622408,-0.40396276430816447
-1142.3003633022308,3620.0,-1904.0,-15284.0,345.0,311.0,1262.0,-0.054326179171722104,-0.4480359907857481,0.7718555694485806,-0.44782965190844853
-1142.315978050232,5392.0,-1644.0,-14976.0,-205.0,-12.0,478.0,-0.0428720001828486,-0.4150215595640642,0.7978826912802989,-0.4350888502968574
-1142.3316009044647,6312.0,-1804.0,-15112.0,-312.0,658.0,2013.0,-0.023257386527451112,-0.24460549953330488,0.8652997235115135,-0.436902314094207
-1142.347228050232,5376.0,-1884.0,-15352.0,61.0,911.0,2400.0,0.00063453494306895,-0.028169688165048605,0.8904054016987076,-0.4542953738041509
-1142.3628051280975,4456.0,-1684.0,-15044.0,-86.0,341.0,542.0,-0.004687162506337126,0.027355683166735468,0.8938842957570743,-0.4474377754559842
-1142.3784296512604,4996.0,-1804.0,-15196.0,-250.0,230.0,-227.0,-0.03099395217674179,0.018662501373025733,0.9036464237634468,-0.42674843501822085
-1142.3940207958221,5588.0,-2044.0,-15532.0,229.0,963.0,1703.0,-0.04336868929397933,0.1854222674552326,0.8770182658690897,-0.4411084910230782
-1142.409595489502,4140.0,-1188.0,-15300.0,566.0,1239.0,1083.0,-0.1045405164855648,0.3102879184389466,0.8237270485580883,-0.46288922817185735
-1142.4251980781555,3164.0,-1024.0,-15168.0,378.0,735.0,-1936.0,-0.24177819066202416,0.19412847209541356,0.8402646138640635,-0.4447615333299121
-1142.4407784938812,3668.0,-2088.0,-15088.0,155.0,-1240.0,-6684.0,-0.3550186593978958,-0.29872416700041404,0.8374442091017146,-0.2888127770221277
-1142.4563364982605,6872.0,-4376.0,-15440.0,-584.0,-1726.0,-7164.0,-0.3566540739484023,-0.7123077805180311,0.6042410556342226,0.017556880005414267
-1142.471940279007,9032.0,-5560.0,-15984.0,626.0,691.0,2156.0,-0.34999829483699074,-0.606519269799737,0.70318024066024,-0.12317921138649901
-1142.4875087738037,5824.0,-1740.0,-15072.0,1012.0,1926.0,4056.0,-0.34400648054743793,-0.3413611941439407,0.7871364565426969,-0.3815078967143343
-1142.5030887126923,1760.0,-2108.0,-15156.0,62.0,-860.0,-4775.0,-0.4068738657975559,-0.6444880591481432,0.6158723953183187,-0.1994742881458376
-1142.5186605453491,4728.0,-2816.0,-14972.0,816.0,-2790.0,-7613.0,-0.27974369414973554,-0.9218953294439808,0.22224372987481833,0.14986724680250252
-1142.534256219864,9052.0,-1384.0,-14888.0,227.0,-151.0,-703.0,-0.24869152736137143,-0.9371385456912892,0.172035158065954,0.17414871457322326
-1142.5498352050781,7292.0,-2332.0,-15572.0,458.0,2017.0,3947.0,-0.2808452954820361,-0.856032887218692,0.4269204627519447,-0.07792646847704417
-1142.5654196739197,3248.0,-2868.0,-14912.0,183.0,-398.0,-2956.0,-0.26333782509422,-0.9419223987856455,0.20773252975782608,0.016810134471656555
-1142.581001996994,5328.0,-3864.0,-15796.0,100.0,-2015.0,-3419.0,-0.2015655458812467,-0.9480538774945173,-0.025343063748174993,0.24479155459505023
-1142.5965769290924,8772.0,-2124.0,-14928.0,-765.0,470.0,1904.0,-0.29937599942830345,-0.9333067266621787,0.10584033249956697,0.16766153091814176
-1142.6121664047241,7224.0,-3784.0,-15588.0,-800.0,1353.0,5417.0,-0.40921292142130977,-0.7915151655563911,0.44865047308329786,-0.06900203358024022
-1142.627816915512,4116.0,-1948.0,-15020.0,-418.0,598.0,3190.0,-0.425003414138037,-0.6232536634053149,0.6252629535677345,-0.1999330085769229
-1142.643436908722,3856.0,-2592.0,-15360.0,-1790.0,-2003.0,-1861.0,-0.4281748734045913,-0.6668329635955489,0.6055552059366353,0.07282148728486024
-1142.6590151786804,7844.0,-3008.0,-15664.0,-1307.0,-884.0,2276.0,-0.45857480999920364,-0.47835045009387284,0.7415212404874646,0.10505351224549951
-1142.6745784282684,7624.0,-2256.0,-15968.0,-1094.0,1178.0,7652.0,-0.5372391957784396,0.04112325660125908,0.8292395794065943,-0.14847438914310093
-1142.6901700496674,4064.0,-2248.0,-15484.0,-1205.0,692.0,5589.0,-0.4559778400675175,0.45659807571535105,0.7081411313768271,-0.28659822866296164
-1142.7057838439941,3212.0,-2788.0,-15216.0,-1446.0,-1075.0,889.0,-0.3048347878539156,0.5340844272807235,0.7404863405944119,-0.27112645766021537
-1142.7213914394379,5008.0,-2332.0,-15260.0,-1063.0,-1059.0,1383.0,-0.15163766264081052,0.6169818791083598,0.7181752502051089,-0.28383743606786344
-1142.7370042800903,4828.0,-1884.0,-15024.0,-1421.0,-1177.0,218.0,0.003974991107443054,0.612310356554985,0.7475460944255635,-0.25736173649221694
-1142.7525897026062,5216.0,-3168.0,-14864.0,-1283.0,-1822.0,-839.0,0.16877468536521537,0.5054248689846774,0.8035052886058469,-0.2654054607089481
-1142.7681622505188,6632.0,-1968.0,-15220.0,-756.0,-1103.0,2096.0,0.32035473599102304,0.6017653950006422,0.6962260772948369,-0.22476766182546598
-1142.7837555408478,5680.0,-944.0,-15512.0,-943.0,245.0,4338.0,0.4100658677750408,0.786723163612909,0.46038823206035545,-0.030908311198430374
-1142.799339056015,3656.0,-2004.0,-15164.0,-549.0,-88.0,3164.0,0.4424867878317382,0.8608965042996952,0.23256237946030747,0.09474909571428554
-1142.8149206638336,3356.0,-2420.0,-15548.0,-380.0,-1378.0,-448.0,0.49819191840109783,0.8415258043708862,0.20810440318948295,-0.01821236917361386
-1142.8305084705353,5828.0,-2528.0,-15444.0,-245.0,-610.0,1754.0,0.5228567980429474,0.8506246081027656,0.05244263478540063,0.017558897660675456
-1142.846081495285,5428.0,-1300.0,-15656.0,956.0,389.0,4318.0,0.41326693307898626,0.8518217398022909,-0.23211115218416511,0.22301250784524715
-1142.8616557121277,3884.0,192.0,-15824.0,50.0,527.0,2291.0,0.36769943393415727,0.7808298227765008,-0.37469296394803037,0.3386843617812291
-1142.8772234916687,3664.0,-2132.0,-15988.0,410.0,-289.0,-145.0,0.3339970956842848,0.8065460284683985,-0.3616956425235038,0.3272700814554025
-1142.8928487300873,5748.0,-2564.0,-15288.0,815.0,262.0,3254.0,0.18393620551703976,0.6910200406025218,-0.5372199512857609,0.4472734060127059
-1142.9084429740906,5048.0,-2748.0,-15872.0,-240.0,1550.0,4235.0,0.09829216101187024,0.3984481209192904,-0.7230763933683042,0.5556422188539931
-1142.924099445343,2804.0,-4052.0,-15912.0,1165.0,-354.0,731.0,-4.321372608160574e-05,0.37668914245554985,-0.6899380213021116,0.6181349487372504
-1142.939791917801,4020.0,-2272.0,-15444.0,1085.0,-1208.0,-1893.0,-0.006140933688358044,0.5432210389228598,-0.5563231846692143,0.6287906694636202
-1142.9554193019867,6696.0,-1292.0,-15404.0,623.0,-247.0,1205.0,-0.11289563193485348,0.4945597487796711,-0.5750889628462037,0.6418238979576067
-1142.9710075855255,6400.0,-2428.0,-15992.0,598.0,1985.0,4609.0,-0.271870159160806,0.13394572950250547,-0.6955838581133194,0.6513894798337697
-1142.9866721630096,4184.0,-2508.0,-15584.0,941.0,2104.0,5705.0,-0.4222981312947202,-0.31204443481528604,-0.66864641582608,0.5265021648661407
-1143.0022559165955,3056.0,-3956.0,-15156.0,485.0,1115.0,2422.0,-0.4428921418243842,-0.508479686202784,-0.6050255922258917,0.4233662624501826
-1143.017832517624,3768.0,-3948.0,-15080.0,1566.0,-232.0,1147.0,-0.4217198552888169,-0.6122467751511418,-0.4805341204918015,0.46518083474642147
-1143.0334076881409,5360.0,-2964.0,-14436.0,540.0,-393.0,-466.0,-0.38926371211217775,-0.5952520829538013,-0.4680082647725222,0.5245159523564762
-1143.0489990711212,6832.0,-3196.0,-15008.0,89.0,12.0,2403.0,-0.4834656335464703,-0.6822475781513171,-0.3324045099884399,0.43624129220595104
-1143.0645971298218,6208.0,-3524.0,-15000.0,247.0,1165.0,5158.0,-0.5729666855612018,-0.805045710745529,-0.0591039882164316,0.14183546603071107
-1143.080186367035,4016.0,-3196.0,-14776.0,549.0,139.0,3329.0,-0.5511994810001751,-0.8168168511202881,0.1675303407462346,-0.03038007242462443
-1143.095829963684,3500.0,-3272.0,-13712.0,138.0,-2171.0,-987.0,-0.5011988162530534,-0.8260341067328917,0.19708826399727827,0.16620354176452137
-1143.1114525794983,5956.0,-4920.0,-12924.0,-855.0,-3227.0,-2889.0,-0.4341426518309346,-0.7387416105638788,0.10978950976542635,0.5037134644102318
-1143.1270883083344,8576.0,-4016.0,-14712.0,-602.0,-834.0,5642.0,-0.637516615022799,-0.5592079074357443,0.42814070085915684,0.31233735303200344
-1143.1426813602448,5380.0,-2724.0,-15468.0,-2277.0,66.0,6087.0,-0.797513145041254,-0.1800597318239815,0.5737873865939845,0.04815923013845811
-1143.1582779884338,2072.0,-5984.0,-15604.0,-2325.0,-2608.0,1052.0,-0.6742981201457801,0.04327481360281153,0.7263400030383461,0.12601402962275524
-1143.1738691329956,3768.0,-5308.0,-14892.0,-676.0,-3997.0,33.0,-0.3945642242613392,0.12178286461656841,0.8994658227468867,0.14300084100835328
-1143.1894454956055,5548.0,-2384.0,-15216.0,-2644.0,-3478.0,1376.0,-0.10254562363238408,0.3382463473994329,0.9022616071238349,0.24697731850334442
-1143.2050335407257,4888.0,-3612.0,-15596.0,-2808.0,-3426.0,2138.0,0.1874125835644688,0.5565564822841749,0.7437315176120478,0.31935064624897225
-1143.2206110954285,4068.0,-2088.0,-15744.0,-1486.0,-4759.0,638.0,0.504125017301361,0.6469269586343175,0.5435872406406477,0.1784835816979852
-1143.236258506775,4380.0,-1372.0,-14648.0,-2617.0,-5419.0,-1290.0,0.8183107024130227,0.4891225861700306,0.29719174159275297,-0.05295053109943725
-1143.2518808841705,5088.0,-1788.0,-15212.0,-2173.0,-6521.0,-1749.0,0.9115628184602397,0.21996601102771854,-0.07121900260841947,-0.33999417003948684
-1143.267475605011,4756.0,576.0,-15316.0,-2105.0,-6348.0,-1267.0,0.7521715307130316,-0.10983585043309586,-0.42098879177682874,-0.49491667131219136
-1143.283094406128,3076.0,-2820.0,-15644.0,-4511.0,-6455.0,-2516.0,0.2943934927817286,-0.48040051079026896,-0.5467366806907977,-0.6193761560049206
-1143.298684835434,2352.0,-7960.0,-16772.0,-2113.0,-8619.0,-2820.0,-0.27770867779617125,-0.6721928394864425,-0.5992857181139514,-0.33450157680420883
-1143.3142704963684,3160.0,-5200.0,-15540.0,-1070.0,-9585.0,-4618.0,-0.713851246356148,-0.5005638198136174,-0.4435738465798225,0.2075921554388662
-1143.3298950195312,4392.0,-3028.0,-14784.0,-3428.0,-8817.0,-2904.0,-0.8720779602522373,-0.011338127567345185,-0.06310846539494702,0.48514822446450195
-1143.3455295562744,2968.0,-4188.0,-14596.0,-3857.0,-9840.0,-6576.0,-0.44131976738296186,0.49798345110979064,0.34935659093732957,0.6596963829721053
-1143.3611612319946,3596.0,-5536.0,-15296.0,-5314.0,-12001.0,-9186.0,0.39810217402399345,0.6478939190917132,0.5264046099038109,0.38032396100346794
-1143.3767592906952,7116.0,-5436.0,-16200.0,-5128.0,-11963.0,-7574.0,0.9016007123893248,0.31428971285351076,0.2233652550451195,-0.19607675704210434
-1143.392348766327,9960.0,-4352.0,-17556.0,-7216.0,-8825.0,361.0,0.9055878995706916,-0.2816722395442162,-0.25341224871908496,-0.19066603740683624
-1143.4079570770264,7992.0,-6976.0,-19644.0,-4522.0,-7491.0,3491.0,0.5304488265349442,-0.6496117605882396,-0.5286966616253466,0.13079924663147738
-1143.4235463142395,5548.0,-4584.0,-17272.0,-2651.0,-6264.0,7245.0,0.006251239608384088,-0.7820427829418133,-0.33116343700368744,0.5279211926451594
-1143.4391615390778,2920.0,-3616.0,-16096.0,-2055.0,-3424.0,9176.0,-0.49386185782390013,-0.670956684205077,0.1494719605060729,0.5325182873195298
-1143.4547898769379,-68.0,-3636.0,-19200.0,-1165.0,-4119.0,905.0,-0.5140829956146418,-0.3903010757432606,0.3044647515178661,0.7004890855514407
-1143.4703650474548,1528.0,-7820.0,-20744.0,-1298.0,-4059.0,-14309.0,0.25843247951116755,-0.28269846906397705,-0.04874624259670895,0.9224521846444379
-1143.4860076904297,10524.0,-15900.0,-20656.0,6778.0,-4674.0,-28633.0,0.9730975471154898,0.13215472969331568,-0.1131535827367211,0.15103826644710872
-1143.5016181468964,24376.0,-8908.0,-20436.0,9490.0,7666.0,-6903.0,0.6521923391349937,0.5729576175689343,0.4698072744970688,-0.16014320489172162
-1143.5171947479248,17312.0,-11008.0,-19908.0,14751.0,20045.0,10633.0,-0.29588211785212293,0.8298929613987979,0.3403015909852782,0.32852134196877425
-1143.5327899456024,4948.0,-8292.0,-15764.0,15927.0,18103.0,-2869.0,-0.8129456039752948,-0.07911597979150409,0.22930004944010865,0.529416276710149
-1143.5483810901642,5368.0,-8252.0,-14876.0,13357.0,14968.0,-13442.0,-0.17115418297438537,-0.8519433224204491,-0.13209401487808786,0.47691717547910234
-1143.564019203186,11696.0,-7768.0,-15204.0,13784.0,19041.0,-46.0,0.4711228505004264,-0.810477230889159,0.06736676270769723,-0.34151374383599614
-1143.5796129703522,10416.0,-6504.0,-15244.0,14272.0,23861.0,15608.0,0.6105956439396849,0.19580758561947065,0.5840921764645485,-0.4976632178578823
-1143.595272064209,2064.0,-6816.0,-14948.0,15414.0,23049.0,18522.0,-0.007619534434999494,0.9626911671333834,0.26863292478897033,0.03168613478607625
-1143.6108634471893,-4236.0,-6696.0,-14328.0,16389.0,17460.0,7310.0,-0.754995395631844,0.4472716684504821,-0.12977024242712634,0.461616389826707
-1143.6264493465424,-2872.0,-4064.0,-12944.0,15043.0,13270.0,-2658.0,-0.5345876239161067,-0.5165032472470149,-0.14514022014426645,0.652973800726717
-1143.6420550346375,1168.0,-5516.0,-11860.0,13564.0,12625.0,-5218.0,0.27323699530702195,-0.922008669422436,-0.10052766093747678,0.255217059171011
-1143.657636165619,3180.0,-5384.0,-12068.0,12724.0,12345.0,-4658.0,0.799870988418083,-0.4520077134047776,0.05425079239510119,-0.39109114082802626
-1143.6732213497162,3736.0,-3944.0,-11984.0,10278.0,12127.0,-3619.0,0.5890651595252853,0.3806231871265513,0.23417641942068154,-0.6732678752490613
-1143.688801765442,3596.0,-4852.0,-11716.0,8759.0,11741.0,-1849.0,-0.031057770333065435,0.9092286300285657,0.23587527487182194,-0.34161611194798586
-1143.7043838500977,3420.0,-3840.0,-11860.0,7615.0,11593.0,1900.0,-0.5176757335653173,0.8064354005820824,-0.10973721625498255,0.26387785608920267
-1143.7200560569763,2452.0,-2988.0,-11544.0,5568.0,11245.0,2384.0,-0.5720355987775746,0.1825728638993248,-0.43897990590312364,0.6683854167410187
-1143.7356686592102,920.0,-2040.0,-12996.0,2897.0,8791.0,775.0,-0.2536645317285169,-0.391792793486212,-0.5604607188457333,0.6841319280271507
-1143.7513015270233,904.0,-3044.0,-12980.0,1125.0,6179.0,837.0,0.032517190333850386,-0.7233330828614364,-0.5265055378454259,0.44556009941315605
-1143.7668917179108,1704.0,-2480.0,-14028.0,-152.0,3467.0,1732.0,0.10885674995145042,-0.8886564735472957,-0.3915166700566177,0.21249606368182297
-1143.782467365265,1656.0,-1720.0,-16036.0,-1591.0,1876.0,3111.0,-0.007719562582751725,-0.9873913739938145,-0.15307467925156495,0.03958314651677597
-1143.798062324524,148.0,-2380.0,-16628.0,-1491.0,-118.0,2048.0,-0.14113813065672745,-0.9894418033757434,0.017885779535734166,0.02765944138409715
-1143.8136575222015,-160.0,-1740.0,-16092.0,-3210.0,-3375.0,-3428.0,-0.36109869458452176,-0.8456323655256,-0.21811109151340616,0.3270186338785043
-1143.829289674759,3440.0,-1560.0,-17176.0,-5768.0,-5233.0,-7934.0,-0.473556349251907,-0.26100996843695357,-0.5766493903969373,0.6124489048194852
-1143.844884634018,7744.0,-2500.0,-19944.0,-7100.0,-3718.0,-5340.0,-0.4109227223990917,0.38265702711437827,-0.7075944837138162,0.42898270645083453
-1143.8605098724365,8936.0,-3464.0,-20656.0,-5406.0,-574.0,2576.0,-0.320516952474242,0.3887490684302126,-0.8636724956371411,-0.014589902370435358
-1143.8760907649994,5856.0,-3440.0,-17840.0,-4401.0,-663.0,3257.0,-0.19531079240051155,0.239309708193343,-0.856108335697992,-0.41432242937682684
-1143.891714334488,6308.0,-1724.0,-16472.0,-5734.0,-1498.0,6389.0,0.03480132106510126,-0.15480801910002404,-0.6024172905464158,-0.7822510807440061
-1143.9073190689087,5960.0,620.0,-14580.0,-6832.0,1374.0,18849.0,0.6446977775485672,-0.5314159229170656,0.06070472587803234,-0.5461472592169756
-1143.9229853153229,-1688.0,5992.0,-13196.0,-10190.0,1124.0,26799.0,0.5352698551102494,-0.3372582669621431,0.6870315616086555,0.3573942877684487
-1143.9386854171753,-9552.0,7080.0,-15456.0,-22107.0,-1976.0,11777.0,-0.15119303441820356,-0.2498894196965494,0.10462099890993841,0.9506578726619921
-1143.9542956352234,-7276.0,-16828.0,-23224.0,-20884.0,-12382.0,-26405.0,0.5164315141042143,0.24696013613113157,-0.6209512515296208,0.535470564668049
-1143.9698870182037,13728.0,-19900.0,-31596.0,-4964.0,-9628.0,-8691.0,0.32306603503296516,0.6008071821169954,-0.6998778796211269,-0.21173100987278579
-1143.9860317707062,16484.0,1620.0,-18168.0,5438.0,9754.0,32767.0,0.3893634534455109,-0.33529559363722666,-0.7049373901628923,0.4889133276550921
-1144.001848936081,-8456.0,2128.0,-8656.0,-12180.0,2596.0,-332.0,0.1398380163168887,-0.5683849874009261,-0.7758624307056329,-0.23541733986551153
-1144.0174908638,-7892.0,-13412.0,-16168.0,-10373.0,-16963.0,-32768.0,-0.6291646814566197,0.3366417358780873,-0.6860338234930491,-0.1420624450588059
-1144.0331246852875,15420.0,-1044.0,-15588.0,-3611.0,-10845.0,-13064.0,-0.7350185846723859,0.6515815192548494,0.18625293719598174,0.022339367439898655
-1144.0487406253815,19228.0,3716.0,-14648.0,-9348.0,4266.0,14442.0,-0.1633126101222293,0.8023207447060742,-0.503117708721276,-0.2765555733671059
-1144.0643396377563,3568.0,-6448.0,-16360.0,-5387.0,4336.0,13911.0,0.43930058578612263,0.22142039539917263,-0.8363558413462086,-0.24186134555839878
-1144.0799736976624,-2888.0,-4452.0,-14584.0,-2938.0,-3959.0,-2875.0,0.13084685374412666,0.21043019508416885,-0.7793818674612935,-0.5754668874354533
-1144.095593214035,4140.0,-1264.0,-14244.0,-6146.0,-5316.0,-6237.0,-0.32142220926048554,0.2218152209090464,-0.3109822428512605,-0.8664732054705321
-1144.1111919879913,9492.0,-4316.0,-16680.0,-5214.0,240.0,5162.0,0.14862931459064357,0.2072708610440462,-0.01974695735537043,-0.9667254908615891
-1144.1268212795258,4752.0,-4376.0,-17560.0,-1187.0,1879.0,9885.0,0.7546364862483596,0.24986607995250232,-0.05530931695411743,-0.6041784464626061
-1144.1424736976624,248.0,124.0,-16624.0,-839.0,668.0,2471.0,0.8823341272489691,0.21242889865442147,-0.020483967015463407,-0.41945304624424745
-1144.1580605506897,700.0,-548.0,-16032.0,-1993.0,-1855.0,-6882.0,0.5577976116238758,0.0030966851758063604,0.031216657901841582,-0.8293839613092726
-1144.1736345291138,4956.0,-1884.0,-15792.0,-887.0,-2742.0,-7899.0,-0.005009508639779444,-0.2099219173527279,-0.028971791753714952,-0.9772759736741314
-1144.1892142295837,8080.0,-1460.0,-15372.0,-1371.0,-530.0,-3252.0,-0.2948053129398179,-0.23545780370588132,0.02732754328850724,-0.9256903669771407
-1144.2048795223236,6472.0,-4044.0,-15264.0,-1214.0,612.0,-235.0,-0.33770528691792884,-0.15451133846402168,0.10422551922952784,-0.9226149937081399
-1144.2205114364624,4284.0,-5316.0,-14900.0,-596.0,-336.0,-852.0,-0.40937610483275116,-0.17115049399861407,0.15020291952199474,-0.8834918200883718
-1144.2361364364624,4376.0,-4396.0,-14908.0,-1334.0,-1146.0,-3418.0,-0.642536418935131,-0.243483048204262,0.23056637080008066,-0.6889862874072736
-1144.2517657279968,5848.0,-5404.0,-15260.0,-386.0,-1456.0,-2020.0,-0.7254422027736642,-0.34197243636486474,0.2859255659729694,-0.5244378265577433
-1144.2673525810242,6948.0,-2568.0,-14600.0,-655.0,-438.0,1163.0,-0.675636456238329,-0.28952823759686985,0.3757456730868486,-0.5643615576846763
-1144.2829611301422,6396.0,-2700.0,-15176.0,-848.0,795.0,3966.0,-0.496400616839395,-0.06630711867363728,0.4431438349597972,-0.7435141795230218
-1144.2987387180328,4408.0,-2788.0,-15576.0,44.0,629.0,3548.0,-0.2768501278171903,0.10467356826372295,0.4138795002997316,-0.8608723541072681
-1144.3143644332886,3764.0,-2584.0,-15476.0,-12.0,-247.0,301.0,-0.2450587727423742,0.09722076714393209,0.41805286791546736,-0.8693250945219513
-1144.3300020694733,4544.0,-3372.0,-15292.0,-697.0,-1084.0,-1811.0,-0.33080800799767396,-0.035528722105076196,0.5004197024317225,-0.7993021288401135
-1144.345636844635,5612.0,-3336.0,-15416.0,-532.0,-1184.0,-1459.0,-0.3770396767507437,-0.16416710182153563,0.5593612324611011,-0.7197258203335559
-1144.3612201213837,5152.0,-2984.0,-15164.0,-894.0,-673.0,-1055.0,-0.41941159974038766,-0.22657251977996154,0.6172207910219752,-0.6259371361518462
-1144.376794576645,4108.0,-3680.0,-15112.0,-603.0,-1490.0,-2978.0,-0.492570732213412,-0.4280587742757434,0.6195645593520489,-0.4362104037356201
-1144.3923814296722,4780.0,-2992.0,-15072.0,-524.0,-1752.0,-3761.0,-0.5264076795656321,-0.634683980074739,0.5396941482386802,-0.16970983085178185
-1144.4080078601837,5784.0,-2988.0,-15312.0,-967.0,-1186.0,-2230.0,-0.54198120446765,-0.6938796753951912,0.4721856953095239,0.042755575336099506
-1144.4236121177673,5780.0,-3408.0,-15116.0,-754.0,-736.0,-299.0,-0.5534446880702597,-0.6648600660847581,0.4840339832263831,0.13179974527511584
-1144.4392750263214,5148.0,-2992.0,-15236.0,-690.0,-619.0,55.0,-0.5658987286947593,-0.6201633339377132,0.5076862129174268,0.19341865813430953
-1144.4548711776733,4756.0,-2704.0,-15420.0,-707.0,-596.0,108.0,-0.5774794275116476,-0.5686365653104423,0.5294618671593306,0.2506792744063976
-1144.4704566001892,4548.0,-2672.0,-15524.0,-639.0,-637.0,-128.0,-0.5749594407280924,-0.5268535757999505,0.5397174726819424,0.31709935488149726
-1144.4860343933105,4532.0,-3156.0,-15596.0,-558.0,-817.0,-535.0,-0.5445524438005156,-0.49914567589549375,0.5382845271672192,0.40566734894255424
-1144.501605272293,4668.0,-3136.0,-15452.0,-481.0,-815.0,-530.0,-0.506063816385341,-0.47032581729203055,0.5347171167124902,0.486590838825361
-1144.5172040462494,4648.0,-3208.0,-15480.0,-549.0,-791.0,-606.0,-0.46357020695197243,-0.43870962693500604,0.519126987412366,0.5684572960225023
-1144.5327835083008,4168.0,-3320.0,-14836.0,-898.0,-1205.0,-1809.0,-0.3463184278588502,-0.4159952921096274,0.44501565336161564,0.7134231084925231
-1144.5483770370483,4816.0,-4336.0,-15428.0,-1604.0,-1343.0,-2162.0,-0.2106081068195311,-0.3559332873287129,0.29738202757795246,0.8605345141171822
-1144.563975572586,5136.0,-4576.0,-15640.0,-763.0,-1402.0,-411.0,-0.16534399080716572,-0.24491812072114258,0.2506871550418194,0.9218635631932866
-1144.579577922821,5780.0,-2100.0,-15300.0,-837.0,-1094.0,447.0,-0.1937622195833478,-0.13404219164400996,0.20730884903376615,0.9494798229734533
-1144.5951523780823,5820.0,-2212.0,-15212.0,-1186.0,-395.0,2141.0,-0.36940959352386465,-0.04145828131531777,0.13784884285009105,0.9180498132714825
-1144.6107366085052,5312.0,-1884.0,-15700.0,-758.0,208.0,3530.0,-0.6270042383239751,0.008585430626179339,0.07955428937843477,0.7748955352473177
-1144.6263179779053,3800.0,-2356.0,-15844.0,-1183.0,735.0,3201.0,-0.8108967009948842,0.044109528316107455,-0.0410167879141162,0.5820811910176725
-1144.6420052051544,2472.0,-2944.0,-16384.0,-86.0,-370.0,1247.0,-0.8695996032822486,0.06443273141190775,-0.023912201224116005,0.48895108111832003
-1144.6575999259949,2888.0,-2248.0,-15332.0,-325.0,-894.0,-1277.0,-0.8073506504957346,0.12898853826508203,0.03692887390663479,0.5746156475526397
-1144.6731975078583,4068.0,-3240.0,-15356.0,-830.0,-980.0,-2010.0,-0.6794425877332767,0.2255931710087896,0.08523655608656315,0.6929648047881001
-1144.688793182373,4816.0,-3612.0,-15844.0,-472.0,-1055.0,-1448.0,-0.5673144559344664,0.3029626540016352,0.14592874609371756,0.7517132029115765
-1144.704387664795,5312.0,-2980.0,-15860.0,-198.0,-837.0,-328.0,-0.528140112612121,0.3626012566759167,0.18254999180840026,0.7458309799129124
-1144.7200164794922,5112.0,-1976.0,-15496.0,-594.0,-145.0,763.0,-0.5546063601115512,0.41034373393159956,0.12608420472754603,0.712834187357138
-1144.7356052398682,4448.0,-2708.0,-15564.0,-289.0,376.0,2004.0,-0.662362774229953,0.4166006646078752,0.01793576754023592,0.6224128451481536
-1144.7512385845184,3628.0,-2836.0,-15660.0,-176.0,445.0,1921.0,-0.7497930039143792,0.3999814342595764,-0.08588279396077393,0.5200475451631276
-1144.7668149471283,3488.0,-3116.0,-15712.0,103.0,-203.0,741.0,-0.7866215977945775,0.3962910025523111,-0.09359774379118403,0.4641329179625053
-1144.7824275493622,4520.0,-2576.0,-15660.0,-48.0,-259.0,23.0,-0.787668591802072,0.4100736517188436,-0.07853369925445036,0.453045525014788
-1144.798035144806,5124.0,-3124.0,-15312.0,-232.0,86.0,1583.0,-0.8331282788351232,0.4080970113463131,-0.14879523061930228,0.342365418347679
-1144.813621520996,4840.0,-3212.0,-15344.0,-534.0,43.0,1478.0,-0.8496076821667295,0.4227763381741866,-0.21846983080392424,0.22737169417455605
-1144.829196691513,4128.0,-2828.0,-15748.0,-760.0,134.0,1492.0,-0.8394819285338712,0.4435608913429461,-0.2954154220464239,0.10608277783521997
-1144.844807624817,3568.0,-3244.0,-15932.0,-273.0,-22.0,168.0,-0.8305330892717451,0.4595171815519487,-0.3027918851584617,0.08588260455685909
-1144.8604123592377,3944.0,-3280.0,-16564.0,-181.0,-746.0,-947.0,-0.8310183552928566,0.500686779285523,-0.2109884774398654,0.11918516939054387
-1144.8760771751404,5216.0,-3200.0,-16616.0,437.0,-754.0,105.0,-0.8623979556565251,0.4738003457539961,-0.15591019313053034,0.08645814085926533
-1144.89168715477,5472.0,-3124.0,-16116.0,564.0,84.0,1464.0,-0.8871878310873305,0.4072896177536562,-0.21646922290774837,-0.012409479213669831
-1144.9073150157928,4924.0,-3544.0,-15484.0,967.0,539.0,1842.0,-0.8936976897060026,0.29339912804246654,-0.3191808607472236,-0.11552042767725125
-1144.9229776859283,3656.0,-2600.0,-14708.0,544.0,71.0,387.0,-0.900091798717546,0.24076332363201466,-0.33966115447844347,-0.1284448364608312
-1144.9386973381042,3820.0,-4708.0,-15176.0,207.0,-1021.0,-3404.0,-0.9289460313124054,0.30007811236628834,-0.18181359126899163,0.11813642714035628
-1144.954317331314,6804.0,-3504.0,-15668.0,537.0,137.0,1777.0,-0.9466760650778152,0.22431423164312062,-0.230874862453968,-0.013577598388596837
-1144.9699530601501,6128.0,-4600.0,-16768.0,280.0,2901.0,5379.0,-0.7827162251573336,0.08517515126445964,-0.5083182420823629,-0.34887400196751145
-1144.9855606555939,2652.0,-7972.0,-17312.0,4269.0,2361.0,1548.0,-0.6048522079017797,-0.1854088374206965,-0.7407373785284694,-0.22602102922829728
-1145.0012056827545,2652.0,-5908.0,-15832.0,6377.0,1459.0,-3151.0,-0.3963580228520404,-0.244562335647347,-0.8401372076678204,0.27795512946454737
-1145.0167617797852,3424.0,-7448.0,-14536.0,7536.0,683.0,-5446.0,-0.041141744964288955,-0.09498358724467997,-0.6184480283218713,0.7789785049924135
-1145.0323700904846,4464.0,-5080.0,-12756.0,7707.0,446.0,-4214.0,0.2644612381936674,0.05910989424436341,-0.10420363117321613,0.956926265260709
-1145.0480258464813,4612.0,-1412.0,-11412.0,5358.0,619.0,-792.0,0.27868454919350744,0.12508970039394277,0.32634283668807956,0.894532191616681
-1145.063637971878,3908.0,1508.0,-11948.0,1940.0,571.0,2573.0,0.03877233242578601,0.1934366960008439,0.4459469431677976,0.8730465478757925
-1145.0792536735535,3388.0,4860.0,-13920.0,-1987.0,1217.0,6959.0,-0.4254667080992419,0.3073290497051598,0.15283079345213726,0.8373587547039251
-1145.0948512554169,2660.0,3100.0,-13396.0,-7744.0,2165.0,1853.0,-0.31000482197552426,0.37460817833805804,-0.44059367574605035,0.7546144286764929
-1145.1104724407196,6080.0,-6716.0,-19232.0,-4705.0,-310.0,-1147.0,-0.0851732587662559,0.5216852011247912,-0.6488385387763503,0.5473560244640532
-1145.1260550022125,9728.0,-780.0,-19384.0,1556.0,4898.0,12778.0,-0.31270118545796693,-0.2860251359282627,-0.7629249070771422,0.48821427303156034
-1145.1416552066803,264.0,-1480.0,-16872.0,-2102.0,4098.0,3764.0,-0.22411639495486194,-0.5803225831918768,-0.7725793064026778,0.1269596639421381
-1145.1572530269623,-3004.0,-8128.0,-15816.0,747.0,-2467.0,-8248.0,-0.20833599755779794,-0.00913259943852606,-0.9052337969781691,0.3702222043011189
-1145.172868013382,5608.0,-2408.0,-15296.0,-1492.0,-170.0,-4848.0,-0.060409698628910206,0.3716931995169369,-0.8725246544640506,0.3112805183380671
-1145.1884803771973,4912.0,-5988.0,-17552.0,-208.0,2641.0,1778.0,0.09570078478530575,0.1596933355209886,-0.9150111000442276,0.3579023402794537
-1145.2041177749634,284.0,-4552.0,-15096.0,3039.0,-324.0,-5254.0,0.16912651799663983,0.5430674951726592,-0.6623646803027614,0.4875930135724332
-1145.2197489738464,3376.0,-1616.0,-13992.0,-376.0,-2550.0,-12205.0,0.3780144914135322,0.9143386433089634,-0.09318965423356096,0.11138033029723872
-1145.235379934311,8372.0,-3620.0,-14840.0,-556.0,-1332.0,-7878.0,0.3998938561515811,0.7976354784025088,0.3983896670507355,-0.21248110643778065
-1145.2509813308716,9840.0,-3272.0,-15072.0,-259.0,1482.0,490.0,0.3717515718155271,0.8253782147431303,0.41687394989065635,-0.0822659187190578
-1145.2666199207306,6876.0,-3772.0,-15132.0,-468.0,2924.0,4704.0,0.29923194621131616,0.9018690373443806,0.15858246863738118,0.2682239409280652
-1145.2822303771973,3248.0,-4296.0,-15216.0,20.0,1663.0,2046.0,0.22070205783093183,0.8691878191093586,0.040360209618988147,0.44065200585112524
-1145.2978312969208,2956.0,-4084.0,-15172.0,-138.0,77.0,-1612.0,0.2897987785443983,0.8496148453392869,0.1571981799430641,0.41165521344428846
-1145.3134043216705,5232.0,-3668.0,-15508.0,151.0,585.0,-473.0,0.28668178553792706,0.8242509076509377,0.21197123354110117,0.43987747297225316
-1145.3289909362793,5504.0,-3520.0,-15124.0,505.0,1205.0,1211.0,0.17918358709113894,0.8035390445957739,0.17228852690165186,0.5408649641318264
-1145.344618320465,4716.0,-3828.0,-15068.0,-63.0,624.0,-708.0,0.2067584185234954,0.7600732222976219,0.22791226842788884,0.5723597216924223
-1145.3602359294891,4816.0,-3540.0,-15180.0,2.0,13.0,-1438.0,0.2758577516940732,0.7253808774635071,0.32109514711889164,0.5427918477070754
-1145.3758525848389,4812.0,-3188.0,-15308.0,-229.0,564.0,-1503.0,0.3421499297805252,0.6448305325724097,0.414855922349623,0.5431588842180599
-1145.3914458751678,3904.0,-3544.0,-15372.0,316.0,106.0,-2671.0,0.43511069207670033,0.5381019191480005,0.5679135916403351,0.4456446596560404
-1145.4070842266083,3856.0,-3700.0,-15008.0,187.0,-750.0,-5286.0,0.6062447929377818,0.2832724264290265,0.720603157366507,0.18153532178135065
-1145.422688484192,5476.0,-3972.0,-15316.0,25.0,-1229.0,-5301.0,0.6925678747474986,-0.026432767601517238,0.7110930520023755,-0.11831195653273767
-1145.4383027553558,6656.0,-3868.0,-15344.0,148.0,-71.0,-1827.0,0.6697025545489275,-0.1300258244278126,0.6924282169695878,-0.23480830001689895
-1145.453932762146,6248.0,-3204.0,-15440.0,513.0,1146.0,1149.0,0.6227569383174038,-0.007158672013665237,0.7538493689892045,-0.209364939918584
-1145.469529390335,3472.0,-3468.0,-15228.0,769.0,430.0,-1451.0,0.5620478242948513,-0.05245572944246277,0.7542222751482734,-0.33540930118922624
-1145.485152721405,3572.0,-3944.0,-15220.0,1228.0,-1254.0,-4737.0,0.4678610150115147,-0.3118459675461565,0.5812997000585575,-0.5881741424692418
-1145.5007565021515,6188.0,-3112.0,-14960.0,714.0,-331.0,-2935.0,0.341439045347017,-0.43376683888591,0.4363334391608221,-0.7105482655425539
-1145.516363620758,6264.0,-3460.0,-15144.0,761.0,1067.0,541.0,0.36029336145816726,-0.32211641320273643,0.43821154240150284,-0.7578920464951947
-1145.5319488048553,3888.0,-4680.0,-15292.0,1028.0,712.0,-1171.0,0.2813007643053042,-0.2845280884472533,0.3559357720711578,-0.8445255313167935
-1145.5475642681122,4196.0,-2916.0,-15200.0,1349.0,-877.0,-3961.0,0.04690097503751214,-0.41158260402533975,0.12820600742483212,-0.9010900500307587
-1145.5631206035614,6268.0,-3016.0,-15428.0,1054.0,-422.0,-3312.0,-0.16348222842281093,-0.4569237192892061,-0.07196267045049845,-0.8713871985532399
-1145.578694820404,6884.0,-3624.0,-15176.0,1559.0,557.0,-748.0,-0.152719857739543,-0.42706794597032,-0.22540752200256028,-0.8622534799009922
-1145.5942568778992,6344.0,-3216.0,-15240.0,1481.0,823.0,940.0,-0.010374638634516938,-0.3980046771491347,-0.308419374840164,-0.8639225272348318
-1145.6098358631134,5880.0,-2856.0,-15272.0,1025.0,896.0,857.0,0.112903968198549,-0.3512778310609255,-0.35335256195532616,-0.8596502465129411
-1145.6254212856293,6048.0,-3096.0,-15060.0,1217.0,1205.0,2260.0,0.34649245458648026,-0.3095064429588494,-0.3529573078272309,-0.8121390764720965
-1145.641043663025,5656.0,-3308.0,-15936.0,1921.0,2026.0,4101.0,0.6895594708655315,-0.21511311749287937,-0.2911117459743561,-0.6272862458064139
-1145.6567056179047,3712.0,-1756.0,-15932.0,2939.0,1565.0,2629.0,0.8706028324473913,-0.018384026107453814,-0.2894902090526135,-0.3973765903791188
-1145.6722872257233,3352.0,-1872.0,-15640.0,2216.0,296.0,-2319.0,0.7712644248529195,0.21055507629656234,-0.33488671170638556,-0.4986668598619006
-1145.687923192978,6016.0,-2248.0,-16288.0,3125.0,1072.0,75.0,0.7190426228076211,0.4471280643962582,-0.3847131601962792,-0.3674914760739149
-1145.7035148143768,5764.0,-1464.0,-16632.0,3652.0,3724.0,4530.0,0.7250743916166241,0.5512758103028511,-0.3811978337076109,0.15827292621715755
-1145.7191009521484,2292.0,-2700.0,-16844.0,4217.0,3261.0,35.0,0.5711879074186258,0.7000204848962581,-0.10741737679597554,0.41494240842147057
-1145.7346892356873,2772.0,-2428.0,-17204.0,6028.0,1048.0,-5386.0,0.33211478676276834,0.8256254161401643,0.4009284154387725,0.21748297940449574
-1145.7502722740173,6828.0,-1064.0,-18112.0,6985.0,3117.0,-1915.0,-0.20113744182991947,0.7430103414683424,0.6275126449033087,0.11707793323964474
-1145.7658505439758,8224.0,644.0,-17476.0,7689.0,6848.0,4150.0,-0.8022669433894005,0.5497444814983624,0.2276050898347696,0.04842189265230853
-1145.7814218997955,4524.0,184.0,-19148.0,8824.0,9572.0,4354.0,-0.919043743563007,-0.013952855261771145,-0.3935119680051395,0.017670491913353403
-1145.796991109848,1188.0,-3904.0,-21060.0,11160.0,9802.0,1731.0,-0.3475112365417329,-0.5981641507089585,-0.7058920109529643,0.15215800391910475
-1145.812574148178,472.0,-5380.0,-23200.0,12084.0,9258.0,-1796.0,0.5254818189280088,-0.5848791425032972,-0.5508042449388868,0.27999987571072593
-1145.8281395435333,2484.0,-7592.0,-21908.0,13335.0,8950.0,-6528.0,0.9902541360194355,0.06701649354466083,-0.08157779725197196,0.0908328062150231
-1145.843778371811,6224.0,-4708.0,-23824.0,12455.0,10918.0,-5803.0,0.5692667876611315,0.600400570238626,0.543635025958259,-0.1411220687010794
-1145.859367609024,5024.0,-6444.0,-25196.0,11876.0,12498.0,-5659.0,-0.382213590214406,0.5744077854090529,0.7019834538792703,-0.1766003907034525
-1145.87495303154,2956.0,-8652.0,-19580.0,13223.0,9114.0,-8067.0,-0.9288161461265353,-0.11839540214356566,0.32193549066262606,-0.14014505092128027
-1145.8905851840973,6400.0,-7372.0,-10956.0,10938.0,5428.0,-6412.0,-0.6689550257870125,-0.714949492061115,-0.20307639036113323,0.010313920386722892
-1145.9061710834503,11676.0,-2804.0,-5812.0,5124.0,8169.0,6200.0,-0.1483410870846892,-0.7997517782791176,-0.20387538994174026,-0.5448181718683995
-1145.9218809604645,5088.0,5216.0,-6740.0,2075.0,12054.0,32767.0,0.5507223629012473,-0.2605270634089136,0.5692176078639174,-0.5521067316467662
-1145.9375627040863,-15400.0,19020.0,-3600.0,-3458.0,9250.0,32767.0,0.5052393077643363,0.5228687590844595,0.6112772570896843,0.31254058556962444
-1145.9531812667847,-32768.0,17340.0,-7208.0,-27096.0,-12262.0,-9465.0,0.9146659135634513,-0.2903623146127167,-0.08150840385762133,0.2691326307203677
-1145.9687583446503,-19004.0,-3244.0,-20060.0,-29015.0,-32768.0,-32768.0,0.14685706492819692,-0.3290171115683485,-0.863331295410021,-0.3533267852025256
-1145.9843575954437,11212.0,-4512.0,-25000.0,-22317.0,-32447.0,-12817.0,-0.8890216684329978,-0.1733326093593977,-0.25577738507713405,-0.3378967429147177
-1145.9999797344208,19864.0,-5828.0,-24768.0,-20446.0,-14654.0,31222.0,-0.16611688091326662,0.07796670708919194,0.5376197803588112,-0.8229771237575558
-1146.0155427455902,2460.0,-7952.0,-21000.0,-17349.0,-15343.0,29261.0,0.8140279284781564,0.17623321060955466,0.530479006150161,-0.15777329041934707
-1146.0311250686646,-7380.0,-6320.0,-18448.0,-21173.0,-27262.0,-9631.0,0.6910933586297898,-0.6545636340092312,-0.29429040671888523,-0.08561293829590896
-1146.0467762947083,3652.0,-4968.0,-21252.0,-25693.0,-31255.0,-22359.0,-0.4201746692266452,-0.44837345692412434,-0.7854319706619679,-0.07423685020424314
-1146.0624022483826,14788.0,-8620.0,-23092.0,-19889.0,-23059.0,-2345.0,-0.9815212663235311,0.10268231487078618,0.0341620798700183,-0.15781412568709774
-1146.078043460846,13436.0,-5644.0,-19604.0,-14885.0,-14393.0,16770.0,-0.22687095070167304,0.48573463563741004,0.5222526200662695,-0.6632070840271751
-1146.0936422348022,5140.0,-3908.0,-16900.0,-16225.0,-12723.0,14548.0,0.7784337931458515,0.303371003864001,0.45346101250438986,-0.31045124229354215
-1146.109218597412,2456.0,-5980.0,-17656.0,-16287.0,-14531.0,6829.0,0.8823226836291196,-0.4150495917616212,-0.12229363851256836,0.18516150871975887
-1146.124849319458,5840.0,-6816.0,-16808.0,-14576.0,-12671.0,7139.0,0.050447207570247926,-0.6851344143948161,-0.5227155080282884,0.504791453104116
-1146.1404678821564,8584.0,-5720.0,-16412.0,-12781.0,-7813.0,12605.0,-0.8210654487641103,-0.49113962841615805,-0.1851919573346554,0.22435982970128032
-1146.1561028957367,4344.0,-6620.0,-15160.0,-10800.0,-6610.0,11974.0,-0.892881577584249,0.12006613079694278,0.32427295262894346,-0.2884331202192652
-1146.1717398166656,888.0,-4716.0,-13540.0,-10369.0,-8101.0,2508.0,-0.3196427552185068,0.5168640228953577,0.7737313006870956,-0.17894123395630274
-1146.1873352527618,5564.0,-2588.0,-12860.0,-13100.0,-5775.0,1611.0,0.4272424793840607,0.5607224996721891,0.664031461050425,0.24923154075351334
-1146.2029099464417,6588.0,-6524.0,-13580.0,-9614.0,-2547.0,8627.0,0.5629462287271284,0.4974528813940306,-0.040853596444409786,0.6587588010890156
-1146.218490600586,5308.0,-4328.0,-12816.0,-8750.0,-1136.0,9114.0,0.2779477370517493,0.0674710849282576,-0.6672821840502395,0.6876970226891765
-1146.234070777893,4636.0,-5288.0,-13860.0,-6778.0,-491.0,6229.0,-0.06589133345734619,-0.3350917197198133,-0.874813208405551,0.34361857043765376
-1146.2496869564056,5224.0,-5896.0,-14724.0,-5391.0,1711.0,5738.0,-0.21656160212223916,-0.6490363005570743,-0.7187215152778141,-0.123662187115541
-1146.2652475833893,3492.0,-5916.0,-15740.0,-1876.0,2851.0,11954.0,-0.009964759636971611,-0.9032029464043889,-0.051003079200527913,-0.42605613137692605
-1146.2808818817139,-2916.0,-2384.0,-13652.0,1523.0,1582.0,5173.0,0.2779117433165533,-0.7801005188474369,0.2682488079857326,-0.49218982154748747
-1146.2965245246887,-4124.0,136.0,-12984.0,-2395.0,-445.0,-6948.0,-0.14575681948239008,-0.8582065784113664,-0.09473430419222942,-0.4829718728404866
-1146.3121190071106,-1048.0,-4852.0,-15260.0,-635.0,-2294.0,-12626.0,-0.4954170769094448,-0.5608212573889111,-0.65522605051328,-0.10353868791901219
-1146.3277308940887,3488.0,-3856.0,-15276.0,1342.0,-1085.0,-10175.0,-0.4335268696459606,-0.034841707818816875,-0.8311393193538473,0.34647935077759784
-1146.3433496952057,3444.0,-4268.0,-15176.0,3186.0,1189.0,-6489.0,-0.11890002132462164,0.23538750882053097,-0.6737339026946858,0.6903174153822694
-1146.3589494228363,1944.0,-4352.0,-15372.0,5243.0,1964.0,-3736.0,0.09828697125178457,0.2435450143906145,-0.2602268717103488,0.9291434079233796
-1146.3746752738953,884.0,-2236.0,-16160.0,6295.0,2463.0,-2849.0,0.21176846817566605,0.13706453070213648,0.2793208674183133,0.9264703359172468
-1146.3902597427368,392.0,-2688.0,-16984.0,8419.0,3550.0,-2712.0,0.18739019683469293,-0.046366393870108026,0.8135766538757715,0.5484779848982455
-1146.40585064888,368.0,-2496.0,-16712.0,9851.0,3955.0,-5638.0,0.14918171505717495,-0.3276396174225635,0.9156226135436019,-0.1789757708612539
-1146.4214391708374,1032.0,-3112.0,-16604.0,10611.0,3798.0,-10095.0,-0.0053406648286486525,-0.5656484436052721,0.30839891905751654,-0.7647897895959889
-1146.4370341300964,4004.0,-2948.0,-16420.0,11464.0,5043.0,-11709.0,-0.1981832709615081,-0.30552859303728075,-0.576214671095973,-0.7316777451593132
-1146.4526734352112,5796.0,-3100.0,-15068.0,12251.0,6929.0,-12698.0,-0.1726603586665755,0.2914337125006744,-0.9399560759833888,-0.041681734430246
-1146.4682610034943,7688.0,-4056.0,-15484.0,10973.0,9845.0,-10945.0,0.1674443190500263,0.5610189812106867,-0.4498768291767168,0.6744115518799328
-1146.483882188797,8048.0,-1644.0,-19548.0,15300.0,8680.0,-1462.0,-0.08430743674590976,0.1804533324610766,0.35332544938339533,0.9140514086915726
-1146.499460220337,1308.0,32767.0,-32768.0,18221.0,1671.0,32767.0,-0.8866896138201119,0.2696733064664293,0.3734252655363074,0.04014234151294889
-1146.5150725841522,-32768.0,-32768.0,-32768.0,-17498.0,32456.0,14551.0,-0.43970887069453585,0.5510627618220753,-0.7058606954312568,0.0688957198297921
-1146.530671596527,-26284.0,-19892.0,-12968.0,27946.0,-4443.0,-32768.0,-0.47601361979000256,0.3898552716920222,0.30925112461635873,0.7251121587946763
-1146.5462667942047,26332.0,-3148.0,-17808.0,6269.0,-467.0,-32768.0,0.45370176619625924,-0.2355072953050198,0.597768688603672,0.6175464485636327
-1146.5618734359741,29980.0,2472.0,-12644.0,24056.0,6315.0,24012.0,-0.21255948550883821,0.5126452474786108,0.8298692526635622,0.05770908803154762
-1146.577496767044,5724.0,-2692.0,-1420.0,4630.0,28414.0,32767.0,-0.6714615261317032,0.674997794728579,-0.2896725297884227,0.09801643496074752
-1146.593107700348,-32768.0,-6504.0,-10252.0,18896.0,-1789.0,-32768.0,-0.448789518920496,0.11913769894662422,0.55232814348203,0.6923350332855529
-1146.6087203025818,-5184.0,12884.0,-11792.0,-5406.0,-22408.0,-32768.0,0.733489996318678,0.02891311114585083,0.3971347341187638,0.55085430039232
-1146.624303817749,32767.0,-3388.0,-17288.0,-11241.0,-2078.0,-29000.0,0.7687044436239087,-0.5505841801479792,-0.07013176284988461,-0.3178554306020305
-1146.639912366867,32767.0,-13504.0,-17784.0,9058.0,24730.0,32767.0,0.5954643076919284,0.14260883587172438,0.7657998098011738,0.1965594808315542
-1146.6554877758026,7180.0,1648.0,-15096.0,9431.0,28570.0,32767.0,-0.4972796099714617,0.5818142101860869,0.4999976257640914,0.4052253552807895
-1146.671091556549,-17644.0,-3400.0,-15780.0,1817.0,9652.0,12379.0,-0.8502962065505314,0.4120146757122353,-0.28370631743306274,0.16355730974825872
-1146.6866734027863,-15164.0,-6928.0,-14136.0,4813.0,-8872.0,-32768.0,-0.24575506616831366,0.3147532897882626,0.513912655889604,0.7592289484316094
-1146.702275276184,8892.0,-3284.0,-14320.0,103.0,-5509.0,-28492.0,0.6927662689058087,-0.22037365837626544,0.5221479581389945,0.4459505097782315
-1146.7178704738617,16948.0,-7020.0,-13916.0,-750.0,4718.0,-1161.0,0.46723169889685245,-0.4616486101790811,0.6946860573246514,0.29323434659741837
-1146.7334938049316,7428.0,-8636.0,-11952.0,158.0,3476.0,-340.0,0.25960401989801374,-0.5402857676919691,0.7907911664666388,0.12388047917498496
-1146.7491209506989,3564.0,-5640.0,-11668.0,-3024.0,-2901.0,-11867.0,0.29984272472277895,-0.9401733802632075,0.08940507295301357,0.13481501550472832
-1146.7647440433502,7604.0,-3672.0,-14520.0,-5998.0,-1468.0,-6956.0,-0.07696611513696809,-0.8805326700533913,-0.4583585844111377,0.09298302095536796
-1146.7803218364716,7708.0,-4292.0,-16224.0,-3960.0,2894.0,5108.0,-0.26093116753604667,-0.9201963773846252,-0.09985935742628131,-0.27419274532871624
-1146.7959456443787,4580.0,-3096.0,-14748.0,-2733.0,3601.0,5660.0,-0.2648287330088091,-0.6941845835293076,0.28580595999853414,-0.6052176958686082
-1146.8115422725677,4716.0,-2860.0,-15080.0,-4152.0,2334.0,3893.0,-0.3249646296947749,-0.33311759416234044,0.60539599712726,-0.6456983386761366
-1146.8271386623383,7296.0,-2992.0,-16780.0,-3154.0,3516.0,9177.0,-0.06334814976131056,0.3262642439080321,0.7061879043771422,-0.6251698159543204
-1146.8427364826202,6440.0,-1448.0,-16432.0,-2081.0,5150.0,10942.0,0.1879769753413906,0.8825419798876986,0.32753562008471,-0.28018695196801713
-1146.8583238124847,3120.0,-1336.0,-15796.0,-2823.0,4246.0,7165.0,0.36415060938996513,0.908246403424847,-0.0678993839883112,0.19460852499506529
-1146.873953819275,840.0,-3720.0,-15688.0,-2331.0,322.0,-2658.0,0.569042030426128,0.8068012173000213,0.1083220569340688,0.11631549919630571
-1146.8895361423492,3136.0,-3240.0,-15112.0,-2264.0,-1715.0,-6265.0,0.6928066883598493,0.5596740699326758,0.37837135544002015,-0.25222796314313584
-1146.9051396846771,5704.0,-2488.0,-14728.0,-2442.0,-1411.0,-5829.0,0.6357260700773766,0.16423821469039576,0.5499343140978631,-0.5161883598426051
-1146.9208521842957,6584.0,-3280.0,-14868.0,-3115.0,-623.0,-3918.0,0.4883419186700503,-0.2056869603962796,0.6517155272062686,-0.542661880355391
-1146.9365129470825,6256.0,-3584.0,-15152.0,-2203.0,-847.0,-1298.0,0.4237195064604834,-0.40266969791752144,0.6782965959361176,-0.4452332222165946
-1146.9521458148956,6652.0,-2808.0,-14700.0,-2584.0,-452.0,-344.0,0.33717064591146134,-0.5225359386354739,0.7307343209846286,-0.28160166992602487
-1146.967763185501,6948.0,-2920.0,-15356.0,-2751.0,0.0,3548.0,0.27803893249920525,-0.35134613077723675,0.8940065160327784,-0.0016117361759510878
-1146.9834368228912,5752.0,-3288.0,-15348.0,-2561.0,789.0,4739.0,0.12495238191505434,-0.039451605530414,0.9564208775994202,0.2609397975909041
-1146.9990565776825,3988.0,-2920.0,-15736.0,-2413.0,510.0,3960.0,-0.01508274850232823,0.23449446599407223,0.8528047953869037,0.46637842690338066
-1147.0146853923798,3192.0,-2244.0,-16072.0,-1711.0,-142.0,2205.0,-0.05762373914426201,0.39513973978194383,0.7173583251713506,0.570912536243028
-1147.0302846431732,2444.0,-1072.0,-15636.0,-1178.0,-691.0,-700.0,0.060568233303413224,0.38832999539596985,0.6803686458899892,0.618570779684986
-1147.0459089279175,3156.0,-1604.0,-15616.0,-1380.0,-1322.0,-3024.0,0.3331414084062055,0.2605979278491107,0.669670570742478,0.6104480720645478
-1147.0615239143372,5284.0,-2144.0,-15444.0,-971.0,-706.0,-1617.0,0.4752018197877844,0.172971401883993,0.6248109940180387,0.5948742273412545
-1147.077160358429,5828.0,-1380.0,-16128.0,-998.0,109.0,-573.0,0.5113202476115748,0.09433242469986376,0.583426791742086,0.6239119943631627
-1147.092755317688,5656.0,-2096.0,-17136.0,-974.0,430.0,665.0,0.45834784309531124,0.06105012650529788,0.5411056100513384,0.7024207112226489
-1147.1083455085754,5124.0,-3036.0,-16876.0,1064.0,770.0,2926.0,0.2280377980881572,0.1874649464832134,0.5987455977650205,0.744553131509202
-1147.123949766159,4644.0,124.0,-14876.0,195.0,723.0,1635.0,0.07974079996423711,0.22716190496421232,0.5920096970425718,0.7691315832558536
-1147.13955616951,5172.0,-1264.0,-17472.0,-153.0,1601.0,2388.0,-0.15547122033413582,0.234867110149263,0.5292908640653409,0.800323260585942
-1147.1551394462585,3788.0,-1556.0,-16424.0,2264.0,1021.0,2194.0,-0.38642312902941606,0.22511399238550658,0.6040254058909966,0.6596621596101977
-1147.1707153320312,3756.0,940.0,-17404.0,1213.0,-683.0,-3783.0,-0.14753641407593962,0.022866344011489678,0.7276924301016652,0.6694578881497284
-1147.1862909793854,6504.0,-2728.0,-16844.0,791.0,1320.0,2066.0,-0.3450632723076233,0.06522741984763146,0.7346295508032682,0.5805136905284529
-1147.2018611431122,4756.0,-2636.0,-15484.0,3135.0,3367.0,6628.0,-0.7476987277992001,0.1841753236812216,0.6169173586097149,0.16260084637045194
-1147.2174265384674,1096.0,-1768.0,-15408.0,1082.0,2475.0,209.0,-0.8769804653011205,0.08740502984445735,0.4551407124608893,0.12693524372180467
-1147.233008146286,1104.0,-5160.0,-14860.0,2632.0,-1088.0,-7970.0,-0.6157250106765064,-0.33654106232922093,0.505656412280106,0.5019306897508328
-1147.2486152648926,7748.0,-3440.0,-13140.0,1844.0,-1992.0,-6607.0,-0.15630962582132546,-0.543074325999555,0.4240493699909614,0.7076861657019975
-1147.2642569541931,12036.0,-2688.0,-13288.0,-132.0,3530.0,6645.0,-0.5881523823446321,-0.42909804330817447,0.5707180798191702,0.379779564667386
-1147.2799234390259,7016.0,-4236.0,-13796.0,586.0,5602.0,12250.0,-0.8101687140695769,-0.02248697863183204,0.49314004886154245,-0.3161232081700033
-1147.2955117225647,1448.0,-4792.0,-15004.0,-125.0,3174.0,5762.0,-0.6832980680403233,0.2791904610345309,0.24610678747397163,-0.6281623085150277
-1147.311108827591,1488.0,-5556.0,-16352.0,913.0,518.0,1494.0,-0.6268065271686367,0.2818853763569351,0.12739595159085093,-0.7151394854244616
-1147.3266904354095,3896.0,-3500.0,-16304.0,1933.0,450.0,1093.0,-0.5995480019028671,0.212492335195603,-0.04365700828138644,-0.7703786513950903
-1147.342277765274,5228.0,-2156.0,-15916.0,1898.0,779.0,770.0,-0.5697259535704456,0.15996464668139368,-0.2220973260054091,-0.7749170455097698
-1147.357896566391,5452.0,-1620.0,-15772.0,2047.0,236.0,-717.0,-0.6308390646821169,0.08660400054961902,-0.35607014365288997,-0.6839268048254901
-1147.373522758484,6828.0,-1476.0,-15348.0,981.0,669.0,-87.0,-0.6192180141729783,0.0747799000839603,-0.4486224830948979,-0.6400897477142361
-1147.389154434204,7024.0,-2896.0,-15296.0,472.0,1561.0,2170.0,-0.42797236165370844,0.05010679772607854,-0.5582760937473781,-0.7089829120876989
-1147.4047429561615,5776.0,-4660.0,-15176.0,811.0,1540.0,2526.0,-0.19324978531161122,-0.007720824513237067,-0.6541907157251472,-0.7311835725759104
-1147.4203181266785,5712.0,-3976.0,-14172.0,289.0,1481.0,2587.0,0.054862960867387046,-0.06372519465535458,-0.6734330822307943,-0.7344501609014277
-1147.4359312057495,5892.0,-4940.0,-14176.0,-238.0,2144.0,5146.0,0.4580432916302054,-0.20678226383576853,-0.5569336986980157,-0.661258114211137
-1147.4515335559845,4436.0,-4464.0,-14612.0,378.0,2758.0,6719.0,0.8329787626678508,-0.3033215474073046,-0.29335225579511487,-0.35789226569275284
-1147.4671230316162,2384.0,-4900.0,-15152.0,1105.0,1620.0,4338.0,0.9595851397713454,-0.26200929379357163,-0.08813658284086706,-0.052720321138402255
-1147.4827094078064,2552.0,-3708.0,-14708.0,2039.0,87.0,-448.0,0.9884768073713744,-0.0862964185927507,-0.09897247174254191,-0.075305904576808
-1147.498276233673,4852.0,-2804.0,-15084.0,723.0,135.0,-1681.0,0.9716350306167277,-0.008613048930181279,-0.1036764694772542,-0.21237319120663298
-1147.5138673782349,5816.0,-3844.0,-15120.0,1123.0,734.0,-992.0,0.9507171548121117,0.10786670416345293,-0.06261272907941527,-0.28386847629862866
-1147.5294947624207,5928.0,-3252.0,-15104.0,1046.0,384.0,-1150.0,0.9056943542218607,0.20835301929102884,-0.04571493956456578,-0.3663562479111921
-1147.5450897216797,6120.0,-3592.0,-14992.0,581.0,192.0,-1562.0,0.837039269816895,0.26388563305242063,-0.02079066038168848,-0.47885006201713654
-1147.5607175827026,6144.0,-4008.0,-15192.0,443.0,203.0,-909.0,0.786032911129349,0.3052681760600755,-0.003748485312632652,-0.5375402795738532
-1147.5763068199158,6236.0,-4280.0,-15164.0,607.0,598.0,662.0,0.7975574796119429,0.3732575501185884,-0.008947377924028086,-0.4738151669404424
-1147.5919134616852,5312.0,-4012.0,-15024.0,739.0,808.0,841.0,0.8030043507488673,0.45438799948388825,-0.010690378702481662,-0.3854883583282608
