programtime,ax,ay,az,gx,gy,gz,q0,q1,q2,q3
-9501.680042266846,1192.0,-2320.0,16368.0,139.0,40.0,-45.0,0.9999166709576758,0.011835528215459728,0.0033395697138189503,-0.003926663584603246
-9501.695625543594,1200.0,-2300.0,16272.0,173.0,67.0,22.0,0.9996024224312784,0.026660435682722017,0.008959308121804245,-0.0019872183336892245
-9501.711277246475,1200.0,-2252.0,16264.0,201.0,52.0,29.0,0.9989469908993538,0.04392161480919931,0.013249289733229962,0.0005073925932581096
-9501.72687458992,1200.0,-2292.0,16328.0,198.0,-252.0,55.0,0.9980924139762358,0.06093245513637889,-0.00904974186633658,0.004107462269575979
-9501.742449760437,1120.0,-2228.0,16424.0,176.0,-241.0,59.0,0.9966163998978755,0.0759550361207225,-0.030345396580836164,0.008108073066342715
-9501.758038520813,1220.0,-2544.0,16368.0,177.0,241.0,17.0,0.9957585854401548,0.0907787827709636,-0.00938552838999053,0.011660359243367419
-9501.773622512817,1036.0,-2248.0,16364.0,171.0,246.0,-42.0,0.9943359176447232,0.1050669182261383,0.012447551983432406,0.010103663974420979
-9501.78920173645,1200.0,-2212.0,16448.0,212.0,-35.0,-39.0,0.9923232757015755,0.12312238810408416,0.00986350489542542,0.006172950641310753
-9501.804790019989,1524.0,-2268.0,16608.0,187.0,-14.0,245.0,0.9898783262618925,0.1391810207003916,0.00602637724601927,0.027078136033341988
-9501.820397615433,1256.0,-2256.0,16328.0,214.0,-13.0,-43.0,0.9872565987410509,0.1573421381371631,0.005860529454499055,0.023097922053527408
-9501.836075305939,1208.0,-2240.0,16360.0,174.0,70.0,-26.0,0.9848029737979587,0.1718530467270174,0.012536835060542106,0.021736165623292357
-9501.851732969284,1228.0,-2232.0,16132.0,175.0,32.0,-6.0,0.982093692852411,0.1865058234347201,0.015641139359350836,0.021515367623925936
-9501.867341279984,1308.0,-2240.0,16332.0,172.0,57.0,18.0,0.9791202651114744,0.20084664741430885,0.02048655037815154,0.023757776075883665
-9501.88289475441,1268.0,-2272.0,16136.0,233.0,43.0,119.0,0.9745181580651715,0.22053286417341839,0.022484827892614627,0.03426438289789426
-9501.898493528366,1300.0,-2208.0,16156.0,506.0,99.0,162.0,0.9631075367244728,0.2630183629338325,0.029202075576082315,0.04891270025436901
-9501.914163589478,1312.0,-2176.0,16436.0,225.0,159.0,167.0,0.956527035826185,0.28129811978394526,0.03961723024897244,0.06601418489225748
-9501.929823637009,1280.0,-2164.0,16388.0,227.0,148.0,123.0,0.9494977286087912,0.29945987086261106,0.05017935124742735,0.07911941492504783
-9501.945410728455,1500.0,-2108.0,16384.0,217.0,159.0,119.0,0.9420849820758554,0.3165107395588279,0.061651004749041276,0.09217370506002551
-9501.961052417755,1236.0,-2116.0,16340.0,275.0,194.0,103.0,0.9322678836687844,0.3377134162774197,0.07686357962965024,0.1044903424842531
-9501.977135181427,1172.0,-2172.0,16392.0,319.0,197.0,155.0,0.919649762592088,0.36245379699655,0.09110539551007561,0.12071191372873122
-9501.993602752686,1264.0,-2088.0,16396.0,324.0,244.0,241.0,0.9042534471658433,0.3872584107364111,0.10631645443881202,0.14509802933933533
-9502.009425401688,1508.0,-2104.0,16520.0,314.0,375.0,292.0,0.8854695981770647,0.40928965111860094,0.12978262976695865,0.17771336810193608
-9502.025252342224,1224.0,-2088.0,16540.0,300.0,398.0,299.0,0.8645969298432059,0.42894331874904446,0.15424002605842144,0.21139960399148236
-9502.041031837463,1124.0,-2136.0,16432.0,281.0,431.0,273.0,0.8422519113709956,0.4451150986213957,0.18141779308480704,0.24407345436037853
-9502.056848287582,1108.0,-2276.0,16468.0,304.0,404.0,370.0,0.8150461544761611,0.4638542883303426,0.20283645704441175,0.2817735561844719
-9502.07264328003,1012.0,-2204.0,16300.0,383.0,379.0,451.0,0.7803729357512451,0.4886902022324552,0.2204659056577851,0.3218613860522533
-9502.088426589966,1040.0,-2068.0,16264.0,394.0,314.0,459.0,0.7434139668840887,0.5144853005098661,0.23285609284217695,0.3583553954208185
-9502.104080677032,1272.0,-1952.0,16220.0,278.0,506.0,553.0,0.701734332915548,0.5265223788047881,0.24887243434004988,0.41037254056646555
-9502.119693994522,776.0,-1932.0,16228.0,183.0,143.0,521.0,0.6708135041439562,0.5431251215431463,0.2398735599104447,0.44439286702504516
-9502.135292053223,996.0,-1936.0,16148.0,54.0,-11.0,439.0,0.6510532406500943,0.5553645989886763,0.22027790142637357,0.4681639522350584
-9502.150930643082,1104.0,-2000.0,16296.0,-35.0,-80.0,385.0,0.6382558639569583,0.5635847206755638,0.1954551905776927,0.4866199576896135
-9502.166564702988,1248.0,-2112.0,16324.0,4.0,-9.0,359.0,0.6227344094228466,0.569904450054462,0.17731267436868559,0.5059357554444283
-9502.182170391083,1248.0,-2028.0,16424.0,-252.0,126.0,314.0,0.6191055429883424,0.5549902420006344,0.1572456990808082,0.5328864307202567
-9502.197796106339,1088.0,-2028.0,16460.0,-83.0,216.0,244.0,0.6086211506060915,0.5434292541448301,0.15311256880574592,0.5575136608624195
-9502.21339225769,1504.0,-1940.0,16340.0,-151.0,5.0,163.0,0.6077377817639013,0.5370943523598244,0.13820710350197526,0.5684041184064976
-9502.228973150253,1228.0,-1992.0,16188.0,-190.0,200.0,-30.0,0.6156068062135703,0.5164252083012437,0.14069367932151963,0.5783930782551931
-9502.244554281235,1324.0,-2196.0,16528.0,-142.0,217.0,-108.0,0.6246731760805959,0.4962049371990892,0.14994046678671386,0.5840222083143851
-9502.260154247284,1328.0,-2064.0,16516.0,-79.0,284.0,-142.0,0.6314253592794377,0.4752041791253269,0.16740631648767132,0.5894557905396188
-9502.275792598724,1532.0,-2244.0,16424.0,-22.0,393.0,-182.0,0.6355691451670572,0.45062554736055294,0.19525750547845433,0.5957037722995799
-9502.291414260864,1212.0,-2388.0,16492.0,75.0,363.0,-144.0,0.6336055658559023,0.4330345070183449,0.22472831746959265,0.6004350805666563
-9502.30698299408,1208.0,-2388.0,16604.0,157.0,403.0,49.0,0.6168208486032205,0.4210976555956171,0.25310436466219766,0.6149365705251422
-9502.322645425797,1036.0,-2332.0,16616.0,188.0,519.0,141.0,0.5902140877533336,0.40582585295604473,0.2854916774585045,0.6367473673223378
-9502.338241577148,1336.0,-2244.0,16592.0,222.0,602.0,293.0,0.5500849031169956,0.39022840366262806,0.31774104731522823,0.6664600657118958
-9502.353830814362,1320.0,-2188.0,16304.0,171.0,588.0,361.0,0.5060362002060358,0.37339965315342855,0.3428361871998932,0.6978276376385332
-9502.369409561157,1244.0,-2196.0,16264.0,169.0,484.0,437.0,0.4586859833312099,0.36371343566466274,0.3595091089664397,0.7266862500299871
-9502.385003089905,1252.0,-2232.0,16328.0,62.0,436.0,661.0,0.40019233417124556,0.35830946658287216,0.35891147005326207,0.7633105387009105
-9502.40059018135,1212.0,-2356.0,16148.0,52.0,340.0,854.0,0.3299864049885603,0.362945072090675,0.34628315109670776,0.7996673223499603
-9502.416182041168,1196.0,-2328.0,16204.0,51.0,272.0,1114.0,0.24120831219200387,0.3770964163794068,0.3206349045527822,0.8347515204333098
-9502.431791067123,1184.0,-2056.0,16052.0,12.0,225.0,1059.0,0.1566687047689709,0.38873594207163725,0.2899538287302715,0.8603871579076167
-9502.447372436523,1092.0,-2268.0,16092.0,-54.0,170.0,1481.0,0.042614895887630164,0.4091238345780473,0.23583872652243398,0.880444066196665
-9502.462948322296,1080.0,-2224.0,15964.0,-212.0,-255.0,1595.0,-0.06648839216257314,0.4560257511235132,0.15990005063953533,0.8729557731210359
-9502.478564977646,1144.0,-2212.0,15944.0,-355.0,-203.0,1762.0,-0.18156318725529305,0.49188152177939753,0.06301251775904675,0.8491859632444175
-9502.494173288345,1144.0,-2088.0,15884.0,-426.0,-376.0,1867.0,-0.29537806718101683,0.5289690401215908,-0.04221028307958821,0.7944569491316635
-9502.509800195694,1064.0,-2444.0,16016.0,-485.0,-566.0,2073.0,-0.41134587712709275,0.5626051010766674,-0.15415305021576,0.7003619826362885
-9502.525376558304,1068.0,-2552.0,16140.0,-521.0,-639.0,2184.0,-0.5173149284516245,0.578942313442414,-0.2648444592640814,0.5718990076089944
-9502.540977239609,844.0,-2660.0,16152.0,-507.0,-719.0,2257.0,-0.6076367443677234,0.5727663526427825,-0.3636547777606658,0.41288193807227547
-9502.556598424911,392.0,-2536.0,15812.0,-435.0,-1020.0,2333.0,-0.6852431139567338,0.5447678623763311,-0.4309897759113811,0.2189010369017449
-9502.572195529938,-80.0,-2352.0,15428.0,-369.0,-1454.0,2228.0,-0.7448749653240858,0.49723096473609635,-0.4448775395043956,0.0025746039632766537
-9502.587866544724,-232.0,-1816.0,14824.0,-152.0,-1781.0,1967.0,-0.7870777380056767,0.41988360331455593,-0.4036684266107111,-0.20312113469820198
-9502.60345864296,-300.0,-2016.0,14344.0,224.0,-2294.0,1652.0,-0.8221023817103995,0.29655088457912787,-0.30135538203985707,-0.3813006432685857
-9502.61905503273,-196.0,-1472.0,14176.0,612.0,-2937.0,1352.0,-0.8364316424246654,0.11455024704340938,-0.14011827910135294,-0.5173269916742658
-9502.634656906128,24.0,-1488.0,15088.0,906.0,-3540.0,1227.0,-0.7898694907917838,-0.11993191961088001,0.061991887721124385,-0.5982303302504389
-9502.650241613388,1096.0,-1004.0,16856.0,968.0,-3628.0,1071.0,-0.6666282580312937,-0.3502224163480799,0.2581568078269459,-0.6052322589337722
-9502.665820121765,1900.0,-1264.0,18476.0,998.0,-2892.0,996.0,-0.49912485959343567,-0.5184171789209467,0.38902605906922083,-0.5751319226930037
-9502.681404352188,2660.0,-1432.0,19140.0,458.0,-1688.0,151.0,-0.40880096049725806,-0.610761298111265,0.44120134254846644,-0.5149696949912612
-9502.696980953217,3304.0,-1612.0,17904.0,116.0,-670.0,-421.0,-0.39483875178122124,-0.6595526547572175,0.436344639921204,-0.46764945301645405
-9502.71255993843,3340.0,-2280.0,16476.0,-306.0,-768.0,-758.0,-0.41223369613490995,-0.7057881796094533,0.42958204048532117,-0.3839084471420141
-9502.72813129425,2928.0,-3032.0,15848.0,-286.0,-1375.0,-814.0,-0.4016186425397724,-0.764413395778319,0.43414456880042296,-0.25669655178880846
-9502.74377322197,2572.0,-3860.0,15940.0,-686.0,-1813.0,-743.0,-0.3890528544717959,-0.7961476165104412,0.4560684220781484,-0.08239201135570821
-9502.759425163269,2192.0,-4844.0,16596.0,-705.0,-2008.0,-484.0,-0.3552481513622244,-0.791656663966035,0.48694024881595294,0.09983822632112611
-9502.775013923645,2320.0,-5080.0,17420.0,-966.0,-2141.0,-213.0,-0.3224239960923433,-0.7366276942279323,0.5193027033372618,0.2893909278932154
-9502.790650606155,2764.0,-4840.0,17372.0,-1335.0,-1980.0,-113.0,-0.3090400794329665,-0.6403341405945207,0.5227646269747139,0.47030156546319346
-9502.806235074997,2836.0,-3712.0,16884.0,-1667.0,-1927.0,29.0,-0.307988706081564,-0.5025936486864665,0.49578105612509,0.6377646318303635
-9502.821825504303,2752.0,-3056.0,15572.0,-1880.0,-2090.0,0.0,-0.2914136882830662,-0.3259414651118134,0.4343492521818317,0.7875156828477183
-9502.837403774261,2852.0,-2804.0,14824.0,-1983.0,-2407.0,462.0,-0.27803228254317686,-0.08909147811348975,0.3589310033403031,0.886526532729003
-9502.853008508682,3012.0,-2484.0,14668.0,-1939.0,-2459.0,527.0,-0.24755674870668096,0.15887004809483113,0.26254299415029814,0.9189924592784858
-9502.868618488312,2968.0,-2976.0,14544.0,-1708.0,-2304.0,764.0,-0.2249846302977186,0.38533784993185827,0.15920370376892534,0.8806536426120929
-9502.884226799011,2696.0,-3716.0,14688.0,-1317.0,-2293.0,515.0,-0.1834761925798316,0.5786863520799572,0.0832456581770184,0.7902713161107869
-9502.89977812767,2456.0,-4472.0,14728.0,-902.0,-2370.0,595.0,-0.15777553044230053,0.7418903395188626,0.028136390546953126,0.6510867451033134
-9502.915711164474,2528.0,-4880.0,14756.0,-528.0,-2488.0,628.0,-0.14936699270939421,0.8695892708739918,-0.008098900665351086,0.4705724272392121
-9502.93151140213,2804.0,-4676.0,14972.0,-98.0,-2509.0,706.0,-0.16844472848468306,0.9491077689280868,-0.032191360513408714,0.2641676223808783
-9502.94714307785,3524.0,-4208.0,15392.0,210.0,-2373.0,824.0,-0.20662035439510654,0.9750842450950037,-0.05930893528308761,0.05478315719939644
-9502.962802886963,4044.0,-3732.0,15656.0,424.0,-2005.0,952.0,-0.25282347572271946,0.9537097493368768,-0.10021604214798771,-0.1283539989227759
-9502.97845697403,4584.0,-3552.0,16060.0,569.0,-1616.0,1059.0,-0.2979510195844641,0.8999614232624514,-0.15667819675010028,-0.27703171159839757
-9502.994061470032,4340.0,-3456.0,15684.0,637.0,-1345.0,1038.0,-0.3371453858423651,0.826341002120831,-0.2159372113562975,-0.3960614318143198
-9503.009668111801,3928.0,-3496.0,15692.0,593.0,-1262.0,955.0,-0.36678630700861836,0.739208788762764,-0.26528583516688986,-0.4986598011336712
-9503.025296926498,3336.0,-3500.0,15460.0,515.0,-1308.0,874.0,-0.38829797594415827,0.6388441287360009,-0.29907062831027553,-0.5930089546872852
-9503.040902137756,3492.0,-3644.0,15320.0,571.0,-1285.0,792.0,-0.4087211768379981,0.5270086621762795,-0.3259535216282568,-0.6700471411277474
-9503.056576013565,3452.0,-3768.0,14852.0,608.0,-1391.0,807.0,-0.4243822366362351,0.3964586082472591,-0.34504882567693224,-0.7373341149528096
-9503.072175502777,3512.0,-3856.0,14828.0,752.0,-1526.0,861.0,-0.4350298312776877,0.24103098033743012,-0.36160119264596735,-0.7886049010075312
-9503.087834596634,3596.0,-4000.0,14624.0,809.0,-1941.0,966.0,-0.4380223404405488,0.04520701543369924,-0.3565151999396072,-0.8240082931879891
-9503.103457212448,3916.0,-3960.0,15004.0,760.0,-2250.0,1052.0,-0.42462759402996747,-0.17403901497732155,-0.3209209223281412,-0.8284996012467959
-9503.119059324265,4144.0,-3936.0,15036.0,733.0,-2222.0,1091.0,-0.38714604874880365,-0.38280888743308517,-0.268042575713584,-0.7948134814189177
-9503.134670257568,4260.0,-4416.0,15148.0,779.0,-2182.0,1529.0,-0.2974910248208179,-0.5794233218206553,-0.19154781976167706,-0.7342187256028855
-9503.150257825851,4584.0,-4688.0,15664.0,997.0,-1974.0,1626.0,-0.17101998371492608,-0.7380296723672818,-0.11849472628269736,-0.6418904639568794
-9503.165852069855,4736.0,-4624.0,15776.0,1298.0,-1777.0,1978.0,0.0049043806394750795,-0.8494866257958563,-0.036033635044189306,-0.526355390197551
-9503.181450128555,4788.0,-4960.0,15924.0,1695.0,-1528.0,2288.0,0.22227569056245924,-0.8913272365136711,0.05304847315837529,-0.39155476542809353
-9503.197049856186,4808.0,-4872.0,16152.0,1929.0,-1177.0,2312.0,0.4397199499495553,-0.8501634367078482,0.13874887768832142,-0.25419922392031913
-9503.21271109581,4652.0,-4520.0,16228.0,2070.0,-771.0,2711.0,0.6340259666632735,-0.7220232403717634,0.25287278010229486,-0.1129108986905018
-9503.228276252747,4512.0,-4012.0,16076.0,2124.0,-588.0,3068.0,0.7703965092897948,-0.5151745561479009,0.37294888128379194,0.04464893191421729
-9503.243916511536,4120.0,-3572.0,15684.0,2116.0,-614.0,2695.0,0.8373308689427756,-0.2704568247722875,0.4410688707002273,0.17660230221844442
-9503.259521961212,4128.0,-3376.0,15784.0,2199.0,-696.0,2683.0,0.8358279138911294,0.004145350871986518,0.46556469690026325,0.2909020925100346
-9503.275103092194,4540.0,-3584.0,16088.0,2278.0,-792.0,2386.0,0.7735039579155746,0.27556704181559777,0.4454537272524975,0.3568268619804274
-9503.29070186615,4828.0,-3920.0,16128.0,2416.0,-688.0,2069.0,0.652000709059354,0.5199399810947561,0.40819324632846987,0.37139704508397653
-9503.306304216385,4828.0,-4092.0,16284.0,2530.0,-359.0,1598.0,0.4818437098924587,0.7083574419258227,0.38410663000227746,0.34426511657975223
-9503.321939706802,4632.0,-4124.0,16024.0,2691.0,-140.0,1397.0,0.26892833827683876,0.8434652228439032,0.3602356603714897,0.2940650195471395
-9503.337545394897,4356.0,-4104.0,16288.0,3067.0,431.0,1502.0,-0.008609869341515482,0.9113708944047624,0.32415632837970165,0.25347906768247497
-9503.353172063828,1596.0,-3416.0,18820.0,3107.0,1092.0,936.0,-0.2945510488487125,0.8731800109192881,0.30430895953096593,0.24123102060534418
-9503.3687646389,2028.0,-1348.0,22660.0,2779.0,1485.0,292.0,-0.5320915073859209,0.7500788953649681,0.29145886016904154,0.26327174425830635
-9503.384363412857,3224.0,416.0,24000.0,594.0,2433.0,-985.0,-0.5941418477787177,0.6244298877291532,0.24977227138792465,0.4412443682069668
-9503.399987697601,4788.0,1204.0,21796.0,-1522.0,3400.0,-1848.0,-0.48333909665512553,0.5000552748122091,0.10858145564614825,0.7103084592392639
-9503.41555428505,4024.0,344.0,18700.0,-2068.0,3373.0,-2476.0,-0.25149658361455934,0.3283034118413807,-0.04990129815141302,0.9091073636520152
-9503.431152105331,4136.0,-1692.0,15960.0,-1700.0,3272.0,-2598.0,0.016371363931190226,0.1089091186359592,-0.16946018237792632,0.9793640941495716
-9503.446711301804,4256.0,-4316.0,15400.0,-895.0,3374.0,-1984.0,0.23066660174842937,-0.14274671625618685,-0.20951934068790093,0.9394242597003839
-9503.462303638458,3556.0,-6272.0,16292.0,-34.0,3301.0,-471.0,0.31619907575264866,-0.3890439965515576,-0.14568021586061441,0.8529010422945719
-9503.477907896042,2392.0,-6580.0,17272.0,642.0,2806.0,1204.0,0.2741608653716923,-0.5744084868762878,0.01968804724076687,0.7710402654200258
-9503.493536949158,1412.0,-4784.0,17256.0,1048.0,3162.0,2112.0,0.16944226316833297,-0.7170906261694873,0.25694842249986327,0.6253381976875215
-9503.509175300598,560.0,-2504.0,17100.0,1021.0,3510.0,2710.0,0.006255877351254792,-0.7739421642978485,0.49648351764614845,0.3930375389530048
-9503.524787187576,-8.0,-196.0,16668.0,610.0,3377.0,3025.0,-0.18822825688267578,-0.7042802746870216,0.67202349677462,0.1301684976501417
-9503.540378332138,68.0,1656.0,16756.0,90.0,3398.0,3133.0,-0.38732402521581244,-0.5198355979858507,0.7509781481843599,-0.1256298989369299
-9503.556025505066,-24.0,2272.0,15992.0,-91.0,3648.0,3133.0,-0.5498098413715488,-0.25019043735992047,0.7106688232283599,-0.3606434625441893
-9503.571628570557,-460.0,1956.0,15308.0,49.0,3586.0,2957.0,-0.6284171355257632,0.04059534847246198,0.5573637120476916,-0.5411003732695181
-9503.587273836136,-1044.0,1088.0,15204.0,271.0,3138.0,2753.0,-0.6125167376636016,0.2891856310347693,0.3405115795405779,-0.6521094855035783
-9503.60286808014,-1188.0,28.0,15136.0,479.0,2266.0,2796.0,-0.5079649744876545,0.45331456023879474,0.115675214666446,-0.7232542698671999
-9503.61845421791,-1220.0,-416.0,15412.0,697.0,1540.0,2284.0,-0.3949938893580474,0.526549381623167,-0.08448465554866419,-0.7480560935243337
-9503.634041070938,-880.0,-380.0,15808.0,949.0,1235.0,2122.0,-0.28361063684991683,0.5444703548404528,-0.2792625630839137,-0.7383288293337184
-9503.649621248245,-640.0,48.0,15692.0,1270.0,1326.0,1817.0,-0.18982056289582133,0.540510555941152,-0.4684799437615353,-0.6725645211511598
-9503.66528391838,-428.0,632.0,16256.0,1389.0,1532.0,1539.0,-0.0998832046227623,0.5311538356119273,-0.6321693760430176,-0.555212417316478
-9503.680874586105,-400.0,1108.0,16156.0,1522.0,1480.0,1153.0,-0.03220315422504697,0.5146347643333821,-0.7556481551963232,-0.40386864417267593
-9503.696489572525,-388.0,1040.0,16252.0,1536.0,1354.0,807.0,0.016257965414172758,0.4957419045987474,-0.8345837761561371,-0.23967804063443318
-9503.712094545364,-496.0,1008.0,16060.0,1390.0,1186.0,534.0,0.05296054145593126,0.4770796107066329,-0.8731154487778688,-0.08520351637181865
-9503.727715492249,-340.0,176.0,15864.0,1101.0,868.0,455.0,0.07603051915970822,0.45023449573065627,-0.8889123355792745,0.036648583403263824
-9503.74332022667,-296.0,-708.0,15788.0,819.0,626.0,595.0,0.09003847003519592,0.4053137838876676,-0.9006725582885662,0.12807323393399359
-9503.758932828903,-132.0,-1168.0,15732.0,640.0,673.0,863.0,0.10999942889352635,0.3329308653237316,-0.9131807136877884,0.20774539394785782
-9503.774541378021,-40.0,-1348.0,15540.0,542.0,719.0,927.0,0.13391697062957705,0.24961032940637284,-0.9175561610884138,0.279019031035039
-9503.79017829895,-212.0,-1388.0,15240.0,557.0,586.0,937.0,0.1450685882579271,0.16582472021065514,-0.9122270991271682,0.34539685361326294
-9503.805807352066,-252.0,-1152.0,15224.0,266.0,472.0,859.0,0.15232722996644918,0.08621253159365175,-0.907078306717265,0.3828482204345494
-9503.821397542953,-76.0,-796.0,14868.0,489.0,384.0,520.0,0.16129401773934726,0.038605501798468445,-0.8872898357352426,0.43036101411874417
-9503.836992740631,-216.0,-524.0,15140.0,387.0,327.0,668.0,0.15981831761918147,-0.01992003539855636,-0.8680343087104194,0.46965704130218133
-9503.852594137192,-448.0,-404.0,15908.0,55.0,194.0,693.0,0.14593552196131435,-0.07946110525113248,-0.8601159191223648,0.48227519307386796
-9503.868166923523,-412.0,-396.0,16620.0,-352.0,36.0,605.0,0.12052235336671709,-0.1306394376717008,-0.8686107518389494,0.46251817418729085
-9503.883769750595,-260.0,-284.0,17256.0,-732.0,-201.0,400.0,0.08057645008699417,-0.16010222381480452,-0.893179932191874,0.4124370525918494
-9503.899356842041,-52.0,-412.0,17456.0,-956.0,-211.0,103.0,0.04689583058856269,-0.1666421351801431,-0.9242119888640615,0.3403871024230322
-9503.91496014595,104.0,-704.0,17664.0,-863.0,39.0,-126.0,0.04112183200907305,-0.16069907455240867,-0.948760592833472,0.2689575056704973
-9503.930655241013,-4.0,-1160.0,17332.0,-705.0,376.0,-320.0,0.06969750349505578,-0.14514375550763578,-0.9657195600353123,0.20362043023454054
-9503.946256399155,-328.0,-1452.0,16644.0,-422.0,599.0,-511.0,0.12356663517631271,-0.11493048590379448,-0.9730885680531397,0.15691051209339663
-9503.961910247803,-452.0,-1696.0,16696.0,-175.0,702.0,-615.0,0.18923655086133373,-0.07393891450756065,-0.9707460757126846,0.12796335892736066
-9503.977535009384,-32.0,-1668.0,16672.0,58.0,658.0,-643.0,0.25177018954026487,-0.025759873170040377,-0.9602628861790368,0.11765793649486027
-9503.993152856827,-140.0,-1588.0,16592.0,238.0,702.0,-572.0,0.3160118367348093,0.02014022444327838,-0.9405229796310927,0.12307483572492808
-9504.008766412735,-204.0,-1460.0,16212.0,219.0,753.0,-444.0,0.38109130717977824,0.05437374481875547,-0.9137702046089244,0.129757175660375
-9504.024360895157,-184.0,-1412.0,16292.0,37.0,765.0,-211.0,0.44332051062748895,0.06361215103319628,-0.8847426613222847,0.12903814294336935
-9504.039986133575,-32.0,-1480.0,16348.0,-282.0,883.0,111.0,0.5102079787797507,0.03405963712849075,-0.8514977777269577,0.11610036190387142
-9504.055584192276,-108.0,-1764.0,16368.0,-399.0,1112.0,473.0,0.5857267435809612,-0.029962948762844287,-0.8024276660666885,0.11016462356966167
-9504.071252822876,-340.0,-2120.0,16208.0,-373.0,1135.0,659.0,0.653379870108294,-0.10537109231048693,-0.7409445902406191,0.11398593086747508
-9504.086829900742,-536.0,-2204.0,16008.0,-234.0,928.0,668.0,0.7010627590815842,-0.1702735342658667,-0.6805801922162522,0.12778314959499287
-9504.102430820465,-544.0,-1964.0,16000.0,-173.0,653.0,526.0,0.7294794127377041,-0.2187690975911819,-0.6328531934222181,0.13963059803028446
-9504.11800289154,-428.0,-1392.0,15792.0,-84.0,458.0,375.0,0.7476880356120237,-0.25004594120146684,-0.5966198631382306,0.14994788294679162
-9504.133586645126,-348.0,-1220.0,16000.0,27.0,437.0,200.0,0.7678416643726526,-0.26414441586642,-0.5627573800555177,0.1547612264524678
-9504.149172782898,-472.0,-1372.0,16096.0,180.0,376.0,224.0,0.7868658993799501,-0.26788499012881045,-0.529373656345392,0.1698329191416681
-9504.164779424667,-412.0,-1524.0,16332.0,372.0,219.0,-252.0,0.8087518709002788,-0.2336568252666682,-0.5140767287338176,0.16446889157508587
-9504.180373191833,-188.0,-1540.0,16308.0,463.0,30.0,-534.0,0.825738088270426,-0.17704773140652513,-0.5150665249533101,0.14668737251660874
-9504.19600391388,36.0,-1600.0,16240.0,384.0,23.0,-691.0,0.8396608590198248,-0.11827538217792806,-0.5177712166969708,0.11354973782837793
-9504.211597919464,80.0,-1576.0,16320.0,348.0,55.0,-716.0,0.8508802698055343,-0.06078521485137266,-0.5162564938242823,0.0760733639021738
-9504.227223396301,144.0,-1976.0,16464.0,433.0,212.0,-527.0,0.8646556239399208,-0.006275196858125,-0.4992797236905684,0.055236142198091684
-9504.242822885513,68.0,-2244.0,16648.0,506.0,313.0,-458.0,0.8789980671292739,0.05023100251068636,-0.4722653227254894,0.04248187049509038
-9504.258440494537,-120.0,-2244.0,16612.0,458.0,309.0,-489.0,0.8897992158563564,0.10411584297480539,-0.44360324453845257,0.02516760095870753
-9504.274047136307,-288.0,-2152.0,16416.0,353.0,110.0,-501.0,0.8907406327286469,0.15039258274120196,-0.4289082776169742,0.0009410920469609146
-9504.289705991745,-48.0,-1864.0,16364.0,188.0,-69.0,-762.0,0.8837722976606143,0.19299619751460895,-0.4230735902042693,-0.05203586171334934
-9504.305414438248,124.0,-1540.0,16492.0,246.0,-144.0,-488.0,0.87114487632691,0.228961917392361,-0.4263891425584341,-0.08291769377925289
-9504.32098531723,352.0,-1888.0,16180.0,34.0,-85.0,-393.0,0.8640302919654758,0.245295849877829,-0.4248246632348767,-0.11316185800057292
-9504.336577415466,384.0,-1976.0,16420.0,51.0,-140.0,-273.0,0.8548448249573356,0.2576741815253531,-0.4297334080770824,-0.13480927045777533
-9504.352129459381,424.0,-1928.0,16192.0,88.0,-226.0,-392.0,0.8392076944848897,0.2759497023400222,-0.4383167949200802,-0.16571238513399383
-9504.36780834198,516.0,-1656.0,16420.0,-7.0,-187.0,-413.0,0.8257113576285625,0.2881982806952937,-0.44148107532470093,-0.20059153775176744
-9504.383434534073,652.0,-1496.0,16336.0,-71.0,-59.0,-477.0,0.8162460504722416,0.3000503418979637,-0.43196637191276543,-0.23899211483206764
-9504.399070978165,660.0,-1600.0,16256.0,-108.0,38.0,-546.0,0.8082650440838326,0.313250072277972,-0.412083798177477,-0.2806580731239168
-9504.41465973854,636.0,-1540.0,16264.0,-27.0,122.0,-760.0,0.793087068619479,0.3407813245378104,-0.38104240969348724,-0.3311912928351196
-9504.43026137352,664.0,-1884.0,16352.0,110.0,153.0,-511.0,0.7793544135642089,0.3692671564412589,-0.35790412215043005,-0.3579847826088492
-9504.445837497711,628.0,-1784.0,16096.0,280.0,120.0,-398.0,0.7610175241419597,0.40397676740755756,-0.34521913268068044,-0.37212746441908967
-9504.461503267288,336.0,-1724.0,16260.0,403.0,147.0,-259.0,0.7422170055563886,0.4427713156998198,-0.33898507489195623,-0.3716942260203312
-9504.477120161057,164.0,-1716.0,16588.0,434.0,68.0,-238.0,0.7191523606669494,0.4795555740870528,-0.3390488227272529,-0.3713384296251261
-9504.492722511292,216.0,-1516.0,16676.0,314.0,24.0,-326.0,0.6957073894278882,0.5091740363188784,-0.33373188859602426,-0.3812558925030606
-9504.508304595947,300.0,-1360.0,16308.0,114.0,-52.0,-335.0,0.6777432316902633,0.5237526824623127,-0.32556257797809907,-0.4004450615650348
-9504.52392244339,348.0,-1692.0,15804.0,66.0,-314.0,-304.0,0.6547822446341031,0.5248138651893556,-0.3322320436816918,-0.4306419489181481
-9504.53950715065,492.0,-2132.0,15684.0,234.0,-601.0,-145.0,0.6202417619614605,0.5188259371839472,-0.36805818771256926,-0.4589694696620689
-9504.555092096329,488.0,-2604.0,15964.0,553.0,-902.0,118.0,0.5685838426216999,0.5065543506725768,-0.44242098896758675,-0.4736863648503815
-9504.570698022842,796.0,-2980.0,17116.0,840.0,-770.0,366.0,0.5141246120961112,0.4994723864458979,-0.528615527375257,-0.45471842125962075
-9504.586282730103,796.0,-2700.0,17808.0,918.0,-1007.0,583.0,0.44712726123624247,0.46982151845127895,-0.6303580869291081,-0.42660712054838773
-9504.60185456276,1292.0,-2264.0,17864.0,860.0,-191.0,803.0,0.4290076995610651,0.4496184055755568,-0.6989523484100445,-0.3539227284833523
-9504.617494344711,1284.0,-1424.0,17240.0,676.0,326.0,841.0,0.446265712266585,0.4315755441486849,-0.7370370299017678,-0.26714393180745233
-9504.633093595505,900.0,-1200.0,16552.0,481.0,438.0,802.0,0.47318164705290783,0.4072484351507517,-0.7582920024540222,-0.1877260769680936
-9504.648719072342,536.0,-1124.0,16064.0,303.0,230.0,620.0,0.48688959554832895,0.38169873387246445,-0.7742001243836127,-0.1336366929826561
-9504.664330482483,104.0,-1168.0,15904.0,116.0,-110.0,430.0,0.4802978926918017,0.3559773100063983,-0.7938816803311793,-0.11111240556736379
-9504.679958105087,92.0,-1404.0,15656.0,-59.0,-427.0,162.0,0.45382006547557063,0.33784215913326326,-0.8155524652225504,-0.12159029629598049
-9504.69555234909,132.0,-1564.0,15724.0,-144.0,-668.0,27.0,0.4101383342709942,0.3225336359178868,-0.8397579359449012,-0.15021720767129662
-9504.711148500443,440.0,-1572.0,15984.0,-158.0,-639.0,-93.0,0.36597555981921054,0.31477093647028176,-0.856478112275579,-0.18282885538529736
-9504.72673201561,648.0,-1900.0,16456.0,-21.0,-401.0,-179.0,0.3335290606382515,0.3208340977995022,-0.8633769356892466,-0.2010077469123808
-9504.742311000824,780.0,-1936.0,16708.0,177.0,-58.0,-219.0,0.320311928349375,0.3413560039577175,-0.86174571942443,-0.19562888890139676
-9504.757967472076,576.0,-1796.0,16536.0,388.0,178.0,-183.0,0.3188053246536423,0.3686972941682406,-0.8572181640472405,-0.16613996952263413
-9504.773558616638,264.0,-1876.0,16632.0,760.0,167.0,-84.0,0.30496248473563997,0.3976193319516365,-0.8588714904421673,-0.1060024182169872
-9504.789162874222,-236.0,-1708.0,16356.0,766.0,122.0,11.0,0.287011908857922,0.4173522595724004,-0.8611093759778443,-0.043953363996303445
-9504.804741382599,-48.0,-1460.0,15992.0,417.0,-31.0,178.0,0.27000356872771336,0.4139680628132534,-0.8692770457378819,-0.009270037656957464
-9504.820323467255,-148.0,-1304.0,16024.0,307.0,-115.0,298.0,0.2502777648544824,0.3981939356160635,-0.8823363832398636,0.01688599624634023
-9504.83595585823,-272.0,-1224.0,16084.0,209.0,-221.0,358.0,0.22531097280444567,0.37519112204200383,-0.8985381083308448,0.033103706016149974
-9504.851532936096,-192.0,-1096.0,16284.0,48.0,-364.0,382.0,0.19391040196820788,0.34684908036826023,-0.9170836301270953,0.03243588767290594
-9504.867152452469,-148.0,-1280.0,16860.0,8.0,-398.0,324.0,0.16075595097593576,0.32184712047406794,-0.9326682124829231,0.026494540801499742
-9504.882778406143,156.0,-1400.0,17168.0,148.0,-389.0,176.0,0.12444757460387987,0.31025075531552326,-0.9419941132847359,0.03007258782119129
-9504.898401737213,456.0,-1316.0,17316.0,293.0,-282.0,34.0,0.09319503987928539,0.3111792919591422,-0.9446080573594128,0.04688017458778913
-9504.914019346237,604.0,-1624.0,17192.0,353.0,39.0,-74.0,0.0870966427492213,0.3198316543353087,-0.9403623404711499,0.07642353257063704
-9504.929671764374,752.0,-1640.0,16808.0,406.0,185.0,-84.0,0.09145135776147592,0.3283201352146103,-0.9331659360616152,0.1142097795746576
-9504.945340633392,540.0,-1740.0,16584.0,333.0,212.0,-77.0,0.09989760232697066,0.33492835324039955,-0.925371477248462,0.14673478231147413
-9504.960923433304,544.0,-1820.0,16620.0,289.0,103.0,-84.0,0.10082098862752449,0.3427791458817876,-0.9179549707187139,0.17232601989695553
-9504.976516485214,636.0,-1884.0,16248.0,264.0,-22.0,-188.0,0.09396464717175851,0.36034955438064054,-0.908178629774647,0.1911293283622524
-9504.992111206055,688.0,-1924.0,16220.0,204.0,-50.0,-281.0,0.08824522917120389,0.38494949033134446,-0.8959169108871595,0.2033704949312202
-9505.007732152939,844.0,-1992.0,16284.0,270.0,-25.0,-320.0,0.08285642603067696,0.4122185512416458,-0.8799633540917358,0.22107730352364047
-9505.02330493927,908.0,-1940.0,16208.0,241.0,13.0,-372.0,0.08231349365260222,0.4419493169638013,-0.8611761795996687,0.237235911463782
-9505.038899898529,852.0,-1916.0,16368.0,244.0,82.0,-377.0,0.0868154778704294,0.46996549480274474,-0.8403103312027053,0.2558789826674712
-9505.054498195648,692.0,-1924.0,15992.0,197.0,255.0,-394.0,0.10614682864553181,0.49416758518856624,-0.8169939119184415,0.27758277397129455
-9505.070136070251,560.0,-1720.0,15944.0,68.0,-207.0,-389.0,0.09781710732530459,0.5271476402963905,-0.7998644560577336,0.26974808762977975
-9505.085742473602,560.0,-1740.0,15616.0,-59.0,-479.0,-451.0,0.0775905908534004,0.5684603535092092,-0.7832781115146464,0.23939074067568797
-9505.101358175278,752.0,-1648.0,16096.0,-217.0,-631.0,-425.0,0.053977164791650864,0.6077824433536858,-0.769157334793831,0.18995778890303236
-9505.11694931984,992.0,-1880.0,16304.0,-245.0,-604.0,-443.0,0.033694358595496084,0.6448596900626148,-0.7507832240096127,0.13908709816844358
-9505.13253736496,1136.0,-2188.0,16748.0,-77.0,-532.0,-451.0,0.008624169783360036,0.679374775780437,-0.7265308471888008,0.10260831258700416
-9505.148138523102,1044.0,-2328.0,17056.0,206.0,-412.0,-347.0,-0.026583820338526572,0.7043337128618969,-0.703524053260164,0.0908912972004134
-9505.163783311844,1112.0,-2200.0,17140.0,463.0,-138.0,-345.0,-0.06071566511432443,0.7245673134370643,-0.6774064686740456,0.11151812636015541
-9505.179371118546,848.0,-1956.0,16772.0,600.0,30.0,-278.0,-0.09404306964315737,0.7363022069329396,-0.6530474006061294,0.1501467737893564
-9505.194958209991,516.0,-1444.0,16288.0,627.0,96.0,-197.0,-0.1260960262469416,0.7398781163260415,-0.6318881210547013,0.19338450717810418
-9505.210571527481,168.0,-1020.0,15956.0,618.0,93.0,28.0,-0.16113743953903856,0.7288653518546183,-0.6233507190864765,0.23286027024595415
-9505.22615647316,-184.0,-864.0,15724.0,552.0,53.0,261.0,-0.19842655924918598,0.7047994418653293,-0.6285721920138385,0.2622625530985459
-9505.241750240326,-552.0,-704.0,15928.0,350.0,-30.0,507.0,-0.2329128962014054,0.6706159406125513,-0.6502776892933798,0.27048987002599384
-9505.2573595047,-520.0,-328.0,16048.0,50.0,-248.0,541.0,-0.26237656587351044,0.6438532594869475,-0.6747939632704876,0.24751691873923384
-9505.27297782898,-888.0,120.0,15940.0,-269.0,237.0,683.0,-0.24753958111069244,0.6032786514367935,-0.7227718054072121,0.2288666463522935
-9505.288562059402,-1152.0,312.0,15968.0,-443.0,423.0,827.0,-0.2132291811169508,0.5499935635526628,-0.7811578984055786,0.20453052126618457
-9505.304142951965,-1340.0,340.0,16080.0,-452.0,472.0,853.0,-0.1738482708433756,0.48965382628677384,-0.8352919317713721,0.17973118217254197
-9505.319766521454,-1376.0,480.0,16160.0,-479.0,403.0,1019.0,-0.1392528122706995,0.41404166019523536,-0.8876493512399497,0.1457970752133632
-9505.335330486298,-1392.0,600.0,16252.0,-385.0,316.0,522.0,-0.10731061338235831,0.37350756790423334,-0.9134436205091334,0.12081920842702581
-9505.350891590118,-1520.0,528.0,16180.0,-344.0,290.0,346.0,-0.07654919945646457,0.3456551102091099,-0.9299265441325051,0.0994956650647595
-9505.366514205933,-1592.0,816.0,15872.0,-383.0,220.0,151.0,-0.0484235905653677,0.3337671008156013,-0.9384995291748518,0.07398183580100845
-9505.38216137886,-1504.0,720.0,16020.0,-488.0,165.0,-237.0,-0.019147190142031777,0.3537469474002624,-0.9342991782115844,0.03976842853092292
-9505.397785186768,-1500.0,660.0,16268.0,-525.0,145.0,-168.0,0.009453687406858076,0.3673683905029868,-0.9300259034174814,0.0017065831817740117
-9505.413381099701,-1464.0,568.0,16144.0,-623.0,153.0,-292.0,0.041814687774633034,0.3898008707414008,-0.9188903397449465,-0.044128863331980545
-9505.428976535797,-1440.0,440.0,16136.0,-739.0,194.0,-465.0,0.0804875462175506,0.4238604397235196,-0.8967817748609767,-0.09821675426554549
-9505.444581508636,-1440.0,424.0,16128.0,-826.0,233.0,-534.0,0.12423680991116388,0.4600699716308329,-0.8649391662555813,-0.1574200588991176
-9505.460148096085,-1456.0,492.0,15940.0,-820.0,188.0,-637.0,0.16193953411532805,0.49973806793200887,-0.822557088586919,-0.2178010256300574
-9505.475843906403,-1512.0,452.0,15808.0,-860.0,115.0,-776.0,0.19199146384282184,0.5426865143679726,-0.7667638615336763,-0.28408415228695205
-9505.491432189941,-1792.0,364.0,15800.0,-897.0,26.0,-915.0,0.2122336497412249,0.58587531711295,-0.6963691153299486,-0.35605764411103985
-9505.507013082504,-1512.0,280.0,15376.0,-1099.0,-202.0,-987.0,0.22362372017695806,0.6140340660976332,-0.610295475253362,-0.4477655975296648
-9505.5226085186,-1408.0,196.0,15332.0,-1448.0,-377.0,-894.0,0.24343484036919744,0.6115826849571473,-0.5072557270480542,-0.5562353147113012
-9505.538187980652,-1360.0,236.0,15248.0,-1769.0,-489.0,-746.0,0.2759318607227073,0.5746852235957305,-0.3861349875041233,-0.6667070371940138
-9505.553802013397,-1628.0,-316.0,15264.0,-1956.0,-735.0,-560.0,0.31121225122488905,0.4948265459263392,-0.25728484092548426,-0.7694791321173652
-9505.569401025772,-1920.0,-736.0,15060.0,-1979.0,-1097.0,-421.0,0.33705637084343115,0.3693099107325837,-0.1332136695647977,-0.8557203462286187
-9505.584990501404,-2048.0,-872.0,14872.0,-1860.0,-1443.0,-508.0,0.3349714826510498,0.207960124009242,-0.01981043021081494,-0.9187786673010429
-9505.60057926178,-2084.0,-1068.0,15068.0,-1610.0,-1901.0,-82.0,0.34621032789234296,0.008135484172767665,0.054069983705155554,-0.9365621493633379
-9505.616171598434,-2048.0,-1492.0,15576.0,-1523.0,-2470.0,172.0,0.36158762177696363,-0.23131653107586042,0.10072576410667544,-0.8975529926827921
-9505.631800413132,-1632.0,-2172.0,15988.0,-647.0,-3228.0,276.0,0.38299919761275714,-0.4822842584778809,0.05293840430645028,-0.7860731734399233
-9505.647419929504,-1276.0,-3280.0,16952.0,15.0,-4192.0,1051.0,0.4446283758566372,-0.7152113470380451,-0.041136543063623354,-0.5376672960817764
-9505.663012266159,-268.0,-4216.0,17608.0,1134.0,-4866.0,1630.0,0.5222255272070235,-0.822893056092559,-0.16490944683228306,-0.15143444559764205
-9505.678652763367,-200.0,-4852.0,18316.0,1552.0,-5779.0,2294.0,0.5070045114194824,-0.7518549166458661,-0.24791273716866702,0.3408810415163464
-9505.694235563278,-468.0,-4752.0,18804.0,2128.0,-6261.0,2185.0,0.3812998621478372,-0.4431012209245097,-0.27194170402998796,0.7644078968394529
-9505.709829807281,-464.0,-4300.0,20312.0,2033.0,-6864.0,2507.0,0.10820728659968223,0.01935444536862438,-0.22319858948805293,0.9685550981858239
-9505.725408554077,1452.0,-2636.0,22176.0,917.0,-6598.0,2701.0,-0.21192791193498925,0.4516383964449143,-0.17980602397311285,0.8478084174756241
-9505.74099445343,4080.0,-544.0,23728.0,-636.0,-5034.0,1995.0,-0.3734143420678335,0.7264386813833749,-0.19171730322507366,0.5441443254984248
-9505.756598234177,6568.0,320.0,23544.0,-1857.0,-2929.0,671.0,-0.3216575126750468,0.8742018935879223,-0.216888434843589,0.2920049667695588
-9505.772248268127,7224.0,-244.0,21656.0,-3199.0,-945.0,-789.0,-0.07219345214167977,0.9609437649040979,-0.2027865771949306,0.17393329258474086
-9505.787860870361,6440.0,-1496.0,19296.0,-3598.0,1012.0,-2775.0,0.26835274920066543,0.942518422972034,-0.0287269821746641,0.19702940097835994
-9505.80345082283,5064.0,-2712.0,17908.0,-3104.0,1942.0,-4427.0,0.540603428030784,0.7575499762353967,0.29284334519185923,0.21933705178094484
-9505.81908249855,3608.0,-3944.0,17116.0,-2441.0,2265.0,-5730.0,0.6525583340900335,0.39164151586834905,0.6335023316116383,0.13949673652311592
-9505.83467245102,3228.0,-4588.0,16720.0,-2199.0,2297.0,-6483.0,0.5750342520851544,-0.10164378533736537,0.8114030041322462,-0.025086145904156584
-9505.850247859955,3400.0,-4580.0,16264.0,-2273.0,1344.0,-6492.0,0.38004645283760424,-0.5737773214600782,0.7047525007012095,-0.17224456978100797
-9505.865839242935,4124.0,-5068.0,15840.0,-2471.0,556.0,-5988.0,0.11488241690099536,-0.8834101170252656,0.40040045593026186,-0.21463473697244528
-9505.88150525093,4168.0,-6096.0,15584.0,-2420.0,265.0,-5197.0,-0.15945059772187714,-0.9694991537752256,0.042573541554729546,-0.1812026249113004
-9505.897126436234,4228.0,-7128.0,15480.0,-2052.0,645.0,-4472.0,-0.37277013167801915,-0.869292028955107,-0.2866712221689237,-0.15229382030811847
-9505.91274523735,4312.0,-7480.0,15560.0,-1349.0,1297.0,-3659.0,-0.4624842148135922,-0.6744813594584314,-0.554015760962026,-0.15572341955219482
-9505.92841911316,4200.0,-7208.0,15528.0,-688.0,2754.0,-3024.0,-0.3864030926024399,-0.43534658790827296,-0.7840719739442183,-0.21539994916227692
-9505.944015741348,4064.0,-6324.0,14980.0,-33.0,3353.0,-2014.0,-0.18554446188591786,-0.22081141814363903,-0.9208765705143493,-0.26230118596489543
-9505.959611415863,3412.0,-5340.0,14548.0,563.0,4225.0,-1586.0,0.1195486269249823,-0.005291096886286834,-0.959888275500654,-0.25356385517354746
-9505.975275278091,3076.0,-3876.0,14296.0,1022.0,4216.0,-1439.0,0.4100428631877247,0.2036534383179967,-0.872292417089495,-0.17174418912509734
-9505.99087715149,2800.0,-3148.0,13656.0,1326.0,3666.0,-1500.0,0.6042807859926103,0.3948406622267643,-0.6898132654796097,-0.055706749149817214
-9506.006464481354,2068.0,-2664.0,13568.0,1478.0,2945.0,-1637.0,0.6881762500418428,0.5575877619762332,-0.46193123277055503,0.04613970918588315
-9506.022056102753,1980.0,-2412.0,13848.0,1386.0,2343.0,-1925.0,0.6942368666415062,0.6807012583707859,-0.21301934639783207,0.09645583397831677
-9506.037637233734,2008.0,-2516.0,14420.0,1235.0,1903.0,-2222.0,0.6505184779396065,0.7523765902412278,0.04312043044095794,0.09431757415618576
-9506.053244113922,2156.0,-2696.0,15000.0,1056.0,1779.0,-2491.0,0.5726344342878731,0.7585303959004107,0.30449513783617393,0.06327838649257261
-9506.068881750107,2492.0,-2924.0,15544.0,892.0,1893.0,-2722.0,0.4582311163784684,0.6899483874149465,0.5596703729854806,0.027650321668111526
-9506.084514379501,2500.0,-2832.0,15940.0,706.0,2037.0,-3028.0,0.30776210724123415,0.5377192489522433,0.7849301424187975,-0.005016589984923826
-9506.100088357925,2392.0,-3268.0,16284.0,585.0,2088.0,-3151.0,0.12888897712137848,0.32101326573514266,0.93777983111271,-0.03011815327805755
-9506.115712404251,2552.0,-3372.0,16584.0,600.0,2207.0,-3267.0,-0.07289255247717667,0.06244011383483352,0.9940680264334534,-0.05115336548414018
-9506.131312847137,2272.0,-3512.0,16804.0,721.0,2506.0,-3379.0,-0.28992644387820976,-0.2100684595492001,0.9308014548557039,-0.07363797309314422
-9506.1468937397,2152.0,-3472.0,16756.0,716.0,3322.0,-3552.0,-0.5234405968148381,-0.4552846322605531,0.7139957147904707,-0.09453023058442066
-9506.162459850311,2296.0,-3560.0,16188.0,516.0,3395.0,-3538.0,-0.6832035913343355,-0.6166209286890165,0.3802305292292984,-0.09184893974656824
-9506.178077697754,1848.0,-3500.0,15700.0,853.0,3472.0,-3519.0,-0.715257428136091,-0.6928409609951226,-0.02117772292902422,-0.08904896582802801
-9506.193655729294,1524.0,-3356.0,15580.0,828.0,3314.0,-3550.0,-0.6308850786954177,-0.6541925692157935,-0.4126790357542089,-0.060927114746165925
-9506.20926809311,884.0,-3256.0,15124.0,1023.0,3100.0,-3655.0,-0.4416115800708588,-0.5170040258101671,-0.7332707702137964,0.00016490441300816486
-9506.224880933762,540.0,-3284.0,14920.0,687.0,2835.0,-3729.0,-0.21177112491327246,-0.28170366024389404,-0.9341976777064037,0.05541423486904603
-9506.240497589111,392.0,-2936.0,14788.0,656.0,2495.0,-3836.0,0.024443576110349457,0.006430751565633209,-0.9936228672874617,0.1098851883771499
-9506.256087779999,440.0,-2924.0,14764.0,672.0,1930.0,-3872.0,0.2135531290544069,0.30377067101927874,-0.916238655412721,0.15041664411579608
-9506.271726608276,780.0,-3080.0,14852.0,680.0,1301.0,-3776.0,0.32920976072244473,0.5669575888107473,-0.7381112567110648,0.15928527443359933
-9506.287316322327,968.0,-3356.0,15680.0,589.0,915.0,-3764.0,0.3892583025653023,0.7698797050550057,-0.48948247272960743,0.1271617966171686
-9506.302913188934,884.0,-3792.0,15656.0,460.0,613.0,-3602.0,0.4041977606849201,0.8878431983641871,-0.21083617604511323,0.06250385785230304
-9506.318514585495,836.0,-4008.0,15968.0,431.0,370.0,-3368.0,0.3795190752907819,0.9228521355824808,0.06286976690471244,-0.018883848935833326
-9506.334121465683,964.0,-4084.0,15872.0,435.0,187.0,-3307.0,0.3245226072181225,0.8826398388259517,0.32137256953912935,-0.11113803970498984
-9506.349712610245,1072.0,-3792.0,15768.0,417.0,52.0,-2681.0,0.2578216053942365,0.797653395039594,0.511220257062816,-0.18955455663838985
-9506.365349769592,1088.0,-3224.0,15344.0,324.0,-158.0,-2391.0,0.19840042814327558,0.6806148709729992,0.6543671564161967,-0.2630670867416781
-9506.380974292755,772.0,-3000.0,15472.0,206.0,-365.0,-2063.0,0.1570227016917408,0.5487481872506044,0.7532617685108539,-0.32682718100320673
-9506.396567821503,704.0,-2920.0,16016.0,155.0,-533.0,-1828.0,0.13069910347582686,0.4097843261902315,0.8177860829625944,-0.3823878565960614
-9506.41215133667,1016.0,-2984.0,16420.0,288.0,-510.0,-1590.0,0.1026212170976974,0.27947678779319934,0.8499540662148568,-0.43467194090602757
-9506.427777051926,1048.0,-3316.0,16532.0,542.0,208.0,-1338.0,0.023014415226612267,0.1913851025990286,0.8569369171375735,-0.47801799050003124
-9506.443352460861,1328.0,-3540.0,16168.0,895.0,319.0,-1083.0,-0.06052376014748032,0.12448137714646698,0.8317206755851533,-0.537663443992155
-9506.458940267563,828.0,-3424.0,15652.0,1123.0,103.0,-982.0,-0.12524735236996132,0.05163387137463268,0.782431403755636,-0.6078224596608516
-9506.474624156952,248.0,-3116.0,15580.0,1184.0,-478.0,-1017.0,-0.15039573844917592,-0.05557714672414618,0.7220342083799377,-0.6730222169791175
-9506.490218877792,436.0,-3296.0,15464.0,1192.0,-1026.0,-794.0,-0.1251412859401364,-0.1794237734154741,0.6538228166038219,-0.7243358976157722
-9506.505817174911,900.0,-3188.0,15836.0,1148.0,-1565.0,-450.0,-0.04562499917309779,-0.3118790139470177,0.5824205946053903,-0.7492903916969672
-9506.521431684494,1072.0,-2760.0,16468.0,938.0,-1590.0,-252.0,0.043687592633708354,-0.42675071733621844,0.5136803595507815,-0.7430395061601194
-9506.537019252777,1236.0,-2360.0,17212.0,600.0,-1426.0,269.0,0.1460718251768059,-0.5001355462779392,0.47481428694031336,-0.7092805158441515
-9506.5526201725,1436.0,-1896.0,17432.0,179.0,-1175.0,350.0,0.22298016299422296,-0.5527919358412193,0.46126217988915785,-0.6572199966403102
-9506.568251132965,1420.0,-1452.0,17496.0,-226.0,-999.0,358.0,0.2716563475721928,-0.5973431300218208,0.46989075118361157,-0.590412309993255
-9506.58390212059,1420.0,-1584.0,17188.0,-497.0,-926.0,318.0,0.29878736790179666,-0.6408114181711625,0.48784038977850736,-0.5119556516189016
-9506.599489927292,1288.0,-2136.0,16396.0,-454.0,-782.0,395.0,0.3231996684902775,-0.6682526709100722,0.5079066774870996,-0.43704822282368905
-9506.615104675293,1076.0,-2576.0,16220.0,-231.0,-659.0,526.0,0.3580257623078191,-0.6745833011488427,0.5272416294324334,-0.37252004983419035
-9506.630679368973,1024.0,-2968.0,16044.0,-22.0,-496.0,792.0,0.4040329881789165,-0.6527368021314175,0.5572061741857542,-0.31656482915153633
-9506.646250009537,1056.0,-2936.0,15952.0,69.0,-345.0,1040.0,0.45148438939306923,-0.606432875825976,0.5996040346576531,-0.26244240296504623
-9506.661832332611,972.0,-2636.0,15844.0,85.0,-332.0,1172.0,0.4974670260225871,-0.5462144925633938,0.6429293644697722,-0.20203494360246602
-9506.677452802658,1020.0,-2140.0,16056.0,-7.0,-429.0,1208.0,0.5392277191204313,-0.48323917605034317,0.6777433801210033,-0.12797373310378968
-9506.693058490753,1084.0,-1840.0,16040.0,-92.0,-629.0,1141.0,0.581621031878692,-0.4243141388377844,0.692752769704724,-0.04204862572247282
-9506.708632230759,1196.0,-1732.0,16336.0,-248.0,-859.0,925.0,0.6239412597755877,-0.3816940226970931,0.6799751973273275,0.05138782352489245
-9506.724243879318,1240.0,-1636.0,16272.0,-387.0,-940.0,533.0,0.6612312586582048,-0.36505942932544627,0.6415137463778419,0.13403338704267723
-9506.7398955822,1316.0,-1724.0,16568.0,-462.0,-988.0,232.0,0.6959258419862344,-0.3654096198781013,0.5836257678144379,0.20382344148625334
-9506.7554936409,1292.0,-1864.0,16608.0,-449.0,-949.0,-62.0,0.72808851632734,-0.37732305417768774,0.5137431053196078,0.2521556006017736
-9506.771085500717,1232.0,-1800.0,16508.0,-350.0,-818.0,-355.0,0.7585080730947397,-0.3960329439948906,0.4407012347424541,0.2713039476626188
-9506.786669015884,1176.0,-2128.0,16612.0,-239.0,-662.0,-594.0,0.7873393564849128,-0.41759654155500436,0.36935518299519726,0.26322350769983904
-9506.802253007889,1084.0,-2348.0,16348.0,-99.0,-596.0,-747.0,0.8173415952684858,-0.43316183568724753,0.2977132795801097,0.2359880164535402
-9506.817826032639,1028.0,-2364.0,16180.0,31.0,-592.0,-879.0,0.8484790376784146,-0.43958669093466823,0.22180499257908382,0.19403455630483077
-9506.833375692368,1096.0,-2448.0,16124.0,73.0,-589.0,-951.0,0.8747121056513156,-0.44035389564827265,0.14213136126248035,0.1441036257701588
-9506.84897685051,1072.0,-2356.0,16348.0,193.0,-589.0,-983.0,0.8972944126086007,-0.4280199016297004,0.06139488151419074,0.08883900851622768
-9506.864556312561,1184.0,-2644.0,16180.0,224.0,-560.0,-961.0,0.9117508438558248,-0.4090685687031108,-0.016614454572052087,0.03312498644004106
-9506.88016653061,1344.0,-2532.0,16264.0,303.0,-466.0,-860.0,0.9208032200182054,-0.38061256783931713,-0.08321778091531681,-0.018174271550625457
-9506.895800828934,1448.0,-2544.0,16272.0,272.0,-394.0,-728.0,0.9232507358349589,-0.35283393029733057,-0.13906790093885346,-0.061452545428213226
-9506.911448001862,1504.0,-2568.0,16344.0,275.0,-383.0,-551.0,0.9223649552479304,-0.32516220932749385,-0.1879180612788342,-0.09054959525558741
-9506.927127838135,1448.0,-2784.0,16288.0,291.0,-267.0,-383.0,0.9222513179505627,-0.2970172629994757,-0.22219665561764454,-0.10891234205123147
-9506.942776203156,1536.0,-2728.0,16148.0,285.0,-626.0,-269.0,0.9131494032185818,-0.274060675890499,-0.2815270605227619,-0.10858833973039504
-9506.95838189125,1772.0,-2728.0,16344.0,10.0,-690.0,-93.0,0.8940139843266381,-0.2768668310768931,-0.33803725432686077,-0.09906850339540832
-9506.97405719757,1596.0,-2572.0,16304.0,223.0,-734.0,17.0,0.8760455278217688,-0.26560411914426024,-0.39576718461027244,-0.07325995265312961
-9506.989667415619,1744.0,-2804.0,16596.0,252.0,-755.0,75.0,0.854327169530045,-0.2530505695344449,-0.4520975101162826,-0.04121089671109759
-9507.005252838135,1580.0,-2404.0,16608.0,223.0,-685.0,117.0,0.8310769737908732,-0.2429393900087008,-0.5002186826947806,-0.008531465284621814
-9507.02088046074,1552.0,-2540.0,16504.0,241.0,-442.0,89.0,0.816259564190915,-0.22938808487253684,-0.5298906077303862,0.017814999985662206
-9507.036524534225,1848.0,-2272.0,16616.0,2.0,-247.0,46.0,0.8047263861177482,-0.23088354925996063,-0.5462829730060574,0.026137015335638197
-9507.052129030228,1780.0,-2152.0,16616.0,256.0,-135.0,49.0,0.8031865478045438,-0.2148103215635359,-0.5538656642594492,0.04450529328100871
-9507.067738294601,1720.0,-2080.0,16324.0,235.0,-152.0,-253.0,0.800906855422411,-0.1853676564699451,-0.5678981567357432,0.04097223997258104
-9507.083333730698,1608.0,-2064.0,16236.0,265.0,-173.0,-99.0,0.7967529997203253,-0.1612134342041864,-0.5802557057299851,0.04998201713169342
-9507.098932981491,1624.0,-2196.0,16328.0,497.0,-212.0,-190.0,0.7929608303078926,-0.11592915254925229,-0.5946145411475832,0.06486216649541464
-9507.114558696747,1612.0,-2172.0,16280.0,305.0,-272.0,-201.0,0.782563641851269,-0.08276747616898318,-0.6131178586333932,0.06949951629973913
-9507.130172252655,1620.0,-2248.0,16264.0,313.0,-252.0,-274.0,0.7724184156356718,-0.04515058765143791,-0.6297035173415755,0.06931591353546829
-9507.14580988884,1644.0,-2212.0,16364.0,325.0,-8.0,-332.0,0.7747420315026359,-0.004942947921837424,-0.6289289865973577,0.06479723533169782
-9507.161402463913,1616.0,-2240.0,16496.0,396.0,-254.0,-345.0,0.7620458333492705,0.04214301954431008,-0.6430463069800681,0.06325789166578061
-9507.177026033401,1648.0,-2252.0,16440.0,387.0,-148.0,-510.0,0.7540035340164545,0.09714436229708923,-0.6476851797556242,0.05045345864769192
-9507.19264960289,1640.0,-2140.0,16400.0,380.0,-58.0,-318.0,0.7483039887332623,0.14022006975837875,-0.6463978204247752,0.05049089257425657
-9507.208235502243,1632.0,-2144.0,16368.0,352.0,-241.0,-277.0,0.7310097574451161,0.179684351630822,-0.6564368629791272,0.049284005733771306
-9507.223855495453,1520.0,-2060.0,16416.0,308.0,-34.0,-274.0,0.7250452170020313,0.21499851821645488,-0.652451722661996,0.04890623746108176
-9507.239468097687,1392.0,-2152.0,16312.0,234.0,-29.0,-242.0,0.7198291552628087,0.24355796013399994,-0.6483631515645342,0.04637597419247757
-9507.255097866058,1388.0,-2120.0,16244.0,240.0,-79.0,-223.0,0.7109577057234572,0.27140792424102334,-0.647237935625355,0.04427114205716539
-9507.27070426941,1332.0,-2232.0,16308.0,242.0,-106.0,-223.0,0.6998846825654802,0.2992433555281354,-0.6472128931731059,0.041597069523906835
-9507.286318540573,1300.0,-2132.0,16248.0,255.0,-123.0,-219.0,0.6868398523699805,0.32742595722880513,-0.647680326604753,0.039413884080924395
-9507.301934719086,1356.0,-2180.0,16152.0,243.0,-85.0,-175.0,0.6755449626298927,0.3519950236634923,-0.6466215309582217,0.0402380725527411
-9507.317538261414,1432.0,-2192.0,16484.0,241.0,-32.0,-213.0,0.6669182814845518,0.37813463060455466,-0.6407884415385152,0.040303599713797225
-9507.333139181137,1376.0,-2184.0,16312.0,264.0,-43.0,-166.0,0.65623588268598,0.4027312622515114,-0.6365741372588072,0.04399277729198927
-9507.348743200302,1400.0,-2256.0,16332.0,261.0,-87.0,-43.0,0.642300617732693,0.4202246872108784,-0.6387911042005436,0.052981637507448234
-9507.364342689514,1480.0,-2164.0,16328.0,275.0,-65.0,12.0,0.6284390790833416,0.4350866389367366,-0.641348011178149,0.0666083257367129
-9507.379992485046,1568.0,-2160.0,16172.0,239.0,-48.0,55.0,0.6163038176172463,0.4452371758802973,-0.6444700482450286,0.08119001490082124
-9507.395595550537,1296.0,-2068.0,16360.0,2.0,-53.0,83.0,0.612726468277364,0.44098234371437484,-0.650453566527332,0.0837317466460548
-9507.411257743835,1500.0,-2084.0,16488.0,233.0,-24.0,115.0,0.6014912594392264,0.44692299363852583,-0.6542364175853002,0.10219008014745927
-9507.426859378815,1428.0,-2140.0,16460.0,186.0,14.0,140.0,0.5937534081607905,0.448425388376982,-0.657114424173478,0.12071534657845788
-9507.442451238632,1436.0,-2108.0,16620.0,207.0,45.0,177.0,0.5862860886833261,0.44834723984503166,-0.6592848125785085,0.14351623825570986
-9507.458038806915,1352.0,-2196.0,16404.0,182.0,31.0,219.0,0.578110645122564,0.44448131127993545,-0.6637292536137259,0.16639688643784292
-9507.473618507385,1376.0,-2160.0,16436.0,214.0,46.0,293.0,0.5680137759114962,0.43736481379165093,-0.6692737235997488,0.19530758544072552
-9507.489228487015,1028.0,-2208.0,16520.0,187.0,72.0,301.0,0.5597538481568864,0.4275634673030103,-0.6736181972226993,0.22383841330706788
-9507.504810094833,1256.0,-2248.0,16344.0,178.0,73.0,396.0,0.5493419745655234,0.41119708944563604,-0.6807951060538241,0.2562388967058903
-9507.52039551735,1244.0,-2140.0,16624.0,188.0,89.0,419.0,0.5381430739464338,0.3929463610557925,-0.6867311603624108,0.29050904062316296
-9507.536003112793,1260.0,-2068.0,16324.0,193.0,80.0,468.0,0.5240052652496988,0.37151068516046787,-0.6933765981161293,0.3265381845773874
-9507.551570892334,1208.0,-2068.0,16308.0,219.0,47.0,476.0,0.5057233355335196,0.3509623258524236,-0.6996190213924769,0.3627706970455872
-9507.567200422287,1236.0,-2084.0,16280.0,185.0,66.0,459.0,0.48916034565356364,0.32865101618903875,-0.7041725600394237,0.39604503719340134
-9507.582805871964,1288.0,-2084.0,16636.0,227.0,47.0,451.0,0.4695566215397703,0.3086513486647655,-0.7064927384243224,0.43025449990590475
-9507.598440170288,1268.0,-2152.0,16468.0,217.0,55.0,431.0,0.45057753834062997,0.2885983830354268,-0.7069899467554173,0.4624457486441056
-9507.614033937454,1196.0,-2132.0,16252.0,231.0,37.0,370.0,0.4318549381017009,0.27311558840300926,-0.7049368279599313,0.4919077722441925
-9507.629621267319,1252.0,-2100.0,16204.0,226.0,84.0,328.0,0.41735020607763124,0.25764182757485504,-0.6993602634434553,0.519937223217523
-9507.645212650299,1340.0,-2084.0,16268.0,244.0,6.0,254.0,0.40057177078412803,0.25059455832441235,-0.6933635950534719,0.5440510535267677
-9507.660807847977,1320.0,-2140.0,16392.0,204.0,-18.0,204.0,0.38526661986203287,0.24611745563582607,-0.6884566155715341,0.5630482378333316
-9507.676402568817,1396.0,-2096.0,16188.0,171.0,-64.0,143.0,0.37069835098374715,0.24633024126334507,-0.6850423867214585,0.5767331039675464
-9507.692042589188,1332.0,-2136.0,16156.0,124.0,-28.0,138.0,0.35941539797187394,0.2434274867706962,-0.6824866823464792,0.5880268351061181
-9507.707634210587,1352.0,-2188.0,16440.0,164.0,-25.0,110.0,0.34879378223832114,0.24322592301239457,-0.6769915165821133,0.6007216779195717
-9507.723258018494,1352.0,-2148.0,16388.0,174.0,43.0,85.0,0.3431817087235257,0.24116867264818806,-0.6681635118324607,0.6145091598881383
-9507.738832712173,1440.0,-2064.0,16408.0,221.0,123.0,39.0,0.34357446004181075,0.23881530830474865,-0.6531786754898294,0.6310954419195548
-9507.754453420639,1388.0,-2032.0,16768.0,215.0,184.0,-48.0,0.3521654550943857,0.2377449846016377,-0.6345076771213979,0.6456445014161734
-9507.770042657852,1328.0,-1948.0,16360.0,175.0,248.0,-100.0,0.367810749800365,0.2345471940419881,-0.6145919752563634,0.6572515272320065
-9507.785649776459,1156.0,-1984.0,16404.0,136.0,251.0,-165.0,0.3878463366897887,0.23321597927032406,-0.5949856493798465,0.6642120167245827
-9507.801318645477,1184.0,-1976.0,16168.0,148.0,196.0,-289.0,0.41159397710353857,0.24168274405051343,-0.5734454653752606,0.6658379288391856
-9507.81691789627,1180.0,-1980.0,16236.0,106.0,132.0,-328.0,0.4348559401673907,0.2540419273010331,-0.5552051196763564,0.66189899951539
-9507.832518100739,1244.0,-2088.0,16412.0,143.0,143.0,-352.0,0.4587189936647965,0.26802740343717557,-0.5332437313420246,0.6583231112776738
-9507.848108053207,1188.0,-2120.0,16552.0,107.0,114.0,-367.0,0.48237503220777417,0.2825918838867294,-0.5135016098510338,0.6509779198592643
-9507.863721370697,1160.0,-2056.0,16620.0,141.0,181.0,-262.0,0.5017231890489057,0.2897651206778117,-0.4910471735134358,0.6505249340291539
-9507.879314661026,1084.0,-2068.0,16460.0,122.0,189.0,-537.0,0.5365969474110707,0.30690005780375834,-0.4615317661760377,0.6362896348044635
-9507.894903182983,1040.0,-2104.0,16400.0,138.0,227.0,-583.0,0.5735892805908677,0.3236270248853752,-0.42681977122022924,0.6197465359730564
-9507.91048836708,808.0,-2256.0,16316.0,176.0,232.0,-605.0,0.6090057628940378,0.34171605911038067,-0.3878024466377408,0.6016239507281137
-9507.926187992096,948.0,-2104.0,16308.0,129.0,199.0,-627.0,0.6437849433598691,0.3585937083840275,-0.3510278506462483,0.5776945101705541
-9507.941811084747,888.0,-2148.0,16180.0,154.0,188.0,-574.0,0.6727421531865124,0.3746465011429829,-0.3141568622925481,0.5553048355469243
-9507.95740556717,828.0,-2244.0,16232.0,210.0,176.0,-471.0,0.6928178093417741,0.3907537030907596,-0.2778285682461828,0.5386337468503062
-9507.97299337387,824.0,-2276.0,16356.0,253.0,135.0,-400.0,0.705690408956581,0.40885224435459455,-0.24381708460176044,0.5247800665509338
-9507.989427566528,920.0,-2064.0,16280.0,4.0,52.0,-329.0,0.7214941967429939,0.41335945301960975,-0.22852075654589982,0.5063184279612987
-9508.005099534988,864.0,-2140.0,16324.0,215.0,81.0,-209.0,0.724400081913135,0.4271444676499865,-0.20623506468588598,0.5002591560124227
-9508.020725488663,980.0,-2040.0,16416.0,223.0,90.0,-205.0,0.7264592220290301,0.44064832017509753,-0.18303779122565306,0.49455355992963496
-9508.036347866058,1276.0,-2040.0,16556.0,264.0,104.0,-201.0,0.7263874860406341,0.45570919168694274,-0.15719990897000313,0.4898760469296532
-9508.051981687546,1040.0,-1944.0,16460.0,209.0,146.0,-118.0,0.7249842690531558,0.4640062629085688,-0.13423730530368422,0.49099525809511757
-9508.067673683167,1108.0,-1988.0,16496.0,206.0,221.0,-132.0,0.7246658704815537,0.4687308043604737,-0.10600880367813446,0.49387543241745296
-9508.083308935165,1036.0,-1988.0,16448.0,138.0,266.0,-163.0,0.7282624337686909,0.46709926498579524,-0.07651710697231817,0.49557767963420196
-9508.098929405212,1252.0,-2040.0,16364.0,148.0,4.0,-165.0,0.7293347923454877,0.4771503777171406,-0.06312195949477899,0.4862241211090764
-9508.114546775818,1012.0,-2088.0,16372.0,184.0,217.0,-198.0,0.7310152846470884,0.480332018262886,-0.03323955994546696,0.4835213930101444
-9508.13016819954,804.0,-2084.0,16308.0,242.0,153.0,-152.0,0.7275188332974041,0.48936987456615777,-0.0068994715202606235,0.4808179180910671
-9508.145805358887,1084.0,-2092.0,16168.0,179.0,147.0,-185.0,0.7275631413052376,0.4943259278781298,0.01782024147012467,0.47536953145466454
-9508.161396980286,1092.0,-1984.0,16484.0,165.0,192.0,-169.0,0.7269829406047718,0.4962153883549272,0.04410548966697743,0.4725683000484096
-9508.17699599266,1156.0,-1948.0,16284.0,136.0,198.0,-130.0,0.7255683369686075,0.4958555220718223,0.06785094636302993,0.47230725031184007
-9508.192692518234,1104.0,-2020.0,16312.0,202.0,158.0,-167.0,0.7226001892468061,0.5007901059864517,0.09333295193092901,0.4672763596956488
-9508.208302736282,1112.0,-2048.0,16472.0,243.0,199.0,-64.0,0.7127727125763632,0.5071095650049727,0.11849399054368719,0.46984478659663026
-9508.223939418793,1188.0,-2060.0,16560.0,338.0,267.0,-2.0,0.6947257300597975,0.5166396920821529,0.14889214659868574,0.4777768487896575
-9508.239542722702,1240.0,-1996.0,16456.0,384.0,301.0,169.0,0.6658565908751101,0.5288792075947122,0.1752962924070385,0.4961783893223403
-9508.255141496658,1200.0,-1880.0,16636.0,432.0,351.0,194.0,0.6313868675105592,0.5408949768652144,0.2051143794996387,0.5164410313478791
-9508.270731449127,1248.0,-1928.0,16384.0,450.0,346.0,504.0,0.5800308524441872,0.5577662817903004,0.22012231800379717,0.5513684341956184
-9508.2863676548,1176.0,-1912.0,16376.0,439.0,186.0,351.0,0.5375441874314965,0.5768915117763078,0.23320158888195677,0.5690865040940518
-9508.30200099945,1292.0,-2000.0,16256.0,433.0,106.0,460.0,0.4900307567548162,0.6002545716258988,0.2360874134297309,0.5863676661417905
-9508.317586898804,1364.0,-1924.0,16352.0,375.0,140.0,617.0,0.43507839609400256,0.6204585177064059,0.22841064282782714,0.6112009451079232
-9508.333191394806,1348.0,-1908.0,16396.0,301.0,304.0,727.0,0.37296711968826535,0.6283581591857742,0.21599931092250776,0.6476155102351288
-9508.348764657974,1396.0,-1756.0,16400.0,286.0,452.0,723.0,0.30698052197436876,0.6237212484165443,0.20653620958667418,0.6885329022868992
-9508.364361047745,1368.0,-1640.0,16284.0,178.0,511.0,668.0,0.24726195179948823,0.6079976912919889,0.19395774364109655,0.7290958292690843
-9508.379987239838,1312.0,-1440.0,15908.0,30.0,598.0,599.0,0.1969058730348071,0.5790231594612992,0.17644525188300392,0.7712504982557863
-9508.39558005333,1336.0,-1384.0,16152.0,-109.0,449.0,457.0,0.16448163050316172,0.5529339124814462,0.15341941885318877,0.8022919441037232
-9508.411214828491,1504.0,-1472.0,16272.0,-170.0,355.0,390.0,0.14046279743459295,0.5300847378193368,0.12757505112188725,0.8264411531374157
-9508.426813602448,1696.0,-1584.0,16200.0,-227.0,272.0,291.0,0.12684480381868318,0.5103492871163237,0.10092427058595647,0.8445521253840715
-9508.44244647026,1740.0,-1680.0,16144.0,-327.0,511.0,183.0,0.12322903927516592,0.4697759091272708,0.07414695661520103,0.8709922088673753
-9508.45804309845,1784.0,-1772.0,16244.0,-496.0,224.0,102.0,0.13420241019654905,0.44735548800983593,0.034559857770962356,0.8835544107047226
-9508.473631381989,1924.0,-2004.0,16308.0,-528.0,186.0,59.0,0.14952254856845146,0.42628220305906916,-0.006334541369466016,0.8921246350204326
-9508.489267587662,2144.0,-2176.0,16444.0,-496.0,198.0,228.0,0.15013446413301731,0.4035261784712627,-0.0508348716172489,0.901133775748933
-9508.504891872406,2304.0,-2320.0,16632.0,-363.0,293.0,441.0,0.12932350100208007,0.37294910950793103,-0.09095778579132002,0.9142817262801147
-9508.520523309708,2212.0,-2108.0,16580.0,-266.0,398.0,675.0,0.08704347703743176,0.33172025564311325,-0.12931442225454787,0.9304100629820563
-9508.536136388779,2148.0,-2460.0,16288.0,-199.0,330.0,1022.0,0.013462786871175086,0.29030893811327757,-0.17173535510756782,0.9413003992495063
-9508.551771640778,1920.0,-2556.0,15812.0,-233.0,131.0,1416.0,-0.09427743486317501,0.25579213432595704,-0.2247395744498979,0.9355074948757333
-9508.567321777344,1732.0,-2740.0,15472.0,-318.0,-2.0,1940.0,-0.24210432535486853,0.21714036475715184,-0.28961796762406306,0.9001983061897542
-9508.582920312881,1252.0,-2756.0,15196.0,-439.0,-713.0,2430.0,-0.4320313890841201,0.21551412667663525,-0.3462983205728859,0.8043506780113086
-9508.59850692749,676.0,-2876.0,15152.0,-260.0,-1108.0,2801.0,-0.6355742560498845,0.21110800416146963,-0.36284075573352687,0.6479393193844003
-9508.61414384842,-64.0,-3064.0,14748.0,-516.0,-1653.0,3048.0,-0.8136329524532739,0.2262366424862677,-0.34069254240987845,0.4132154302842554
-9508.62973332405,-624.0,-2612.0,14364.0,-507.0,-2263.0,3080.0,-0.9307884159828865,0.2389894607963924,-0.2453618162757584,0.12772838922565224
-9508.645364999771,-748.0,-2260.0,14196.0,20.0,-2656.0,3017.0,-0.9641593212770219,0.19079815650104107,-0.08689825059356031,-0.16260861205426777
-9508.660968065262,-692.0,-2044.0,14540.0,911.0,-3033.0,2896.0,-0.9001729278255562,0.04577034870094788,0.10050805706077316,-0.42129788232986376
-9508.676570653915,-232.0,-1284.0,14988.0,1428.0,-3514.0,2619.0,-0.7225536403880323,-0.16018933657866496,0.290661962828961,-0.6064414535409871
-9508.692227840424,660.0,-732.0,16292.0,1554.0,-3818.0,2309.0,-0.4454509767946959,-0.37126994473159275,0.4449452570373035,-0.6824630199883795
-9508.707862615585,1744.0,-576.0,17584.0,1794.0,-3916.0,1586.0,-0.13070272816640802,-0.5686897654454957,0.5027873639053364,-0.6377410244170654
-9508.723457813263,2860.0,-684.0,18576.0,1390.0,-3402.0,679.0,0.11920686615812326,-0.7073993300049234,0.4733267874821427,-0.511211955279979
-9508.739094018936,3880.0,-1692.0,18928.0,833.0,-2410.0,-209.0,0.25463897050751505,-0.7952842444616602,0.3885637978350529,-0.38948702189151224
-9508.754682540894,4100.0,-2960.0,18564.0,285.0,-1670.0,-562.0,0.3082846025558943,-0.8544464237159787,0.29910364041967125,-0.2922651623331601
-9508.770269870758,3740.0,-3556.0,18092.0,-213.0,-1171.0,-1132.0,0.29117020669665566,-0.9102694168078931,0.186665175388718,-0.2275645223964937
-9508.785911798477,3076.0,-4000.0,17676.0,-666.0,-923.0,-1199.0,0.22717834497170322,-0.9551516570515185,0.08032107699589776,-0.17211576394355899
-9508.801534891129,2920.0,-3692.0,17312.0,-1268.0,-985.0,-1181.0,0.10902964654081986,-0.9885160044774417,-0.01835950931285522,-0.10301249188777725
-9508.817133426666,2960.0,-3108.0,16432.0,-1996.0,-892.0,-1102.0,-0.07287124370026742,-0.991380605335155,-0.10169859886612279,-0.03888022885150779
-9508.832736253738,3012.0,-2812.0,15852.0,-2632.0,-1040.0,-949.0,-0.30298568774769546,-0.9384106403768894,-0.1628402269852366,0.0326833829780355
-9508.848321437836,3156.0,-2972.0,15064.0,-2828.0,-1442.0,-753.0,-0.5318792062626114,-0.8163180181373025,-0.18701048612565224,0.12552482339716098
-9508.863949298859,3172.0,-3396.0,14748.0,-3209.0,-1663.0,-598.0,-0.7440754221756148,-0.6089039598722804,-0.1786420612278259,0.2089850418721649
-9508.879554271698,3144.0,-3924.0,14372.0,-2980.0,-1711.0,-431.0,-0.8819255913763343,-0.36114327668468754,-0.13854522099169825,0.2694216151709286
-9508.895198583603,2820.0,-4488.0,14148.0,-2447.0,-1629.0,-163.0,-0.9442782083104948,-0.12811050952421668,-0.07336816800469478,0.2941827231211959
-9508.910808324814,3092.0,-4808.0,13620.0,-1728.0,-1631.0,16.0,-0.9541323270545655,0.055183659670762775,0.0166161430038686,0.29378592540565274
-9508.926493406296,3196.0,-4992.0,13384.0,-942.0,-1744.0,888.0,-0.9528058125345507,0.17677356041128536,0.13114076032461935,0.20907963296641993
-9508.942163705826,3440.0,-4872.0,13256.0,-208.0,-2012.0,1460.0,-0.9314525168305945,0.2419311333387813,0.26560630203227137,0.05760926949810984
-9508.957793235779,3832.0,-4504.0,13512.0,455.0,-2384.0,1855.0,-0.865027054321826,0.25104685420704614,0.4080797860665304,-0.1489112503739922
-9508.973416805267,4140.0,-4212.0,14044.0,915.0,-2721.0,2068.0,-0.7275044067843894,0.21035769211193506,0.5313912083112922,-0.37961870766349026
-9508.98901629448,4400.0,-4036.0,14972.0,1262.0,-2981.0,2200.0,-0.510643446442483,0.1262487314353215,0.6040549230326373,-0.5986837047860497
-9509.004639863968,4500.0,-3968.0,15584.0,1284.0,-2992.0,2079.0,-0.24492788447047995,0.02106023000887653,0.6133384075344559,-0.7505882999114003
-9509.02023768425,4492.0,-3824.0,15684.0,1657.0,-2842.0,2006.0,0.033694881584015436,-0.08834830469726855,0.532388183570412,-0.8412027425102435
-9509.035856485367,4604.0,-3692.0,15644.0,1761.0,-2799.0,1912.0,0.30139001113018005,-0.18960075067243934,0.3883864405093775,-0.8499244609751229
-9509.051451206207,4548.0,-3684.0,15368.0,1835.0,-2653.0,1945.0,0.5376479718083212,-0.2585716105077071,0.2036914558965619,-0.7762635966246184
-9509.067050457,4512.0,-3760.0,15144.0,1902.0,-2723.0,1835.0,0.7150911673029531,-0.3047923988313395,-0.011194148111246006,-0.6289840277049975
-9509.082681417465,4248.0,-3340.0,15168.0,1763.0,-2878.0,1784.0,0.8132249090755187,-0.3360686899815783,-0.22787141912348607,-0.4168905122689032
-9509.098280906677,4172.0,-3192.0,15108.0,1501.0,-3041.0,1664.0,0.8143279774546073,-0.35434942355271803,-0.4268025067570822,-0.17072214674264094
-9509.113866329193,4140.0,-3244.0,15164.0,1218.0,-3217.0,1552.0,0.7174995178523249,-0.35469588225932336,-0.5940953695526878,0.08022446550782869
-9509.129505634308,4144.0,-3460.0,15568.0,921.0,-3232.0,1550.0,0.5401953829853919,-0.3375327704622448,-0.7060626507431123,0.3094125244571673
-9509.145141124725,5072.0,-3688.0,15880.0,733.0,-3069.0,1563.0,0.31594426986770824,-0.3024035686355489,-0.7502266606922098,0.4958742356695514
-9509.160737514496,5572.0,-4124.0,16420.0,662.0,-1887.0,1851.0,0.12627612798232976,-0.31485409138165277,-0.7050210223101299,0.6227893694844215
-9509.176344394684,6096.0,-4412.0,16836.0,764.0,-584.0,2052.0,-0.00016059234357675207,-0.39328415369184605,-0.6018015983220532,0.6950988310463554
-9509.191969394684,5884.0,-4536.0,16916.0,894.0,565.0,2603.0,-0.09487498687700192,-0.5479969547506415,-0.4449610205233938,0.7019314529666641
-9509.20755982399,5248.0,-4356.0,16380.0,1009.0,1305.0,2712.0,-0.15618674127433305,-0.7146420993108843,-0.25459389323509757,0.6325142854276355
-9509.223145961761,4504.0,-3984.0,15700.0,1054.0,1384.0,2715.0,-0.20174280407436204,-0.8333250778206741,-0.044176184401794924,0.512754932117751
-9509.23877620697,3948.0,-3976.0,15264.0,1324.0,1073.0,2498.0,-0.20605866322754737,-0.8839893183608913,0.17200945886415292,0.38277337733178873
-9509.254359722137,3592.0,-3944.0,15052.0,1683.0,683.0,2129.0,-0.15309664781001098,-0.8792452501773574,0.3693837813365973,0.2589301615404635
-9509.269965171814,3756.0,-3604.0,14924.0,2059.0,554.0,1572.0,-0.04722652544912256,-0.846258430489784,0.5155716598672979,0.12570675264539277
-9509.28558921814,4280.0,-3720.0,15612.0,2438.0,753.0,953.0,0.08612684268629252,-0.7993936440957996,0.5930885634756645,-0.0424019412586409
-9509.301199913025,5116.0,-3788.0,15572.0,2731.0,949.0,332.0,0.22176701814645894,-0.7348103853309155,0.5943923547665817,-0.23993919202018182
-9509.316777467728,3300.0,-3804.0,17916.0,3177.0,1278.0,385.0,0.3517667847442681,-0.5999752873006395,0.5527859172583622,-0.459039773287703
-9509.332355976105,1896.0,-3448.0,21200.0,3390.0,2550.0,-1011.0,0.34186377653245337,-0.4134732223030795,0.4132980942098285,-0.7357674483529432
-9509.347984790802,2456.0,-296.0,23900.0,2399.0,2532.0,-2651.0,0.15586163440351644,-0.25666578139829027,0.22320401360786493,-0.9273671311242434
-9509.363560438156,3456.0,1628.0,23180.0,-441.0,3127.0,-4301.0,-0.23847934607565838,-0.08448710773421014,0.18571591561932868,-0.9494730795592409
-9509.379163265228,2644.0,1048.0,21808.0,-1563.0,3009.0,-5866.0,-0.6756159108969513,0.08809061572047398,0.17994535212378054,-0.7095088826885251
-9509.394790172577,3888.0,108.0,19412.0,-2393.0,3265.0,-7232.0,-0.9369862733553669,0.25729795865577365,0.15479054466855546,-0.17858995295482108
-9509.410432100296,5704.0,-2252.0,16568.0,-2625.0,3261.0,-7252.0,-0.8358008598468913,0.34276526749801234,0.07420413273299184,0.42242471608744375
-9509.426038742065,5724.0,-5440.0,16060.0,-2292.0,3067.0,-5419.0,-0.5082802611154712,0.3128539013266993,-0.06223566916727638,0.7999377063674106
-9509.441642522812,5000.0,-7792.0,17816.0,-1090.0,2777.0,-3297.0,-0.21751226875511476,0.17243857140247057,-0.15997132639555348,0.9472922076977754
-9509.457287311554,3460.0,-8792.0,19276.0,-81.0,3878.0,-1041.0,-0.0718777181780452,-0.12490123535857628,-0.21211010412167333,0.9665622477445062
-9509.472892522812,1068.0,-6480.0,19268.0,966.0,5705.0,128.0,0.029917291242901548,-0.5483842423377172,-0.14722541226390945,0.8226204206218669
-9509.488553762436,-828.0,-2872.0,18308.0,1710.0,5970.0,1061.0,0.09843398541163498,-0.8641025942895777,0.036769710994142266,0.4922249947040587
-9509.504153966904,-2176.0,408.0,17632.0,1575.0,5118.0,1608.0,0.11838679323456378,-0.9573634431773038,0.24239454067042232,0.10336678145569238
-9509.5197930336,-1976.0,2752.0,17444.0,743.0,3956.0,2044.0,0.07288357290288026,-0.8765252628874083,0.4287212994467899,-0.20637222613938722
-9509.535413742065,-2260.0,2976.0,16048.0,-547.0,3905.0,1806.0,-0.07722761245616604,-0.693986600299779,0.5626312671624262,-0.44256587271261394
-9509.551002502441,-2624.0,1988.0,13836.0,-911.0,3824.0,1939.0,-0.22912993283196403,-0.4154735434940538,0.6439554534229837,-0.6001687950432893
-9509.56661939621,-2848.0,772.0,13116.0,-1153.0,2677.0,2182.0,-0.29270370380816385,-0.12337598071129184,0.6955971519388449,-0.6443970137850401
-9509.582221269608,-2852.0,-208.0,13544.0,-1228.0,2028.0,2636.0,-0.2682618863428876,0.17402683529091664,0.7080150642334527,-0.6296545797124672
-9509.597829341888,-2480.0,-820.0,14388.0,-1088.0,1199.0,2917.0,-0.15892862557540968,0.42790902053628466,0.6675971933532133,-0.5881747610560156
-9509.613431930542,-1916.0,-1052.0,15892.0,-701.0,852.0,3204.0,-0.01717182233336919,0.640626779268329,0.5485289269134428,-0.5370460637051779
-9509.629025697708,-1196.0,-1428.0,16808.0,-90.0,590.0,3317.0,0.11042981068285855,0.79357731703537,0.3514390990819777,-0.4842838614242058
-9509.64469218254,-304.0,-1200.0,17456.0,519.0,657.0,3144.0,0.18012263466879558,0.8876621119307135,0.11352723615413689,-0.4083177416839486
-9509.660291671753,92.0,-1008.0,17544.0,1634.0,778.0,2721.0,0.1373305351976315,0.9308883608345221,-0.13783128340160988,-0.30917587402805813
-9509.675928592682,144.0,-248.0,16916.0,2342.0,1546.0,2436.0,0.029853385638445563,0.9239731961837293,-0.36189649277786407,-0.12005513989424658
-9509.691534280777,-228.0,52.0,16168.0,2651.0,1821.0,2237.0,-0.09745342667496862,0.831988329685733,-0.5349500215335858,0.11012140281192716
-9509.707124710083,-488.0,264.0,15296.0,2672.0,1670.0,2025.0,-0.22147381105858416,0.6640375822939768,-0.6373354946556101,0.32219079373632803
-9509.722724676132,-928.0,512.0,14880.0,2452.0,1063.0,1915.0,-0.3444547624597829,0.46153232505670055,-0.6727443374904969,0.4644931494877005
-9509.738319396973,-1004.0,584.0,14884.0,1952.0,548.0,1776.0,-0.4506713708523226,0.2689326124922031,-0.6634489855621982,0.5332972988762431
-9509.75397825241,-440.0,256.0,15280.0,1461.0,283.0,1667.0,-0.5361386433448343,0.0998156660279784,-0.6336571730600814,0.5486991661714623
-9509.769572019577,-252.0,296.0,15416.0,1087.0,-40.0,1296.0,-0.6034197020454851,-0.02062486135782788,-0.5845369024126612,0.5420109666742169
-9509.785162210464,212.0,448.0,15336.0,870.0,-223.0,1007.0,-0.6564121658024601,-0.10653999710497072,-0.5260223706996306,0.5301629590295204
-9509.800758123398,-280.0,784.0,15456.0,668.0,-245.0,25.0,-0.6614129472830853,-0.1343400918992012,-0.4797382509977479,0.560657527733677
-9509.816342115402,-16.0,1172.0,15600.0,552.0,-355.0,-524.0,-0.6425185738183115,-0.12651596099617135,-0.4370125778005651,0.6165903021908495
-9509.831980705261,120.0,1380.0,15480.0,350.0,-404.0,-1768.0,-0.5518608557231496,-0.05619522981977204,-0.40954953431916835,0.7242657461215243
-9509.847583770752,-68.0,1652.0,15320.0,67.0,-424.0,-2930.0,-0.3693874517701998,0.06983626235254588,-0.38634255966213066,0.8422679107796153
-9509.863312721252,-416.0,1836.0,15252.0,-322.0,-615.0,-4212.0,-0.07360923359613897,0.2505852635082362,-0.3413655158146766,0.9029165471152231
-9509.87894487381,-492.0,1644.0,15356.0,-583.0,-893.0,-5132.0,0.28826081573422246,0.4342220017475003,-0.24475013435769927,0.8175905619822936
-9509.89463853836,-140.0,960.0,15904.0,-589.0,-1094.0,-6215.0,0.6394681458637433,0.5513523893487158,-0.06881696462029581,0.5313711119034389
-9509.910249948502,28.0,-208.0,16388.0,-503.0,-1209.0,-6625.0,0.8302737488196097,0.5332387284294847,0.1371713548323113,0.08652155764551474
-9509.926010608673,580.0,-960.0,16164.0,-477.0,-1183.0,-6722.0,0.7877191750222606,0.3665586152885329,0.3096475961354523,-0.38633100971516415
-9509.941642284393,148.0,-1216.0,15560.0,-685.0,-1159.0,-6836.0,0.5216248684727139,0.08155136357059413,0.4029837068428691,-0.7475700660873076
-9509.957338809967,-160.0,-1476.0,15212.0,-1044.0,-1768.0,-6757.0,0.12801742226398938,-0.2716234260578621,0.37326616719173117,-0.8777839269680591
-9509.972947359085,188.0,-1540.0,15404.0,-1533.0,-2586.0,-6635.0,-0.2805310559302283,-0.5932120877237402,0.2568467711533091,-0.7095290563361253
-9509.988582134247,1072.0,-1292.0,16084.0,-2188.0,-2840.0,-6007.0,-0.5993511191815056,-0.7255393484242519,0.12871470073574784,-0.31273537637832954
-9510.004183769226,1632.0,-1164.0,17404.0,-2585.0,-2349.0,-5683.0,-0.7707579694669501,-0.6206315591640127,-0.032625087854507386,0.1403004772455048
-9510.019856452942,2336.0,-1656.0,18884.0,-2999.0,-1559.0,-4970.0,-0.7764969849074985,-0.34133895988882235,-0.20693661575881972,0.4875626974552787
-9510.035451412201,2440.0,-2560.0,19804.0,-2441.0,-595.0,-4109.0,-0.631615662249081,-0.07020049624870607,-0.3621029340686079,0.6819200911155175
-9510.05107331276,2304.0,-4108.0,20312.0,-1469.0,219.0,-3342.0,-0.4142241261341168,0.09859759700816745,-0.4590569974185931,0.7797201807787637
-9510.066660881042,1904.0,-5276.0,19224.0,179.0,968.0,-2623.0,-0.19280288483342523,0.12759209444714714,-0.4459480333304061,0.86468355865209
-9510.082278728485,976.0,-5300.0,17916.0,1148.0,1316.0,-1911.0,-0.009897454864903904,0.08123661829438598,-0.3511010709669157,0.9327543568384842
-9510.097991466522,508.0,-3700.0,16608.0,1439.0,1226.0,-1383.0,0.1274211892334283,0.022041186651710013,-0.22039278621026198,0.9668014513910295
-9510.113595485687,-88.0,-2244.0,15292.0,1259.0,1121.0,-1090.0,0.23494926451558729,-0.037081497793491604,-0.09781362009215853,0.9663624068378502
-9510.129189014435,-256.0,-816.0,14432.0,858.0,1176.0,-944.0,0.3236875781751875,-0.10926971492606707,-0.004040503195953588,0.9398245344046843
-9510.144788742065,-504.0,-4.0,14128.0,377.0,967.0,-876.0,0.39671428645243756,-0.17607751499573482,0.04556006458833801,0.8997437213741292
-9510.160388708115,-592.0,132.0,14220.0,-179.0,451.0,-959.0,0.4654600975742913,-0.22024173963966773,0.03217937339868638,0.8566241659060826
-9510.176014184952,-520.0,-248.0,14312.0,-514.0,-233.0,-1213.0,0.5432646462772567,-0.2252890088318311,-0.03881325264766954,0.8078378042798732
-9510.191625833511,-384.0,-800.0,14756.0,-1146.0,-1116.0,-1448.0,0.6083898799189342,-0.19236494294797318,-0.19749568556674693,0.7442129647616792
-9510.207263231277,72.0,-1496.0,15608.0,-1367.0,-1734.0,-1467.0,0.6341540494517415,-0.12357393937265426,-0.3924476276486816,0.6546472199779082
-9510.222860097885,508.0,-2304.0,16184.0,-1377.0,-1885.0,-1408.0,0.618025171389693,-0.04260823506987376,-0.5744256838591824,0.5350369702701687
-9510.238452911377,768.0,-2856.0,17000.0,-1266.0,-1778.0,-1289.0,0.5706633113978787,0.035894550502010916,-0.7167924758101852,0.39907832926703907
-9510.254046916962,1320.0,-3640.0,17448.0,-447.0,-1439.0,-963.0,0.5094948518412515,0.12251116521425998,-0.7913566575676421,0.3148978419558881
-9510.269633054733,1364.0,-3676.0,17468.0,-255.0,-979.0,-573.0,0.458072133704116,0.17673457681328913,-0.8314461474548337,0.26006174952287986
-9510.285242080688,1504.0,-3132.0,17068.0,342.0,-452.0,-142.0,0.42273701837597866,0.21068410174724264,-0.838424662541457,0.2719369555757162
-9510.300867557526,1092.0,-2428.0,16868.0,474.0,-95.0,233.0,0.40116158894960463,0.21312563157684494,-0.834001115964572,0.3131916079435207
-9510.316455841064,880.0,-2228.0,16192.0,421.0,-27.0,437.0,0.37894531380559016,0.19649711110401008,-0.8303505962938101,0.3581999744654862
-9510.332099437714,860.0,-1736.0,16204.0,268.0,-114.0,579.0,0.3474844397278305,0.16667575622781525,-0.8342868376530512,0.3942578204066384
-9510.347744703293,984.0,-1732.0,16220.0,-8.0,-147.0,672.0,0.3132591433575901,0.12231796509705715,-0.8472192407196167,0.41125002452505727
-9510.36333489418,1076.0,-1860.0,16436.0,-81.0,52.0,692.0,0.29263504163695897,0.06692393289060297,-0.8544532539080834,0.4240230612814326
-9510.378940820694,1208.0,-1864.0,16792.0,-108.0,274.0,627.0,0.2900147688430596,0.007237857218275033,-0.8535010350207585,0.4328683754841518
-9510.394647836685,1500.0,-2168.0,16832.0,-81.0,477.0,574.0,0.30331534812927374,-0.05548434581550192,-0.8429827568720881,0.44079627785971254
-9510.410233020782,1132.0,-1820.0,16816.0,-64.0,652.0,410.0,0.33449879967872526,-0.11217846136318872,-0.8242623999189017,0.442852167093729
-9510.425812959671,1016.0,-2072.0,16824.0,52.0,743.0,7.0,0.38743513246642014,-0.13958338773555615,-0.7987357918519693,0.438670298531369
-9510.4413895607,916.0,-2048.0,16348.0,59.0,718.0,103.0,0.4334598741875623,-0.17190565932377116,-0.7693140336784821,0.43671146005927736
-9510.456976413727,788.0,-2060.0,16252.0,27.0,532.0,104.0,0.46517338585857776,-0.19791115097166917,-0.7456775692558433,0.4340620463927168
-9510.472559452057,832.0,-2100.0,16076.0,-98.0,394.0,120.0,0.4843225733144224,-0.2244570475680192,-0.7307355279310896,0.42553057116312515
-9510.488144636154,912.0,-2284.0,16080.0,-205.0,200.0,155.0,0.4871867642994942,-0.25031545515621,-0.7264794078611123,0.41499265000129343
-9510.503906965256,948.0,-2456.0,16244.0,-214.0,37.0,230.0,0.47642280953535965,-0.27521176723962865,-0.7272730827130984,0.4103092161873305
-9510.519516706467,884.0,-2496.0,16464.0,-229.0,65.0,229.0,0.4667298784858182,-0.3014492855316004,-0.7268902771616413,0.40363606596657536
-9510.535117387772,960.0,-2300.0,16460.0,-243.0,131.0,216.0,0.4608990436378567,-0.3294874416428167,-0.7240189864997328,0.39345470458653853
-9510.55070233345,1032.0,-2212.0,16396.0,-245.0,195.0,107.0,0.46238656147640517,-0.35262614763729705,-0.7211408087286291,0.3765758910959709
-9510.566293478012,928.0,-2072.0,16300.0,-4.0,151.0,62.0,0.46976007002191644,-0.3615848949114904,-0.7131294936619279,0.3742033747233354
-9510.581876039505,776.0,-2112.0,16272.0,-233.0,135.0,-49.0,0.47235384773541667,-0.37236007527524395,-0.7164805631305962,0.353391312183287
-9510.597532272339,1052.0,-2204.0,16236.0,-215.0,160.0,-81.0,0.47780878531151627,-0.3809482049199125,-0.7188702951045874,0.33136494785006004
-9510.61314368248,1016.0,-2332.0,16376.0,-183.0,185.0,-109.0,0.48641896997403195,-0.3869428706063361,-0.7197917765973565,0.309146565368518
-9510.628736019135,1096.0,-2412.0,16256.0,-156.0,204.0,-149.0,0.49790411257892625,-0.38954716613155493,-0.7200691848750438,0.286085422608802
-9510.644310235977,1056.0,-2468.0,16260.0,-199.0,139.0,-176.0,0.5041816374946293,-0.39044020944569474,-0.7246733360666249,0.26116254565941205
-9510.659934282303,996.0,-2404.0,16356.0,-202.0,128.0,-227.0,0.5104432394767626,-0.3876988210837122,-0.7310197045859269,0.23398186876309926
-9510.675531625748,948.0,-2484.0,16244.0,-137.0,79.0,-310.0,0.5170274674830716,-0.37543391890005334,-0.7403889911897996,0.2087010113352127
-9510.691145658493,1052.0,-2448.0,16260.0,-121.0,49.0,-506.0,0.5249890337615063,-0.3486958296307252,-0.7561202911519005,0.17629474789869773
-9510.706736803055,788.0,-2416.0,16284.0,-120.0,143.0,-292.0,0.5351111287280071,-0.3369465153767307,-0.7598950275816215,0.15060767823601642
-9510.722338438034,1020.0,-2392.0,16372.0,-114.0,186.0,-298.0,0.547818580319487,-0.32475921534956226,-0.7610148693077549,0.12362290966798678
-9510.737980365753,792.0,-2396.0,16280.0,-111.0,169.0,-258.0,0.5585445259407844,-0.3146031177892741,-0.7610718102429471,0.09910898280366053
-9510.753584861755,1048.0,-2312.0,16320.0,-95.0,67.0,-246.0,0.5624493190906128,-0.30336591751681624,-0.7651040979826125,0.07896583307924525
-9510.76918387413,1032.0,-2412.0,16296.0,-104.0,20.0,-496.0,0.5639913183629163,-0.2751952994877369,-0.7771496651757949,0.04711409415731226
-9510.784790754318,1068.0,-2360.0,16340.0,-43.0,42.0,-290.0,0.5669045583186622,-0.2577102047345072,-0.7819004858956301,0.028918891565867435
-9510.800390481949,1036.0,-2392.0,16336.0,-7.0,29.0,-233.0,0.5692888592645007,-0.24216236849579095,-0.7854952885417907,0.016270638600903265
-9510.816071510315,1024.0,-2408.0,16148.0,40.0,33.0,-280.0,0.5727120222956126,-0.22094241442108672,-0.7894085786125291,0.004414186312002808
-9510.831718683243,1084.0,-2388.0,16300.0,64.0,90.0,-257.0,0.5801685387473601,-0.19999796110882545,-0.7895392779404782,-0.005745501657295421
-9510.847312927246,1024.0,-2056.0,16312.0,85.0,88.0,-242.0,0.5875261801869687,-0.17891036001932098,-0.7890610279573645,-0.01366619301537824
-9510.862900972366,1092.0,-2548.0,16328.0,48.0,77.0,-261.0,0.5931915414504144,-0.15832724020291022,-0.7889453635401923,-0.024929771556215986
-9510.878494977951,1116.0,-2492.0,16268.0,70.0,89.0,-508.0,0.5986619673039915,-0.11939586638030643,-0.7906226191577904,-0.04758518751761051
-9510.894149065018,1200.0,-2500.0,16176.0,49.0,44.0,-196.0,0.6013946887848258,-0.10310847095141423,-0.7903671805818848,-0.05488890032152253
-9510.909772157669,1192.0,-2452.0,16332.0,88.0,54.0,-158.0,0.6051706808045527,-0.08731844189129517,-0.7891944901895795,-0.05758466336308859
-9510.925525188446,1204.0,-2524.0,16328.0,82.0,249.0,-121.0,0.6222402801811648,-0.07337894201882722,-0.7770511331255319,-0.060200507444620306
-9510.94118642807,1164.0,-2352.0,16236.0,132.0,45.0,-95.0,0.6256705956623284,-0.0595262345939613,-0.7757447013927111,-0.05668413693217065
-9510.956794261932,1184.0,-2796.0,16440.0,116.0,100.0,-174.0,0.6321541377299791,-0.04091232321710745,-0.7715219730631583,-0.058831734978467984
-9510.9724111557,1192.0,-2580.0,16376.0,151.0,159.0,-104.0,0.6428230016701367,-0.024762203540680736,-0.7636399303588786,-0.054949782175112344
-9510.988084077835,1192.0,-2492.0,16248.0,177.0,170.0,-51.0,0.6542369643138508,-0.010622993739692508,-0.7547925089818536,-0.046361782906635896
-9511.003774404526,1164.0,-2480.0,16276.0,192.0,177.0,-100.0,0.6655753979738076,0.007632425319018055,-0.7452420225065445,-0.03956593972234883
-9511.019374370575,1092.0,-2396.0,16240.0,201.0,123.0,237.0,0.6740768096341571,0.004300797886587221,-0.7385408600363386,-0.01262362498494637
-9511.034977912903,1036.0,-2356.0,16312.0,178.0,119.0,-52.0,0.6816010802626818,0.018240478805385024,-0.731484815507055,-0.004149337333272343
-9511.050617218018,1064.0,-2556.0,16336.0,162.0,114.0,-121.0,0.6885404150433665,0.035621699765247664,-0.7243221245552516,-0.0008069928808745928
-9511.066204071045,1056.0,-2256.0,16308.0,193.0,67.0,-71.0,0.6921523307598416,0.05168759949774555,-0.7198607624666664,0.007350220594585242
-9511.081812143326,1080.0,-2060.0,16168.0,182.0,40.0,-92.0,0.6938942486634369,0.06840776467676253,-0.7166945076556691,0.01342133003584487
-9511.097403764725,1072.0,-2376.0,16292.0,173.0,-50.0,-67.0,0.6898196856242287,0.08310055148576244,-0.7189207078204395,0.01990265145679486
-9511.113001585007,1044.0,-2400.0,16428.0,126.0,-75.0,-33.0,0.6843019722996524,0.09285480714551032,-0.7228201304754132,0.025295344952826714
-9511.128585100174,1088.0,-2416.0,16584.0,133.0,-74.0,10.0,0.6785764890160949,0.10029607807336213,-0.7268692239720218,0.03370128365511063
-9511.144164085388,1220.0,-2408.0,16288.0,113.0,-54.0,70.0,0.6740053576537013,0.10267119393258423,-0.7301983268444037,0.044562397424255815
-9511.159792423248,1104.0,-2396.0,16296.0,125.0,-71.0,70.0,0.6681245972096682,0.10580240810735483,-0.7343542105074041,0.05602915805319941
-9511.191066741943,1164.0,-2288.0,16152.0,147.0,-24.0,95.0,0.6647863899714295,0.1083637527548338,-0.7357347499124145,0.07078651403311656
-9511.206687450409,1240.0,-2404.0,16388.0,119.0,-8.0,75.0,0.6627343241434996,0.11046647775954205,-0.7360277250302899,0.08272581749487369
-9511.222284078598,1188.0,-2340.0,16384.0,120.0,81.0,111.0,0.6659950847763121,0.10965106757716757,-0.7313624230010805,0.09765345183335328
-9511.2379155159,1184.0,-2344.0,16324.0,109.0,68.0,90.0,0.6685630030715526,0.10962466181293197,-0.7271811585571175,0.11051473696243352
-9511.25352549553,1160.0,-2416.0,16360.0,153.0,12.0,26.0,0.6676482953010596,0.11674863458615946,-0.7250936776929828,0.12187973036367152
-9511.269166469574,1084.0,-2424.0,16328.0,153.0,-243.0,81.0,0.6497277041504704,0.1230533660805856,-0.7381125773057977,0.13379687133333557
-9511.2847366333,1116.0,-2380.0,16404.0,174.0,-21.0,100.0,0.6453353458646175,0.12667666662439736,-0.7381431810953704,0.15046580247063882
-9511.300342798233,996.0,-2384.0,16268.0,168.0,-36.0,79.0,0.6401298710971002,0.13147711734671494,-0.7386502732795902,0.16535806459738958
-9511.315979480743,1060.0,-2400.0,16324.0,106.0,-75.0,65.0,0.633184613907506,0.13425253984298868,-0.7419110488353132,0.17498998792100887
-9511.331579685211,1072.0,-2540.0,16240.0,119.0,-93.0,38.0,0.625224043817638,0.13974771123066743,-0.745525198949401,0.18373255010902784
-9511.347211360931,1152.0,-2312.0,16152.0,120.0,-100.0,-12.0,0.6174819277762056,0.1486401845036238,-0.7487584370044402,0.18969176955044012
-9511.362815856934,1120.0,-2280.0,16292.0,122.0,-78.0,7.0,0.6107296412968598,0.15600995106584392,-0.7508916601979382,0.19705815145541672
-9511.378448724747,1088.0,-2516.0,16368.0,108.0,-176.0,42.0,0.5969917865869422,0.16198578229418215,-0.7587814574566125,0.20399047257725464
-9511.394089460373,1100.0,-2336.0,16316.0,99.0,-139.0,20.0,0.5860542079076588,0.16824899947329308,-0.7643828171109623,0.20964648452924634
-9511.409682035446,1132.0,-2384.0,16280.0,70.0,-102.0,28.0,0.5777618465238687,0.17179049471655655,-0.7686099189156386,0.21428501387373275
-9511.42529630661,1056.0,-2448.0,16224.0,115.0,-93.0,43.0,0.5690296858942858,0.17640171882262146,-0.7716519786470395,0.22280232049416407
-9511.440903186798,1124.0,-2472.0,16160.0,119.0,-130.0,25.0,0.5579739273725166,0.18310777085072924,-0.7760155099943478,0.23007948381978524
-9511.456514596939,1116.0,-2552.0,16400.0,114.0,-121.0,17.0,0.5476406760161021,0.18989167341335886,-0.7797396660936073,0.23672113437783862
-9511.472089767456,1152.0,-2444.0,16416.0,156.0,-101.0,-26.0,0.5387291420706029,0.20115263670334196,-0.780741617632053,0.24444028867690937
-9511.48774933815,1156.0,-2348.0,16240.0,165.0,-44.0,22.0,0.532386044002768,0.20830143521760536,-0.7795222230751219,0.25597014663704165
-9511.503434419632,1188.0,-2356.0,16504.0,170.0,-31.0,-20.0,0.5276529263670117,0.2182033959872243,-0.776645265390702,0.26606728288569703
-9511.519043207169,1140.0,-2392.0,16496.0,156.0,-19.0,69.0,0.5218123747416347,0.22109933307119212,-0.7750588478375275,0.2794829384251106
-9511.534650087357,1176.0,-2420.0,16624.0,171.0,-25.0,-246.0,0.5227216234948664,0.2460291664273767,-0.7669480784907667,0.2793248977396433
-9511.550235509872,1192.0,-2320.0,16268.0,130.0,43.0,-19.0,0.5233126282168601,0.25213562658248134,-0.7612872357062339,0.2881202243983977
-9511.565841197968,1184.0,-2376.0,16380.0,140.0,9.0,-46.0,0.5220217263848965,0.26130806992418837,-0.7562137284815692,0.2955540671867525
-9511.581448078156,1232.0,-2356.0,16348.0,91.0,-56.0,-74.0,0.5182040641014316,0.27173432093857536,-0.7546155469265038,0.29695181950886285
-9511.59708070755,1176.0,-2400.0,16384.0,102.0,-63.0,-87.0,0.5139248507981029,0.28365523825612515,-0.7526304338850719,0.29827568377589353
-9511.612719297409,1152.0,-2456.0,16264.0,140.0,-61.0,-60.0,0.5080377271148908,0.2954015373645904,-0.7500962178850691,0.3033006156688233
-9511.628316402435,1156.0,-2452.0,16252.0,139.0,-20.0,-47.0,0.5044218213479842,0.30511236151304183,-0.7459665473815107,0.30983702681833514
-9511.643976688385,1088.0,-2392.0,16272.0,114.0,-64.0,-44.0,0.49844711871822933,0.314669933741475,-0.7444141164328538,0.3136573383425372
-9511.6595621109,1088.0,-2392.0,16348.0,90.0,-69.0,-75.0,0.4935842564049447,0.32529020662046093,-0.7427796258101351,0.31438716702077923
-9511.675126314163,1120.0,-2360.0,16248.0,123.0,-94.0,-77.0,0.486128304500793,0.33808783854567287,-0.7411246091017295,0.31640195760220585
-9511.690727710724,1080.0,-2320.0,16368.0,48.0,-100.0,-90.0,0.4807633621840801,0.3486464276350271,-0.741271919632264,0.3127749977915291
-9511.706351041794,1112.0,-2352.0,16232.0,46.0,-140.0,-108.0,0.4732649975268254,0.3613062628842849,-0.7424555762159064,0.3069816669809981
-9511.722002506256,1220.0,-2388.0,16332.0,72.0,-138.0,-74.0,0.464052033224712,0.37269741695296765,-0.7437570745098198,0.3042659362682439
-9511.73761677742,1128.0,-2436.0,16632.0,106.0,-160.0,-104.0,0.4529652214177237,0.3878882818827669,-0.7438550706279308,0.3017363466093267
-9511.753223657608,1268.0,-2460.0,16292.0,131.0,-116.0,-122.0,0.44420189054175624,0.40394098943279194,-0.7406847718289431,0.3015002923313559
-9511.768852233887,1524.0,-2416.0,16412.0,135.0,-102.0,-75.0,0.434831478565531,0.4166207551672698,-0.738300041229837,0.3037462439807102
-9511.784495592117,1308.0,-2372.0,16172.0,116.0,-36.0,-100.0,0.4309688577710201,0.4283486597980482,-0.7328406765400923,0.3061499829969261
-9511.800112724304,1488.0,-2368.0,16320.0,94.0,-8.0,-67.0,0.42877607175998544,0.4363278039458736,-0.7280432544535311,0.3093899601385896
-9511.815758228302,1220.0,-2364.0,16376.0,145.0,-50.0,-94.0,0.422626147940266,0.4489892028143838,-0.7222865546999785,0.3132059509857875
-9511.831332206726,1192.0,-2408.0,16276.0,134.0,-7.0,-35.0,0.4179215417933627,0.4562619453307903,-0.7174150344816543,0.3201285530028653
-9511.846931219101,1144.0,-2388.0,16312.0,139.0,-65.0,-71.0,0.41031576142272835,0.46750918069918657,-0.7129554435499532,0.3236829890534123
-9511.86252117157,1156.0,-2412.0,16264.0,133.0,-26.0,-54.0,0.40482295612518554,0.4762937648119797,-0.707827459179523,0.32900290549895955
-9511.878155946732,1192.0,-2448.0,16336.0,133.0,-64.0,-33.0,0.39631118192055864,0.4847923453058401,-0.7047965744439512,0.3334300791315399
-9511.893764019012,1256.0,-2428.0,16224.0,161.0,-43.0,-35.0,0.3878861402189401,0.49367627483345555,-0.7000008549090354,0.3403334850102689
-9511.90938615799,1244.0,-2436.0,16588.0,156.0,4.0,-68.0,0.3834421480980156,0.502902754736378,-0.6921856453661235,0.34776424584713284
-9511.925090312958,1228.0,-2396.0,16576.0,78.0,254.0,-81.0,0.39776241339916174,0.5025111131558014,-0.6775212504029327,0.3608775400246438
-9511.940755605698,1232.0,-2416.0,16488.0,78.0,-47.0,-64.0,0.39361615474483436,0.5104207756640241,-0.6738163558504855,0.36125956469386183
-9511.956371307373,1528.0,-2332.0,16352.0,74.0,-13.0,-35.0,0.3907056015935572,0.5153779296369224,-0.6703118984834469,0.3638910294004144
-9511.972012281418,1240.0,-2360.0,16296.0,104.0,244.0,-67.0,0.4023730201162986,0.5149059700570395,-0.6554442142968337,0.37862999963937655
-9511.98762845993,1176.0,-2412.0,16220.0,127.0,2.0,-17.0,0.3973730251014898,0.5201964133563517,-0.6503295346728762,0.3854372410458526
-9512.003318548203,1184.0,-2476.0,16280.0,144.0,-42.0,-30.0,0.3894803051601858,0.5282157281737563,-0.6454800633437421,0.3907028592523423
-9512.0189306736,1228.0,-2404.0,16288.0,162.0,-52.0,-67.0,0.3813720955776058,0.539158795085713,-0.6385112721142888,0.3951790401570663
-9512.034535169601,1152.0,-2400.0,16248.0,118.0,-64.0,-56.0,0.37420636099022175,0.5483272594316869,-0.6338450328008615,0.3969222724316012
-9512.050137519836,1140.0,-2384.0,16356.0,120.0,-122.0,-79.0,0.364452727838286,0.5607253261373782,-0.6297676971281516,0.3951632136893158
-9512.065734148026,1200.0,-2392.0,16596.0,133.0,-91.0,-94.0,0.35618654015979007,0.5731438183457647,-0.6233546529822627,0.39505226072811966
-9512.081345558167,1236.0,-2408.0,16292.0,167.0,-63.0,-96.0,0.34770896666947404,0.5855975899065419,-0.614620079386315,0.3980151946954488
-9512.096943855286,1216.0,-2348.0,16344.0,149.0,-72.0,-113.0,0.34015179801225587,0.5985496468530173,-0.6057256254738953,0.3989129494080332
-9512.112559556961,1224.0,-2400.0,16280.0,166.0,-25.0,-96.0,0.333498688174679,0.609294991417747,-0.5955540236055544,0.40355128966000187
-9512.12815117836,1208.0,-2360.0,16296.0,158.0,-30.0,-78.0,0.3262891151115563,0.6188874621050876,-0.5866096693667715,0.4079250156759797
-9512.143797397614,1152.0,-2308.0,16224.0,122.0,-56.0,-92.0,0.3201187527735151,0.6289603542750868,-0.5788009131792204,0.40856132927112304
-9512.159431934357,1188.0,-2348.0,16352.0,110.0,-125.0,-81.0,0.3106554648116182,0.6404579490433896,-0.5738193355134374,0.40501625631661914
-9512.175058841705,1112.0,-2416.0,16224.0,136.0,-142.0,-77.0,0.2986523084209972,0.6528704010537427,-0.568433095114522,0.40180947535027045
-9512.190655231476,1168.0,-2376.0,16308.0,123.0,-152.0,-107.0,0.28783871305487546,0.6665510475889775,-0.5618514764744312,0.39646121450710825
-9512.20627617836,1144.0,-2400.0,16636.0,137.0,-134.0,-136.0,0.27798171315876646,0.6811186377898191,-0.552423776883589,0.3919585936528617
-9512.221879959106,1196.0,-2368.0,16228.0,131.0,-155.0,-101.0,0.266158679095807,0.6942973065159008,-0.545568813822217,0.38660765265493596
-9512.23751950264,1224.0,-2364.0,16248.0,143.0,-122.0,-74.0,0.25417433845235465,0.7051147210037189,-0.5389880980201648,0.3843181833959469
-9512.253165960312,1192.0,-2348.0,16416.0,90.0,-145.0,-99.0,0.24513045584793117,0.7164923693872405,-0.5329941936263768,0.37744792195243576
-9512.268765449524,1204.0,-2400.0,16316.0,138.0,-152.0,-80.0,0.23205147750388094,0.7280068587928699,-0.5265812945168575,0.37265300965342385
-9512.284349679947,1228.0,-2344.0,16276.0,86.0,-139.0,-88.0,0.22305967892915377,0.7381860861301434,-0.5209222615005413,0.3660132229210373
-9512.299976348877,1200.0,-2396.0,16328.0,127.0,-119.0,-73.0,0.2117960757225877,0.7476476566805011,-0.5143927964673216,0.3627195262336946
-9512.315566778183,1256.0,-2412.0,16328.0,118.0,-162.0,-27.0,0.19767064119429356,0.7560229233148082,-0.5117959048018288,0.35696023428450097
-9512.331152915955,1228.0,-2404.0,16176.0,87.0,-145.0,-27.0,0.18629512206755186,0.7631345314764001,-0.5097353091102722,0.3508414585085214
-9512.346774339676,1268.0,-2380.0,16364.0,130.0,-128.0,-11.0,0.17227649413857257,0.7695327288202304,-0.5070259802638841,0.3479437370887133
-9512.362385749817,1244.0,-2312.0,16608.0,139.0,-98.0,51.0,0.15705397380324074,0.7722231140250495,-0.507631094800443,0.34830472731470363
-9512.378007411957,1204.0,-2396.0,16332.0,132.0,-49.0,238.0,0.1387248761305107,0.7647269799434286,-0.5201701599310163,0.3540777592655574
-9512.393609762192,1140.0,-2360.0,16368.0,123.0,-123.0,-51.0,0.1265038715412906,0.7722120881134027,-0.5143771217828811,0.35085814518543246
-9512.409289121628,1144.0,-2360.0,16284.0,131.0,-100.0,-61.0,0.11505036454736578,0.779344168168278,-0.5072862726311163,0.3493518552400171
-9512.424892902374,1208.0,-2344.0,16228.0,105.0,-124.0,-88.0,0.1050968195144476,0.7879506137909963,-0.4992670033328218,0.34470414580826236
-9512.440530776978,1124.0,-2304.0,16308.0,136.0,-120.0,-86.0,0.09309504430590025,0.7964119176947095,-0.49027491550823876,0.3416019281311319
-9512.456124544144,1192.0,-2388.0,16576.0,110.0,-91.0,-70.0,0.08363945609264009,0.802915219093186,-0.48281171204358275,0.3394472610680679
-9512.471758842468,1188.0,-2404.0,16396.0,143.0,-111.0,-96.0,0.07177686483034743,0.8111423858921203,-0.4725715744433221,0.33700477520730204
-9512.487356185913,1112.0,-2412.0,16416.0,102.0,-79.0,-102.0,0.06429270109038313,0.8182071185711168,-0.4627873160851917,0.33500964131904903
-9512.502964258194,1256.0,-2408.0,16368.0,127.0,-95.0,-69.0,0.05339783230874373,0.8243699002751006,-0.4546181395142735,0.3329944237517028
-9512.518603563309,1236.0,-2376.0,16336.0,125.0,-80.0,-125.0,0.0448552089402418,0.8320979913449335,-0.4422907854811098,0.3316320311869124
-9512.534177064896,1212.0,-2420.0,16320.0,141.0,-102.0,-123.0,0.034228689208039474,0.8401853540253336,-0.4295921838187219,0.3291922285204889
-9512.549796819687,1208.0,-2460.0,16240.0,132.0,-119.0,-139.0,0.02407102572049922,0.8490265403884258,-0.41587230730606983,0.3249996053116831
-9512.56537771225,1180.0,-2444.0,16284.0,151.0,-115.0,-88.0,0.011194302260314369,0.8556380299698869,-0.4052339495400396,0.32178206197104303
-9512.580973386765,1204.0,-2412.0,16324.0,125.0,-149.0,-120.0,-4.940932434661822e-05,0.8639987547122517,-0.392821091010734,0.31495672698250743
-9512.596575737,1184.0,-2440.0,16276.0,128.0,-164.0,-82.0,-0.01307946114096601,0.8711339667579836,-0.3830381523692393,0.30697933723024706
-9512.612186670303,1200.0,-2396.0,16300.0,126.0,-200.0,-97.0,-0.02675373206280665,0.8793561070204691,-0.3719593775878691,0.2960798816045454
-9512.627842664719,1288.0,-2352.0,16328.0,106.0,-205.0,-148.0,-0.03772397842381001,0.8889408638414485,-0.35727299091952125,0.2841074655902565
-9512.643449306488,1272.0,-2388.0,16408.0,107.0,-160.0,-127.0,-0.04787290755363837,0.8963196124389984,-0.3441633346964641,0.27544679364656655
-9512.65906882286,1280.0,-2428.0,16436.0,123.0,-162.0,-93.0,-0.06013335337332769,0.9023071811051054,-0.3331848375779917,0.26685875429965616
-9512.674670934677,1288.0,-2388.0,16344.0,107.0,-117.0,-126.0,-0.06903727670435221,0.9079785531693605,-0.32009981995220405,0.2614285881006286
-9512.690258026123,1232.0,-2308.0,16280.0,115.0,-65.0,-196.0,-0.07549983403329025,0.9140359738113826,-0.30148069161269214,0.26066723274005105
-9512.70585489273,1220.0,-2392.0,16292.0,128.0,-137.0,-110.0,-0.08682175742900626,0.9190240122265056,-0.28883313315177017,0.2538351208595184
-9512.721445560455,1196.0,-2376.0,16380.0,110.0,-121.0,-142.0,-0.09555759679418643,0.9242716850298093,-0.2740346894205034,0.2479830376079886
-9512.737045764923,1268.0,-2392.0,16256.0,138.0,-134.0,-202.0,-0.10551870160017929,0.9305627863704798,-0.25355345242008664,0.24213498508244505
-9512.752696990967,1268.0,-2392.0,16272.0,144.0,-146.0,-184.0,-0.11655196423715607,0.9361095097869081,-0.23414777922818963,0.23513707236733689
-9512.768287420273,1032.0,-2324.0,16316.0,186.0,-152.0,-169.0,-0.13137513794819636,0.94046774726484,-0.21490046740272167,0.2282077531412575
-9512.78389286995,1300.0,-2436.0,16308.0,149.0,-157.0,-138.0,-0.14379942285178254,0.9442234517710847,-0.1987501445328249,0.2196865475198099
-9512.799547672272,1280.0,-2452.0,16392.0,148.0,-129.0,-166.0,-0.15504787636353407,0.9474659580690024,-0.18056241961171346,0.21369517299066274
-9512.815151453018,1368.0,-2432.0,16348.0,161.0,-73.0,-135.0,-0.16700033988774754,0.9485821907120493,-0.16537215724514517,0.21202538420998823
-9512.830785036087,1352.0,-2472.0,16340.0,178.0,-57.0,-84.0,-0.18101675821106467,0.9480868754485754,-0.15426435467819472,0.21110831041111258
-9512.846383094788,1240.0,-2340.0,16328.0,147.0,-120.0,-40.0,-0.19407351095717232,0.9483614679441867,-0.14632577717069428,0.2038007983274254
-9512.862055301666,1208.0,-2360.0,16352.0,164.0,-148.0,-26.0,-0.20908086234666562,0.948352269220631,-0.13872023734106043,0.19408725413198658
-9512.877655506134,1208.0,-2364.0,16320.0,125.0,-146.0,-71.0,-0.2200032481334914,0.9492349168961615,-0.12803733615456273,0.18481905720540365
-9512.893289327621,1252.0,-2352.0,16352.0,142.0,-177.0,-7.0,-0.23363525271569163,0.9492375346816843,-0.12174101414640161,0.17187727282720938
-9512.908929109573,1296.0,-2336.0,16268.0,154.0,-162.0,-34.0,-0.24760748527313178,0.9486856836006691,-0.11328463636759148,0.16078743150790623
-9512.924602031708,1284.0,-2560.0,16292.0,137.0,-171.0,-41.0,-0.26007078423829333,0.948331458840792,-0.10424811279709569,0.14887230211432426
-9512.940245628357,1284.0,-2384.0,16252.0,179.0,-187.0,-63.0,-0.27575006282697473,0.9469955688818331,-0.09243351565558237,0.13644537570999626
-9512.95587015152,1356.0,-2320.0,16160.0,168.0,-162.0,-36.0,-0.2905095086829581,0.9449503766348529,-0.08353633285792168,0.12527845846388086
-9512.97146654129,1396.0,-2332.0,16284.0,124.0,-172.0,-53.0,-0.3014149240353606,0.9438801495196699,-0.07343011136046758,0.11334604385276387
-9512.98709487915,1428.0,-2372.0,16312.0,109.0,-183.0,-74.0,-0.31083557119619865,0.9430924861832082,-0.06142434636079068,0.1009200666768401
-9513.0027282238,1396.0,-2340.0,16376.0,101.0,-173.0,-52.0,-0.31962822535028096,0.94197857517757,-0.05154801777316331,0.08863951336465424
-9513.018338918686,1324.0,-2440.0,16276.0,116.0,-150.0,-94.0,-0.3291205286743888,0.9401416984660184,-0.03872623275909321,0.07945780834386064
-9513.033967733383,1428.0,-2396.0,16296.0,124.0,-121.0,-83.0,-0.33914620772939486,0.9375427302651911,-0.02757131901927383,0.0723415584377242
-9513.049586057663,1404.0,-2436.0,16364.0,140.0,-143.0,-101.0,-0.3503085675122939,0.9343395259137264,-0.014182197587925317,0.06397204947767889
-9513.06519126892,1344.0,-2424.0,16284.0,128.0,-148.0,-130.0,-0.36019705237171823,0.9311899991060881,0.0016635647798834508,0.056040178263033084
-9513.080794334412,1388.0,-2408.0,16228.0,124.0,-124.0,-96.0,-0.36980124352591537,0.9277142715009691,0.013972696372754624,0.048969730407544244
-9513.09639954567,1408.0,-2324.0,16396.0,204.0,-89.0,-69.0,-0.3859079691102764,0.9212047852080087,0.023302742952109674,0.043746602816177184
-9513.11205482483,1396.0,-2408.0,16456.0,161.0,-57.0,-77.0,-0.39846372899794286,0.9156876317477717,0.032027101954363126,0.041437693922515895
-9513.127672195435,1364.0,-2332.0,16368.0,168.0,-98.0,-26.0,-0.41153795140336646,0.9099584368420687,0.03811757626317474,0.034047146054851235
-9513.143268346786,1388.0,-2316.0,16208.0,192.0,-96.0,-56.0,-0.42629899944036226,0.9029544537293485,0.046577823504613945,0.02780150938443759
-9513.158864974976,1396.0,-2264.0,16232.0,145.0,-112.0,-52.0,-0.43716383885499366,0.8974567742311016,0.05518977966940608,0.020327434769615776
-9513.174456834793,1368.0,-2364.0,16240.0,172.0,-129.0,-28.0,-0.44996646716694566,0.8907871330401126,0.06260079222441367,0.010469137899117915
-9513.190051317215,1384.0,-2380.0,16216.0,152.0,-127.0,-34.0,-0.4610714160473847,0.8845683578571133,0.07036152933692473,0.0011066939046180924
-9513.205663204193,1344.0,-2384.0,16364.0,149.0,-150.0,-22.0,-0.471655096866109,0.8782550416302114,0.07809840310233042,-0.010497184584593998
-9513.221327066422,1368.0,-2356.0,16364.0,168.0,-191.0,-35.0,-0.4832278193856064,0.8706591724957679,0.08846906096258601,-0.024833549347906953
-9513.236939907074,1376.0,-2376.0,16228.0,128.0,-162.0,11.0,-0.49168735981156475,0.864803941991032,0.09417287816093683,-0.038589521080078446
-9513.25254368782,1352.0,-2444.0,16268.0,133.0,-140.0,-45.0,-0.5007409639308587,0.858074501647031,0.10311418023263247,-0.048312550126712844
-9513.268133163452,1388.0,-2424.0,16260.0,162.0,-137.0,-48.0,-0.5118410045731966,0.8497770925858718,0.11199280684228204,-0.05792486658932463
-9513.283752918243,1308.0,-2416.0,16628.0,163.0,-150.0,4.0,-0.5224377151333517,0.8415619216314031,0.11754901660812841,-0.07081380204991698
-9513.299343824387,1372.0,-2396.0,16372.0,129.0,-198.0,12.0,-0.5297868650621534,0.8343420496352177,0.12487015594328447,-0.08721620246731242
-9513.314973831177,1420.0,-2368.0,16412.0,129.0,-233.0,-43.0,-0.5369131827593394,0.8258444312248799,0.13775364287720518,-0.10358157880699645
-9513.330617666245,1368.0,-2448.0,16572.0,165.0,-207.0,39.0,-0.5459105325612388,0.8164228787401341,0.14310806320355057,-0.12229250081057913
-9513.346244335175,1376.0,-2356.0,16300.0,139.0,-172.0,-11.0,-0.553776238970986,0.8076089824325644,0.15057115078478162,-0.13574953847705612
-9513.36183977127,1400.0,-2384.0,16332.0,142.0,-171.0,-3.0,-0.5615644245514877,0.7984602206675805,0.15733037966541336,-0.14951195512055948
-9513.377445459366,1444.0,-2360.0,16228.0,196.0,-175.0,-32.0,-0.5731825600613574,0.7858474310166405,0.16553011880032517,-0.16280463069582893
-9513.393040895462,1456.0,-2260.0,16340.0,180.0,-154.0,-40.0,-0.5838419392166471,0.7738294619860473,0.17337484423975424,-0.17394745516669868
-9513.408705472946,1464.0,-2220.0,16204.0,164.0,-143.0,-70.0,-0.5937985092340207,0.7620102852349646,0.1828550252161275,-0.1825039599044138
-9513.424315690994,1412.0,-2208.0,15980.0,116.0,-222.0,-21.0,-0.5982609095853849,0.7518632273758539,0.19385291722887998,-0.19800661065703323
-9513.439952373505,1408.0,-2260.0,16232.0,94.0,-275.0,-52.0,-0.6005760059706727,0.7409912566282885,0.20991952092491944,-0.21488185913984634
-9513.45555138588,1424.0,-2552.0,16300.0,119.0,-276.0,-62.0,-0.6042625551767689,0.7280915426064072,0.22607028094616058,-0.23160677466168564
-9513.471144676208,1524.0,-2332.0,16320.0,136.0,-213.0,-66.0,-0.60997903466398,0.7150344983200704,0.2386705380089679,-0.24431049459463292
-9513.486774206161,1308.0,-2404.0,16320.0,167.0,-193.0,-7.0,-0.6164782534506404,0.7016146494428831,0.24573944729958108,-0.25942931744597497
-9513.502366542816,1468.0,-2372.0,16564.0,200.0,-173.0,-9.0,-0.6251540135740613,0.686462555293241,0.25098063588591496,-0.2737888600780139
-9513.518000125885,1300.0,-2428.0,16348.0,193.0,-176.0,-40.0,-0.6337517188691967,0.6705696785341002,0.25827372324095305,-0.28633852158636924
-9513.533557415009,1480.0,-2456.0,16368.0,176.0,-130.0,-15.0,-0.6414826920938062,0.657021313671854,0.26186753236538085,-0.2970662293460172
-9513.549166679382,1504.0,-2548.0,16328.0,177.0,-138.0,-81.0,-0.6505418090431783,0.641432713378343,0.26956104067609266,-0.30446062839806964
-9513.564765930176,1644.0,-2472.0,16272.0,208.0,-189.0,-9.0,-0.657885222168823,0.6240862456921159,0.27515304120221556,-0.3193653022902934
-9513.580367326736,1640.0,-2412.0,16572.0,221.0,-102.0,73.0,-0.6653792633980944,0.6100382810957656,0.2707687459833763,-0.33437705907571286
-9513.595990657806,1580.0,-2372.0,16384.0,177.0,-18.0,86.0,-0.6718727618066314,0.6010546921872386,0.26199007696195215,-0.34450173949561397
-9513.611610412598,1568.0,-2324.0,16364.0,196.0,-7.0,109.0,-0.6786916455586022,0.5916027086996409,0.25069998564331325,-0.3557153391500671
-9513.62727689743,1472.0,-2348.0,16356.0,179.0,-35.0,108.0,-0.6838025364622772,0.5820443994378213,0.24155681415735442,-0.3678161412240786
-9513.64287352562,1640.0,-2292.0,16216.0,207.0,-102.0,102.0,-0.6888303447325173,0.568290223232739,0.23572103089586383,-0.383398714065601
-9513.658456325531,1512.0,-2052.0,16308.0,139.0,-134.0,131.0,-0.688544338969156,0.5578869435887163,0.23253895083338907,-0.40074242075437355
-9513.67407155037,1568.0,-2532.0,16280.0,181.0,-182.0,115.0,-0.6895365697254986,0.5426658759425567,0.23143528713202785,-0.4201080503499141
-9513.689635038376,1504.0,-2336.0,16336.0,168.0,-121.0,127.0,-0.6903393423950567,0.5304122475935765,0.2264467950101269,-0.4368252384809432
-9513.70528626442,1592.0,-2524.0,16336.0,213.0,-119.0,169.0,-0.6912739077248161,0.5160495497446372,0.21755459672750177,-0.456621554626973
-9513.720876216888,1504.0,-2092.0,16272.0,207.0,-155.0,135.0,-0.6921483033543004,0.49961993068944627,0.2124613066424608,-0.4755742257538927
-9513.736513376236,1516.0,-2344.0,16228.0,197.0,-144.0,128.0,-0.692653423542621,0.48380380210183466,0.20729503856483056,-0.49314691818250334
-9513.752095222473,1544.0,-2320.0,16320.0,161.0,-160.0,160.0,-0.6895648177259154,0.4697630637998005,0.20317456729300293,-0.51238961860029
-9513.767745256424,1548.0,-2316.0,16360.0,160.0,-150.0,131.0,-0.6875312305794176,0.45545171256999567,0.19957751840428375,-0.5291817822285625
-9513.783341169357,1576.0,-2312.0,16380.0,189.0,-102.0,154.0,-0.6860664864590871,0.4417751585515496,0.19074618625833029,-0.5456769904186348
-9513.798947811127,1568.0,-2328.0,16300.0,188.0,-100.0,129.0,-0.6854377318835557,0.4276057771504573,0.18271398918000029,-0.5603070704674454
-9513.814644813538,1488.0,-2232.0,16220.0,190.0,-78.0,123.0,-0.6852110934798642,0.41409356531923536,0.17341012698361397,-0.5735339609760348
-9513.830251693726,1756.0,-2276.0,16276.0,155.0,-108.0,90.0,-0.684649862987517,0.4005028613764055,0.1687852201060265,-0.585118426144867
-9513.845850229263,1548.0,-2232.0,16280.0,136.0,-148.0,139.0,-0.6800584383653042,0.38656278085337503,0.16573951875287438,-0.6005165682898473
-9513.861487150192,1640.0,-2292.0,16332.0,187.0,-127.0,111.0,-0.6786351850461922,0.3701019126474213,0.15964561144918019,-0.6139968555432989
-9513.877086162567,1624.0,-2344.0,16436.0,172.0,-133.0,33.0,-0.680528780309376,0.3529531585660538,0.15716406976907865,-0.6225785911854819
-9513.89273071289,1564.0,-2404.0,16352.0,182.0,-126.0,34.0,-0.6825117769999871,0.33546400179471364,0.15363213563397984,-0.6309031182810388
-9513.90833902359,1552.0,-2320.0,16364.0,201.0,-103.0,41.0,-0.6847009274524518,0.31806400739712043,0.1474172038388814,-0.6389742523424261
-9513.92406630516,1536.0,-2268.0,16332.0,182.0,-109.0,65.0,-0.684675501824104,0.301640956922409,0.14189708517353772,-0.6481492170234402
-9513.939685106277,1568.0,-2076.0,16208.0,183.0,-115.0,16.0,-0.6871163617978582,0.2840931666556657,0.13791724825760393,-0.6543248510046685
-9513.955315113068,1548.0,-2228.0,16220.0,140.0,-90.0,24.0,-0.6881336646269416,0.2705569318879748,0.1346564145776241,-0.6596504045534731
-9513.970915555954,1528.0,-2256.0,16184.0,178.0,-142.0,24.0,-0.6892197722632823,0.2516570144294882,0.13228950127281885,-0.6664415506725059
-9513.987450122833,1444.0,-2060.0,16268.0,174.0,-164.0,-28.0,-0.692690812117916,0.2310069380511142,0.13255627495439143,-0.6702567174970246
-9514.00330734253,1528.0,-2296.0,16220.0,146.0,-191.0,-12.0,-0.6940389490656265,0.2105454366675626,0.135710724470648,-0.6749541877357295
-9514.018972158432,1508.0,-2288.0,16364.0,147.0,-203.0,-38.0,-0.6964659683604427,0.18890838676493002,0.1399338056366294,-0.6779876889484591
-9514.034646511078,1492.0,-2260.0,16372.0,144.0,-243.0,-18.0,-0.6967837442320068,0.1652288910635895,0.14633974733390223,-0.6824782089430925
-9514.050262451172,1512.0,-2328.0,16412.0,132.0,-192.0,-251.0,-0.7109241921947064,0.14222343331269996,0.15358479550871396,-0.6713948157065251
-9514.065870761871,1760.0,-2344.0,16284.0,165.0,-154.0,6.0,-0.710473642589077,0.1227511522908624,0.15322881539755506,-0.6757812426586993
-9514.081516742706,1784.0,-2320.0,16452.0,175.0,-125.0,-250.0,-0.7251726867160244,0.1008823360670719,0.15311484066273265,-0.6637041315823935
-9514.097160577774,1520.0,-2304.0,16492.0,161.0,-89.0,21.0,-0.7241371473627887,0.0855795542958286,0.14901178122905098,-0.6679049488892531
-9514.112792491913,1312.0,-2200.0,16624.0,176.0,-69.0,-32.0,-0.7263599745389094,0.06980973093982101,0.14309595350119506,-0.6686189774045669
-9514.128399133682,1628.0,-2152.0,16456.0,121.0,-41.0,-62.0,-0.7301891008503625,0.05876280828584312,0.1387663572428593,-0.6664193180417624
-9514.144051790237,1644.0,-2252.0,16284.0,173.0,-58.0,-67.0,-0.7342036985566249,0.04335911663991948,0.1324738889855601,-0.6644663909988378
-9514.15964436531,1624.0,-2292.0,16268.0,117.0,-39.0,-82.0,-0.7389239871779562,0.032507811507566035,0.12820582472162365,-0.660679839159232
-9514.175287246704,1540.0,-2272.0,16268.0,191.0,-37.0,-94.0,-0.744368272886444,0.016923025821960255,0.11951758086194489,-0.656768630022773
-9514.190888166428,1600.0,-2268.0,16356.0,214.0,-249.0,-17.0,-0.7427803797510536,-0.011403491222294787,0.12308380675389391,-0.6580255651263056
-9514.206502914429,1536.0,-2552.0,16324.0,245.0,-2.0,-215.0,-0.7545631531437212,-0.02946659204390989,0.10866209767646355,-0.6464972671246751
-9514.222150325775,1316.0,-2328.0,16372.0,216.0,15.0,40.0,-0.7517580867973764,-0.04217585573940233,0.09541246395491838,-0.6511354988398719
-9514.237779855728,1504.0,-2320.0,16132.0,235.0,-35.0,77.0,-0.7460491131665214,-0.058608410342179014,0.08455186864207372,-0.6578957033525474
-9514.253391981125,1576.0,-2368.0,16236.0,242.0,-10.0,68.0,-0.7406547557615003,-0.07409339410066879,0.07163771249668516,-0.663934288816866
-9514.268987417221,1544.0,-2244.0,16316.0,234.0,-11.0,125.0,-0.7316364358347461,-0.088727230085505,0.05961478575294979,-0.6732619710929864
-9514.284580230713,1624.0,-2280.0,16268.0,249.0,-4.0,165.0,-0.7197524019044941,-0.10365155716712443,0.04657470189968042,-0.6848676016519526
-9514.300174474716,1612.0,-2268.0,16260.0,241.0,19.0,224.0,-0.7039766188784976,-0.11638763539308979,0.03308611812170563,-0.6998400868681647
-9514.315860509872,1580.0,-2312.0,16252.0,248.0,-250.0,245.0,-0.685302837386684,-0.14578550471261978,0.03587958707793212,-0.7126143858473277
-9514.33146905899,1472.0,-2308.0,16400.0,313.0,-18.0,276.0,-0.6636739535154879,-0.1643497652720602,0.02107496025453151,-0.7294394314337626
-9514.347096443176,1288.0,-2256.0,16240.0,332.0,-31.0,316.0,-0.6382448780324094,-0.1845288554124451,0.006357228022019112,-0.7473634743800661
-9514.362693548203,1556.0,-2288.0,16368.0,336.0,-52.0,354.0,-0.6091762828432982,-0.2059693723695887,-0.0068389678560470445,-0.765789855368667
-9514.378289699554,1620.0,-2276.0,16164.0,293.0,-74.0,363.0,-0.5792211235411697,-0.2262452002025329,-0.015824845605820453,-0.782985040527961
-9514.393880367279,1648.0,-2252.0,16344.0,260.0,-105.0,381.0,-0.5477507451260732,-0.2466144095498857,-0.020621262603078457,-0.7992028639493527
-9514.409524202347,1672.0,-2264.0,16300.0,280.0,-84.0,413.0,-0.5125889439683974,-0.2660829237382423,-0.027102375179413045,-0.8159153837720587
-9514.425185203552,1640.0,-2236.0,16252.0,280.0,-92.0,475.0,-0.4719375315780116,-0.28569002134108884,-0.03174307338312058,-0.8334557908409871
-9514.44080233574,1596.0,-2292.0,16336.0,289.0,-24.0,499.0,-0.42797463116651363,-0.30009228622991324,-0.03917629220940403,-0.8516146739881327
-9514.456426858902,1544.0,-2272.0,16324.0,315.0,-44.0,272.0,-0.3994077245575361,-0.3156051795849578,-0.05367906570015974,-0.8590607650733887
-9514.472091436386,1760.0,-2196.0,16280.0,286.0,-37.0,548.0,-0.3501169849857503,-0.33020061393366745,-0.05853900420528725,-0.8746192522286315
-9514.487752437592,1592.0,-2252.0,16240.0,322.0,-67.0,574.0,-0.29687747313963053,-0.34727977648157726,-0.06431360796562159,-0.8872002494474278
-9514.503368854523,1660.0,-2220.0,16284.0,282.0,-75.0,582.0,-0.24329620386717823,-0.3628523223013615,-0.06635338683191515,-0.8970743433184696
-9514.519012451172,1556.0,-2232.0,16264.0,316.0,-75.0,611.0,-0.18554558300283464,-0.3780649374998962,-0.0699253807766105,-0.904295405707993
-9514.534667015076,1592.0,-2232.0,16400.0,297.0,-72.0,601.0,-0.12852154680006767,-0.3913334574285853,-0.07214877393440176,-0.9083693585347703
-9514.550287246704,1568.0,-2180.0,16312.0,278.0,-63.0,596.0,-0.07203970372388019,-0.4023199570847781,-0.07291386765942999,-0.9097430962209172
-9514.565883874893,1576.0,-2128.0,16300.0,269.0,-44.0,602.0,-0.015031863728841138,-0.41044465006237146,-0.07265048090969606,-0.9088625528272166
-9514.581512451172,1548.0,-2148.0,16228.0,276.0,-77.0,572.0,0.039702362715084184,-0.4196810736211637,-0.07375433340687293,-0.9037985489824241
-9514.597140312195,1556.0,-2140.0,16372.0,234.0,-65.0,540.0,0.09035981115738846,-0.4266993962168171,-0.07248212824443276,-0.8969442964203308
-9514.61277127266,1564.0,-2220.0,16348.0,253.0,-48.0,536.0,0.14128305543499653,-0.4310688392692166,-0.07253029921983868,-0.8882331393013451
-9514.628371953964,1616.0,-2172.0,16268.0,276.0,-107.0,584.0,0.19598392626701772,-0.4387394068517379,-0.07308108532116257,-0.8739320273846419
-9514.644016742706,1560.0,-2220.0,16132.0,509.0,-96.0,564.0,0.257354580117431,-0.43977094142852197,-0.09167581141136828,-0.8555499311961398
-9514.659609079361,1740.0,-2148.0,16464.0,304.0,-89.0,531.0,0.3075651619688352,-0.4429953163229023,-0.09577842978994083,-0.8366512494737752
-9514.675259590149,1504.0,-2172.0,16392.0,287.0,-60.0,518.0,0.35556233157741485,-0.4432089720082303,-0.09811007700817018,-0.817016308456625
-9514.690871715546,1492.0,-2076.0,16612.0,233.0,-22.0,549.0,0.4030484552044381,-0.4414525363800666,-0.09396926203498512,-0.7961415569316317
-9514.706461906433,1436.0,-2116.0,16360.0,248.0,-9.0,529.0,0.44876895275143946,-0.43692522075749196,-0.0909457979797264,-0.7742297077368085
-9514.72209072113,1400.0,-2108.0,16460.0,494.0,-43.0,551.0,0.5035144296593806,-0.42376620435558904,-0.10471149536755209,-0.7456077560679857
-9514.737700223923,1420.0,-2168.0,16400.0,242.0,-77.0,612.0,0.5507406048110715,-0.4228263251926807,-0.10095985153019836,-0.7125375732657114
-9514.753360509872,1316.0,-2264.0,16376.0,184.0,-42.0,634.0,0.5956741128633494,-0.4212746634164754,-0.09079444432866245,-0.6778321164616256
-9514.768941402435,1384.0,-2268.0,16404.0,246.0,-28.0,644.0,0.6415139144213261,-0.4142851406364989,-0.0829032285013077,-0.6402771076305039
-9514.784546136856,1344.0,-2228.0,16480.0,266.0,-29.0,683.0,0.6877633942039203,-0.40491029969967474,-0.07447713504543602,-0.597898251499071
-9514.800136089325,1408.0,-2300.0,16548.0,284.0,69.0,514.0,0.724188757613841,-0.38686595715032046,-0.06684085538113688,-0.5669370993291984
-9514.815770626068,1472.0,-2164.0,16548.0,283.0,150.0,810.0,0.7725499843451603,-0.36499639351850144,-0.043831279463095396,-0.5177093521923354
-9514.831366300583,1460.0,-2156.0,16504.0,280.0,202.0,841.0,0.8177504286276094,-0.33889630278334304,-0.01598280457283313,-0.4649495482276853
-9514.846961259842,1436.0,-2140.0,16376.0,304.0,277.0,843.0,0.858538742256878,-0.30585266836858205,0.016342192373962356,-0.41121564421141477
-9514.86263537407,1340.0,-2176.0,16376.0,298.0,226.0,893.0,0.8951006340402801,-0.2728974042740072,0.04622711061699985,-0.34954959008015046
-9514.878246545792,1396.0,-2224.0,16448.0,325.0,269.0,865.0,0.924952140663206,-0.23471753281789637,0.07757375243080841,-0.28871011448204614
-9514.893857240677,1464.0,-2184.0,16332.0,360.0,503.0,894.0,0.9472537425346875,-0.18584966797686356,0.12669959250976806,-0.22829249095135823
-9514.90948677063,1416.0,-2100.0,16636.0,369.0,259.0,908.0,0.964755283913042,-0.1394208522098525,0.1546473614659042,-0.16091383322318278
-9514.925269842148,1344.0,-2136.0,16608.0,365.0,2.0,828.0,0.9778066019386313,-0.09707671691052183,0.1589883300715436,-0.09588050448429619
-9514.940889835358,1352.0,-1996.0,16392.0,359.0,297.0,852.0,0.9804011485290007,-0.05189809099864444,0.18757560950000024,-0.03058703703231129
-9514.956534385681,1352.0,-2004.0,16212.0,348.0,301.0,916.0,0.9756652593075517,-0.006313725235519112,0.21539093340064577,0.04054854452106492
-9514.972153425217,1184.0,-2020.0,16268.0,330.0,271.0,840.0,0.9645978339456985,0.036432515526525454,0.23900538456103654,0.10535709141062674
-9514.98781967163,1132.0,-2040.0,16144.0,302.0,173.0,838.0,0.9494298538137306,0.07741157723862435,0.25262302216826144,0.16962313836042736
-9515.003434181213,1124.0,-2080.0,16360.0,291.0,67.0,822.0,0.9311906004352246,0.11819895055412961,0.25593342261154517,0.23110853930421582
-9515.019008159637,1196.0,-2092.0,16268.0,288.0,36.0,810.0,0.9086023320770008,0.15839510851317865,0.2553583311637612,0.2900774283680009
-9515.034641742706,1144.0,-2056.0,16424.0,270.0,56.0,809.0,0.8807772913442473,0.19572941066043067,0.2545262859340925,0.34804846016525925
-9515.050237178802,1260.0,-2020.0,16472.0,350.0,110.0,776.0,0.8464958662725043,0.2357197283701108,0.25942925172297243,0.4007211267092644
