programtime,ax,ay,az,gx,gy,gz,q0,q1,q2,q3
-262.14098620414734,6652.0,10868.0,10964.0,-74.0,-120.0,252.0,0.9996826227429063,-0.006174295447355068,-0.010640872673214508,0.02198416908471344
-262.14880180358887,6768.0,10956.0,10912.0,-117.0,-125.0,187.0,0.9989015818617583,-0.016023267514361478,-0.021825347404995733,0.038243154457908164
-262.1565856933594,6860.0,10980.0,11120.0,-188.0,-136.0,76.0,0.9979041328614028,-0.03180169912317321,-0.034344727782907855,0.04468146399267902
-262.1643726825714,6976.0,10824.0,11060.0,-299.0,-127.0,58.0,0.9960656384551907,-0.05719874858643212,-0.04653417583357289,0.04915401843684307
-262.1721534729004,6928.0,10564.0,11132.0,-360.0,-41.0,25.0,0.9935166562623745,-0.08807409280109528,-0.051625559344263626,0.05002408948583619
-262.1799867153168,6712.0,10564.0,11208.0,-486.0,-83.0,19.0,0.9884415510908178,-0.12951511158713921,-0.06086264053520124,0.05004872560647368
-262.18777656555176,6820.0,10640.0,11056.0,-500.0,76.0,25.0,0.9821731148404438,-0.17264701630590276,-0.05626561485592827,0.0486123526500607
-262.1955678462982,6916.0,10448.0,11004.0,-525.0,117.0,29.0,0.9736986875749709,-0.21776222100941767,-0.048084724928116135,0.04667269163453168
-262.20338582992554,6940.0,10340.0,10936.0,-529.0,153.0,49.0,0.963038448066331,-0.26296908886360787,-0.03637125659901025,0.04562167841767244
-262.21116065979004,6908.0,10452.0,10880.0,-514.0,200.0,95.0,0.9504463332854289,-0.30665049412803036,-0.019504952104152748,0.04729480773544438
-262.21896266937256,6592.0,10640.0,10636.0,-269.0,294.0,-16.0,0.9433265831410004,-0.3297143868162251,0.0032520605696681627,0.037587295300100645
-262.22675132751465,6400.0,10524.0,10688.0,-536.0,316.0,-76.0,0.9267680813836693,-0.3741224163883861,0.02519640247878442,0.022326714632356536
-262.23454666137695,6304.0,10820.0,11212.0,-587.0,355.0,-194.0,0.9055429007459448,-0.42170882887517236,0.04626141885869247,-0.003687774739747044
-262.242329120636,6148.0,10812.0,10884.0,-638.0,299.0,-276.0,0.8789449332266015,-0.4719528746687472,0.0597314967493467,-0.03388859311440617
-262.2501308917999,5912.0,10672.0,10896.0,-699.0,296.0,-392.0,0.8451952141239051,-0.5251416851380624,0.06809811132424261,-0.07234575168227447
-262.25791454315186,6380.0,10748.0,11024.0,-750.0,202.0,-490.0,0.8040302124938904,-0.5801265814755695,0.06499557123378134,-0.1129785049577724
-262.2657120227814,6100.0,10348.0,11024.0,-720.0,91.0,-556.0,0.759236356826385,-0.6308074520269765,0.05010230387355759,-0.1520916568612279
-262.27349853515625,6048.0,10176.0,11260.0,-722.0,33.0,-527.0,0.7102478831076086,-0.6783728197832125,0.0326959110157904,-0.1851735383994731
-262.2813003063202,5968.0,10184.0,11084.0,-643.0,-90.0,-590.0,0.6610141842057183,-0.7191983418724068,0.0025081096991329548,-0.2140273410397988
-262.28908252716064,5964.0,10164.0,11044.0,-587.0,-138.0,-556.0,0.6122836817445395,-0.7537769382037472,-0.029371380794362537,-0.23678332393090581
-262.29687118530273,5920.0,10260.0,11132.0,-550.0,-245.0,-261.0,0.569175586874036,-0.7862258941385902,-0.048241333570429173,-0.23571331830831643
-262.3046910762787,5980.0,10268.0,11276.0,-527.0,-329.0,-535.0,0.5193137682605874,-0.8147960101717221,-0.09027571318794532,-0.24139380172581026
-262.3124668598175,6060.0,10292.0,11260.0,-499.0,-389.0,-505.0,0.46896578000023353,-0.8395001372775431,-0.13302277166687043,-0.2400324122234789
-262.3202495574951,6156.0,10312.0,11012.0,-469.0,-417.0,-469.0,0.4189595355073058,-0.859947189039708,-0.17426648093879063,-0.23365558690392488
-262.3280727863312,6240.0,10356.0,11120.0,-471.0,-390.0,-483.0,0.3669746008543501,-0.875724733744372,-0.21471729773659337,-0.22876257361910085
-262.33585357666016,6332.0,10240.0,11148.0,-436.0,-467.0,-476.0,0.3146241694053204,-0.8879227853829273,-0.25676712152153575,-0.21604491322264657
-262.34364342689514,6308.0,10264.0,11084.0,-396.0,-481.0,-493.0,0.26321101935819946,-0.8946464449890091,-0.3000255661885003,-0.20077937491240272
-262.35143876075745,6272.0,10156.0,10964.0,-380.0,-437.0,-505.0,0.21274660549090155,-0.8957761163548569,-0.3420966201579499,-0.18786679774993742
-262.3592257499695,6304.0,10240.0,10920.0,-346.0,-408.0,-453.0,0.16574922147384757,-0.8936738879523782,-0.3787299038060773,-0.1744644305752116
-262.3670072555542,6224.0,10256.0,11152.0,-336.0,-446.0,-447.0,0.11773289180121824,-0.8888017458943074,-0.4141430586866814,-0.157022131003861
-262.3748035430908,6192.0,10236.0,10776.0,-308.0,-492.0,-380.0,0.07068375218723665,-0.8833402194988897,-0.44365679458064367,-0.13372551145841705
-262.38259077072144,6248.0,10264.0,10856.0,-296.0,-497.0,-387.0,0.024018220215422256,-0.8743563278560956,-0.47224416328737706,-0.1091310555098435
-262.3903739452362,6344.0,10292.0,11124.0,-294.0,-544.0,-269.0,-0.023403457395340607,-0.8675551690305018,-0.49026855472342223,-0.08023123531274179
-262.3981544971466,6340.0,10388.0,11080.0,-267.0,-557.0,-190.0,-0.06872245273063372,-0.8614034014481041,-0.5008515534235031,-0.04908284728483144
-262.4059684276581,6412.0,10416.0,11456.0,-259.0,-533.0,-184.0,-0.11216816239147943,-0.8528344726726665,-0.5096278370868893,-0.019264818529964502
-262.41377091407776,6612.0,10420.0,11144.0,-484.0,-460.0,-165.0,-0.16868539598012383,-0.8400120997213056,-0.515654889491013,-0.004994441794991053
-262.42159962654114,6504.0,10384.0,11016.0,-240.0,-483.0,-188.0,-0.2079029535734503,-0.8271961222122407,-0.5215610800795875,0.022292981825716943
-262.4294264316559,6328.0,10348.0,11256.0,-219.0,-443.0,-193.0,-0.2433078386665764,-0.8126995685741701,-0.5273001744615171,0.047699401417737916
-262.43720602989197,6348.0,10384.0,11296.0,-235.0,-392.0,-169.0,-0.27713077499935496,-0.7975745148557107,-0.5314392711283806,0.06815957675536172
-262.44500279426575,6352.0,10376.0,11140.0,-204.0,-346.0,-196.0,-0.30605168560405266,-0.7808932783773558,-0.5374933422691095,0.08740114724856647
-262.45279264450073,6516.0,10348.0,10916.0,-199.0,-306.0,-191.0,-0.3323698062434171,-0.7637870143024034,-0.543474531374201,0.10389967482300692
-262.46057748794556,6564.0,10300.0,11248.0,-189.0,-313.0,-496.0,-0.35487886122688805,-0.730878242349927,-0.5683232329228837,0.12994880389549673
-262.4683737754822,6488.0,10400.0,10752.0,-138.0,-333.0,-217.0,-0.37755879003768816,-0.7115842126818537,-0.5729944229436449,0.15091275493709144
-262.47621488571167,6496.0,10396.0,10984.0,-68.0,-357.0,-165.0,-0.3972979938193867,-0.6959689614441559,-0.5719862407633932,0.17496642303823645
-262.4840519428253,6192.0,10452.0,11012.0,-88.0,-365.0,-201.0,-0.41758773042031255,-0.6768426320320159,-0.572443566781707,0.19953170604348228
-262.4918465614319,6556.0,10464.0,11052.0,-65.0,-360.0,-186.0,-0.4359763275050041,-0.6584911510364451,-0.5710286759088956,0.22414347447936253
-262.4996385574341,6412.0,10448.0,11124.0,-64.0,-398.0,-96.0,-0.45739744556772644,-0.6430668040922927,-0.5622324655620836,0.2472798352689198
-262.5075032711029,6624.0,10460.0,11156.0,-15.0,-365.0,-38.0,-0.47517193433492233,-0.6324035253613232,-0.5497763114674654,0.268371796730221
-262.5153315067291,6620.0,10528.0,11124.0,17.0,-317.0,-27.0,-0.4887115882567133,-0.6241489697215022,-0.5374495900642292,0.2876577571333336
-262.5231382846832,6564.0,10616.0,11144.0,25.0,-263.0,251.0,-0.5058234391990343,-0.6300700916288214,-0.511599568374979,0.29226735984410684
-262.5309352874756,6568.0,10592.0,11092.0,1.0,-229.0,-254.0,-0.5093818842759443,-0.612656498854113,-0.5151315707070602,0.31594552575433915
-262.5387396812439,6568.0,10540.0,11136.0,-15.0,-122.0,56.0,-0.51727175189627,-0.6111007709766346,-0.5070154727689666,0.3192508304997619
-262.5465295314789,6480.0,10532.0,11100.0,-17.0,-142.0,44.0,-0.5257394496326181,-0.6082705865422221,-0.4986099170417916,0.3240263496617992
-262.5543165206909,6456.0,10592.0,11168.0,-39.0,-160.0,144.0,-0.5388448464466147,-0.6081092849534223,-0.48455434088100846,0.32412408078501853
-262.5621087551117,6400.0,10536.0,11220.0,-35.0,-192.0,137.0,-0.552678291349794,-0.6066889797855399,-0.46905387544602456,0.32628767982643525
-262.56991171836853,6344.0,10552.0,11032.0,-14.0,-240.0,130.0,-0.5668878738744912,-0.6043219643015758,-0.45077003785062764,0.33202330474363945
-262.5777006149292,6352.0,10524.0,11144.0,-32.0,-267.0,117.0,-0.5823844100877702,-0.5993973955551476,-0.43207508812452045,0.3389133802472451
-262.58549547195435,6312.0,10460.0,11036.0,-36.0,-268.0,131.0,-0.5981502511973218,-0.5943622727350569,-0.41241669057366565,0.34476403391024374
-262.5932824611664,6232.0,10496.0,11168.0,-5.0,-299.0,62.0,-0.6109298021251612,-0.587109843465941,-0.3934893256059858,0.3566972935345263
-262.6010789871216,6240.0,10704.0,11024.0,-8.0,-314.0,41.0,-0.6232729322138195,-0.5780756479490902,-0.3746313891463556,0.3701495906847652
-262.60893416404724,6144.0,10476.0,11020.0,-249.0,-370.0,16.0,-0.6480731272304435,-0.5526546422456498,-0.36134043949945116,0.379482746575427
-262.6167690753937,6096.0,10476.0,10916.0,-36.0,-349.0,75.0,-0.6630891044668406,-0.5411339474888341,-0.33886843268303024,0.3907109874875058
-262.62456250190735,6408.0,10724.0,11004.0,-39.0,-315.0,40.0,-0.6754633046152808,-0.5290845905165645,-0.319805057120355,0.4019248009719854
-262.63235998153687,6476.0,10456.0,10988.0,244.0,-385.0,38.0,-0.6758507834270031,-0.530571510511133,-0.28640680586182365,0.42389943657790863
-262.640150308609,6492.0,10396.0,11224.0,-72.0,-448.0,34.0,-0.6912129155884724,-0.510153853696371,-0.26070069502900306,0.44045760124422856
-262.6479344367981,6484.0,10420.0,11060.0,-66.0,-504.0,12.0,-0.7055022775752889,-0.4865438002189258,-0.23189174406003593,0.46018244842823053
-262.6557266712189,6476.0,10696.0,11040.0,-63.0,-550.0,-28.0,-0.7174603310113248,-0.4594194460766867,-0.20131372347344953,0.4833810409324783
-262.66350984573364,6460.0,10488.0,11020.0,-65.0,-501.0,-36.0,-0.726754001307729,-0.43310028195716965,-0.17374652604084004,0.504048521514115
-262.6712954044342,6548.0,10744.0,11016.0,-72.0,-482.0,-122.0,-0.7308262663097471,-0.40503219290038417,-0.15057931762350285,0.5283632843887818
-262.67909026145935,6596.0,10536.0,11052.0,-96.0,-430.0,-173.0,-0.7313771073439973,-0.37642340636076865,-0.13333883734069404,0.552823389929835
-262.6868779659271,6632.0,10480.0,11128.0,-122.0,-447.0,-248.0,-0.7279594061244344,-0.34375825137894894,-0.11846021631387088,0.5812680490055504
-262.69469952583313,6600.0,10404.0,11248.0,-179.0,-468.0,-259.0,-0.7242492558855763,-0.30553281069284405,-0.10518232195492527,0.6091382405394448
-262.70248556137085,6600.0,10004.0,11092.0,-176.0,-513.0,-329.0,-0.7151548632308259,-0.2636495459385531,-0.0904658575197922,0.6409823454252872
-262.71029114723206,6568.0,10288.0,11268.0,-171.0,-563.0,-323.0,-0.7043358017131531,-0.21850461266398494,-0.07190469092948087,0.6715627506733735
-262.71807622909546,6668.0,10320.0,10972.0,-84.0,-551.0,-312.0,-0.6901017248639185,-0.17877153260307913,-0.0485227937186769,0.6996040930128451
-262.7258653640747,6520.0,10312.0,11244.0,-18.0,-551.0,-295.0,-0.6737517802213472,-0.14255140342019587,-0.02069036865278441,0.72478241195307
-262.7336585521698,6452.0,10244.0,10908.0,4.0,-266.0,-241.0,-0.6586541359167742,-0.12544237592910676,-0.007466880324493108,0.7418781471772893
-262.74144983291626,6484.0,10244.0,10760.0,57.0,-755.0,-146.0,-0.6476294820787032,-0.079541649709312,0.03826129398323588,0.7568257747240906
-262.74924898147583,6512.0,10488.0,11060.0,43.0,-487.0,-66.0,-0.6407581234306424,-0.04998256712814233,0.06842974206226819,0.7630518597331468
-262.75703263282776,6588.0,10456.0,11128.0,78.0,-430.0,225.0,-0.6522228643091559,-0.024360438738088373,0.0988815186989007,0.751155343159221
-262.76482939720154,6504.0,10428.0,11164.0,81.0,-421.0,94.0,-0.6540754819393535,-0.0006074172325377223,0.1285751171111634,0.7454215815429269
-262.7726089954376,6608.0,10408.0,11092.0,113.0,-332.0,215.0,-0.6638642331308503,0.016873905200713697,0.15509576372894895,0.7313992448493499
-262.7804057598114,6572.0,10476.0,11056.0,121.0,-295.0,203.0,-0.6725905706801012,0.03132672806820375,0.1798092459346206,0.7171535368504988
-262.7881853580475,6632.0,10448.0,11088.0,116.0,-206.0,223.0,-0.6832968986783552,0.04077177078824546,0.19875586840180737,0.701383715051309
-262.79602217674255,6412.0,10252.0,11140.0,109.0,-154.0,209.0,-0.6935297713119074,0.047158091547054845,0.21407247113696556,0.6862692968558378
-262.80378913879395,6676.0,10436.0,11192.0,174.0,-126.0,192.0,-0.7030952007345341,0.04758023144472538,0.23151561203583534,0.6706666695635053
-262.81160855293274,6572.0,10488.0,11088.0,211.0,-125.0,149.0,-0.709865005620575,0.044761186456301526,0.2510813317347185,0.6565411448162602
-262.8194007873535,6656.0,10432.0,11496.0,224.0,-136.0,118.0,-0.714212172953131,0.04104570878832672,0.2720202605106139,0.64360018619277
-262.8271903991699,6632.0,10392.0,11248.0,196.0,-146.0,72.0,-0.715226809082772,0.03851070784786362,0.2920084728510409,0.6337969617578927
-262.8349726200104,6592.0,10372.0,11236.0,191.0,-141.0,47.0,-0.714623021329311,0.035340317849248744,0.3113341627882721,0.6254086970944737
-262.84278082847595,6564.0,10336.0,11280.0,156.0,-121.0,-226.0,-0.6991457594840097,0.025810446092800445,0.3281404122838446,0.634706938432381
-262.85058069229126,6576.0,10364.0,11204.0,140.0,-112.0,-242.0,-0.6825125649017973,0.016278053318833814,0.3433068793910049,0.6450209378726623
-262.8583633899689,6576.0,10436.0,11240.0,161.0,-201.0,-217.0,-0.6641125109330306,0.0112328633981137,0.36463083979800137,0.6525892630669837
-262.8661527633667,6484.0,10376.0,11152.0,193.0,-156.0,30.0,-0.6607821441047274,0.009601098901375196,0.3846451124634366,0.6444555177746837
-262.87394285202026,6540.0,10508.0,11080.0,172.0,-189.0,40.0,-0.6565625025309396,0.01135369065308994,0.40513608074166807,0.6361301203843003
-262.88172125816345,6480.0,10512.0,11160.0,123.0,-204.0,66.0,-0.6529016907999139,0.017660750044439785,0.4234727585924219,0.6277565633178245
-262.88951778411865,6160.0,10472.0,10940.0,108.0,-206.0,-9.0,-0.6447642646065772,0.02217186189152011,0.44098892372157167,0.6239520981465587
-262.89730882644653,6492.0,10444.0,10956.0,46.0,-123.0,19.0,-0.6410625530831754,0.02674840153895446,0.45025453663112475,0.6209623002185262
-262.90509009361267,6548.0,10404.0,10784.0,61.0,-86.0,-58.0,-0.6346026913099871,0.02546156950239017,0.45838001112100707,0.6217064404244994
-262.9129469394684,6476.0,10412.0,10836.0,116.0,-119.0,-26.0,-0.6285877118505679,0.0242132839271344,0.4711532537258775,0.6183088361777231
-262.92076992988586,6460.0,10428.0,10908.0,173.0,-117.0,3.0,-0.6241815062781481,0.020942170697267393,0.4866831753630684,0.6108177793133968
-262.92855167388916,6560.0,10432.0,10876.0,167.0,-115.0,-33.0,-0.6177384473875777,0.016382578905187607,0.5016780150740902,0.6053511302697973
-262.9363453388214,6580.0,10496.0,10828.0,166.0,-136.0,228.0,-0.6238438559658264,0.024427116884964163,0.5171018843368858,0.5855149874679724
-262.9441273212433,6604.0,10520.0,11128.0,115.0,-144.0,32.0,-0.6191598062617675,0.02681219966958013,0.5305198011991917,0.5783346615882011
-262.951922416687,6744.0,10744.0,11312.0,83.0,-161.0,95.0,-0.6166196300231779,0.03470527331134815,0.5429406974675149,0.569026515118542
-262.95972657203674,6828.0,10512.0,11084.0,84.0,-99.0,45.0,-0.6144009326162391,0.03709613188114476,0.5521053997691832,0.562418881746926
-262.96751642227173,6760.0,10468.0,11048.0,108.0,-94.0,49.0,-0.6126036194420023,0.03814718813485292,0.5620823918920441,0.5543689946316274
-262.97533106803894,6816.0,10500.0,11484.0,87.0,-2.0,26.0,-0.614070971039464,0.03474883382644609,0.5661345859970365,0.5488178127687878
-262.9831168651581,6840.0,10516.0,11268.0,41.0,63.0,-250.0,-0.6052101384558304,0.017058049658111873,0.5651712458507949,0.5603669994883679
-262.99090790748596,6664.0,10496.0,11180.0,46.0,123.0,-32.0,-0.6097777161463465,0.006928972861273742,0.5607631704088724,0.5600605261392945
-262.9987304210663,6576.0,10728.0,11188.0,246.0,142.0,-15.0,-0.6159912992188232,-0.01394228265529024,0.5648961293592546,0.548864915143971
-263.00652384757996,6380.0,10348.0,11084.0,49.0,171.0,-78.0,-0.6205827472957882,-0.028697632343648655,0.5576969653710826,0.5504794223879454
-263.01431369781494,6324.0,10400.0,11124.0,42.0,128.0,-19.0,-0.6257991323138083,-0.03812567234892257,0.5525131199101511,0.5492277591586008
-263.0221264362335,6128.0,10496.0,11248.0,94.0,41.0,-42.0,-0.6254687692489231,-0.047329267323730474,0.5544311258602186,0.5469505332534257
-263.02991557121277,6152.0,10432.0,10812.0,81.0,-8.0,-43.0,-0.6227239481809874,-0.05352385190832436,0.5583550957725412,0.5455177986680314
-263.037713766098,6268.0,10432.0,10912.0,145.0,-93.0,-16.0,-0.6167384928486247,-0.057813896567742794,0.5699910495296565,0.5398160689147199
-263.04549908638,6268.0,10404.0,10936.0,119.0,-147.0,16.0,-0.6095565642340997,-0.05654345303139275,0.5833318687290748,0.5338235324931376
-263.0532808303833,6440.0,10428.0,10928.0,142.0,-221.0,-39.0,-0.5956921179455108,-0.055819362287470864,0.6011772314827286,0.5297367608144385
-263.06107354164124,6544.0,10576.0,10940.0,171.0,-255.0,51.0,-0.5836908259024373,-0.050266238228554486,0.6221928318377784,0.5192825869036692
-263.0688717365265,6488.0,10532.0,11216.0,178.0,-222.0,-244.0,-0.5595653818409717,-0.06252844472609918,0.6399960546339483,0.52285928039797
-263.07665276527405,6640.0,10496.0,11008.0,215.0,-150.0,-44.0,-0.5479355863886235,-0.06864355516536869,0.6565608033792024,0.5137923383715162
-263.08443808555603,6704.0,10436.0,11132.0,182.0,-153.0,-47.0,-0.5359314414732683,-0.07317641344094758,0.6714576120712232,0.5065248046719085
-263.0922157764435,6744.0,10412.0,11016.0,161.0,-106.0,-92.0,-0.5246159040056559,-0.08140765562124454,0.6826817557087334,0.5020921900338847
-263.1000587940216,6760.0,10492.0,11032.0,180.0,-114.0,-73.0,-0.5133314628342825,-0.08899036395421739,0.6949958984631173,0.49553226484978335
-263.1078715324402,6756.0,10700.0,11048.0,157.0,-49.0,-144.0,-0.5029057655546629,-0.1026237092085817,0.7025976881632455,0.4928596695488622
-263.11566638946533,6752.0,10740.0,11028.0,137.0,-49.0,-180.0,-0.49091831262818203,-0.1175393447818154,0.7087507266817996,0.4928043426985816
-263.12349581718445,6672.0,10532.0,11024.0,85.0,-45.0,-214.0,-0.478047940605854,-0.1324440028111201,0.7118593940393027,0.49717698631359314
-263.1312894821167,6424.0,10492.0,11024.0,26.0,-105.0,-2.0,-0.4712071604089844,-0.1290713329319238,0.7171860394671059,0.4969392194101455
-263.1390836238861,6600.0,10472.0,11148.0,17.0,-73.0,-235.0,-0.4562387108391569,-0.14126276036910346,0.7179855056242958,0.506347593040739
-263.14688324928284,6540.0,10748.0,11132.0,-42.0,-103.0,-196.0,-0.4416456335271555,-0.14726738423301255,0.7175503739820288,0.5180568624444756
-263.15470480918884,6648.0,10388.0,11132.0,-31.0,-163.0,-210.0,-0.4223190348209145,-0.15177941109118723,0.71941462087271,0.5301436092902738
-263.16249561309814,6420.0,10324.0,11068.0,-65.0,-168.0,-187.0,-0.40396772194417374,-0.1532754244385132,0.7198173760354561,0.543304398148827
-263.1702923774719,6472.0,10060.0,11012.0,-4.0,-180.0,-204.0,-0.38302531738448287,-0.15732847958542867,0.7229246865101924,0.5530996776241999
-263.17809104919434,6504.0,10180.0,11100.0,35.0,-495.0,-196.0,-0.34157237057442025,-0.1467629351850444,0.7375611944917454,0.5637308230848757
-263.1858911514282,6504.0,10216.0,10760.0,43.0,-241.0,-137.0,-0.3187635155727019,-0.144915218293882,0.7447755987551529,0.568065760405846
-263.1936764717102,6592.0,10320.0,11128.0,80.0,-283.0,-101.0,-0.2943300453645733,-0.1395750077441956,0.7549564667361279,0.5691479376596192
-263.20147156715393,6600.0,10272.0,11124.0,51.0,-257.0,-117.0,-0.27096604045826267,-0.1357374868370076,0.7623268892300691,0.5718482784291217
-263.20927810668945,6584.0,10356.0,11120.0,-248.0,-149.0,-141.0,-0.25693818156126114,-0.1317164718686249,0.7514020884900875,0.5933198490756979
-263.2170808315277,6632.0,10360.0,11012.0,235.0,-144.0,-121.0,-0.23853330386668878,-0.1373650928369441,0.7650476435871741,0.5821810691340383
-263.22486996650696,6652.0,10404.0,11240.0,-39.0,-108.0,-158.0,-0.22381465249664326,-0.14154368468399917,0.7632120463632632,0.5893893101676375
-263.23264336586,6504.0,10240.0,11168.0,-15.0,-123.0,-149.0,-0.20819737592505969,-0.14477396733234454,0.7627978254867019,0.5948393299652702
-263.2404384613037,6460.0,10344.0,11164.0,241.0,-154.0,-129.0,-0.1882162443066142,-0.14963482481578536,0.7760976402580099,0.5829721411589158
-263.2482395172119,6488.0,10284.0,11168.0,34.0,-219.0,-155.0,-0.16508717688513638,-0.14945287943045435,0.7790966908240722,0.5860191184637425
-263.25606536865234,6420.0,10464.0,11052.0,97.0,-245.0,-40.0,-0.14515790180446467,-0.14094367589801693,0.7867689769228473,0.583145471318998
-263.26386404037476,6500.0,10452.0,11224.0,158.0,-272.0,-70.0,-0.12100345308328865,-0.13379985506718872,0.7969992279664734,0.5764095711790057
-263.27165269851685,6556.0,10384.0,10900.0,207.0,-263.0,-254.0,-0.08752928231522443,-0.14027621593987144,0.8066057853471178,0.567493008788242
-263.27948546409607,6600.0,10468.0,10972.0,200.0,-267.0,19.0,-0.06727007323468706,-0.1271313369226717,0.818364630136945,0.55640964456062
-263.28727650642395,6908.0,10448.0,10756.0,191.0,-269.0,3.0,-0.04613651943706116,-0.11487227050502562,0.8288407698109737,0.5456177795328946
-263.29507184028625,6688.0,10480.0,11084.0,173.0,-180.0,49.0,-0.03377322350750452,-0.10337645055419563,0.8380215111715427,0.5346892795432614
-263.302871465683,6664.0,10468.0,11080.0,107.0,-229.0,26.0,-0.017331169873553227,-0.09103319608875306,0.8436507842643285,0.528834512840136
-263.3107211589813,6412.0,10480.0,11032.0,82.0,-188.0,4.0,-0.0030804635059923135,-0.08212723887441495,0.8475497564244302,0.524313873328126
-263.31850695610046,6564.0,10516.0,11164.0,35.0,-164.0,-9.0,0.009654799986685681,-0.07524532736151084,0.8489741934339639,0.5229605572417739
-263.32629442214966,6480.0,10416.0,11152.0,39.0,-120.0,-251.0,0.030195580629471204,-0.08826669303995369,0.8486853159365171,0.5206058512194941
-263.33408212661743,6472.0,10420.0,11188.0,71.0,-111.0,-21.0,0.03986122920065328,-0.08454008429410599,0.851337480631297,0.516225290572357
-263.3418707847595,6448.0,10440.0,11112.0,38.0,-80.0,-70.0,0.04918384543915848,-0.08595591242600281,0.8521520375357723,0.5138379466237017
-263.3496572971344,6504.0,10424.0,11068.0,79.0,-63.0,-66.0,0.0573655682640936,-0.08764998674131355,0.8548224494556883,0.5082373966057225
-263.35744047164917,6496.0,10404.0,11040.0,85.0,-74.0,-105.0,0.06813644041876156,-0.09172260257918616,0.8572840292183213,0.502004465030304
-263.36522817611694,6576.0,10488.0,11036.0,132.0,-9.0,-103.0,0.07431963407721658,-0.09819455082304203,0.8620423329555286,0.49164767707361273
-263.3730254173279,6548.0,10460.0,11120.0,136.0,-4.0,-95.0,0.07980382748093154,-0.10423331087029289,0.8668950435223587,0.48089473852474024
-263.3808135986328,6580.0,10484.0,11480.0,121.0,-61.0,-90.0,0.08924089821789565,-0.10758590883712685,0.8705925906741797,0.4717307233668089
-263.38860726356506,6420.0,10456.0,11516.0,149.0,-95.0,-96.0,0.10175087694843919,-0.10974937716412193,0.8749037325004825,0.46059232745350326
-263.39641761779785,6460.0,10452.0,11060.0,185.0,-119.0,-109.0,0.11692060893667275,-0.11157744694728104,0.8799936686488008,0.44664436375782146
-263.4042069911957,6360.0,10252.0,11184.0,187.0,-82.0,-65.0,0.12751010755192022,-0.11140367081535821,0.8856173835189205,0.43244912372447036
-263.41215085983276,6344.0,10428.0,11072.0,250.0,-151.0,-26.0,0.14250839883782407,-0.10485547316595586,0.8927892769716788,0.4142752622740229
-263.4199824333191,6312.0,10372.0,11012.0,261.0,-140.0,-32.0,0.15687437160543136,-0.09896685846441156,0.8998524562092602,0.39479304643477137
-263.42778491973877,6368.0,10312.0,10808.0,225.0,-121.0,-19.0,0.1688994172121629,-0.09314661877550899,0.9055249586290792,0.37791697974010896
-263.4355733394623,6388.0,10344.0,10996.0,163.0,-120.0,-16.0,0.18017717730218374,-0.08799887719168731,0.908827757873477,0.36582029592559284
-263.44337224960327,6384.0,10388.0,10808.0,199.0,-162.0,-19.0,0.19508449009045373,-0.08114620998788946,0.9122279302979109,0.35099506765072747
-263.45116090774536,6152.0,10472.0,11052.0,221.0,-183.0,-251.0,0.21876638273297408,-0.09167758855746178,0.9135708527862595,0.3303404100039911
-263.4589636325836,6460.0,10708.0,11004.0,222.0,-182.0,-9.0,0.23521850579577053,-0.08284561514171013,0.9161115044339851,0.3139244654796704
-263.4667618274689,6536.0,10412.0,11452.0,205.0,-172.0,18.0,0.24987497589038485,-0.07242940913096688,0.9180519310096366,0.2991607077913074
-263.47462916374207,6616.0,10440.0,11184.0,183.0,-114.0,-24.0,0.26073045911281423,-0.06733764433148026,0.9200047198617172,0.2847395033690819
-263.482439994812,6612.0,10404.0,11136.0,219.0,-116.0,56.0,0.26986025124770785,-0.054925213444635544,0.9228884796232805,0.26913847718825906
-263.4902596473694,6652.0,10456.0,11184.0,244.0,-110.0,67.0,0.27822457696689035,-0.04115041880687838,0.9260617491399905,0.251609547878046
-263.4980912208557,6900.0,10468.0,11096.0,0.0,-150.0,8.0,0.29013791571851727,-0.03717366230714884,0.9223475673747783,0.25241448779936837
-263.50589060783386,6684.0,10500.0,10940.0,506.0,-112.0,49.0,0.2994002463619777,-0.017893211084800048,0.9298412463449173,0.21315389292994988
-263.51372027397156,6720.0,10412.0,11000.0,266.0,-36.0,14.0,0.30238928266891435,-0.009101741490610342,0.9335979889753763,0.19202258984283765
-263.5215275287628,6656.0,10460.0,10912.0,264.0,-51.0,0.0,0.3066679820221539,-0.0012482835542081403,0.9364040055528018,0.17058935774337308
-263.5293278694153,6636.0,10452.0,10960.0,302.0,-40.0,26.0,0.30947256454136385,0.00958219070891649,0.9394852156165476,0.1466371134990675
-263.537118434906,6572.0,10736.0,10960.0,262.0,-47.0,-24.0,0.31333146168812265,0.015316721881091306,0.9413210865071133,0.12451267101893469
-263.54494762420654,6576.0,10508.0,10996.0,210.0,-32.0,23.0,0.3153787602681547,0.02332042169176083,0.9425227177870827,0.10790422586299143
-263.5527238845825,6576.0,10472.0,11236.0,183.0,-26.0,28.0,0.3168450666479603,0.03092801902792034,0.9433377229206305,0.0936301334762371
-263.5605220794678,6592.0,10444.0,11064.0,160.0,-11.0,42.0,0.316948549757355,0.038922394547748616,0.9441193567358822,0.08165356235953711
-263.56831073760986,6524.0,10424.0,11176.0,168.0,21.0,132.0,0.313658647663567,0.054314083639712823,0.9452739076801687,0.07159240548622679
-263.5761294364929,6476.0,10312.0,11148.0,196.0,251.0,57.0,0.2915537459618602,0.06281343817272872,0.9527126562563468,0.05821923916974147
-263.5839192867279,6512.0,10280.0,10948.0,217.0,50.0,60.0,0.2858483019320233,0.07307844205080326,0.9545591970663992,0.042036042700967294
-263.5917077064514,6552.0,10312.0,11116.0,216.0,251.0,78.0,0.26315900710315054,0.0840296503063395,0.9606884596450229,0.027641243726562275
-263.5995206832886,6500.0,10300.0,11064.0,299.0,252.0,49.0,0.23957646068560842,0.09436173645322184,0.9662647556810112,0.005603936795283196
-263.60734367370605,6464.0,10400.0,10776.0,294.0,-55.0,107.0,0.24165007913387493,0.1095366829508362,0.9640053613923408,-0.017338326030575623
-263.61515951156616,6572.0,10452.0,10952.0,305.0,-45.0,47.0,0.2425050648985938,0.11982877463213054,0.9617886703189105,-0.04236640077789446
-263.6229634284973,6740.0,10456.0,10976.0,329.0,-26.0,88.0,0.24146856434225886,0.13404108898648306,0.9586760013479376,-0.06830990658268453
-263.6307544708252,6768.0,10504.0,10948.0,316.0,-32.0,73.0,0.24079203542680688,0.1465754294152274,0.954878441250954,-0.09349867165315943
-263.63854598999023,6756.0,10536.0,10952.0,270.0,-68.0,21.0,0.2431112731748962,0.15341450302977286,0.9506965868432895,-0.11634817952992833
-263.6463325023651,6752.0,10548.0,10912.0,508.0,-19.0,58.0,0.23824445137176392,0.16866147416088378,0.9434198748889584,-0.15732713748411964
-263.65412616729736,6852.0,10464.0,10916.0,227.0,-11.0,22.0,0.23607196130550534,0.17502072085114576,0.939566126791887,-0.1756509884498491
-263.6619076728821,6900.0,10548.0,10988.0,215.0,-45.0,250.0,0.24021893872412456,0.1991939073460847,0.9311324533208994,-0.1887034793718913
-263.6696960926056,6832.0,10604.0,10912.0,181.0,-52.0,-255.0,0.2370189582633822,0.1813486442299361,0.9311408336201257,-0.20955054432027334
-263.67748165130615,6820.0,10548.0,11000.0,163.0,-28.0,10.0,0.2368834693801308,0.1850135594025731,0.9273271499747112,-0.22298107922288538
-263.6852767467499,6768.0,10248.0,10848.0,147.0,253.0,21.0,0.21437811954466465,0.19462469191274578,0.9290561667867234,-0.23025614023066204
-263.6930582523346,6788.0,10488.0,10868.0,139.0,-42.0,213.0,0.21965684091101134,0.21361183507105977,0.9216274018412409,-0.23816756356383353
-263.700852394104,6724.0,10472.0,10880.0,164.0,-3.0,9.0,0.2170158300724564,0.21740598835299996,0.9179006189352729,-0.25119159915184475
-263.70864033699036,6652.0,10420.0,10900.0,158.0,7.0,-86.0,0.21155586811969002,0.21364499015966137,0.9160900993248299,-0.2652901482581399
-263.7164783477783,6652.0,10428.0,10864.0,184.0,15.0,-106.0,0.2044451672507716,0.20888648132580978,0.9139276871704924,-0.2816110689058948
-263.7242679595947,6592.0,10368.0,10788.0,213.0,-53.0,-60.0,0.20328401627915668,0.20656531270679035,0.9086629853814093,-0.30056273772626246
-263.73212909698486,6676.0,10296.0,10816.0,220.0,-46.0,-104.0,0.20019937403984758,0.20097300674229662,0.9037405868575784,-0.3205978990282589
-263.7399196624756,6632.0,10240.0,10840.0,234.0,-99.0,-19.0,0.20333118342506074,0.20074915551731853,0.8955744719711183,-0.34103162838613704
-263.74769353866577,6688.0,10284.0,10812.0,273.0,-107.0,-29.0,0.20599023712670558,0.20008146937050986,0.885763034270772,-0.36463581138233886
-263.75551867485046,6704.0,10236.0,11216.0,374.0,-139.0,-39.0,0.20884738017128812,0.19924893867573884,0.8715036795016973,-0.39643911114720276
-263.76333928108215,6808.0,10340.0,10872.0,377.0,-131.0,-20.0,0.2114466259896352,0.1999487913576036,0.855890902401798,-0.4275062202799729
-263.77112770080566,6764.0,10472.0,10884.0,372.0,-111.0,-4.0,0.21298811133238657,0.20226032516021292,0.8395388988758786,-0.4570571764795135
-263.778924703598,6836.0,10444.0,10868.0,398.0,-100.0,39.0,0.2147201618521823,0.20839467758420036,0.8205682526042036,-0.48696473513677935
-263.78673934936523,6912.0,10448.0,10720.0,403.0,-146.0,68.0,0.22059379027941398,0.214458718136384,0.7988740973490309,-0.5168616976428335
-263.7945137023926,6804.0,10408.0,10936.0,446.0,-111.0,39.0,0.22158244369798197,0.220578153239622,0.7752326073353246,-0.5488723927128262
-263.80229139328003,6796.0,10380.0,10688.0,431.0,-114.0,37.0,0.22261985601314713,0.2257809650180275,0.7510636226621428,-0.579108616977707
-263.810090303421,6792.0,10424.0,10652.0,442.0,-142.0,6.0,0.2233583399110849,0.2273929640303248,0.7252110321767491,-0.6103052111122779
-263.8178746700287,6820.0,10444.0,10620.0,449.0,-166.0,-8.0,0.2243536366840643,0.2265908300414052,0.6975604172661906,-0.6416630780333245
-263.82567167282104,6868.0,10448.0,10576.0,501.0,-147.0,51.0,0.22603682271330564,0.23102019830749757,0.6648613193588107,-0.6734214495931207
-263.8334743976593,6864.0,10312.0,10980.0,438.0,-155.0,14.0,0.2268599310350574,0.2311564023892372,0.6351861954430383,-0.7011702977478668
-263.8412606716156,6900.0,10340.0,10772.0,422.0,-196.0,69.0,0.23326392782975763,0.23112715033159417,0.6035006817877946,-0.7266051936469333
-263.84905338287354,6972.0,10396.0,10700.0,477.0,-170.0,153.0,0.242069200705618,0.23783922871010418,0.5660088301554121,-0.7513115249631326
-263.8568425178528,6684.0,10488.0,10912.0,514.0,-195.0,141.0,0.25000511193319497,0.24255244160758035,0.5245068009664676,-0.7768901935392121
-263.86463809013367,6960.0,10468.0,10604.0,510.0,-112.0,146.0,0.25398613512194573,0.25245382836847124,0.48372909587088675,-0.7986014459765608
-263.8724229335785,7100.0,10472.0,10748.0,527.0,-120.0,131.0,0.25630724476228306,0.26095352419458,0.44079615853587706,-0.8197003117681546
-263.880215883255,7144.0,10388.0,10844.0,587.0,-81.0,132.0,0.2551797583501258,0.27293423246633836,0.3932803506706902,-0.8400718787417664
-263.88804960250854,7044.0,10404.0,10872.0,652.0,-42.0,87.0,0.24710349126896883,0.2868269069553879,0.34173660748360773,-0.860166426428448
-263.89584398269653,6908.0,10360.0,11208.0,602.0,35.0,54.0,0.23476266001522816,0.3035504229604026,0.29535407905104766,-0.8749340558985247
-263.90363359451294,6952.0,10332.0,10868.0,577.0,43.0,31.0,0.2205034439284246,0.3189607473479278,0.2508456076804582,-0.8869716759707591
-263.9114284515381,6956.0,10472.0,10664.0,615.0,100.0,96.0,0.2083649492823718,0.34002655351004435,0.20199000252277838,-0.8945199996084401
-263.9192180633545,6904.0,10668.0,10688.0,610.0,49.0,93.0,0.19643370203912439,0.35595381865744613,0.1520790160693412,-0.9008788223494698
-263.9270157814026,6844.0,10596.0,10704.0,628.0,-10.0,125.0,0.1866600813985512,0.3668925357354219,0.09829597969573747,-0.9060274728779331
-263.9348530769348,6812.0,10628.0,10748.0,605.0,-45.0,203.0,0.1835129058822172,0.37420416046065846,0.0429581692006436,-0.9079916604063757
-263.94264936447144,6908.0,10616.0,10548.0,629.0,-79.0,186.0,0.17779102819402376,0.37792688224694887,-0.014397970912411757,-0.90849013225374
-263.95043540000916,6720.0,10564.0,10504.0,728.0,-79.0,264.0,0.17429748941701603,0.38157040895204336,-0.08205385085971001,-0.9040417986764705
-263.9582290649414,7164.0,10452.0,10736.0,728.0,-251.0,272.0,0.16938178830648506,0.3697552359603556,-0.15215296967217604,-0.9007998385268152
-263.96603536605835,6992.0,10368.0,10392.0,797.0,-244.0,282.0,0.16221798662124665,0.3573407415909258,-0.22700450248720516,-0.8913259084455767
-263.9738121032715,6892.0,10368.0,10484.0,802.0,48.0,237.0,0.15628992217051194,0.36652698211471246,-0.2954433171935846,-0.8682998778852082
-263.981595993042,6864.0,10292.0,10300.0,839.0,80.0,180.0,0.1448672010014135,0.3780986345250562,-0.362760803267962,-0.8393208660915604
-263.98941683769226,6844.0,10144.0,10548.0,819.0,72.0,93.0,0.12672576569002061,0.389557163193629,-0.42386587882792365,-0.8077892755417359
-263.9972085952759,6700.0,10184.0,10792.0,778.0,115.0,23.0,0.1060197839900769,0.4042765575970128,-0.4771291488201446,-0.7730899337893173
-264.004980802536,6748.0,10252.0,10780.0,743.0,29.0,1.0,0.08102237683245074,0.41203152446872876,-0.5259322156128311,-0.7396355196155566
-264.0128149986267,6676.0,10384.0,10664.0,744.0,-42.0,44.0,0.05517133334692878,0.4115388292352564,-0.5746203962260994,-0.7052682583594395
-264.020614862442,6696.0,10624.0,10884.0,725.0,-160.0,43.0,0.02380345220697586,0.4020451514339623,-0.620246602350175,-0.6731175559622079
-264.02840852737427,6632.0,10628.0,10688.0,708.0,-206.0,40.0,-0.009728349742591258,0.38832350007144045,-0.6622819291774036,-0.6406971708916847
-264.036199092865,6688.0,10636.0,10788.0,731.0,-289.0,50.0,-0.04821498817446693,0.3676778182175858,-0.7029292715067295,-0.6069421522394953
-264.0440080165863,6760.0,10536.0,10672.0,761.0,-298.0,137.0,-0.08336720350658854,0.33930215998822344,-0.7444186291644257,-0.5690033902884712
-264.0518069267273,6840.0,10316.0,10540.0,853.0,-362.0,135.0,-0.12496044201353103,0.30524387478205567,-0.7855041444000878,-0.5236356595669414
-264.0596091747284,6868.0,10324.0,10436.0,1011.0,-404.0,84.0,-0.17490600542012968,0.2687029209421175,-0.8257805833274782,-0.4639968294551994
-264.0673916339874,6672.0,10012.0,10020.0,1195.0,-356.0,29.0,-0.22603783939549252,0.2325164429081396,-0.864300980380702,-0.3844825278887464
-264.07518696784973,6768.0,9808.0,10232.0,1361.0,-358.0,-79.0,-0.28116961243510347,0.19806752153337823,-0.8945553426144077,-0.28545340242627687
-264.0829756259918,6572.0,9556.0,10780.0,1300.0,-337.0,-319.0,-0.3354701069815391,0.18132642327442608,-0.9065991667026583,-0.18071659159674314
-264.0907688140869,6560.0,9404.0,11012.0,1075.0,-195.0,-398.0,-0.3722835629965574,0.17732784926026898,-0.9068863448937281,-0.0867002886074199
-264.09855675697327,6868.0,9868.0,11144.0,1001.0,-100.0,-206.0,-0.3956750283052072,0.15968362570810424,-0.9043986082516755,-0.0023598832216294753
-264.1063482761383,7272.0,10868.0,10456.0,1090.0,-189.0,-5.0,-0.4238290206993298,0.12180067916175483,-0.8938704520893979,0.08080328366024202
-264.1141426563263,7076.0,11952.0,10452.0,1037.0,-418.0,118.0,-0.4660829853737476,0.0767815938900557,-0.8681744967195192,0.15213244502934684
-264.1219425201416,7048.0,12592.0,10636.0,852.0,-552.0,164.0,-0.5137703481203577,0.03684292654827749,-0.8321459159645417,0.20546484540956972
-264.1297254562378,7116.0,12696.0,10680.0,585.0,-567.0,177.0,-0.558579063898053,0.007865943457505747,-0.7946719562617407,0.23753744597312745
-264.1375639438629,7376.0,12340.0,10904.0,417.0,-442.0,222.0,-0.5932372713273066,-0.018706902416833024,-0.7633764004860261,0.2549040268240126
-264.1453552246094,7540.0,11980.0,10788.0,305.0,-317.0,355.0,-0.6210664593865951,-0.05107952759555485,-0.7386508777372016,0.2570257101997292
-264.15315437316895,7556.0,11644.0,11032.0,333.0,-334.0,380.0,-0.6488033619046083,-0.08606074536272389,-0.7103290280263866,0.2589988757349707
-264.16095304489136,7380.0,11352.0,10944.0,280.0,-140.0,290.0,-0.6615520902679588,-0.1166973488597839,-0.6933425284277062,0.2607809404551413
-264.1687750816345,7460.0,11040.0,10776.0,251.0,10.0,185.0,-0.6624334777181123,-0.14260702917862517,-0.6859938388505091,0.265061456810068
-264.17655324935913,7584.0,10796.0,11064.0,199.0,180.0,50.0,-0.6502307109621263,-0.1612680400410744,-0.6909039389229037,0.2717432408797223
-264.18433475494385,7308.0,10724.0,10780.0,206.0,295.0,2.0,-0.6293573180471642,-0.1800301511971888,-0.7023146174968113,0.27973682083470064
-264.19214248657227,7180.0,10320.0,11072.0,235.0,402.0,-18.0,-0.6001632353198744,-0.2015217307884129,-0.7182822350115752,0.28855452492934447
-264.19992852211,7028.0,10184.0,11016.0,251.0,405.0,-59.0,-0.5684460502196195,-0.22101120119083748,-0.7335107664238804,0.2999751531013006
-264.2077171802521,6884.0,10248.0,10972.0,270.0,518.0,-245.0,-0.5229295121863949,-0.2319607785658221,-0.7556639889725678,0.3189213982499504
-264.2155570983887,6680.0,10420.0,10848.0,294.0,536.0,72.0,-0.4829950555086122,-0.2646977383332024,-0.7693338085201499,0.3236917897374008
-264.2233703136444,6556.0,10548.0,10824.0,320.0,532.0,86.0,-0.4417061004633471,-0.29857568114671024,-0.7795307519533896,0.3287553652797541
-264.23115253448486,6436.0,10580.0,10688.0,311.0,457.0,31.0,-0.4029807384197361,-0.32543468250896634,-0.786468249281868,0.3364022662743016
-264.23893213272095,6408.0,10576.0,10720.0,251.0,352.0,119.0,-0.37494602459121473,-0.3525211473199853,-0.7874681561774689,0.33917285024291477
-264.2467110157013,6468.0,10596.0,10756.0,179.0,253.0,134.0,-0.3559104828728731,-0.3749378061506214,-0.7859589127633844,0.33914297449299463
-264.2544803619385,6560.0,10632.0,10900.0,162.0,238.0,125.0,-0.33790266553669324,-0.3954623788422219,-0.7841482831215862,0.338441672406217
-264.26226782798767,6592.0,10644.0,10776.0,195.0,179.0,101.0,-0.32185150022120984,-0.41330707372708847,-0.7799204557308017,0.342509791604804
-264.27007007598877,6596.0,10656.0,10668.0,251.0,184.0,75.0,-0.3024393594101467,-0.4308154115926714,-0.7745569568837691,0.35069935209060826
-264.2778503894806,6736.0,10708.0,11004.0,365.0,194.0,58.0,-0.2772317419344014,-0.4500294917529219,-0.7657964781577298,0.3662946516915612
-264.2856397628784,6712.0,10508.0,10512.0,345.0,205.0,76.0,-0.25228593352980383,-0.46973054599565045,-0.7562428554457492,0.37921203236300843
-264.29341292381287,6592.0,10788.0,10580.0,379.0,251.0,98.0,-0.22327637855311727,-0.49246436113757774,-0.7445765790976191,0.39144888510359743
-264.30121064186096,6588.0,10816.0,10660.0,370.0,195.0,87.0,-0.1975699970131149,-0.5116513161996211,-0.7314701650195603,0.40513013291742495
-264.3089771270752,6532.0,10912.0,10608.0,322.0,188.0,54.0,-0.17303680597004947,-0.5270285901541414,-0.7205087901826172,0.4161324455139288
-264.31684017181396,6584.0,10848.0,10788.0,301.0,186.0,51.0,-0.14930417181109432,-0.541286430705451,-0.7096784934367539,0.42552755512104673
-264.3246247768402,6616.0,10880.0,10504.0,249.0,198.0,5.0,-0.12544140103339277,-0.5519934627757556,-0.7024898734050072,0.4313648684385723
-264.3324205875397,6580.0,10836.0,11004.0,230.0,179.0,53.0,-0.10537110330011112,-0.564321774043497,-0.6929913176742364,0.4361202810668673
-264.3401951789856,6628.0,10836.0,10844.0,163.0,228.0,36.0,-0.08491997666870597,-0.576511038256849,-0.686889312488854,0.4342887204604628
-264.34801387786865,6692.0,10764.0,10912.0,148.0,237.0,32.0,-0.06447818962249775,-0.588341101191844,-0.6812097896145787,0.43087183041437643
-264.35579919815063,6880.0,10712.0,10852.0,136.0,336.0,-43.0,-0.03589749522814375,-0.5988895342109558,-0.6798412203432462,0.42173286660057163
-264.3635928630829,6728.0,10720.0,10948.0,118.0,304.0,-55.0,-0.009675107618733532,-0.6069394781925757,-0.6790362630876389,0.41284454158419603
-264.37138414382935,6904.0,10504.0,10940.0,59.0,374.0,-172.0,0.02179308267355413,-0.6098747807173875,-0.685883678400684,0.3964106369612819
-264.37917923927307,6596.0,10712.0,10896.0,83.0,451.0,-138.0,0.057931770845092594,-0.616526223044085,-0.688897658892275,0.3767749219341563
-264.38696455955505,6452.0,10980.0,11004.0,144.0,547.0,-154.0,0.10350258694644848,-0.6237147103203082,-0.6887833131627881,0.3547459966425833
-264.39476203918457,6376.0,11064.0,10612.0,221.0,528.0,-197.0,0.15317137890587534,-0.6253524471874371,-0.6869408444002589,0.3370239186992752
-264.40254402160645,6308.0,10924.0,10696.0,134.0,574.0,-181.0,0.1999525312891871,-0.6286816503822265,-0.6842198147140743,0.31084017252659696
-264.41032552719116,6348.0,10888.0,10688.0,100.0,484.0,-192.0,0.23931969586587903,-0.6279232279832896,-0.6828720611777295,0.28657329078717036
-264.41813111305237,6652.0,10812.0,10668.0,53.0,487.0,-179.0,0.2754717434757135,-0.6276682207582587,-0.6804882550940845,0.25900513098319283
-264.4259192943573,6392.0,10660.0,10720.0,113.0,440.0,-153.0,0.31101590746608526,-0.6252498857812491,-0.6751545868172744,0.2376930153226598
-264.4337019920349,6368.0,10600.0,10900.0,106.0,325.0,-98.0,0.3378602933608321,-0.6230222031889301,-0.6691678600826731,0.2234012791729719
-264.4414870738983,6368.0,10632.0,10772.0,165.0,309.0,-85.0,0.36639721469632647,-0.6188897641740257,-0.661142517811353,0.2135863104355184
-264.44926023483276,6448.0,10724.0,10652.0,156.0,364.0,-70.0,0.39693397546295056,-0.6162428844877952,-0.6499834144404527,0.20052353326647274
-264.4570634365082,6352.0,10500.0,10684.0,160.0,380.0,-55.0,0.4278275684523032,-0.6137964846914017,-0.6365645699666224,0.1870908744858416
-264.4648473262787,6304.0,10764.0,10764.0,178.0,353.0,-68.0,0.4578577547682628,-0.6087290198989868,-0.6237449140543636,0.1753782738046493
-264.4726719856262,6368.0,10740.0,10712.0,205.0,375.0,-106.0,0.49048100536818234,-0.6000232293507674,-0.6108092541281487,0.16221147519182452
-264.48051357269287,6432.0,10876.0,10888.0,206.0,414.0,-18.0,0.523228452661158,-0.5955752025475944,-0.5906361943404482,0.15056908836555596
-264.48832654953003,6508.0,10856.0,11000.0,227.0,406.0,-80.0,0.5566009938396708,-0.5858700796893919,-0.572789809171131,0.13734415856211715
-264.4961619377136,6544.0,10888.0,10972.0,258.0,408.0,-19.0,0.5899618633732071,-0.5767043587033449,-0.5503629838009105,0.12828744474630266
-264.5039908885956,6596.0,10796.0,10772.0,241.0,432.0,-96.0,0.6233865548761862,-0.5639053620609671,-0.5297443929505076,0.11300807040201859
-264.5117723941803,6588.0,10820.0,10812.0,190.0,424.0,-128.0,0.6530997238193545,-0.5512646665625395,-0.5106533254602224,0.09381470749936371
-264.51960253715515,6568.0,10796.0,10848.0,240.0,492.0,-109.0,0.6867286669905588,-0.5360293944920009,-0.4853145923462078,0.07447128728404954
-264.5273952484131,6548.0,10760.0,10808.0,1.0,487.0,-158.0,0.7078005391537913,-0.531812461357521,-0.463052557514343,0.042145363895492276
-264.5351507663727,6504.0,10868.0,10900.0,297.0,504.0,-169.0,0.7416057166173953,-0.50766114876513,-0.4380555326833337,0.020210625927692405
-264.5429103374481,6444.0,10804.0,10500.0,285.0,491.0,-155.0,0.7723363536276766,-0.4833904833138117,-0.4121038928092616,-0.0007609455937696551
-264.55073142051697,6428.0,10956.0,10656.0,323.0,537.0,-176.0,0.8040447454516324,-0.45437596126067953,-0.38274324152802636,-0.023709580440658923
-264.5585265159607,6340.0,10920.0,10696.0,294.0,541.0,-195.0,0.8321245884071311,-0.4252740933764537,-0.35257043665657156,-0.04903776164235501
-264.56631350517273,6336.0,10852.0,10652.0,311.0,571.0,-160.0,0.8591577029879315,-0.3944657927002649,-0.3178437892326526,-0.07225029710722364
-264.57409715652466,6320.0,10908.0,10420.0,265.0,551.0,-180.0,0.881133639581682,-0.3653607267593207,-0.28398191872942125,-0.09731042274184173
-264.58189392089844,6264.0,10908.0,10740.0,217.0,549.0,-175.0,0.8989375417788875,-0.33896410533076504,-0.24886043101449695,-0.12281334273247188
-264.58968329429626,6244.0,10900.0,10384.0,226.0,515.0,-242.0,0.912964902368522,-0.30977854692061246,-0.21777769185784257,-0.15200399942126328
-264.5974791049957,6260.0,10888.0,10620.0,110.0,503.0,-286.0,0.9205359898370907,-0.28827419964985773,-0.18670999334079466,-0.18614740292994172
-264.6052782535553,6224.0,10908.0,10572.0,147.0,754.0,-244.0,0.9302968543929194,-0.259338695594034,-0.13441255366529697,-0.22186588086363795
-264.61306285858154,6300.0,10876.0,10736.0,98.0,450.0,-506.0,0.9263760255362649,-0.2360478419602206,-0.11114455328715271,-0.27158012425830386
-264.620881319046,6260.0,10892.0,10592.0,99.0,454.0,-281.0,0.9251445890207947,-0.21405398120131136,-0.08262189229629462,-0.302426859671546
-264.62867283821106,6236.0,10932.0,10688.0,147.0,351.0,-211.0,0.9242057818458251,-0.19100182980868347,-0.06221935851817134,-0.32479335774930634
-264.6364698410034,6188.0,10984.0,10656.0,114.0,438.0,-318.0,0.9184174510837978,-0.1672139420742093,-0.03555910903557422,-0.35676943939376143
-264.6442539691925,6360.0,11076.0,10648.0,106.0,392.0,-318.0,0.9103719061722669,-0.1451346256238322,-0.012269053402466545,-0.38730918298681066
-264.6521224975586,5924.0,11024.0,10644.0,89.0,444.0,-342.0,0.8993278169413571,-0.12230259748871976,0.015434577485637568,-0.4195394214383735
-264.65991830825806,6340.0,11032.0,10816.0,81.0,422.0,-351.0,0.8857515988575018,-0.1006337185446452,0.04155691208200867,-0.45120946673520096
-264.6677179336548,6012.0,10944.0,10880.0,30.0,434.0,-422.0,0.8666343058205175,-0.08243833527749128,0.06987043162055973,-0.48710062988752384
-264.6755075454712,5972.0,10752.0,10864.0,25.0,429.0,-409.0,0.8457066806270107,-0.06453825485334366,0.09791604004119187,-0.5206029899126393
-264.68334221839905,6008.0,11248.0,10868.0,5.0,391.0,-439.0,0.821402141709312,-0.04992773095934492,0.12363963742144275,-0.5545439417529514
-264.6911337375641,5944.0,10992.0,10976.0,-10.0,357.0,-455.0,0.7945148672599186,-0.03808702134343273,0.14726555641708916,-0.5878846488906679
-264.6989424228668,5904.0,10976.0,10856.0,253.0,318.0,-456.0,0.7668250391757678,-0.009951622542205265,0.15431558974111417,-0.6229502574561724
-264.7067337036133,5892.0,10988.0,10792.0,-9.0,300.0,-453.0,0.7373678613177707,-0.00024160052436679864,0.1740017346335903,-0.6526959284914724
-264.714519739151,5796.0,11104.0,10876.0,19.0,218.0,-459.0,0.7072663036542779,0.0065113718646711855,0.186464546673305,-0.6818819183594576
-264.7223446369171,5896.0,11056.0,10828.0,-26.0,160.0,-391.0,0.6809963823496042,0.00813261129437935,0.1976845001670544,-0.7050522152677687
-264.730135679245,5980.0,10760.0,10984.0,-48.0,67.0,-362.0,0.6573061588223756,0.0032131926164135015,0.2044793695759351,-0.7253457633330548
-264.7379243373871,6076.0,10924.0,10668.0,-73.0,13.0,-300.0,0.6379213082366961,-0.005451556385107799,0.2095655104308201,-0.7410188809122424
-264.745721578598,6052.0,10808.0,10888.0,-56.0,-31.0,-354.0,0.615311162417754,-0.016993556156378483,0.21090112329423966,-0.7593576947963986
-264.7535104751587,6184.0,10700.0,10996.0,-48.0,-87.0,-287.0,0.5976528061084933,-0.030568792980234488,0.20862310598560493,-0.7735328512062655
-264.76130175590515,6132.0,10688.0,10824.0,-14.0,-107.0,-226.0,0.5842036466681737,-0.04258757751518993,0.20304692952290115,-0.7846428116489167
-264.76907896995544,6148.0,10696.0,10724.0,84.0,-149.0,-171.0,0.5753489021802489,-0.05148726363804095,0.18872907144328943,-0.7941687730169219
-264.7768738269806,6152.0,10752.0,10740.0,86.0,-146.0,-178.0,0.5656984527446898,-0.060165100099664706,0.17430216759409242,-0.8037314076631957
-264.7846632003784,6284.0,10832.0,10632.0,95.0,-96.0,-141.0,0.5577066795762932,-0.06430376426183376,0.1618358077459077,-0.811564819832017
-264.7924292087555,6324.0,10868.0,10508.0,76.0,-39.0,-223.0,0.542788125035969,-0.06646223740152338,0.15296745562849642,-0.823143231666315
-264.80021500587463,6348.0,10888.0,10964.0,29.0,-67.0,-144.0,0.5334668697053473,-0.0717797091142432,0.1465553630926695,-0.8299290920524647
-264.8080675601959,6376.0,10948.0,10620.0,45.0,-50.0,-191.0,0.5204829932088378,-0.07570114171266674,0.13944310357723058,-0.8390008413514958
-264.815877199173,6392.0,10788.0,10656.0,44.0,-11.0,-152.0,0.5097358565285525,-0.07631772878905092,0.1343957895298429,-0.84633488206397
-264.82366943359375,6320.0,10984.0,10780.0,77.0,-16.0,-143.0,0.4998282826722615,-0.07571026457451611,0.12672123091336177,-0.8534526192559004
-264.83150482177734,6360.0,10948.0,10692.0,123.0,-44.0,-128.0,0.491532952152239,-0.07499851035680936,0.11446740028177417,-0.8600394145999916
-264.8392987251282,6384.0,10820.0,10496.0,74.0,-44.0,-84.0,0.4861246616191385,-0.0759361384798287,0.10615428362594238,-0.8640878336756705
-264.84709882736206,6640.0,10832.0,10660.0,88.0,-50.0,-88.0,0.48049850940987704,-0.07676289247176749,0.09648914794293686,-0.8682847949397136
-264.8548855781555,6412.0,10800.0,10500.0,87.0,252.0,-49.0,0.4751097168354843,-0.05439301289937301,0.09978880537749674,-0.8725562167777882
-264.86271572113037,6428.0,10936.0,10672.0,87.0,-29.0,-66.0,0.47072665248850815,-0.05355276737462151,0.09132318846673822,-0.8759044439844746
-264.870507478714,6392.0,10760.0,10664.0,42.0,-9.0,-84.0,0.4645570009240824,-0.05317208676006982,0.08702549800110032,-0.8796511153745343
-264.87830448150635,6448.0,11232.0,10632.0,48.0,24.0,-133.0,0.4543501926809413,-0.050377515438930556,0.08336745524455237,-0.8854817196052324
-264.8860924243927,6424.0,11080.0,10968.0,234.0,88.0,-168.0,0.44159974101928257,-0.03550084775375733,0.06768832899392713,-0.8939505851323533
-264.89388704299927,6352.0,11148.0,10572.0,-35.0,85.0,-162.0,0.4282940509267755,-0.031172866746146874,0.07285742300970753,-0.9001579051655015
-264.9016704559326,6232.0,11136.0,10512.0,-60.0,87.0,-207.0,0.41123314530234395,-0.02789717446764036,0.07991808466697567,-0.9075913990362764
-264.9094650745392,6200.0,11112.0,10648.0,-67.0,79.0,-171.0,0.39691668723842954,-0.025245221795657385,0.08730651995865077,-0.9133440719361288
-264.9172625541687,6272.0,11068.0,10752.0,-43.0,51.0,-196.0,0.3807508005813357,-0.024178295017790927,0.09173106731907768,-0.9197987003661223
-264.9250566959381,6184.0,10924.0,10700.0,-3.0,254.0,-160.0,0.36574485853740374,-0.005192217928122662,0.09971855519308555,-0.925343152066651
-264.9328577518463,6216.0,10928.0,11000.0,1.0,-37.0,-133.0,0.3553073220307893,-0.009341997229979969,0.09806992986476523,-0.9295438251397209
-264.94066071510315,6252.0,10908.0,10852.0,-2.0,-26.0,-130.0,0.3449635984091737,-0.012664444887542507,0.09699398065772714,-0.9335051662012658
-264.94843888282776,6228.0,10880.0,10792.0,23.0,43.0,-150.0,0.3323761488684116,-0.009778724158942396,0.09592036545864861,-0.9382056041761347
-264.9562373161316,6144.0,10808.0,10792.0,-13.0,86.0,-79.0,0.3251630662946434,-0.003820549186411821,0.09908780434462933,-0.9404445708025221
-264.9640762805939,6196.0,10832.0,10804.0,-32.0,105.0,-119.0,0.3144511338717408,0.002809506418670389,0.1043262333362497,-0.9435192780851541
-264.9718687534332,6152.0,10868.0,10828.0,-8.0,109.0,-152.0,0.3009107093602219,0.010125653246318396,0.10768330616388934,-0.9474990879743777
-264.9796578884125,6056.0,10876.0,10732.0,-29.0,83.0,-110.0,0.29104627310655795,0.015133494441660648,0.11203559684114843,-0.9500058259280385
-264.98745036125183,6028.0,10948.0,10616.0,-22.0,41.0,-91.0,0.28312712369530096,0.017021511271439853,0.11470400331512608,-0.9520463705122485
-264.9952254295349,6072.0,11004.0,10696.0,-7.0,-18.0,-133.0,0.2722567083790502,0.013955683128184208,0.11471892400354784,-0.9552596987869313
-265.00303316116333,5912.0,11000.0,10732.0,-6.0,-76.0,-92.0,0.2653475786872284,0.006491842911683255,0.11320717627826286,-0.9574615677402083
-265.0108599662781,6384.0,10884.0,10788.0,-25.0,-43.0,-86.0,0.2585941248209662,0.0013969773769877019,0.11403429669033341,-0.959230580330208
-265.01866459846497,6212.0,10912.0,10796.0,-37.0,-101.0,-115.0,0.24995488316860856,-0.009106306401289847,0.11454412916896207,-0.9614152453736197
-265.02644896507263,6196.0,10860.0,10872.0,-13.0,-96.0,-78.0,0.244343498494982,-0.018291229173034912,0.11316002905942683,-0.9628896580095987
-265.0342457294464,6212.0,10908.0,10800.0,12.0,-170.0,-82.0,0.23911317056419504,-0.033192135484236045,0.10806775351158156,-0.9643881658625297
-265.04208111763,6264.0,10860.0,10948.0,52.0,-150.0,-86.0,0.23340149108953073,-0.04559974331361831,0.09998458544415322,-0.9661508629817999
-265.0498788356781,6216.0,10900.0,10692.0,67.0,-187.0,-144.0,0.22309291845482107,-0.06130375698681228,0.08961559136555415,-0.9687313584780944
-265.05768609046936,6232.0,10872.0,10864.0,41.0,-145.0,-167.0,0.21026811933714268,-0.0741115383168896,0.08209800067664512,-0.9713674465224903
-265.0654742717743,6220.0,10868.0,10748.0,18.0,-151.0,-132.0,0.20022211577888935,-0.08756797460346306,0.07661560555338513,-0.9728170450616912
-265.0732727050781,6188.0,10900.0,10760.0,-10.0,-148.0,-61.0,0.19590961787613267,-0.10075530727158157,0.07408412612168068,-0.9726146883206236
-265.0810618400574,6188.0,10908.0,10892.0,19.0,-170.0,-126.0,0.18641694133265668,-0.11569838753275342,0.06812356862420262,-0.9732531975310438
-265.0888640880585,6296.0,10896.0,10636.0,-23.0,-167.0,-67.0,0.18142730202712942,-0.13068155097253692,0.06635356957871882,-0.9724215495960233
-265.09664964675903,6288.0,10952.0,10752.0,-75.0,-176.0,-83.0,0.17447752609442282,-0.14729647905262117,0.06865168700555663,-0.9711582188387029
-265.10444378852844,6308.0,10940.0,10700.0,-123.0,-196.0,-99.0,0.16559429179933807,-0.1663636151130759,0.07448006476273347,-0.9692029705087181
-265.1122281551361,6332.0,11076.0,10620.0,-140.0,-133.0,-146.0,0.15199172987179446,-0.18056799710671703,0.08194201977167971,-0.9682867436184313
-265.1200897693634,6328.0,11060.0,10660.0,-79.0,-135.0,-152.0,0.1387866170172359,-0.19409486410585888,0.08409880352347221,-0.9674672345410771
-265.12788677215576,6388.0,11104.0,10632.0,-150.0,-99.0,-180.0,0.12168439890337752,-0.2055585252505818,0.09217659099658493,-0.9666654415218214
-265.1356928348541,6284.0,11100.0,10660.0,-128.0,-97.0,-138.0,0.1084442041908677,-0.21618872087758298,0.09913847652721036,-0.965232538829161
-265.1435203552246,6228.0,11136.0,10496.0,-86.0,-99.0,-122.0,0.09732211886634602,-0.22638340318482392,0.10281995904809306,-0.9636944619344717
-265.15134835243225,6232.0,11040.0,10640.0,-57.0,-109.0,-122.0,0.08683324577205527,-0.23711257347791453,0.10395592345606713,-0.9619931293443663
-265.15913677215576,6304.0,11064.0,10572.0,-109.0,-138.0,-129.0,0.07491207221425641,-0.25065917835004553,0.10906372368201894,-0.958990751739587
-265.16693329811096,6312.0,11036.0,10812.0,-101.0,-159.0,-124.0,0.06374836039631344,-0.26575969667801375,0.1134374401467256,-0.9552171885709291
-265.1747217178345,6416.0,10948.0,10720.0,-113.0,-125.0,-161.0,0.04885118198894265,-0.27834787000261596,0.11810127455998837,-0.9519391336795626
-265.1825089454651,6544.0,11208.0,10680.0,-103.0,-100.0,-217.0,0.029257782567425304,-0.2892597074784363,0.12062974386276416,-0.949168725087553
-265.19029784202576,6484.0,10880.0,10696.0,-156.0,-4.0,-219.0,0.00712843209442686,-0.2922149509530627,0.12768110710454939,-0.9477642865100641
-265.19808530807495,6432.0,10928.0,10992.0,-19.0,46.0,-273.0,-0.016536328054934192,-0.29137731204764,0.12198728943568081,-0.9486542642577892
-265.20587682724,6508.0,10944.0,10496.0,-307.0,148.0,-337.0,-0.05386732657880198,-0.28203413236602315,0.13820218529153047,-0.9478687753526025
-265.2136654853821,6496.0,10888.0,10904.0,-369.0,220.0,-356.0,-0.09503495335615253,-0.26610002472964306,0.15844624997478052,-0.9460728937816613
-265.2214889526367,6256.0,10884.0,10836.0,-464.0,251.0,-359.0,-0.13880183899074972,-0.24614681802236169,0.18575711183388982,-0.9410845280172149
-265.2292802333832,6184.0,10960.0,10868.0,-510.0,226.0,-378.0,-0.18424253548487746,-0.22719789044042188,0.2161254508690543,-0.931517899014385
-265.2370722293854,6100.0,10888.0,10852.0,-495.0,211.0,-356.0,-0.2267143304782394,-0.20854122030159628,0.2452483887177172,-0.9192194512858657
-265.2448694705963,6112.0,10924.0,10556.0,-487.0,155.0,-290.0,-0.261912278897794,-0.19251499264704156,0.27534276373587685,-0.9047244322040622
-265.25267148017883,6104.0,10876.0,10852.0,-454.0,66.0,-250.0,-0.2906615550495688,-0.18284138624601126,0.3049077738508846,-0.8883220909878923
-265.2604649066925,6000.0,10792.0,11004.0,-444.0,1.0,-280.0,-0.3192463366419722,-0.1788641568726444,0.3342410999204169,-0.8685460707705197
-265.2682626247406,6064.0,10732.0,10764.0,-400.0,-66.0,-244.0,-0.34187381275700596,-0.17979217286545163,0.36205100539384455,-0.8483608549553742
-265.27612805366516,6044.0,10744.0,10832.0,-423.0,-44.0,-512.0,-0.384490432891515,-0.18639637820079238,0.38577623382384296,-0.8176797628810525
-265.28391098976135,6124.0,10704.0,10832.0,-393.0,-46.0,-181.0,-0.4020758780196994,-0.18255858123219812,0.4119131531809901,-0.7970789841475368
-265.2917094230652,6096.0,10608.0,10860.0,-405.0,-88.0,-220.0,-0.4204334510602742,-0.1823279013384479,0.4391019808636138,-0.7727753231209674
-265.2995173931122,6228.0,10604.0,10992.0,-404.0,-99.0,-237.0,-0.4387888867468479,-0.18320481779687423,0.46561578400308123,-0.7463928250530493
-265.30734038352966,6264.0,10620.0,10768.0,-362.0,-104.0,-512.0,-0.47309804792908117,-0.19672183350796202,0.4840686299832635,-0.7093351244179898
-265.3151297569275,6260.0,10628.0,10932.0,-317.0,-119.0,-230.0,-0.4875658494754322,-0.20068537443351778,0.5041635386151914,-0.6839766437860196
-265.32294964790344,6264.0,10640.0,10924.0,-251.0,-149.0,-247.0,-0.4999979764671667,-0.2097446668931329,0.5207051319164633,-0.6594508047113792
-265.33075761795044,6236.0,10664.0,11024.0,-190.0,-237.0,-264.0,-0.507713153627045,-0.22704120040272405,0.5366584587342165,-0.6345686295608901
-265.3385503292084,6336.0,10960.0,11224.0,-120.0,-179.0,-241.0,-0.5149767208146946,-0.2429117206691203,0.5460871387920637,-0.614476777288132
-265.34635186195374,6364.0,10724.0,11224.0,-74.0,-207.0,-7.0,-0.5070900033370875,-0.2510511959530182,0.5589566051418454,-0.6061357431256261
-265.35414814949036,6368.0,10792.0,10988.0,-50.0,-165.0,-258.0,-0.51372482706089,-0.2701291757913547,0.5628955951345664,-0.588443352775477
-265.36194896698,6372.0,10816.0,10924.0,-109.0,-159.0,-257.0,-0.5216072960465385,-0.2859910777871996,0.569192513173048,-0.5675868348410525
-265.3697395324707,6404.0,10792.0,10888.0,-111.0,-116.0,-227.0,-0.5298355758691884,-0.29793788072881533,0.5739916214863823,-0.5486719422693503
-265.37759017944336,6332.0,10868.0,10952.0,-124.0,-112.0,-494.0,-0.5506663911986032,-0.3220421907494322,0.5715249706540027,-0.5161536214157126
-265.38541865348816,6212.0,10932.0,10936.0,-188.0,-96.0,-267.0,-0.5630747527107606,-0.33055706320848477,0.5767044661881789,-0.49100998920725103
-265.39321088790894,6400.0,10896.0,11180.0,-209.0,-135.0,-352.0,-0.5771194164403817,-0.3435943940008843,0.5815849419070634,-0.45894991766600873
-265.40100622177124,6296.0,11096.0,10524.0,-211.0,-126.0,-347.0,-0.5906784801578622,-0.35543170082087433,0.5854321606693517,-0.42665726805480886
-265.4087769985199,6284.0,11172.0,10764.0,-244.0,-117.0,-451.0,-0.6085567477753705,-0.36990681749201215,0.5858002877198724,-0.3868664550168576
-265.4165725708008,6288.0,11276.0,10652.0,-241.0,-138.0,-558.0,-0.6273282982114178,-0.389756957765859,0.5822481252388229,-0.33990563512855304
-265.42440938949585,6372.0,11300.0,10652.0,-310.0,-185.0,-603.0,-0.6452815032608749,-0.4081766544637611,0.5798276667866428,-0.284259524253656
-265.43220233917236,6468.0,11112.0,10652.0,-285.0,-196.0,-663.0,-0.6606910787205268,-0.4296430457100415,0.5729544849131367,-0.22498291043994414
-265.44004249572754,6164.0,11036.0,10648.0,-294.0,-8.0,-767.0,-0.6847485193976659,-0.45004831586095484,0.5488725611291525,-0.16527217011023795
-265.4478394985199,6456.0,11224.0,10608.0,-272.0,-341.0,-860.0,-0.6891953445553481,-0.4782069466151663,0.5373495910280742,-0.08708220411884293
-265.4556288719177,6496.0,10932.0,10664.0,-282.0,-427.0,-855.0,-0.6849823846698715,-0.5026547491877877,0.527367795992273,-0.004532500545014547
-265.4634258747101,6448.0,11000.0,10252.0,-192.0,-429.0,-905.0,-0.6714936789109179,-0.5308480650894964,0.5112443470667908,0.07697914370574135
-265.4712553024292,6356.0,10952.0,10316.0,-202.0,-404.0,-940.0,-0.6539385932101507,-0.5558644176834678,0.4878914322813974,0.15918861696162473
-265.4791281223297,6336.0,10976.0,10320.0,-155.0,-412.0,-959.0,-0.6280660957801344,-0.5795823394263255,0.46069508532933434,0.2395356539432156
-265.48694014549255,6372.0,11064.0,10320.0,-121.0,-407.0,-984.0,-0.5947900992882277,-0.6012714772925571,0.4287718360335043,0.31757213512457866
-265.494749546051,6472.0,11164.0,10284.0,-17.0,-380.0,-965.0,-0.552593835225731,-0.6233007557113379,0.39573962567986876,0.38668639731305515
-265.50254225730896,6356.0,11260.0,10288.0,32.0,-443.0,-866.0,-0.5046471331614427,-0.6373857206479371,0.3697398004461393,0.449847967731428
-265.5103597640991,6276.0,11188.0,10360.0,52.0,-397.0,-820.0,-0.4554441895969173,-0.6483750106503994,0.34258037404048275,0.5047961202790535
-265.51821970939636,6312.0,11176.0,10364.0,-27.0,-373.0,-790.0,-0.40995910603525426,-0.652471726721507,0.3106388061422707,0.5565228740369396
-265.5260920524597,6168.0,11136.0,9996.0,-17.0,-319.0,-789.0,-0.3630896586725666,-0.6558327233294944,0.2755813703134599,0.6017509843044825
-265.53386068344116,6352.0,11164.0,10268.0,-44.0,-286.0,-692.0,-0.32182789349892865,-0.6545429185133796,0.2422610973049518,0.6397733469930035
-265.54164958000183,6296.0,11076.0,10324.0,-38.0,-283.0,-689.0,-0.27907802773190543,-0.6507483651478849,0.2083512951578497,0.6747086463805481
-265.5494456291199,6308.0,11164.0,10424.0,-98.0,-222.0,-722.0,-0.23768717906130715,-0.6468762795537376,0.16668489114156448,0.7051751774741633
-265.5572416782379,6264.0,11160.0,10404.0,-87.0,-204.0,-710.0,-0.1956365462745565,-0.6413847699214985,0.1252933676328971,0.7312000346702108
-265.5650403499603,6160.0,11192.0,10512.0,-107.0,-137.0,-708.0,-0.15473988335260563,-0.6371621879437357,0.08109242087471952,0.7506689909883392
-265.5728437900543,6224.0,11148.0,10528.0,-140.0,-120.0,-688.0,-0.11647445111106801,-0.6309592679108722,0.035301244810443395,0.7662101060352733
-265.5806510448456,6000.0,11224.0,10444.0,-148.0,-147.0,-615.0,-0.08300282881804287,-0.620425797264271,-0.006864930753524326,0.779830259237833
-265.5884358882904,5928.0,11292.0,10472.0,-167.0,-189.0,-620.0,-0.049958354155046465,-0.6048546082393143,-0.050253672510604495,0.7931769248666918
-265.5962643623352,5892.0,11508.0,10356.0,-191.0,-229.0,-514.0,-0.02550491386047213,-0.5850355812826048,-0.08939165542482372,0.8056624603037579
-265.6041202545166,5844.0,11308.0,10336.0,-147.0,-297.0,-416.0,-0.006137513130702412,-0.5598820506357588,-0.12007582183691054,0.819802547762971
-265.61191296577454,5828.0,11372.0,10304.0,-132.0,-375.0,-304.0,0.005166408600073255,-0.5291926162635231,-0.1439283214294093,0.8361896444018291
-265.61970496177673,5892.0,11272.0,10272.0,-140.0,-433.0,-227.0,0.00976084421204204,-0.49421487798105596,-0.1645476005763367,0.8535692516995963
-265.6275224685669,6080.0,11176.0,10156.0,-163.0,-454.0,-172.0,0.008962160845821071,-0.4574973319163512,-0.18418924316159996,0.8698794132901128
-265.6353449821472,6120.0,11068.0,10064.0,-85.0,-382.0,-14.0,0.00044121022211052007,-0.4279753823478767,-0.19125415762671014,0.8833225484658624
-265.643137216568,6168.0,11092.0,9988.0,-21.0,-286.0,55.0,-0.009401689009588553,-0.40659854660782335,-0.1906223879031875,0.8934496826180304
-265.6509177684784,6172.0,11240.0,10164.0,33.0,-202.0,112.0,-0.020368355512921422,-0.39253826951222553,-0.18371538555177472,0.9009703070432507
-265.65871357917786,6200.0,10992.0,10068.0,38.0,-142.0,181.0,-0.03561754582895682,-0.3841402499409296,-0.17407626560975858,0.9060160663894449
-265.66649293899536,6208.0,10848.0,10188.0,18.0,-147.0,206.0,-0.05357480628493484,-0.37548323656820115,-0.1650824097075532,0.9104338950154194
-265.6742868423462,6220.0,10816.0,10272.0,-241.0,-175.0,297.0,-0.0875904570835355,-0.36435517494012704,-0.17339367744335077,0.9107732159791031
-265.68207597732544,6200.0,10760.0,10148.0,-27.0,-236.0,377.0,-0.12195429432471794,-0.3507025189060475,-0.16144448575139855,0.9143689470608567
-265.68986678123474,6216.0,10796.0,10176.0,-81.0,-323.0,489.0,-0.16784868428021846,-0.3303841858440349,-0.14911238666349916,0.9167543864487853
-265.6976480484009,6016.0,10816.0,9900.0,-55.0,-424.0,637.0,-0.22548409093386748,-0.30313585361805206,-0.12843551946310972,0.9169350556758222
-265.70543122291565,6048.0,10844.0,9912.0,-44.0,-505.0,724.0,-0.2894603351403595,-0.2690430820631778,-0.10232843870889723,0.9128841246323525
-265.71321415901184,6096.0,10836.0,9948.0,-3.0,-641.0,792.0,-0.3570172908981251,-0.2239584757711969,-0.06725655421172076,0.9043549143149341
-265.72099447250366,6076.0,10904.0,10068.0,48.0,-763.0,933.0,-0.4318707578216201,-0.16965289024205132,-0.02105996549498295,0.8855856950202213
-265.7288193702698,6192.0,10888.0,10100.0,142.0,-883.0,1076.0,-0.5107982582347519,-0.1078390257565788,0.039140025827378314,0.8520117031393687
-265.73661613464355,6296.0,10980.0,10220.0,21.0,-930.0,1278.0,-0.5968073238861411,-0.03487593598105555,0.09361707401292664,0.7961410243785746
-265.7443940639496,6328.0,10816.0,10368.0,-77.0,-906.0,1105.0,-0.6612515652649278,0.04076628767458082,0.1380616262897639,0.7362224287334241
-265.7521822452545,6368.0,10760.0,10516.0,-186.0,-827.0,1110.0,-0.7165899648889568,0.11702026848641725,0.16893118851859087,0.6665338194941848
-265.75999212265015,6208.0,10680.0,10724.0,-221.0,-727.0,1107.0,-0.762740103507337,0.18795616546292154,0.18919018631596565,0.5891579480647121
-265.7677779197693,6136.0,10712.0,10340.0,-198.0,-635.0,1121.0,-0.8014475340723195,0.25043648698729776,0.2017906120697662,0.50422610503163
-265.7755651473999,6008.0,10604.0,10324.0,-123.0,-606.0,1082.0,-0.8307992564285462,0.3027277032147583,0.2140097031210703,0.4151245357650199
-265.78332901000977,5724.0,10340.0,10040.0,32.0,-728.0,1082.0,-0.8517685842918195,0.34452675624473156,0.23795100893747884,0.31491413177345473
-265.79110383987427,5528.0,10184.0,10188.0,241.0,-836.0,1073.0,-0.8649264554754098,0.36897339070199886,0.2725692937411419,0.20363409263202778
-265.7988917827606,5400.0,9916.0,10000.0,425.0,-1000.0,1047.0,-0.8660165032927378,0.37611044906545,0.31919608636136687,0.08167132042517536
-265.8067238330841,5404.0,9704.0,9736.0,758.0,-1306.0,868.0,-0.8509979850186375,0.34810559739021835,0.39036843233849056,-0.04730126418402839
-265.814505815506,5620.0,9104.0,10036.0,498.0,-1308.0,559.0,-0.8123448837390734,0.3217994285776499,0.4644808973708843,-0.14421655108754688
-265.822313785553,5732.0,8872.0,10028.0,322.0,-1844.0,181.0,-0.7346181024049979,0.27918809560266095,0.5783339156705268,-0.218906676183791
-265.8300974369049,5788.0,8548.0,10348.0,136.0,-2119.0,-4.0,-0.6205775732479913,0.22580004299586748,0.6997574264784852,-0.272465337709048
-265.8378915786743,6080.0,8592.0,10400.0,-25.0,-2230.0,-697.0,-0.4904573944845733,0.12879864961201498,0.818013753390209,-0.2715068163379834
-265.84567403793335,6488.0,8624.0,10604.0,-248.0,-2272.0,-1106.0,-0.34341298145149696,0.006378837905958132,0.9114500035521272,-0.2264635194074107
-265.8534667491913,6888.0,9056.0,10276.0,-281.0,-2164.0,-1331.0,-0.19274302583469155,-0.13069880623500624,0.9590178128058346,-0.16140874437881345
-265.861252784729,6928.0,9592.0,10636.0,-249.0,-2077.0,-2033.0,-0.04886550707348149,-0.315908676700905,0.9441410422619426,-0.08007223314025373
-265.8690416812897,7164.0,10124.0,10712.0,-93.0,-1985.0,-2067.0,0.09473459481218688,-0.48479923650959494,0.8694376983316416,-0.008552516896334204
-265.876827955246,7240.0,10556.0,11108.0,64.0,-1971.0,-2420.0,0.2365541156687731,-0.6458650041998781,0.7242729874617813,0.04826164463880466
-265.8846187591553,7572.0,11272.0,11284.0,344.0,-1959.0,-2556.0,0.3758128457040059,-0.7622381535709143,0.5207608491659721,0.08102987239651778
-265.89240288734436,7928.0,11980.0,11348.0,591.0,-2166.0,-1914.0,0.510473651960942,-0.7887991744156545,0.3162146048879916,0.13122818580766973
-265.90020394325256,8196.0,12476.0,11388.0,767.0,-2063.0,-1361.0,0.6202123180071687,-0.7496533635206015,0.13592621088451282,0.18676343418614524
-265.908038854599,8852.0,12576.0,11636.0,839.0,-2484.0,-988.0,0.7001006727078365,-0.6560736296910177,-0.04813390001036094,0.27768609646124004
-265.9158263206482,9404.0,12836.0,11540.0,712.0,-2534.0,-178.0,0.7158680349475515,-0.5362659865698336,-0.19095521792572584,0.4043363116708081
-265.92364835739136,9948.0,12916.0,11940.0,472.0,-2398.0,252.0,0.6738505049626847,-0.41672585139780505,-0.3054116444898677,0.5281938935166746
-265.9314351081848,9904.0,12636.0,12532.0,101.0,-2120.0,592.0,0.5831144039998071,-0.32274788128489434,-0.3966279926115778,0.6312666888494686
-265.93921732902527,9856.0,12288.0,12500.0,-131.0,-1799.0,994.0,0.4551672956038396,-0.26036853924121883,-0.4599877964068456,0.7165488008104228
-265.94700622558594,9744.0,12252.0,12476.0,-248.0,-1517.0,1447.0,0.2932662806152203,-0.2294386115313945,-0.4944907134578285,0.7853863676539262
-265.95478534698486,9576.0,11364.0,12124.0,-262.0,-1087.0,1834.0,0.11346025711177524,-0.23655219716221368,-0.49484411723001115,0.8284317278549332
-265.9625678062439,9184.0,10924.0,11748.0,-171.0,-732.0,2070.0,-0.07006061336626462,-0.26969591659939113,-0.4631424955910323,0.8413409842638523
-265.9703586101532,8516.0,10320.0,11480.0,-99.0,-440.0,2332.0,-0.25600321944267024,-0.32408623735946623,-0.4041142799114633,0.8161630420209011
-265.9781405925751,7864.0,9724.0,10848.0,-32.0,-17.0,2447.0,-0.4223549939765391,-0.39940179223828176,-0.32922396938427007,0.7441142690493114
-265.98592138290405,7536.0,9216.0,10576.0,83.0,-162.0,2486.0,-0.5722749970824637,-0.45272262699462945,-0.2257500712543781,0.6454304424568083
-265.9937150478363,7000.0,8800.0,10320.0,54.0,-209.0,2770.0,-0.7098268530033566,-0.484111596846504,-0.099733035613924,0.5018317667917317
-266.0014932155609,6960.0,8396.0,10116.0,65.0,-288.0,2476.0,-0.7994131111191104,-0.4855941705752331,0.025189107200408588,0.3528491011079136
-266.00927686691284,6836.0,8124.0,10096.0,75.0,-402.0,2486.0,-0.8516361574017046,-0.4617875667367227,0.15734384026416998,0.1916011861768064
-266.0170567035675,6916.0,8160.0,9616.0,190.0,-260.0,2444.0,-0.8616195256839457,-0.42799448283885955,0.2722737591127335,0.01730652242048287
-266.0248703956604,6964.0,8192.0,9232.0,311.0,-594.0,2429.0,-0.8200547931814803,-0.3833715974792428,0.39861472904685535,-0.1471144187807412
-266.03266882896423,6892.0,8636.0,9172.0,565.0,-598.0,2431.0,-0.7311593969071212,-0.33851201171501694,0.5028618686882009,-0.31296245023720926
-266.0404577255249,6988.0,8928.0,9164.0,782.0,-544.0,2334.0,-0.6060757112239669,-0.29386487200534867,0.5713505177299149,-0.4689075123682718
-266.048228263855,7084.0,8996.0,9200.0,900.0,-543.0,2292.0,-0.45144596028062717,-0.24364171636994011,0.607361193373181,-0.6065868773513962
-266.05606293678284,7316.0,9576.0,9420.0,1057.0,-535.0,2263.0,-0.2741848088081393,-0.18908522677380868,0.6056205999990267,-0.7226985239306639
-266.06385922431946,7728.0,9772.0,9656.0,1132.0,-619.0,2283.0,-0.0768791656018452,-0.1312233507405116,0.5718073407730461,-0.806167718998258
-266.07164311408997,8032.0,9940.0,9884.0,1200.0,-611.0,2287.0,0.12491603854365961,-0.06643454701050251,0.5041851926306791,-0.8519270660156498
-266.07943964004517,8308.0,9960.0,9988.0,1156.0,-765.0,2358.0,0.3312896268712587,-0.006815925776114204,0.4118251431739219,-0.8488820752808339
-266.08722281455994,8512.0,10188.0,10228.0,1226.0,-419.0,2360.0,0.508110327867706,0.08019002273318834,0.30184859118037316,-0.8026710926466998
-266.09501600265503,8752.0,10076.0,10428.0,1312.0,-344.0,2430.0,0.659101895415716,0.17321407429636676,0.17240282015331035,-0.711237543671767
-266.10280179977417,8764.0,10116.0,10328.0,1418.0,-271.0,2437.0,0.7698825951845347,0.2665560074238616,0.03073380393003856,-0.579037233547348
-266.1105980873108,8804.0,10176.0,10364.0,1506.0,-121.0,2401.0,0.8314331048033907,0.35720845605421303,-0.10644086155355158,-0.41205758596596265
-266.11838555336,8812.0,9836.0,10440.0,1543.0,38.0,2320.0,0.8425874436555192,0.43613369025624393,-0.22519808198288394,-0.22162948334722624
-266.1262331008911,8844.0,9784.0,10216.0,1649.0,359.0,2113.0,0.8056868113901844,0.5086268987080715,-0.3029632849042824,-0.019511224014223665
-266.134046792984,8844.0,9904.0,9784.0,1712.0,640.0,1928.0,0.7306324211164898,0.563979268125309,-0.3375030806784013,0.18491976874008284
-266.1418299674988,8848.0,10172.0,9696.0,1733.0,902.0,1772.0,0.6270317687207051,0.5921316183516065,-0.33049836125075316,0.38338249930566504
-266.14960837364197,8916.0,10380.0,9512.0,1732.0,997.0,1731.0,0.49547474547935894,0.5880936419176144,-0.29943710651542876,0.5647902833529531
-266.15742444992065,9084.0,10448.0,9612.0,1578.0,1112.0,1686.0,0.3518728775805701,0.543956300155462,-0.2536676448346254,0.7182964203644651
-266.16521167755127,9052.0,10496.0,9552.0,1519.0,1108.0,1660.0,0.19572676464705413,0.4731591714460645,-0.19832033188700857,0.8357514451303673
-266.17299342155457,9128.0,10684.0,9776.0,1452.0,1071.0,1752.0,0.02602453311703758,0.38045617981862767,-0.1428188241031529,0.9133337847663628
-266.1808133125305,9152.0,10576.0,10004.0,1403.0,1033.0,1738.0,-0.14284839569162097,0.27342010141249445,-0.08414562359189023,0.9474994976369345
-266.1885974407196,9072.0,10380.0,10188.0,1387.0,1041.0,1768.0,-0.30731226050115434,0.15355467141790546,-0.023762430347208527,0.9388373045077638
-266.1963770389557,9100.0,10108.0,10284.0,1035.0,1059.0,1743.0,-0.4528105700249078,0.03478903426852565,0.009413122942996283,0.8908780521961697
-266.2041666507721,9148.0,9736.0,10412.0,1287.0,1039.0,1712.0,-0.5783055351486238,-0.09336496818881093,0.0622072407120583,0.8080692729800819
-266.211975812912,9148.0,9492.0,10304.0,1402.0,1116.0,1715.0,-0.6781890920497524,-0.22811520943166375,0.11633934004429737,0.6888310131002655
-266.2197632789612,9152.0,9348.0,10132.0,1586.0,1144.0,1704.0,-0.7419450134181367,-0.36409486220800147,0.17378123741631507,0.5354928663388072
-266.2275712490082,9092.0,9108.0,10236.0,1543.0,1049.0,1656.0,-0.7683088574923144,-0.47656575639178916,0.22552715263976103,0.3629381252442054
-266.23537015914917,9128.0,8968.0,9984.0,2030.0,1276.0,1698.0,-0.7389858707926611,-0.6000860859160755,0.266415013015855,0.15106162020347366
-266.2431650161743,8992.0,8748.0,9996.0,2129.0,877.0,1914.0,-0.6513552422338671,-0.6814254995737871,0.3272279483503951,-0.06570773747030452
-266.2509491443634,9356.0,9140.0,9752.0,2452.0,842.0,2233.0,-0.49526929029312095,-0.7206585376937249,0.38144723502044253,-0.29976258778731785
-266.2587456703186,8772.0,9148.0,9480.0,2229.0,1159.0,2296.0,-0.3198815305424931,-0.6807744913616675,0.4001046351306376,-0.5235820654644643
-266.26652789115906,9028.0,9268.0,9908.0,2175.0,1272.0,2312.0,-0.12410859379222922,-0.5774128037735026,0.38566099864036,-0.7088420875717373
-266.27430725097656,9420.0,9436.0,9828.0,1998.0,1377.0,2634.0,0.08885399429104662,-0.40581320154702166,0.362440872521318,-0.8343004417322748
-266.2821080684662,9500.0,9648.0,9876.0,1956.0,1456.0,2623.0,0.2891988369990375,-0.19247096579440856,0.30925381110376887,-0.8852576124057709
-266.2899115085602,9808.0,9980.0,10076.0,1848.0,1605.0,2307.0,0.4367058659383544,0.03877447498798062,0.23554779708842644,-0.8673533086529549
-266.29769587516785,9832.0,10192.0,10364.0,1828.0,1553.0,2412.0,0.5571704815052555,0.2641319052558896,0.14180590393169656,-0.7743942644255638
-266.305468082428,9800.0,10312.0,10352.0,1857.0,2039.0,2275.0,0.6137852181371939,0.49669798749667965,0.059896183233611386,-0.610713731994845
-266.3132543563843,9644.0,10348.0,10168.0,1884.0,2344.0,2271.0,0.6089354420555727,0.6975897579600356,-0.012923355454618769,-0.37735811092599675
-266.32104682922363,9428.0,10216.0,10024.0,1969.0,2497.0,2307.0,0.5372601066434567,0.8341261695757745,-0.08101464054946256,-0.09498283558069538
-266.32886004447937,9272.0,10208.0,9708.0,1966.0,2598.0,2495.0,0.40790773723917223,0.8756604860365745,-0.1479794610205452,0.21197186183707772
-266.33666610717773,8888.0,9820.0,9464.0,2023.0,2668.0,2741.0,0.2218347139935165,0.8071845312192393,-0.2105386236082449,0.5048920480626901
-266.34445095062256,8748.0,9752.0,9264.0,2010.0,2672.0,2987.0,-0.0020609214815023808,0.6270737244450192,-0.261308589878732,0.7338202215589917
-266.352233171463,8692.0,9588.0,8724.0,2006.0,2619.0,3139.0,-0.23517951909173535,0.35993693362772017,-0.2833914423146402,0.8572195098300563
-266.3600583076477,8808.0,9440.0,9076.0,2036.0,2470.0,3164.0,-0.4418426417709631,0.0512698058616207,-0.2614818359883027,0.8566059399560305
-266.36784195899963,8820.0,9380.0,9124.0,2301.0,2360.0,3120.0,-0.5871644288112068,-0.2650326103624168,-0.1805061118542819,0.7432450420733004
-266.3756306171417,8904.0,9384.0,9316.0,2146.0,2172.0,2956.0,-0.6517524647686933,-0.5273010477477927,-0.07872936444325694,0.5394200746045461
-266.38341093063354,9148.0,9652.0,9344.0,2203.0,1794.0,2710.0,-0.6297819900166537,-0.714812846337426,0.04526848159652002,0.3006127148601608
-266.3911929130554,9380.0,9904.0,9292.0,2552.0,1986.0,2524.0,-0.5128639720563224,-0.8446367111232629,0.1512438437113772,0.026166240251475886
-266.39898228645325,9468.0,10112.0,9432.0,2375.0,1927.0,2316.0,-0.3495301329494819,-0.8768513246283014,0.22870339058779354,-0.23802352781092379
-266.4067611694336,9472.0,10288.0,9236.0,2383.0,1917.0,2180.0,-0.15225050058831785,-0.8230486967776454,0.27323286734907537,-0.4740827227430132
-266.4145419597626,9504.0,10292.0,9660.0,2460.0,1872.0,2167.0,0.06592177252729313,-0.690046346834091,0.2869951508654244,-0.6611536451593665
-266.4223279953003,9492.0,10320.0,9664.0,2601.0,1960.0,2187.0,0.2834505420570603,-0.47979461520856215,0.2646926446403583,-0.7870137999410934
-266.4301369190216,9576.0,10272.0,9580.0,2681.0,1956.0,2276.0,0.47817302483787943,-0.2136908885724983,0.21137764588843655,-0.8252310302437443
-266.437922000885,9224.0,9776.0,9364.0,2688.0,1989.0,2053.0,0.6049559545787987,0.07533017294470656,0.131306972604573,-0.7817366161369166
-266.4457154273987,9540.0,9752.0,9268.0,2591.0,2161.0,2305.0,0.6785936412744568,0.36350167387334037,0.05007835971336702,-0.6362934550988029
-266.45352435112,9820.0,10116.0,9360.0,2412.0,2280.0,2204.0,0.67496057834597,0.6068724981710345,-0.017962563742209236,-0.4192986226382438
-266.46131014823914,10104.0,10140.0,9552.0,2456.0,2154.0,2124.0,0.5927545361524257,0.78292828930107,-0.08862963075681082,-0.16676373177263107
-266.4691252708435,10136.0,10056.0,9464.0,2438.0,2127.0,2059.0,0.44823786368831164,0.8762311069183983,-0.14684230524219302,0.09868739643873294
-266.4769763946533,9732.0,9768.0,9672.0,2554.0,2200.0,1953.0,0.25030022756484377,0.8824798186631169,-0.17813487971409298,0.35615604776915594
-266.4848177433014,9736.0,9992.0,9936.0,2406.0,2345.0,1822.0,0.042574765206242114,0.7909004030484693,-0.18252963497031816,0.5825348694996759
-266.49261474609375,9380.0,9964.0,9752.0,2545.0,2617.0,1673.0,-0.16647082743134234,0.6045080160490408,-0.14986844591403845,0.7644586130498418
-266.5004050731659,9108.0,10052.0,9852.0,2325.0,2889.0,1632.0,-0.3395484574126753,0.3361318203226913,-0.11563538639758819,0.8708333375841253
-266.5082006454468,8800.0,10236.0,9524.0,2334.0,3007.0,1845.0,-0.4857732886591362,0.018544418109056975,-0.07617272587624696,0.870561963570007
-266.51602840423584,8564.0,9824.0,9328.0,2300.0,3128.0,2000.0,-0.5799592173318334,-0.3082234869110778,-0.034531975170263296,0.7532948500016872
-266.523802280426,8476.0,9816.0,9360.0,2183.0,3313.0,2225.0,-0.6112290151786088,-0.5977534881535403,0.0013162400689271574,0.5187370489141334
-266.5316286087036,9200.0,9716.0,9268.0,2096.0,3484.0,2395.0,-0.5648086198650109,-0.8016287215405314,0.032783936867958545,0.19315234715351642
-266.53971791267395,9120.0,9684.0,9252.0,2046.0,3637.0,2520.0,-0.436755250807365,-0.880161148639955,0.05923411306349452,-0.17621726126169335
-266.5476486682892,9312.0,9536.0,9352.0,2061.0,3802.0,2600.0,-0.2362692467440413,-0.8114917851723875,0.07536618128191021,-0.5291293455854791
-266.5555064678192,9228.0,9372.0,9348.0,2114.0,3871.0,2604.0,0.007466699097405538,-0.6016700569363664,0.07512608586548386,-0.7951688262333415
-266.56330823898315,9656.0,9404.0,9504.0,2039.0,3896.0,2459.0,0.23758583878544495,-0.28717602037045464,0.05959817601234596,-0.9260296755227697
-266.57111167907715,9544.0,9348.0,9840.0,1930.0,3947.0,2308.0,0.4146462956935383,0.07690380995677622,0.03945415627716162,-0.9058684358306212
-266.57890820503235,9508.0,9336.0,10212.0,1758.0,3976.0,2088.0,0.5108688443537955,0.42574279540571763,0.02769198624551936,-0.7463171242350805
-266.5867340564728,9436.0,9440.0,10376.0,1710.0,4066.0,1797.0,0.5121903969147432,0.7120180109054703,0.028285975505180735,-0.4794697623878442
-266.594523191452,9232.0,9844.0,10564.0,1604.0,4042.0,1427.0,0.42937391306669936,0.8881190176439557,0.049291564846168735,-0.15637453409024663
-266.60231852531433,8860.0,10192.0,10984.0,1406.0,4139.0,990.0,0.2944486810110911,0.932693545956562,0.10098498521834261,0.1821668365599365
-266.6101086139679,8492.0,10280.0,11376.0,944.0,4220.0,423.0,0.1624554110950352,0.835451181175057,0.17765982148649148,0.49403092120689485
-266.6178922653198,8248.0,10928.0,11780.0,356.0,4263.0,-325.0,0.07910640631612402,0.6101328417150647,0.2595616059690321,0.7443842184297199
-266.6256926059723,7876.0,11616.0,12260.0,-175.0,4161.0,-998.0,0.055338425487225465,0.29577900355362985,0.3091780229135362,0.9021426660283246
-266.6335599422455,7280.0,13000.0,12760.0,-557.0,4176.0,-1727.0,0.0865526879879608,-0.0767007927836451,0.3068575369918931,0.9447031663859755
-266.64136242866516,5996.0,14700.0,13520.0,-1291.0,4192.0,-2079.0,0.1261143794264829,-0.4488681796332017,0.20102345515660983,0.8615115153563226
-266.6491630077362,4840.0,16548.0,14168.0,-2295.0,4249.0,-2204.0,0.11550301321097936,-0.7550864982992138,-0.010000601855555052,0.6452932836997006
-266.65695977211,3428.0,18372.0,14056.0,-2610.0,4390.0,-2290.0,0.06849187061773557,-0.9224623259736782,-0.23687859818257942,0.29708694104852723
-266.66478872299194,3244.0,19648.0,13240.0,-2798.0,4101.0,-2119.0,-0.015496103040996348,-0.9061757908700451,-0.4120806588962736,-0.09378079438351956
-266.6725814342499,2832.0,19916.0,11220.0,-2126.0,3742.0,-1997.0,-0.060507724963371284,-0.739856243784113,-0.5152540945655345,-0.4283278788345109
-266.680383682251,2800.0,17988.0,9668.0,-1433.0,3562.0,-2223.0,-0.0709203991449538,-0.4653552838564399,-0.5819174155567738,-0.6631642920451446
-266.68818044662476,3748.0,15252.0,8356.0,-328.0,2581.0,-2737.0,-0.10604397702596512,-0.1659767237705273,-0.6553175771450396,-0.7292223770480949
-266.6960220336914,4720.0,11956.0,7668.0,267.0,2273.0,-3074.0,-0.15911270374739514,0.14418327050070098,-0.6996414270648142,-0.6814662174668863
-266.7038218975067,5752.0,10248.0,8400.0,979.0,1206.0,-3960.0,-0.31243601285366135,0.41629929877085997,-0.6794350035096764,-0.5171524994823122
-266.71162724494934,7040.0,8540.0,9796.0,919.0,539.0,-4534.0,-0.4803499094318372,0.6340307775789138,-0.5288324289027763,-0.29598175574229824
-266.7194197177887,9504.0,7024.0,11376.0,647.0,284.0,-4435.0,-0.5750530562016758,0.7624580282838448,-0.290464954398443,-0.06001539739878684
-266.7272367477417,11112.0,6500.0,13040.0,393.0,717.0,-3844.0,-0.570565930468208,0.7982541643021579,-0.06869982261004841,0.1803472831416079
-266.7350285053253,11632.0,6608.0,14572.0,143.0,1718.0,-2618.0,-0.5102842594573458,0.7520743872213471,0.029384475900731635,0.4160897057267131
-266.7428705692291,11160.0,7156.0,15644.0,19.0,2964.0,-1284.0,-0.45477195653718583,0.6161517237478298,-0.01693577863348325,0.6428473382320221
-266.75068831443787,10224.0,8180.0,15380.0,245.0,4289.0,-773.0,-0.39079449080466916,0.3427297258768683,-0.12312094839857489,0.8453740196046491
-266.7584912776947,7884.0,12048.0,12656.0,803.0,5466.0,-983.0,-0.2545941097657772,-0.0695849570539911,-0.19815647136128847,0.943967047031838
-266.7662913799286,5720.0,14828.0,11412.0,337.0,6804.0,-1298.0,-0.02392151955589879,-0.526287635343712,-0.2816229499121612,0.8019586023413136
-266.77406549453735,4468.0,16624.0,10716.0,-9.0,7483.0,-1825.0,0.23844220519923406,-0.8342309288098366,-0.31669081332470717,0.38328970890507785
-266.78185749053955,3396.0,16696.0,9728.0,-678.0,7658.0,-2554.0,0.3969683835589355,-0.844217320374943,-0.2987917827652094,-0.20108875897360448
-266.7896544933319,2380.0,15824.0,9136.0,-1048.0,6849.0,-3161.0,0.36879009964619414,-0.5644650253137293,-0.22986878454547904,-0.7018072666281713
-266.79744720458984,1852.0,14320.0,8820.0,-1168.0,5432.0,-3477.0,0.17980120590604942,-0.17306308647318394,-0.13442193931835983,-0.9589845862603825
-266.80523777008057,1588.0,12744.0,8812.0,-1044.0,4205.0,-3272.0,-0.05469957565442235,0.18160342679416272,-0.027821356977229962,-0.9814551053898435
-266.81302404403687,1896.0,10648.0,9916.0,-1090.0,3290.0,-3043.0,-0.26906943400522165,0.44145006524860525,0.0907227067084857,-0.8511714692490567
-266.82081961631775,2136.0,9076.0,10284.0,-905.0,2141.0,-3043.0,-0.4526273166459324,0.566740409968535,0.213217834361514,-0.6545777074150827
-266.828608751297,2780.0,8020.0,10740.0,-608.0,1695.0,-2396.0,-0.5718045978558669,0.6219970408991113,0.2897174883556885,-0.44969207233896275
-266.83641242980957,3064.0,7836.0,11164.0,-560.0,1483.0,-2133.0,-0.6455618548069147,0.6372241379363883,0.3443220107259096,-0.24215210628683198
-266.84419894218445,3420.0,7564.0,11452.0,-420.0,1509.0,-2037.0,-0.6934581994325089,0.6161743208962867,0.3722123167335133,-0.030048680165584558
-266.85204100608826,3700.0,8044.0,11332.0,-226.0,1763.0,-1492.0,-0.7277834113954142,0.5742419647025622,0.33943728994978983,0.15924760049600967
-266.8598370552063,3824.0,8768.0,11332.0,-149.0,2035.0,-1334.0,-0.7454276605367608,0.5044692154368784,0.2689370802640112,0.342813740159669
-266.8676381111145,3184.0,9592.0,11148.0,-160.0,2150.0,-1328.0,-0.7314879732806429,0.4093185721437354,0.1784511958171114,0.5153045916304592
-266.8754484653473,2920.0,10532.0,11180.0,-230.0,2217.0,-1368.0,-0.6788102809644008,0.29516806516455857,0.07361353174251409,0.6683363402572361
-266.8832383155823,2568.0,11352.0,11140.0,-464.0,2267.0,-1517.0,-0.5763469123864001,0.17539751556640204,-0.04716288054359297,0.796765718900247
-266.8910348415375,2768.0,11724.0,11304.0,-696.0,2080.0,-1614.0,-0.43283884586765226,0.07028220860064062,-0.17047469378949628,0.8824110852882301
-266.89885807037354,2684.0,11756.0,11744.0,-854.0,1803.0,-1615.0,-0.2697364801880493,-0.012064998480352819,-0.2870537327881397,0.9190738934165341
-266.90669083595276,2444.0,11784.0,11316.0,-800.0,1627.0,-1698.0,-0.09150765560449421,-0.07937489513999356,-0.38219339752713355,0.9161081714917462
-266.91448068618774,2448.0,11744.0,10908.0,-656.0,1530.0,-1719.0,0.09048198673756495,-0.13617060024920566,-0.44889417898291656,0.8785013339654343
-266.92228269577026,2768.0,11540.0,10872.0,-444.0,1414.0,-1637.0,0.26134687641832655,-0.18058772990129207,-0.4821994191392066,0.816437139146238
-266.93010354042053,2392.0,11092.0,10928.0,-218.0,1150.0,-1608.0,0.41474867164883844,-0.1968221084889954,-0.48939608776942023,0.7414418832595419
-266.93790459632874,2472.0,10868.0,10920.0,-88.0,1055.0,-1592.0,0.5537451969039026,-0.19745875319464895,-0.477523855050704,0.652952728419284
-266.94569635391235,2816.0,10980.0,10900.0,-90.0,1052.0,-1492.0,0.6726552109558046,-0.19697173848881824,-0.45169225586677814,0.552006528404036
-266.95349192619324,3124.0,10744.0,11256.0,-163.0,1031.0,-1440.0,0.7707455120223876,-0.19694203591703321,-0.4186418857332007,0.43806867235166597
-266.961279630661,3312.0,10784.0,11120.0,-294.0,928.0,-1258.0,0.8397449872479353,-0.20410527561820194,-0.38527662714605815,0.3236221769776294
-266.9690797328949,3200.0,10972.0,11492.0,-509.0,818.0,-1089.0,0.8819677256434614,-0.22589118174827594,-0.3561474568781807,0.21039271349282032
-266.9768810272217,3152.0,11036.0,11616.0,-683.0,670.0,-915.0,0.9002353323859069,-0.2603868384987738,-0.33286391398230636,0.10476953483254975
-266.98468828201294,3000.0,11016.0,11676.0,-751.0,580.0,-922.0,0.9025401342676478,-0.2957324532466238,-0.3129796098217412,-0.002717713873895912
-266.99248719215393,2944.0,11408.0,11764.0,-833.0,560.0,-912.0,0.8899884931650973,-0.33375984298578776,-0.290153262876264,-0.11106724668451665
-267.00032019615173,2832.0,11348.0,11884.0,-888.0,474.0,-942.0,0.8608558552521892,-0.37139658121614816,-0.27020902047315304,-0.21904077518562215
-267.0081443786621,2744.0,11164.0,12284.0,-810.0,363.0,-1009.0,0.818321437328733,-0.3985815990221357,-0.25839367117913886,-0.32359765886631653
-267.0159375667572,2624.0,11004.0,11916.0,-720.0,235.0,-1094.0,0.7625942615498311,-0.4156998717199248,-0.2576262750224526,-0.42340561087609785
-267.0237157344818,2668.0,10904.0,11852.0,-611.0,19.0,-1078.0,0.6969771825193427,-0.4287251140922071,-0.2713504797463608,-0.5067410588608768
-267.03155064582825,2440.0,10844.0,11920.0,-535.0,-290.0,-979.0,0.6236536969651487,-0.4484518819117151,-0.30048858412743296,-0.5653791530297471
-267.0393617153168,2340.0,10876.0,11968.0,-502.0,-464.0,-888.0,0.5454113966997934,-0.47294334060830856,-0.33417568983216017,-0.6059518241984541
-267.047159910202,2796.0,10972.0,12004.0,-520.0,-540.0,-897.0,0.4583588630806759,-0.4973380748640137,-0.3675341948393735,-0.6383420772201379
-267.05495166778564,3144.0,11164.0,11840.0,-413.0,-487.0,-778.0,0.3799678735375803,-0.513893578471114,-0.3962810910096845,-0.6591654587382872
-267.0627565383911,3296.0,11304.0,11968.0,-431.0,-336.0,-662.0,0.3100187242894906,-0.5229991135721229,-0.41118546662960553,-0.679180999311144
-267.07053399086,3084.0,11304.0,11940.0,-452.0,-83.0,-752.0,0.2410668485679267,-0.5114951464178876,-0.4197325792907862,-0.7099887686396004
-267.07831621170044,3456.0,11444.0,12152.0,-507.0,224.0,-318.0,0.20655641375060974,-0.49570150825798925,-0.3971782071808822,-0.7442203533832045
-267.0861175060272,3168.0,11284.0,12292.0,-461.0,634.0,-147.0,0.19849957249735908,-0.45645536278177234,-0.3612870476171835,-0.7884910213377103
-267.09391713142395,2968.0,11008.0,12184.0,-448.0,772.0,76.0,0.20951708000065122,-0.4120299659292681,-0.3131080590115756,-0.829636814362966
-267.1017212867737,2756.0,11248.0,12204.0,-428.0,1384.0,206.0,0.244792847790722,-0.3224245206134651,-0.24743358562686849,-0.8802814952511027
-267.1095061302185,2700.0,10820.0,12040.0,-398.0,1568.0,401.0,0.29506288101595834,-0.21658837394605848,-0.170394049930402,-0.9148733465711417
-267.11731028556824,2728.0,10520.0,11952.0,-310.0,1657.0,494.0,0.34912210768917373,-0.09824957807958402,-0.09277697495874757,-0.9272827008239486
-267.12509775161743,2700.0,10688.0,11872.0,-200.0,1754.0,763.0,0.4174698354212744,0.031105859718474082,-0.01668041735212947,-0.9080050251410877
-267.1329548358917,2760.0,10348.0,11776.0,-78.0,1776.0,619.0,0.46312176260730786,0.16590267277704113,0.051503565280815136,-0.8691040898122039
-267.1407747268677,3060.0,10420.0,11948.0,1.0,1634.0,621.0,0.49717921847633234,0.28928497491867733,0.10692628878562543,-0.8109832284135702
-267.14857292175293,2800.0,10688.0,11900.0,14.0,1620.0,713.0,0.5260379418257141,0.40632961492300324,0.15610118354938596,-0.7306249025941913
-267.1563518047333,2736.0,11096.0,11840.0,-31.0,1686.0,738.0,0.5443739222143724,0.5158013843205213,0.20644278106092256,-0.6284801849651318
-267.1641731262207,2772.0,11668.0,11960.0,-117.0,1810.0,695.0,0.5474747643012314,0.6132535262468745,0.26363964837505605,-0.5046638790360984
-267.1719923019409,2916.0,12096.0,11780.0,-290.0,1962.0,620.0,0.5365389503904352,0.6888137556495711,0.3314494026393901,-0.3574952562368546
-267.17978835105896,2940.0,12340.0,11928.0,-496.0,2303.0,539.0,0.5055507087722761,0.7368011980778971,0.41319198120496253,-0.17554162480375513
-267.18757462501526,2780.0,12332.0,12112.0,-668.0,2094.0,401.0,0.470382431156378,0.7399051399911731,0.4809156327994581,0.0009520520754777614
-267.1953752040863,2588.0,12120.0,12080.0,-759.0,2105.0,251.0,0.4230225965785487,0.705570756055615,0.5406702622129511,0.17577672923805618
-267.2031590938568,2412.0,11792.0,12172.0,-518.0,2285.0,96.0,0.33867726289589195,0.6425510281823043,0.5987180628587115,0.33758342522393275
-267.21094822883606,2304.0,11684.0,12048.0,-778.0,1889.0,-45.0,0.2805612282513807,0.5527569795146915,0.6242495581615605,0.4754551587005529
-267.21873140335083,2132.0,11272.0,12232.0,-713.0,1751.0,-52.0,0.21880793113282965,0.45358603060855684,0.6314301638751438,0.5896429006260936
-267.2265200614929,2200.0,11192.0,11972.0,-583.0,1559.0,-106.0,0.15978457531649612,0.3525759686093691,0.6286768670885343,0.6744808912325371
-267.234338760376,2292.0,11232.0,11644.0,-427.0,1331.0,-209.0,0.11138398912611405,0.254781287863383,0.6236890899218623,0.7305422790184486
-267.24212622642517,2392.0,11000.0,11644.0,-341.0,1065.0,-381.0,0.08485580192926569,0.16189124419850207,0.6173575484575567,0.7651538245956021
-267.2499051094055,2572.0,10540.0,11744.0,-266.0,748.0,-436.0,0.07718570303649973,0.08617383059281591,0.6092317032768011,0.7845082344310798
-267.2576928138733,2684.0,10544.0,11308.0,-186.0,448.0,-579.0,0.0941837649839895,0.02342121432973664,0.6023918868515372,0.7922782843093744
-267.265469789505,2616.0,10712.0,11664.0,-146.0,312.0,-646.0,0.12246638875083228,-0.03319498850813094,0.5948041591979996,0.7937934797949878
-267.27323865890503,3052.0,10768.0,11784.0,-83.0,207.0,-632.0,0.15495182244754263,-0.08099490338907409,0.5882833406083994,0.7895267376775799
-267.28103470802307,3312.0,10956.0,11936.0,-91.0,264.0,-604.0,0.18201061198205476,-0.1310822641448122,0.5802092364284661,0.7829730641060929
-267.2888181209564,3440.0,11084.0,12172.0,-180.0,365.0,-479.0,0.19384827479186487,-0.18272355384214908,0.5672667542308857,0.779258223425245
-267.29659628868103,3620.0,11488.0,12256.0,-216.0,506.0,-449.0,0.19544694782775174,-0.24240163667995782,0.5528316914868067,0.7729288828912592
-267.30439138412476,3688.0,11216.0,12176.0,-235.0,656.0,-403.0,0.1854841553655249,-0.30918991223448644,0.5382536500448644,0.761761271327277
-267.31219363212585,3744.0,11052.0,12224.0,-255.0,654.0,-359.0,0.17127466533258012,-0.37263143311492786,0.5209241083780485,0.7486313360930485
-267.3200168609619,3776.0,10832.0,12240.0,-270.0,606.0,-506.0,0.16749451087435158,-0.43796707360986425,0.49454696048731006,0.7318153695662156
-267.32779264450073,3792.0,10748.0,12060.0,-207.0,537.0,-174.0,0.14724739477227028,-0.4820029743008786,0.4818502611190992,0.7168065731822929
-267.3355634212494,3768.0,10652.0,12264.0,-124.0,440.0,-65.0,0.12742337725704575,-0.5133124031452608,0.47662106838851165,0.7022150787855808
-267.343368768692,3836.0,10712.0,11848.0,-7.0,326.0,79.0,0.10858990195604167,-0.5297330115952156,0.483152545586937,0.6885889828571927
-267.35115146636963,3896.0,10720.0,12052.0,2.0,164.0,126.0,0.09410854445267484,-0.5340504858344741,0.4905740301077492,0.6821076025267585
-267.3589437007904,3584.0,10872.0,11888.0,37.0,41.0,145.0,0.08536541081887068,-0.5298107490304412,0.49982675319429615,0.6798430213209343
-267.3667278289795,3932.0,11036.0,11796.0,-59.0,-61.0,65.0,0.08136343045913709,-0.5236527041366238,0.49885410660546503,0.6857932764012681
-267.3745243549347,4156.0,11128.0,11552.0,-89.0,-41.0,-63.0,0.08277055631828184,-0.5244255042969682,0.49033120147446246,0.6911600670685791
-267.38231015205383,4252.0,11212.0,11296.0,-150.0,-54.0,-222.0,0.09150342651686752,-0.5314790389395574,0.47060025127683464,0.6983498819372256
-267.3901035785675,4200.0,11256.0,11728.0,-213.0,-122.0,-213.0,0.09950106770985359,-0.5341531686696188,0.44658715020671325,0.7108725956140463
-267.3978862762451,3984.0,10864.0,12024.0,-230.0,-96.0,-238.0,0.10716691181878177,-0.5390996521646081,0.4202021995170804,0.722022804050005
-267.4056820869446,4056.0,10764.0,11952.0,-252.0,-28.0,-177.0,0.10737977897263216,-0.5458542506142063,0.39559830023048786,0.7307630977334177
-267.4134752750397,4060.0,10596.0,12012.0,-281.0,100.0,-149.0,0.09992890037813174,-0.5596424797179723,0.3713727172034917,0.7340959165403603
-267.42125940322876,4132.0,10728.0,12328.0,-285.0,214.0,-50.0,0.08216168291981171,-0.5770460957497499,0.3523835343881795,0.7321837924536774
-267.4290761947632,4104.0,10340.0,12392.0,-168.0,4.0,148.0,0.06403472260047743,-0.5737145941520638,0.3490865904562528,0.7381664250845069
-267.43686604499817,4012.0,10460.0,12468.0,-46.0,377.0,236.0,0.034936357210347185,-0.5904917919312969,0.35980055905332986,0.7215555781168546
-267.44465374946594,3900.0,10848.0,12472.0,127.0,464.0,279.0,0.009247232410606442,-0.6097247850822145,0.3831703523481684,0.6937799768158289
-267.4524493217468,3956.0,11068.0,12136.0,319.0,439.0,266.0,-0.004643794728961048,-0.6261713748608533,0.4164462341502873,0.6591360849911255
-267.4602313041687,4000.0,11188.0,12252.0,300.0,430.0,243.0,-0.01791915908571494,-0.6412815259066849,0.4462658425489304,0.6239260421256256
-267.4680998325348,4244.0,11016.0,11908.0,284.0,320.0,149.0,-0.02266822419904876,-0.6527466335169425,0.4692216119528309,0.594339181713899
-267.4759888648987,4412.0,11500.0,11756.0,250.0,243.0,83.0,-0.022757399433610406,-0.6620391780685054,0.4862162268241582,0.5698947343556314
-267.4837951660156,4332.0,11212.0,11620.0,122.0,64.0,20.0,-0.019500541193132333,-0.6644874706551142,0.49328823216070916,0.5610194740357112
-267.4915955066681,4256.0,11152.0,11368.0,82.0,-21.0,-35.0,-0.0122090763112674,-0.6650063568941781,0.4953039580987617,0.5588304508861867
-267.4993884563446,4240.0,11064.0,11428.0,86.0,-211.0,-102.0,0.006798458350663191,-0.6589814409226047,0.49369539153244735,0.5674170440366111
-267.5071771144867,4280.0,11076.0,11420.0,54.0,-338.0,-137.0,0.031161107036547404,-0.6476973954735175,0.4880461478526956,0.584232853296717
-267.5149564743042,4396.0,10832.0,11128.0,36.0,-463.0,-184.0,0.062168510159258276,-0.631142957497694,0.47777716934451636,0.6078837224328217
-267.52275586128235,4512.0,10748.0,11212.0,101.0,-538.0,-297.0,0.10570069458765267,-0.6134391156487589,0.46318321897011955,0.6308574484146433
-267.5305950641632,4560.0,10668.0,11496.0,167.0,-654.0,-286.0,0.15644826978422602,-0.5861523773257578,0.45012293510512263,0.655239401081188
-267.53840708732605,4452.0,10588.0,11636.0,127.0,-624.0,-305.0,0.20446135455168676,-0.5595436945251727,0.4324512531244946,0.6768251783755271
-267.546240568161,4548.0,10584.0,11728.0,29.0,-529.0,-314.0,0.2439919759091774,-0.5387313134991116,0.4088089636200689,0.6950623848341546
-267.55406641960144,4416.0,10620.0,11852.0,-251.0,-432.0,-318.0,0.26649330498300905,-0.5283815471333398,0.3689464329561014,0.7167096962209875
-267.5618631839752,4440.0,10568.0,11916.0,-102.0,-299.0,-284.0,0.2889416978892102,-0.5206997422616146,0.342295585442548,0.7267862174093092
-267.5696611404419,4424.0,10536.0,11736.0,-112.0,-223.0,-273.0,0.3076308109567979,-0.5171214433157095,0.3170172073459615,0.7331089872997791
-267.57745337486267,4280.0,10408.0,11724.0,-47.0,-198.0,-237.0,0.32599509689702694,-0.5119329431973073,0.29791214768448354,0.7368176237919796
-267.58522963523865,4280.0,10332.0,11732.0,-93.0,-235.0,-234.0,0.342810849344035,-0.5051695593308002,0.27469311268995267,0.7428513523836726
-267.59301829338074,4328.0,10280.0,11768.0,-238.0,-509.0,-248.0,0.36005278480764097,-0.4843785072580073,0.23279174757337912,0.762592588555973
-267.6008200645447,4180.0,10308.0,11640.0,116.0,-352.0,-293.0,0.3912517416078572,-0.46269095237174507,0.21692102897639765,0.7653655495709007
-267.608606338501,4276.0,10392.0,11576.0,2.0,-412.0,-219.0,0.4133962485767484,-0.43869946879454125,0.19402418860959997,0.7739515049254994
-267.61640310287476,4312.0,10488.0,11992.0,312.0,-457.0,-328.0,0.454504036537678,-0.4012963299724234,0.18580688718688998,0.7732160998036315
-267.62418842315674,4256.0,10604.0,11820.0,320.0,-471.0,-274.0,0.4910786452339868,-0.36049714942415584,0.1788998510224799,0.772579065699003
-267.63205075263977,4432.0,10628.0,11572.0,357.0,-263.0,-504.0,0.5394662735338162,-0.33452784700820254,0.17559302907742824,0.7524854466599391
-267.6398606300354,4568.0,10964.0,11592.0,380.0,-496.0,-212.0,0.5711288331896296,-0.2865910243831334,0.17077094923601485,0.7500098156287749
-267.64765524864197,4712.0,10724.0,11636.0,354.0,-514.0,-161.0,0.5972279842473835,-0.23706016751059342,0.16407706100342848,0.7484650491934365
-267.65547800064087,4932.0,10728.0,11684.0,312.0,-482.0,-93.0,0.6158540497936004,-0.19011623093065913,0.15724543913170919,0.7482335731319585
-267.6632761955261,4864.0,10708.0,11592.0,307.0,-428.0,6.0,0.6257501707234696,-0.14513293208253622,0.15426463976004776,0.750716708741971
-267.67106461524963,4824.0,10664.0,12000.0,372.0,-280.0,59.0,0.6298139086896924,-0.10528086977862196,0.16399223610662456,0.7519022046625597
-267.67889046669006,4764.0,10600.0,11992.0,391.0,-72.0,157.0,0.623669724698823,-0.07644859479452697,0.18703457241406152,0.7551223447693265
-267.68670415878296,4636.0,10488.0,12008.0,416.0,188.0,176.0,0.6111835799663117,-0.0629467399052946,0.2256666977148223,0.7560204237038476
-267.69449043273926,4536.0,10332.0,12000.0,409.0,336.0,270.0,0.5881646575313725,-0.057589453557289776,0.27168266476862785,0.7595619264643229
-267.702285528183,4432.0,10468.0,12116.0,763.0,452.0,330.0,0.5574573398502661,-0.040118450404769884,0.34590822269641625,0.7536440311282185
-267.71007442474365,4200.0,10320.0,11984.0,502.0,524.0,366.0,0.5179668120573051,-0.03873404418376102,0.40460482872563575,0.7526652562728414
-267.71785855293274,4284.0,10456.0,11940.0,528.0,448.0,367.0,0.4786496619321166,-0.031011318459729667,0.459606313702452,0.7474589190480659
-267.7256438732147,4312.0,10652.0,11960.0,582.0,369.0,397.0,0.4384145836907392,-0.01459146012693633,0.5127124879297539,0.7380417649561047
-267.7334671020508,4276.0,10764.0,11820.0,603.0,156.0,406.0,0.4051448197341296,0.016750914677429427,0.556740522708921,0.7249945325820508
-267.7412633895874,4356.0,10812.0,11864.0,552.0,4.0,336.0,0.3822301403236963,0.05241006719533508,0.5902415079337806,0.7090615396400828
-267.74907064437866,4460.0,10780.0,11756.0,572.0,-149.0,327.0,0.36637909963477694,0.09751079849275023,0.617956406579861,0.6887582152649956
-267.75686597824097,4472.0,10800.0,11896.0,569.0,-304.0,297.0,0.35936358342035785,0.14980225236951658,0.6385406337661516,0.6638395582712894
-267.76464462280273,4432.0,10772.0,11920.0,601.0,-375.0,279.0,0.3554433309053165,0.20553866174120186,0.6563614267413065,0.6329325197291462
-267.7724452018738,4432.0,10804.0,11920.0,632.0,-375.0,293.0,0.34857173310764855,0.2620612247972878,0.6726473922987901,0.5978019295466626
-267.7802391052246,4812.0,10876.0,11816.0,640.0,-274.0,282.0,0.3345937396715544,0.31173759905103443,0.6896499837547789,0.561470924106969
-267.78806042671204,4680.0,10928.0,11744.0,566.0,-172.0,231.0,0.31775452444683816,0.3500692590188078,0.704886473791392,0.5287897835147004
-267.7958605289459,4656.0,10956.0,11692.0,541.0,-119.0,187.0,0.2995468280050762,0.3815714070022943,0.7198068361338532,0.49654111395267025
-267.8036468029022,4672.0,11128.0,11640.0,759.0,255.0,160.0,0.2507004979878991,0.39939566814122496,0.7520491954089098,0.4604936137053967
-267.811448097229,4552.0,11076.0,11720.0,471.0,14.0,125.0,0.22815659591918652,0.41695598796449285,0.7661638607003106,0.4325334789307269
-267.81923604011536,4452.0,11104.0,11708.0,460.0,37.0,110.0,0.20463913231576703,0.4316933051741515,0.7795325320896325,0.4050836298923878
-267.8270335197449,4384.0,11032.0,11612.0,426.0,46.0,97.0,0.18192022416495415,0.44393662329401096,0.7911242857936381,0.37940436339819544
-267.83488392829895,4432.0,10912.0,11656.0,378.0,36.0,77.0,0.16216950608969874,0.4537914335172928,0.800723177710808,0.3558325151495421
-267.84269404411316,4448.0,10892.0,11668.0,305.0,253.0,5.0,0.13219455773326702,0.45031686138309773,0.8130488034862039,0.3445155532184784
-267.8504958152771,4452.0,10800.0,11528.0,280.0,-63.0,-22.0,0.12630289433204564,0.45372469878105953,0.8213073334580754,0.3219250543331022
-267.85829067230225,4624.0,10800.0,11548.0,492.0,-113.0,7.0,0.11463038677185769,0.462367518571828,0.8327668138259712,0.2820914496903531
-267.8660898208618,4564.0,10872.0,11924.0,226.0,-11.0,-24.0,0.10689857405616929,0.4630543990465117,0.8389943589586135,0.2650316660779554
-267.8738896846771,4628.0,11000.0,12028.0,176.0,-389.0,-104.0,0.1306039188346438,0.46572897680578473,0.8429925201033822,0.23537788255955464
-267.8816816806793,4352.0,10752.0,11884.0,147.0,-435.0,-144.0,0.15947997077272544,0.46533053300411636,0.8461360272971331,0.2051522782867901
-267.8894736766815,4640.0,11012.0,11912.0,94.0,-468.0,-181.0,0.19330457868921472,0.46119177334327294,0.8477898643591549,0.176600775615959
-267.8972637653351,4644.0,11240.0,11820.0,85.0,-504.0,-234.0,0.23054193148929422,0.4525353282911856,0.8489694441727113,0.14598999052898085
-267.90504693984985,4576.0,10916.0,11784.0,63.0,-463.0,-304.0,0.2659594683067818,0.43666258794609736,0.8514305581164042,0.11686466622456392
-267.91283440589905,4460.0,10720.0,11844.0,87.0,-410.0,-299.0,0.2959059625619041,0.4202259226054661,0.8533092061510814,0.0878250191489251
-267.92063093185425,4496.0,10772.0,11852.0,170.0,-288.0,-322.0,0.31337538420130423,0.4025207795379843,0.8582548936433719,0.05631543442097262
-267.9284164905548,4512.0,10748.0,11856.0,166.0,-277.0,-301.0,0.32957368684320226,0.38560003181760066,0.86140546634403,0.025969654511916025
-267.9362223148346,4460.0,10680.0,11808.0,155.0,-181.0,-289.0,0.33848603008756295,0.3685568627068408,0.8657904169023729,-1.9679115504236695e-05
-267.94405579566956,4448.0,10708.0,11856.0,192.0,-142.0,-248.0,0.34293180160239845,0.35534302375984306,0.8691576306143728,-0.026346310173425137
-267.9518520832062,4408.0,10772.0,11720.0,193.0,-68.0,-194.0,0.34160144258767233,0.34615849142722016,0.8724097369986628,-0.04882626367823408
-267.95964670181274,4388.0,10896.0,11584.0,159.0,-17.0,-146.0,0.3374554856228086,0.33966692940904847,0.8754598871173098,-0.06572791140337694
-267.96744537353516,4396.0,10928.0,11528.0,103.0,30.0,-199.0,0.33094850923682007,0.32762061708324564,0.8814624932044071,-0.07849642392994804
-267.97524762153625,4416.0,10724.0,11560.0,91.0,40.0,-152.0,0.3242301369171025,0.31880663549332583,0.8862129610190909,-0.0886777040857383
-267.9830365180969,4320.0,10708.0,11588.0,79.0,-15.0,-167.0,0.32190065995295203,0.3079854596716825,0.8896919760770875,-0.09986545677422015
-267.99086689949036,4100.0,10668.0,11624.0,93.0,-106.0,-230.0,0.3255814964723159,0.29174936595255063,0.8918236627829471,-0.11631659865015055
-267.99868535995483,4276.0,10740.0,11268.0,137.0,-192.0,-235.0,0.33455519212190593,0.27530190146810224,0.8905704113114845,-0.13844142793548192
-268.00648760795593,4376.0,10680.0,11660.0,146.0,-182.0,-311.0,0.3412843021214068,0.25306238170784695,0.8904380527851536,-0.16310895205978207
-268.0142614841461,4520.0,10288.0,11620.0,184.0,-163.0,-292.0,0.34558336878056584,0.2334156032689974,0.8889058707591834,-0.1895669915958556
-268.022088766098,4480.0,10608.0,11656.0,171.0,-161.0,-275.0,0.34991098268294407,0.21448369340763246,0.8863674727984799,-0.21427027937843565
-268.0298800468445,4136.0,10700.0,11732.0,162.0,-71.0,-222.0,0.34815815479110734,0.20088494587690203,0.8850391409761312,-0.23481238619952985
-268.0377004146576,4396.0,10756.0,11812.0,176.0,12.0,-186.0,0.340291297021671,0.19208092276962022,0.8848228575771588,-0.2537622174167598
-268.0454912185669,4436.0,10760.0,11848.0,135.0,107.0,-155.0,0.32630563572957866,0.18646942414656575,0.8874154683271268,-0.26692240918160054
-268.0532958507538,4296.0,10508.0,11908.0,178.0,167.0,-118.0,0.3076769045252684,0.1862546489689138,0.889684668572315,-0.28125667755021505
-268.0610783100128,4220.0,10796.0,11800.0,508.0,234.0,-11.0,0.28067830294342744,0.20456243040629854,0.8826141454036665,-0.3168062067832977
-268.0688660144806,4180.0,10776.0,11680.0,323.0,281.0,-32.0,0.2522346976060502,0.21764407150025866,0.8805099439518693,-0.3372105485690665
-268.07666635513306,4116.0,10756.0,11772.0,436.0,489.0,-65.0,0.20414799519765822,0.23626581564638674,0.8782200334809224,-0.36225906918459916
-268.08446741104126,3988.0,10800.0,11564.0,447.0,172.0,-83.0,0.1789845424660569,0.2430996417954602,0.8680731871208622,-0.3941015599042506
-268.09225273132324,3988.0,10868.0,11480.0,459.0,110.0,-89.0,0.15773261339601716,0.24710283816595813,0.8551301357009972,-0.4275664405184124
-268.1000590324402,4136.0,10904.0,11724.0,468.0,254.0,-51.0,0.12665664456833378,0.25894419392628937,0.8413328793161787,-0.4572362463760976
-268.10785603523254,4192.0,11076.0,11620.0,418.0,-136.0,-245.0,0.11732165164081533,0.23991603266688336,0.8278728430755246,-0.49325701517941123
-268.11564469337463,4256.0,11232.0,11636.0,406.0,-188.0,5.0,0.12254206728710092,0.23616176451922588,0.8077289491922497,-0.526103608960206
-268.12344193458557,4276.0,11248.0,11660.0,348.0,-277.0,-57.0,0.13219642761419229,0.2229731623050593,0.7893323959936639,-0.5565621636911992
-268.13124346733093,4600.0,11388.0,11760.0,394.0,-13.0,-82.0,0.12138049215816718,0.22109990312007077,0.7711327129150135,-0.5845818574297941
-268.1390469074249,4508.0,11408.0,11708.0,403.0,-278.0,-128.0,0.1256766527897213,0.20236576127894834,0.7493285574034396,-0.6178674539618052
-268.146879196167,4452.0,11192.0,11796.0,403.0,-191.0,-176.0,0.12146711961679549,0.18480428645178362,0.7279269140365447,-0.6490111881795868
-268.15469694137573,4300.0,11120.0,11640.0,359.0,-144.0,-245.0,0.11087100407682098,0.16474400191611493,0.7093970668531634,-0.6762564867177163
-268.1624917984009,4356.0,10948.0,11640.0,311.0,-49.0,-290.0,0.09225919760726496,0.14678772533124293,0.6941920876103805,-0.6985978454361887
-268.17028737068176,4292.0,10948.0,11280.0,277.0,-51.0,-311.0,0.07279159714539635,0.1269614178525594,0.6803546365256619,-0.7181223783728821
-268.1780822277069,4168.0,10872.0,11528.0,241.0,-40.0,-257.0,0.05635995035535266,0.11065007431545387,0.6674509103490419,-0.734227076131194
-268.18588948249817,3944.0,10712.0,11604.0,214.0,-2.0,-220.0,0.04029255168593254,0.09870032600577128,0.6555375805382958,-0.747599649830702
-268.1936764717102,3972.0,10716.0,11668.0,166.0,-71.0,-154.0,0.032862086250027595,0.0857960309034303,0.6455603651910432,-0.7581628711978188
-268.20147824287415,3972.0,10668.0,11684.0,174.0,-163.0,-105.0,0.03377801639935763,0.06954684101880748,0.634111650193597,-0.7693664260943432
-268.2092661857605,3928.0,10672.0,11808.0,199.0,-188.0,243.0,0.0592564817106469,0.07089614444294641,0.6183076509013027,-0.7804857813665239
-268.21707367897034,3968.0,10848.0,11784.0,288.0,-285.0,-249.0,0.05583930237062932,0.03947019180155608,0.5981361453444137,-0.7984718078319585
-268.2248604297638,3848.0,11036.0,11908.0,379.0,-299.0,48.0,0.07341722955495741,0.022937767952008456,0.5694738422675911,-0.8184029033299195
-268.23265647888184,4012.0,11092.0,11884.0,445.0,-306.0,92.0,0.09419518140909659,0.008466872595595474,0.5348000980657889,-0.8396692414138915
-268.24045300483704,3860.0,11304.0,11988.0,526.0,-269.0,125.0,0.11536172159528636,-0.0011111172312405963,0.4931138109883644,-0.862281397237353
-268.24825072288513,3752.0,11376.0,11784.0,539.0,-510.0,136.0,0.1472821497694023,-0.02817697405652004,0.4462904968817113,-0.8822351267578257
-268.25611782073975,3676.0,11364.0,11904.0,602.0,-254.0,138.0,0.16899763974329085,-0.03457894313228195,0.39614392873878956,-0.901839277352926
-268.263906955719,3600.0,11268.0,11692.0,604.0,-288.0,225.0,0.19811604280702103,-0.040495872598456384,0.34416241838397504,-0.9168764080600339
-268.2717065811157,3508.0,11196.0,11612.0,594.0,-386.0,198.0,0.22719181744616768,-0.05506063852349783,0.2898147341891075,-0.9280946201857808
-268.27951216697693,3364.0,11284.0,11768.0,561.0,-418.0,252.0,0.26032939442272934,-0.07126688590426739,0.23653245056607652,-0.9333820424682541
-268.28733491897583,3540.0,11280.0,11396.0,530.0,-446.0,20.0,0.2739603079120142,-0.09495619249783116,0.182730163704358,-0.9394353402271215
-268.2951285839081,3260.0,11332.0,11376.0,470.0,-405.0,318.0,0.30980613865732864,-0.11161141513546032,0.13659688606522646,-0.9342934973438376
-268.3029134273529,3236.0,11380.0,11284.0,442.0,-339.0,342.0,0.34546444442296387,-0.12296937230998042,0.09426429138197927,-0.9255523186095294
-268.3107361793518,3080.0,11404.0,11312.0,340.0,-229.0,341.0,0.37811502370102096,-0.12819186368109203,0.06318189285503073,-0.9146605508891263
-268.3185341358185,2976.0,11400.0,11320.0,313.0,-51.0,301.0,0.40560905541767955,-0.12008719973475625,0.03954891921130381,-0.9052603170427057
-268.32631635665894,2932.0,11348.0,11352.0,159.0,26.0,342.0,0.43394847714582524,-0.11105351226085053,0.03117166216387598,-0.893523454686719
-268.33413767814636,3044.0,11148.0,11500.0,71.0,135.0,305.0,0.4578324566583604,-0.0968505641779894,0.03338557948331933,-0.8831165341737967
-268.341915845871,2708.0,11072.0,11436.0,253.0,158.0,302.0,0.4824398619264236,-0.07351217536579752,0.022435650635427785,-0.8725505035686855
-268.3496940135956,2536.0,10940.0,11492.0,-55.0,145.0,298.0,0.5042704725527413,-0.06405016802311841,0.03432341365467125,-0.8604828701158064
-268.3574798107147,2428.0,10828.0,11684.0,-102.0,44.0,242.0,0.5215988808511972,-0.06436528711224473,0.04495907735486289,-0.8495707143452724
-268.36527276039124,2364.0,10800.0,11652.0,-123.0,-136.0,508.0,0.5584883304368081,-0.07783679676928744,0.05038755903672464,-0.8243138429802837
-268.37306451797485,2320.0,10776.0,11596.0,-101.0,-333.0,499.0,0.5943310312496579,-0.10422665539835095,0.04446177757877356,-0.7961975759399967
-268.3808591365814,2536.0,10776.0,11532.0,-57.0,-281.0,227.0,0.6103668226972639,-0.1255992728813439,0.03561773250718382,-0.7812864657301898
-268.3886470794678,2352.0,10960.0,11420.0,-43.0,-762.0,193.0,0.6239525822633469,-0.17864384634469058,-0.0001876169080080034,-0.7607690293709198
-268.3964464664459,2432.0,11060.0,11540.0,-30.0,-945.0,190.0,0.6338365839810236,-0.2419624403355825,-0.046763838719669985,-0.7331565355790788
-268.4042444229126,2448.0,11156.0,11708.0,3.0,-1060.0,243.0,0.642227030103859,-0.3090006039074439,-0.10020879418997315,-0.694277513790994
-268.4121341705322,2456.0,11116.0,11652.0,-65.0,-1109.0,325.0,0.6471701989150626,-0.38052319801561424,-0.1490618813515651,-0.6435475001397645
-268.4199366569519,2652.0,11020.0,11692.0,-111.0,-1087.0,415.0,0.6492880500101776,-0.4507007072115555,-0.18957348108973046,-0.5825425271175543
-268.4277470111847,2780.0,11032.0,11740.0,-147.0,-966.0,546.0,0.6521962780070711,-0.5145537957946786,-0.2144272785536641,-0.5137074541011455
-268.4355766773224,3068.0,10992.0,12016.0,-173.0,-830.0,672.0,0.6561348901729533,-0.5715031198438187,-0.2228096125377648,-0.4395760076110608
-268.44338035583496,2916.0,10868.0,12152.0,-245.0,-642.0,778.0,0.6586219756221621,-0.6226244004975248,-0.21055277872866474,-0.3663652228341221
-268.45116996765137,2868.0,10880.0,12148.0,-247.0,-387.0,921.0,0.6649097814851596,-0.6633546157194349,-0.17418678040730298,-0.2958286697066669
-268.4589684009552,2980.0,10864.0,12180.0,-275.0,-232.0,962.0,0.6676765164376414,-0.697052141181149,-0.1243842643842303,-0.22990201531536306
-268.46677350997925,2828.0,10992.0,12484.0,-190.0,-163.0,1279.0,0.6757145514314965,-0.7205644696258816,-0.05194401516975278,-0.14662369994154467
-268.4746310710907,2788.0,10720.0,12284.0,-138.0,-125.0,1093.0,0.6773550714087886,-0.7317781471558199,0.011121337675094694,-0.07461344671241493
-268.48242378234863,2748.0,10708.0,12408.0,-58.0,-138.0,1166.0,0.6778831926816977,-0.7310773956245372,0.07739666495698745,0.0031583128483670293
-268.49023842811584,2676.0,10688.0,12384.0,-26.0,-279.0,1212.0,0.6738775856235069,-0.7200606765038131,0.13740668275671516,0.09230939974292682
-268.49806904792786,2524.0,10816.0,12348.0,60.0,-402.0,1310.0,0.6672099624523811,-0.6925712683306711,0.19518484627236726,0.1925585107772973
-268.50586318969727,2496.0,11028.0,12256.0,153.0,-487.0,1342.0,0.6571121553953532,-0.6474712089929688,0.24858112371186422,0.29528303996505334
-268.513653755188,2436.0,11148.0,12148.0,232.0,-619.0,1432.0,0.6407441811579605,-0.5815582293107399,0.297191762920744,0.4036260351925181
-268.5214605331421,2364.0,11296.0,12036.0,301.0,-689.0,1443.0,0.6168940190866204,-0.49789746973401633,0.3391164681467106,0.5064976800335037
-268.52926874160767,2436.0,11300.0,11980.0,344.0,-741.0,1477.0,0.5822022535576068,-0.39843858764598494,0.3745730098199175,0.601649639027204
-268.5370936393738,2472.0,11384.0,12212.0,355.0,-785.0,1494.0,0.5357052656596881,-0.2869048377484799,0.4007546507935305,0.6856392581294896
-268.5448489189148,2384.0,11320.0,11988.0,396.0,-830.0,1501.0,0.4791613329914462,-0.16406342712478286,0.4182906398943809,0.7540030168525063
-268.55265736579895,2528.0,11136.0,11992.0,412.0,-905.0,1550.0,0.41075462243363126,-0.030053646238195446,0.4242363012783991,0.8064744132176902
-268.5604507923126,2200.0,11156.0,11732.0,458.0,-974.0,1566.0,0.3331489930495473,0.11163139918707954,0.4198096613038319,0.8368452828459806
-268.5682473182678,2284.0,11248.0,11932.0,430.0,-1025.0,1602.0,0.2458934115178025,0.25420445882420906,0.39983730648036886,0.8456043115030523
-268.57607650756836,2396.0,11240.0,11748.0,466.0,-1169.0,1678.0,0.15006899958027556,0.4022174354640136,0.3656886064678868,0.8258161254621409
-268.5838711261749,2320.0,11256.0,11696.0,471.0,-1273.0,1646.0,0.05468260167576307,0.5431642023694028,0.31967870463944,0.7744598040818066
-268.591659784317,2064.0,11328.0,11628.0,444.0,-1413.0,1595.0,-0.03405935331146406,0.6731287025269125,0.2626675087474785,0.6904661397453415
-268.5994875431061,2292.0,11320.0,11568.0,432.0,-1562.0,1562.0,-0.11548804141926713,0.7866700406258941,0.19783442840996684,0.5733012283315793
-268.6072552204132,2544.0,11392.0,11536.0,426.0,-1697.0,1463.0,-0.18496427852418096,0.8753387508756795,0.13322689849914188,0.4264045970691845
-268.6150572299957,2344.0,11264.0,11484.0,415.0,-1850.0,1423.0,-0.24294170282122193,0.9342393123976468,0.06839636003704636,0.25198844047848656
-268.6228792667389,2208.0,11504.0,11484.0,429.0,-1993.0,1420.0,-0.29048628803354903,0.9552566968257319,0.004216418304084604,0.055539008370392585
-268.63069343566895,2308.0,11412.0,11492.0,404.0,-2176.0,1408.0,-0.32185511229516556,0.9319684234803621,-0.05463645907617145,-0.15766737666560118
-268.63849449157715,2512.0,11596.0,11312.0,464.0,-2287.0,1528.0,-0.3395466258573512,0.8551779869703774,-0.11764844298133227,-0.3735472437781452
-268.6462826728821,2264.0,11632.0,11000.0,486.0,-2453.0,1042.0,-0.35717065962544103,0.7299163956756084,-0.13487902843940505,-0.5669733881884563
-268.65406942367554,2224.0,11520.0,10892.0,567.0,-2511.0,1151.0,-0.3552634911017166,0.5576799506042096,-0.1534504540200051,-0.7343254610493642
-268.6618628501892,2408.0,11764.0,10720.0,631.0,-2612.0,1100.0,-0.33966866143938834,0.3448917716215089,-0.16140885135685776,-0.8600128190948151
-268.6696410179138,2492.0,11272.0,10592.0,642.0,-2602.0,1123.0,-0.30172851609242923,0.11097217945010027,-0.1612675545546854,-0.9330797681938597
-268.6774275302887,2488.0,11424.0,10984.0,666.0,-2693.0,1061.0,-0.2513009822578793,-0.13651836735881548,-0.15008749103904362,-0.9464059893742819
-268.6852161884308,2444.0,11140.0,10740.0,610.0,-2790.0,1008.0,-0.19079235686406978,-0.38050934307357254,-0.1233351274355589,-0.8964370377982084
-268.6929988861084,2356.0,11240.0,10816.0,268.0,-2859.0,886.0,-0.13878817313163558,-0.5978353451121348,-0.0653020630731606,-0.7868077171023597
-268.7008156776428,2308.0,11224.0,10980.0,504.0,-3053.0,739.0,-0.07636710143433911,-0.7879180624819937,-0.023596796036235258,-0.6105705396184481
-268.7086081504822,2572.0,11136.0,11012.0,426.0,-3278.0,558.0,-0.02320076635380921,-0.9276741728220749,0.013308565529928075,-0.3724315180043312
-268.71638464927673,2676.0,11236.0,10888.0,497.0,-3368.0,396.0,0.03234045064464519,-0.9941712146112969,0.03449976931919328,-0.09688889104186588
-268.72416639328003,2572.0,10880.0,11176.0,527.0,-3856.0,216.0,0.08658129536544831,-0.9700408872481789,0.03587579709162292,0.224136751878507
-268.73199939727783,2544.0,11148.0,11212.0,658.0,-4594.0,-48.0,0.14604265677877457,-0.8112746574423152,0.009247524457126682,0.5660560536592345
-268.7398202419281,2328.0,10956.0,11236.0,967.0,-5026.0,-150.0,0.20627319951606957,-0.5027268441795519,-0.01608768987216575,0.8393201257787457
-268.7476191520691,2592.0,11056.0,11284.0,1027.0,-5365.0,-277.0,0.23827663875155267,-0.08179989657236655,-0.044649364244431264,0.9667158086110831
-268.7553837299347,3564.0,11076.0,11208.0,1520.0,-5607.0,-433.0,0.23513954580528174,0.3785784590475966,-0.031942681821507564,0.8946325555342165
-268.7631788253784,3944.0,11140.0,11312.0,1718.0,-5866.0,-443.0,0.17347881894217332,0.7698354108028809,-0.00288302696499767,0.6142069910119123
-268.770964384079,4388.0,10900.0,11684.0,1902.0,-5983.0,-455.0,0.06017495429148563,0.9811528000648682,0.03429677237416277,0.1803937061141588
