programtime,ax,ay,az,gx,gy,gz,q0,q1,q2,q3
-195.57201504707336,6260.0,10424.0,11516.0,250.0,-534.0,73.0,0.9986445499425084,0.02206956644466383,-0.04670679171474303,0.006361816940561708
-195.5798044204712,6288.0,10360.0,11164.0,66.0,-759.0,123.0,0.9930811677215216,0.02796910589892696,-0.11294497717435152,0.01584157704141477
-195.58760738372803,6384.0,10384.0,11036.0,126.0,-482.0,79.0,0.9869299083517677,0.039044164578951636,-0.15469218057268547,0.022698865230899895
-195.5953812599182,6336.0,10540.0,10968.0,173.0,-398.0,81.0,0.9800505831652335,0.05391216326152808,-0.18883572864116027,0.03058432079530398
-195.6031677722931,6256.0,10728.0,10976.0,225.0,-421.0,111.0,0.9708409009677235,0.07270062840569756,-0.2245955782532775,0.04170599317450095
-195.6109676361084,6224.0,10460.0,11004.0,6.0,-389.0,71.0,0.9623264738434757,0.073508098819458,-0.2578274820306224,0.045269268358126814
-195.6187617778778,6176.0,10544.0,10760.0,313.0,-326.0,82.0,0.9518773503720271,0.0994715243669927,-0.2842340879718383,0.05697287884294867
-195.62656211853027,6232.0,10656.0,10892.0,316.0,-315.0,81.0,0.9401715702905455,0.12548597760788596,-0.30922100825936966,0.06865169984976152
-195.63436484336853,6208.0,10708.0,10936.0,260.0,-357.0,146.0,0.9260569785232806,0.14518907605872333,-0.33816655273770146,0.08355828702795257
-195.64216804504395,6172.0,10976.0,11108.0,0.0,-338.0,170.0,0.9143722630918393,0.14282593451023556,-0.367292337219476,0.09284641048226304
-195.6499571800232,6208.0,10668.0,11220.0,213.0,-328.0,92.0,0.8999476981254917,0.15967632269763618,-0.39248059650981404,0.10274528685876518
-195.6577548980713,6152.0,10568.0,11472.0,196.0,-345.0,106.0,0.8839433549790655,0.17462828968317531,-0.41884115344023404,0.11278826984902884
-195.66559672355652,6396.0,10480.0,11276.0,187.0,-343.0,135.0,0.8667384298704222,0.18755680380207004,-0.4450368953391681,0.12461581488792443
-195.6734254360199,6120.0,10432.0,11496.0,211.0,-367.0,156.0,0.8467683885176813,0.20144265633179226,-0.4724950638818895,0.13839279975638058
-195.68126463890076,6108.0,10376.0,11380.0,273.0,-343.0,117.0,0.8258641658185968,0.22088827378611348,-0.4960216380214677,0.1520502704208197
-195.68905544281006,6068.0,10412.0,11328.0,303.0,-321.0,92.0,0.8043908150703457,0.24292063601593017,-0.5163239596628955,0.16539210956424036
-195.6968560218811,6208.0,10472.0,11312.0,349.0,-325.0,127.0,0.7799044522838541,0.2662288022703909,-0.5361171078661008,0.1828926373662493
-195.70464611053467,6136.0,10724.0,11072.0,315.0,-364.0,67.0,0.7539250213520087,0.29015795851057197,-0.5567495812410823,0.1934821053230246
-195.71245074272156,6196.0,10564.0,11344.0,285.0,-371.0,82.0,0.7267956641737684,0.31097748982049483,-0.5777676397300544,0.20309017170684743
-195.72023916244507,6116.0,10560.0,11440.0,220.0,-332.0,22.0,0.7033935704544189,0.3295488448860009,-0.5950130985826825,0.20638424453606458
-195.7280786037445,6224.0,10576.0,11480.0,132.0,-365.0,9.0,0.6802177739067035,0.34359378401281854,-0.6148075284535799,0.20312260978522817
-195.73587369918823,6184.0,10576.0,11260.0,77.0,-414.0,23.0,0.6549712585532954,0.35405719209613684,-0.6381475435856444,0.19602006991560775
-195.74366426467896,6244.0,10464.0,11148.0,62.0,-424.0,42.0,0.6284065332023845,0.36228209360856045,-0.6620351316810441,0.18859055676046294
-195.7514841556549,6180.0,10272.0,11076.0,132.0,-434.0,29.0,0.5983346931430266,0.3747136971753589,-0.6839351173636752,0.18389669754334845
-195.75927901268005,6232.0,10424.0,11180.0,124.0,-421.0,32.0,0.5683414990600291,0.38576757422639185,-0.7043580749836527,0.17902799034510541
-195.76706385612488,6368.0,10448.0,10780.0,120.0,-465.0,74.0,0.5342030470641547,0.3940973598957434,-0.7272969204473192,0.17422274518105701
-195.77487421035767,6280.0,10352.0,11068.0,79.0,-465.0,114.0,0.49990810517486783,0.39727065357740987,-0.7509453470871178,0.16837161243766482
-195.78273797035217,6248.0,10324.0,11068.0,51.0,-442.0,12.0,0.46875810192761713,0.40491115486243195,-0.7692460434523569,0.15675880574335802
-195.79053783416748,6300.0,10424.0,11208.0,77.0,-458.0,60.0,0.4342180247205555,0.40996757736645284,-0.7883307441494202,0.14804029973247837
-195.79833459854126,6240.0,10340.0,11404.0,-256.0,-474.0,27.0,0.4100724883462263,0.40409196270733333,-0.8096169772718949,0.11432668144396198
-195.80613040924072,6304.0,10340.0,11296.0,-1.0,-265.0,9.0,0.3912960096014243,0.40596291595280815,-0.8191588228092697,0.10516827827261918
-195.81392073631287,6216.0,10316.0,11212.0,-19.0,-497.0,11.0,0.3561035340741521,0.4087121844280603,-0.8358647294261101,0.08645679511384911
-195.82171630859375,6308.0,10328.0,11476.0,55.0,-506.0,-37.0,0.3172907209730591,0.4165335240377582,-0.8489772759642628,0.07116183410637117
-195.8295123577118,6224.0,10504.0,11156.0,65.0,-518.0,-69.0,0.276775907459892,0.4262210973160645,-0.8594710379019166,0.05513808357429036
-195.83729815483093,6296.0,10240.0,11040.0,97.0,-470.0,-96.0,0.23824643023334774,0.4376345549550677,-0.865970811267886,0.04253456032905302
-195.84507417678833,6300.0,10552.0,10964.0,140.0,-411.0,-221.0,0.20255948556493106,0.45836781948133354,-0.8647518939491743,0.03275299654862293
-195.85287952423096,6300.0,10472.0,11216.0,142.0,-435.0,-207.0,0.16456297581608612,0.4772924029355386,-0.8629087379803683,0.0223494744390506
-195.86069178581238,6228.0,10632.0,11236.0,163.0,-419.0,-158.0,0.12649271170900367,0.49192954472557243,-0.861269029255125,0.014851806507241517
-195.86848545074463,6112.0,10484.0,11084.0,146.0,-415.0,-120.0,0.08918623303494226,0.5027051828249925,-0.8598192838408973,0.006641847126676177
-195.87631487846375,6180.0,10544.0,11076.0,126.0,-449.0,-40.0,0.05001275182439869,0.5065273282130957,-0.8607631525804262,-0.003947858667633815
-195.88414192199707,6188.0,10476.0,11116.0,129.0,-467.0,-11.0,0.009275864965025696,0.5073030762266513,-0.8615876724078568,-0.014974309163977509
-195.89197325706482,6212.0,10464.0,11228.0,95.0,-538.0,62.0,-0.0352103081004006,0.501436356807971,-0.863899878397392,-0.031604024737289745
-195.89976596832275,6204.0,10428.0,11316.0,127.0,-541.0,92.0,-0.08116027563937911,0.492019632639861,-0.8655727437854271,-0.04597299175432687
-195.90756344795227,6232.0,10736.0,11136.0,124.0,-623.0,110.0,-0.13285805052222746,0.47956743652631884,-0.8650186894850352,-0.06408181549082881
-195.91534399986267,6292.0,10440.0,11136.0,107.0,-612.0,87.0,-0.18274814582513949,0.46762717813796706,-0.860879293351319,-0.08255167922658725
-195.9231297969818,6236.0,10500.0,11068.0,110.0,-544.0,44.0,-0.22750043201949047,0.45809601573511516,-0.8537903756471822,-0.09712666086508719
-195.930926322937,6268.0,10500.0,11244.0,172.0,-579.0,42.0,-0.2767634427329467,0.44600651185926377,-0.844259622733591,-0.10819370391789858
-195.93871450424194,6228.0,10740.0,11108.0,197.0,-585.0,9.0,-0.32696891078534635,0.4344126698000845,-0.8311392482391958,-0.11655262216437519
-195.94649982452393,6204.0,10564.0,11068.0,224.0,-593.0,5.0,-0.3778484021873875,0.4209595275691193,-0.8154412777117886,-0.12279732780882337
-195.9543023109436,6228.0,10748.0,10960.0,209.0,-640.0,-50.0,-0.4308716104488464,0.4100288646061689,-0.7933627185407448,-0.1296209177896543
-195.9621090888977,6336.0,10552.0,11232.0,210.0,-587.0,-252.0,-0.4810725658325581,0.412202347748679,-0.7633277210878063,-0.1264484129305397
-195.96990990638733,6328.0,10492.0,11064.0,252.0,-572.0,19.0,-0.5272756600371611,0.39341998674131495,-0.7416649864431206,-0.13089744172123957
-195.97770142555237,6608.0,10540.0,11108.0,246.0,-608.0,21.0,-0.5739297713293002,0.3731380748573448,-0.7160302279514914,-0.13665031040355094
-195.98552179336548,6152.0,10620.0,11116.0,316.0,-576.0,35.0,-0.6188200582907784,0.3476247654842669,-0.690928164389782,-0.1372480583905384
-195.993323802948,6516.0,10600.0,11128.0,318.0,-520.0,65.0,-0.6581515435568464,0.31978088481835953,-0.6676425137242339,-0.1372231951475909
-196.00112628936768,6532.0,10628.0,11256.0,331.0,-486.0,74.0,-0.6939472371495328,0.29017474971251744,-0.6448566874783241,-0.1356307461318818
-196.00895285606384,6580.0,10524.0,11276.0,312.0,-425.0,95.0,-0.7239104819657637,0.2605347988138205,-0.6244869547281217,-0.13450381437541023
-196.01679301261902,6540.0,10568.0,11276.0,315.0,-335.0,74.0,-0.7479069536323305,0.23238529230395877,-0.6081446556360305,-0.12958527096296327
-196.0245852470398,6496.0,10544.0,11180.0,334.0,-259.0,50.0,-0.7673979969140423,0.2047621438972674,-0.5955561487766965,-0.12035635593178912
-196.032381772995,6508.0,10540.0,11116.0,302.0,-156.0,96.0,-0.7795917409078745,0.1777200082844116,-0.5896453644845044,-0.11388880676148166
-196.0401656627655,6416.0,10552.0,10940.0,356.0,-122.0,111.0,-0.7898934645203504,0.1463794625291772,-0.5861844924676971,-0.10501956221626171
-196.04799222946167,6344.0,10668.0,10944.0,371.0,-189.0,33.0,-0.8035357487950302,0.11719411914737314,-0.5765088665438209,-0.09073789529210133
-196.05578017234802,6344.0,10576.0,11044.0,390.0,-235.0,42.0,-0.8184365600902149,0.0856880722710794,-0.5630019130526597,-0.07647219937472581
-196.06358647346497,6368.0,10672.0,11088.0,362.0,-229.0,76.0,-0.8313628151253282,0.05441188444397282,-0.5491257519137628,-0.065849260005636
-196.07138395309448,6404.0,10680.0,11056.0,331.0,-261.0,80.0,-0.8444653353813312,0.024924551665391283,-0.5319783274041217,-0.05706245031444606
-196.0791835784912,6392.0,10656.0,11104.0,291.0,-312.0,55.0,-0.8587794848400524,-0.0007507582624456133,-0.5100608289167714,-0.048323737279125034
-196.08696579933167,6524.0,10712.0,11072.0,300.0,-342.0,64.0,-0.873086220464109,-0.027630446059383945,-0.485153620767702,-0.03978661008738364
-196.094744682312,6412.0,10656.0,11048.0,266.0,-302.0,133.0,-0.8842375217455629,-0.054671340396063466,-0.46226879988862646,-0.03798165775860633
-196.10254406929016,6624.0,10672.0,10920.0,246.0,-262.0,120.0,-0.8928182086795313,-0.07945381613764636,-0.4418795023848845,-0.03612814309544107
-196.11033010482788,6300.0,10696.0,10920.0,270.0,-507.0,58.0,-0.9092269872122375,-0.10432994446585063,-0.4021256064587747,-0.02676835898729614
-196.11812162399292,6220.0,10560.0,11240.0,226.0,-229.0,54.0,-0.9147739493105651,-0.12477888896750788,-0.38363152268263234,-0.02111173453297732
-196.125914812088,6216.0,10620.0,11052.0,211.0,-225.0,66.0,-0.9196007075502671,-0.1443306359049391,-0.36498772216885234,-0.016946057899021316
-196.13370037078857,6204.0,10492.0,11192.0,178.0,-180.0,19.0,-0.9228981836187834,-0.15958073734416447,-0.35025731547521954,-0.010618092951902445
-196.1414976119995,6260.0,10464.0,11132.0,179.0,-153.0,-8.0,-0.9249531238113539,-0.17398820876906002,-0.33791090041478333,-0.0024587276836840403
-196.1492908000946,6312.0,10732.0,11024.0,204.0,-156.0,-63.0,-0.926279723714871,-0.18871156577610868,-0.3259978509937055,0.010918769368266136
-196.1570782661438,6248.0,10552.0,11056.0,239.0,-174.0,228.0,-0.9270716938239222,-0.21436187778280133,-0.30754319335476177,0.0020601177225039007
-196.16486740112305,6260.0,10616.0,11124.0,219.0,-186.0,-75.0,-0.9276937630263757,-0.23007357094599176,-0.2935100939122947,0.017385590749767244
-196.1726689338684,6300.0,10696.0,11112.0,229.0,-192.0,-141.0,-0.9274661289744067,-0.2447194341585977,-0.2800777574863253,0.038411299271904446
-196.18047404289246,6332.0,10616.0,11248.0,162.0,-180.0,-146.0,-0.9276883416844927,-0.2536811285923345,-0.26774128020239124,0.05792091655334785
-196.1883044242859,6380.0,10604.0,11076.0,156.0,-213.0,-183.0,-0.92797615956415,-0.26094958194353296,-0.25339520411222344,0.08097180680330276
-196.1961362361908,6144.0,10604.0,11132.0,146.0,-190.0,-156.0,-0.9275164167882318,-0.26798575870373575,-0.24018442781715366,0.10103648031502706
-196.20394110679626,6424.0,10616.0,11440.0,103.0,-163.0,-156.0,-0.9269885236163316,-0.2716292231689901,-0.22940306990787576,0.119515997762088
-196.21174502372742,6384.0,10572.0,11196.0,83.0,-120.0,-179.0,-0.9254262656794924,-0.273528377537142,-0.22275131832600692,0.138384622181925
-196.21953988075256,6256.0,10540.0,11120.0,57.0,-111.0,-98.0,-0.9250091509354941,-0.2749320432550163,-0.21513859439583988,0.14995275082038506
-196.22737503051758,6296.0,10516.0,11148.0,16.0,-127.0,-53.0,-0.9263058735605376,-0.2736149232017528,-0.2056526513787099,0.15747790127333747
-196.23516750335693,6320.0,10476.0,11056.0,41.0,-137.0,-244.0,-0.9242088172515635,-0.2706542042135283,-0.19949684292977407,0.18106731763921657
-196.24296641349792,6352.0,10496.0,11060.0,73.0,-116.0,38.0,-0.925088781407574,-0.2754158943860189,-0.18778908971638292,0.1819123124389643
-196.2507562637329,6604.0,10444.0,11092.0,35.0,-173.0,50.0,-0.9278105212843446,-0.27633941105113036,-0.17175346962380703,0.18249633466503118
-196.2585527896881,6376.0,10452.0,11148.0,60.0,-175.0,48.0,-0.9296701208262497,-0.2791519159541877,-0.15515539283297378,0.18361502753548864
-196.26634097099304,6400.0,10524.0,11116.0,84.0,-153.0,109.0,-0.931335058839004,-0.285005847276555,-0.13842127483460148,0.17951664510202237
-196.27413845062256,6476.0,10512.0,11112.0,94.0,-152.0,113.0,-0.9324836161678228,-0.2916367197999256,-0.12146301400782666,0.1751258560894261
-196.28194451332092,6500.0,10532.0,11148.0,87.0,-105.0,92.0,-0.9327282707423599,-0.29810898387672885,-0.1089334472615418,0.17112133343820188
-196.28975009918213,6496.0,10572.0,11072.0,97.0,-144.0,91.0,-0.9328277643030987,-0.30472474615518536,-0.09307819549367738,0.168260633392309
-196.29757928848267,6540.0,10556.0,10964.0,62.0,-110.0,55.0,-0.9328419288608542,-0.30862756469835445,-0.08143875556826105,0.16710084128758104
-196.30539917945862,6528.0,10612.0,10900.0,26.0,-114.0,45.0,-0.9335783804709051,-0.3094283853827312,-0.07025609824337516,0.16658199931677792
-196.31319499015808,6520.0,10592.0,11000.0,-255.0,-144.0,37.0,-0.9415975580321232,-0.28673347929287724,-0.06090380792148932,0.1657367694303406
-196.32097959518433,6408.0,10740.0,10828.0,34.0,-249.0,53.0,-0.9426086422215881,-0.286205238406238,-0.038308397471722905,0.1676543342748736
-196.328843832016,6436.0,10536.0,10848.0,4.0,-286.0,-22.0,-0.9428511365645613,-0.28225253587266774,-0.014959789773717484,0.176469388173387
-196.33663606643677,6420.0,10584.0,10796.0,-44.0,-359.0,-68.0,-0.9428654136600992,-0.2729430930345611,0.012527251891023362,0.19065662235641245
-196.34440231323242,6448.0,10580.0,10860.0,-43.0,-347.0,-64.0,-0.9419788434005901,-0.26364843844086444,0.039125362474690555,0.20404549861392296
-196.35219597816467,6512.0,10540.0,10888.0,-82.0,-375.0,-144.0,-0.9393989310066757,-0.25064024466235363,0.06543836245015455,0.22455942843477494
-196.36000990867615,6552.0,10600.0,10828.0,-29.0,-377.0,-179.0,-0.9337201787239844,-0.24182542961996828,0.0920941438019961,0.24739797515368978
-196.36779713630676,6536.0,10592.0,10908.0,-34.0,-357.0,-239.0,-0.9257183010110976,-0.23319546383380357,0.11561404777458312,0.2744064408457651
-196.37558245658875,6548.0,10552.0,10884.0,-37.0,-362.0,-249.0,-0.9161377276110411,-0.22397620222724576,0.13908789640416946,0.30196172266928256
-196.3833887577057,6512.0,10540.0,10888.0,-35.0,-292.0,-224.0,-0.9068582998475777,-0.21618362625068716,0.15733197499901022,0.32575959445820585
-196.39119005203247,6532.0,10496.0,11048.0,-8.0,-214.0,-198.0,-0.8981046385284153,-0.2122060592063273,0.17053003369037426,0.34539275368690786
-196.39899682998657,6552.0,10268.0,11012.0,-33.0,-228.0,-142.0,-0.8907475597511161,-0.2048807232613202,0.18500603317875253,0.36106154838311527
-196.40679955482483,6532.0,10736.0,11088.0,76.0,-196.0,-121.0,-0.8821586892491945,-0.20661594383227289,0.2006982635247366,0.3725937543150686
-196.41458010673523,6592.0,10248.0,11208.0,70.0,-240.0,-84.0,-0.8736780806390536,-0.20568261032274382,0.22015517858868303,0.3819855659082771
-196.42237639427185,6552.0,10532.0,11252.0,101.0,-196.0,-41.0,-0.8665073547180999,-0.20767289253837515,0.2379524324461849,0.38654315906135117
-196.43016576766968,6568.0,10640.0,11216.0,94.0,-183.0,-11.0,-0.8604297252911719,-0.20887908462912727,0.2549831976677854,0.38860492115639456
-196.43796277046204,6880.0,10528.0,11192.0,103.0,-77.0,-35.0,-0.855533502876288,-0.21481901374950432,0.26386979162767077,0.39024088695866826
-196.4457495212555,6628.0,10552.0,11276.0,107.0,-50.0,226.0,-0.8597962187849694,-0.2158960858283395,0.27568006095141884,0.371671691524783
-196.45358085632324,6460.0,10460.0,11164.0,131.0,113.0,-100.0,-0.8566006784527598,-0.23184389902963548,0.2697766328391688,0.373770320559255
-196.46136784553528,6464.0,10532.0,11040.0,125.0,133.0,-54.0,-0.8552692724585389,-0.24679261179074974,0.26305456955859574,0.37203517547146514
-196.4691903591156,6404.0,10524.0,10932.0,145.0,143.0,-46.0,-0.8537573244674391,-0.263255336181801,0.2563376636816779,0.3688984427565748
-196.47702980041504,6432.0,10528.0,10924.0,152.0,192.0,16.0,-0.8548652027399926,-0.28027381151493497,0.2475223229899178,0.3597009526605081
-196.48487758636475,6256.0,10508.0,10796.0,199.0,133.0,33.0,-0.8537164128702629,-0.29842317930353135,0.24488259269935478,0.3494916425941328
-196.49267268180847,6348.0,10484.0,11012.0,207.0,76.0,76.0,-0.8521193804935173,-0.31432233700748907,0.24772470127985075,0.3372336018567892
-196.5004804134369,6356.0,10548.0,10856.0,237.0,52.0,111.0,-0.8498214494534428,-0.33081099189915486,0.25405435853433056,0.322217278551689
-196.50826215744019,6424.0,10724.0,11012.0,208.0,22.0,107.0,-0.8472011835744656,-0.34419816051862606,0.2615128058707998,0.30885082679377757
-196.51608157157898,6568.0,10576.0,10940.0,191.0,23.0,124.0,-0.8452461176435814,-0.3558051892992727,0.2687982558347071,0.2944642007721498
-196.5238733291626,6680.0,10576.0,10972.0,172.0,15.0,61.0,-0.8418144791046615,-0.3671575798796639,0.27410046729592197,0.2853289822902907
-196.53165340423584,6708.0,10628.0,10776.0,169.0,241.0,29.0,-0.8427117392208321,-0.38451097476543417,0.26155613928206073,0.27125010759112905
-196.53944659233093,6684.0,10520.0,10960.0,168.0,-54.0,-66.0,-0.8342748037828499,-0.3968029910690176,0.2673567227326581,0.2739586115847081
-196.54723143577576,6908.0,10464.0,10952.0,185.0,-107.0,-51.0,-0.8241139903590731,-0.40859422288330843,0.27784338411465337,0.27692949612590534
-196.55501890182495,6536.0,10492.0,10916.0,191.0,-113.0,-76.0,-0.8126781637000894,-0.4211246481268446,0.28786885688882863,0.2816731336471604
-196.56285333633423,6548.0,10552.0,10848.0,199.0,-65.0,-77.0,-0.8018134903371888,-0.4352694498044669,0.2945214292595628,0.28441652639591075
-196.57064652442932,6484.0,10572.0,10832.0,203.0,-67.0,-76.0,-0.7904686558715691,-0.44946133920656683,0.30132602303498096,0.28696068804830466
-196.5784409046173,6564.0,10616.0,10992.0,194.0,-76.0,-76.0,-0.7789433081031248,-0.46264536294097935,0.3084024963569858,0.2899905018295415
-196.58623719215393,6536.0,10576.0,10844.0,168.0,-134.0,-126.0,-0.7653177667621872,-0.47375259230159866,0.31661042322068206,0.2993410046647038
-196.59404945373535,6532.0,10612.0,10856.0,178.0,-136.0,-135.0,-0.7506138064350256,-0.48549736958795087,0.32468213319106876,0.30895425243682817
-196.6018204689026,6488.0,10572.0,10820.0,115.0,-131.0,-135.0,-0.7383891919634369,-0.4930430253806268,0.33058292319166643,0.3200076674224449
-196.60962057113647,6536.0,10520.0,10908.0,137.0,-162.0,-153.0,-0.7234963755454084,-0.5014457069673859,0.3381761676839987,0.33277932199462157
-196.61744737625122,6572.0,10436.0,11008.0,121.0,-143.0,-65.0,-0.7121242259898455,-0.5065943310287537,0.34782042868948065,0.33950290118665977
-196.62523484230042,6504.0,10412.0,11064.0,192.0,-117.0,-1.0,-0.7000581342410921,-0.5148165347150953,0.3606598273388102,0.33883186569560103
-196.63303136825562,6540.0,10480.0,11184.0,182.0,-85.0,21.0,-0.6898582095704887,-0.5225122491553146,0.37210635395182645,0.33557929244745127
-196.6408233642578,6540.0,10512.0,11100.0,191.0,-9.0,20.0,-0.6814855256964113,-0.5328619922284923,0.3790811777448456,0.3285316365042322
-196.64861679077148,6548.0,10588.0,11148.0,208.0,48.0,55.0,-0.6749925390830295,-0.5445333872319637,0.38465388236788944,0.31608519919673445
-196.65639925003052,6444.0,10616.0,11168.0,184.0,78.0,32.0,-0.6697845965611519,-0.5562143244722613,0.38656766563922307,0.3042690574861711
-196.66419124603271,6436.0,10588.0,11232.0,119.0,80.0,36.0,-0.6677465344590157,-0.5638879536573544,0.38673742960649277,0.29424327006655415
-196.67200136184692,6356.0,10644.0,11132.0,135.0,86.0,40.0,-0.665103030385887,-0.5724120291292556,0.38709070069186435,0.28309577410749104
-196.67979669570923,6396.0,10520.0,11096.0,110.0,80.0,91.0,-0.6646300712864692,-0.5775001443857657,0.38964157180064546,0.27007387341408085
-196.6876277923584,6152.0,10492.0,11084.0,137.0,-234.0,37.0,-0.6505915789674358,-0.5783721015171408,0.4081616739285997,0.2749915589597401
-196.6954312324524,6460.0,10432.0,11092.0,121.0,14.0,20.0,-0.6455634709817857,-0.5847009096426925,0.41122188114465036,0.26882934301302036
-196.70322012901306,6528.0,10332.0,11056.0,198.0,-256.0,10.0,-0.6263937339335256,-0.5891285398890456,0.4305990693173448,0.274122044133727
-196.7110152244568,6480.0,10256.0,10756.0,199.0,-56.0,-7.0,-0.6139279354970985,-0.5987124539833731,0.437955923537308,0.2698712591219402
-196.7188014984131,6500.0,10296.0,10996.0,206.0,-35.0,253.0,-0.607673189197776,-0.5988920242059568,0.45768257202956014,0.2501765411326609
-196.72658824920654,6592.0,10276.0,11260.0,261.0,-28.0,236.0,-0.5979179027241738,-0.6023011575871039,0.47693697033858296,0.22860145121020903
-196.73437547683716,6544.0,10340.0,11248.0,254.0,49.0,76.0,-0.5880944812123509,-0.6131009398885239,0.48326343392015725,0.21144401649392272
-196.74216151237488,6468.0,10452.0,11124.0,307.0,88.0,75.0,-0.5766615663482396,-0.6269687820369628,0.4881792264782041,0.1898752935034587
-196.74994540214539,6580.0,10260.0,11072.0,307.0,146.0,173.0,-0.5687697438796792,-0.6370263178527336,0.4950669501962753,0.16002238478847572
-196.75773572921753,6564.0,10276.0,10800.0,326.0,188.0,163.0,-0.5608201308375753,-0.6482933743489778,0.4989845372738898,0.12732208443197598
-196.76555848121643,6568.0,10592.0,11432.0,323.0,197.0,152.0,-0.5525960048797952,-0.6591789017005353,0.5011664691708412,0.09462029973846905
-196.7733452320099,6528.0,10596.0,11080.0,274.0,182.0,127.0,-0.5457167864727326,-0.6679527607172855,0.501671063111474,0.06601850383516945
-196.78112888336182,6448.0,10612.0,11064.0,223.0,162.0,139.0,-0.5405470574163758,-0.6731077284457968,0.5031103668020491,0.040184865824636394
-196.78894305229187,6428.0,10496.0,11148.0,180.0,177.0,162.0,-0.5382605234309203,-0.6748088715089713,0.5046838042230526,0.01424266841599312
-196.79672527313232,6432.0,10500.0,11000.0,193.0,163.0,210.0,-0.5342471186263515,-0.6744866139912749,0.5093719653138599,-0.01371221128491312
-196.80450654029846,6460.0,10424.0,10912.0,181.0,147.0,200.0,-0.5298295377545831,-0.6735556304133576,0.513834499894658,-0.039718766084001544
-196.8123152256012,6372.0,10448.0,11100.0,198.0,111.0,181.0,-0.522503632274931,-0.6739364018094575,0.5184317371316762,-0.06346821653597835
-196.82012677192688,6360.0,10452.0,11096.0,1.0,109.0,205.0,-0.5262646190033362,-0.6639097302576374,0.5253461493358006,-0.07925177747250416
-196.82791709899902,6312.0,10500.0,11020.0,491.0,137.0,192.0,-0.5023296602520964,-0.6758999711433029,0.5261263864093306,-0.11838567043082318
-196.83568716049194,6336.0,10540.0,11088.0,293.0,166.0,181.0,-0.49065381061210844,-0.6782964888143604,0.5261435190107866,-0.14948481125811208
-196.84350275993347,6340.0,10568.0,11024.0,6.0,195.0,211.0,-0.4964745849250839,-0.6660645621410708,0.5299749204085902,-0.1702867267910154
-196.8512897491455,6624.0,10664.0,11076.0,236.0,205.0,186.0,-0.4893569229878489,-0.6642636901515644,0.5280623581601103,-0.20108132127195277
-196.8590865135193,6384.0,10672.0,11000.0,246.0,156.0,194.0,-0.4787863913890782,-0.6627440349717395,0.5280123176597015,-0.22964522187416087
-196.86687564849854,6372.0,10592.0,10784.0,224.0,152.0,168.0,-0.4694154998129266,-0.6610247028969399,0.5266116698760379,-0.25568648741332284
-196.87470412254333,6344.0,10556.0,10760.0,200.0,148.0,87.0,-0.4627449930440953,-0.6617088978142927,0.5208903273649438,-0.27691455870657306
-196.8824896812439,6388.0,10544.0,10956.0,171.0,153.0,93.0,-0.4575996734925106,-0.6605019542666135,0.515751625894354,-0.2972204024236264
-196.89029502868652,6152.0,10480.0,10944.0,201.0,124.0,87.0,-0.4493573136582673,-0.6612058989264441,0.5103985964474077,-0.3168249305708358
-196.89808082580566,6308.0,10404.0,10980.0,191.0,53.0,87.0,-0.43833988251735284,-0.6632067056152924,0.5078894574070507,-0.33175791185193443
-196.90587186813354,6296.0,10472.0,10864.0,266.0,71.0,50.0,-0.424643140413727,-0.6688832065046705,0.5001356116963158,-0.3494822302617829
-196.91365146636963,6356.0,10268.0,10892.0,499.0,39.0,87.0,-0.3942975539510871,-0.6816937007386121,0.487989260366894,-0.37641681562870843
-196.92144417762756,6408.0,10508.0,10976.0,314.0,-15.0,113.0,-0.37122998071993063,-0.6878613776263586,0.48462938361399205,-0.39264409727203364
-196.92920088768005,6476.0,10564.0,10812.0,330.0,-44.0,123.0,-0.3452986321768559,-0.6945021233766313,0.48182279856889376,-0.4077774466806396
-196.9370093345642,6552.0,10596.0,10756.0,346.0,-46.0,84.0,-0.3193653522164701,-0.7026680262124815,0.47567722860095424,-0.4218940517864894
-196.9447958469391,6588.0,10656.0,10836.0,298.0,-63.0,72.0,-0.29583071339356565,-0.7100198126911644,0.4706261160261279,-0.4322812898023919
-196.95259308815002,6596.0,10700.0,10956.0,274.0,-67.0,255.0,-0.26644628716718344,-0.7087379537273745,0.4774877781407853,-0.4457603736620529
-196.9603750705719,6672.0,10616.0,10852.0,262.0,-76.0,45.0,-0.2453631528440438,-0.7156876251336189,0.47163665804730276,-0.4529315723627606
-196.9681601524353,6668.0,10680.0,10560.0,272.0,-114.0,-224.0,-0.23252682708564779,-0.7348420073642762,0.4490245656024361,-0.45201265290240056
-196.9759874343872,6700.0,10664.0,10892.0,281.0,-111.0,41.0,-0.20857209995927295,-0.7430366285323069,0.44259638963204195,-0.4566209408936514
-196.9837737083435,6664.0,10568.0,10952.0,257.0,-83.0,94.0,-0.18500081218117992,-0.7471416237909284,0.43975883753420003,-0.46278100469004535
-196.99156522750854,6688.0,10664.0,10784.0,349.0,-62.0,88.0,-0.15633214656434313,-0.7515063233681795,0.4321170679631601,-0.4733638615939621
-196.99935722351074,6772.0,10620.0,10964.0,336.0,-15.0,45.0,-0.13191039570785373,-0.7546667170675299,0.4211415628916283,-0.4855075464500124
-197.00713777542114,6784.0,10608.0,10972.0,375.0,81.0,25.0,-0.10916369835726811,-0.7541912912081258,0.40567002231927074,-0.5046886329394253
-197.01492071151733,6752.0,10656.0,10556.0,368.0,120.0,69.0,-0.0861952372480715,-0.7495098978520148,0.3925579269738684,-0.5260262047346977
-197.02274084091187,6760.0,10628.0,10764.0,399.0,141.0,35.0,-0.0633678221161603,-0.7443085801467466,0.37513747565660605,-0.5488725999703192
-197.0305254459381,6888.0,10616.0,10780.0,415.0,145.0,24.0,-0.04006796115501195,-0.7383052966274221,0.3556737586378991,-0.5716607603090875
-197.03830909729004,6596.0,10644.0,10776.0,386.0,103.0,86.0,-0.014180386203441897,-0.7313581305605633,0.34129872632925956,-0.5902790703693501
-197.04609060287476,6588.0,10596.0,11004.0,338.0,101.0,71.0,0.007955429599916693,-0.7240750993117443,0.32804731305748946,-0.6066604668942339
-197.05388259887695,6652.0,10616.0,10560.0,300.0,47.0,99.0,0.030713653196077512,-0.7182390796163683,0.31824049342895955,-0.6179905212552014
-197.061665058136,6616.0,10568.0,10640.0,335.0,26.0,162.0,0.05961722505744437,-0.7110352552510499,0.3101426556847003,-0.6282405473951563
-197.06945490837097,6664.0,10520.0,11000.0,398.0,45.0,154.0,0.09140363975076247,-0.7018060705211939,0.29780996934023557,-0.6406425182435845
-197.07723474502563,6584.0,10456.0,10704.0,443.0,90.0,124.0,0.12295777927310095,-0.6894074125535675,0.2810211482846425,-0.656220937070133
-197.08502984046936,6752.0,10740.0,10788.0,490.0,99.0,141.0,0.15785755279869754,-0.674292269076372,0.2621308666025538,-0.6720850672812468
-197.09282851219177,6700.0,10580.0,10996.0,525.0,186.0,114.0,0.1908872811413939,-0.6526938873867594,0.24020183779577187,-0.6927162567645864
-197.1006200313568,6732.0,10568.0,10764.0,498.0,226.0,126.0,0.2218074940653411,-0.627290492435721,0.220652350600913,-0.7131764254730357
-197.10839986801147,6780.0,10684.0,10980.0,522.0,19.0,77.0,0.25448381857973545,-0.6138141439963782,0.19240942124154883,-0.7221141165553836
-197.11619329452515,6804.0,10696.0,10752.0,497.0,306.0,1.0,0.27561602873648244,-0.5826527081550151,0.16758065161176236,-0.7459680633837714
-197.1240096092224,6760.0,10520.0,10932.0,472.0,312.0,22.0,0.29606700216100307,-0.5499169622063355,0.145146196853307,-0.7673775123419851
-197.13181018829346,6708.0,10740.0,10912.0,437.0,339.0,-255.0,0.29518753339939285,-0.51833381255717,0.11207314594936446,-0.7947540429859691
-197.13959622383118,6656.0,10504.0,10952.0,422.0,327.0,253.0,0.3281302834110923,-0.4815709171552864,0.10235461791222618,-0.8061907349075743
-197.147385597229,6552.0,10656.0,10940.0,366.0,401.0,-7.0,0.33899508447359755,-0.4423392320193804,0.08749686604482165,-0.8256891878616177
-197.15517258644104,6496.0,10608.0,10860.0,318.0,365.0,-54.0,0.34421702688517875,-0.40656793223745086,0.07301305660903186,-0.8431407050090144
-197.16296315193176,6536.0,10620.0,10872.0,333.0,343.0,-62.0,0.3489090020895373,-0.37128403281387784,0.0563289117754486,-0.8586254881707975
-197.17074489593506,6648.0,10496.0,10908.0,410.0,283.0,-104.0,0.3525920202119048,-0.337663415392892,0.030568989852867882,-0.8721971233886697
-197.1785249710083,6480.0,10740.0,10820.0,464.0,288.0,-97.0,0.35762224176901714,-0.30125897101261667,0.0009833009146538222,-0.8839391368730277
-197.18629908561707,6436.0,10552.0,10732.0,495.0,318.0,-37.0,0.3671946177321638,-0.26082737602308637,-0.028496665005117834,-0.8923705131328733
-197.19409608840942,6444.0,10604.0,10832.0,519.0,316.0,-11.0,0.3783312323473185,-0.21914642163080078,-0.05925243524207813,-0.8974015118300493
-197.2018768787384,6332.0,10616.0,10712.0,556.0,247.0,-251.0,0.36990097853711934,-0.17975424472178875,-0.0995814539194144,-0.9060602693072225
-197.20966148376465,6464.0,10688.0,10752.0,519.0,320.0,53.0,0.3843939936774634,-0.1378866867631658,-0.12958313235783048,-0.9035688856122148
-197.21744012832642,6608.0,10620.0,10708.0,532.0,356.0,111.0,0.4028612891255565,-0.09302619668789673,-0.15831132621841734,-0.8966529052229995
-197.2252218723297,6428.0,10584.0,10664.0,587.0,367.0,130.0,0.4220156247807986,-0.045356123696152474,-0.19023261764837926,-0.8852441390185969
-197.23300647735596,6692.0,10452.0,10724.0,642.0,389.0,117.0,0.43904727564291196,0.006361084477696073,-0.224843980269453,-0.8698518327229038
-197.2407944202423,6620.0,10388.0,10832.0,689.0,384.0,92.0,0.45207843770127654,0.05988776574189494,-0.26213915393429593,-0.8504831601240724
-197.2485752105713,6612.0,10320.0,10992.0,677.0,446.0,147.0,0.46845871092261554,0.11589027313289307,-0.29505587674056477,-0.8246562376862018
-197.25636410713196,6544.0,10380.0,10960.0,697.0,538.0,144.0,0.4842192492344125,0.17863940109528825,-0.3239189955028689,-0.7929036305879743
-197.26415181159973,6496.0,10248.0,10888.0,735.0,589.0,190.0,0.50090645165228,0.24396446486687698,-0.35177353705440545,-0.7522163553151269
-197.27197265625,6504.0,10676.0,10776.0,748.0,635.0,214.0,0.5166775420411643,0.310325634173166,-0.37633984739751286,-0.7036409862892722
-197.27977395057678,6512.0,10860.0,10796.0,705.0,596.0,286.0,0.5329773389192911,0.36777320412121434,-0.3991455065445836,-0.6491231710039278
-197.2875735759735,6700.0,10836.0,10900.0,733.0,578.0,320.0,0.5458434904829025,0.4216923343168988,-0.422518086841011,-0.5879701738762079
-197.29536843299866,6688.0,10772.0,10632.0,742.0,456.0,348.0,0.5515134905396,0.4658638294568105,-0.450178317112871,-0.5254933348369755
-197.30315041542053,6816.0,10572.0,10468.0,856.0,490.0,376.0,0.5510207262347872,0.5124390235332266,-0.4791007557774495,-0.45193458844558215
-197.31094574928284,6764.0,10364.0,10396.0,1036.0,275.0,358.0,0.5278878207784191,0.5553163437388292,-0.520207114833466,-0.37728340107536024
-197.3187325000763,6868.0,10032.0,10228.0,1154.0,609.0,487.0,0.5120144505126831,0.6018963766677041,-0.5496780916044364,-0.27095377803343
-197.32652926445007,6568.0,9560.0,10324.0,1277.0,743.0,99.0,0.47906548371638263,0.6661747826036933,-0.5472874608671898,-0.16487527562389312
-197.334299325943,6392.0,9300.0,10692.0,1305.0,885.0,32.0,0.44188171309536683,0.7250588849459474,-0.5259291121227823,-0.049282187599428574
-197.34209156036377,6252.0,9248.0,10996.0,1253.0,1007.0,-11.0,0.4049183200331634,0.7706311515404262,-0.48697904859271557,0.07085328932894312
-197.34987926483154,6396.0,9628.0,11352.0,1223.0,1070.0,58.0,0.3642430121241002,0.7967506362862856,-0.44104291511952065,0.19492716259935947
-197.35767340660095,6240.0,10100.0,11324.0,1138.0,956.0,314.0,0.31392747460367487,0.7975616478258784,-0.4094977981865938,0.3125004190182157
-197.36545658111572,6272.0,11380.0,11344.0,1127.0,837.0,544.0,0.24852526539881453,0.7794355405382956,-0.39028580380377553,0.42236527077100533
-197.3732500076294,6396.0,12276.0,11108.0,980.0,650.0,802.0,0.17320836200678608,0.7436668889981084,-0.3915464981879054,0.5134683644545106
-197.38104057312012,6424.0,12704.0,11148.0,911.0,385.0,1000.0,0.08190358593620027,0.7007309906460791,-0.4066828314263611,0.5804110233119231
-197.3888611793518,6488.0,12544.0,11196.0,780.0,190.0,1139.0,-0.016548552401760255,0.6514386342235047,-0.432211116360515,0.623335705818958
-197.396648645401,6576.0,11996.0,11100.0,829.0,251.0,1266.0,-0.12193428140570026,0.5836085333557368,-0.45531040278866686,0.6612303289511628
-197.40444421768188,6884.0,11424.0,10904.0,979.0,-86.0,1394.0,-0.25283722200116593,0.5170498848388233,-0.46370116697649233,0.6735829447837378
-197.41221117973328,6968.0,10368.0,10544.0,1272.0,-84.0,1387.0,-0.3899242487704492,0.4319674834558244,-0.44359731609596786,0.6816044267829375
-197.420024394989,6920.0,9916.0,10112.0,1523.0,46.0,1352.0,-0.517872453623698,0.3200047285946856,-0.39914124374187226,0.6856320901175815
-197.42781591415405,6868.0,9248.0,10016.0,1767.0,249.0,1534.0,-0.6370675620094004,0.1682350592353329,-0.3402249853183397,0.6708866116152701
-197.43560004234314,6712.0,8988.0,10420.0,1857.0,294.0,1174.0,-0.7111913958534518,0.012611070720443564,-0.26002535217060213,0.6530195828517372
-197.44337272644043,6568.0,9108.0,10684.0,1857.0,269.0,1236.0,-0.7630772035259883,-0.1433525522704632,-0.16875239276331575,0.6071950733933513
-197.45116901397705,6676.0,9472.0,10520.0,1894.0,747.0,1366.0,-0.7830890054060502,-0.32191527708925366,-0.09850735238553057,0.5229134397916205
-197.45894575119019,6888.0,10372.0,10556.0,1910.0,896.0,1519.0,-0.7715119180795591,-0.4938069232745141,-0.028877022746265586,0.4001127345444903
-197.4667329788208,6932.0,11508.0,10632.0,1749.0,893.0,1655.0,-0.7335765161326062,-0.631174199937259,0.0425676828801432,0.2483397203157905
-197.47456288337708,6948.0,11832.0,10852.0,1536.0,881.0,1724.0,-0.6742158695896102,-0.7254030975698328,0.11198185958300712,0.08175188287708629
-197.48241186141968,7000.0,12344.0,10872.0,1339.0,811.0,1540.0,-0.5976034984941979,-0.7806090314617976,0.1683042916871192,-0.07206430453051467
-197.4902617931366,6968.0,12332.0,10868.0,1186.0,840.0,1772.0,-0.5080539722363066,-0.7953024033633092,0.23314746189810331,-0.23455811542116187
-197.49810600280762,6996.0,12176.0,11252.0,1151.0,849.0,1637.0,-0.40482163917009195,-0.7816259141021128,0.2805302244673755,-0.3827311902941286
-197.50591325759888,7156.0,11932.0,10900.0,1147.0,844.0,1475.0,-0.2934231194343092,-0.7459331324084364,0.30806471513804723,-0.5124283035154193
-197.51372480392456,7052.0,11628.0,10696.0,1188.0,844.0,1251.0,-0.18041614147425647,-0.6952244056744973,0.31034800664108564,-0.622733615941831
-197.52156448364258,7020.0,11388.0,10460.0,1167.0,890.0,899.0,-0.08401342524147261,-0.6337222181057365,0.284155748191174,-0.7145581889729169
-197.52937507629395,6860.0,11076.0,10248.0,1256.0,910.0,684.0,0.005385832492494626,-0.5630394415588444,0.23429241861543912,-0.7925052950212985
-197.53718161582947,6656.0,10800.0,10344.0,1370.0,915.0,464.0,0.08505201660157363,-0.4841868093554832,0.16080190121706708,-0.8558458019311301
-197.54498672485352,6468.0,10776.0,10308.0,1483.0,958.0,348.0,0.15823396300802844,-0.39185808721458043,0.07075812998593911,-0.9035499651243405
-197.55279517173767,6444.0,10740.0,10356.0,1780.0,978.0,274.0,0.23091177876640204,-0.2838691437894907,-0.04626269388449658,-0.9294933150839262
-197.56059646606445,6284.0,10784.0,10312.0,1452.0,978.0,303.0,0.2918250499382347,-0.17432874508942403,-0.13550897492773323,-0.9306368500001105
-197.56840014457703,6340.0,10992.0,10072.0,1341.0,911.0,412.0,0.35263896453396026,-0.07027575878613901,-0.21299443942444848,-0.9084824969110378
-197.57619667053223,6192.0,11164.0,10216.0,1302.0,935.0,504.0,0.41347889391923165,0.034174228964538776,-0.28162719308956996,-0.8651898349324837
-197.58400535583496,6044.0,11076.0,10400.0,1155.0,824.0,565.0,0.46878516287890737,0.12298921972766551,-0.338057170516118,-0.806741267295787
-197.59182739257812,5988.0,11152.0,10132.0,1085.0,689.0,586.0,0.5148770188089727,0.1968996609158114,-0.389809776422764,-0.7376859204558929
-197.59962129592896,6060.0,11196.0,10092.0,976.0,597.0,630.0,0.5555035274143277,0.25582450069252854,-0.43393360926547836,-0.6615672895673523
-197.60740113258362,6032.0,11316.0,10056.0,881.0,419.0,604.0,0.5838045908480534,0.2981205105530839,-0.4755840594048042,-0.5866141520048362
-197.61518454551697,5972.0,11328.0,10168.0,863.0,245.0,534.0,0.5965310628756505,0.33091931870401947,-0.5189558754084893,-0.5150998882856828
-197.62296748161316,6004.0,11316.0,10136.0,878.0,142.0,426.0,0.5946929789470609,0.3622486692450969,-0.5611687865918679,-0.44744357786902905
-197.6307544708252,6064.0,11248.0,10188.0,874.0,46.0,330.0,0.5804003271172099,0.3918432360974102,-0.6012485101169325,-0.3848305701073055
-197.6385428905487,6172.0,11184.0,10136.0,871.0,-88.0,328.0,0.555294345349648,0.414341887995704,-0.6439481740737255,-0.32449921260609565
-197.6463282108307,6244.0,11192.0,9984.0,935.0,-175.0,239.0,0.5166510909393738,0.4396023321010185,-0.6849673582246115,-0.2657840439328469
-197.6541075706482,6268.0,11160.0,10044.0,984.0,-225.0,159.0,0.46740056447575185,0.46735172992978485,-0.721109004007475,-0.20765566979674213
-197.66188669204712,6372.0,11048.0,10108.0,774.0,-313.0,104.0,0.41700920140214803,0.4853688210952433,-0.7500713839109128,-0.16707289574471526
-197.66966652870178,6184.0,11260.0,10092.0,1065.0,-352.0,130.0,0.34916389567473816,0.5080059463576647,-0.780097136203112,-0.10706535625587636
-197.67745852470398,6448.0,10944.0,10408.0,1031.0,-344.0,101.0,0.27980946190625317,0.5269362828622816,-0.8010350882545768,-0.04886313759877579
-197.68524050712585,6456.0,10796.0,10748.0,986.0,-385.0,117.0,0.20724492883968537,0.5388666359227561,-0.816483670684425,0.005167558922126676
-197.69305229187012,6648.0,10884.0,10572.0,932.0,-467.0,163.0,0.12959427318939226,0.5420268649155018,-0.8286584038247019,0.05232066357647536
-197.70085883140564,6468.0,10888.0,10660.0,891.0,-491.0,174.0,0.051002568731824065,0.5395827946890501,-0.8349884876895661,0.09509664076191933
-197.70865774154663,6600.0,10988.0,10628.0,837.0,-571.0,219.0,-0.03165676060095767,0.5299309436658748,-0.8374759277381081,0.1296345436712164
-197.71645665168762,6380.0,11044.0,10584.0,827.0,-673.0,215.0,-0.12094389369592051,0.5172287532225693,-0.8324637877352559,0.15764210581874155
-197.72423839569092,6304.0,11124.0,10636.0,825.0,-720.0,8.0,-0.20962587567259644,0.5155068156513939,-0.8101840470967155,0.1841508215986125
-197.73208236694336,6252.0,11140.0,10648.0,806.0,-677.0,347.0,-0.29793517055597335,0.4848446424365471,-0.7967401446120312,0.20338497685414098
-197.73987293243408,6272.0,11176.0,10604.0,831.0,-705.0,333.0,-0.3861340766416581,0.45037049686880726,-0.7739289038638593,0.2215873240289781
-197.74767112731934,6252.0,11140.0,10576.0,801.0,-722.0,367.0,-0.4711830036006397,0.41051589222809437,-0.7448511185811378,0.2337949753405301
-197.7554829120636,6256.0,11124.0,10564.0,819.0,-688.0,357.0,-0.5499162904681357,0.365878345141595,-0.7091918566394695,0.24651981768303102
-197.76329231262207,6256.0,11204.0,10460.0,802.0,-738.0,379.0,-0.6262427900262396,0.318164420915557,-0.6652199968835135,0.25312788260070773
-197.77113676071167,6276.0,11172.0,10368.0,792.0,-703.0,404.0,-0.6946480429851131,0.26560800423901954,-0.6174523753393657,0.25625972888632526
-197.77896928787231,6332.0,11292.0,10380.0,747.0,-702.0,356.0,-0.7544541987940253,0.21580718105060762,-0.5638410700046792,0.2575060587734469
-197.78678679466248,6428.0,11292.0,10440.0,690.0,-628.0,320.0,-0.8026579639596872,0.16803860116820993,-0.5110209076311744,0.2576060041484501
-197.79458928108215,6368.0,11320.0,10456.0,649.0,-618.0,253.0,-0.8427330093866139,0.1246766648388121,-0.4552207537224915,0.2589032049148458
-197.8023943901062,6480.0,11440.0,10568.0,688.0,-556.0,227.0,-0.8747483310799672,0.07725891467975614,-0.3998289433849044,0.2626465941279824
-197.81021881103516,6528.0,11404.0,10484.0,634.0,-531.0,180.0,-0.8993091016826223,0.03452416262571104,-0.34484825053086615,0.2667037793725259
-197.81804847717285,6592.0,11356.0,10552.0,638.0,-537.0,225.0,-0.9200918133488505,-0.0099356236795748,-0.2875001572373656,0.2658495777296104
-197.8258080482483,6564.0,11496.0,10488.0,599.0,-517.0,221.0,-0.9353305514065015,-0.0516054823721323,-0.23106505723432522,0.26287368282132656
-197.83360719680786,6600.0,11312.0,10420.0,602.0,-493.0,248.0,-0.9458945107835407,-0.09435405684570196,-0.17519046222004192,0.25629902140556926
-197.84143543243408,6676.0,11296.0,10464.0,559.0,-406.0,213.0,-0.950400872908484,-0.13456257377410397,-0.12689054894303528,0.2500597590637409
-197.84923362731934,6696.0,11324.0,10428.0,747.0,-301.0,146.0,-0.945748574062655,-0.1912298775919335,-0.0834117986414052,0.24906473138932025
-197.8570156097412,6816.0,11460.0,10352.0,470.0,-186.0,101.0,-0.9405080936656403,-0.22661273596595297,-0.05580809738688452,0.2469345053116408
-197.86481308937073,6752.0,11264.0,10344.0,415.0,-115.0,221.0,-0.9367887459513233,-0.2591481963876566,-0.032725392296048934,0.23280486779069115
-197.87259364128113,6836.0,11568.0,10232.0,356.0,-2.0,-117.0,-0.9258733044647268,-0.28781995553087814,-0.02765801234621746,0.243214579396111
-197.88039565086365,6912.0,11568.0,10320.0,289.0,42.0,-207.0,-0.9136870401744434,-0.31148032667607767,-0.02979427921025683,0.2593613302660406
-197.8881995677948,6868.0,11612.0,10204.0,504.0,39.0,-247.0,-0.8932415298472691,-0.35153202103787884,-0.027867395352904546,0.27886953189149105
-197.89603567123413,6724.0,11480.0,10280.0,245.0,114.0,-341.0,-0.8765650579192461,-0.3723150309552006,-0.04091737065598364,0.30222671248329086
-197.90383052825928,6696.0,11516.0,10196.0,136.0,153.0,-319.0,-0.8627771668399111,-0.38539599917319545,-0.05906884703351888,0.3218638773008257
-197.91161060333252,6696.0,11412.0,10048.0,116.0,197.0,-301.0,-0.8490182294735334,-0.3978800563676669,-0.08043343820793268,0.33821586122554853
-197.91938734054565,6560.0,11348.0,10224.0,128.0,208.0,-345.0,-0.8324506662675007,-0.410778901205644,-0.103696570347648,0.35711847313351547
-197.9271731376648,6580.0,11160.0,10064.0,108.0,196.0,-328.0,-0.816188128619817,-0.4214847763931017,-0.12598485287733774,0.37458689087368424
-197.93494963645935,6564.0,11144.0,10216.0,119.0,188.0,-287.0,-0.8000620451823487,-0.43270315494557243,-0.14571320445627048,0.3891482565885023
-197.94274854660034,6504.0,11164.0,10104.0,134.0,151.0,-11.0,-0.792688588811701,-0.44694598327542295,-0.15184850150837004,0.38577988774862515
-197.9505205154419,6432.0,11200.0,10176.0,131.0,119.0,-246.0,-0.7775565935499333,-0.45656072953298826,-0.16496863471961415,0.39967911333227807
-197.95832419395447,6600.0,11268.0,10124.0,115.0,98.0,-500.0,-0.7534547018226856,-0.4600736274402096,-0.1871065789772015,0.43084730211380395
-197.96611762046814,6392.0,11300.0,10164.0,113.0,114.0,-257.0,-0.7372509296691424,-0.4673983764785284,-0.20038099797308412,0.4448002698049228
-197.97391390800476,6488.0,11408.0,10212.0,70.0,75.0,-242.0,-0.7236172989581493,-0.47042568401496887,-0.2120907059797914,0.4583614435187092
-197.98169684410095,6500.0,11400.0,10140.0,30.0,60.0,-327.0,-0.7080133530895906,-0.4684382712107701,-0.2278002819506791,0.4768539707867504
-197.9895408153534,6528.0,11388.0,10164.0,8.0,10.0,-406.0,-0.6902776799613394,-0.46095849405479145,-0.24432766717563836,0.5013361969361879
-197.9973440170288,6648.0,11436.0,10064.0,-12.0,255.0,-455.0,-0.664847935056881,-0.46119087738003894,-0.2780363301607623,0.5176639807662562
-198.00513172149658,6612.0,11416.0,10072.0,-64.0,-25.0,-440.0,-0.6477823854264937,-0.4453135901476077,-0.2967777356354509,0.5422146836743768
-198.0129599571228,6628.0,11420.0,10104.0,-111.0,-34.0,-457.0,-0.6309351572026346,-0.42521384410774726,-0.3174186257613996,0.5660030302079165
-198.0207781791687,6636.0,11396.0,10124.0,-99.0,-36.0,-459.0,-0.6125311168150123,-0.40491121001943114,-0.3368966688246066,0.5893667597250772
-198.02856469154358,6628.0,11432.0,10276.0,-129.0,-69.0,-445.0,-0.5958439958953423,-0.38104901814747816,-0.3550960910376287,0.611292355959168
-198.0363507270813,6628.0,11284.0,10252.0,-112.0,-40.0,-509.0,-0.573165288812845,-0.35693242415050014,-0.37535524744715676,0.6349718375676351
-198.0441553592682,6648.0,11244.0,10352.0,-127.0,-66.0,-490.0,-0.551685615181977,-0.33052939091398964,-0.393796183134282,0.6567479500479477
-198.05198502540588,6536.0,11152.0,10000.0,-141.0,-75.0,-494.0,-0.5295711777766084,-0.3021432718425739,-0.41192877012024753,0.6771842432423988
-198.0597791671753,6504.0,11068.0,10280.0,-126.0,-32.0,-430.0,-0.5083328644692303,-0.27874441343218004,-0.42874348325070794,0.6928768118871542
-198.06756234169006,6484.0,11196.0,10324.0,-129.0,-15.0,-440.0,-0.48512377986285554,-0.2554354482947145,-0.4460671493554216,0.7074120074129234
-198.0753619670868,6496.0,11084.0,10192.0,-88.0,42.0,-415.0,-0.45959098845573726,-0.23797212646627638,-0.4620574549819739,0.7201724089764744
-198.08315467834473,6440.0,11064.0,10256.0,-116.0,90.0,-446.0,-0.43005121637657234,-0.2207944618582127,-0.4816708605926473,0.7309575493568085
-198.0909764766693,6448.0,11048.0,10292.0,-135.0,77.0,-466.0,-0.3993867758550959,-0.2008524086459543,-0.5015538537332801,0.7406701323926094
-198.09877586364746,6500.0,11120.0,10052.0,-127.0,147.0,-532.0,-0.3604052520306201,-0.1824042102200054,-0.5234447712732981,0.7502281851739551
-198.10657382011414,6492.0,11260.0,10224.0,-98.0,148.0,-520.0,-0.3208344488348285,-0.16505080883000917,-0.5420507283104202,0.758949599699186
-198.1143639087677,6408.0,11476.0,10292.0,-192.0,170.0,-566.0,-0.2776965292652893,-0.14392876555530013,-0.5667369856586969,0.7622193497715953
-198.1221616268158,6636.0,11580.0,10400.0,-284.0,122.0,-525.0,-0.23999196657754637,-0.11900209008719119,-0.594240997493756,0.7583666629215368
-198.12994837760925,6348.0,11568.0,10348.0,-294.0,91.0,-257.0,-0.22120063915634908,-0.10545202976370845,-0.61780542230154,0.7471724077014303
-198.1377444267273,6360.0,11560.0,10248.0,-293.0,111.0,-499.0,-0.18513833385392353,-0.07999791176298596,-0.6427161817515262,0.7390805376723796
-198.14556455612183,6368.0,11528.0,10328.0,-237.0,115.0,-481.0,-0.149145226359565,-0.05651406637000148,-0.6623869155234082,0.731987319493901
-198.1533682346344,6644.0,11392.0,10032.0,-154.0,139.0,-460.0,-0.11236103469949162,-0.03673038405770477,-0.6755794315922697,0.7277487948308118
-198.16115808486938,6220.0,11300.0,10208.0,-132.0,197.0,-399.0,-0.07574499746892432,-0.024372597380149366,-0.6865443456326088,0.7227209235488279
-198.1689591407776,6320.0,11496.0,10220.0,-139.0,298.0,-379.0,-0.03421754741073297,-0.019490824951590827,-0.6973567460258714,0.715641555503947
-198.17677664756775,6332.0,11408.0,10084.0,-129.0,371.0,-421.0,0.014458567728524331,-0.016598601783050556,-0.7062867989115106,0.7075834890113102
-198.1845724582672,6328.0,11592.0,10264.0,-129.0,445.0,-376.0,0.06488214297108526,-0.020999691752089756,-0.7132120020418784,0.6976230791861837
-198.19239115715027,6160.0,11736.0,10264.0,-128.0,448.0,-311.0,0.11139081738676569,-0.029568342714051683,-0.7181250192541712,0.6863047833377304
-198.20018672943115,6196.0,11756.0,10200.0,-110.0,358.0,-267.0,0.14947726386474344,-0.03527482833897889,-0.7212876723195515,0.6753934614970808
-198.20799160003662,6200.0,11828.0,10464.0,-189.0,270.0,-248.0,0.18045819258103366,-0.03797240711603049,-0.7291453621276317,0.6590447465202691
-198.21578454971313,6308.0,11752.0,10092.0,-223.0,16.0,-352.0,0.20091905723848819,-0.019937181515000665,-0.7423477415685718,0.6388692133916583
-198.2235906124115,6432.0,11612.0,10072.0,-198.0,505.0,-450.0,0.25797700903055093,-0.022318221746056306,-0.7438598765230688,0.6161349234452057
-198.2313780784607,6412.0,11596.0,10188.0,-197.0,198.0,-466.0,0.2952591436466951,-0.007080174514333416,-0.7500110367880782,0.5918237524110864
-198.23916101455688,6536.0,11752.0,9984.0,-194.0,161.0,-520.0,0.33220596700495425,0.013689647277596525,-0.7551943570829962,0.5649188190118278
-198.24696016311646,6456.0,11420.0,10032.0,-256.0,142.0,-502.0,0.3662477580502718,0.032377144806117364,-0.76206750708311,0.5329797508963048
-198.25474166870117,6388.0,11344.0,10416.0,-236.0,139.0,-470.0,0.39767503463357684,0.04963667121347331,-0.7663555246755064,0.5020856276566361
-198.26253700256348,6368.0,11156.0,10524.0,-160.0,100.0,-381.0,0.4215657145600897,0.06520472859896449,-0.7676586288443974,0.47825821606796876
-198.2703309059143,6336.0,10884.0,10500.0,-121.0,105.0,-293.0,0.44143826852552576,0.07603277930361575,-0.7667912506414664,0.4597634712460849
-198.27812266349792,6312.0,10772.0,10364.0,-85.0,155.0,-216.0,0.46101505274733906,0.08103403696904905,-0.7625059561127622,0.4466355033866312
-198.2859046459198,6276.0,10728.0,10484.0,-42.0,168.0,-183.0,0.4796206165889295,0.08501831153004023,-0.7558381381554928,0.43754389466323734
-198.29370141029358,6188.0,10704.0,10376.0,-8.0,495.0,-176.0,0.5186242543260661,0.07737443557379536,-0.7332702166820689,0.43284739674786094
-198.30148553848267,6376.0,10728.0,10268.0,-44.0,282.0,-185.0,0.5438347051895212,0.07661022987752772,-0.7205202421954874,0.4233500521980538
-198.3092691898346,6072.0,10848.0,10316.0,-32.0,299.0,-149.0,0.568230078190334,0.07345977158135043,-0.7061260954381017,0.4160579016679817
-198.31706523895264,5932.0,10988.0,10200.0,-50.0,239.0,-156.0,0.5888739774646992,0.07197608471661049,-0.6947776388537374,0.40660904372947465
-198.32484221458435,6052.0,11260.0,10288.0,-64.0,135.0,-172.0,0.6035647530435058,0.07440034356085395,-0.688802560924211,0.39462033630542587
-198.33265709877014,6020.0,11092.0,10296.0,-11.0,94.0,-77.0,0.6120229022694756,0.07529891702838624,-0.6835971975411113,0.39045218875803356
-198.34043669700623,6048.0,11092.0,10192.0,26.0,75.0,-112.0,0.6202174450644983,0.08090231972567008,-0.6778243150697931,0.38644447647862357
-198.34822988510132,5900.0,11196.0,10300.0,42.0,94.0,-91.0,0.6286244232046362,0.08547693376286593,-0.6705297020385356,0.38459712301218485
-198.35605359077454,6108.0,11304.0,10276.0,94.0,104.0,-122.0,0.6381397805258591,0.09436868607874853,-0.6605686474923084,0.3840849301240046
-198.36384797096252,6252.0,11416.0,10404.0,80.0,178.0,-183.0,0.6538193245136786,0.10347988025418653,-0.6461806172298108,0.37981945078096907
-198.37163543701172,6224.0,11424.0,10308.0,84.0,216.0,-245.0,0.6731925211486339,0.11498493384840125,-0.628468990138781,0.372313071072405
-198.37943148612976,6196.0,11460.0,10324.0,102.0,234.0,-240.0,0.6925987996828967,0.12658809290557085,-0.6085882949048427,0.3659271030098175
-198.3872196674347,6152.0,11512.0,10032.0,85.0,311.0,-187.0,0.7138927676165319,0.13177222457145635,-0.5845665119456588,0.3623191828871114
-198.39501404762268,6084.0,11580.0,10344.0,125.0,335.0,-91.0,0.7321632423765573,0.13366125819114136,-0.5582633545592528,0.36662471483474385
-198.40280771255493,6068.0,11708.0,10396.0,63.0,496.0,20.0,0.7543536862032617,0.12085564741440569,-0.5241360591662338,0.37633206092663196
-198.41060280799866,6156.0,11656.0,10372.0,46.0,177.0,53.0,0.7602349666418968,0.11577936218064776,-0.5113078322596799,0.38366943513647717
-198.41838359832764,6472.0,11688.0,10292.0,56.0,124.0,28.0,0.7643225865136513,0.11424494039612072,-0.5012982825316922,0.38917747785521284
-198.42621541023254,6632.0,11576.0,10372.0,4.0,-36.0,-49.0,0.7644743031479606,0.11804214705461623,-0.5029142366003806,0.38564538370092394
-198.4339897632599,6640.0,11600.0,10248.0,-54.0,-130.0,-130.0,0.7637062754883871,0.12466899534297471,-0.5118414391682532,0.37313363226865576
-198.4417953491211,6760.0,11604.0,10184.0,-44.0,-255.0,-1.0,0.7527493562025934,0.1302144430837705,-0.5299752887709079,0.36815594364502285
-198.4495882987976,6844.0,11656.0,9996.0,-96.0,-357.0,-413.0,0.7498341363829967,0.15445703073859549,-0.5510275584990619,0.33205484990396544
-198.45741033554077,6632.0,11624.0,9844.0,-160.0,-446.0,-579.0,0.7458463568210264,0.18450523447596853,-0.5756720185059759,0.2797726891192655
-198.46518278121948,6608.0,11684.0,9844.0,-256.0,-467.0,-718.0,0.7418947998965931,0.21478777625446488,-0.5987911270747378,0.21191390514692776
-198.47301197052002,6540.0,11712.0,9952.0,-395.0,-486.0,-861.0,0.7367616135810392,0.2422526252054383,-0.6186099210755889,0.12576866017172514
-198.4808578491211,6588.0,11760.0,9880.0,-474.0,-480.0,-1033.0,0.7281037451949809,0.27132440592351303,-0.629048657816225,0.02336212924587263
-198.4886543750763,6580.0,11396.0,9876.0,-561.0,-422.0,-1113.0,0.7158867449219641,0.2957452323752092,-0.6263796987184457,-0.08768921829824534
-198.4964804649353,6452.0,11204.0,10092.0,-609.0,-332.0,-1187.0,0.6994553229250882,0.3177826078311908,-0.6073084288583375,-0.20236832170422825
-198.50431609153748,6352.0,11076.0,10312.0,-616.0,-208.0,-1196.0,0.6797119267897205,0.3375038111095143,-0.5717732202044185,-0.311702195570433
-198.51214146614075,6224.0,11252.0,10424.0,-628.0,-117.0,-1185.0,0.6557282142952082,0.3537072350522889,-0.5229701721381044,-0.41402161767560336
-198.51993656158447,5892.0,10984.0,10628.0,-659.0,-243.0,-1080.0,0.6221475589129474,0.35416306639898043,-0.4765866012464827,-0.5102608635294875
-198.527734041214,6156.0,10988.0,10680.0,-644.0,95.0,-782.0,0.6089122115212926,0.354390122341488,-0.4168429819382166,-0.5743478808665435
-198.5355315208435,6128.0,10992.0,10604.0,-554.0,190.0,-999.0,0.5800696108415775,0.36872629251620964,-0.346286404310085,-0.638471529494733
-198.54338693618774,6224.0,11200.0,10780.0,-559.0,291.0,-836.0,0.5580910197279749,0.3800929856075626,-0.27243451738305285,-0.6854510702662746
-198.55117893218994,6148.0,11240.0,10788.0,-495.0,359.0,-828.0,0.5315172694776678,0.3953365315226106,-0.19721500462905805,-0.7227064833248951
-198.55897450447083,6352.0,11384.0,10856.0,-440.0,377.0,-706.0,0.5071861574627723,0.40936609683857816,-0.1273932780279969,-0.747631294924562
-198.56675744056702,5972.0,11448.0,10788.0,-462.0,446.0,-607.0,0.48773056399787246,0.4233431404507102,-0.055856478668207886,-0.7614325552315421
-198.57453393936157,5956.0,11496.0,10696.0,-441.0,465.0,-590.0,0.4658696169243108,0.43694893856332695,0.014788845527470104,-0.7692999513604186
-198.58232283592224,5932.0,11428.0,10440.0,-531.0,432.0,-436.0,0.4552746579199068,0.4425771797209227,0.08421325266457724,-0.7679573906941961
-198.5901162624359,5868.0,11320.0,10500.0,-536.0,340.0,-362.0,0.4484277417253503,0.4404164582521699,0.1471309041764406,-0.7637397467645247
-198.59792494773865,5820.0,11216.0,10436.0,-587.0,284.0,-353.0,0.4430049925210955,0.4308607682075512,0.2103093333258357,-0.7575457473559107
-198.60572242736816,5788.0,11276.0,10356.0,-583.0,227.0,-360.0,0.43620740545244563,0.41583498199324037,0.2704494494022554,-0.7507739090412933
-198.61350917816162,5880.0,11352.0,10220.0,-569.0,201.0,-370.0,0.4271613351761796,0.3978058466045231,0.3280163296928891,-0.7427576923819559
-198.62130570411682,5984.0,11268.0,10080.0,-561.0,223.0,-378.0,0.4150489595264782,0.3797591025624534,0.3849208500290511,-0.7316784296600939
-198.62908840179443,6060.0,11588.0,9904.0,-511.0,243.0,-457.0,0.39393792138577,0.36066680210929597,0.44047466425504544,-0.7216054615230664
-198.6369287967682,6036.0,11572.0,9796.0,-423.0,288.0,-257.0,0.3796059693476432,0.35392810702648214,0.4843775237983102,-0.7042816322546716
-198.64472603797913,5912.0,11824.0,9640.0,-309.0,323.0,-530.0,0.34236777267203394,0.3405114523562672,0.5293679515825057,-0.6975713804960448
-198.6525206565857,5636.0,11824.0,9492.0,-240.0,310.0,-595.0,0.29844150437427247,0.3240952699872468,0.569733012840116,-0.6937573196146035
-198.66031169891357,5948.0,12024.0,9524.0,-18.0,262.0,-575.0,0.25077659578721523,0.310423394295197,0.5929305437260941,-0.6994153169586028
-198.6681318283081,5916.0,11616.0,9416.0,-296.0,143.0,-554.0,0.21727662754861693,0.2835470513992864,0.6280793179732851,-0.6913091255712478
-198.67591786384583,6016.0,11528.0,9284.0,-330.0,-41.0,-491.0,0.1978338345220711,0.24755519362942421,0.6584247287646349,-0.6826822661946104
-198.6837022304535,5940.0,11516.0,9012.0,-411.0,-169.0,-429.0,0.19061449566890157,0.2054229483736863,0.688215248090274,-0.6691989977715109
-198.6915500164032,5952.0,11380.0,9296.0,-472.0,-336.0,-369.0,0.19737515907521758,0.1554846164310407,0.715479437282953,-0.6518870726273023
-198.69937348365784,6008.0,11388.0,9148.0,-498.0,-478.0,-224.0,0.22081566770045807,0.10549303629796741,0.7371016214161278,-0.6299149624325114
-198.70715856552124,6144.0,11344.0,8928.0,-491.0,-636.0,-162.0,0.2567102230000874,0.05049608361769974,0.7513730674230926,-0.6057957745789684
-198.7149419784546,6332.0,11328.0,8868.0,-502.0,-815.0,-4.0,0.31109768704246,-0.004106375491228756,0.7569996051037566,-0.5745893878848729
-198.72270941734314,6476.0,11312.0,8768.0,-555.0,-987.0,42.0,0.3764090277610977,-0.06559153134789007,0.7543321726031426,-0.5338510730636464
-198.73050093650818,6460.0,11256.0,8904.0,-568.0,-1222.0,123.0,0.4562089818731417,-0.13218135758179383,0.7361990732499135,-0.4820916698223213
-198.7382950782776,6648.0,11272.0,9028.0,-540.0,-1412.0,165.0,0.542934912275703,-0.20073399327108538,0.6984295843139698,-0.4208606191277985
-198.74607801437378,6764.0,11312.0,9072.0,-539.0,-1536.0,255.0,0.6300644942258641,-0.26442239919636434,0.6432365218694002,-0.345465345371285
-198.75387382507324,6908.0,11256.0,9088.0,-550.0,-1650.0,295.0,0.7105893336763283,-0.32401504790534147,0.5691192153426949,-0.25725544955169805
-198.7616696357727,6660.0,11440.0,9360.0,-543.0,-1756.0,345.0,0.7799540181671806,-0.37497408098920787,0.4757872581856125,-0.15713896104844785
-198.76946783065796,7144.0,11436.0,9704.0,-422.0,-1873.0,385.0,0.8371384723250077,-0.40742263496527265,0.3613436095161971,-0.05134949399081563
-198.7772500514984,7024.0,11584.0,9484.0,-355.0,-1933.0,408.0,0.8740697215185755,-0.422613238311386,0.23257192121184012,0.05753672038131065
-198.78504729270935,7024.0,11684.0,9756.0,-280.0,-1899.0,515.0,0.8865401725920615,-0.41760135892184125,0.10365188386818444,0.1700350386762853
-198.79285597801208,7156.0,11892.0,9848.0,-250.0,-1882.0,563.0,0.8732276038328176,-0.3978417402780186,-0.024867115269129787,0.280316121860918
-198.80066323280334,7124.0,11888.0,9752.0,-252.0,-1717.0,577.0,0.836128179015955,-0.3713844104808489,-0.14013027591221117,0.3785852528559755
-198.80845046043396,7124.0,11944.0,9760.0,-248.0,-1597.0,622.0,0.7792379422123313,-0.34024243225184664,-0.2419726113578372,0.4674104963142228
-198.81624555587769,7048.0,12212.0,9644.0,-228.0,-1448.0,599.0,0.7107817024260797,-0.30621140572678895,-0.32882338625482693,0.5412015587108159
-198.82404828071594,7028.0,11816.0,9780.0,-201.0,-1309.0,608.0,0.6341058898335296,-0.27191807000057183,-0.4000113078906102,0.6032919999844478
-198.8318474292755,7072.0,11956.0,9828.0,-190.0,-1159.0,692.0,0.5489151585286729,-0.243679138220043,-0.4544750626926867,0.6578488000477446
-198.83963012695312,6888.0,11820.0,9856.0,-90.0,-1007.0,516.0,0.4751903784187584,-0.20946752302957988,-0.4944232647498077,0.6970388054679819
-198.84741759300232,6688.0,11672.0,9816.0,-41.0,-971.0,807.0,0.3812131505910587,-0.18566540921083213,-0.5192120173281003,0.7420402756596826
-198.85520482063293,6580.0,11556.0,10060.0,30.0,-917.0,868.0,0.28228554231176484,-0.1635101513077144,-0.5304142203053311,0.7824577035974334
-198.86302018165588,6568.0,11356.0,10212.0,-30.0,-833.0,903.0,0.18064395033998543,-0.14821745844065612,-0.5369249445052624,0.8106238043550029
-198.87084007263184,6460.0,11188.0,10084.0,-122.0,-786.0,982.0,0.07235272415239438,-0.13961970239581417,-0.5418589092132822,0.8256272430805707
-198.87862420082092,6324.0,10796.0,10184.0,-234.0,-797.0,817.0,-0.026906378911680167,-0.12160570897290618,-0.5508515089350373,0.8252579678034321
-198.88641810417175,5992.0,10964.0,10444.0,-359.0,-994.0,1239.0,-0.16608482391965515,-0.10760008943224095,-0.5555306271085164,0.8076037235935515
-198.89427495002747,5880.0,10832.0,10128.0,-314.0,-1165.0,1278.0,-0.3119833526988699,-0.0819007497518761,-0.5423109490121689,0.7757947469597704
-198.90206861495972,5540.0,10620.0,9732.0,-510.0,-1229.0,1361.0,-0.4597088316683016,-0.048532910560632476,-0.5263040156225672,0.7136640875217409
-198.90985941886902,5400.0,10084.0,9824.0,-6.0,-1173.0,1381.0,-0.5923425759361607,-0.038195410221500296,-0.46779520209778025,0.6548580245103681
-198.91764068603516,5616.0,9980.0,9960.0,-68.0,-1363.0,1209.0,-0.7084822134476114,-0.006084679734918325,-0.39206567561153344,0.5867711955338031
-198.92542576789856,5180.0,9712.0,10024.0,33.0,-1667.0,836.0,-0.7978901888806836,0.04795256156050029,-0.2829046232148488,0.5301290149495665
-198.93320631980896,5052.0,9348.0,10180.0,-73.0,-1964.0,455.0,-0.8540471721386345,0.13056250858348856,-0.14887425439425628,0.4810335908155921
-198.9409875869751,5496.0,9168.0,10212.0,-147.0,-2169.0,67.0,-0.8678959506624306,0.22748577741043755,0.0060100162075210385,0.4415548885528388
-198.9488046169281,5876.0,9176.0,10036.0,-225.0,-2191.0,-187.0,-0.8396036038999981,0.3226981818246474,0.16419574006832013,0.40493385967169837
-198.9565908908844,6372.0,9416.0,10156.0,-324.0,-2157.0,-386.0,-0.7716513159062612,0.4093297746906119,0.3159698954044454,0.3703598350388066
-198.96437525749207,6704.0,9700.0,10120.0,-296.0,-2064.0,-360.0,-0.6810262093340647,0.4777819967192772,0.45072810788701373,0.3236847827309892
-198.9721655845642,6760.0,10144.0,10576.0,-142.0,-2044.0,-131.0,-0.5817604460404515,0.530233209637878,0.5647179447462168,0.24799429368745085
-198.97998976707458,7084.0,10540.0,10692.0,38.0,-1860.0,6.0,-0.48564658413708806,0.5614175800514888,0.6512013605681363,0.1577798596758045
-198.98778367042542,7272.0,10972.0,10880.0,200.0,-1690.0,713.0,-0.4040417070172607,0.6088446266695744,0.68188480560861,0.033039846341541806
-198.99561524391174,7488.0,11532.0,11048.0,505.0,-1565.0,1131.0,-0.33597050996284117,0.6530035242920174,0.6683809553463934,-0.11822483760934435
-199.0034008026123,8080.0,11824.0,11032.0,3.0,-1381.0,1521.0,-0.23613721909499746,0.7159723822460425,0.612402377108716,-0.23787830950005018
-199.01120948791504,8692.0,11956.0,11352.0,207.0,-1376.0,1777.0,-0.13601835800167078,0.7634536734074482,0.515511590770674,-0.3645343531524727
-199.01899886131287,9108.0,12032.0,11072.0,118.0,-1529.0,1944.0,-0.012912107218557517,0.7828073519868294,0.39131942457256547,-0.48364763528290017
-199.02679657936096,9484.0,11928.0,11308.0,79.0,-1159.0,1752.0,0.09371486018948084,0.7805969379636152,0.2651210559202244,-0.5582085373131078
-199.03458261489868,9840.0,11584.0,11352.0,44.0,-947.0,1774.0,0.19613032344897613,0.7641579419703902,0.1322808947810614,-0.6000810785413081
-199.04237747192383,10028.0,11256.0,11664.0,35.0,-601.0,1262.0,0.26495375603280724,0.7422967995494545,0.035648391891721615,-0.6144299477550543
-199.0501627922058,9900.0,10640.0,11764.0,117.0,-155.0,1044.0,0.31260263008921535,0.7367184220028925,-0.04175260864223934,-0.5981490466551302
-199.05795741081238,9724.0,10392.0,11796.0,184.0,12.0,1013.0,0.3523889746007643,0.735634044845098,-0.11578377353191799,-0.5667968599342904
-199.06573677062988,9560.0,10216.0,11816.0,375.0,634.0,1217.0,0.39203094574950365,0.7603144593335955,-0.19158062560869374,-0.481176188515593
-199.07355260849,9372.0,10052.0,11688.0,568.0,879.0,1566.0,0.4291650486897097,0.7799275299707684,-0.28551084629564816,-0.3549844582857089
-199.08135294914246,9252.0,10148.0,11340.0,669.0,1150.0,1909.0,0.4621198984894584,0.7770948000614787,-0.38528877902204633,-0.18471986329900694
-199.0891342163086,9336.0,10424.0,10924.0,631.0,1442.0,2272.0,0.49049960656573127,0.7284026979438718,-0.47770435396186506,0.025262537339479762
-199.0969479084015,9352.0,10532.0,10916.0,583.0,1646.0,2310.0,0.5013337608889344,0.6334136543705424,-0.5359231249107259,0.24543432285610384
-199.10476636886597,9064.0,10620.0,10820.0,481.0,1717.0,2719.0,0.4780622442368272,0.4717995298610824,-0.5779059275461602,0.4635584463313357
-199.11254692077637,8892.0,10648.0,10604.0,348.0,1842.0,2684.0,0.43093803799095703,0.2657665190036243,-0.5743812723431805,0.6432314659363529
-199.12032914161682,8692.0,10552.0,10052.0,220.0,1992.0,2867.0,0.34897198512858985,0.017729994417444876,-0.5293529275582425,0.7731039250830943
-199.12813186645508,8348.0,10344.0,10148.0,84.0,2090.0,2813.0,0.24450599136181722,-0.23964460095682807,-0.44394142476793963,0.8280720359941094
-199.13591265678406,8092.0,10376.0,10004.0,21.0,2105.0,2353.0,0.15087163549328012,-0.4650866706015668,-0.33566772963347746,0.8051455233155304
-199.14370036125183,7880.0,10040.0,9592.0,74.0,2084.0,2242.0,0.05542751401948943,-0.6532667014414746,-0.2047392610965574,0.7268096328771587
-199.15151047706604,7328.0,9972.0,9484.0,199.0,1988.0,2095.0,-0.029714951437143235,-0.7909621643947226,-0.06104441429737131,0.6080867172042119
-199.1592938899994,7284.0,9436.0,9428.0,329.0,1860.0,1981.0,-0.09950452127020086,-0.8764000172037687,0.08600334678246925,0.46327668237699643
-199.16707491874695,7288.0,9172.0,9396.0,408.0,1702.0,1938.0,-0.1555331904645909,-0.9108309760380667,0.23011845993237007,0.3053552916715248
-199.1748867034912,7388.0,8744.0,9444.0,279.0,1520.0,1855.0,-0.20883088590992926,-0.8981125417771707,0.35659682140918253,0.1504068826666252
-199.1826982498169,7380.0,8516.0,9768.0,563.0,1446.0,1847.0,-0.22902827558132527,-0.8511693120156807,0.4720855222941261,-0.013860407904514172
-199.19049072265625,7564.0,8456.0,9976.0,751.0,1314.0,1931.0,-0.22015070958653846,-0.7675853290067736,0.5753253263176283,-0.17705139553141444
-199.1983027458191,7684.0,8628.0,10080.0,941.0,1250.0,2014.0,-0.1843407603398458,-0.6492921136950605,0.6556293732297211,-0.3385090251812075
-199.20610284805298,8160.0,8648.0,10148.0,1112.0,1201.0,2239.0,-0.12051043391683998,-0.4894166167682439,0.7097996219186646,-0.49207022595603306
-199.21389317512512,8488.0,8912.0,10140.0,1307.0,1182.0,2049.0,-0.04865740465926275,-0.3167626127787654,0.7092385864209273,-0.6279128376208274
-199.22168803215027,8552.0,9060.0,9848.0,1409.0,1083.0,2365.0,0.05112289744802949,-0.11328872048179174,0.6707341949721055,-0.731209788544463
-199.2294681072235,8672.0,9340.0,9504.0,1526.0,1125.0,2460.0,0.15182838002605517,0.10550159689119602,0.5816062542818169,-0.7921816212538295
-199.23725867271423,8272.0,9628.0,9512.0,1657.0,1013.0,2484.0,0.24768841669492156,0.31197002984002,0.4410704948668359,-0.8042275593852181
-199.24504709243774,8416.0,9872.0,9376.0,1693.0,991.0,2453.0,0.3237240458376392,0.49428914591892364,0.266871716812693,-0.761354365022423
-199.25284385681152,8188.0,10032.0,9344.0,1628.0,1062.0,2329.0,0.3708237236885105,0.6429018419024196,0.0851300286088663,-0.6647705362433844
-199.26062965393066,8364.0,10400.0,9344.0,1788.0,1074.0,2190.0,0.3767831621828606,0.7534835837587895,-0.10333593920217063,-0.5287897704860604
-199.26842331886292,8528.0,10440.0,9588.0,1494.0,1093.0,2083.0,0.3737484653787493,0.8105678154200526,-0.26568017432986907,-0.36428827348714327
-199.2762098312378,8576.0,9900.0,9592.0,1392.0,1083.0,1842.0,0.35049080045408787,0.8273809204160262,-0.395305429468782,-0.19060595153636728
-199.2840383052826,8612.0,9632.0,9624.0,1316.0,1077.0,1694.0,0.31409440316621723,0.8094784850110759,-0.4958398220363187,-0.015236767597587854
-199.29182195663452,8548.0,9320.0,9804.0,1272.0,1043.0,1558.0,0.26638714734644703,0.7634823814635172,-0.5680106065565641,0.15328565413196069
-199.2996563911438,8484.0,9120.0,9800.0,1311.0,972.0,1500.0,0.2034771685454936,0.6937004776391025,-0.616374454590595,0.3121845943222315
-199.3074860572815,8524.0,9200.0,9884.0,1353.0,990.0,1395.0,0.1344908631059424,0.6048272952373698,-0.6349450978215895,0.4614551694684959
-199.3152711391449,8500.0,9104.0,9724.0,1448.0,930.0,1330.0,0.055131287076702735,0.5016954732836026,-0.6247002031919239,0.5958287081065976
-199.32305192947388,8380.0,9184.0,9972.0,1483.0,905.0,1288.0,-0.02688684333152123,0.38474931766391296,-0.5891330956826165,0.7100473616486694
-199.3308711051941,8332.0,9316.0,9864.0,1566.0,820.0,1294.0,-0.11534448120404468,0.25904129364261536,-0.5277847789199139,0.8006475416712323
-199.33868193626404,8568.0,9492.0,9876.0,1664.0,663.0,1285.0,-0.208346513313872,0.1343306443683945,-0.4390243469052262,0.8635998096328901
-199.34646701812744,8572.0,9472.0,9968.0,1695.0,542.0,1342.0,-0.30289493593893996,0.011070846687559931,-0.33045953329266203,0.8938280544893195
-199.35424661636353,8736.0,9844.0,9820.0,1772.0,422.0,1333.0,-0.3889457052077621,-0.10505409455612809,-0.200566618314509,0.8930049872398872
-199.3620617389679,8776.0,10220.0,9936.0,1707.0,304.0,1036.0,-0.44192822688114347,-0.20162397997821668,-0.06703658261012575,0.8715235565235101
-199.36984515190125,9196.0,10104.0,9848.0,1729.0,295.0,1236.0,-0.4952309591626165,-0.2927514706102947,0.07383663643725959,0.8146109652232879
-199.37763500213623,9352.0,10156.0,9848.0,1674.0,357.0,1176.0,-0.5298185496514743,-0.37659203657161766,0.2043799715730679,0.7319150016606039
-199.38545680046082,9428.0,10104.0,10420.0,1901.0,137.0,1498.0,-0.5533348501907069,-0.4366463739117021,0.3608979110322805,0.6106661817447614
-199.39324378967285,9712.0,9560.0,9804.0,1713.0,396.0,1195.0,-0.5548915313970254,-0.4942042375005859,0.47066380914497213,0.4757448252808153
-199.40103912353516,9252.0,9960.0,9916.0,1841.0,680.0,1012.0,-0.5357299923715071,-0.5595844343530444,0.5477590917635988,0.31594083859755434
-199.4088373184204,9540.0,10424.0,10200.0,1675.0,1273.0,850.0,-0.5281096008569132,-0.6202280700186267,0.5649403410158097,0.13137656464020483
-199.41664099693298,9280.0,10116.0,10396.0,1538.0,1522.0,903.0,-0.5196214690960502,-0.6504927892973243,0.5498632311003907,-0.06710504459791178
-199.4244270324707,9204.0,9928.0,10096.0,1923.0,1725.0,998.0,-0.4738679300332985,-0.6606222227773422,0.502491933324658,-0.29415866569307075
-199.43221855163574,9196.0,9728.0,9880.0,2155.0,1849.0,1193.0,-0.3864788771689505,-0.6276224650865061,0.42432109787645833,-0.5259997383249176
-199.44003868103027,8944.0,9516.0,9684.0,2291.0,1856.0,1525.0,-0.24956288014991942,-0.5409233843099116,0.3265148365799798,-0.7338312630647033
-199.44783282279968,8976.0,9220.0,9672.0,2477.0,1757.0,1943.0,-0.05567529582868103,-0.4072545334644462,0.2109423018085863,-0.8868750485354409
-199.45559883117676,9088.0,9048.0,9608.0,2622.0,1620.0,2205.0,0.16923585198118907,-0.241168026522433,0.07427189063076799,-0.9527228850246054
-199.4633915424347,9296.0,9148.0,9800.0,2737.0,1454.0,2436.0,0.3970308485868877,-0.06063905298438336,-0.07646039167077001,-0.9126024430326085
-199.47120547294617,9704.0,9224.0,9884.0,2839.0,1230.0,2608.0,0.5920826666721201,0.11141425732283916,-0.23236671943793857,-0.7635644614499039
-199.47905588150024,9960.0,9424.0,9964.0,2976.0,1072.0,2693.0,0.7185648737986479,0.26494514150426746,-0.3776519939163652,-0.5204301736323618
-199.48688197135925,10116.0,9864.0,9940.0,3010.0,1132.0,2664.0,0.7585573128398967,0.3918434632151222,-0.4745622426604581,-0.21410320248368764
-199.49474143981934,10140.0,10296.0,9992.0,2950.0,1420.0,2534.0,0.7185103584098893,0.47831777238245765,-0.49117555605507857,0.11705360573156268
-199.50254154205322,10092.0,10600.0,10140.0,2967.0,1655.0,2430.0,0.6021383193866358,0.5103823746670979,-0.43065928073659443,0.4375749762850377
-199.51034259796143,9748.0,10628.0,10024.0,3035.0,1907.0,2372.0,0.4196106059133096,0.4755145155396347,-0.299623886387835,0.7127681331415016
-199.51813960075378,10076.0,10464.0,9908.0,3060.0,2109.0,2321.0,0.19009283104532088,0.3695929924040424,-0.11966626029980762,0.9016350268799784
-199.52593994140625,10084.0,10368.0,9816.0,2956.0,2218.0,2219.0,-0.0529458905053214,0.20684839856662335,0.07342080778036619,0.9741765023207551
-199.5337255001068,10296.0,10352.0,9764.0,2973.0,2212.0,2185.0,-0.28691177568945636,0.017993900052626542,0.25910382396573806,0.9220754095723142
-199.54151678085327,10284.0,10272.0,9972.0,3037.0,2158.0,2172.0,-0.48223955471344015,-0.17065769207844686,0.41763293402042884,0.7509352145330044
-199.54929900169373,10396.0,10164.0,9708.0,3151.0,2006.0,2012.0,-0.6005655728647125,-0.3386556873317123,0.53431159067493,0.48902396894016487
-199.55708360671997,10576.0,10244.0,9840.0,3290.0,1948.0,1815.0,-0.6301733322672771,-0.4778846363462217,0.5874430854564963,0.17151812438557892
-199.56485509872437,10564.0,10388.0,9880.0,3367.0,2029.0,1562.0,-0.5790874274748412,-0.5753240165109774,0.5547244485539811,-0.1610615209872569
-199.57266211509705,10292.0,10408.0,10152.0,3469.0,2143.0,1187.0,-0.4614148717572713,-0.6216800998184006,0.4286444968010611,-0.4656973963564423
-199.58044600486755,10068.0,10460.0,9924.0,3493.0,2529.0,1238.0,-0.2945241367333405,-0.5709697216423527,0.23450884309139028,-0.7295578882865106
-199.588237285614,9228.0,10680.0,9856.0,3383.0,2572.0,785.0,-0.12044227558815361,-0.4472685266672998,-0.007585206786442487,-0.8862206203547833
-199.59608149528503,8992.0,10372.0,9600.0,3133.0,2975.0,631.0,0.049040227563174645,-0.23404351334954354,-0.23997953942773279,-0.9408658302837909
-199.6038715839386,8656.0,10100.0,9676.0,2998.0,2879.0,678.0,0.2122824390566749,0.0007732817713605954,-0.43193042291797273,-0.8765681250543806
-199.61165761947632,8408.0,9876.0,8976.0,3057.0,2607.0,741.0,0.3458526940653087,0.21533383772662706,-0.5817030929628372,-0.7040161674103511
-199.61944437026978,8272.0,9520.0,8524.0,3118.0,2396.0,870.0,0.43635371746319507,0.3890143281307642,-0.6766937393708097,-0.4476034727986039
-199.62723445892334,8240.0,9372.0,8396.0,3136.0,2143.0,756.0,0.4605319449502728,0.5186181480228883,-0.7040792725842697,-0.15237428306257583
-199.63502264022827,8552.0,9284.0,8468.0,3011.0,1954.0,716.0,0.4324425135609175,0.5921148342216895,-0.6648343735191149,0.14278918497975587
-199.64285039901733,8776.0,9528.0,8856.0,2811.0,1718.0,667.0,0.3633586453434784,0.6122707695955157,-0.5751138943916846,0.40291315197036903
-199.65064239501953,8844.0,9952.0,9624.0,2608.0,1508.0,676.0,0.26652305039263063,0.5870572387119691,-0.45535188642323116,0.6139901641037014
-199.65843653678894,8344.0,10360.0,10356.0,2555.0,1320.0,472.0,0.15786213941151625,0.5397845947715717,-0.3021444301466745,0.7696888199259817
-199.66623044013977,8156.0,10532.0,10936.0,2003.0,1379.0,492.0,0.06540891146744951,0.4512665642241877,-0.16768912854161236,0.8740483501974561
-199.67405533790588,8144.0,11384.0,11356.0,1748.0,1610.0,-15.0,0.020943662591427874,0.33153796455654627,-0.023805697242531915,0.9429089191612069
-199.68184113502502,8168.0,12104.0,11684.0,1439.0,1936.0,-876.0,0.054178028114197134,0.17238493052111012,0.12080033714984875,0.9760919298628444
-199.68963408470154,7516.0,12912.0,12148.0,1065.0,2424.0,-1504.0,0.13601988248956295,-0.04328560186458983,0.23763265800232872,0.9608099021604085
-199.6974675655365,6960.0,13688.0,12456.0,972.0,2820.0,-1728.0,0.21644946450818744,-0.2908827685872605,0.33157062071492865,0.870975182041283
-199.70526933670044,5952.0,14500.0,12604.0,944.0,3744.0,-1655.0,0.24204624062593466,-0.5683597199438434,0.4057284994905703,0.6736209845642716
-199.71305203437805,5592.0,15160.0,12340.0,1107.0,3886.0,-1638.0,0.23888666054572227,-0.7770334773179626,0.44087022922676594,0.3805070032496207
-199.72085070610046,5156.0,15512.0,12016.0,1237.0,4141.0,-1749.0,0.20513777312981826,-0.8855541321286595,0.4165373187016792,0.014458050837208533
-199.7286298274994,5000.0,15668.0,11044.0,1495.0,4127.0,-1283.0,0.15993866193239312,-0.8457514616087276,0.3651352949145274,-0.3546833884095192
-199.7364354133606,4996.0,15348.0,10464.0,1587.0,4014.0,-1572.0,0.09321062399963327,-0.6955730354372862,0.23755820621950907,-0.6716070507401838
-199.74419617652893,5192.0,14756.0,9556.0,1324.0,3970.0,-1354.0,0.01101910436504908,-0.44818993371032817,0.1026123966200157,-0.8879611808630038
-199.7520170211792,5816.0,13840.0,8896.0,1701.0,3784.0,-1659.0,-0.0792115357781662,-0.15660678447618745,-0.08452149033595326,-0.9808445163873235
-199.75982069969177,6492.0,12980.0,9444.0,1046.0,2827.0,-2616.0,-0.2530858863466037,0.09188958861404524,-0.21685245614115678,-0.938338345109078
-199.76760077476501,7876.0,11956.0,9064.0,401.0,2792.0,-3393.0,-0.44912757555070254,0.35051972005655346,-0.2653035881785875,-0.7778395418278695
-199.77539157867432,8036.0,11068.0,10212.0,435.0,2865.0,-3080.0,-0.5677750893953554,0.5620652654144122,-0.2936054001778336,-0.5248904211958308
-199.78317880630493,7704.0,10440.0,10856.0,424.0,3017.0,-3029.0,-0.6086939955772227,0.7086497407093041,-0.29397068151635214,-0.20220881076175565
-199.79095911979675,8260.0,10000.0,11796.0,317.0,3267.0,-2651.0,-0.554873480632637,0.7670978709126921,-0.2901035550039538,0.1397004091114464
-199.79874777793884,8700.0,9680.0,12472.0,272.0,3640.0,-2099.0,-0.4273787665089184,0.7158377900242414,-0.3027024410571803,0.4618385870502268
-199.8065378665924,8412.0,9544.0,13184.0,434.0,4150.0,-1457.0,-0.2669130904081504,0.532533606961245,-0.3255212906162256,0.7343032404811815
-199.81430864334106,7904.0,9436.0,13244.0,607.0,4711.0,-1107.0,-0.08305136035908761,0.2280269409611066,-0.3172140200189925,0.9167777545522225
-199.82209587097168,7280.0,9688.0,13124.0,578.0,5374.0,-778.0,0.1052128676059389,-0.16665929971593932,-0.2655661207216383,0.9437317234432612
-199.82987904548645,6312.0,10564.0,11948.0,695.0,6189.0,-1476.0,0.3320859899177482,-0.5550121968335516,-0.1508181197189156,0.747619055021202
-199.83765697479248,4244.0,12404.0,10956.0,788.0,6734.0,-1854.0,0.4943057909210443,-0.8073234490383921,0.0051805913764381775,0.3222790641162809
-199.8454463481903,2680.0,14320.0,10304.0,529.0,6884.0,-2228.0,0.49943963820930887,-0.8272274908595961,0.13527030986088573,-0.218990112611577
-199.8532452583313,1316.0,15452.0,9980.0,279.0,6486.0,-2502.0,0.33775278192759084,-0.6159034273223077,0.1983089221767143,-0.6835638945248044
-199.86103177070618,920.0,15968.0,9452.0,51.0,5744.0,-2575.0,0.07657421373660558,-0.27709374771382583,0.19812502655340966,-0.9370709250754384
-199.86883115768433,808.0,15720.0,8784.0,-147.0,4681.0,-3117.0,-0.23600030711729983,0.04571185974601718,0.14881627204559855,-0.9592017504641821
-199.87661123275757,904.0,14772.0,8532.0,-160.0,3832.0,-3291.0,-0.5129737395793287,0.2991637008690023,0.08794421645616624,-0.7997654889880359
-199.88441371917725,1144.0,13440.0,8660.0,-200.0,2404.0,-3213.0,-0.7082364177472291,0.42569089715237574,0.07359064673238612,-0.5583662358807945
-199.89219760894775,1948.0,12132.0,9376.0,-348.0,1451.0,-2967.0,-0.8157240039991743,0.4789859586143606,0.1066285350850733,-0.3062632140095321
-199.9000642299652,2648.0,11244.0,9660.0,-318.0,1002.0,-2740.0,-0.8574076108808096,0.4870327034680405,0.15336985433550368,-0.06425746911745042
-199.90785670280457,3056.0,10716.0,9804.0,-300.0,347.0,-2500.0,-0.8429064832663897,0.4664583267872038,0.22978831993372778,0.13828455394730094
-199.91565537452698,3468.0,10232.0,9776.0,-500.0,162.0,-2382.0,-0.7796280476748654,0.4433968189279222,0.30207712613257687,0.3229996565180224
-199.92344737052917,3692.0,10312.0,10600.0,-194.0,117.0,-2175.0,-0.7012496215272553,0.38874183134160234,0.36623769044589044,0.4722273932862412
-199.931245803833,3780.0,10572.0,10812.0,-138.0,26.0,-2171.0,-0.5972332988888899,0.32077364938732716,0.4250410911401247,0.5997972352382446
-199.93901777267456,3604.0,11220.0,11020.0,-151.0,462.0,-2207.0,-0.4852114000016608,0.21815091732396974,0.4462323369772236,0.7196226622438903
-199.94683241844177,3412.0,11968.0,10988.0,-140.0,525.0,-2241.0,-0.3550380622982686,0.10153623391349648,0.448837060427316,0.813746680920494
-199.9546239376068,3204.0,12736.0,10744.0,-196.0,1094.0,-2325.0,-0.2252863819986526,-0.059937146140602846,0.41128722200866413,0.8811903344969648
-199.96243691444397,2924.0,13080.0,10516.0,-312.0,1260.0,-2356.0,-0.08867737856403099,-0.22880079917397433,0.3411220353466785,0.9074261809256451
-199.97023224830627,2712.0,13548.0,10488.0,-414.0,1374.0,-2421.0,0.05219465915946993,-0.3945238835589113,0.24232047918700161,0.8848205514246396
-199.9780604839325,2712.0,13512.0,10004.0,-267.0,1402.0,-2359.0,0.18999996613989634,-0.5383629179761941,0.14292865626455403,0.8084780644107823
-199.98584723472595,2804.0,13232.0,10432.0,-633.0,1333.0,-2280.0,0.296252450227571,-0.6531610797575261,0.012970973251996977,0.6967401549193496
-199.99364709854126,2552.0,12884.0,10568.0,-704.0,1186.0,-2169.0,0.377285496120756,-0.7277986798738393,-0.11979018330200229,0.5600134355310455
-200.00144743919373,2288.0,12740.0,10448.0,-739.0,1078.0,-2036.0,0.4316197777526609,-0.766606354136733,-0.2443311906687905,0.4078251273723835
-200.00925278663635,2328.0,12212.0,10736.0,-679.0,1011.0,-1880.0,0.46586992964739454,-0.7734204308230941,-0.34958387324962387,0.2501542751974109
-200.01703667640686,2348.0,12024.0,9984.0,-548.0,872.0,-1773.0,0.4864902563608115,-0.7487282455099846,-0.43881908031114875,0.10085167126235252
-200.02483582496643,2556.0,11340.0,10324.0,-419.0,646.0,-1699.0,0.4923504525199024,-0.6979084607094275,-0.5192889145024011,-0.029220466261894115
-200.03261518478394,2324.0,10976.0,10108.0,-214.0,428.0,-1609.0,0.4894082213851302,-0.6263478808600558,-0.5920599245581349,-0.13278919652959895
-200.0404052734375,2500.0,10756.0,9944.0,-27.0,93.0,-1467.0,0.4718858806775995,-0.5460707809322157,-0.6625546258021727,-0.2003791048421694
-200.04818892478943,2528.0,10628.0,9992.0,165.0,-209.0,-1329.0,0.4413603805284754,-0.46277422932217355,-0.7322894485578385,-0.23407945383113954
-200.05601739883423,2616.0,10628.0,9824.0,287.0,-390.0,-1238.0,0.4000652607560592,-0.3779488246320459,-0.797824271461562,-0.2461278224058982
-200.06379055976868,2612.0,10756.0,9480.0,408.0,-522.0,-1112.0,0.3510693029922342,-0.2955329554149765,-0.8560398534489317,-0.23792096601049667
-200.07158660888672,2696.0,11052.0,9616.0,471.0,-659.0,-984.0,0.2917655975507715,-0.2198518813044667,-0.9057905697757278,-0.2146658568056187
-200.07937908172607,2924.0,11468.0,9680.0,466.0,-745.0,-852.0,0.22458818278429032,-0.15366802143590372,-0.9444503706092442,-0.18428180810293315
-200.08717107772827,3124.0,11992.0,9708.0,456.0,-782.0,-764.0,0.15315729629189342,-0.09379757425601566,-0.9721629873521148,-0.1504791802172528
-200.0949535369873,3452.0,12292.0,10080.0,363.0,-783.0,-691.0,0.0802622564287687,-0.040388788233918296,-0.9884505980966838,-0.12203331963142842
-200.10278582572937,3676.0,12988.0,10256.0,253.0,-700.0,-620.0,0.014127242345289176,0.007402467330698252,-0.9946758903626753,-0.10181108796371072
-200.1105682849884,3892.0,13264.0,10732.0,1.0,-594.0,-559.0,-0.04228591143830705,0.05053286830987202,-0.9925351016200538,-0.1026274961512679
-200.11835384368896,4000.0,13268.0,10784.0,179.0,-379.0,-559.0,-0.08074849293080735,0.09472762411265885,-0.9884317935150706,-0.08665418448035367
-200.1261429786682,4024.0,13184.0,11080.0,145.0,-232.0,-630.0,-0.10651948956153387,0.14603881186379067,-0.9809195934229883,-0.07157524021504723
-200.13393712043762,3864.0,13004.0,11104.0,96.0,-56.0,-681.0,-0.1165628627660107,0.2027321036849082,-0.9705577149541309,-0.05771061516133527
-200.14171385765076,4144.0,12960.0,10916.0,123.0,46.0,-675.0,-0.11800702555439561,0.25842626779986916,-0.957977676715929,-0.03961031361635011
-200.14950370788574,3860.0,12576.0,10908.0,194.0,120.0,-735.0,-0.11460686258783326,0.31758409078015487,-0.9411868893967307,-0.01314730234009532
-200.1572859287262,3568.0,12568.0,10656.0,16.0,186.0,-745.0,-0.10037068939390283,0.3779923160542281,-0.9203515778382451,0.0007119587109945614
-200.16507005691528,3532.0,12888.0,10512.0,351.0,270.0,-805.0,-0.08988808892339546,0.4381651236233043,-0.8932726346414516,0.044670528434236974
-200.172865152359,3456.0,12924.0,10380.0,367.0,395.0,-1001.0,-0.06884458507194076,0.5092995927890592,-0.8524729520492982,0.09572990084359981
-200.1806561946869,3404.0,12960.0,10324.0,450.0,397.0,-738.0,-0.05291357716012789,0.5562882577506942,-0.8154874649470232,0.15074389591321463
-200.18845343589783,3312.0,12968.0,10204.0,496.0,372.0,-721.0,-0.04083987235155937,0.5983798604666924,-0.7730107746442182,0.20670749792427875
-200.19623565673828,3264.0,12956.0,10324.0,758.0,380.0,-700.0,-0.04191447626932608,0.6331592481813341,-0.7208091620619873,0.27890266224798127
-200.20412611961365,3200.0,12768.0,10248.0,566.0,330.0,-776.0,-0.0333535917974045,0.6692705173705585,-0.6627372672014851,0.3342810601201692
-200.21191930770874,3412.0,12700.0,10200.0,583.0,271.0,-800.0,-0.028216862884078025,0.7031445621999526,-0.59736412828557,0.384639612540413
-200.21971654891968,3536.0,12700.0,10120.0,600.0,4.0,-861.0,-0.03571040393729935,0.7433292491383903,-0.5221650335842789,0.41656940853586544
-200.2275106906891,3456.0,12624.0,10164.0,622.0,246.0,-868.0,-0.03307353458057865,0.76850777310468,-0.44193729463512726,0.4615120492453233
-200.23534178733826,3440.0,12436.0,10116.0,616.0,152.0,-851.0,-0.03403100728519058,0.7900504351580562,-0.35888554542495926,0.4958461109404318
-200.24312496185303,3520.0,12528.0,10232.0,559.0,80.0,-849.0,-0.033120528447697445,0.8083193844097762,-0.2752321487674897,0.5193939426558383
-200.25091767311096,3804.0,12084.0,10284.0,482.0,-20.0,-865.0,-0.0282075402944961,0.8255141514013669,-0.19151050398046804,0.5301456850449342
-200.2587194442749,3916.0,12016.0,10384.0,489.0,-168.0,-794.0,-0.029326973241242085,0.8424508990678373,-0.11080954984871871,0.5264386526107523
-200.26652264595032,3920.0,11992.0,10388.0,500.0,-244.0,-699.0,-0.036142485303002445,0.856506637514643,-0.035635984255872506,0.5136342835866758
-200.27431273460388,4044.0,12044.0,10312.0,533.0,-328.0,-649.0,-0.047685114214902555,0.8688214776973644,0.03775792110550453,0.4913753241340781
-200.28211450576782,3960.0,12012.0,10260.0,532.0,-338.0,-681.0,-0.05744165077604727,0.8759470434795746,0.1133085599049494,0.4653798491853523
-200.2899010181427,3976.0,11960.0,10364.0,524.0,-326.0,-624.0,-0.06865973055236348,0.877773703406459,0.1834454508961027,0.4372035379020993
-200.29769587516785,4028.0,11984.0,10368.0,550.0,-256.0,-545.0,-0.08561777779206688,0.8732657736706501,0.247137042249192,0.41109581244482446
-200.3055055141449,4068.0,11920.0,10308.0,461.0,-198.0,-496.0,-0.09843927692622169,0.8645439570909844,0.30242396820096995,0.38911848898925855
-200.3132827281952,3996.0,11940.0,10328.0,393.0,-138.0,-502.0,-0.10717180370384699,0.851180506366282,0.35429252069304124,0.37213271806423426
-200.32107043266296,3904.0,11912.0,10432.0,288.0,-30.0,-447.0,-0.11294671995338314,0.8346922794496945,0.3967311346624195,0.36487839600107097
-200.32886052131653,3864.0,12072.0,10212.0,201.0,84.0,-507.0,-0.11416771465753951,0.811491502294368,0.43875274780113027,0.3687048968089009
-200.3366415500641,3872.0,12208.0,10276.0,181.0,200.0,-542.0,-0.11699103080405564,0.7813541717634034,0.480319966283115,0.38090876462627854
-200.3444287776947,3744.0,12408.0,10064.0,5.0,505.0,-257.0,-0.12975131892210573,0.752762904854794,0.4922636507523283,0.41735967996505885
-200.35220861434937,3592.0,12568.0,10112.0,326.0,163.0,-533.0,-0.13848834298312954,0.7190284325755698,0.5364747958900588,0.4195400879301359
-200.36004376411438,3572.0,12320.0,10132.0,409.0,94.0,-526.0,-0.14899622314126404,0.6847687597172022,0.5823314458444923,0.41204606342697486
-200.36783528327942,3652.0,12524.0,9812.0,477.0,85.0,-575.0,-0.1607602395582474,0.6448308732418949,0.6313942753231576,0.3996130120259036
-200.37561750411987,3756.0,12496.0,9812.0,561.0,95.0,-582.0,-0.17679223712796333,0.5999963382158945,0.6806690517469207,0.38136405312084065
-200.38340592384338,3760.0,12408.0,9700.0,551.0,91.0,-603.0,-0.19046787204563195,0.5511627914346687,0.7273099471314596,0.36188645713812817
-200.39120817184448,3720.0,12628.0,9856.0,763.0,106.0,-699.0,-0.21093951910251416,0.4886875753867247,0.7800587378090575,0.3289336384609883
-200.39901161193848,3700.0,12696.0,9740.0,358.0,193.0,-734.0,-0.21768477432697944,0.42538478994762147,0.8158903091817553,0.32555202793214094
-200.4068021774292,3796.0,12644.0,10220.0,211.0,270.0,-701.0,-0.22430803597457424,0.3628893764914576,0.8408109677460288,0.3332178295722737
-200.41459345817566,3916.0,12564.0,10328.0,15.0,274.0,-701.0,-0.22402693653627656,0.3024776798410674,0.8562059852450297,0.35387921065629724
-200.4223825931549,3732.0,12756.0,10256.0,-67.0,279.0,-685.0,-0.22149453335445413,0.24341764246383824,0.8649073990450813,0.37897653503681733
-200.43020844459534,3788.0,12952.0,10316.0,-129.0,288.0,-661.0,-0.21819865862260512,0.18605815713976334,0.8672922118064199,0.40691021967625635
-200.43799757957458,3500.0,13016.0,10300.0,-159.0,3.0,-605.0,-0.19408150545588637,0.1429266300695556,0.8700563006647108,0.430007420087811
-200.44579029083252,3472.0,12828.0,10364.0,-211.0,158.0,-616.0,-0.18003908861860937,0.09359639121189914,0.8655969075259919,0.45778557841300477
-200.4536120891571,3468.0,12556.0,10268.0,-260.0,119.0,-612.0,-0.16219390657401478,0.04658233946468446,0.8567722205032441,0.4873033803434953
-200.4614417552948,3652.0,12348.0,10208.0,-291.0,100.0,-644.0,-0.14085439126080948,-0.0017226792519193816,0.8438763699503936,0.5177158922402212
-200.46925401687622,3568.0,12120.0,10444.0,-382.0,37.0,-794.0,-0.10747409230742094,-0.05701584879775309,0.8235121566855441,0.5540994858865071
-200.47711181640625,3480.0,12092.0,10472.0,-522.0,120.0,-811.0,-0.07923066213921633,-0.11578626969346506,0.7901674023287898,0.5966167264034978
-200.48493194580078,3452.0,12004.0,10316.0,-588.0,113.0,-843.0,-0.04891934721157637,-0.17499609566886654,0.7471066961925903,0.639386306135218
-200.49277806282043,3208.0,12076.0,10424.0,-672.0,80.0,-909.0,-0.01366383393362293,-0.2346584844743692,0.6918987675032461,0.6826600844006595
-200.5006115436554,2968.0,12024.0,10544.0,-673.0,255.0,-916.0,0.011601473447845918,-0.30271378999201703,0.6293954913011918,0.7156053959356646
-200.50842118263245,3068.0,11988.0,10548.0,-664.0,-55.0,-826.0,0.04838062020429291,-0.3437286508746656,0.5635608427261901,0.7496059676271772
-200.51620221138,2704.0,12280.0,10592.0,-591.0,-153.0,-842.0,0.09279350321985116,-0.3759305585265177,0.49690053335428286,0.7766308266340948
-200.52403950691223,2608.0,12188.0,10320.0,-545.0,-249.0,-849.0,0.14257994253552736,-0.39847589807714373,0.42831626074117185,0.7983940752678967
-200.53186178207397,2600.0,12184.0,10392.0,-526.0,-410.0,-789.0,0.19371563146775322,-0.4041170414318655,0.3576889355401712,0.8192815732954968
-200.54025053977966,2552.0,12272.0,10500.0,-257.0,-580.0,-676.0,0.25019110191276883,-0.38662485125095886,0.3047170879600664,0.8337104612657715
-200.54822039604187,2568.0,12380.0,10628.0,-621.0,-738.0,-579.0,0.2895208203851353,-0.35993541095447057,0.22287499494331728,0.8584584620897919
-200.5560600757599,2692.0,12788.0,10796.0,-677.0,-803.0,-752.0,0.3380040898301191,-0.3291947379974983,0.12753760176091103,0.8724208960530154
-200.56386590003967,2660.0,12708.0,10892.0,-718.0,-528.0,-417.0,0.35365024488207775,-0.31343604291138133,0.0452878909340138,0.8801354203948676
-200.5716679096222,2680.0,12836.0,10848.0,-730.0,-754.0,-396.0,0.36529776440096395,-0.27807222099352763,-0.04451244788072248,0.8872722385035219
-200.57949924468994,2652.0,12744.0,10680.0,-717.0,-654.0,-352.0,0.3710967463643724,-0.24772099749008475,-0.12871899957194569,0.8856370201100965
-200.58729195594788,2660.0,12564.0,10772.0,-636.0,-657.0,-283.0,0.3705545602487939,-0.21343724382466794,-0.20436908140861215,0.8805493395554576
-200.5950837135315,2584.0,12304.0,10764.0,-611.0,-602.0,-192.0,0.3621487250038986,-0.18281464580066836,-0.2733718339592759,0.8721782768772498
-200.6029143333435,2780.0,12104.0,10820.0,-640.0,-646.0,-64.0,0.34035586343891056,-0.15172346750939755,-0.342260433118231,0.8625518370227957
-200.6107382774353,2548.0,12044.0,10752.0,-645.0,-683.0,54.0,0.3063580130351197,-0.12055866814654163,-0.4088386349675018,0.8511529509681648
-200.61852884292603,2624.0,12132.0,10920.0,-639.0,-711.0,208.0,0.25791867100042304,-0.09182043527656684,-0.47125729482134254,0.8384292032680325
-200.62631344795227,2520.0,12356.0,10816.0,-639.0,-796.0,328.0,0.19524340150027766,-0.06110664081927662,-0.5308501436979668,0.8224014333366846
-200.63410902023315,2452.0,12428.0,10772.0,-666.0,-838.0,399.0,0.1236452062454029,-0.030585501990283533,-0.5877757098807159,0.7989343558232771
-200.64189529418945,2460.0,12472.0,11016.0,-686.0,-796.0,262.0,0.06245537595407729,0.004097776881693633,-0.6405505013151902,0.7653610843934522
-200.64969205856323,2584.0,12524.0,11012.0,-745.0,-828.0,579.0,-0.022101183512229318,0.022867885205264022,-0.6908286601048075,0.7223187384329677
-200.65748476982117,2544.0,12480.0,10932.0,-720.0,-823.0,589.0,-0.10679635435998254,0.04040708187312763,-0.7314660658385274,0.6722493592087855
-200.66528487205505,2588.0,12448.0,10844.0,-744.0,-815.0,591.0,-0.18976696616858593,0.05709757700535053,-0.7650114134475237,0.6127690450294553
-200.67307806015015,2520.0,12460.0,10532.0,-697.0,-805.0,258.0,-0.25271552061622377,0.09404160301167325,-0.7866200520460697,0.5554457095537824
-200.68087887763977,2460.0,12404.0,11004.0,-718.0,-747.0,433.0,-0.3176133224985818,0.11580366607324133,-0.8046232998321627,0.4881522648340481
-200.6886706352234,2340.0,12436.0,10832.0,-515.0,-724.0,416.0,-0.3796313007857483,0.13121874005622577,-0.8077206709924831,0.43156579495278635
-200.69647431373596,2188.0,12476.0,10744.0,-784.0,-685.0,321.0,-0.4291492296852437,0.15963027525272142,-0.814536126233831,0.35620220794274576
-200.7043318748474,2056.0,12584.0,10900.0,-828.0,-671.0,307.0,-0.47270538242406535,0.1887738595413467,-0.8155909104196399,0.2751826997142896
-200.71216297149658,1968.0,12616.0,10608.0,-810.0,-702.0,309.0,-0.5143761937854467,0.2160061411540541,-0.8073375155208111,0.19226183782335804
-200.71998524665833,1988.0,12676.0,10564.0,-520.0,-761.0,20.0,-0.5567890571742308,0.2498694326466349,-0.7797344086965712,0.13987660395680307
-200.72778224945068,1972.0,12600.0,10284.0,-803.0,-853.0,266.0,-0.5973573599329772,0.27962650632539987,-0.7497515739452426,0.05334584201965082
-200.73556995391846,1980.0,12416.0,10684.0,-792.0,-1003.0,15.0,-0.6398218188074631,0.3225548905518942,-0.6971558824185143,-0.02366555235417264
-200.7433750629425,2140.0,12328.0,10696.0,-818.0,-1130.0,294.0,-0.679756216752505,0.34528000172521145,-0.6357012213014409,-0.12081872135896858
-200.75115990638733,2176.0,12528.0,10648.0,-809.0,-1236.0,355.0,-0.7140094963350072,0.3573271776736694,-0.5595988577779041,-0.22216400611454687
-200.7589681148529,2136.0,12232.0,10540.0,-861.0,-1281.0,465.0,-0.7335228645544574,0.3597691572979605,-0.47287511294385476,-0.329999224531324
-200.7667417526245,2168.0,12108.0,10688.0,-916.0,-1535.0,462.0,-0.7452223083015168,0.3504571961034342,-0.358064587718308,-0.4400150178473412
-200.7745189666748,2116.0,11900.0,10540.0,-992.0,-1250.0,479.0,-0.7279120829997264,0.3481463003442117,-0.2506596242448987,-0.5348905549297386
-200.78230595588684,2120.0,11836.0,10508.0,-984.0,-1034.0,514.0,-0.6906239087540591,0.34788493692573685,-0.15332682948772827,-0.6152280639540774
-200.79008603096008,2072.0,11772.0,10816.0,-1269.0,-1533.0,635.0,-0.6281659293590596,0.32792197359998365,-0.011917247180618873,-0.705501753110789
-200.7978711128235,2136.0,11736.0,10720.0,-947.0,-1248.0,756.0,-0.5495273934219784,0.29856159991205633,0.09201597684201632,-0.7748636492587642
-200.8056445121765,2204.0,11696.0,10996.0,-897.0,-1248.0,825.0,-0.4551118268167936,0.26060093948980506,0.18871752883217677,-0.8302686732257146
-200.81344151496887,2232.0,11672.0,10636.0,-815.0,-1335.0,850.0,-0.34882655911411514,0.2075730449583844,0.27796503409198403,-0.8706140950418579
-200.82122683525085,2244.0,11600.0,10728.0,-807.0,-1295.0,963.0,-0.22683924316991202,0.15506031949222285,0.3566866520881978,-0.8929025071636794
-200.82901000976562,2196.0,11648.0,10848.0,-777.0,-1289.0,1063.0,-0.09218151793006937,0.10168394948397028,0.4227596583060922,-0.8957885986539267
-200.83680129051208,2160.0,11576.0,10676.0,-799.0,-1298.0,1147.0,0.05177098858764634,0.04823185463058218,0.4787324101543914,-0.8751049836490018
-200.84457993507385,2204.0,11552.0,10636.0,-813.0,-1325.0,1193.0,0.19881253689248016,-0.006725019889291676,0.5220849093071646,-0.829370663066638
-200.8523736000061,2212.0,11476.0,10736.0,-811.0,-1378.0,1039.0,0.3318166087717005,-0.07221301257360853,0.5497892812625554,-0.7631610348852295
-200.86015343666077,2204.0,11428.0,10548.0,-806.0,-1487.0,1386.0,0.4817756847145783,-0.12580531967748634,0.5589337461116599,-0.6630673258547968
-200.86795473098755,2152.0,11552.0,10612.0,-772.0,-1647.0,1375.0,0.6211186469730624,-0.18287872962724586,0.5387716570120504,-0.5389731887884279
-200.87576055526733,2176.0,11644.0,10508.0,-705.0,-1688.0,1489.0,0.7437786831873441,-0.2256843921258313,0.49372709609030857,-0.3899915129501223
-200.88355588912964,2284.0,11852.0,10652.0,-668.0,-1756.0,1570.0,0.8408384329421742,-0.25530033628682164,0.423715686322918,-0.21972138071449324
-200.89138507843018,2280.0,11828.0,10832.0,-643.0,-1821.0,1659.0,0.9037122682255287,-0.2693456053532904,0.33118391644556633,-0.03277643396276683
-200.89915919303894,2396.0,11720.0,10988.0,-559.0,-1885.0,1842.0,0.9251614747019447,-0.2583457172297907,0.22127012764651285,0.16844366039612219
-200.90698504447937,2612.0,12024.0,10948.0,-593.0,-1841.0,1856.0,0.8959134120550479,-0.23668130241225915,0.10290483300102742,0.36156840920266986
-200.91477727890015,2808.0,11660.0,10936.0,-615.0,-1556.0,1989.0,0.8137808726494733,-0.2121321951200573,0.0028422431043205825,0.5410661186560694
-200.92257475852966,2780.0,11584.0,11004.0,-699.0,-1775.0,2063.0,0.6836379310492842,-0.1720639802474066,-0.11456883504065998,0.699933673978828
-200.9303641319275,2764.0,11528.0,10680.0,-783.0,-1693.0,2127.0,0.5097534063286387,-0.13240592353954936,-0.22457606788059004,0.8198693346401494
-200.93816542625427,2876.0,11264.0,10760.0,-835.0,-1711.0,2205.0,0.2993102120911403,-0.08737715223880196,-0.3244514442421272,0.8930340925932176
-200.9459502696991,2788.0,11576.0,10864.0,-877.0,-1842.0,2192.0,0.06737603840156241,-0.02774263251618436,-0.4102320451416495,0.9090657209076155
-200.95374202728271,2852.0,11568.0,10656.0,-838.0,-1896.0,2068.0,-0.1614324973752433,0.042413464810542464,-0.4676503895974066,0.8680113823581755
-200.96152901649475,2964.0,11840.0,10540.0,-720.0,-1924.0,1949.0,-0.37374088041840187,0.11531304039940282,-0.4874713515058179,0.7806358552353426
-200.96933674812317,3016.0,11944.0,11000.0,-633.0,-1922.0,2012.0,-0.5689104549086966,0.17591325926239595,-0.4735355105246341,0.6489680575987042
-200.97713446617126,2968.0,11996.0,10792.0,-526.0,-1814.0,1586.0,-0.709468554740601,0.2338140295506497,-0.4276660490076284,0.5090060116990519
-200.98495078086853,2968.0,12136.0,10748.0,-368.0,-1753.0,1442.0,-0.8152818160659411,0.2750724112188809,-0.3576216946764931,0.3629840939699218
-200.99276971817017,2944.0,12136.0,10916.0,-222.0,-1660.0,1322.0,-0.8884595613914169,0.2969535048489171,-0.2734397044219332,0.21837800204178306
-201.00056314468384,2840.0,12348.0,10944.0,-112.0,-1629.0,1250.0,-0.9334252316958453,0.3018515711025684,-0.1786812934473594,0.07533897549374413
-201.00838088989258,3100.0,12208.0,11204.0,-148.0,-1675.0,1243.0,-0.9482338375631486,0.30035869053820347,-0.07461480661403883,-0.07120306841976326
-201.01616168022156,3224.0,11924.0,11212.0,-70.0,-1746.0,1209.0,-0.9343923969828442,0.2823642741935798,0.0380345083955098,-0.21385659047805836
-201.0239646434784,3252.0,11672.0,11120.0,-20.0,-1870.0,1123.0,-0.8907989857291663,0.24809778022228046,0.1603595285522665,-0.3452672589099068
-201.0317578315735,3344.0,11340.0,11152.0,56.0,-2101.0,1089.0,-0.8127025897493654,0.19137283833972718,0.29221714137891713,-0.4663690380426269
-201.03954815864563,3448.0,11096.0,10952.0,98.0,-2321.0,918.0,-0.7013916084321683,0.11053846819528272,0.4273922654020191,-0.5596131790303965
-201.04736185073853,3584.0,10992.0,10984.0,2.0,-2583.0,887.0,-0.5465223381565032,0.01670346719928518,0.5610306471191392,-0.6215134279100903
-201.05512762069702,3672.0,11024.0,10708.0,416.0,-2941.0,962.0,-0.33866971113704014,-0.11161880778853225,0.6534237380206296,-0.667743578851469
-201.06292128562927,3796.0,11096.0,10568.0,588.0,-3234.0,1043.0,-0.08404806895398437,-0.2471236587879,0.6940721081699364,-0.670917079848865
-201.07071208953857,4180.0,11272.0,10724.0,736.0,-3417.0,1201.0,0.19903632324900825,-0.3615613548227365,0.6679807376828321,-0.619241199219628
-201.07849526405334,4460.0,11624.0,10240.0,865.0,-3441.0,1318.0,0.4730607559590893,-0.43269120913119974,0.5725426360273428,-0.511064348827872
-201.08628964424133,5008.0,11548.0,10260.0,962.0,-3306.0,1443.0,0.702653994915625,-0.44526769984897674,0.42552021236574367,-0.35629564657532214
-201.09408450126648,5276.0,12196.0,10736.0,974.0,-3362.0,1549.0,0.8665273853936132,-0.4101916462730439,0.2362991969015435,-0.1582270306692386
-201.10188460350037,5504.0,11872.0,10968.0,956.0,-3086.0,1708.0,0.9413267230067418,-0.3288016695478851,0.04833405899352072,0.05879865132060961
-201.10968780517578,5716.0,11736.0,11128.0,941.0,-3366.0,1926.0,0.9185692617903126,-0.21328231338478804,-0.15883628270482034,0.29242469353279277
-201.11749005317688,5840.0,11680.0,11296.0,942.0,-3548.0,2198.0,0.7783720450512811,-0.07250282588745949,-0.35440490004368197,0.5131057069903306
-201.12527561187744,5908.0,11468.0,11200.0,1088.0,-3930.0,2470.0,0.5107229259862927,0.0934729607537763,-0.5141836523683504,0.6826712752980503
-201.13307118415833,6000.0,11508.0,10928.0,1350.0,-4127.0,2848.0,0.13196896756974424,0.24762928780213456,-0.5836665967393523,0.7619693112402137
-201.14085507392883,6328.0,11392.0,10680.0,1577.0,-4719.0,3219.0,-0.3167130006411173,0.3692477068970569,-0.5352429512577789,0.6905533935222009
-201.14864706993103,6656.0,11084.0,10748.0,1588.0,-4911.0,3446.0,-0.7078708926309505,0.4047949975734595,-0.3646480144571267,0.449546031967628
-201.15643072128296,7424.0,10976.0,10500.0,1408.0,-5095.0,3578.0,-0.9261748322449661,0.35271289649360604,-0.10559112952518396,0.08151261331042894
-201.16422080993652,8188.0,10860.0,10424.0,1174.0,-5039.0,3648.0,-0.9056822941213402,0.227430610876229,0.17325003867796843,-0.3130484362677026
-201.17204880714417,8780.0,10812.0,10064.0,866.0,-4682.0,3714.0,-0.6640724497091395,0.07690276747041928,0.39455003428472796,-0.6304157488028141
-201.17984414100647,9388.0,10956.0,9680.0,590.0,-4151.0,3596.0,-0.29485342461172903,-0.055935176288764474,0.5210674791752369,-0.7990127634739288
-201.18762850761414,9384.0,11428.0,9752.0,268.0,-3601.0,3246.0,0.08887431052070585,-0.15327785725102136,0.5623666406279249,-0.8076824975910195
-201.19543838500977,9064.0,11636.0,9672.0,-107.0,-3328.0,2817.0,0.41996858338629856,-0.23412791809123298,0.543607902246017,-0.6879687169882476
-201.20322680473328,8824.0,12660.0,9572.0,-324.0,-2631.0,2503.0,0.6560972213394363,-0.27181188622827773,0.49328235451185665,-0.5023218623382181
-201.21102261543274,8700.0,13132.0,9400.0,-304.0,-2496.0,2239.0,0.8199094692502868,-0.2899578531158189,0.3997676534276567,-0.289583716605618
-201.21883869171143,9164.0,13328.0,9252.0,-298.0,-2512.0,2108.0,0.9162759461496766,-0.2894145325688182,0.2698220623222769,-0.062238842611676656
-201.2266321182251,9620.0,13048.0,9420.0,-363.0,-2580.0,2291.0,0.9382971808376779,-0.2663993789487189,0.11790150820140637,0.18635719919454835
-201.2344205379486,10260.0,12340.0,9644.0,-509.0,-2731.0,1837.0,0.8879802874190085,-0.2348075732702138,-0.06860367104209363,0.38942258410338354
-201.24223470687866,11216.0,11892.0,9940.0,-738.0,-2864.0,1780.0,0.7614597687456125,-0.19632372568493392,-0.2673701192726271,0.5569104368165552
-201.25004839897156,11740.0,11112.0,10360.0,-906.0,-2920.0,1247.0,0.5931344953340725,-0.13782576279644884,-0.46516252876533176,0.6425101955510231
-201.25784468650818,12172.0,10944.0,10872.0,-849.0,-2951.0,1032.0,0.3900576291128513,-0.05579774346121702,-0.628441708391874,0.670673301204842
-201.2656238079071,12276.0,10952.0,11016.0,-1010.0,-2876.0,811.0,0.17355291593486732,0.032604574720965666,-0.7534489074084922,0.6333490909464693
-201.27344727516174,12204.0,10988.0,11664.0,-567.0,-2605.0,542.0,-0.025335305502663746,0.1288744306578134,-0.8034204642841632,0.5807452634220365
-201.2812123298645,12080.0,11188.0,12008.0,-480.0,-2308.0,464.0,-0.20089443755065056,0.2098770432863456,-0.8102147170898967,0.5090630254433415
-201.2889974117279,11788.0,11368.0,11868.0,-574.0,-2085.0,487.0,-0.35290659525297524,0.2731155020723789,-0.7933434857569361,0.4140905349820727
-201.29680967330933,11968.0,11476.0,12164.0,-573.0,-1943.0,707.0,-0.49082213963150517,0.3067227983883856,-0.7578587469929807,0.3011060806469677
-201.30461883544922,12024.0,11672.0,11788.0,-604.0,-1945.0,992.0,-0.6174580754499168,0.31205665813781924,-0.7033197407566375,0.1634243232678581
-201.31242990493774,12108.0,11616.0,11712.0,-725.0,-1943.0,1181.0,-0.7184586888720967,0.2998861393794978,-0.6275987702619208,0.0022802100721477847
-201.32021975517273,12132.0,11432.0,11164.0,-676.0,-1895.0,1269.0,-0.7880685259478396,0.2673823455524078,-0.5307343428749222,-0.16054823882689087
-201.32805252075195,12196.0,11264.0,10388.0,-624.0,-1804.0,1370.0,-0.8208391848287416,0.21694375607978503,-0.4210265285343477,-0.3192101214216081
-201.33584141731262,12424.0,11232.0,9912.0,-578.0,-1650.0,1376.0,-0.816961264542281,0.15869231285744004,-0.30692206438692865,-0.4617249056201098
-201.3436381816864,12184.0,10836.0,9372.0,-422.0,-1496.0,1397.0,-0.7819964637781968,0.089369265178944,-0.19918796968307587,-0.5837968977421044
-201.3514277935028,12020.0,10292.0,9064.0,-304.0,-1401.0,1309.0,-0.7269070794906869,0.015473639513214435,-0.09680230723859762,-0.679702859770223
-201.35922360420227,11924.0,10704.0,9036.0,-547.0,-1222.0,1226.0,-0.6555642086171927,-0.03258342132881381,0.011425508995791612,-0.7543496183990617
-201.36700797080994,11500.0,10312.0,8812.0,-651.0,-1277.0,1079.0,-0.5780603084273447,-0.07770923662809844,0.12882067154749846,-0.8020054793738088
-201.3748095035553,11172.0,10236.0,9028.0,-922.0,-830.0,999.0,-0.5002951130442014,-0.07762374248812691,0.23959330901562018,-0.8284168037535046
-201.3825945854187,11488.0,10092.0,8960.0,-1038.0,-591.0,321.0,-0.46912257755517134,-0.06820379928925975,0.34049833365285304,-0.811993308944189
-201.3903932571411,10864.0,10168.0,8940.0,-1694.0,-369.0,-464.0,-0.4952018465180574,-0.038552994794355276,0.46705255657081085,-0.7315399559820109
-201.3982138633728,9768.0,9064.0,8948.0,-1913.0,-475.0,-398.0,-0.5001770582772461,-0.0025712415251982353,0.5991132414543845,-0.6252036652197103
-201.4060788154602,10104.0,9716.0,9064.0,-2007.0,89.0,-545.0,-0.5265368930469875,0.060280460979027804,0.6931989424691528,-0.48846739138270984
-201.41387295722961,9576.0,9288.0,9452.0,-2029.0,371.0,-804.0,-0.5623105927842464,0.11840503018703824,0.7528990062122288,-0.3208272627344409
-201.4216742515564,9132.0,9052.0,9404.0,-2099.0,709.0,-1227.0,-0.6070258801822694,0.15676915535658487,0.7708921611708296,-0.112553492007541
-201.42945885658264,9016.0,8896.0,9700.0,-2067.0,1161.0,-1054.0,-0.6508313362639803,0.20157901855834534,0.7256603310899339,0.09592473558130815
-201.43724083900452,9200.0,8480.0,9440.0,-1968.0,1521.0,-1256.0,-0.6822091045369082,0.21471750553506147,0.6265215461003028,0.30977069386214834
-201.44502687454224,8860.0,8352.0,9468.0,-1801.0,1539.0,-1207.0,-0.681893181537825,0.20864513788191066,0.49553299044452365,0.49591929866820983
-201.4528148174286,8840.0,8104.0,9504.0,-1635.0,1994.0,-1199.0,-0.6662175816757394,0.16262056818267015,0.3181993498357088,0.6545669243356306
-201.460599899292,8616.0,8008.0,9580.0,-1495.0,2040.0,-1224.0,-0.6134684429639516,0.09596245087616445,0.1280000651934149,0.7733457576140869
-201.4684112071991,8480.0,7976.0,9336.0,-1340.0,2284.0,-1136.0,-0.5344449582140315,0.0008363443600727773,-0.07260617621767407,0.8420785179202481
-201.47625088691711,8212.0,8304.0,9124.0,-1145.0,2017.0,-976.0,-0.4394202323495508,-0.08570228727736234,-0.2446216059988047,0.8600728150778055
-201.48412942886353,8112.0,8780.0,8792.0,-1071.0,1933.0,-948.0,-0.3279040563598734,-0.16581224194805882,-0.39735139832999605,0.8408906566778444
-201.4919216632843,8080.0,9460.0,8660.0,-1120.0,1914.0,-825.0,-0.21272736109062823,-0.24050010441681016,-0.5348424218279669,0.7815691610037566
-201.4997045993805,8012.0,9344.0,8500.0,-1029.0,1774.0,-909.0,-0.08784074977389765,-0.2943551326363771,-0.6447456997626358,0.6999585996381282
-201.50751733779907,8144.0,9544.0,8444.0,-1443.0,1764.0,-1011.0,0.0353169987526493,-0.32650092195312097,-0.754719443457933,0.5679334637344547
-201.5153489112854,8316.0,9836.0,8584.0,-1584.0,1213.0,-1121.0,0.12325662036765604,-0.31148880636296444,-0.8447634584875714,0.4173214926770924
-201.5231487751007,8288.0,9948.0,8820.0,-1602.0,807.0,-1348.0,0.18484643032804626,-0.2538711151738242,-0.9137327509349231,0.25782496765106955
-201.53094792366028,8400.0,10048.0,8928.0,-1661.0,516.0,-1588.0,0.2203813268162678,-0.16220403650119716,-0.9579415864095789,0.08642822664221986
-201.5387318134308,8552.0,10132.0,9264.0,-1759.0,300.0,-1892.0,0.22907180896836032,-0.0390760766708544,-0.9675878994180036,-0.0988575918573373
-201.54651522636414,8640.0,10092.0,9716.0,-1740.0,49.0,-2016.0,0.2044973185252037,0.09432729768498765,-0.9335282551830058,-0.27894122033579405
-201.55431008338928,8628.0,10140.0,9968.0,-1624.0,-183.0,-1805.0,0.15561343230916716,0.20341387008355408,-0.8630543066646843,-0.43536711048278814
-201.56210279464722,8648.0,10188.0,10200.0,-1567.0,-307.0,-1808.0,0.08972347764087475,0.300046557842763,-0.7588705352817031,-0.5709967349889126
-201.56990694999695,8872.0,9840.0,10396.0,-1464.0,-417.0,-1968.0,0.0023989355155215504,0.3890102516935023,-0.6230541948615336,-0.6785784696342764
-201.5776937007904,8944.0,9552.0,10280.0,-1349.0,-561.0,-1951.0,-0.09562834668986506,0.45138694178191424,-0.4665598148467413,-0.754603861153856
-201.58548831939697,9108.0,9480.0,10540.0,-1199.0,-562.0,-1834.0,-0.1883591579544433,0.48948052023101385,-0.3047603909430396,-0.7950161960874221
-201.59327340126038,9076.0,9276.0,10464.0,-1257.0,-762.0,-1747.0,-0.27077917586806977,0.49388216544483343,-0.1278774657655656,-0.8163371842082826
-201.6010720729828,9136.0,9456.0,10508.0,-1347.0,-324.0,-1699.0,-0.3313613487752601,0.5121544013020224,0.048087600841156895,-0.7909393835245208
-201.6088798046112,9240.0,9460.0,10412.0,-1490.0,-64.0,-1710.0,-0.3752705680775676,0.5331691527969541,0.22484452300572147,-0.7241184956309622
-201.61668467521667,9240.0,9084.0,10488.0,-1660.0,248.0,-1692.0,-0.40128805927330924,0.55796745850833,0.39197639233411175,-0.6115510743863923
-201.62447047233582,9188.0,9268.0,10420.0,-1666.0,422.0,-1594.0,-0.4112195526824191,0.572383610764659,0.5327238965026333,-0.46848770711165294
-201.63231658935547,9116.0,9148.0,10164.0,-1768.0,654.0,-1674.0,-0.4119614622518736,0.5710310917033562,0.6496517095161792,-0.2866424641431857
-201.64013695716858,8824.0,9408.0,10388.0,-1825.0,803.0,-1766.0,-0.40010540333654904,0.5420977218805919,0.734873101405706,-0.0775064576866246
-201.6479308605194,8492.0,9252.0,10424.0,-1850.0,896.0,-1829.0,-0.3718893027452439,0.48169645711916204,0.7804433798119104,0.1434398850050645
-201.65572309494019,8292.0,9908.0,10508.0,-1809.0,980.0,-1859.0,-0.3298270276566301,0.3901789591647472,0.7815461835196426,0.3579945176649891
-201.663507938385,8208.0,9948.0,10724.0,-1605.0,1004.0,-1876.0,-0.27765230112970696,0.2697606414397951,0.7463773975834576,0.5413494032359453
-201.67129468917847,8024.0,9856.0,10580.0,-1496.0,950.0,-2016.0,-0.20358077633861282,0.12630721909055478,0.6815595062563541,0.6914318428757625
-201.67909169197083,8156.0,10040.0,10720.0,-1250.0,820.0,-2116.0,-0.10821103360917834,-0.026184566558862463,0.5995792758016301,0.7925335530490495
-201.6868760585785,7768.0,9744.0,10740.0,-1170.0,660.0,-2196.0,0.006221327043456063,-0.17131319557012664,0.4949201541427771,0.851860977587693
-201.69468808174133,7544.0,9660.0,11016.0,-999.0,343.0,-2251.0,0.14045586308068514,-0.2876919880062239,0.37831726619931333,0.8685513897627269
-201.7024748325348,7644.0,9708.0,10792.0,-882.0,167.0,-2180.0,0.2722745978474317,-0.37507447555112344,0.2534678850704936,0.8490816877044046
-201.71029210090637,7400.0,9172.0,11076.0,-710.0,36.0,-2156.0,0.4002041637379007,-0.43368308472660666,0.12865437443649355,0.7969966507377664
-201.71807646751404,7252.0,9060.0,10760.0,-465.0,-194.0,-2019.0,0.51678667053779,-0.4515326756148098,0.0129285402530738,0.7272431731226641
-201.72586488723755,7208.0,8772.0,10988.0,-344.0,-401.0,-1895.0,0.6150134294915258,-0.43715652544129996,-0.10018759011132124,0.6485484566297631
-201.73364758491516,7136.0,8780.0,10928.0,-139.0,-590.0,-1788.0,0.6964400922096191,-0.39013673463477133,-0.20516167993159154,0.5662801526976049
-201.7414436340332,6900.0,8628.0,10996.0,33.0,-666.0,-1624.0,0.7571515126867387,-0.32217172018977597,-0.29583511816183133,0.48518919238614444
-201.74924278259277,6808.0,8676.0,10752.0,215.0,-802.0,-1602.0,0.8005499571329457,-0.22959094234584235,-0.38005432162227193,0.4024505906858897
-201.75703120231628,6660.0,8592.0,10684.0,477.0,-882.0,-1514.0,0.8238332136438562,-0.11342052058840445,-0.4495871014088853,0.3260461008100669
-201.7648310661316,6296.0,8616.0,10448.0,636.0,-952.0,-1549.0,0.8253518364363798,0.020116780740082087,-0.5080393602569453,0.24553140258114603
-201.7726171016693,5920.0,8728.0,10132.0,856.0,-968.0,-1566.0,0.8020723444486832,0.16950148757772301,-0.5479906324118073,0.16629932882738702
-201.78041219711304,6032.0,8776.0,10440.0,916.0,-1094.0,-1541.0,0.746231228100462,0.3180173760333152,-0.5786665135658241,0.0845515749476913
-201.7881956100464,6192.0,9028.0,9904.0,1041.0,-1213.0,-1594.0,0.6553546605369904,0.4663442225460674,-0.5941659309482525,-0.0004260407802283165
-201.795996427536,6252.0,9412.0,9780.0,769.0,-1252.0,-1705.0,0.5487020984047828,0.5874542874807374,-0.5851202428144917,-0.10704096774318463
-201.80379033088684,6452.0,9328.0,9792.0,777.0,-1340.0,-1777.0,0.41525220378245103,0.6884357584640881,-0.5537826895890723,-0.21667151735585147
-201.81162548065186,6524.0,9836.0,9676.0,1167.0,-1526.0,-1967.0,0.22781348285742894,0.7749112772465089,-0.49878595951256427,-0.3143661814153727
-201.81941747665405,6440.0,10236.0,10420.0,1146.0,-1633.0,-2193.0,0.018509517722107714,0.8212870021662888,-0.40116194112933923,-0.405233457177151
-201.82721853256226,6704.0,10272.0,10348.0,1253.0,-1612.0,-2056.0,-0.19430627918350518,0.8126741582593234,-0.29153533060556974,-0.4656317572675462
-201.8350088596344,6556.0,10524.0,10452.0,1294.0,-1549.0,-2381.0,-0.40741427037359496,0.7606056757703537,-0.14373433536082242,-0.48459576878080307
-201.84280276298523,6564.0,10876.0,10740.0,1476.0,-1465.0,-2348.0,-0.6010054547033808,0.6515729381917105,0.0017436392038824259,-0.4628629487821753
-201.8505983352661,6768.0,10836.0,11176.0,1528.0,-1255.0,-2378.0,-0.75675490574111,0.5022640713702536,0.13621624638445193,-0.3955982172207941
-201.85838508605957,7052.0,10896.0,10840.0,1540.0,-1053.0,-2300.0,-0.8628698029345168,0.32595068738756294,0.24536424771014895,-0.2983424852764952
-201.86620593070984,7432.0,10804.0,10964.0,1484.0,-877.0,-2298.0,-0.9177867218394868,0.13763561400449056,0.3279838914705486,-0.1764951498159951
-201.87399673461914,7572.0,10812.0,10736.0,1403.0,-858.0,-2271.0,-0.9179825752331185,-0.05172508239791334,0.390800445261677,-0.04367515772812073
-201.88178086280823,7644.0,10676.0,10932.0,1350.0,-861.0,-2322.0,-0.8655133626994665,-0.23558865395889836,0.4311577099523899,0.09740448790023444
-201.8896095752716,7684.0,10600.0,10808.0,1322.0,-833.0,-2314.0,-0.7649668438934558,-0.4037427753500364,0.44449804628469075,0.23289264897249998
-201.89742946624756,7604.0,10692.0,10832.0,1387.0,-695.0,-2228.0,-0.6266275798731589,-0.5532311320793741,0.4286145543979874,0.3428742544996588
-201.9052174091339,7412.0,10808.0,10976.0,1423.0,-536.0,-2296.0,-0.45629973793505657,-0.6814004675701247,0.3788435800148804,0.42890732546451477
-201.91302680969238,7340.0,11056.0,10984.0,1457.0,-486.0,-1923.0,-0.275430132785692,-0.7672435011514477,0.3308502012849445,0.47540908300561147
-201.92079496383667,7336.0,11284.0,10784.0,1416.0,57.0,-1766.0,-0.10700441196299952,-0.838386514659178,0.26488133955393306,0.4642154497797361
-201.92858386039734,7552.0,11536.0,10560.0,1217.0,290.0,-1556.0,0.03774710244172363,-0.8841324351425954,0.19471627756796628,0.42304912792269506
-201.93638062477112,7724.0,11876.0,10552.0,1033.0,307.0,-1201.0,0.15500979238496299,-0.9035528079769376,0.1398354287241595,0.37417955627651855
-201.94416093826294,7596.0,12368.0,10432.0,937.0,349.0,-876.0,0.25153395766479725,-0.9068816058689907,0.10538651373332342,0.32123216495410367
-201.9519670009613,7452.0,12620.0,10084.0,1023.0,437.0,-753.0,0.34720633990084937,-0.8974560901654325,0.08350156929605256,0.25893592196280457
-201.95976948738098,7244.0,13168.0,9764.0,631.0,558.0,-201.0,0.3959705714706541,-0.8898739772891179,0.0986578431934672,0.2039564685153753
-201.96756625175476,7148.0,13340.0,9432.0,473.0,652.0,-59.0,0.427078424433932,-0.8834517038419735,0.12472798714335472,0.1468333599183478
-201.9753656387329,7028.0,12852.0,9252.0,328.0,712.0,-9.0,0.4436937726731876,-0.878396274536418,0.1544209708443631,0.08780651875037518
-201.98315024375916,7000.0,12296.0,9412.0,139.0,594.0,39.0,0.445410761827661,-0.8757962658595553,0.18122061113706586,0.04182396506394516
-201.99093437194824,7080.0,11572.0,9516.0,96.0,398.0,24.0,0.44608068556720976,-0.8725802756090293,0.19874452204785303,0.010784226348192646
-201.99871802330017,7004.0,10880.0,9340.0,70.0,133.0,41.0,0.4490261100237538,-0.8691902675307327,0.20708164731517795,0.0010112823648602892
-202.0065052509308,7104.0,10556.0,9672.0,176.0,-29.0,-67.0,0.4628501397399561,-0.8633816226298782,0.2008358761627754,-0.0026215822764323955
-202.01429295539856,7156.0,10416.0,9444.0,219.0,-169.0,-110.0,0.48213679762074724,-0.8562111093827041,0.18558931003033166,0.0018034833281871253
-202.02208352088928,6996.0,10560.0,9348.0,345.0,-309.0,-293.0,0.512398408244462,-0.8454195084556969,0.15055072728463162,0.006942943549953793
-202.02986907958984,7088.0,10612.0,9352.0,405.0,-330.0,-395.0,0.545987860915868,-0.8309308461958748,0.10669066071600246,0.008263624429097042
-202.03764867782593,7136.0,11260.0,9428.0,579.0,-237.0,-480.0,0.5891660947930829,-0.8057140354499293,0.06082876818660337,-0.0028402088231165644
-202.04540705680847,7180.0,11024.0,9372.0,719.0,-180.0,-563.0,0.6384777524592188,-0.7692096638304201,0.011726576459884678,-0.02291593526450695
-202.05317759513855,7244.0,11436.0,9276.0,801.0,-24.0,-629.0,0.6883483428589264,-0.7223674402247524,-0.033354894437500233,-0.05700255436006248
-202.06096148490906,7248.0,11680.0,9356.0,733.0,168.0,-667.0,0.7289812984371558,-0.6728999181787643,-0.06874983496787587,-0.10519233259026226
-202.06879234313965,6924.0,11824.0,9404.0,688.0,407.0,-603.0,0.7634343197097296,-0.6193207172318126,-0.08432233693506626,-0.16278707623956068
-202.0765872001648,7112.0,11560.0,9452.0,659.0,510.0,-571.0,0.7916740734540575,-0.5616689071319799,-0.09028887213680066,-0.22277369627065835
-202.08438754081726,6960.0,11796.0,9288.0,526.0,679.0,-613.0,0.8075163998570206,-0.5050166446926536,-0.08338261595801144,-0.2931258976981208
-202.0921733379364,6768.0,11928.0,9696.0,328.0,786.0,-683.0,0.8066019973259796,-0.45460118407314587,-0.06628381213050226,-0.37193741086166965
-202.09999823570251,6476.0,11896.0,9464.0,271.0,788.0,-709.0,0.7953028992534822,-0.4038286953931492,-0.04764678192133747,-0.44960590230624525
-202.1078004837036,6280.0,11984.0,9236.0,293.0,661.0,-744.0,0.776018206011679,-0.3528293594581495,-0.03947914748700253,-0.5212951025632856
-202.11560010910034,6104.0,12080.0,9428.0,210.0,590.0,-831.0,0.7436461665567184,-0.3074402784678601,-0.03470282579112935,-0.5926774569892233
-202.1233880519867,5912.0,12148.0,9248.0,44.0,553.0,-945.0,0.694436116847558,-0.27168553882035934,-0.026533910328075026,-0.6657637713305505
-202.1311845779419,5868.0,12272.0,9276.0,-39.0,749.0,-1096.0,0.6273368044339429,-0.22629543778740735,-0.005065649815920503,-0.7451263301153417
-202.13897371292114,5756.0,12332.0,9396.0,-158.0,464.0,-1151.0,0.5462947951337604,-0.20290381378253192,0.007566031604419125,-0.8126098660046082
-202.1467707157135,5764.0,12264.0,9436.0,-167.0,265.0,-1057.0,0.4660131121355586,-0.19176300535457277,0.012974559762329283,-0.8636494600786171
-202.15455842018127,5812.0,12032.0,9560.0,-211.0,115.0,-985.0,0.38655756891704574,-0.19194926518556651,0.01669984688786574,-0.9019145417508172
-202.16235327720642,5764.0,11884.0,9712.0,-262.0,-46.0,-789.0,0.31924299959896946,-0.20494836348306847,0.022182350800121896,-0.9249800099600233
-202.17013955116272,5992.0,11640.0,9600.0,-291.0,-211.0,-1020.0,0.23102483861946124,-0.2309876939757092,0.021140763755029837,-0.9448943206943778
