programtime,ax,ay,az,gx,gy,gz,q0,q1,q2,q3
-5209.080147266388,-708.0,-3120.0,-15380.0,-847.0,-77.0,846.0,0.9945421473431905,-0.07383134002005332,-0.006610214095918299,0.07342448813880145
-5209.0957753658295,-472.0,-3020.0,-16284.0,-991.0,-46.0,1277.0,0.970283678748286,-0.159027882188816,-0.008636590766895873,0.18216784771511682
-5209.111363887787,-36.0,-2544.0,-16072.0,-508.0,-68.0,942.0,0.9440194054767878,-0.2011104249648344,-0.009386519371933579,0.26133092489752596
-5209.126953601837,-596.0,-2552.0,-15996.0,-1575.0,-167.0,-2103.0,0.9396197187092606,-0.31736497231135385,-0.09354117720061839,0.08743172610938235
-5209.142574548721,420.0,-3456.0,-16640.0,-1685.0,-400.0,-2218.0,0.8803114411646894,-0.42210372738550284,-0.19490099095017072,-0.09430701781126541
-5209.158181667328,1004.0,-4112.0,-16316.0,-412.0,-428.0,2098.0,0.8595367866843652,-0.4845224366930431,-0.14461400975548716,0.07430551029225237
-5209.17382478714,12.0,-2784.0,-16236.0,1059.0,-371.0,4079.0,0.8190085249546495,-0.42632037043719284,0.006395406618497414,0.383972754991924
-5209.18941950798,-1048.0,-1836.0,-15672.0,-276.0,-82.0,-1101.0,0.8414065439072067,-0.4420322633109292,-0.04942147733630222,0.306920223576493
-5209.205009937286,-1248.0,-2808.0,-16012.0,-1378.0,-34.0,-4089.0,0.8398869806441362,-0.49126648691006963,-0.23074559665636254,0.0018889698817085234
-5209.220606327057,504.0,-3004.0,-16352.0,-383.0,-45.0,-137.0,0.8218755012107885,-0.5164895455550929,-0.239928171864019,-0.013916974807719017
-5209.2361924648285,-604.0,-3204.0,-16096.0,-852.0,252.0,-1588.0,0.7768947796942116,-0.5375538091013388,-0.28885182886466576,-0.1550323339373506
-5209.251859664917,-176.0,-3804.0,-16068.0,-1517.0,253.0,-2861.0,0.6476940015057786,-0.5436773679489527,-0.37085162673905714,-0.3838964325681168
-5209.267485380173,848.0,-3852.0,-16352.0,-135.0,4.0,1634.0,0.6889728138550073,-0.5981811650724074,-0.28576695582722617,-0.2929726992034766
-5209.283089876175,108.0,-3540.0,-15752.0,811.0,94.0,3621.0,0.7858439108794629,-0.6065268788140117,-0.10646019887059346,-0.05692731388567236
-5209.298655509949,-608.0,-2672.0,-15892.0,107.0,130.0,1436.0,0.7933602473215741,-0.6073261368961632,-0.021924716894483696,0.03540887179408881
-5209.314229011536,-508.0,-2416.0,-16336.0,283.0,54.0,1152.0,0.8004231608667624,-0.5872242778246047,0.04350627652854658,0.11223909739504268
-5209.329797744751,-636.0,-2480.0,-15940.0,323.0,-90.0,351.0,0.8129664412197081,-0.5622140141715767,0.05833908675200263,0.13999113785017778
-5209.345388650894,-248.0,-2724.0,-15696.0,-631.0,134.0,-1485.0,0.7914124619079638,-0.6103696873173186,-0.0125728273529599,0.030936773478940385
-5209.360995531082,120.0,-4168.0,-16388.0,-259.0,-92.0,217.0,0.7763664020789728,-0.6282032659333243,-0.008072188436647584,0.050504516307942796
-5209.3766095638275,996.0,-3736.0,-16144.0,574.0,125.0,3224.0,0.7629446036459043,-0.5695714631740554,0.17271707929987334,0.25233448163792627
-5209.392241001129,-464.0,-3380.0,-16004.0,1110.0,-7.0,3619.0,0.7011179840053281,-0.4189784873472438,0.3576214844271897,0.45276646686853145
-5209.4078640937805,-704.0,-2896.0,-15772.0,409.0,122.0,1801.0,0.6327777198836949,-0.33842317809114314,0.441515821410427,0.5386333532132581
-5209.423450708389,-644.0,-2952.0,-16276.0,9.0,81.0,777.0,0.5919128431952758,-0.31127967018951547,0.4684534951014771,0.5773174827721756
-5209.439079046249,-304.0,-3024.0,-16148.0,0.0,106.0,919.0,0.5394210698108999,-0.278338806042218,0.49746815926725335,0.6197401463599944
-5209.454673290253,-332.0,-3076.0,-15940.0,240.0,-4.0,753.0,0.503412285280043,-0.2337566692435253,0.5275032890656208,0.6431750699757026
-5209.470277786255,-204.0,-3048.0,-15868.0,-106.0,97.0,740.0,0.45418156649280483,-0.20949299116790518,0.5399655247909301,0.6769557026474635
-5209.485852718353,-324.0,-3364.0,-16012.0,185.0,-48.0,1003.0,0.3989190878189391,-0.15160426387331408,0.5653168555399153,0.7059012405369456
-5209.501424312592,-376.0,-3300.0,-15680.0,-264.0,111.0,-210.0,0.4026314800473772,-0.1780215773759201,0.5501150288248825,0.7096264258921354
-5209.5170023441315,-464.0,-3392.0,-16092.0,-75.0,48.0,800.0,0.34870018977200967,-0.14499461791161453,0.5584454279399608,0.7385955878845901
-5209.53257393837,-280.0,-3248.0,-16016.0,-251.0,110.0,1154.0,0.26431596336687474,-0.10303874194622577,0.5574857249458647,0.7802113531916616
-5209.548145294189,-532.0,-3452.0,-15468.0,-396.0,69.0,-395.0,0.28392174190059405,-0.1360151900461529,0.5281773239114601,0.7886171612757169
-5209.563806295395,-116.0,-3464.0,-16196.0,-225.0,146.0,858.0,0.2147764837313138,-0.11185172264191287,0.5251333998352282,0.8158401599305735
-5209.579429388046,-464.0,-2996.0,-16084.0,316.0,197.0,1527.0,0.09915976475045495,-0.04960046868848257,0.5612310188560105,0.8201992916568275
-5209.595024347305,-792.0,-2608.0,-15884.0,-95.0,42.0,-151.0,0.10748162920190799,-0.06086588855670717,0.5543352649282095,0.8230768232985776
-5209.610649347305,-420.0,-3380.0,-15744.0,-763.0,132.0,-1436.0,0.19819121809172882,-0.1455635654118518,0.48847979494828325,0.8372090416515995
-5209.626239776611,196.0,-3696.0,-16164.0,-457.0,162.0,-498.0,0.2214442059421568,-0.1863068952901728,0.45098975540471503,0.8443106329674995
-5209.64182972908,20.0,-3460.0,-16320.0,288.0,80.0,2150.0,0.06341370267434372,-0.1003783795365986,0.5000611560912781,0.857812172566577
-5209.6574177742,-524.0,-2892.0,-15684.0,148.0,98.0,930.0,-0.009153303740247015,-0.06616618963992038,0.5183286223504661,0.852568877939748
-5209.673010349274,-616.0,-3008.0,-16060.0,-630.0,133.0,-936.0,0.05060309614318247,-0.11738073479210696,0.4639437699912122,0.8765941295986016
-5209.688607931137,-148.0,-3244.0,-16196.0,-196.0,103.0,-74.0,0.05008128008994089,-0.1291905595459695,0.44882104441863474,0.8828144396166829
-5209.704238176346,-448.0,-3076.0,-16096.0,-80.0,82.0,88.0,0.03919422008487808,-0.1325126025682423,0.4442364425698667,0.8851882321661301
-5209.7198441028595,-344.0,-3288.0,-16008.0,-819.0,267.0,-690.0,0.07235351962566831,-0.18196662862094787,0.37244353294122373,0.9071598144959707
-5209.735435724258,-292.0,-3832.0,-16400.0,144.0,74.0,1194.0,-0.022155302884755545,-0.14747297157038328,0.401290561596852,0.9037293568229201
-5209.751008749008,-480.0,-2892.0,-15680.0,120.0,164.0,1009.0,-0.10548811887655683,-0.12493586361420912,0.4219832096472642,0.8917362040057867
-5209.766642570496,-600.0,-2628.0,-15956.0,-664.0,146.0,-789.0,-0.056440425695502366,-0.15869849005656594,0.3591572199532888,0.917951719294921
-5209.782206535339,-424.0,-3460.0,-16092.0,-783.0,282.0,-1767.0,0.06453307399121029,-0.229671467159854,0.26696462947262123,0.9337110828004728
-5209.797812223434,-40.0,-3344.0,-16216.0,-138.0,112.0,539.0,0.015239609871253848,-0.22699057950243093,0.2669988100342376,0.9364585770595641
-5209.813413143158,-244.0,-2984.0,-15800.0,230.0,239.0,474.0,-0.02445446081276206,-0.23511847971377162,0.29530404302363417,0.9256980080011717
-5209.829285621643,-648.0,-3072.0,-16224.0,-461.0,31.0,-949.0,0.04180868114672219,-0.2602335182029238,0.23770342215289442,0.9348944503425523
-5209.844902515411,-64.0,-3232.0,-16076.0,-522.0,137.0,-872.0,0.09789164667801278,-0.2905160612510404,0.1752476505079521,0.9355778453219655
-5209.860534667969,-200.0,-3208.0,-16340.0,154.0,10.0,861.0,0.03127646629017008,-0.2763466809152824,0.20920082041373278,0.9374909660053947
-5209.876150608063,-332.0,-2660.0,-15732.0,-111.0,217.0,-10.0,0.02547452749440512,-0.294801899352048,0.20054381399285767,0.9339299048946661
-5209.891777276993,-536.0,-3272.0,-15880.0,-578.0,27.0,-1029.0,0.09353576908571899,-0.3149230868408903,0.1264401484074121,0.9359954049817016
-5209.90736413002,64.0,-3436.0,-16220.0,29.0,115.0,617.0,0.0426269835735156,-0.3171047857567254,0.14650052731932875,0.9360369066531314
-5209.923034191132,-592.0,-3104.0,-16028.0,544.0,71.0,1318.0,-0.05046958531466066,-0.30200277066273434,0.22596947400164027,0.9247621014561639
-5209.938663721085,-472.0,-2616.0,-15908.0,-58.0,70.0,2.0,-0.053504312663745036,-0.30762507854262605,0.22114976466790037,0.9239030691394827
-5209.954252958298,-516.0,-3576.0,-16184.0,-386.0,108.0,-1072.0,0.020424851167637835,-0.3338445932916932,0.16004224851491608,0.9287179828532307
-5209.969877719879,4.0,-3304.0,-16200.0,533.0,112.0,2043.0,-0.12898424301652262,-0.30853238697588825,0.2586456744871487,0.9062412737839207
-5209.985447406769,-576.0,-3424.0,-15628.0,-98.0,224.0,176.0,-0.15049476479330365,-0.3213310408467774,0.25314970333436704,0.9000071753379841
-5210.001034021378,-328.0,-3248.0,-16400.0,251.0,-61.0,1078.0,-0.22567580225323086,-0.2949127114013681,0.302611857974549,0.8777943884215968
-5210.016694784164,-104.0,-2884.0,-16156.0,654.0,206.0,1793.0,-0.3467500887869874,-0.2726518862692951,0.3895489027545214,0.8085029234348878
-5210.032279729843,-1036.0,-2692.0,-16060.0,748.0,-41.0,16.0,-0.32790125575704226,-0.2914149408157224,0.4432045453161982,0.7817466531769647
-5210.047888040543,-540.0,-3068.0,-15828.0,-930.0,139.0,-2743.0,-0.16452604521584324,-0.3689283026329848,0.29687793263648904,0.8652667687340497
-5210.063472509384,248.0,-3696.0,-16520.0,-125.0,8.0,241.0,-0.18685006164330814,-0.36164267029673974,0.295137061301544,0.8644048522138363
-5210.079097986221,148.0,-3280.0,-16112.0,806.0,162.0,2643.0,-0.3547070200859872,-0.3102524748459438,0.4246404877172516,0.7730503139802355
-5210.094688653946,-1404.0,-3524.0,-15252.0,-471.0,141.0,-2072.0,-0.22888092357931453,-0.37573500394255505,0.3269871288893967,0.8363708191791709
-5210.110273838043,112.0,-3344.0,-16768.0,-717.0,102.0,-60.0,-0.25036098278584856,-0.37006647665072107,0.2702621590824625,0.8528355917326101
-5210.125859498978,-364.0,-3224.0,-16180.0,906.0,164.0,2159.0,-0.3777431009465207,-0.34425498601990884,0.39574028294280594,0.7630126360317284
-5210.141496658325,-1044.0,-2528.0,-15500.0,-482.0,232.0,-1655.0,-0.28665527985702666,-0.39663823340944504,0.3029898162369717,0.8177432565204135
-5210.157078742981,-108.0,-3408.0,-16176.0,-671.0,187.0,-1704.0,-0.19069835283416348,-0.4329520876226965,0.18914937089543518,0.8604703036940594
-5210.17272233963,-248.0,-3436.0,-16496.0,420.0,106.0,926.0,-0.24507470656477243,-0.43118556066155744,0.2529600897363657,0.8306795973657587
-5210.188294649124,-568.0,-2616.0,-15792.0,111.0,137.0,471.0,-0.27772602401463375,-0.4329411084563659,0.27563446341556147,0.8120688977982174
-5210.2039270401,-708.0,-2968.0,-15752.0,-1006.0,220.0,-2006.0,-0.17541807774326393,-0.4637726287214975,0.12100029199965848,0.8599432400953028
-5210.219504833221,-236.0,-3608.0,-16124.0,-677.0,499.0,-1334.0,-0.10689679683282517,-0.5005064165467737,0.008483449706809849,0.8590660235997355
-5210.235057830811,48.0,-3572.0,-16424.0,445.0,137.0,1580.0,-0.20385803172422792,-0.5088094482660204,0.1083990801473466,0.8293397902427935
-5210.250666618347,-724.0,-2568.0,-15664.0,64.0,177.0,-417.0,-0.1723003587630248,-0.5265611599634805,0.0912986776885439,0.82747234554417
-5210.266261339188,-724.0,-3256.0,-16044.0,-729.0,209.0,-2571.0,-0.021162815293228967,-0.5369512652410375,-0.08047020323330069,0.8394998632498429
-5210.281850337982,416.0,-3348.0,-16556.0,221.0,216.0,318.0,-0.03251929633494124,-0.5552581394566027,-0.049840091128112864,0.8295461766830184
-5210.297443628311,-468.0,-2784.0,-16056.0,1372.0,52.0,2644.0,-0.1521197161450125,-0.5561980465449419,0.17167027973656582,0.798769453618953
-5210.313041448593,-1360.0,-2252.0,-15324.0,-506.0,296.0,-2802.0,0.013844809733906066,-0.594091032572243,-0.003395445074896437,0.8042714947164431
-5210.328700304031,-88.0,-3160.0,-16540.0,-604.0,123.0,-1049.0,0.05591253619980861,-0.6000238635873159,-0.09951674418346466,0.7917964189414968
-5210.34429526329,276.0,-2668.0,-16532.0,959.0,62.0,2830.0,-0.08598503667583354,-0.6042507963382554,0.11142373224689227,0.7842654528185035
-5210.359945774078,-1264.0,-2296.0,-14824.0,-183.0,250.0,-1665.0,0.015771505267769888,-0.6295901089399164,0.00912995332803533,0.7767137170791057
-5210.375556707382,-428.0,-4036.0,-15988.0,-2631.0,313.0,-5681.0,0.22465443171645436,-0.5783041893229458,-0.42193341655240485,0.6611103107032156
-5210.3911418914795,1528.0,-4124.0,-17652.0,1048.0,153.0,5496.0,-0.03048228747548645,-0.6911029033315849,-0.07304559705989143,0.718409317803632
-5210.406713008881,-920.0,-1776.0,-15888.0,3044.0,-239.0,8593.0,-0.3029030051457638,-0.5784331176102939,0.49813928737189234,0.5705454831141199
-5210.422286748886,-3364.0,-2348.0,-13024.0,-1956.0,11.0,-9111.0,0.04011583941279448,-0.7165102215019348,-0.0460689534175633,0.6948967358122109
-5210.437866687775,1588.0,-4168.0,-17364.0,-4232.0,886.0,-6456.0,0.141198592523557,-0.628421726286364,-0.58211547721189,0.49627680037556304
-5210.4534368515015,1332.0,-5252.0,-18052.0,3247.0,201.0,8518.0,-0.03084883408406638,-0.8059743020807124,0.02186458479909704,0.5907416641415479
-5210.469044923782,-904.0,-2124.0,-14528.0,2408.0,668.0,2402.0,0.012892579623164986,-0.806407451299257,0.2997028608057522,0.5096263328209648
-5210.484719514847,-1400.0,-3264.0,-15608.0,-1765.0,704.0,-6746.0,0.14532490894098923,-0.8669771745710491,-0.21558695428327282,0.42515116694765837
-5210.5003163814545,1884.0,-3776.0,-17480.0,1132.0,627.0,4671.0,0.06396901252422209,-0.8877626489670449,0.17286637751949668,0.4217850875256001
-5210.515932798386,-796.0,-1808.0,-15828.0,3240.0,169.0,5828.0,0.08462263612016831,-0.6811337332766616,0.6434978170809619,0.33883094053038904
-5210.531523942947,-2152.0,-1876.0,-14652.0,-1233.0,757.0,-7381.0,0.15639873076841393,-0.9423279495885979,0.14542443479181355,0.25769983741488833
-5210.5471069812775,636.0,-3812.0,-16784.0,-578.0,579.0,-3638.0,0.17428532671550473,-0.9599218226095373,-0.15106214113396516,0.15923237386183625
-5210.562694787979,544.0,-4316.0,-16564.0,1030.0,684.0,273.0,0.2640908958224747,-0.9516261654089276,-0.1029025659331236,0.11863684915388721
-5210.57833480835,-792.0,-4728.0,-15424.0,310.0,869.0,-4181.0,0.3191145356994323,-0.8580846617747978,-0.3998716316744438,-0.044264031833812084
-5210.594031333923,384.0,-4352.0,-16536.0,1213.0,684.0,-670.0,0.427091041629802,-0.7912597265958552,-0.4318028914691322,-0.07104611281358032
-5210.609607934952,364.0,-3280.0,-16120.0,1694.0,839.0,859.0,0.5714393715821422,-0.743356337229358,-0.34615231494913845,-0.03251115750187747
-5210.625192165375,-556.0,-3548.0,-15412.0,165.0,1016.0,-2759.0,0.5857314590282797,-0.6286816578654247,-0.46004376453757717,-0.22369122843392367
-5210.640770673752,-32.0,-3500.0,-15892.0,-236.0,883.0,-1126.0,0.5814118137378419,-0.5739269788918229,-0.4684400484767576,-0.33635107659894803
-5210.65634894371,692.0,-2304.0,-16220.0,526.0,1164.0,3810.0,0.7237775939994,-0.6313296912634032,-0.22093757186126534,-0.16957418640153993
-5210.671990871429,-1380.0,-940.0,-15208.0,1005.0,252.0,2352.0,0.7987750353233855,-0.5949417599447966,-0.08817836593592185,-0.01507716812876246
-5210.687604665756,-1228.0,-2892.0,-14576.0,-4324.0,1402.0,-13728.0,0.35203482744823444,-0.49009632136637027,-0.4331786435579977,-0.669502306801027
-5210.7032697200775,1600.0,-4484.0,-18520.0,-1971.0,820.0,-774.0,0.24863882958340675,-0.46468417762664366,-0.31984125809178837,-0.7873683490648488
-5210.718857288361,692.0,-1864.0,-17376.0,3171.0,644.0,9594.0,0.7901207039931974,-0.4643504854809807,-0.10103506788823022,-0.3871431451177874
-5210.734441995621,-832.0,284.0,-14372.0,-698.0,1656.0,1089.0,0.7997647714624406,-0.45877374195757753,0.07948697939705748,-0.37892582931782853
-5210.750038862228,-772.0,-3016.0,-14148.0,-6287.0,1785.0,-14976.0,0.023179547000042898,-0.541253363007863,-0.10766550938533133,-0.8336160049581273
-5210.7656280994415,3964.0,-6328.0,-15752.0,-8015.0,1633.0,-15483.0,-0.8029638673108066,-0.1607125888343383,-0.1382994938309689,-0.5570401615588737
-5210.781242847443,4312.0,-9376.0,-18628.0,-3903.0,1702.0,-2770.0,-0.8884501303890868,0.20932176320924245,-0.09734585749787548,-0.3966920080951869
-5210.7968719005585,724.0,-8004.0,-18352.0,3632.0,106.0,11876.0,-0.3680813950612704,-0.1147203922151345,-0.30396592556015267,-0.8711831232973436
-5210.812437295914,-408.0,-2544.0,-15272.0,2601.0,780.0,7572.0,0.20819374326645668,-0.2782001827504917,-0.36931579225678063,-0.861896669660604
-5210.828064918518,-1416.0,-1296.0,-15076.0,-871.0,894.0,623.0,0.2607715709405436,-0.2452342903954233,-0.270672623682432,-0.8936412375177876
-5210.843625307083,-544.0,-1476.0,-15724.0,-2003.0,394.0,-4381.0,-0.10547777145826132,-0.14450914015176528,-0.18379006334003606,-0.9665468228483616
-5210.859270334244,412.0,-2992.0,-16524.0,-2070.0,7.0,-5432.0,-0.5258678814200263,-0.0338927173011618,-0.0694924361347752,-0.8470448962863839
-5210.874833583832,1592.0,-3244.0,-16464.0,-1162.0,386.0,-2892.0,-0.7144037554374133,0.06302899197307747,-0.009253080909012655,-0.6968278129362158
-5210.890439033508,1548.0,-2916.0,-15592.0,-990.0,470.0,-1051.0,-0.7657745694174678,0.15307209836610625,0.027415755623389514,-0.6240245330745317
-5210.906030416489,1064.0,-2968.0,-16064.0,-632.0,657.0,956.0,-0.7021556450799676,0.23211170341830903,0.005280341180205564,-0.6731075138606061
-5210.92169380188,684.0,-2372.0,-16356.0,162.0,460.0,2035.0,-0.5765431342738438,0.2463785650940085,-0.07236010056206035,-0.775667217839299
-5210.937377214432,-460.0,-2456.0,-16200.0,143.0,344.0,-840.0,-0.6322349318212339,0.267230497490993,-0.08104346653394864,-0.7227024344278058
-5210.952986001968,-180.0,-2640.0,-16088.0,-419.0,44.0,-3593.0,-0.8093204484520145,0.3040513548233106,0.025483148386189997,-0.5019001837974029
-5210.968619823456,932.0,-2964.0,-15796.0,-1488.0,8.0,-4395.0,-0.8918902398825863,0.3707584058138755,0.1916603117267972,-0.1741732741534232
-5210.984250545502,1228.0,-3736.0,-16136.0,-1582.0,303.0,-2622.0,-0.8551656551483467,0.4393151292571077,0.26759903670132634,0.06391146232900592
-5210.99988079071,1532.0,-3364.0,-16532.0,-543.0,213.0,569.0,-0.8402012853880352,0.49093365445829473,0.2264236809585338,0.04216946352166783
-5211.015495061874,888.0,-2704.0,-16252.0,-69.0,234.0,1194.0,-0.8413428587372196,0.5160656171515792,0.1570844564968475,-0.033807489893999364
-5211.031084537506,48.0,-2432.0,-16096.0,-848.0,68.0,-1301.0,-0.800400961968498,0.555854733114023,0.21131288764049194,0.07570125013285929
-5211.046685934067,504.0,-2636.0,-16280.0,-1566.0,34.0,-3318.0,-0.6694576193739018,0.5752858844277519,0.3424782715070695,0.32184045828008806
-5211.062277555466,1144.0,-2956.0,-15880.0,-1421.0,38.0,-1998.0,-0.5309333932323873,0.5845016481942517,0.39187469378264594,0.47212475002027166
-5211.077902793884,1284.0,-3012.0,-16136.0,-914.0,129.0,-198.0,-0.4787989524092226,0.6128970019790331,0.357227575128695,0.5172013995578675
-5211.093528985977,816.0,-2340.0,-16524.0,-159.0,-208.0,989.0,-0.5062931388006697,0.6573508346823858,0.3047216294976741,0.4676557133854121
-5211.10914850235,640.0,-2268.0,-16276.0,-739.0,-37.0,-240.0,-0.45192431279579776,0.6837649844651255,0.2893682800988516,0.4944652262759081
-5211.1247544288635,692.0,-2572.0,-16272.0,-636.0,-107.0,-765.0,-0.3766901388509275,0.6917232873694987,0.3106651599096824,0.5320813766910981
-5211.140359163284,1096.0,-2556.0,-15964.0,-502.0,64.0,1135.0,-0.39837246487691175,0.7319341290577086,0.21553463027616904,0.5090350018418601
-5211.155975580215,688.0,-2836.0,-16060.0,148.0,124.0,1707.0,-0.4804901834371427,0.7452679928913732,0.10759547582495183,0.44958649443039
-5211.171574354172,728.0,-2572.0,-15884.0,131.0,173.0,1532.0,-0.545625298868394,0.7408660753877103,0.005805295578588044,0.39163348952513294
-5211.187149047852,632.0,-2460.0,-15952.0,28.0,200.0,1260.0,-0.586783553433898,0.7290507669739985,-0.08371338977060512,0.3422895104545665
-5211.20276927948,764.0,-2264.0,-15980.0,104.0,138.0,633.0,-0.6100965120709247,0.7140330761538873,-0.12776341442681244,0.3187718965829826
-5211.218358516693,776.0,-1872.0,-16164.0,293.0,-36.0,303.0,-0.6365423311592934,0.6958112753345845,-0.13652129313782502,0.303352050066466
-5211.2340133190155,120.0,-2556.0,-16508.0,-729.0,219.0,-1556.0,-0.5421071665855325,0.7408405304048459,-0.07272995093302424,0.3898531552820269
-5211.2496218681335,608.0,-3084.0,-16308.0,-760.0,-97.0,-1657.0,-0.43158468291632696,0.7809629129289447,0.012925913895002885,0.45129204607607465
-5211.26522397995,1492.0,-2828.0,-15760.0,-521.0,182.0,-217.0,-0.38705739331703837,0.7923103651143142,0.00033084750914459183,0.47162564619724323
-5211.280905723572,916.0,-2812.0,-15948.0,-137.0,135.0,834.0,-0.4106263855048894,0.7894038846342922,-0.06736258111942162,0.4513200207351856
-5211.296531677246,680.0,-2248.0,-16084.0,-49.0,167.0,399.0,-0.4215188484523969,0.7818719901202338,-0.10271846190890303,0.44771304319604005
-5211.312127351761,632.0,-1796.0,-16196.0,-329.0,220.0,-466.0,-0.3781852563573018,0.7886305893159307,-0.09177377542317719,0.47604125831039673
-5211.327780008316,308.0,-2300.0,-16460.0,-369.0,81.0,-1124.0,-0.30368504841628985,0.8023539566214677,-0.032291819338467344,0.5127969949854264
-5211.343381643295,684.0,-2688.0,-16140.0,-901.0,210.0,-2164.0,-0.14014369344255823,0.8062959573537282,0.07180844490729088,0.5701667489281622
-5211.358971834183,1060.0,-2820.0,-16172.0,-653.0,115.0,-570.0,-0.06634770844748888,0.8028503565778151,0.07777533381096902,0.5873502225906061
-5211.374607801437,1164.0,-2824.0,-15972.0,-252.0,-14.0,744.0,-0.08654734215863334,0.8083697855549952,0.012767408311851058,0.5821381628548722
-5211.390188932419,600.0,-3172.0,-16528.0,63.0,249.0,1113.0,-0.1470941618545159,0.7927479307944921,-0.06414387294598574,0.588047267940986
-5211.405808925629,1372.0,-2188.0,-16460.0,656.0,164.0,3469.0,-0.353119495674333,0.7230813409125014,-0.2604935785894594,0.5334820444143747
-5211.42138838768,520.0,-2204.0,-15776.0,1001.0,369.0,3677.0,-0.5491185738699114,0.5611873968996721,-0.4337981279214586,0.44199172119382785
-5211.436970949173,-404.0,-1900.0,-15988.0,985.0,13.0,793.0,-0.6235035674442291,0.4807418218875141,-0.4327948993775709,0.439111804834887
-5211.45258140564,572.0,-1936.0,-16192.0,186.0,104.0,-896.0,-0.5909627446622279,0.49906262464180023,-0.3926315219589674,0.49753393760738485
-5211.4681804180145,1028.0,-2956.0,-15932.0,-252.0,14.0,-947.0,-0.5362663791616851,0.5421185544291807,-0.36187311221831714,0.5362589805102201
-5211.483880281448,1888.0,-3152.0,-16172.0,254.0,62.0,1588.0,-0.6144506803637774,0.47276622417396125,-0.42397532453281045,0.468174521805795
-5211.499486207962,1656.0,-3004.0,-16360.0,1151.0,111.0,5112.0,-0.7880239888469561,0.19788790688577537,-0.5401550129763436,0.2192969020908068
-5211.515095710754,692.0,-2796.0,-16296.0,1852.0,-31.0,5218.0,-0.8294291436121571,-0.1573073084302894,-0.5338937131536697,-0.04753114238274091
-5211.530700206757,16.0,-2060.0,-16300.0,1353.0,-294.0,3112.0,-0.7778350569905556,-0.3848574069958094,-0.4560571706770505,-0.19715287842434517
-5211.546297550201,216.0,-2308.0,-16280.0,503.0,150.0,-48.0,-0.7548031374511359,-0.4142200905533654,-0.4762088500720262,-0.17865909265683022
-5211.561897754669,1140.0,-2332.0,-16456.0,276.0,322.0,1954.0,-0.6903404511738136,-0.5011695580113594,-0.4248577207657796,-0.3029109649741007
-5211.5775265693665,368.0,-3092.0,-16228.0,1485.0,20.0,2880.0,-0.5276106036669688,-0.6707453302294436,-0.32669330644714784,-0.4062009802994097
-5211.593146562576,972.0,-2196.0,-15748.0,1555.0,225.0,2865.0,-0.3158002584314699,-0.7849278809654326,-0.2159307800223944,-0.48737287234380694
-5211.6087765693665,144.0,-2392.0,-16380.0,1768.0,-156.0,2456.0,-0.08990771271258789,-0.857250091739555,-0.11467610793308776,-0.4938504567950039
-5211.624355316162,196.0,-2576.0,-15952.0,1055.0,43.0,-394.0,-0.027301371735340273,-0.8557603230993754,-0.1890358632233661,-0.4808267327485216
-5211.639987707138,440.0,-3092.0,-16152.0,859.0,-130.0,-885.0,-0.002338175431652248,-0.8438862260798601,-0.28917149573016837,-0.4519185949101
-5211.655638217926,1084.0,-3236.0,-16276.0,1414.0,121.0,647.0,0.12924543343070044,-0.8480427664716161,-0.29460293896135353,-0.42110354133848293
-5211.6713354587555,544.0,-2624.0,-16780.0,3245.0,476.0,4286.0,0.48771304085911876,-0.818079240091581,-0.08260845942514805,-0.293356760853635
-5211.686940908432,216.0,-1704.0,-15820.0,2480.0,440.0,-582.0,0.6368443305248473,-0.6802088281288518,-0.16479415979047118,-0.3234008870007714
-5211.702588319778,-592.0,-2776.0,-16552.0,1207.0,16.0,-3541.0,0.5785696780688144,-0.5342626665826545,-0.3880376976479609,-0.4787977400943009
-5211.718181848526,640.0,-3320.0,-16244.0,1111.0,17.0,-3866.0,0.4427985143733135,-0.32720848936001484,-0.5793087295466864,-0.6010536382308383
-5211.7338082790375,824.0,-3948.0,-16700.0,1641.0,472.0,-1956.0,0.4006814602860078,-0.1368508981446784,-0.685798673816399,-0.5919513308133834
-5211.7494106292725,884.0,-3252.0,-16660.0,3143.0,402.0,269.0,0.45871932170830976,-0.02155025829307297,-0.8008049324165287,-0.384478387528257
-5211.765007972717,224.0,-2752.0,-16688.0,3387.0,568.0,-533.0,0.4657517894826292,0.16297518076513393,-0.8544330447642252,-0.1626607914134071
-5211.780666351318,-356.0,-2460.0,-16828.0,3254.0,306.0,-3404.0,0.36403807719175046,0.511702574739851,-0.7766291021558335,-0.04983965332709037
-5211.796253681183,156.0,-2744.0,-16900.0,2746.0,380.0,-5873.0,0.2099500986861216,0.8688281015862502,-0.44746179822780885,-0.02892447203418124
-5211.811865329742,472.0,-3612.0,-17644.0,3265.0,222.0,-5651.0,-0.037803973097303864,0.9990279840106177,-0.020149110528885048,0.01039038626009406
-5211.827429533005,572.0,-4436.0,-17520.0,5568.0,800.0,-2192.0,-0.4601650562799908,0.8702492420814623,0.15336890468065312,0.08597881548689947
-5211.843008518219,1052.0,-2984.0,-18560.0,8145.0,2007.0,1857.0,-0.8956143701871542,0.44263106210150527,-0.0056869254881679945,0.043821246623670713
-5211.858621835709,340.0,-2068.0,-18880.0,8938.0,3208.0,-296.0,-0.9531798998873653,-0.20614604567643016,-0.16229999408027249,0.15036820882163573
-5211.874251365662,28.0,-820.0,-21240.0,8468.0,5099.0,-5475.0,-0.46752717655166875,-0.6408408476901511,-0.408674951005494,0.45136031232049034
-5211.889850139618,-560.0,-2252.0,-24632.0,8133.0,5480.0,-7485.0,0.32510887919628906,-0.6272307201041676,-0.4971841429967124,0.5036802243268685
-5211.905450105667,-1924.0,-3600.0,-25936.0,11720.0,5241.0,-3850.0,0.8858691396771448,-0.2328113067655136,-0.02873885832592424,0.40026096591090626
-5211.921120643616,-2324.0,-4340.0,-20544.0,12304.0,4699.0,-7579.0,0.8504308618291837,0.3449793519325353,0.36748835628680504,-0.15069473773925238
-5211.936742544174,-516.0,-4240.0,-17332.0,10659.0,3967.0,-8396.0,0.1836721394798988,0.5786797776022653,0.48779743567386913,-0.6272542721441335
-5211.952349424362,1108.0,-2300.0,-16660.0,10876.0,3460.0,-2020.0,-0.4383838778689889,0.6022185015954784,0.03521751613034089,-0.6662673476302536
-5211.967976331711,200.0,1128.0,-14968.0,9534.0,2101.0,2157.0,-0.6181801291168838,0.27619674039690534,-0.5371759917429004,-0.5030016326555895
-5211.98418712616,-1452.0,5508.0,-12432.0,7498.0,661.0,8703.0,-0.27216213141795564,-0.3578810941448173,-0.7846050126864762,-0.42690030539108126
-5211.9999833106995,-3640.0,7900.0,-10540.0,826.0,-600.0,2133.0,-0.20367315642186018,-0.5346063365771598,-0.7195129962378554,-0.3937186285782387
-5212.0156219005585,-3520.0,6232.0,-11248.0,-5530.0,-1842.0,-5872.0,-0.6316778511663173,-0.10614678462716472,-0.6249930928308604,-0.4462057668530674
-5212.031298398972,-988.0,3628.0,-12292.0,-8865.0,-3967.0,-8509.0,-0.8373224141911569,0.45941312411273477,-0.0930838527496346,-0.28136480313527823
-5212.046907663345,-1180.0,648.0,-13168.0,-10338.0,-4511.0,-6179.0,-0.40648202237396835,0.7679870816651491,0.49092065663187945,-0.06296917320674372
-5212.062521457672,1260.0,-388.0,-13672.0,-9934.0,-4710.0,-2205.0,0.3210337030894846,0.7147218885785688,0.6148981073999437,0.08950028482247421
-5212.07817697525,2184.0,-1392.0,-14540.0,-8978.0,-4715.0,4877.0,0.7818489523920781,0.5436254964873705,0.07744728690995757,0.2952718289348933
-5212.093829870224,584.0,-2312.0,-14728.0,-8290.0,-4805.0,6574.0,0.7289170836248179,0.10287124635168578,-0.544840432721901,0.40155484649715373
-5212.109440803528,328.0,-2200.0,-15100.0,-8695.0,-5089.0,7012.0,0.21775378179658536,-0.4129857212145923,-0.8436724458764638,0.26503375003001695
-5212.125049829483,496.0,-3224.0,-15568.0,-8676.0,-5338.0,7453.0,-0.443903934781035,-0.6742201336283399,-0.5896237450382815,-0.02683928805184037
-5212.140737533569,456.0,-3676.0,-15632.0,-9102.0,-5729.0,6665.0,-0.8448207875585845,-0.4552345614348501,0.030687374248917074,-0.2794595069877203
-5212.156341314316,1364.0,-4796.0,-16376.0,-9395.0,-5519.0,6057.0,-0.7142479715678958,0.08041229629406484,0.6141325333575458,-0.3259216611207435
-5212.17195892334,2028.0,-4928.0,-17764.0,-8881.0,-5049.0,10334.0,-0.05402934028853207,0.6465393977706388,0.686735084334031,-0.3278148280098035
-5212.187556743622,-1176.0,-5132.0,-18060.0,-7930.0,-5559.0,11797.0,0.6388029201078622,0.7396653771251119,0.16471197897571055,-0.13302602424315002
-5212.2031507492065,-2772.0,-5388.0,-17124.0,-8426.0,-5978.0,6249.0,0.9232144647478524,0.20001258867288743,-0.32636164331520023,-0.03403078349536742
-5212.2187168598175,-260.0,-4728.0,-16984.0,-8372.0,-7631.0,8866.0,0.5471349110683268,-0.46704077483818984,-0.6674790264059252,0.1923227834579037
-5212.234307527542,-860.0,-4120.0,-17240.0,-7274.0,-6044.0,9526.0,-0.16976133640506996,-0.8231125811013511,-0.447960049994548,0.3049566544666935
-5212.249993085861,-1092.0,-3336.0,-16356.0,-8605.0,-5828.0,6228.0,-0.8117445172251585,-0.5388352329922462,-0.09851217978972654,0.20254081286042766
-5212.265613079071,40.0,-3588.0,-16856.0,-10448.0,-4912.0,1604.0,-0.9630108541603976,0.19219330861974535,0.09826018420919963,0.16129712672651986
-5212.281210660934,1164.0,-3996.0,-17496.0,-9422.0,-4818.0,2752.0,-0.5804021986435506,0.7781236227606316,0.2347183003141356,-0.05063827612829892
-5212.2968072891235,668.0,-3912.0,-16956.0,-8938.0,-4291.0,2832.0,0.09450312332978067,0.9439714141634694,0.22245873295959315,-0.22472036190151623
-5212.312403202057,-284.0,-4700.0,-16096.0,-8657.0,-4265.0,815.0,0.6922077134509986,0.6147528704081497,0.22149669534028457,-0.30637657174988747
-5212.328056097031,1156.0,-4296.0,-16636.0,-8437.0,-3349.0,4041.0,0.9954791668398828,0.07090676170820877,0.021214264047614607,-0.05952658677218327
-5212.343635797501,228.0,-3368.0,-16824.0,-5847.0,-3346.0,7727.0,0.8033666527376246,-0.3282133759012841,-0.21370033224966078,0.44856456519102345
-5212.359282016754,-1780.0,-1288.0,-15980.0,-6614.0,-3217.0,4422.0,0.3047034111102119,-0.599205932367389,-0.457464897078797,0.5820944509392054
-5212.374895095825,-3720.0,-2364.0,-15084.0,-10037.0,-3110.0,-9377.0,0.0832434777854584,-0.2107781945921877,-0.9721543464511836,0.059657378141449516
-5212.390482664108,-780.0,-6604.0,-16140.0,-13540.0,-1837.0,-19362.0,-0.0962120465245243,0.5847063528046135,-0.6147441179112593,-0.5205299151701058
-5212.406042814255,2888.0,-7916.0,-17484.0,-7225.0,-2783.0,-2436.0,0.010194074897338166,0.5302719200934259,-0.1133574805263059,-0.840153470031605
-5212.421624183655,660.0,-6504.0,-17664.0,706.0,-2435.0,8325.0,0.4490008916101308,0.21525744216932266,-0.4400309423977275,-0.7472852217571255
-5212.437210798264,-2132.0,-2584.0,-14664.0,-1195.0,-1214.0,-1515.0,0.31966488631829415,0.1447672129083022,-0.37411126661835103,-0.8584273846465336
-5212.4527842998505,-948.0,-680.0,-14236.0,-6781.0,-222.0,-8335.0,-0.16513162849918311,0.15408175852922903,0.16975536777650405,-0.9592567289671792
-5212.468394994736,176.0,-4092.0,-15216.0,-5987.0,196.0,-6402.0,-0.4950866012834726,0.12871095667350854,0.5991240448780872,-0.6159327282347395
-5212.484090089798,1104.0,-3940.0,-15996.0,-3794.0,266.0,324.0,-0.4257999311097582,0.3072931139672256,0.7477030106629519,-0.40645487894821586
-5212.499715566635,-948.0,-4184.0,-16244.0,-2030.0,932.0,981.0,-0.38844056237591296,0.46934677529469215,0.7422643552259242,-0.27905404670529577
-5212.515311717987,-1128.0,-3568.0,-16808.0,-423.0,485.0,5351.0,-0.24610300716507122,0.7620997592805359,0.46790537622172496,-0.3737670740871434
-5212.530903339386,-1924.0,-1504.0,-16492.0,2046.0,-246.0,9451.0,-0.048667964491535334,0.8376596571256524,-0.16964704794272725,-0.5168922587742085
-5212.546494245529,-4040.0,-632.0,-15532.0,1392.0,-162.0,3310.0,-0.0033560757275129115,0.7400633849714361,-0.45199554025684885,-0.49799091815840446
-5212.562092065811,-3804.0,-480.0,-14996.0,-1368.0,909.0,-3646.0,-0.03555074354010075,0.8723260999768089,-0.14862201234801656,-0.4644295612669618
-5212.577739238739,-3760.0,-3212.0,-15892.0,-1475.0,625.0,-4582.0,-0.09293222788564957,0.885607189856475,0.23758338778954696,-0.38809488548700155
-5212.593382835388,-1596.0,-2788.0,-17008.0,1272.0,369.0,5104.0,-0.023626471208927625,0.9027569504420498,-0.18430079759611298,-0.38794960277363444
-5212.608965873718,-2100.0,-2600.0,-16368.0,3873.0,623.0,7326.0,-0.05728451367172133,0.6461429991533573,-0.723584299522701,-0.23588868269321717
-5212.6245629787445,-2732.0,-1140.0,-15428.0,3285.0,955.0,1901.0,-0.13543854907605812,0.5009657014393534,-0.8546664650886491,0.015329672482527089
-5212.6401443481445,-2168.0,-2136.0,-14980.0,1361.0,2065.0,-4219.0,-0.032163190638460744,0.7328265539823512,-0.6372164306933309,0.2364021814636182
-5212.655816555023,-3464.0,-5564.0,-15256.0,1479.0,1512.0,-10377.0,0.12574511098178315,0.9360783111928006,0.038661022901483155,0.32626812238835773
-5212.671439170837,-780.0,-7684.0,-15824.0,924.0,1955.0,-19395.0,0.3016355177167744,0.41782622328586666,0.846033239247434,0.13661998270713113
-5212.687092781067,4560.0,-7604.0,-20560.0,4257.0,3217.0,-9052.0,0.012185726737028403,-0.13031003282166134,0.9666282058299226,-0.22022877900931292
-5212.7026908397675,3084.0,584.0,-24180.0,17330.0,2148.0,20596.0,0.16556590655644332,0.6511678662639715,0.3399419152707784,-0.6580333082552924
-5212.718275308609,-7684.0,9380.0,-15712.0,15346.0,2473.0,6175.0,-0.24028845883262767,0.6772722412174973,-0.4840709693367327,-0.4992384845677113
-5212.733869075775,-9388.0,932.0,-8132.0,-9420.0,5351.0,-32768.0,-0.2788882295783769,0.7853639659740014,0.5516358866001028,0.033505894513424984
-5212.74950671196,6396.0,-6216.0,-23548.0,-10084.0,6895.0,-31869.0,0.05530448708484608,-0.1665809249676141,0.8079954826978192,0.5624371156717294
-5212.765131950378,-380.0,-10552.0,-25444.0,18938.0,2079.0,32767.0,-0.41215767558210875,0.6173086437472218,0.6435711503488473,-0.18674116646411967
-5212.78075838089,-5688.0,10508.0,-13356.0,18646.0,3827.0,23938.0,-0.4355115567559611,0.4748856728743601,-0.38161318809025546,-0.6627100846571272
-5212.796365022659,-11228.0,-3468.0,-3496.0,-11569.0,7530.0,-32768.0,-0.49088278310844724,0.7488816193611004,0.4168783166244123,0.1562782216407561
-5212.812051534653,8052.0,-11888.0,-23580.0,-12529.0,3739.0,-32568.0,0.1974737487669525,0.015533096412109699,0.6873102568878939,0.6988329215488321
-5212.827633142471,15248.0,-6760.0,-22412.0,20019.0,8951.0,32767.0,-0.6600054271263732,0.49677324532667255,0.5631829796261698,0.02083531498990336
-5212.843237400055,-15296.0,-708.0,-16420.0,20957.0,1921.0,12230.0,-0.7177050321934826,-0.04798615307959942,-0.01687551212960691,-0.694486884661717
-5212.858801603317,-5296.0,6628.0,-15016.0,-2062.0,1549.0,-28987.0,-0.9089338259719355,0.07973799348753466,-0.04053138518611386,0.4072325615830543
-5212.874409675598,6876.0,-4588.0,-16284.0,-3754.0,3378.0,-17344.0,-0.13631868760217686,0.17093530364245685,-0.1719939654626293,0.9605292360066512
-5212.889998674393,3100.0,-9884.0,-17512.0,6977.0,3491.0,8757.0,-0.644409327716024,-0.23478527850693462,0.1680157222332184,0.70808418174074
-5212.9055960178375,-728.0,-2200.0,-14496.0,9301.0,3123.0,5198.0,-0.5893536209694489,-0.6282354316547957,0.4838137791825108,0.15461817143158962
-5212.92126584053,-1848.0,-1064.0,-14352.0,1584.0,4002.0,-4406.0,-0.5388573529850307,-0.8366875452473777,0.05099511714421507,0.0835835078788344
-5212.936884641647,-1076.0,-5308.0,-15228.0,2465.0,2251.0,-1501.0,-0.3406819426485197,-0.9295461162172363,-0.13954427049487295,-0.020179899671121746
-5212.952535390854,-744.0,-5376.0,-14632.0,2531.0,2500.0,-1785.0,-0.10178394632382787,-0.9245053026857033,-0.34304180246475663,-0.13134799327928587
-5212.968132257462,-1132.0,-5488.0,-18048.0,989.0,1140.0,-3579.0,-0.027134750042602768,-0.7700732603684098,-0.618703365314523,-0.15315686322909802
-5212.983810186386,3448.0,-3576.0,-18384.0,1194.0,1634.0,1421.0,0.1569543994915133,-0.8091792890104341,-0.5307931402603556,-0.1971112299423277
-5212.999439716339,3160.0,-3816.0,-17008.0,2380.0,2224.0,8001.0,0.45165403630402157,-0.8855505814077118,0.018927647869418484,-0.10700721192929202
-5213.015075683594,1296.0,-1992.0,-16460.0,5614.0,2076.0,11810.0,0.6492794055716173,-0.40941319727839454,0.6289254770114087,0.12357116071649474
-5213.03067946434,-768.0,-408.0,-14468.0,4018.0,2516.0,3836.0,0.5412565505976121,0.001345344736510884,0.8404264429898484,0.02688736517670667
-5213.046277284622,-2892.0,-1964.0,-15368.0,1953.0,2052.0,-4101.0,0.3666837439264194,-0.19440512074245284,0.8643060960099611,-0.28412084289829265
-5213.061849594116,1128.0,-1844.0,-15284.0,961.0,1480.0,-11335.0,-0.007023485585823471,-0.693953183932459,0.4916445539178601,-0.5259898114632422
-5213.0774211883545,2600.0,-4708.0,-15028.0,50.0,1930.0,-7486.0,-0.3567598891410746,-0.7682572061004526,0.029003632362710818,-0.5307184150607019
-5213.093012571335,1536.0,-5592.0,-16808.0,2420.0,649.0,-64.0,-0.1943178548606156,-0.7950863024975026,-0.1050210357078151,-0.5648441598548013
-5213.108594179153,2188.0,-3164.0,-15660.0,2428.0,892.0,-475.0,-0.03990754180837973,-0.7681548498767363,-0.26584808256844045,-0.5810940644270467
-5213.124181032181,1444.0,-3344.0,-15976.0,1575.0,1711.0,-1232.0,0.041883311078783306,-0.6417935817619652,-0.4232745268982112,-0.6381108536463873
-5213.139808893204,-408.0,-2288.0,-15292.0,1395.0,1182.0,-7450.0,-0.208732364595781,-0.24586250429165452,-0.7595332746975856,-0.5648819642906403
-5213.155420064926,-840.0,-2684.0,-15420.0,-1966.0,1830.0,-13420.0,-0.5078639687717312,0.4940953500423378,-0.6317411051166533,-0.31439966666005786
-5213.17099738121,-128.0,-4992.0,-15812.0,-1919.0,1564.0,-14557.0,-0.45250480028139906,0.873440212787309,-0.012777644668142681,0.17938319933897418
-5213.18666601181,2588.0,-4940.0,-14508.0,-625.0,1735.0,-10643.0,-0.17180101953549182,0.6425487598415378,0.524012992410576,0.532001771329364
-5213.202253103256,4560.0,-4004.0,-14576.0,-357.0,2314.0,-6710.0,0.04579990046878342,0.198725845858382,0.7216131214887848,0.6615775919725009
-5213.21780538559,2504.0,-3500.0,-16612.0,894.0,1797.0,-2620.0,0.06566696347955633,-0.06376752162980183,0.7937718576618948,0.6012884424937434
-5213.233397245407,52.0,-4060.0,-17480.0,-344.0,1489.0,-5828.0,0.235804265906655,-0.4847087981061777,0.6656012203532943,0.5161673611173936
-5213.2490339279175,768.0,-5260.0,-16924.0,401.0,675.0,-5105.0,0.4042811671969506,-0.7325294138159156,0.43914651612752437,0.3272731781210315
-5213.264714002609,3972.0,-3284.0,-14688.0,1149.0,1537.0,-812.0,0.4347238182864081,-0.7547634453997188,0.46665028655025126,0.15357360894828243
-5213.280351161957,1244.0,-3948.0,-14868.0,355.0,1139.0,-4195.0,0.4371030117380237,-0.8668354139683642,0.2227490127308987,-0.08899550296084482
-5213.295990943909,1892.0,-4540.0,-15664.0,-546.0,670.0,-4604.0,0.3209496999608124,-0.8997868905915298,-0.08857924977907752,-0.28200808166303776
-5213.311582565308,4060.0,-4256.0,-15740.0,-594.0,1018.0,-1713.0,0.2359739850915893,-0.8641664855314806,-0.17706506482116818,-0.4076524579394063
-5213.327180147171,2888.0,-4944.0,-15528.0,747.0,450.0,1376.0,0.34468911276399716,-0.845690022082996,-0.08968641901996587,-0.39743445791048987
-5213.34280705452,3248.0,-2512.0,-14908.0,-379.0,3492.0,-774.0,0.3025048984758962,-0.696642079398084,-0.027331611597800523,-0.6499489076977267
-5213.358408212662,1028.0,-3996.0,-16576.0,457.0,-145.0,376.0,0.3507159416574835,-0.6929517821557032,-0.03413650654640454,-0.6290078336518131
-5213.37401175499,1584.0,-4064.0,-17400.0,1049.0,243.0,2467.0,0.5356316271733957,-0.6377402114319531,0.06320561643646984,-0.5499011117875593
-5213.389600992203,2096.0,-3128.0,-16008.0,788.0,-101.0,-1131.0,0.5218555336607089,-0.6078448900543053,-0.04193302051530877,-0.5970201113974543
-5213.40517950058,1960.0,-4252.0,-15516.0,69.0,-176.0,-1279.0,0.45524512619599466,-0.60560636728784,-0.12059937473680085,-0.6414425880687308
-5213.420743465424,3276.0,-3716.0,-15848.0,420.0,420.0,2383.0,0.6014954117307795,-0.5776325393836622,-0.0014779472001115583,-0.5518530010646635
-5213.436300754547,2068.0,-3960.0,-15868.0,975.0,492.0,4336.0,0.8006071113238227,-0.46915016196777387,0.1825647886988334,-0.32495611511508166
-5213.451928138733,1624.0,-4204.0,-15468.0,510.0,26.0,974.0,0.8446676689559571,-0.41563320973520385,0.20891186787746413,-0.2648422085802617
-5213.467510700226,3012.0,-3348.0,-16116.0,1508.0,452.0,5182.0,0.9138696063461909,-0.18069639028978143,0.35749979772188667,0.06621972335876476
-5213.483126401901,680.0,-4256.0,-15492.0,1289.0,-369.0,2701.0,0.8994007010326798,0.008006934314894652,0.36588294436209634,0.2390479847430732
-5213.4987189769745,1084.0,-4336.0,-15412.0,151.0,-271.0,-304.0,0.9135460215687115,0.015679707578382288,0.34800585833033393,0.20995174639426842
-5213.5143122673035,2832.0,-4704.0,-15552.0,719.0,-108.0,3164.0,0.8253194417288685,0.164488786363912,0.3353140572228819,0.42350412193225007
-5213.529908180237,2588.0,-4588.0,-15820.0,1092.0,372.0,5631.0,0.527815812173345,0.3524243612455489,0.28770494211945774,0.7172401301520285
-5213.545531272888,1660.0,-4380.0,-15800.0,1189.0,25.0,4707.0,0.18033227471635432,0.4825237523006914,0.20129159107581868,0.8331463223968837
-5213.561155080795,1980.0,-4124.0,-15556.0,1007.0,41.0,6054.0,-0.26713365944855094,0.5306676675928685,0.01784568329121841,0.8041846592350786
-5213.576752662659,2188.0,-3648.0,-15856.0,1094.0,-1.0,4529.0,-0.5887804975301879,0.47481346604115565,-0.10664698968045042,0.6453805991708974
-5213.592355966568,1560.0,-3740.0,-15968.0,276.0,266.0,3919.0,-0.7739356916087892,0.3872344864805914,-0.2527201689841026,0.4326725250380301
-5213.607969284058,1432.0,-3272.0,-16184.0,333.0,-226.0,2223.0,-0.8574740152283311,0.3183892601067726,-0.2944690891207132,0.27686557714761656
-5213.623549461365,932.0,-3860.0,-15924.0,459.0,-624.0,1193.0,-0.9079957801565273,0.2666709305874715,-0.26794433814895263,0.18065466960881718
-5213.639126777649,1940.0,-2996.0,-15136.0,455.0,-368.0,-409.0,-0.9188476186358374,0.24577574305659902,-0.22181708489968396,0.21473359937101966
-5213.654696702957,2124.0,-3584.0,-15224.0,-820.0,63.0,-2917.0,-0.8171477270652951,0.354875457250843,-0.1738168853016447,0.4196673591989994
-5213.670283794403,1880.0,-4652.0,-15684.0,-374.0,-10.0,-2495.0,-0.6975163092338625,0.4102027147195352,-0.10706958976056621,0.5777030674472815
-5213.685876131058,1780.0,-4156.0,-15976.0,-674.0,-247.0,-3375.0,-0.4839868053148069,0.4744440021727524,-0.00505829599833621,0.735278229464916
-5213.701494216919,1308.0,-5148.0,-15928.0,-810.0,-395.0,-3812.0,-0.19491741265769394,0.5071479279412072,0.11109471645968498,0.8321455073498341
-5213.717096567154,2160.0,-5092.0,-15804.0,-878.0,-251.0,-2242.0,0.008964040994191376,0.5076524000247864,0.1475425479367778,0.8487873015464193
-5213.732714176178,1712.0,-4640.0,-15364.0,-431.0,-297.0,-1304.0,0.12745632987993788,0.5089942896669605,0.17185182534188215,0.8337545485252996
-5213.748305082321,1956.0,-4132.0,-15828.0,-1061.0,390.0,-1446.0,0.2704286521861536,0.44179165572050133,0.1611761177124412,0.8400659117543477
-5213.763920783997,1420.0,-4208.0,-15496.0,-1012.0,-475.0,-3334.0,0.5358098404973506,0.3882643801525569,0.19533491876436346,0.7238804151531344
-5213.779536724091,2316.0,-4300.0,-15332.0,-2010.0,130.0,-2620.0,0.737103140190159,0.2322335758828906,0.15685397192159067,0.6149336211713206
-5213.795115232468,2368.0,-4552.0,-15440.0,-1355.0,-399.0,-1882.0,0.8531775004830733,0.1381234389002909,0.09465132626353877,0.49401537904438386
-5213.810693264008,1616.0,-4312.0,-16248.0,-1396.0,-1520.0,-980.0,0.9069317244109844,0.09007824747820342,-0.0656852273403074,0.40625879374781065
-5213.826269865036,928.0,-3756.0,-16108.0,-1928.0,-917.0,-3515.0,0.9801773538732996,-0.009286216641045357,-0.1687678814834819,0.10336113057629143
-5213.841836214066,2704.0,-3944.0,-15800.0,-1785.0,-868.0,-1280.0,0.9572806803022355,-0.13263002639859423,-0.25506799600073693,-0.031036955935869838
-5213.8574097156525,2348.0,-4272.0,-15708.0,-1571.0,-514.0,-80.0,0.9177965600050424,-0.2609603366695501,-0.29187287188961847,-0.06602578120046666
-5213.872981786728,1580.0,-4244.0,-15756.0,-1189.0,-1275.0,-85.0,0.8478160964560542,-0.35746026585089485,-0.3848001872990496,-0.07320410359018623
-5213.888622522354,2416.0,-3660.0,-15848.0,-1958.0,-741.0,349.0,0.7511113340302739,-0.5102671714222574,-0.40942733451029356,-0.0884784460520596
-5213.9042501449585,1392.0,-4772.0,-15736.0,-1648.0,-1000.0,282.0,0.6348381852358314,-0.6272544732384159,-0.44342697543621923,-0.0830952575323064
-5213.919920921326,2616.0,-3664.0,-15564.0,-1334.0,-965.0,3122.0,0.5226289796796938,-0.7923558580785707,-0.30241170828278574,0.0870534460031406
-5213.93554353714,1560.0,-3832.0,-15628.0,-1500.0,-684.0,3319.0,0.35716657008224695,-0.897510652046081,-0.1099799856416601,0.2341176487105608
-5213.951121807098,1052.0,-3732.0,-15628.0,-1943.0,-1036.0,2318.0,0.14206671922239109,-0.9239808941962624,-0.00045375648599335915,0.3550720329098211
-5213.966730117798,2508.0,-3168.0,-15372.0,-2559.0,-1105.0,1935.0,-0.11919117333825673,-0.8837552071103261,0.05996910523091525,0.4485241403998651
-5213.982374668121,1484.0,-4320.0,-16332.0,-2077.0,-1060.0,4213.0,-0.40438516982210043,-0.736422024990393,0.29005512815695955,0.4582829455334877
-5213.998018980026,1772.0,-3136.0,-16360.0,-2033.0,-2026.0,3302.0,-0.5751971955190603,-0.46736081573975874,0.46016749998583795,0.4888434576987394
-5214.013610601425,1424.0,-3488.0,-16112.0,-2361.0,-1788.0,4276.0,-0.712070161870047,-0.09195961905283283,0.568031232948971,0.4022934643173993
-5214.029190540314,1372.0,-3568.0,-15456.0,-2783.0,-2533.0,2761.0,-0.6534854197270089,0.2841265842324991,0.6021062578023013,0.36013462017958836
-5214.044776916504,1472.0,-3788.0,-15988.0,-3570.0,-2442.0,3340.0,-0.4887006346163852,0.66798282243424,0.4932887727695248,0.2676505656968896
-5214.060338973999,1720.0,-3712.0,-16516.0,-3421.0,-2556.0,4893.0,-0.25518080287507555,0.9433013878808448,0.20639532600738045,0.049661039743555194
-5214.075948238373,888.0,-4084.0,-16452.0,-3035.0,-2904.0,6294.0,0.01665103781973561,0.9486579392424999,-0.21708667606082055,-0.229443309618223
-5214.091547250748,1068.0,-2468.0,-16092.0,-2860.0,-2636.0,7520.0,0.28471668424168295,0.6027188112806137,-0.6323995905443421,-0.3946355307397627
-5214.107123851776,-100.0,-3196.0,-15620.0,-3634.0,-3199.0,4629.0,0.3959186235844153,0.12681265002649383,-0.7168942763870121,-0.5596691806556997
-5214.122735977173,968.0,-2652.0,-16500.0,-3337.0,-3156.0,6755.0,0.46024987583234267,-0.4602680649994047,-0.6008922085539228,-0.4639524909268251
-5214.138327121735,692.0,-2444.0,-16124.0,-4228.0,-3179.0,5455.0,0.2870455696739839,-0.8708612863993064,-0.28204159477922086,-0.2822374879350314
-5214.1539516448975,-40.0,-3128.0,-15944.0,-4644.0,-3494.0,5630.0,-0.010917212747100922,-0.9899093296928562,0.1410314651312937,0.008394003561797737
-5214.169538974762,1052.0,-2428.0,-16216.0,-4112.0,-3317.0,7890.0,-0.2547582825043477,-0.6826144043787199,0.6335962459197921,0.2601760742006586
-5214.185179233551,24.0,-2164.0,-16208.0,-3872.0,-3358.0,8229.0,-0.3713350174196922,-0.04989724078853817,0.8479450207099946,0.37497974885683427
-5214.200742959976,-736.0,-2092.0,-16032.0,-4585.0,-3638.0,7116.0,-0.2764804231182011,0.5800682429529145,0.6600517008570831,0.38911587136169457
-5214.216350078583,-396.0,-1980.0,-16276.0,-5177.0,-3771.0,6104.0,-0.003433207622022447,0.9377061859061432,0.21081080890081277,0.27614149425496065
-5214.231954336166,1004.0,-1552.0,-16304.0,-4478.0,-2639.0,9933.0,0.12303329650263788,0.8473644541615204,-0.5068766744128151,0.09956066849638867
-5214.2475299835205,-36.0,-832.0,-16320.0,-3708.0,-2734.0,9923.0,0.1372779501908025,0.2838255152295454,-0.9418932503968,-0.11590921513428362
-5214.263108491898,-1688.0,252.0,-16356.0,-2428.0,-2705.0,10903.0,0.060064491379341604,-0.4722103915879439,-0.8612903867020603,-0.17773146239852114
-5214.278688907623,-1924.0,1012.0,-17296.0,-4429.0,-2139.0,2086.0,-0.2275418863563269,-0.6212123437577032,-0.6506664020317927,-0.3727641978294953
-5214.29429936409,-792.0,-232.0,-16748.0,-5984.0,-2918.0,2669.0,-0.5346390608337087,-0.6349144288443619,-0.21488577331562111,-0.5146541043289515
-5214.309865474701,-1976.0,-2348.0,-17756.0,-6591.0,-2887.0,3930.0,-0.6322211606165301,-0.4318628004997466,0.352599498213567,-0.5380190698039845
-5214.3255178928375,-2172.0,-1700.0,-17540.0,-5271.0,-3816.0,5857.0,-0.3482560880266505,-0.11137890206487396,0.8196421546016952,-0.44102060691886963
-5214.341149806976,-3912.0,-1736.0,-17884.0,-6266.0,-4226.0,7187.0,0.12566632633937438,0.31833841577214494,0.9311647523598154,-0.12570135811012692
-5214.356742858887,-3344.0,-180.0,-18740.0,-7055.0,-4967.0,7433.0,0.5721408782199182,0.5606934358955198,0.5302965547879694,0.27760268441322283
-5214.3723249435425,-3484.0,1024.0,-20296.0,-8142.0,-4150.0,10966.0,0.5614169924100882,0.4772726595006815,-0.2570248962540934,0.6252679200406254
-5214.387951374054,-5236.0,1016.0,-20204.0,-8759.0,-4404.0,6704.0,0.32044609181537825,0.09601977013365826,-0.854076321782983,0.39830659366043675
-5214.403557300568,-3828.0,992.0,-18656.0,-10666.0,-3631.0,7376.0,-0.07607795522968441,-0.40550947062206877,-0.8995883341811813,-0.14323073332566214
-5214.419139146805,-3340.0,-1084.0,-16228.0,-10546.0,-4292.0,4536.0,-0.4982971655226501,-0.5090141003556986,-0.39532698478124695,-0.579932026684972
-5214.434830665588,-596.0,-4844.0,-14220.0,-11931.0,-2174.0,-7701.0,-0.9310432780049732,0.1031132126822594,-0.024414082638773937,-0.34918481126905343
-5214.450417280197,3268.0,-10752.0,-14736.0,-10354.0,-1774.0,-14049.0,-0.6943472559703006,0.5033720167602144,0.3072065325450259,0.41245926735973637
-5214.4660115242,4080.0,-19468.0,-14224.0,-8528.0,-1089.0,-26105.0,0.249796946509821,0.13844865986294969,0.46678919001902075,0.8369834563346575
-5214.481591463089,12064.0,-19040.0,-18732.0,-2829.0,-404.0,6560.0,-0.15174160341192666,0.3169628040317222,0.14590651935202018,0.9247812467091362
-5214.49716925621,8480.0,-9368.0,-20420.0,15928.0,2265.0,32767.0,-0.9780474099019845,0.10206592320450672,0.14824240047887371,0.10502381636891987
-5214.512749195099,-5416.0,4572.0,-13972.0,15205.0,2691.0,25820.0,-0.49288821928872406,-0.3155721779134695,-0.06127367704931974,-0.8085301109508513
-5214.5283262729645,-10832.0,5572.0,-10972.0,-5563.0,3767.0,-19396.0,-0.9721787349062508,0.1429215892471165,-0.17802186128939973,-0.05244181181288403
-5214.543968677521,-3940.0,-3016.0,-16048.0,-9027.0,1930.0,-23731.0,-0.38500603228135116,0.5279274229612764,-0.0019386849447164938,0.7570067586839117
-5214.559562206268,2812.0,-6160.0,-18184.0,-1655.0,2463.0,-1103.0,-0.22695357411163306,0.40608968445217064,-0.1380910781311744,0.8743649681454889
-5214.575150966644,-252.0,-8124.0,-17388.0,11368.0,2478.0,10964.0,-0.8369548310368339,-0.08157777566815576,0.16982684702551112,0.5138195396737208
-5214.5907330513,-2384.0,-1676.0,-16692.0,12631.0,2482.0,5028.0,-0.6440795269623556,-0.6644776963509432,0.377153258796388,-0.0372340352279549
-5214.606323957443,-4800.0,176.0,-15796.0,6720.0,2533.0,-10070.0,-0.25159881955677293,-0.9280124714971917,-0.25209272355909285,0.1092709726865788
-5214.621942043304,-3232.0,-2024.0,-15640.0,2626.0,2224.0,-25077.0,0.10287081679001472,-0.187746843264418,-0.9513283428771836,0.22168243488322043
-5214.637528181076,1520.0,-4768.0,-18096.0,3504.0,2691.0,-18877.0,0.3809989597505276,0.6913904909159921,-0.594734918816595,0.15201762424198528
-5214.6531574726105,2096.0,-7724.0,-17752.0,10461.0,3102.0,-4584.0,-0.019950895620970507,0.8597289085767836,-0.05308835187243158,0.5075921516500844
-5214.668745756149,-960.0,-6328.0,-15624.0,14570.0,2504.0,-4662.0,-0.5320954612408411,0.44297100373209103,0.5573973673841816,0.4582131434307228
-5214.684355258942,-752.0,-5284.0,-15028.0,10859.0,3476.0,-14290.0,-0.2918130412455185,-0.4754676069146528,0.7344246731361227,0.3865179209594218
-5214.6999661922455,1388.0,-7464.0,-16880.0,11084.0,4029.0,-12057.0,0.17798914285236947,-0.9364387796483167,0.2840391617498593,-0.10355690025240892
-5214.715549945831,2612.0,-7004.0,-18168.0,14489.0,4730.0,-4699.0,0.7013996162898403,-0.4581738165505715,-0.09188017232210124,-0.5382131232420938
-5214.731126308441,1892.0,-6340.0,-16832.0,14432.0,6283.0,-7261.0,0.5447587885194919,0.4291897763398319,-0.37253790961682076,-0.6166437416486688
-5214.746704816818,2748.0,-5000.0,-18432.0,14389.0,7155.0,-3765.0,0.020348154597123583,0.924260956410563,-0.37969830628497686,-0.03401225167263917
-5214.762295484543,760.0,-4592.0,-18124.0,15492.0,7379.0,-2779.0,-0.5465688154677453,0.5864684757232367,-0.1036805203243589,0.588699929205295
-5214.777898788452,-980.0,-4556.0,-16960.0,13163.0,7552.0,-9582.0,-0.3549893684630269,-0.18427138136618615,0.3781697707749106,0.8348737813344426
-5214.793543577194,1660.0,-2132.0,-19176.0,12342.0,8299.0,-1885.0,-0.17792097566134715,-0.749024023825896,0.601277031523452,0.21394641738931722
-5214.809159755707,-1708.0,-2064.0,-17800.0,13794.0,7529.0,-2086.0,0.2154729679846625,-0.7106737782351435,0.35472137906693557,-0.5680553883466981
-5214.824743032455,-1364.0,-1444.0,-17368.0,11011.0,7387.0,-6252.0,0.2215569293600406,-0.20396550317986284,-0.2709225091035267,-0.9142820104465497
-5214.840328454971,96.0,-84.0,-17424.0,12148.0,7659.0,2976.0,0.5271925321326763,0.35182465366968396,-0.6399093609901593,-0.43451519749130774
-5214.855937957764,-3164.0,2548.0,-15428.0,13451.0,6083.0,6753.0,0.4092722803836103,0.4753599446506268,-0.6213858805968462,0.4694770611289059
-5214.871534109116,-5236.0,4360.0,-13388.0,8688.0,5093.0,-1541.0,0.290024385253941,0.49380471713442275,-0.014677910416829,0.8196507282005316
-5214.887111186981,-3216.0,4164.0,-15020.0,5881.0,3766.0,-155.0,0.044831019364167564,0.3191150309045134,0.43384520634348483,0.8413882062914598
-5214.902671098709,-2880.0,3884.0,-15612.0,4505.0,3089.0,4188.0,-0.43291660129989396,0.23023378085148963,0.566056617944189,0.6626881074497741
-5214.918319940567,-4104.0,4492.0,-16040.0,3310.0,1722.0,6924.0,-0.8119226236891843,0.2866244461679184,0.456409383173252,0.22431797732686723
-5214.933965682983,-3208.0,5800.0,-15760.0,882.0,868.0,10425.0,-0.7908081118244747,0.4589667976163836,0.11180822802638564,-0.38919266321960666
-5214.949540376663,-3352.0,6264.0,-15568.0,-965.0,-323.0,13270.0,-0.19447727659479452,0.42036848349899986,-0.237952062531649,-0.8537258007732675
-5214.965145111084,-6748.0,2248.0,-14620.0,-4787.0,-2492.0,1928.0,0.06532377712010587,0.24702742639756034,0.0805755526729198,-0.9634406235267508
-5214.980770349503,-1880.0,3964.0,-20636.0,-4325.0,-3353.0,14640.0,0.8355090235848874,0.02585564695358496,0.0647318754032552,-0.5450375595641249
-5214.996425151825,-3452.0,2272.0,-17252.0,-5887.0,-3442.0,5732.0,0.9007783080693313,-0.42197980426439446,0.06399495116143677,-0.08022549925417381
-5215.012086868286,-2052.0,1036.0,-21208.0,-6195.0,-3945.0,4927.0,0.5770712357482588,-0.7198023491688648,-0.016800070439923487,0.3854751932824923
-5215.027719259262,-508.0,3524.0,-22948.0,-468.0,-4074.0,18135.0,-0.03598026766435614,-0.3321797466861724,0.47297632830536307,0.8152640241621661
-5215.043313741684,464.0,10432.0,-17924.0,-2406.0,-3015.0,13891.0,-0.6033015694525673,0.28815629012788213,0.44440329808198786,0.5962372660356419
-5215.058903932571,-2948.0,264.0,-12852.0,-19620.0,-1530.0,-30258.0,0.46114034142882576,0.06880115052251373,0.0802408758973448,0.8810093013293965
-5215.074486017227,6000.0,-14396.0,-18516.0,-24684.0,-71.0,-32768.0,0.8417768123221643,-0.3089655797770282,-0.43687534922694116,-0.07135823699909438
-5215.090140104294,14032.0,-17196.0,-20852.0,-1504.0,677.0,32767.0,0.33996457351791814,-0.5488963082373481,0.16666929739564135,0.7452236421785297
-5215.105733633041,-3072.0,-4900.0,-16460.0,13214.0,-1313.0,32767.0,-0.35116884205908794,0.12481447046272857,0.7882872145401496,0.4895968338567156
-5215.121339082718,-5428.0,6768.0,-18260.0,-4896.0,2420.0,2361.0,-0.5014622186862491,0.29629880402610886,0.42552215445082175,0.6925846937627865
-5215.136926651001,-9764.0,-1456.0,-25760.0,-8595.0,-594.0,-6988.0,0.11882397643174847,0.3225696258771383,0.08111252362040877,0.935548212332405
-5215.152535438538,-3316.0,-4680.0,-16928.0,-8666.0,237.0,-15752.0,0.8852749944153845,0.054878420788763344,-0.09706621688691523,0.45150270512349616
-5215.1681044101715,1416.0,-5768.0,-13088.0,-6499.0,-42.0,-10152.0,0.9066851568456524,-0.24781483387913836,-0.21223840239594888,-0.2673288144096049
-5215.183708190918,5820.0,-2324.0,-12936.0,-2968.0,829.0,1828.0,0.8593619263309762,-0.4746905297685773,-0.03636813594165619,-0.1866637061907599
-5215.199337482452,476.0,-2996.0,-15768.0,-2793.0,1286.0,3375.0,0.7455354529086491,-0.6262720967670617,0.22791219768620682,0.004022364121600094
-5215.214906454086,-828.0,-3664.0,-18488.0,-1229.0,311.0,2630.0,0.6502541822353842,-0.6339876276616488,0.3793867364085124,0.17690361978954555
-5215.23046708107,416.0,-3088.0,-17736.0,-253.0,938.0,4134.0,0.5074366013183773,-0.4933739137060957,0.61652682848177,0.3449419468243816
-5215.246039152145,-1116.0,-3528.0,-15484.0,157.0,-35.0,1742.0,0.4581637159773854,-0.38732271104604693,0.6868784993813845,0.41020123592855184
-5215.261612892151,-456.0,-3536.0,-14380.0,-3023.0,600.0,-3325.0,0.40811245132642193,-0.6779742515975504,0.45601063495755767,0.4072461688569772
-5215.277181386948,348.0,-4188.0,-15956.0,-4367.0,-720.0,3218.0,0.057659333288576774,-0.613672512012804,0.420180646578615,0.6659802350861389
-5215.292793273926,1904.0,-6036.0,-16180.0,2703.0,-1434.0,12281.0,-0.30790455913391146,-0.04466715924196697,0.8241148705468561,0.4733226251652705
-5215.308384656906,108.0,-2840.0,-16188.0,1853.0,31.0,8050.0,-0.5153315661401918,0.3919752920832455,0.75549502855658,0.10008001379917898
-5215.324022054672,-1840.0,-164.0,-14496.0,-3286.0,621.0,-2182.0,-0.4008948681682049,0.36880265965118997,0.7305659554437187,0.41175391638357545
-5215.339615345001,-1560.0,-2488.0,-16044.0,-6767.0,789.0,-8722.0,0.05767659020899643,0.015261966871858363,0.5327828521603689,0.8441462644310691
-5215.355234861374,1324.0,-4800.0,-17188.0,-4691.0,353.0,-3824.0,0.29102303731497997,-0.18753176445790026,0.17176967208598565,0.9222974622228683
-5215.370825767517,1456.0,-3880.0,-16328.0,-2358.0,784.0,776.0,0.17379907069440764,-0.2917546393131207,0.014295398188971827,0.9404619902237676
-5215.386438369751,-1768.0,-1960.0,-15456.0,-3080.0,190.0,-4033.0,0.3895740953498933,-0.3285747672210662,-0.3092883652671642,0.8028769231260166
-5215.402020454407,-828.0,-1116.0,-15376.0,-6823.0,915.0,-11534.0,0.666287081411042,-0.203491139137667,-0.7055236814398079,0.12995851786178064
-5215.417591333389,680.0,-2760.0,-16844.0,-5704.0,797.0,-8261.0,0.5314512092314471,-0.02678796780240649,-0.6540829244377847,-0.5376035202138888
-5215.433170080185,2100.0,-3060.0,-16832.0,-1976.0,978.0,-1094.0,0.5194022192419092,-0.009940392650453376,-0.5072796621895296,-0.6875971695472656
-5215.448740005493,-424.0,484.0,-15952.0,-3715.0,1550.0,-2968.0,0.3726852665769731,0.04223179233503634,-0.1988719675923159,-0.9054126729279757
-5215.464312791824,-1580.0,-3488.0,-16824.0,-2640.0,415.0,-4903.0,0.0019175093900173578,0.06687736385633544,0.0369090732939655,-0.9970764572839673
-5215.4799082279205,1624.0,-3644.0,-16624.0,856.0,12.0,2802.0,0.23317457360727606,0.07472750601456177,-0.05192785116855413,-0.9681678141422204
-5215.495509147644,1404.0,-1996.0,-16352.0,2238.0,976.0,4721.0,0.5641628696240513,0.16475178923378128,-0.22861167975948546,-0.7760887863893989
-5215.511081933975,-1160.0,-1584.0,-16592.0,2094.0,589.0,2539.0,0.6889419881225943,0.24699343408510704,-0.36301148508734854,-0.5766938895247726
-5215.52667760849,-20.0,-1780.0,-16412.0,1759.0,575.0,563.0,0.6877110247440441,0.3589165114673622,-0.4233446228842856,-0.46798698114002873
-5215.542273521423,672.0,-2900.0,-16724.0,1596.0,737.0,1927.0,0.724937262617221,0.4034270158775456,-0.49226417890151075,-0.2634171336485358
-5215.557863950729,404.0,-2820.0,-15516.0,2099.0,323.0,1064.0,0.6748088616768042,0.4876811060724958,-0.5461185065079106,-0.0924917068278663
-5215.57349896431,-112.0,-2348.0,-15100.0,66.0,612.0,-1950.0,0.6745479310059855,0.5804157600454082,-0.42115012733568463,-0.17531458727553786
-5215.58912396431,-32.0,-3392.0,-16392.0,-399.0,336.0,-3113.0,0.635598199605444,0.6523709907120567,-0.22919111184268223,-0.34336344212510883
-5215.604743242264,1084.0,-2900.0,-16852.0,689.0,509.0,607.0,0.6219294569515494,0.6910092165561444,-0.255173389280304,-0.2657001215912719
-5215.620338916779,144.0,-2272.0,-16216.0,421.0,296.0,-1569.0,0.5607310018009133,0.7481331008178744,-0.1527484815914768,-0.32022727624528585
-5215.635968923569,-652.0,-2252.0,-16016.0,-973.0,-106.0,-5901.0,0.4057545633393714,0.6882994625681316,0.22561747586779507,-0.557408143769664
-5215.651567220688,880.0,-2744.0,-15496.0,-2304.0,312.0,-7481.0,0.14357811928384676,0.39194511321350706,0.6589278477382827,-0.6257622898241465
-5215.667152881622,1224.0,-3316.0,-16028.0,-2278.0,271.0,-5008.0,-0.06098226627094202,0.08138600277643211,0.8635563431038605,-0.49389059926022305
-5215.682733297348,872.0,-2756.0,-16388.0,-1444.0,443.0,-3466.0,-0.22170543333970827,-0.14530467847291834,0.9004304600080757,-0.34490322980682453
-5215.69833779335,24.0,-2388.0,-16424.0,-1105.0,217.0,-3743.0,-0.3456698866069095,-0.38946903485938067,0.834926843573632,-0.1781105450528993
-5215.713981151581,280.0,-1976.0,-16028.0,-1009.0,144.0,-4288.0,-0.42637196632011726,-0.6246567096843857,0.6539603646091792,0.018622107904945576
-5215.729556322098,940.0,-1828.0,-16212.0,-1086.0,273.0,-4262.0,-0.4610370377069536,-0.7728577374301949,0.3825250982333474,0.20930914164996423
-5215.745181083679,336.0,-2524.0,-16760.0,-1231.0,357.0,-4300.0,-0.44434717816831365,-0.8134316500210258,0.051891004796742364,0.37174165709416096
-5215.76077747345,332.0,-3220.0,-16392.0,-1243.0,79.0,-3764.0,-0.388046800662946,-0.7418837778530493,-0.24449232154872064,0.4891335659689041
-5215.776363134384,1660.0,-3024.0,-16032.0,-234.0,190.0,-605.0,-0.37248430274340794,-0.7280735437903315,-0.2996537240814297,0.4912962494121809
-5215.7919981479645,2040.0,-2380.0,-16200.0,1129.0,405.0,3246.0,-0.41082616593466104,-0.8301615539228832,-0.05576871149293414,0.372751266383078
-5215.807590723038,388.0,-2440.0,-16340.0,1903.0,232.0,4072.0,-0.3760901837220938,-0.8618125432525923,0.27252234780454565,0.20387958197788963
-5215.8232316970825,-60.0,-2240.0,-16088.0,2166.0,-462.0,2480.0,-0.23629726286525196,-0.8314927232886593,0.4924453247863646,0.101395546137149
-5215.838816642761,608.0,-1432.0,-15720.0,220.0,986.0,427.0,-0.2649929224022757,-0.8227081383868863,0.5027926399057203,0.011385577074625435
-5215.854441165924,192.0,-3084.0,-16464.0,1208.0,-159.0,-195.0,-0.16979462092890638,-0.8541427029097544,0.49087093294582335,-0.02560775192251628
-5215.870012760162,1360.0,-1856.0,-16180.0,479.0,711.0,77.0,-0.16359609865711475,-0.8539778735568399,0.483682139495745,-0.10004846781599577
-5215.885590314865,-36.0,-3160.0,-16132.0,557.0,-123.0,-730.0,-0.12255090720609461,-0.8909417195827324,0.4248266505506514,-0.10356854943389883
-5215.901206731796,1276.0,-2280.0,-16196.0,25.0,147.0,-641.0,-0.13131706670807033,-0.9121774970741218,0.37262040214034703,-0.1088213110173956
-5215.916867494583,972.0,-3024.0,-16300.0,-306.0,350.0,-48.0,-0.16706121105954252,-0.9062021633496844,0.36743622534781467,-0.12601115506898997
-5215.93253159523,904.0,-3316.0,-16008.0,565.0,-33.0,1177.0,-0.10736784946690468,-0.8714495352723535,0.45190165265191085,-0.15758410041918236
-5215.9481019973755,1196.0,-2700.0,-15964.0,761.0,214.0,2231.0,-0.026407074000817505,-0.7713920265073366,0.596545517333237,-0.2199783026419662
-5215.963737726212,304.0,-3016.0,-15936.0,150.0,48.0,1520.0,0.010446494216685248,-0.6856484805254811,0.6898294318252554,-0.23219041086859066
-5215.9793519973755,592.0,-2772.0,-16044.0,-147.0,-23.0,863.0,0.020533940975809434,-0.6324880241147346,0.7423194826034919,-0.22022498125036763
-5215.995022773743,864.0,-2588.0,-16236.0,-199.0,129.0,801.0,0.01656700418995084,-0.5769838298669532,0.7885510081419069,-0.2121379315507133
-5216.010666370392,472.0,-2564.0,-16176.0,227.0,52.0,1237.0,0.04707510983799839,-0.4876707398138921,0.8417092622571266,-0.2269068121358972
-5216.026268959045,256.0,-2464.0,-16160.0,477.0,249.0,1266.0,0.07359307417702302,-0.3850656281718268,0.8809193011980857,-0.26512205907937564
-5216.041860342026,528.0,-2408.0,-16124.0,545.0,251.0,1195.0,0.09949198705765651,-0.28202743739170916,0.9040391569270918,-0.30540967864843044
-5216.057492494583,184.0,-2640.0,-16256.0,447.0,-90.0,747.0,0.13699987452064316,-0.22100895585452965,0.9071980981045387,-0.3307229756290398
-5216.073097229004,480.0,-2508.0,-16132.0,433.0,-96.0,-161.0,0.14803732954615637,-0.2311937792706351,0.8898166944010857,-0.364500529289778
-5216.0887179374695,584.0,-2592.0,-15748.0,170.0,22.0,-559.0,0.13166899626382172,-0.27139470251334463,0.8724050760400577,-0.3846005384423062
-5216.104316711426,556.0,-2808.0,-16168.0,83.0,33.0,-907.0,0.10025240973286274,-0.33736363005366654,0.8459721975156291,-0.4005824215942891
-5216.119922637939,1016.0,-2832.0,-16116.0,52.0,118.0,-591.0,0.0722237554003378,-0.37594643094361657,0.8267596721389495,-0.4122092366036033
-5216.135514497757,560.0,-3064.0,-16120.0,66.0,62.0,-746.0,0.042945845847909524,-0.4262589516956229,0.7987149523227557,-0.4225084441284156
-5216.151083469391,460.0,-2660.0,-15892.0,-137.0,58.0,-1152.0,-0.008634818786283612,-0.5024087479725751,0.7573770292748175,-0.4170023086171224
-5216.166661977768,560.0,-2768.0,-16064.0,-294.0,74.0,-1635.0,-0.08498247247097447,-0.6013166410809528,0.6892403004238755,-0.39515071150568165
-5216.182242631912,656.0,-2792.0,-16204.0,-182.0,49.0,-1225.0,-0.13879841039338678,-0.6681295522223348,0.62733032704403,-0.37522601654240517
-5216.197867155075,580.0,-2676.0,-16116.0,-150.0,132.0,-1350.0,-0.19742082137166017,-0.7308119263963133,0.5481715636941632,-0.35559370675385193
-5216.213502883911,500.0,-2728.0,-16248.0,-154.0,-52.0,-1223.0,-0.24111195476489886,-0.7838368134337196,0.4732192271893125,-0.3217583537281845
-5216.22909617424,556.0,-2796.0,-16128.0,-583.0,-15.0,-2086.0,-0.33282221954477204,-0.8433085685075999,0.341271203418095,-0.24818137354870032
-5216.2447209358215,644.0,-3108.0,-16232.0,-656.0,-32.0,-1693.0,-0.4114156263093206,-0.8647070291892096,0.2290368918254091,-0.17481715671591472
-5216.260317325592,952.0,-2908.0,-16092.0,-299.0,-52.0,-446.0,-0.43897580358799854,-0.8628634124642196,0.20164954778291522,-0.1486756038286669
-5216.275934457779,656.0,-2840.0,-16204.0,-202.0,31.0,-241.0,-0.4574039237995581,-0.85878376657727,0.1849206594259938,-0.13811749517559593
-5216.291541099548,756.0,-2736.0,-16144.0,-233.0,-27.0,-510.0,-0.47972274224197625,-0.8571638784162197,0.15045794459386866,-0.11179706178111784
-5216.307151556015,788.0,-2676.0,-16076.0,-110.0,72.0,395.0,-0.4844420193038428,-0.8462673213523246,0.177994258832768,-0.13215746125947758
-5216.322732925415,580.0,-2692.0,-16220.0,113.0,2.0,838.0,-0.464916644473085,-0.8358826672715239,0.23790002274897507,-0.1689859740421286
-5216.338311433792,416.0,-2788.0,-16188.0,150.0,100.0,672.0,-0.4450413984922622,-0.8251672306875926,0.2801984551668355,-0.20621838121161706
-5216.35387802124,304.0,-2704.0,-16116.0,167.0,56.0,418.0,-0.42625323682820015,-0.8199219545919695,0.3049516292253726,-0.23030560198214445
-5216.369448661804,436.0,-2720.0,-16156.0,219.0,50.0,150.0,-0.40851254621529715,-0.8229778802594673,0.30941439476265065,-0.24512780442453153
-5216.38502907753,652.0,-2372.0,-16040.0,187.0,68.0,66.0,-0.3951706335380865,-0.8264032925378582,0.3077556426959216,-0.2572629644167905
-5216.400639533997,804.0,-2624.0,-16040.0,197.0,125.0,175.0,-0.37999954565771826,-0.8255545800161836,0.3116212736361066,-0.27740252798350806
-5216.416237354279,792.0,-2532.0,-15948.0,240.0,160.0,-127.0,-0.3697323348565432,-0.8329110097071649,0.29132580285867943,-0.29100949650976327
-5216.431846380234,540.0,-3164.0,-16124.0,-222.0,178.0,-180.0,-0.3945394141315208,-0.8255866278284272,0.2780988043302803,-0.29224377782548394
-5216.447454929352,532.0,-2912.0,-16188.0,60.0,110.0,571.0,-0.3775747272697636,-0.8100754298026132,0.31359105850735514,-0.32074253129498104
-5216.463081121445,500.0,-2564.0,-16364.0,-140.0,230.0,496.0,-0.3791790640702098,-0.7846438567431411,0.3446633408172518,-0.34894761346480063
-5216.478684425354,312.0,-2680.0,-16288.0,-15.0,55.0,-74.0,-0.3838644704765343,-0.7848150583512213,0.33831637685502963,-0.3496504277741193
-5216.494318008423,748.0,-2332.0,-16044.0,-151.0,101.0,-286.0,-0.4055029455155544,-0.7849239774652167,0.31990778160183425,-0.34222904910160196
-5216.509902238846,476.0,-2576.0,-16224.0,-159.0,168.0,-84.0,-0.4232583462295056,-0.7765998464718552,0.3129791341363255,-0.346105637634279
-5216.5255215168,556.0,-2960.0,-16204.0,27.0,138.0,63.0,-0.42301588800589146,-0.771791889824857,0.3114055097493083,-0.3583593807798762
-5216.541127204895,996.0,-2400.0,-15908.0,212.0,253.0,505.0,-0.3990303690167571,-0.7570893243412388,0.3290899578527102,-0.3991119131413874
-5216.556746959686,432.0,-2552.0,-16080.0,-32.0,300.0,-3.0,-0.4095047472967536,-0.7455159514635057,0.31955258094183725,-0.4176098371306598
-5216.572336196899,200.0,-2776.0,-16152.0,-148.0,55.0,-1125.0,-0.4592033401629764,-0.7660079964682569,0.24867579607143134,-0.37486582956851744
-5216.587945222855,844.0,-2772.0,-16100.0,-336.0,184.0,-1267.0,-0.5234022597802755,-0.7690898493309426,0.16658413515227802,-0.32680361691477144
-5216.603549003601,868.0,-3020.0,-16048.0,-79.0,160.0,-208.0,-0.5365737073586444,-0.7639154457107377,0.14760238575203197,-0.326703817082496
-5216.61913561821,680.0,-2776.0,-16244.0,129.0,134.0,197.0,-0.5237012669299387,-0.7635781291727995,0.1508085857504506,-0.3463267158751889
-5216.634700298309,396.0,-2796.0,-16348.0,31.0,187.0,-322.0,-0.5333175369746173,-0.7633728773352547,0.11987166014607879,-0.34418750703365864
-5216.65026640892,256.0,-2632.0,-16092.0,-60.0,127.0,-870.0,-0.5628895635688754,-0.7638162138789644,0.05769055829326859,-0.3105027055029566
-5216.66583943367,748.0,-2508.0,-16020.0,45.0,230.0,-814.0,-0.581289071160841,-0.7620237043536545,-0.00902064409169601,-0.2852043438173262
-5216.681387901306,532.0,-2440.0,-15996.0,-194.0,140.0,-1738.0,-0.6297740409654128,-0.73893797256191,-0.12539728434786865,-0.2040363965334822
-5216.696971416473,284.0,-2928.0,-16168.0,-557.0,137.0,-2322.0,-0.6904392733198622,-0.6663372193307762,-0.26702741469530844,-0.08935703549922282
-5216.712547302246,1080.0,-2824.0,-16216.0,-502.0,165.0,-1028.0,-0.7199284041579065,-0.607978566144588,-0.3312385470396643,-0.04843739206927544
-5216.728142499924,968.0,-2832.0,-16180.0,155.0,182.0,101.0,-0.7056075575437173,-0.6199075535339577,-0.33799656688116264,-0.05992429044453311
-5216.743773937225,404.0,-2800.0,-16144.0,124.0,210.0,-655.0,-0.6946073902624873,-0.6061901246122571,-0.3864111807573458,-0.02721223256233475
-5216.75937628746,312.0,-2712.0,-16248.0,-26.0,130.0,-1600.0,-0.6884383709292446,-0.5452034948143393,-0.47437307776669696,0.061448692131482754
-5216.774962902069,728.0,-3000.0,-16028.0,-343.0,168.0,-1771.0,-0.6796275186860287,-0.4467810076867259,-0.5637316082156792,0.1438743928351031
-5216.790586471558,1112.0,-2776.0,-16004.0,-145.0,239.0,-765.0,-0.6620091346169853,-0.4026448988472584,-0.6082105992532999,0.17233936889722323
-5216.806201219559,660.0,-2660.0,-16124.0,-47.0,171.0,-628.0,-0.6438538080761609,-0.368664791726141,-0.6400252361201706,0.19976546822878818
-5216.821826696396,512.0,-2316.0,-16348.0,-189.0,37.0,-1426.0,-0.6179124560037892,-0.2769506865759265,-0.6860907641604639,0.26601123520294956
-5216.837411165237,932.0,-2872.0,-15956.0,-553.0,105.0,-1400.0,-0.587178830319444,-0.16436860108233162,-0.7323146349826039,0.30318189192829864
-5216.85299372673,1268.0,-2980.0,-16124.0,-91.0,136.0,-59.0,-0.5779246334430213,-0.15951939508962024,-0.742666192859355,0.29833472247424137
-5216.868583917618,816.0,-2784.0,-16180.0,167.0,236.0,541.0,-0.573327442767463,-0.20885576056194113,-0.7418399755592597,0.27811574085630514
-5216.884152412415,340.0,-2800.0,-16104.0,50.0,184.0,-30.0,-0.5594492492783427,-0.2138700812284254,-0.7504781460665844,0.279389831800851
-5216.899809837341,744.0,-2624.0,-15904.0,98.0,210.0,-234.0,-0.5376893110451272,-0.2083837303167429,-0.7625938003087775,0.2931162251696615
-5216.915463924408,880.0,-2548.0,-15984.0,494.0,326.0,19.0,-0.5065706713109852,-0.2408633263793006,-0.7640853834267226,0.3186605400840755
-5216.931094408035,612.0,-2676.0,-16436.0,223.0,290.0,-637.0,-0.46363153740617796,-0.21589207678344793,-0.7826749904466261,0.35476226974396186
-5216.946699857712,868.0,-2880.0,-16192.0,8.0,163.0,-656.0,-0.43104574564733594,-0.17616318528668554,-0.8001761385335684,0.37800032358516406
-5216.9623074531555,1272.0,-3128.0,-16124.0,98.0,399.0,928.0,-0.4303658988015725,-0.2568055842093586,-0.7947612524681473,0.3423311797702135
-5216.977924585342,1004.0,-2836.0,-16212.0,732.0,309.0,2015.0,-0.444611800985904,-0.42576611519385055,-0.7266593707556077,0.3049749505613078
-5216.993519306183,456.0,-2600.0,-16176.0,567.0,292.0,777.0,-0.42382453696785743,-0.502937529241573,-0.6915364585986439,0.2986702696506794
-5217.009180545807,480.0,-2660.0,-15928.0,186.0,179.0,-218.0,-0.39874450579240084,-0.5011790000502296,-0.7027211846953263,0.3098473262583094
-5217.024778842926,1092.0,-2856.0,-15892.0,-215.0,133.0,-272.0,-0.3921749313806313,-0.4804263164882111,-0.7248270939530564,0.30002510143941874
-5217.040364027023,1108.0,-3084.0,-15920.0,216.0,197.0,678.0,-0.3873460867747913,-0.5348115375898246,-0.6961941060528702,0.28151979507364705
-5217.055995225906,1012.0,-2860.0,-16308.0,493.0,260.0,1258.0,-0.37647890381014537,-0.6298389140243089,-0.6297719460687923,0.2548604977459566
-5217.071577072144,688.0,-2724.0,-16248.0,662.0,226.0,1543.0,-0.3578298768442484,-0.7335256203196874,-0.5319986533709159,0.22555570572206768
-5217.087136507034,424.0,-2732.0,-16016.0,416.0,134.0,275.0,-0.3297788301741799,-0.7612390215249684,-0.5099691035539798,0.22736004199728757
-5217.102778911591,744.0,-2956.0,-16116.0,-8.0,163.0,-274.0,-0.31722075212145273,-0.7518469784604496,-0.5329046388863182,0.2238520968336789
-5217.118354797363,844.0,-3040.0,-16108.0,288.0,77.0,309.0,-0.30029167835568843,-0.7752342425134736,-0.5088683511588604,0.223360198633837
-5217.133985996246,832.0,-3032.0,-15992.0,-18.0,153.0,25.0,-0.29489911882440517,-0.7788667305229473,-0.5115746017086178,0.21140613209590967
-5217.149563550949,732.0,-3152.0,-16116.0,126.0,-19.0,320.0,-0.292674895140759,-0.7957688484011827,-0.48687472310778457,0.20987222223848323
-5217.165192127228,1200.0,-2760.0,-15808.0,-43.0,234.0,410.0,-0.2927031492957466,-0.8157649242410345,-0.46484342252655386,0.18103327678681327
-5217.180801391602,1020.0,-2984.0,-16116.0,-98.0,220.0,599.0,-0.2994595607569912,-0.839790383864378,-0.4287578365945235,0.145749100165093
-5217.196398735046,236.0,-3156.0,-16080.0,2.0,73.0,-120.0,-0.2947346723319367,-0.8363015210746686,-0.4394686464251143,0.14352194112002273
-5217.212017774582,868.0,-2676.0,-15968.0,-126.0,136.0,-353.0,-0.2938221324695036,-0.8208143515348518,-0.47008589275363755,0.13766484017173727
-5217.22758936882,784.0,-2868.0,-16056.0,-59.0,170.0,-348.0,-0.2864285157545956,-0.8066752055388963,-0.4998550707570826,0.13182839743329575
-5217.243167877197,568.0,-3068.0,-16168.0,-102.0,113.0,-621.0,-0.28079717912395724,-0.7772001149713033,-0.5467892142710434,0.13466432579371676
-5217.258786678314,748.0,-2940.0,-15924.0,-397.0,162.0,-1188.0,-0.2840119496761329,-0.7084644647898704,-0.632247136721666,0.13296192191157222
-5217.274393320084,864.0,-2992.0,-16072.0,-160.0,66.0,-420.0,-0.2848632192623801,-0.6816147310132132,-0.6612703134400367,0.1302915090870222
-5217.290014743805,772.0,-2992.0,-15924.0,-73.0,97.0,-427.0,-0.2782391843694569,-0.6558227172770255,-0.6894784967592956,0.13076284751924072
-5217.305627346039,596.0,-2740.0,-16132.0,-59.0,19.0,-523.0,-0.2739101398248978,-0.6225309442207189,-0.7198717338040219,0.13861149179904406
-5217.3212196826935,760.0,-2920.0,-16112.0,-427.0,145.0,-1467.0,-0.2675588193196902,-0.517339573126288,-0.8011349256392482,0.13767670537443813
-5217.336805343628,1004.0,-3124.0,-16068.0,-375.0,127.0,-921.0,-0.2632311579006459,-0.44404751256151287,-0.8470429349775805,0.12668634655235922
-5217.35239815712,956.0,-2976.0,-16048.0,-8.0,135.0,-229.0,-0.250651577430026,-0.4283293008282583,-0.8589654721111478,0.12604013053265295
-5217.368053436279,740.0,-2648.0,-16236.0,-30.0,197.0,-608.0,-0.22964856787555757,-0.38368016328652405,-0.8850367087703613,0.1294646349473804
-5217.383651971817,404.0,-2960.0,-16168.0,-152.0,96.0,-1191.0,-0.21238233785845825,-0.2881467444358952,-0.9235477606740604,0.13756718355297867
-5217.399267673492,940.0,-3076.0,-15996.0,-391.0,208.0,-1479.0,-0.18570145432379495,-0.16271504078919868,-0.9606784039990547,0.12702672731683767
-5217.414848089218,1184.0,-3308.0,-15908.0,-32.0,157.0,-133.0,-0.1711715690180057,-0.15273765580525972,-0.9653720238712102,0.1242109414899975
-5217.4304349422455,872.0,-2840.0,-16240.0,162.0,254.0,182.0,-0.14919892177824576,-0.17314153308316033,-0.9645905885826036,0.1316308766197671
-5217.446018695831,856.0,-2736.0,-16152.0,123.0,135.0,-186.0,-0.1334929593913079,-0.16057647494703906,-0.9675543514809927,0.1422441647897343
-5217.461652517319,936.0,-3040.0,-15936.0,-85.0,297.0,74.0,-0.11017158413482743,-0.16943169711441325,-0.9707115313289418,0.12990090456641595
-5217.477375507355,716.0,-2928.0,-15996.0,317.0,143.0,536.0,-0.09898129821821779,-0.21914298134732443,-0.9591294972162533,0.1491632122841941
-5217.493003368378,832.0,-2728.0,-16064.0,148.0,311.0,-26.0,-0.06945967368113161,-0.22217372046143055,-0.9599998225685278,0.1556101935505254
-5217.510194778442,744.0,-2768.0,-16096.0,53.0,189.0,-624.0,-0.043786552251842546,-0.1724862399392847,-0.9709893495284025,0.1597213760769486
-5217.528179168701,948.0,-3268.0,-15716.0,-247.0,107.0,-947.0,-0.02488026390314349,-0.09242241817470742,-0.9855010364424651,0.14009559685327802
-5217.546182870865,1472.0,-3176.0,-15916.0,-160.0,204.0,611.0,-0.015787683519944806,-0.14683633421094314,-0.981357590752638,0.12299235373283939
-5217.564176559448,936.0,-3104.0,-16244.0,190.0,191.0,1244.0,-0.010003998816980175,-0.25409316717179786,-0.9577841077757127,0.13411258440786375
-5217.582185506821,948.0,-2396.0,-16192.0,-95.0,147.0,167.0,-0.001572960385433254,-0.26961247435562913,-0.9551460987843259,0.12248497640340998
-5217.600250959396,496.0,-3292.0,-16140.0,-536.0,8.0,-420.0,-0.008742859946556453,-0.2341765639959394,-0.9690722636265537,0.07735533042213404
-5217.615983009338,1056.0,-3296.0,-15928.0,-101.0,50.0,765.0,-0.011399265166187491,-0.2984313388448953,-0.951999367413657,0.06712672487848098
-5217.631583452225,1140.0,-2720.0,-15960.0,71.0,488.0,1226.0,0.023978617024730316,-0.4005394234022374,-0.9140815348932968,0.058720897415648295
-5217.6472244262695,344.0,-2812.0,-16376.0,84.0,22.0,-54.0,0.029203933062289356,-0.3961351283662533,-0.9154417196265243,0.06473444473522166
-5217.662833690643,892.0,-2680.0,-15856.0,-61.0,82.0,-399.0,0.03620334617990836,-0.3646177702661064,-0.9287674311490207,0.05598444577201472
-5217.678464174271,856.0,-3080.0,-16356.0,-238.0,76.0,-468.0,0.037269293360711934,-0.3274457920804755,-0.9435582446862304,0.03298623812778023
-5217.694063901901,840.0,-3268.0,-16272.0,-12.0,44.0,-119.0,0.0410021165425051,-0.31779527686299114,-0.9467762501027366,0.030654863953537993
-5217.709673643112,1100.0,-2940.0,-16084.0,246.0,63.0,226.0,0.05253499821530453,-0.3356100578750063,-0.9391881123674228,0.05031553043912244
-5217.725361585617,776.0,-3016.0,-16020.0,-253.0,30.0,506.0,0.04532170123724257,-0.37792562613826763,-0.9241959092057781,0.03130632383825178
-5217.740949869156,996.0,-2576.0,-16364.0,81.0,72.0,556.0,0.05234147761813194,-0.42213279539959814,-0.9042270010655521,0.03791837698095637
-5217.75653719902,936.0,-2840.0,-16180.0,-100.0,-92.0,-31.0,0.0416075532871596,-0.41981223435914755,-0.9060347836054857,0.03357782436068286
-5217.772127628326,608.0,-3056.0,-16056.0,-219.0,-138.0,-560.0,0.024382832890964243,-0.3753842380952729,-0.9263419811486675,0.019562341664645103
-5217.787774324417,768.0,-2932.0,-16104.0,35.0,-55.0,34.0,0.02118519676784567,-0.37795635148729834,-0.9252554312694313,0.024547315835667365
-5217.803423881531,712.0,-2952.0,-15900.0,74.0,-89.0,-31.0,0.016682353768967793,-0.3751018912881043,-0.9262216648556258,0.03367042881946578
-5217.8190150260925,860.0,-2980.0,-16072.0,35.0,-239.0,-361.0,-0.00019874141766979597,-0.3449126641295356,-0.9376032241152703,0.04399328077747077
-5217.83465886116,1356.0,-2684.0,-15852.0,37.0,-43.0,42.0,-0.0024527918917773327,-0.34816414620260133,-0.9361798053615408,0.048405404080299294
-5217.850261688232,740.0,-3156.0,-16380.0,13.0,-166.0,73.0,-0.015646974003777483,-0.353370783350461,-0.9337543695889811,0.05465381004368444
-5217.865859746933,708.0,-3044.0,-16236.0,128.0,-243.0,-101.0,-0.03070348618880958,-0.3440270342197289,-0.9356294054527388,0.07280323697463965
-5217.881450176239,908.0,-2868.0,-15960.0,91.0,-126.0,92.0,-0.0385126248537247,-0.3509204912819257,-0.93185568159862,0.08376499983704191
-5217.897042274475,660.0,-2888.0,-16048.0,162.0,-287.0,-455.0,-0.05317485297510995,-0.3119725540294201,-0.9425361820079581,0.10710324994740976
-5217.91285943985,848.0,-2668.0,-16096.0,-86.0,-286.0,-565.0,-0.07333766002671244,-0.262004432457307,-0.9559500566406334,0.11015786037909814
-5217.928535223007,636.0,-3384.0,-16028.0,-730.0,-314.0,-1620.0,-0.09910543556719553,-0.11769203397837913,-0.9858887478225106,0.06595509605807853
-5217.944158792496,804.0,-3684.0,-16088.0,-539.0,-499.0,-30.0,-0.14679450710221106,-0.10733075269832316,-0.9830085248311845,0.025014442209428084
-5217.959789514542,1440.0,-3124.0,-16308.0,-108.0,-92.0,1895.0,-0.15738180497409288,-0.2646843629228404,-0.9513766227220122,-0.007461717314703438
-5217.975375890732,352.0,-2988.0,-16176.0,28.0,-390.0,1316.0,-0.18663676245766603,-0.37192395748479384,-0.9091998648854392,-0.01396045989460658
-5217.992748260498,492.0,-2684.0,-15824.0,-509.0,-405.0,-122.0,-0.23475448678063582,-0.3538692571599615,-0.9045125909797109,-0.03903655380009233
-5218.008385181427,1272.0,-2992.0,-15932.0,-492.0,-129.0,912.0,-0.2556739958429915,-0.4145223625887019,-0.8685174994303201,-0.09208350529200476
-5218.024025678635,428.0,-3116.0,-15968.0,132.0,-229.0,1259.0,-0.2562587822632808,-0.511547727066966,-0.8138981184475759,-0.10109506532495541
-5218.039605617523,416.0,-2724.0,-15984.0,164.0,-182.0,808.0,-0.2537726649145593,-0.5726988408899664,-0.7731879946813284,-0.09897371906783135
-5218.055282831192,408.0,-2572.0,-15920.0,-123.0,-95.0,172.0,-0.2645123006476681,-0.5823304289916924,-0.7613489253814091,-0.10617122066267685
-5218.070869684219,604.0,-2960.0,-16128.0,-41.0,-372.0,158.0,-0.28939176983319354,-0.595008183398479,-0.7439670336047147,-0.09343831200880826
-5218.08646607399,1044.0,-2844.0,-16244.0,-142.0,-259.0,328.0,-0.3103910903503381,-0.6144358941072374,-0.7187884504731322,-0.09730912870949851
-5218.102091550827,748.0,-3232.0,-16276.0,-39.0,-376.0,1079.0,-0.32501135125000025,-0.6809435564166836,-0.6472889135785955,-0.10816911246510931
-5218.1177134513855,772.0,-3332.0,-16184.0,173.0,-405.0,1557.0,-0.3194596229426638,-0.7700662700114801,-0.5396328121476041,-0.11721739270946929
-5218.1333911418915,744.0,-3316.0,-15900.0,260.0,-317.0,2290.0,-0.28734158735293597,-0.8707259601707837,-0.37202534988487507,-0.1444584836733305
-5218.14900302887,436.0,-2984.0,-15996.0,203.0,-376.0,2531.0,-0.24583898661711567,-0.9395371290049397,-0.16867957131472386,-0.1684647681306268
-5218.164614439011,236.0,-2972.0,-15936.0,-246.0,-324.0,1612.0,-0.2442458460699394,-0.9528724062753451,-0.025672004511130976,-0.17809854637529632
-5218.1802389621735,348.0,-2980.0,-15972.0,177.0,-378.0,1763.0,-0.20020257930769614,-0.9546944407960457,0.12470585368036226,-0.1814549586247872
-5218.195855855942,472.0,-2824.0,-15892.0,437.0,-402.0,1797.0,-0.12893302451397448,-0.9365113160062971,0.2708854560613201,-0.18150454505681926
-5218.21152472496,308.0,-2748.0,-16020.0,533.0,-338.0,1471.0,-0.053299580908989175,-0.9043460166161882,0.38278606425438716,-0.18108634934195156
-5218.227122306824,28.0,-2812.0,-16196.0,190.0,-370.0,419.0,-0.019078931865377544,-0.8959203704611376,0.4140643154243209,-0.15972922977289686
-5218.242703199387,492.0,-2872.0,-16284.0,-50.0,-2.0,414.0,-0.016922840673332662,-0.8803489237916111,0.44688142017653437,-0.15810245457772212
-5218.2583129405975,540.0,-3372.0,-16056.0,301.0,-194.0,1505.0,0.03445696061141772,-0.8173688686821738,0.5536544705101609,-0.15552355981895397
-5218.273951768875,332.0,-3120.0,-16168.0,728.0,-205.0,2159.0,0.1232797364185503,-0.6998522005270278,0.6837042311608349,-0.16600460324587715
-5218.289545297623,-116.0,-3072.0,-16356.0,633.0,-214.0,1360.0,0.19258329741133987,-0.6097444209689826,0.7488336151015081,-0.17427458664240772
-5218.305224180222,-84.0,-2900.0,-16016.0,296.0,-211.0,415.0,0.22792382131890607,-0.5802520320043465,0.7620541615824419,-0.1750193299184288
-5218.3208656311035,208.0,-3208.0,-15800.0,-199.0,-28.0,-21.0,0.2190786191131322,-0.5860082494701335,0.7634146035888677,-0.16061454861775362
-5218.336518287659,4.0,-3476.0,-15980.0,134.0,-73.0,642.0,0.23911698201491088,-0.540874176295007,0.7917227776177146,-0.15314449951130968
-5218.352117538452,500.0,-3164.0,-15876.0,586.0,-35.0,1637.0,0.2874852476620961,-0.411386301323622,0.8507616593351738,-0.15594275380791228
-5218.367738246918,136.0,-3040.0,-16100.0,653.0,-72.0,1086.0,0.3287478988985526,-0.3135156143252753,0.8738116458794045,-0.17345312355088505
-5218.383334875107,-48.0,-3228.0,-15740.0,163.0,-245.0,-24.0,0.3511175610459957,-0.31434244336127465,0.8634820943550061,-0.17973302243902595
-5218.398936748505,484.0,-3248.0,-15700.0,-123.0,41.0,-32.0,0.34383315509223344,-0.31992987939721623,0.8658350501312402,-0.17249144817188986
-5218.414616584778,384.0,-3636.0,-16216.0,-285.0,178.0,-127.0,0.32005799907708665,-0.3353037038751429,0.8715858913140315,-0.15960055594109673
-5218.430223941803,180.0,-3592.0,-16444.0,308.0,-91.0,1509.0,0.35352231429299286,-0.21136440881983873,0.9008873015760052,-0.1369274619653427
-5218.445802927017,188.0,-3564.0,-15844.0,-24.0,163.0,801.0,0.3486457458989284,-0.14687585881814158,0.9187481950616286,-0.11302822671356375
-5218.461387634277,216.0,-3348.0,-15656.0,59.0,-134.0,1284.0,0.3701610553577661,-0.04323832814008593,0.9248029846802619,-0.07648973527575191
-5218.476970672607,332.0,-3096.0,-15832.0,-328.0,128.0,615.0,0.3617024905926598,-0.0033792527692631416,0.9317851387396558,-0.030599741399376084
-5218.492535829544,-232.0,-3392.0,-16256.0,-70.0,-187.0,311.0,0.37722482526796974,0.0191541925914083,0.9258005504397077,-0.015095989972675293
-5218.508125066757,592.0,-2652.0,-16164.0,-27.0,-75.0,580.0,0.38329559491909415,0.06491704770189953,0.921322085097608,0.005989936951499318
-5218.523760318756,4.0,-3028.0,-16148.0,-121.0,12.0,-220.0,0.382745617017373,0.04314148412800057,0.9228081991664284,0.008344612180175565
-5218.539381980896,-176.0,-3172.0,-16072.0,-66.0,-350.0,-1171.0,0.40941393531096215,-0.05283826838631746,0.9104257605110438,-0.026707331671549782
-5218.554967880249,840.0,-2864.0,-16016.0,-401.0,-175.0,-1362.0,0.4147780606865963,-0.17447053577709898,0.892031028206784,-0.0424244886246822
-5218.570643186569,368.0,-3508.0,-15900.0,-423.0,-468.0,-1098.0,0.4377466819413702,-0.2753766109189032,0.8548617847090727,-0.04191531524584611
-5218.586247444153,596.0,-3420.0,-16224.0,192.0,-229.0,253.0,0.4598134258333004,-0.24994157354135266,0.851123837099464,-0.0410978972722634
-5218.601850032806,736.0,-2600.0,-16436.0,1629.0,-50.0,3104.0,0.48760282411005207,0.04372361459834929,0.8712719040747339,-0.03488553591883391
-5218.617514848709,-796.0,-2024.0,-16620.0,1842.0,292.0,286.0,0.45285491287587637,0.14279695377331725,0.8654960845013566,-0.15952424765553444
-5218.633155107498,-752.0,-1296.0,-16220.0,851.0,63.0,-4523.0,0.3472788390268549,-0.15245494026745124,0.8468899809089533,-0.3727361793390076
-5218.64875793457,444.0,-2632.0,-16336.0,-147.0,734.0,-6735.0,0.061797745560761744,-0.5429725009380746,0.6752277461585372,-0.4954083090606393
-5218.664328575134,1012.0,-4164.0,-16328.0,291.0,957.0,-3310.0,-0.11861675943517797,-0.6655300019813103,0.48934095853315773,-0.5509494597017992
-5218.679968118668,392.0,-3860.0,-17124.0,3493.0,808.0,1074.0,0.09648104157720702,-0.5866315063293654,0.35701233003522587,-0.72048392112575
-5218.695566892624,876.0,-1532.0,-16892.0,5312.0,1227.0,2997.0,0.4558006985418808,-0.32660139375163966,0.1642870047123139,-0.8115337533897625
-5218.711205244064,-1548.0,-2344.0,-16680.0,4574.0,1222.0,-3408.0,0.2916795847867014,-0.09556876470103642,-0.18535914278808727,-0.9335050183137962
-5218.726809501648,-424.0,-2228.0,-16492.0,4041.0,1326.0,-6316.0,-0.13968939741628522,0.18096617102960968,-0.4445298073928377,-0.8661012455432932
-5218.742438554764,288.0,-3360.0,-16724.0,3800.0,1786.0,-6747.0,-0.5261758310581225,0.4367258883786203,-0.5317864273516941,-0.49961253878852985
-5218.75803732872,828.0,-4260.0,-17808.0,5048.0,2138.0,-4849.0,-0.6999861901921067,0.44104617021096126,-0.5607298000060864,0.03285879893906178
-5218.773635864258,1092.0,-3972.0,-18412.0,6476.0,3025.0,-1560.0,-0.6713788373365122,0.09550266866737149,-0.5622564153974422,0.47328365743864675
-5218.789242744446,-60.0,-3656.0,-20028.0,7668.0,3503.0,-2560.0,-0.3627293645805501,-0.2955097611152824,-0.3406900404448006,0.8154947489090897
-5218.804891824722,-332.0,-1976.0,-22608.0,8980.0,3965.0,-2837.0,0.14083404560539386,-0.5804977714997602,0.07423506890538938,0.7985469700818119
-5218.820529222488,308.0,-1768.0,-25852.0,7516.0,5868.0,-9395.0,0.7401617713932548,-0.6230653465826252,0.1262803165953221,0.21909679983162125
-5218.836129188538,-564.0,-3672.0,-30984.0,8691.0,6565.0,-5853.0,0.8511338319794037,-0.17129723096066482,0.2707452324289653,-0.41584309281536747
-5218.851771116257,-856.0,-2956.0,-29548.0,13983.0,8393.0,-1012.0,0.4737620029110032,0.6590713294233247,0.21351816011842023,-0.543676873362819
-5218.867384433746,-1652.0,-180.0,-25280.0,15312.0,8077.0,2776.0,-0.23294857578924144,0.9448796295255427,-0.18522438159458726,-0.13648946922140204
-5218.882975578308,-5108.0,224.0,-20392.0,14395.0,7067.0,-5746.0,-0.7668874830910254,0.46298313253542583,-0.014853712777362511,0.44419542375256865
-5218.8986275196075,-2940.0,-220.0,-15408.0,10300.0,5247.0,-11712.0,-0.4127076295584283,-0.23677005003629134,0.2894175026890661,0.8305720107536128
-5218.914294719696,1132.0,1344.0,-12444.0,9481.0,59.0,-7779.0,0.2358908815504496,-0.5318718289211509,0.555684299302451,0.5938710374400874
-5218.9300327301025,-436.0,12108.0,-17420.0,19523.0,6496.0,8931.0,0.16557737647575815,-0.015282858385903972,0.9625546108671896,-0.2141008821496883
-5218.945631980896,-6128.0,18432.0,-6700.0,89.0,1310.0,9087.0,0.1759511295371129,0.6039702942207661,0.7740335334933071,-0.07164616347970515
-5218.961229562759,-10088.0,11712.0,-7464.0,-9450.0,-2704.0,-1161.0,0.6429768361273129,0.27502618736755546,0.6452358453445602,0.3075907806620146
-5218.976890325546,-3672.0,9340.0,-9788.0,-14037.0,-4616.0,2888.0,0.7038865792096068,-0.13681693200672632,-0.036108723881187806,0.6960754059615502
-5218.992548942566,-3564.0,5888.0,-11772.0,-14408.0,-6619.0,12440.0,-0.12097123940268485,-0.3257834921159986,-0.5778833460156982,0.7384320645122234
-5219.008184909821,-4944.0,5964.0,-12252.0,-17185.0,-7969.0,8704.0,-0.7573861766128683,-0.03370201033851947,-0.6520900211584576,0.002993038664215529
-5219.0238399505615,-4964.0,2940.0,-14636.0,-21524.0,-9886.0,5438.0,-0.5905205668276999,0.46147910676529813,0.004862352385445182,-0.6620414274815997
-5219.039443492889,-1148.0,-3188.0,-17484.0,-20193.0,-11317.0,11014.0,0.35253228289609734,0.348190847383508,0.5350671126089787,-0.6842421415834536
-5219.055082321167,-836.0,-6048.0,-18800.0,-20075.0,-11349.0,11798.0,0.8887328929456059,-0.16023727000102123,0.4152415621644992,0.10978300119025852
-5219.070680856705,-404.0,-8800.0,-19844.0,-19190.0,-11444.0,13648.0,0.3625608139098654,-0.41883296994677965,-0.18649067716854195,0.8113875934667689
-5219.086287021637,1560.0,-8512.0,-20052.0,-17556.0,-10400.0,19624.0,-0.6895505533635503,-0.20916970856623518,-0.39078893085773475,0.5727583075725803
-5219.101884365082,256.0,-8264.0,-19820.0,-16697.0,-9751.0,17445.0,-0.8855543324501337,0.277108497309486,-0.1290674969667895,-0.34977991112184315
-5219.117532253265,2364.0,-7508.0,-19696.0,-16415.0,-7701.0,16633.0,-0.028537554306754077,0.47432693043555524,0.23847667030394828,-0.8469524477670013
-5219.133160352707,-552.0,-7944.0,-20496.0,-15325.0,-7610.0,16671.0,0.8633914083821863,0.12853431890418412,0.3028582536996012,-0.38250631754480896
-5219.148743391037,-3020.0,-7012.0,-20320.0,-15424.0,-6785.0,9146.0,0.7803049843453524,-0.5224595698322031,0.10477667163400889,0.32738658857358194
-5219.164318561554,-2960.0,-7784.0,-18540.0,-15936.0,-6666.0,2568.0,0.02262367591783748,-0.7646737267520481,-0.3770205198849912,0.5221281341670354
-5219.179949522018,-1860.0,-9044.0,-16584.0,-16732.0,-6584.0,-7688.0,-0.4853944811340986,-0.1238104792545704,-0.8420615012939434,0.19998897707099514
-5219.195560216904,2124.0,-10592.0,-17764.0,-15626.0,-4876.0,-3910.0,-0.5313180631261667,0.5125167524017863,-0.5350214952787076,-0.4108280587948206
-5219.211191177368,4232.0,-9300.0,-17084.0,-10606.0,-4610.0,4809.0,-0.06727001267421168,0.4149375320480403,-0.10540155572383048,-0.9012170115702929
-5219.226806879044,2648.0,-6488.0,-16744.0,-8531.0,-3226.0,7185.0,0.5458468135799213,0.10218732280513507,0.22788249988505993,-0.7997990831507007
-5219.242433547974,1216.0,-5804.0,-16572.0,-6317.0,-2835.0,10409.0,0.9358252984794513,-0.12812237707366975,0.2981392236620275,-0.13758150505442845
-5219.258042812347,-484.0,-6792.0,-17272.0,-3036.0,-3080.0,15025.0,0.6871268818764962,-0.013213176685996317,0.1485459483606912,0.7110669176597737
-5219.273634433746,-1188.0,-6724.0,-17544.0,2852.0,-3614.0,25229.0,-0.33791774505119143,0.2891727528739115,0.05628598327587918,0.8938806434091239
-5219.289230585098,-3248.0,-264.0,-13364.0,906.0,-1760.0,13131.0,-0.8992198963588651,0.3034738837508004,-0.09963211011737513,0.2989659219829521
-5219.30486869812,-10708.0,-5408.0,-15044.0,-7527.0,311.0,-14613.0,-0.18063945939491377,0.5793790114280895,0.037921521549594,0.7938836848238454
-5219.320531845093,-4040.0,-5336.0,-12816.0,-12690.0,-837.0,-32768.0,0.8474103312552012,0.2260114793023121,0.2568438003279453,0.406012073636523
-5219.336139202118,4664.0,-7516.0,-16368.0,-10600.0,1693.0,-25419.0,0.7360129249325582,-0.45548635495268447,0.19478644533401399,-0.4613842167849664
-5219.351793527603,4688.0,-8516.0,-18308.0,2622.0,60.0,1402.0,0.8668558645267737,-0.2527610141901417,0.14410528616762386,-0.4048536109998996
-5219.367437839508,1240.0,-3532.0,-16924.0,10236.0,3158.0,12178.0,0.8558947314525148,0.45358200954046496,0.16741602953699067,0.18351959662970796
-5219.383071422577,-8784.0,-2424.0,-15072.0,8525.0,1589.0,-3789.0,0.42848019814007987,0.7783998119669117,0.44163460702297785,-0.1243274966022175
-5219.398679494858,-8348.0,-12.0,-12784.0,2037.0,1343.0,-24812.0,-0.012988223976483944,-0.03634809587825279,0.9000445944801848,-0.4340850722047023
-5219.414274454117,-5316.0,-1052.0,-14512.0,-5234.0,3376.0,-32768.0,-0.4990503749199365,-0.804572181991813,0.3218864198653492,0.0012082894818115767
-5219.429869413376,-2432.0,-9828.0,-16368.0,-2313.0,2491.0,-32768.0,-0.23906035234374506,-0.5337257620374399,-0.6858497982085733,0.43312470856798013
-5219.445453643799,13368.0,-8928.0,-20752.0,4383.0,8416.0,-3629.0,0.45360472778894934,-0.5432261122002838,-0.6470965647973688,0.2835739370582611
-5219.4610459804535,1504.0,-4672.0,-22480.0,25481.0,4495.0,32767.0,0.29229493462406825,-0.3960521764773431,0.453821895806844,0.7428001289626659
-5219.476717472076,-11436.0,7048.0,-12620.0,20471.0,4023.0,8883.0,0.11935707682561587,0.09783398768454113,0.9879799773968352,0.008829684497997476
-5219.4923095703125,-6760.0,9804.0,-17824.0,833.0,5296.0,1342.0,-0.31108548838144895,0.1965230684736483,0.9298356842277673,-0.003178492230123562
-5219.507905006409,-5936.0,1540.0,-19292.0,1985.0,3818.0,-22665.0,-0.2940150045823214,-0.7542548397782748,0.5402314341560166,0.22979297487355899
-5219.523537158966,3032.0,-1704.0,-21264.0,1735.0,4137.0,-12429.0,-0.08215588468804487,-0.9616183826073622,-0.2287479085832056,0.12733770518403026
-5219.53914141655,2548.0,-5696.0,-20760.0,8727.0,4422.0,5179.0,0.48988377092749125,-0.8462211999386903,0.1949836984047851,-0.076843536569944
-5219.55477976799,-6320.0,-1792.0,-16800.0,13442.0,2715.0,6044.0,0.8970313073405198,-0.09151908516449746,0.40540088810152575,-0.15036359475652752
-5219.570375442505,-6516.0,1936.0,-12968.0,5462.0,2924.0,-13455.0,0.4042051726719867,-0.06214919768625049,0.27869741528655423,-0.8689553534703373
-5219.58601808548,-2296.0,-2772.0,-11932.0,504.0,2848.0,-17086.0,-0.5283918014994714,-0.13456751296139707,0.13712050008533272,-0.8269774223156734
-5219.601623058319,-1304.0,-4968.0,-13188.0,2521.0,784.0,-8161.0,-0.8783516165039578,-0.2336867428686145,-0.14129564095836783,-0.39233211165861315
-5219.61726307869,1012.0,-568.0,-15140.0,7243.0,664.0,-1799.0,-0.6560552407506199,-0.6228211108168957,-0.39917029527931824,-0.1494940144991634
-5219.632894992828,2004.0,5804.0,-18748.0,6037.0,2878.0,-4352.0,-0.2332433768983873,-0.6396392240882133,-0.7215188661712469,0.12597506062639327
-5219.648524284363,-7968.0,-2212.0,-22292.0,1072.0,2684.0,-19972.0,0.10637959291944986,0.2797226066291029,-0.9279120752730681,0.22230120582970425
-5219.664105176926,-2116.0,-3564.0,-16680.0,813.0,2662.0,-18997.0,0.3435762847844107,0.9091713909070215,-0.21719268837691955,0.09049892046615689
-5219.679732322693,5552.0,-2492.0,-12868.0,3106.0,4415.0,-5689.0,0.18605769208831394,0.8873861420236813,0.322682473717364,0.27166963635036573
-5219.695327997208,-500.0,-3548.0,-15488.0,5027.0,4337.0,-3514.0,-0.20261343453517347,0.6416970262161173,0.656017711110296,0.34177987857810005
-5219.710931301117,-3744.0,-1936.0,-17812.0,6212.0,2270.0,-3995.0,-0.465271862560905,0.1952652016097795,0.8498309710293817,0.1522528017103686
-5219.726527690887,1160.0,-996.0,-15972.0,2774.0,2349.0,-11243.0,-0.37393868379857187,-0.5446569723118041,0.684413436337642,0.3083778387492055
-5219.742164850235,1192.0,-4888.0,-16472.0,3853.0,2176.0,-1112.0,-0.27000557184649093,-0.7389706518336066,0.6171848666318941,0.010109762659694153
-5219.757797241211,508.0,-3208.0,-14648.0,5053.0,1294.0,-3082.0,-0.00955598730299834,-0.9062724854816577,0.3469206066021439,-0.24129848296324577
-5219.773393154144,704.0,-3872.0,-14912.0,1189.0,2146.0,-649.0,0.005885959052325877,-0.860957626978244,0.2624852483152647,-0.435682010703792
-5219.788989305496,-1464.0,-6304.0,-16056.0,1310.0,641.0,-2823.0,-0.016933598513632502,-0.8679668811462535,0.0009621911489799493,-0.4963323691467414
-5219.804586648941,628.0,-5576.0,-16004.0,629.0,1173.0,3986.0,0.19094317671689132,-0.7678880362217342,0.25721684005055284,-0.5547325159815304
-5219.8202357292175,-2088.0,-5728.0,-16760.0,843.0,-595.0,3479.0,0.4091725341003053,-0.6718016964373027,0.41921368772165757,-0.4533433599697974
-5219.835875511169,648.0,-3956.0,-15800.0,-1916.0,-255.0,3309.0,0.414342806049085,-0.5968963025874731,0.6448580396483917,-0.23705052569780807
-5219.851504802704,992.0,-5000.0,-16256.0,-409.0,-1520.0,7244.0,0.5274337290363289,-0.19785006533076344,0.8193131233102313,0.10674745474754264
-5219.867093324661,1352.0,-3932.0,-16220.0,633.0,-1483.0,10966.0,0.3895885187552584,0.45220168894661145,0.6803114722068478,0.4253360075889027
-5219.882688522339,1316.0,-2348.0,-15908.0,1063.0,-1077.0,12540.0,-0.03634173820385047,0.8552763559435409,0.12659645105304973,0.5011536407221175
-5219.898274898529,-1284.0,-2248.0,-15164.0,-137.0,-1281.0,9177.0,-0.32138366079825526,0.7878468093851818,-0.43564318555403797,0.2936408731662384
-5219.914171695709,-2452.0,-1764.0,-14704.0,-2812.0,-1004.0,3270.0,-0.2330369784631087,0.7165240343662747,-0.6570465087500622,0.02401999549576695
-5219.929849386215,-2892.0,-3972.0,-16456.0,-3956.0,-741.0,1504.0,-0.029048328157677154,0.6669659638109082,-0.6969338282290646,-0.26190806940415334
-5219.945438623428,600.0,-3336.0,-15756.0,-2228.0,-133.0,5266.0,0.19048366544956136,0.3125931495412244,-0.8520432089115092,-0.3741976298756787
-5219.961052179337,-2192.0,-2452.0,-16668.0,-115.0,-686.0,6911.0,0.314815777714154,-0.19288530604649848,-0.8965093709192338,-0.24486166026469103
-5219.976723194122,-2652.0,-228.0,-16640.0,384.0,-351.0,3402.0,0.3507849863946171,-0.4367467221969155,-0.8209833333084029,-0.11040181339182127
-5219.992342233658,-1212.0,-88.0,-15820.0,-2906.0,543.0,-7215.0,0.1728960308563113,-0.002983087366523802,-0.8693039583102916,-0.4630428616985213
-5220.007977724075,-376.0,-1228.0,-16716.0,-1917.0,405.0,-7065.0,-0.06946856329838497,0.43839511325023645,-0.6635626463636503,-0.6022196092310843
-5220.023614883423,580.0,-884.0,-16192.0,-286.0,1283.0,-3888.0,-0.17749134502255562,0.6898869296379879,-0.4779863250140837,-0.5138890151154087
-5220.039304971695,-1864.0,-2184.0,-15556.0,-954.0,771.0,-8373.0,-0.3727133834742991,0.8757154983610277,0.04573845613067091,-0.3035046842146254
-5220.054897546768,-936.0,-3144.0,-15820.0,-1766.0,1431.0,-8858.0,-0.3734966065548889,0.731451224454955,0.5649995882093168,0.07908765048116936
-5220.070509195328,-1040.0,-4596.0,-15752.0,-2023.0,2040.0,-7556.0,-0.23907151518313421,0.33576894420558767,0.7901254646496387,0.45365821589308586
-5220.086091756821,-872.0,-3760.0,-16080.0,-754.0,2992.0,-7052.0,-0.1195415055537131,-0.21015150025953436,0.7509782688206831,0.6144736081783403
-5220.101692199707,16.0,-3092.0,-15856.0,-316.0,3172.0,-5101.0,-0.052795574832840746,-0.6298249397845642,0.5379597116916096,0.557792543066076
-5220.117298603058,-1656.0,-2736.0,-16920.0,667.0,2333.0,-5275.0,0.11701624576861713,-0.8868490812683438,0.24068251003431443,0.3766667421518591
-5220.132906675339,-560.0,-1184.0,-17576.0,-452.0,2310.0,-7875.0,0.23751291431046778,-0.9205526202961268,-0.29253419882089415,0.10292828241985216
-5220.148543596268,976.0,-1108.0,-16804.0,-1234.0,1673.0,-11225.0,0.19952344940715924,-0.47796084882013773,-0.8293577702239605,-0.20954595940018148
-5220.1641182899475,2096.0,-1164.0,-16040.0,-2134.0,1154.0,-11825.0,-0.015392405164448964,0.24906136578965848,-0.8699591986092897,-0.425326348454132
-5220.179750919342,2224.0,-2572.0,-15640.0,-2293.0,839.0,-8888.0,-0.1805687129148386,0.7465853115510545,-0.46201188028532536,-0.4433399767308514
-5220.19534945488,2272.0,-3664.0,-13556.0,-2540.0,2233.0,-7369.0,-0.17150577232930658,0.9552545527272532,0.0662579127488114,-0.231698939466184
-5220.2109434604645,-3732.0,-7864.0,-17084.0,-2897.0,2542.0,-2716.0,0.0002676545874305017,0.9564812632045816,0.28968146191176675,0.03504528676229173
-5220.226652383804,-1408.0,-3140.0,-18124.0,-503.0,1199.0,-1983.0,0.01744590718384649,0.8839801534080162,0.4442965109334482,0.1444830061828631
-5220.242250204086,276.0,-812.0,-18344.0,-935.0,2746.0,-227.0,-0.013686726659859667,0.8134252350821156,0.4402755029876196,0.3798809575563663
-5220.2578711509705,-456.0,32.0,-17528.0,2199.0,77.0,-3861.0,-0.04170160063641511,0.615341178201536,0.7339409791734863,0.28451159906719226
-5220.273510694504,3196.0,1240.0,-15476.0,-848.0,262.0,-9136.0,0.166917175582475,0.02098314118765376,0.938621380379656,0.30114492952008515
-5220.289159297943,3836.0,-700.0,-16500.0,-2349.0,1162.0,-9098.0,0.24278966736976174,-0.6082625208690832,0.7019863351420296,0.27979468972503885
-5220.304748535156,2688.0,-4080.0,-17224.0,-338.0,118.0,-2446.0,0.2709744320801449,-0.7509694479462586,0.5537090521569766,0.23669396056840314
-5220.320377826691,3612.0,-4588.0,-15332.0,1844.0,709.0,3115.0,0.2789925809323489,-0.5440891362827861,0.7736503221086697,0.16611842361673892
-5220.335992336273,2760.0,-5008.0,-15016.0,3390.0,725.0,12496.0,0.1388401970384407,0.24604000833601705,0.9494391247518329,0.13694182113150527
-5220.351585149765,-100.0,-4512.0,-15248.0,3613.0,1098.0,15296.0,-0.1250964869281107,0.9081930101598074,0.39849393606557276,0.02718286545013651
-5220.367170572281,-3724.0,-3664.0,-16628.0,4593.0,476.0,14091.0,-0.32956587702900136,0.8236058027228742,-0.4357617938817457,-0.15222179020192203
-5220.382794141769,-2820.0,-1300.0,-16400.0,4146.0,386.0,7782.0,-0.403439165611202,0.3277621902417652,-0.8408469468223401,-0.15094766748249883
-5220.39843082428,-840.0,-1236.0,-15572.0,3252.0,400.0,2881.0,-0.4008149570134599,0.00673619070192451,-0.9161319967676492,-0.0020392321215603106
-5220.414073228836,1612.0,-1676.0,-14668.0,3101.0,4.0,2230.0,-0.3810136731245479,-0.26563502049788007,-0.8711406453044556,0.15931287730678734
-5220.429680585861,3288.0,-2332.0,-14264.0,2202.0,854.0,3197.0,-0.29212112499034515,-0.5610002796608016,-0.7510256258833754,0.18948467964814864
-5220.445342540741,2336.0,-4260.0,-15244.0,1489.0,1079.0,3758.0,-0.19758803726355978,-0.8107839637696993,-0.5354386662839012,0.12997602191306606
-5220.460935354233,1912.0,-4048.0,-16120.0,2011.0,957.0,6993.0,-0.07544648594662443,-0.9962802867086354,-0.028935857732946504,0.029935500853058458
-5220.476532459259,472.0,-4072.0,-15944.0,2064.0,880.0,7838.0,0.07012981076007943,-0.8408286063875444,0.5313592795828007,-0.07580488324891786
-5220.4921271800995,-732.0,-3840.0,-16212.0,2952.0,563.0,8941.0,0.2470820124353849,-0.3122176566786381,0.9043493621732182,-0.15369725152348657
-5220.5077612400055,-1116.0,-2972.0,-17072.0,3402.0,1013.0,7925.0,0.29158880709220375,0.31888566418451425,0.8740232467748865,-0.22219645553706005
-5220.523378133774,-1604.0,-2212.0,-17776.0,3175.0,-245.0,4751.0,0.2807588558487118,0.6776191649869228,0.6032027198476022,-0.31329412837364656
-5220.5389540195465,-832.0,-3020.0,-16656.0,808.0,-335.0,-692.0,0.23035840911779423,0.6488441733921759,0.6110527104634355,-0.3905775557287334
-5220.5545773506165,880.0,-4300.0,-15504.0,635.0,-412.0,428.0,0.2300784011477039,0.6685462311343918,0.5554352595600938,-0.43772313007051344
-5220.570163488388,2480.0,-4532.0,-14728.0,1241.0,29.0,4813.0,0.3118523438433486,0.8513411744047743,0.20911515710807935,-0.36638391267927234
-5220.5857808589935,332.0,-4700.0,-15736.0,2670.0,-460.0,7657.0,0.29897942442726727,0.8559564215408358,-0.37333118094083007,-0.19640197944387477
-5220.601385593414,12.0,-2752.0,-15864.0,2966.0,-85.0,5680.0,0.14988689043081074,0.6518716406131854,-0.7424539900572312,0.036869457405187094
-5220.616978645325,-852.0,-2996.0,-16380.0,1777.0,118.0,3101.0,0.0440443146714364,0.4522958503862563,-0.8702256881713492,0.1902519742741148
-5220.63258433342,-1620.0,-3604.0,-16052.0,1332.0,-43.0,-729.0,5.557296340217803e-05,0.509033225421939,-0.8124673470120611,0.2842217133988291
-5220.648152351379,-424.0,-4492.0,-15300.0,-449.0,606.0,-2850.0,0.12929962531648564,0.674135743831515,-0.6751315635954821,0.27022208943546056
-5220.663779258728,352.0,-4624.0,-15280.0,1095.0,312.0,175.0,0.07847970401456564,0.6654962955696996,-0.6528919805003631,0.35311142496258413
-5220.679374456406,-344.0,-3844.0,-15656.0,652.0,1020.0,-1486.0,0.14238059514015017,0.7133664208704295,-0.5322527323989144,0.43306251806862706
-5220.694977283478,-464.0,-3988.0,-15816.0,-288.0,631.0,-4025.0,0.3217460037507594,0.8223429179377991,-0.26832661502647703,0.38500969086036696
-5220.710641622543,-144.0,-4772.0,-16068.0,-730.0,601.0,-4022.0,0.49212600902561165,0.8240759985025276,0.011830388173490802,0.2803048016860406
-5220.726261854172,560.0,-4108.0,-15400.0,-1005.0,550.0,-4360.0,0.6237410997468513,0.7101814339405198,0.301900870447441,0.12427886302929086
-5220.74188375473,152.0,-4024.0,-15368.0,-2091.0,423.0,-6447.0,0.6984611778716613,0.3631149082136184,0.6038613397613563,-0.12510407179930993
-5220.757519721985,1052.0,-4380.0,-15648.0,-3404.0,226.0,-7467.0,0.5793209175741383,-0.1913174545862959,0.7248111020226649,-0.32005276505034186
-5220.773130655289,1920.0,-4068.0,-15732.0,-2511.0,-65.0,-4439.0,0.38120916094027363,-0.5489928583322476,0.6556737084795367,-0.35125262294265225
-5220.788756847382,544.0,-3924.0,-15456.0,-2995.0,153.0,-5718.0,0.04660959956308586,-0.8460815419546447,0.4170797654163718,-0.32866097862758753
-5220.804340600967,-140.0,-3920.0,-15504.0,-3753.0,107.0,-7319.0,-0.3608751662473545,-0.9137162079180446,-0.012308176257793306,-0.1863875386688179
-5220.819989681244,612.0,-3404.0,-16132.0,-3865.0,377.0,-6441.0,-0.646419729834204,-0.6513583989651429,-0.39705914547731264,-0.014758183203448611
-5220.835606098175,-88.0,-3920.0,-16424.0,-3780.0,245.0,-7020.0,-0.7071612920527299,-0.15979742138760836,-0.6608656197126911,0.19402145196329554
-5220.851244211197,400.0,-3344.0,-16028.0,-3284.0,122.0,-6983.0,-0.5204160937254622,0.3678520441479272,-0.6814489015365351,0.359832402101828
-5220.8668484687805,1396.0,-2816.0,-15832.0,-3558.0,565.0,-7465.0,-0.11178357926577577,0.7743234664470351,-0.46939664230886596,0.409382941639172
-5220.882480621338,1788.0,-2664.0,-16336.0,-3559.0,661.0,-6419.0,0.32392878699340477,0.881833339304428,-0.1424260842236462,0.31169682895548007
-5220.898053407669,1168.0,-3228.0,-16548.0,-2995.0,569.0,-5123.0,0.6215574218641543,0.7501245762430194,0.16535889676999335,0.15373980194089956
-5220.913722753525,1168.0,-2736.0,-16648.0,-2191.0,308.0,-3451.0,0.7595091628507861,0.5438278855080583,0.3565118516616983,0.01721517104997257
-5220.929429769516,660.0,-2808.0,-16276.0,-1540.0,195.0,-3809.0,0.7831373074866267,0.30415079225847624,0.5158349710823631,-0.16763810962783965
-5220.945021390915,336.0,-2568.0,-15996.0,-1893.0,33.0,-5605.0,0.6661509053683228,-0.06838266542508323,0.6173689488160509,-0.4128224356597998
-5220.96061706543,1180.0,-2628.0,-15668.0,-2371.0,243.0,-5536.0,0.38876223938280446,-0.43876555416739144,0.6054417262374648,-0.5383205604812503
-5220.976194381714,1472.0,-2948.0,-15924.0,-1683.0,350.0,-3073.0,0.15419626216249233,-0.6135711193684145,0.553319070439533,-0.5418413056421943
-5220.991852045059,1156.0,-3032.0,-16492.0,-733.0,511.0,-956.0,0.044723457458615695,-0.641388861943447,0.5402801340800197,-0.5428789154556596
-5221.007441043854,1056.0,-2672.0,-16348.0,100.0,295.0,-267.0,0.02374888486617921,-0.6393335828011422,0.5215461885321785,-0.5645158399884145
-5221.023027420044,1220.0,-2760.0,-15796.0,-36.0,388.0,-76.0,0.0003512649323047581,-0.6235162906707156,0.5197049051478793,-0.5840668826824655
-5221.038644313812,1776.0,-2788.0,-15972.0,-104.0,594.0,1168.0,0.02712446613783752,-0.5368975411694098,0.5848749016464396,-0.6073933182436624
-5221.054226875305,1420.0,-2624.0,-16392.0,503.0,468.0,2928.0,0.17603556191243774,-0.34975414330897986,0.6738434016741066,-0.6265928424428756
-5221.069825410843,1104.0,-2616.0,-16436.0,1260.0,187.0,3897.0,0.39217136906543826,-0.0858082181529947,0.6844829782590948,-0.6085405651690836
-5221.085423946381,1048.0,-1964.0,-15984.0,1775.0,23.0,3486.0,0.5575056099681364,0.1744492869001158,0.5842704105319407,-0.5633675785230587
-5221.101022720337,940.0,-2032.0,-16028.0,700.0,155.0,1718.0,0.6151907141045441,0.29983310585046297,0.5246308641683859,-0.5063624692624235
-5221.116579771042,896.0,-3056.0,-16060.0,309.0,53.0,1045.0,0.6477549995053599,0.3650408045303373,0.4845402184965231,-0.4608464476406396
-5221.1321856975555,1656.0,-3280.0,-16344.0,817.0,63.0,2999.0,0.7137041735401457,0.5218272782515948,0.34738591663132745,-0.31248307037361683
-5221.147839784622,1996.0,-3036.0,-16448.0,1680.0,-25.0,5871.0,0.7041114059180628,0.7094986196322878,0.028943464360313267,0.001054830218713545
-5221.163462400436,852.0,-3148.0,-16232.0,2089.0,-172.0,6068.0,0.5010906482753953,0.7445046779191008,-0.3115751071173109,0.3123169854368418
-5221.179086923599,736.0,-3016.0,-16032.0,1950.0,-24.0,5548.0,0.19774860596283472,0.6047184341266528,-0.5516156360501518,0.5393804727019239
-5221.194669246674,836.0,-2616.0,-16528.0,1904.0,20.0,5427.0,-0.14061407718347524,0.3356202751829812,-0.668687514074741,0.6484163174261443
-5221.2102591991425,620.0,-2600.0,-16280.0,1851.0,-228.0,4818.0,-0.43823372152327567,0.04081540958498509,-0.6404108501304097,0.6294118291671326
-5221.225867033005,584.0,-2932.0,-16144.0,1949.0,-372.0,4585.0,-0.6578922340784213,-0.24702900565509187,-0.4911047099959399,0.5147529917583423
-5221.241446256638,972.0,-3004.0,-15968.0,2008.0,-285.0,4383.0,-0.7589295615870802,-0.49525766694333095,-0.2675414537295376,0.3273642228762585
-5221.257061243057,912.0,-3172.0,-15868.0,1989.0,-388.0,4161.0,-0.7424406405619839,-0.6613633015496475,-0.004941278975788504,0.1065648270647695
-5221.272728204727,712.0,-3424.0,-15840.0,1559.0,-388.0,3836.0,-0.6467791497211391,-0.714997187664658,0.24073526406773021,-0.11181362060084768
-5221.288323402405,420.0,-3840.0,-16012.0,1297.0,-289.0,3275.0,-0.5041143882402476,-0.6902880731604473,0.4288860717410952,-0.2922803398932091
-5221.303945064545,412.0,-3764.0,-15948.0,898.0,-184.0,2871.0,-0.3574755576747454,-0.606517922584311,0.5678315858919821,-0.4265143905104937
-5221.319566488266,684.0,-3684.0,-16080.0,934.0,-198.0,3087.0,-0.17623148562956176,-0.47174694329655864,0.6763948088636286,-0.5374824159965483
-5221.335159301758,1016.0,-3756.0,-15824.0,881.0,-87.0,3203.0,0.01490892707486837,-0.28851481142902347,0.7380269784017154,-0.6097975948056742
-5221.350791215897,524.0,-3440.0,-16116.0,734.0,50.0,3029.0,0.18464594249585528,-0.08674196840917317,0.7483048518466164,-0.6312064286262717
-5221.366379022598,320.0,-3300.0,-15816.0,655.0,-9.0,2411.0,0.31550304296471526,0.07886222471975014,0.7137912499153575,-0.6202746415391558
-5221.38202214241,112.0,-3408.0,-15912.0,11.0,166.0,1306.0,0.37319185603456,0.16838656082494552,0.7043740145377662,-0.5798543371976946
-5221.397605419159,-44.0,-3648.0,-16088.0,314.0,-119.0,735.0,0.4119065428959719,0.21724758169867453,0.6723737967729272,-0.5753694166174675
-5221.413209438324,708.0,-3312.0,-15740.0,344.0,-10.0,306.0,0.4208300448053608,0.24689517905636174,0.6486539206571441,-0.584117227244635
-5221.428871154785,320.0,-3544.0,-15844.0,37.0,48.0,-68.0,0.41366950037634154,0.2468833151475296,0.6502079863922176,-0.5874995724185094
-5221.44447851181,308.0,-3792.0,-15800.0,-351.0,63.0,-709.0,0.3802260702041625,0.1967775070476576,0.6843382132724689,-0.5902439818517876
-5221.460105895996,448.0,-4028.0,-15912.0,-268.0,106.0,-342.0,0.36044091123301125,0.17280535661580732,0.7072164224266366,-0.5831514298057316
-5221.475735664368,604.0,-3648.0,-15828.0,-352.0,195.0,-18.0,0.35241533365483696,0.1704499566373577,0.7312988334191909,-0.5585268669697129
-5221.491322755814,192.0,-3612.0,-15736.0,-656.0,199.0,-1216.0,0.2879070636838173,0.08178105110493039,0.7818966327779331,-0.5468629060483672
-5221.506904840469,304.0,-3528.0,-16120.0,-964.0,138.0,-2001.0,0.18624545610727028,-0.07105972247730397,0.830310452908787,-0.5204303005314431
-5221.522496700287,428.0,-3560.0,-15948.0,-1213.0,260.0,-2089.0,0.06348814732552276,-0.2253374090580229,0.8577465374617311,-0.45767148119650336
-5221.538098573685,364.0,-3348.0,-15880.0,-1377.0,374.0,-2943.0,-0.10495881159232644,-0.42149856834505045,0.8241501299384023,-0.363454492439857
-5221.553674936295,456.0,-3536.0,-15932.0,-1594.0,511.0,-2839.0,-0.27892533804698283,-0.5717200749307109,0.7358930147605224,-0.2319445678244446
-5221.569285869598,492.0,-3524.0,-15720.0,-1545.0,380.0,-3616.0,-0.4285796712560369,-0.7172765784781975,0.5460979047794824,-0.060090379830192796
-5221.584876775742,576.0,-3400.0,-16136.0,-1883.0,567.0,-3735.0,-0.5562593427022964,-0.7713487407274824,0.28252880191289254,0.12559514291644375
-5221.600517988205,752.0,-3392.0,-16144.0,-1584.0,328.0,-3284.0,-0.6046491805797772,-0.7422628833308088,0.026909296907307943,0.2876127086788631
-5221.616106748581,572.0,-3156.0,-15776.0,-1579.0,174.0,-3892.0,-0.5721605042590597,-0.6315258347527474,-0.25727029006835633,0.4556528012138275
-5221.631739854813,1004.0,-3108.0,-15664.0,-1898.0,395.0,-4492.0,-0.44979491496472473,-0.41551735500475184,-0.5519530502237067,0.5660191626707328
-5221.647337913513,516.0,-3252.0,-15868.0,-1914.0,396.0,-3697.0,-0.2980946482118956,-0.1709430265106842,-0.7480228914106541,0.5677850088901948
-5221.662934780121,904.0,-3220.0,-16276.0,-1551.0,476.0,-3109.0,-0.13000531999891224,0.04661302342932507,-0.8451081464008668,0.5164475420656474
-5221.678532361984,1120.0,-2700.0,-16148.0,-995.0,380.0,-2078.0,-0.004102716232742738,0.19013687904612409,-0.8681100005133636,0.45849336086229314
-5221.694169998169,592.0,-2620.0,-15992.0,-965.0,424.0,-3036.0,0.15934727867132553,0.38853830867182526,-0.8248041563511777,0.3786086781101328
-5221.709812879562,440.0,-3092.0,-15724.0,-1547.0,407.0,-4946.0,0.36822246211269244,0.6462258939586353,-0.6399339713937485,0.19310314505272677
-5221.725450754166,1096.0,-3140.0,-15908.0,-1908.0,440.0,-4273.0,0.5293390492589344,0.7551777348902099,-0.38591153337160544,-0.02406341759840654
-5221.741048574448,1384.0,-3068.0,-16348.0,-1056.0,484.0,-1587.0,0.6028399701310412,0.7500599152544464,-0.2531538354488909,-0.09953506687802961
-5221.75666809082,688.0,-2964.0,-16640.0,-234.0,165.0,-950.0,0.6110193294357518,0.7575259667070516,-0.179659886600087,-0.1432903135849555
-5221.772255420685,852.0,-2724.0,-15724.0,-860.0,218.0,-2750.0,0.6173504495232223,0.7347243382541719,0.023723879666650925,-0.2801709242302043
-5221.787863254547,1048.0,-2880.0,-15708.0,-1438.0,198.0,-2764.0,0.6188070388244847,0.633511503758559,0.23812205284925989,-0.39879682954318507
-5221.803452253342,1676.0,-2816.0,-16128.0,-1162.0,339.0,-1201.0,0.6271143721759319,0.55174225911697,0.359419094167562,-0.4160840761945335
-5221.819100618362,1208.0,-2976.0,-16504.0,-159.0,269.0,757.0,0.6519626670892938,0.5752692166697722,0.34275052352386404,-0.3557134910262452
-5221.8347363471985,936.0,-2492.0,-16132.0,269.0,299.0,869.0,0.6540034795585766,0.6238644027408966,0.3068579494206149,-0.2981792323341689
-5221.850332021713,608.0,-2280.0,-15992.0,-71.0,273.0,-228.0,0.6440847599011168,0.6206975103398463,0.3366516387744399,-0.29420247590991033
-5221.865959882736,316.0,-2876.0,-16148.0,-435.0,203.0,-1508.0,0.6168878358856376,0.5520991167878762,0.4369043591709493,-0.35178195535843515
-5221.881551027298,1252.0,-3192.0,-16052.0,-135.0,221.0,-473.0,0.5995629957874836,0.5331444377496417,0.475377433829061,-0.360967474968387
-5221.897154808044,1896.0,-2872.0,-16004.0,276.0,450.0,2227.0,0.6256330140779203,0.6416236193642197,0.37928840566751965,-0.23031015630216253
-5221.912805557251,1196.0,-3044.0,-16360.0,1086.0,372.0,3150.0,0.5908069199707379,0.7801180965384312,0.1934002911050622,-0.0704220573998112
-5221.928568840027,912.0,-2428.0,-16072.0,1157.0,46.0,2806.0,0.5106162658940901,0.8579828284282959,-0.0022521162620837932,0.0559591198903213
-5221.944162845612,924.0,-2748.0,-15876.0,379.0,125.0,1326.0,0.4720670417609462,0.8678416124027525,-0.09345107058379293,0.12357403154385906
-5221.959784984589,780.0,-3020.0,-16140.0,628.0,-70.0,1766.0,0.3992834418798573,0.8686408396541901,-0.2204123675982103,0.1935309095085068
-5221.975374698639,1524.0,-2920.0,-15852.0,876.0,148.0,2337.0,0.2891559393452209,0.8322379138741417,-0.36899292752777346,0.295995129835413
-5221.990977525711,1076.0,-3020.0,-15988.0,1063.0,-20.0,2565.0,0.1407187438350741,0.7552121621707776,-0.5135387057733185,0.3822706147684947
-5222.006594657898,1012.0,-2820.0,-16032.0,1043.0,-31.0,2689.0,-0.01869023965147315,0.6290151070824771,-0.6365763059278392,0.44582650968180076
-5222.022234916687,864.0,-2872.0,-16216.0,691.0,151.0,2242.0,-0.13271158308497222,0.4874170161569872,-0.7181674328915789,0.47858941318171627
-5222.0378477573395,668.0,-3108.0,-16192.0,800.0,-25.0,1893.0,-0.24341425369003183,0.3549952403244804,-0.7531170361150036,0.49753654173421424
-5222.053453922272,1068.0,-2864.0,-16100.0,837.0,76.0,2091.0,-0.3483304000850164,0.19290048586116454,-0.7686227363772162,0.5006739698198216
-5222.069038152695,844.0,-3004.0,-15956.0,824.0,150.0,1928.0,-0.42905391254610076,0.03153267700374031,-0.7572076200549898,0.4914825027816544
-5222.084719181061,940.0,-3004.0,-15920.0,845.0,45.0,1902.0,-0.5015908856015403,-0.12561611595089212,-0.7163888312451954,0.46841671336750734
-5222.100310087204,1228.0,-3316.0,-16332.0,738.0,164.0,1993.0,-0.5550004220215683,-0.28433828841972014,-0.660462622431648,0.41822887712965906
-5222.115946531296,848.0,-3196.0,-16124.0,857.0,26.0,2095.0,-0.5969588236249935,-0.43911148956499185,-0.567722051143928,0.3584870085138498
-5222.131529808044,844.0,-3112.0,-16060.0,638.0,67.0,1563.0,-0.6112617570730483,-0.5460859114905234,-0.4863050505151427,0.3027484755618074
-5222.147125005722,528.0,-3288.0,-15996.0,330.0,-12.0,1275.0,-0.62538543982063,-0.6135838003370633,-0.4136365833634922,0.24761411213349824
-5222.162723302841,1136.0,-3224.0,-16052.0,348.0,-26.0,1011.0,-0.6265798164465455,-0.6657805687457501,-0.34918454654766223,0.2054364143833859
-5222.17832159996,936.0,-3156.0,-16076.0,95.0,11.0,775.0,-0.6329138926569302,-0.6933602487330156,-0.30246792817720586,0.1648779014390087
