programtime,ax,ay,az,gx,gy,gz,q0,q1,q2,q3
-1195.4603984355927,3976.0,-196.0,16216.0,119.0,49.0,-465.0,0.9991163092212764,0.010359298659990366,0.003942969452626671,-0.04054304590461275
-1195.4760131835938,3944.0,-232.0,16284.0,139.0,20.0,-515.0,0.9960848463044369,0.02228978260457077,0.005330002299933317,-0.08537994863895113
-1195.4916157722473,4084.0,-328.0,16144.0,116.0,54.0,-491.0,0.9912117504664077,0.032411861493950714,0.009792054354897323,-0.12787827275705418
-1195.507264137268,3920.0,-300.0,15896.0,161.0,125.0,-475.0,0.9843613755005294,0.0471474787647416,0.01982970763918186,-0.16857218146473202
-1195.522849559784,3920.0,-236.0,16064.0,93.0,166.0,-574.0,0.9739129570445468,0.056351629691865156,0.03474589905293792,-0.2170501518792843
-1195.5384442806244,3816.0,-160.0,15840.0,-71.0,182.0,-666.0,0.9593628044682773,0.051487910458923127,0.054451818001429717,-0.27204228347018977
-1195.554030418396,3588.0,-124.0,15916.0,-170.0,158.0,-739.0,0.9397148053549105,0.037257067803558024,0.07457911424787572,-0.33164129901667305
-1195.569619178772,3828.0,-120.0,15984.0,-233.0,109.0,-842.0,0.9127314962769331,0.01564844508603754,0.09242978412578605,-0.3976594986630156
-1195.585235118866,3916.0,-492.0,16104.0,-200.0,114.0,-837.0,0.880541016141471,-0.0031884188872849353,0.10898235205203824,-0.46125936285212726
-1195.6008625030518,3972.0,-452.0,16188.0,-163.0,37.0,-704.0,0.8501351119037321,-0.020976399059126464,0.1176511298678258,-0.5128240378841119
-1195.616473197937,4060.0,-680.0,16244.0,-140.0,23.0,-542.0,0.824420899506827,-0.03594667948180046,0.12417572031757479,-0.5510157957574343
-1195.6320853233337,4028.0,-672.0,15888.0,-91.0,42.0,-402.0,0.8038420636591125,-0.04487803870401089,0.12991803514719727,-0.5787445053543334
-1195.6477191448212,4088.0,-664.0,16036.0,-33.0,72.0,-293.0,0.7878389263220793,-0.0469298844011299,0.13513056755175504,-0.5990385144837602
-1195.66330742836,4056.0,-672.0,16076.0,-77.0,49.0,-204.0,0.7761506331468796,-0.0521251339134646,0.1413533326459198,-0.612284574711868
-1195.6788854599,4028.0,-448.0,16140.0,-65.0,65.0,-150.0,0.7669666242556634,-0.05495016913333978,0.14821928041979984,-0.6219113450500208
-1195.6944675445557,4072.0,-368.0,16100.0,-23.0,48.0,-182.0,0.7562728008757257,-0.056277522824422305,0.15147724414261868,-0.6339865421184341
-1195.7100491523743,4060.0,-416.0,16064.0,245.0,76.0,-154.0,0.7477118990802201,-0.03797230805898526,0.14182333290532814,-0.6475887290851724
-1195.7256381511688,4080.0,-496.0,15996.0,-13.0,77.0,-121.0,0.7398354905325513,-0.03604316414250498,0.14686482120742383,-0.6555723160405471
-1195.74120759964,3992.0,-756.0,16052.0,0.0,81.0,-149.0,0.7302083913503769,-0.03340415019873584,0.1513076391901657,-0.6654215703399564
-1195.7568044662476,4140.0,-580.0,16012.0,77.0,109.0,-122.0,0.7218352187866844,-0.023864187803316308,0.15310668831539384,-0.6744944473105469
-1195.7723903656006,4076.0,-496.0,16196.0,83.0,112.0,-72.0,0.7162240205453555,-0.013099427565715159,0.1548138871798604,-0.6803559492850474
-1195.7880573272705,4092.0,-380.0,16256.0,130.0,152.0,-69.0,0.7101207233753586,0.0030145887089074353,0.15619587084351594,-0.686529183953027
-1195.8036501407623,3976.0,-280.0,15956.0,161.0,46.0,-27.0,0.7077762250284013,0.015260621027535934,0.14910199773129587,-0.6903539114127888
-1195.8192856311798,3896.0,-292.0,16036.0,151.0,-72.0,22.0,0.7097792703380743,0.020399975059401623,0.13522910075678318,-0.691021214380889
-1195.8348882198334,4048.0,-312.0,16032.0,173.0,-107.0,42.0,0.7131661138690097,0.025005706958338553,0.11779448383477081,-0.6905745928041287
-1195.8504643440247,4056.0,-356.0,16076.0,175.0,-81.0,99.0,0.7194698060252468,0.03186198902241538,0.10169889712474296,-0.6862982924335017
-1195.8660283088684,4328.0,-304.0,16080.0,137.0,-63.0,65.0,0.7234819944943769,0.0370814630799331,0.0890829440211327,-0.6835663814311072
-1195.8816332817078,4052.0,-256.0,16188.0,56.0,-92.0,29.0,0.7257265154754301,0.03516035020277456,0.07957637074729533,-0.6824605305277351
-1195.897213935852,4084.0,-64.0,16156.0,28.0,-17.0,-21.0,0.7245193251489053,0.03558471449222817,0.07663387093889447,-0.6840560835232755
-1195.9131972789764,4028.0,-88.0,16216.0,41.0,74.0,-162.0,0.7141520488031485,0.04131208791637518,0.079098595239332,-0.6942791764221504
-1195.9288861751556,4080.0,-252.0,16220.0,59.0,238.0,-238.0,0.6975862087760948,0.057535793660443646,0.09092565691763888,-0.7083753515526588
-1195.9445145130157,4068.0,48.0,15924.0,-10.0,303.0,-6.0,0.6946449873102383,0.0753830789785901,0.10973469698564735,-0.7069257593877414
-1195.960108757019,3948.0,-20.0,16172.0,-29.0,313.0,-252.0,0.6759054546065209,0.09026454326944545,0.131835146751759,-0.7194606471117466
-1195.975735425949,3940.0,-76.0,16028.0,-75.0,355.0,-512.0,0.6393406652439457,0.10188762146663505,0.16104396248425606,-0.7449344055047196
-1195.9913682937622,4060.0,-104.0,15992.0,-187.0,334.0,-337.0,0.6138284496344284,0.10813177640506978,0.19441417082174034,-0.757446554903099
-1196.0069696903229,3972.0,-240.0,16208.0,-511.0,355.0,-459.0,0.5810013678567477,0.09603650868315312,0.2507503781899234,-0.7683349838359237
-1196.0226266384125,4048.0,28.0,16256.0,-300.0,426.0,-554.0,0.53590223193029,0.09690990023877695,0.2962304572644651,-0.7846430941751349
-1196.0382182598114,4056.0,60.0,16280.0,-297.0,453.0,-677.0,0.4790062242190322,0.09613594088356218,0.34228368798329195,-0.8025913000839313
-1196.0538029670715,4148.0,76.0,16420.0,-322.0,563.0,-755.0,0.41048643696067627,0.09907188650548178,0.3930235199690653,-0.8168342298941075
-1196.0693781375885,4076.0,152.0,16412.0,-388.0,773.0,-753.0,0.33200721056313215,0.11378598966330905,0.4524403717463222,-0.8198302694487921
-1196.0849676132202,3924.0,64.0,16380.0,-498.0,807.0,-854.0,0.24249204776053337,0.12253407215637395,0.5165811110859965,-0.8119895095398937
-1196.1005520820618,3740.0,64.0,16268.0,-662.0,925.0,-832.0,0.14778978729664177,0.13547531371155783,0.5874065030094077,-0.7840651875755148
-1196.1161189079285,3652.0,132.0,16364.0,-877.0,1090.0,-945.0,0.037191156755256256,0.14864559524195758,0.6653615940167331,-0.730626617419515
-1196.1317613124847,3692.0,52.0,16336.0,-1051.0,1492.0,-933.0,-0.09386058247286061,0.18324645258405786,0.737539393660557,-0.6431536142105027
-1196.1473672389984,3692.0,52.0,16468.0,-1047.0,2013.0,-1065.0,-0.2603837486009082,0.23077842519884154,0.7783818695313894,-0.522554578118019
-1196.1629583835602,3636.0,88.0,17156.0,-1772.0,2605.0,-1569.0,-0.4524490196132965,0.2707529620493655,0.7948853037805909,-0.300233362613317
-1196.178636789322,3636.0,-248.0,17532.0,-2179.0,3315.0,-2466.0,-0.6441877555245626,0.2523792564984985,0.7216071501183696,0.02469751848943841
-1196.1942446231842,4028.0,-76.0,17824.0,-2411.0,3845.0,-3763.0,-0.73377231375639,0.1267877099378906,0.5183756064073629,0.42046379018305247
-1196.2098369598389,3524.0,36.0,16952.0,-2505.0,4325.0,-5091.0,-0.6068971718295634,-0.08648600056479322,0.17450382940213308,0.7705481218298929
-1196.2254412174225,3000.0,-168.0,16032.0,-2312.0,4011.0,-5783.0,-0.2490603658009905,-0.27006548146388326,-0.19924618911295985,0.9084792380856704
-1196.2410426139832,2276.0,-584.0,15636.0,-2051.0,3717.0,-5703.0,0.18646952965451158,-0.3575897039963834,-0.4902959575802801,0.7726374260198896
-1196.2567014694214,2232.0,-1160.0,16400.0,-2068.0,3454.0,-5141.0,0.5356354444946287,-0.35106390797527603,-0.6376373468949547,0.42809743863159416
-1196.272290945053,2056.0,-1560.0,17060.0,-2323.0,3343.0,-4694.0,0.7261029079626798,-0.28417355742633893,-0.6257866229916665,-0.02027458489057803
-1196.2879312038422,1716.0,-1620.0,17028.0,-2619.0,3105.0,-4438.0,0.7286226804630989,-0.17901546096546217,-0.4730506152329619,-0.4618285067834253
-1196.3035271167755,1532.0,-1400.0,16280.0,-2740.0,2779.0,-4316.0,0.5587063823983269,-0.05616125468654553,-0.22565977501556714,-0.7960972036625495
-1196.3191132545471,1348.0,-1084.0,15728.0,-3072.0,2362.0,-4500.0,0.2464014881064063,0.041533641084711734,0.07208844472816389,-0.9655902440755443
-1196.3346943855286,1612.0,-980.0,15480.0,-2734.0,1870.0,-4406.0,-0.11422141775725213,0.10122039485661968,0.32308152491716063,-0.9339840617739659
-1196.350276708603,2336.0,-1292.0,15328.0,-2570.0,1527.0,-4139.0,-0.43117066043727603,0.12282928738794917,0.505792805496846,-0.7370064217125122
-1196.3659219741821,3448.0,-2644.0,14988.0,-2249.0,870.0,-4087.0,-0.6545538037825038,0.07660953929992836,0.6110495876487255,-0.4385301561767795
-1196.3815467357635,3984.0,-3804.0,15336.0,-1604.0,1022.0,-3597.0,-0.787911313455582,0.014608567281134329,0.6011698996687079,-0.1325786695626712
-1196.3971865177155,3880.0,-4292.0,16068.0,-1035.0,1527.0,-3214.0,-0.8601358924413872,-0.06199627725985905,0.4872096210736791,0.13765715845250892
-1196.412785768509,3604.0,-4208.0,16492.0,-536.0,2254.0,-2775.0,-0.8827337761382108,-0.15902194581728663,0.2826068701975421,0.34003890678922144
-1196.4283809661865,3568.0,-3992.0,16684.0,-13.0,2900.0,-1707.0,-0.8672321228742764,-0.27438575597289033,0.0335264577673457,0.4141218161407773
-1196.4440112113953,2796.0,-3128.0,16420.0,356.0,3143.0,-884.0,-0.8036903353433765,-0.4011115111932175,-0.20444948305867647,0.38909100393222196
-1196.4596161842346,2032.0,-2012.0,16004.0,758.0,2683.0,-154.0,-0.7035702294878274,-0.5270742595044566,-0.3616589078475701,0.31045851819651743
-1196.4752724170685,1268.0,-1672.0,15268.0,106.0,1812.0,203.0,-0.6390275870409676,-0.581659013884818,-0.4549304947570132,0.2153016012650133
-1196.4908955097198,1072.0,-2320.0,15568.0,-317.0,1321.0,499.0,-0.6073079512778032,-0.6037544608435138,-0.5051833129334062,0.10699263367140437
-1196.5064890384674,1744.0,-3212.0,15940.0,-329.0,1318.0,844.0,-0.5689747883149376,-0.6296870544925898,-0.528488339453609,-0.021493690422666963
-1196.5220708847046,1752.0,-3036.0,16152.0,-265.0,1097.0,723.0,-0.5280524353871925,-0.6433938048029103,-0.5390280454031099,-0.12904961717026725
-1196.5376539230347,1704.0,-1780.0,15384.0,-209.0,402.0,538.0,-0.5139192801401726,-0.6532796731598616,-0.5239669004427381,-0.18593366929305982
-1196.553269147873,1912.0,-1080.0,14844.0,-234.0,-380.0,257.0,-0.5399974736467322,-0.6599996054509972,-0.4879342250439606,-0.18634226919951552
-1196.568871498108,2632.0,-1296.0,14844.0,-115.0,-418.0,1057.0,-0.5446022646217901,-0.702870868343934,-0.40341855827760414,-0.21594995401592798
-1196.5845503807068,2612.0,-2304.0,15224.0,53.0,-167.0,1337.0,-0.5185169585704772,-0.7503948248018951,-0.31225136089286276,-0.2656065853963536
-1196.6001207828522,2352.0,-2904.0,16496.0,389.0,319.0,1201.0,-0.4536390541678398,-0.7882183347397655,-0.2553627279842322,-0.32819710917409056
-1196.615745306015,2420.0,-2864.0,17768.0,723.0,968.0,875.0,-0.3543095303492078,-0.8018042360087768,-0.25204830128342176,-0.4099346016650059
-1196.6313416957855,2380.0,-2484.0,18172.0,921.0,1519.0,332.0,-0.24159666217861173,-0.7736220283457459,-0.3049519148430167,-0.5001443188880036
-1196.646935224533,1840.0,-1548.0,17316.0,1120.0,1610.0,100.0,-0.11705377423974538,-0.7190703766028983,-0.37554316181706515,-0.5728905140084258
-1196.6625409126282,1204.0,-1136.0,16032.0,1160.0,1244.0,-26.0,-0.00471613343998222,-0.6605586994927218,-0.44300188464712237,-0.6061264660192276
-1196.6781690120697,1664.0,-1184.0,15444.0,1177.0,1268.0,1.0,0.11099251181427244,-0.5872735390412784,-0.5000215526057786,-0.6267127728017016
-1196.6938428878784,1692.0,-1044.0,15400.0,1182.0,793.0,311.0,0.22145916303009613,-0.5415927692092198,-0.5366748689527332,-0.6079582193579297
-1196.7094242572784,1552.0,-1004.0,16132.0,943.0,299.0,223.0,0.2907906736759939,-0.5158700785102052,-0.5681099472388716,-0.571462976971547
-1196.7249963283539,1792.0,-1256.0,16272.0,845.0,-142.0,247.0,0.3331714068649365,-0.512156647741008,-0.6008603278294425,-0.5154214278268093
-1196.7405989170074,2196.0,-1868.0,16256.0,769.0,-296.0,601.0,0.3776407881168563,-0.5324873270995371,-0.6147044896242144,-0.4426997538566113
-1196.7561547756195,2108.0,-2300.0,16228.0,1276.0,-388.0,1175.0,0.4561573944470604,-0.5617117247968949,-0.61477557343911,-0.3137696034028463
-1196.7717826366425,2220.0,-2364.0,16604.0,1281.0,-633.0,1905.0,0.5260182278941418,-0.6170477396938655,-0.569434700422817,-0.13528130992925333
-1196.7873980998993,2204.0,-2256.0,17200.0,1130.0,-839.0,2388.0,0.5573886342581446,-0.6742690896351851,-0.478814919823406,0.07358925000898123
-1196.803017616272,1952.0,-1720.0,17288.0,952.0,-832.0,2323.0,0.5493674463101688,-0.7011967153367318,-0.3667676966259686,0.2683282170165929
-1196.8187038898468,1800.0,-1248.0,17144.0,999.0,-500.0,2794.0,0.5117907546192835,-0.7069726636535126,-0.18985629791260303,0.4496826241648688
-1196.834309577942,1544.0,-484.0,16192.0,910.0,-281.0,2055.0,0.47353755132582104,-0.6761568829422233,-0.03909526563175584,0.5630680397069117
-1196.8499221801758,1440.0,-396.0,16000.0,598.0,-407.0,1554.0,0.42638703793075877,-0.6296088315288687,0.06447447768404752,0.6462428760712611
-1196.8655371665955,1836.0,-556.0,16312.0,494.0,-530.0,1331.0,0.3782040925671587,-0.5687458677882997,0.1444822957692887,0.7159711366028813
-1196.8811810016632,2268.0,-992.0,16620.0,144.0,-737.0,1120.0,0.32247969559051815,-0.5002084407571776,0.1834371005122237,0.7823996369393253
-1196.896769285202,2200.0,-1504.0,16660.0,352.0,-595.0,1287.0,0.2574436749922477,-0.42545510986577434,0.24486350638984491,0.8323175877836885
-1196.9124057292938,1812.0,-1900.0,16208.0,525.0,-308.0,1450.0,0.1765639172109041,-0.3567904982853531,0.3267604969345163,0.8571775201879354
-1196.9281141757965,1188.0,-1724.0,16020.0,610.0,-384.0,1428.0,0.09873871227034751,-0.2751269436929507,0.406873332164304,0.8654535938609796
-1196.9437460899353,1200.0,-1428.0,15972.0,502.0,-578.0,1428.0,0.023226387015747547,-0.17457805910735244,0.4692833994005162,0.8653069555201784
-1196.9593288898468,1424.0,-1108.0,16272.0,299.0,-757.0,1446.0,-0.04990928193838067,-0.056893771314312995,0.5069088912755653,0.8586707974001485
-1196.9749114513397,1584.0,-968.0,16488.0,195.0,-910.0,1305.0,-0.10547808926769749,0.06758615276773819,0.526662749607528,0.8407929785710213
-1196.9905762672424,1780.0,-908.0,16880.0,145.0,-945.0,969.0,-0.13309823642359178,0.17889525191737957,0.53634359509289,0.8140128354670957
-1197.0061690807343,1708.0,-712.0,16536.0,159.0,-1160.0,508.0,-0.11667899098313902,0.28148370265009476,0.5496325687595067,0.7778540850084775
-1197.021805524826,1544.0,-612.0,16216.0,162.0,-1313.0,129.0,-0.06600916485289066,0.3726288156646377,0.5669085439802289,0.7317139185870459
-1197.0374102592468,1704.0,-568.0,15892.0,53.0,-1399.0,-81.0,0.006601689429312805,0.45423405369894077,0.5765885032848526,0.6790975924244176
-1197.0530076026917,1752.0,-804.0,15984.0,-53.0,-1352.0,-129.0,0.0838010201058816,0.52413644919339,0.5736830263204671,0.623815803717691
-1197.0686075687408,1900.0,-1168.0,16260.0,-86.0,-1257.0,-88.0,0.1545408300784834,0.583971458754016,0.5603747201152106,0.5666344855858665
-1197.084254026413,2032.0,-1308.0,16812.0,-50.0,-1195.0,-187.0,0.22356242977895913,0.6297155201279021,0.5482115463316496,0.5029336975884944
-1197.0998950004578,2164.0,-1536.0,16728.0,94.0,-1197.0,-341.0,0.28896174163722277,0.6638230660225799,0.5444606401978151,0.4235595119481436
-1197.1154999732971,2084.0,-1384.0,16552.0,150.0,-1214.0,-506.0,0.3543546218591204,0.683865969443532,0.5450459222169358,0.3311873797094749
-1197.1310937404633,1976.0,-1080.0,16464.0,133.0,-1100.0,-788.0,0.4186425490063854,0.6775080876183869,0.5579615277913798,0.23323837779795537
-1197.1466882228851,1852.0,-944.0,16296.0,59.0,-974.0,-1019.0,0.4797737760829483,0.6449632826453419,0.5794280108570222,0.13454615586009344
-1197.162269115448,1848.0,-920.0,16504.0,26.0,-915.0,-1125.0,0.5336118996500486,0.5951153560798843,0.5999300957053607,0.034350164144233614
-1197.1778538227081,1832.0,-1040.0,16436.0,-27.0,-892.0,-1250.0,0.5803581341857058,0.5263252560210011,0.617670840468428,-0.06818279690610927
-1197.1935079097748,1804.0,-1124.0,16260.0,-73.0,-864.0,-1330.0,0.6165671693859011,0.441510509589618,0.629374425048578,-0.16970924739726248
-1197.209130525589,1828.0,-1188.0,16340.0,-162.0,-984.0,-1483.0,0.6471545268686927,0.33266492464704356,0.6283028661417194,-0.27524638900635173
-1197.2247262001038,1828.0,-1164.0,16324.0,-230.0,-933.0,-1786.0,0.6520338829654652,0.19619489947893842,0.6232036565792444,-0.38467724043629925
-1197.240334033966,1976.0,-1096.0,16324.0,-192.0,-866.0,-1301.0,0.6526863545596191,0.0845691717056492,0.5969100759197974,-0.4588539408505906
-1197.2559654712677,2120.0,-1068.0,16192.0,-193.0,-813.0,-1465.0,0.6310635427799286,-0.03498283648924956,0.5629235084236558,-0.5325900203620173
-1197.2715587615967,2324.0,-1288.0,16368.0,-182.0,-809.0,-1391.0,0.59969495253138,-0.14949669046215505,0.5172651318784135,-0.5919911205348065
-1197.287186384201,2324.0,-1376.0,16464.0,-305.0,-977.0,-1507.0,0.5550395044653648,-0.28044799139885,0.4563085679605619,-0.6364452556261019
-1197.302806854248,2536.0,-1384.0,16512.0,-318.0,-956.0,-1518.0,0.4948374556060388,-0.40428318834738736,0.3854877352053363,-0.6656502100617661
-1197.3184349536896,2592.0,-1288.0,16764.0,-319.0,-828.0,-1653.0,0.40998768938456226,-0.5148357522773125,0.30572022607176114,-0.6880329832942551
-1197.3340499401093,2664.0,-1220.0,16596.0,-136.0,-694.0,-1754.0,0.3128671790822375,-0.5999520441011879,0.20732893630617655,-0.7065312344136521
-1197.3496363162994,2568.0,-1260.0,16272.0,64.0,-499.0,-1669.0,0.2198276417420963,-0.6515582756731046,0.1011319875276552,-0.7189714475740363
-1197.3652439117432,2368.0,-1288.0,16188.0,40.0,-432.0,-1625.0,0.12265163872971646,-0.6847832013264156,-0.002086697777171461,-0.7183482361574001
-1197.3808691501617,2280.0,-1432.0,16340.0,255.0,-297.0,-1490.0,0.04403855625395723,-0.6940421799053534,-0.10933070661734254,-0.7102202860140259
-1197.396526813507,2456.0,-1340.0,16544.0,-122.0,-238.0,-1387.0,-0.05120831377730921,-0.6906932874776969,-0.18528223963476637,-0.6971305350572884
-1197.4121174812317,2420.0,-1300.0,16484.0,-137.0,-261.0,-1395.0,-0.1474387664653148,-0.6780745922834481,-0.25785787353036643,-0.672299021642319
-1197.4277429580688,2512.0,-1264.0,16276.0,-104.0,-382.0,-1432.0,-0.24419569031839386,-0.6612986939244417,-0.3287977709378186,-0.6284461218514062
-1197.443344593048,2652.0,-1196.0,16180.0,-3.0,-444.0,-1453.0,-0.3339210801439346,-0.6382272325682351,-0.39949348428646997,-0.5670693677641699
-1197.4589455127716,2800.0,-1376.0,16272.0,66.0,-366.0,-1390.0,-0.4086391297093567,-0.6049806892650326,-0.465815272640857,-0.5000285582457363
-1197.4745726585388,2556.0,-1324.0,16296.0,-9.0,-253.0,-1337.0,-0.47447396128176655,-0.5573652863971884,-0.5232680260184372,-0.4363587635555597
-1197.4902002811432,2344.0,-1280.0,16388.0,-83.0,-264.0,-1203.0,-0.53336729186697,-0.5060546794237455,-0.5643740174203623,-0.3753797568604695
-1197.50581741333,2624.0,-1280.0,16244.0,-104.0,-393.0,-1249.0,-0.5944239941555777,-0.4495668270811749,-0.5938848096210114,-0.3030686655886907
-1197.5214042663574,2624.0,-1192.0,16200.0,-130.0,-483.0,-1311.0,-0.6544352111175001,-0.38471564262545066,-0.612182882476579,-0.22122510520179825
-1197.5369884967804,2740.0,-1116.0,16380.0,-76.0,-593.0,-1349.0,-0.7089565408201998,-0.31707374543751726,-0.6169613283283507,-0.1272932933417854
-1197.5525782108307,2992.0,-1284.0,16352.0,-27.0,-554.0,-1359.0,-0.748612488852657,-0.24631146806606652,-0.6148687324131216,-0.02909371295745039
-1197.5681698322296,3040.0,-1552.0,16464.0,52.0,-405.0,-1213.0,-0.7676329903208742,-0.1844409745828363,-0.6107085394207274,0.061287836840339054
-1197.5838091373444,2924.0,-1628.0,16396.0,63.0,-321.0,-1056.0,-0.774580737317181,-0.1300029801113452,-0.6029437948844223,0.13993815330249743
-1197.599410533905,2952.0,-1696.0,16636.0,73.0,-238.0,-1030.0,-0.7705041425155547,-0.07744981098387511,-0.5949791061634137,0.21523186653912801
-1197.6150074005127,2872.0,-1520.0,16348.0,96.0,-108.0,-1272.0,-0.7470111088825089,-0.01568277174329411,-0.5906956842109289,0.30464251596117464
-1197.6306328773499,2760.0,-1416.0,16164.0,189.0,-87.0,-1260.0,-0.7134015424910781,0.0390573520674517,-0.5779948285538156,0.3942774918580505
-1197.646224975586,2728.0,-1288.0,16164.0,262.0,-39.0,-985.0,-0.6797545923545206,0.0735035875979951,-0.5608182975541413,0.46691942978595147
-1197.6618332862854,2680.0,-1376.0,16156.0,178.0,-56.0,-915.0,-0.6442821977638088,0.10966055281138949,-0.5424094027607187,0.5278892427379982
-1197.6774258613586,2596.0,-1392.0,16292.0,146.0,-61.0,-991.0,-0.6006702865702255,0.15060146851861958,-0.520603530945655,0.587780884410675
-1197.6930348873138,2524.0,-1392.0,16352.0,101.0,-104.0,-940.0,-0.5566403257311032,0.19267880017850195,-0.49573295645478993,0.6381812153427407
-1197.7086906433105,2608.0,-1388.0,16220.0,110.0,-4.0,-930.0,-0.5052238858748402,0.22701154545959676,-0.4720191286854258,0.6858662592113884
-1197.7242712974548,2660.0,-1376.0,16308.0,95.0,-310.0,-917.0,-0.46335666994037267,0.2781166858506623,-0.432755343023031,0.7215777979942506
-1197.739907503128,2868.0,-1524.0,16368.0,112.0,-395.0,-847.0,-0.4262490506289808,0.329283219480968,-0.3876811204859912,0.7480559183810177
-1197.755475282669,2992.0,-1536.0,16160.0,123.0,-338.0,-1021.0,-0.37292669709224446,0.379543644019548,-0.33606393920548194,0.7771314751352736
-1197.77108836174,2964.0,-1500.0,16036.0,104.0,-356.0,-668.0,-0.3407753474823829,0.41885194943423826,-0.2944876238289848,0.7884873153164595
-1197.7867152690887,2968.0,-1592.0,16312.0,146.0,-279.0,-686.0,-0.30543875961888,0.4502297183163927,-0.2503887965765059,0.8008157187619326
-1197.8023142814636,2984.0,-1440.0,16440.0,155.0,-259.0,-551.0,-0.278285856179905,0.47537682246339885,-0.21057097896006088,0.8076098821427465
-1197.8179268836975,2956.0,-1376.0,16420.0,62.0,-272.0,-568.0,-0.24547172902063508,0.5025573376625042,-0.17566905548378892,0.8101358747510377
-1197.8335266113281,3036.0,-1228.0,16268.0,253.0,-335.0,-599.0,-0.2189292872370594,0.5287688175007382,-0.12400153235407148,0.8106152754559873
-1197.8491399288177,2968.0,-1332.0,16164.0,-80.0,-331.0,-536.0,-0.18064502778444505,0.5584952026253553,-0.09840364922249356,0.8035964188576978
-1197.864738702774,2888.0,-1432.0,16208.0,-20.0,-416.0,-767.0,-0.12909546790373938,0.5927013929619563,-0.05566781503294273,0.7930576986052965
-1197.880334854126,2764.0,-1432.0,16140.0,78.0,-545.0,-403.0,-0.10771511135335506,0.630242564600489,-0.023228663887894865,0.7685389994827302
-1197.8959803581238,2664.0,-1048.0,15996.0,108.0,-656.0,-367.0,-0.0901892698591073,0.6723699836820312,0.01035219726614515,0.7346273427102132
-1197.911853313446,2724.0,-1020.0,15816.0,68.0,-829.0,-297.0,-0.07418544775732705,0.7224672966575006,0.03854913270464574,0.6863319087505458
-1197.9275388717651,2860.0,-1068.0,15636.0,56.0,-1059.0,-501.0,-0.04392725911868007,0.7796951962340712,0.07992950770920616,0.619481291624854
-1197.9431281089783,3028.0,-1096.0,16056.0,113.0,-1138.0,-228.0,-0.0312028927101051,0.8348253132107027,0.1053643944169383,0.5394362059579663
-1197.95871591568,3068.0,-916.0,16180.0,266.0,-1007.0,-309.0,-0.026667840052634235,0.8747014989357895,0.1425014406727466,0.4624710298738743
-1197.9746022224426,3308.0,-920.0,16852.0,280.0,-908.0,-393.0,-0.02081504682889599,0.9021541410134775,0.18517326590740216,0.3890957482046444
-1197.9906980991364,3156.0,-888.0,16560.0,295.0,-909.0,-383.0,-0.016290371118269982,0.9225592460949101,0.22608811546501817,0.31225506448910767
-1198.0063376426697,2908.0,-928.0,16536.0,352.0,-872.0,-277.0,-0.019816520945870688,0.936921960658334,0.25828110507962376,0.23468152013440188
-1198.0220189094543,2784.0,-984.0,16324.0,225.0,-881.0,-233.0,-0.013548561094298847,0.9461495989457741,0.28252057991409296,0.15747855356215706
-1198.0376274585724,3112.0,-1108.0,16248.0,151.0,-727.0,29.0,-0.008483559470986635,0.9546707388182494,0.2824649137924356,0.09351674790727103
-1198.0532269477844,3252.0,-1104.0,16772.0,14.0,-150.0,355.0,-0.008855767442402924,0.9640901481875074,0.2529604853235348,0.08039125832873763
-1198.0688619613647,3368.0,-1084.0,17112.0,243.0,590.0,761.0,-0.04750807766238256,0.9729134407710304,0.18945153637901668,0.12365490159120167
-1198.0845098495483,3136.0,-1160.0,17240.0,-194.0,1198.0,407.0,-0.05491168081972052,0.9615247999425702,0.14690615021392023,0.22555121244249268
-1198.100157737732,3132.0,-1384.0,17112.0,-283.0,1553.0,382.0,-0.05803202826817588,0.9279041105945249,0.10081399069262827,0.3542072620902793
-1198.1158146858215,2868.0,-1500.0,16856.0,-436.0,1805.0,178.0,-0.043548585725589624,0.8644451966859642,0.06293533845702888,0.49686735229954965
-1198.131457567215,2568.0,-1552.0,16668.0,-684.0,1696.0,-20.0,-0.00039479525693568,0.783391927147245,0.02796656771500927,0.6208983843653263
-1198.1470937728882,2428.0,-1404.0,16352.0,-681.0,1486.0,-269.0,0.05652887696948119,0.6948969177063815,0.009293541019440837,0.716823820702172
-1198.1626925468445,2048.0,-1224.0,15756.0,-479.0,1149.0,-252.0,0.09980630797585331,0.6165316486259097,0.00026358013817182784,0.7809784617109218
-1198.1782944202423,2332.0,-1072.0,15564.0,-74.0,1017.0,-251.0,0.12037382859579449,0.5441157581718465,0.017500022405830925,0.8301457295644316
-1198.1939783096313,2700.0,-1720.0,15472.0,282.0,480.0,266.0,0.08684324915753157,0.5117858879658291,0.030266176566461557,0.8541764533811727
-1198.2095856666565,3188.0,-2432.0,15584.0,552.0,-209.0,1356.0,-0.03806505424503379,0.5305526034751713,0.00913264956953952,0.8467476491274601
-1198.2251813411713,3508.0,-2900.0,15704.0,728.0,-854.0,2258.0,-0.23245802513673908,0.5790216017266172,-0.03792828161339824,0.780550252538121
-1198.2407805919647,4080.0,-3208.0,15592.0,819.0,-1527.0,3089.0,-0.4675895201263482,0.6267888246763301,-0.10249183922810899,0.6148099160069846
-1198.2563672065735,4052.0,-3164.0,15376.0,1004.0,-1971.0,4404.0,-0.713369708258533,0.5989790508599768,-0.19206868503407354,0.3089294032611639
-1198.2719991207123,4348.0,-2972.0,15416.0,1303.0,-2067.0,5356.0,-0.8544608193505936,0.430187591043781,-0.27410448387919045,-0.09849911991476527
-1198.287602186203,4280.0,-2820.0,15632.0,1682.0,-1880.0,6349.0,-0.7799605871547514,0.11728163702951953,-0.3320458935441174,-0.5173509685710276
-1198.3032636642456,4292.0,-2736.0,16208.0,1868.0,-1637.0,7161.0,-0.4363835541196756,-0.2430342030748321,-0.31527247765525945,-0.8069120365087978
-1198.3188767433167,4088.0,-2392.0,16400.0,1878.0,-1471.0,7515.0,0.07599330105770162,-0.5147735986928326,-0.19101377899935143,-0.8323141813735792
-1198.334445476532,3968.0,-1588.0,16272.0,1877.0,-1380.0,7525.0,0.5636705360025823,-0.5997939926105028,0.0013870176678679143,-0.56790912076925
-1198.3500428199768,3824.0,-996.0,16140.0,1960.0,-1348.0,7234.0,0.8537305219389613,-0.47399078423593777,0.18040209541018667,-0.11803396265839428
-1198.365639925003,3588.0,-280.0,15632.0,2217.0,-1440.0,6974.0,0.8716364355179946,-0.17904257125781134,0.28383263830891775,0.35725721180331044
-1198.3812425136566,3564.0,-376.0,16096.0,2286.0,-1438.0,6724.0,0.6198180270718542,0.17444592280214855,0.29627943776896065,0.7054167052811902
-1198.396901845932,3516.0,-980.0,16200.0,2204.0,-1432.0,6663.0,0.1806798325627802,0.4698349479347428,0.21437143051267216,0.8370512586360491
-1198.4125471115112,3220.0,-1084.0,15888.0,2242.0,-1447.0,6619.0,-0.31219203650335875,0.6235472944831713,0.0711282960498243,0.7132080127057261
-1198.4281525611877,2420.0,-792.0,15864.0,2243.0,-1788.0,6160.0,-0.6938545980232853,0.6122499206275013,-0.06520280956005829,0.3734493608496852
-1198.443771123886,2132.0,-424.0,16296.0,2003.0,-1489.0,5452.0,-0.8746272383847681,0.4503420289110711,-0.17813919240264717,-0.022038126096087057
-1198.4593703746796,2772.0,172.0,17196.0,1466.0,-1157.0,4855.0,-0.8568077393799051,0.23722442711980382,-0.2580202265279096,-0.37819390743223735
-1198.474956035614,3248.0,640.0,18144.0,792.0,-930.0,3819.0,-0.7250337752529293,0.05769423998240013,-0.2770231535258602,-0.6278977399433174
-1198.4906101226807,3496.0,1276.0,17272.0,268.0,-898.0,2571.0,-0.5906143127201968,-0.06882312086259162,-0.24080446074306835,-0.7671058097361946
-1198.5062155723572,3500.0,748.0,16044.0,75.0,-885.0,1841.0,-0.47796629100249255,-0.1680135001110219,-0.18592200328142586,-0.8418745138924126
-1198.5218195915222,3140.0,-248.0,15232.0,89.0,-628.0,1318.0,-0.3868728275768566,-0.23724091916576628,-0.1454806171394695,-0.8791368218842782
-1198.5374364852905,2988.0,-1236.0,15260.0,328.0,-270.0,793.0,-0.3216748937589005,-0.27808489629615957,-0.14444121012661953,-0.8934935869911502
-1198.5530173778534,3188.0,-1824.0,15856.0,570.0,11.0,775.0,-0.24639366992111963,-0.3017683218273715,-0.1695921599740844,-0.9052428064556045
-1198.5686926841736,3332.0,-1836.0,16788.0,574.0,297.0,511.0,-0.18601638363898884,-0.29727798474012934,-0.20714667258075112,-0.9132983963883016
-1198.5842826366425,3512.0,-1320.0,17080.0,438.0,632.0,202.0,-0.14675769689279278,-0.2568948567286771,-0.24629151173446873,-0.922934289230076
-1198.59996342659,3508.0,-440.0,16584.0,486.0,727.0,-164.0,-0.13302917012700946,-0.2003074130583547,-0.29731826901099395,-0.9240032614019796
-1198.615573644638,3612.0,-72.0,16492.0,525.0,818.0,-473.0,-0.1401321953379126,-0.1275243464747764,-0.35561128353296034,-0.9152273618669837
-1198.6311974525452,3704.0,-84.0,16428.0,417.0,1016.0,-818.0,-0.1680900795225475,-0.025881809892342712,-0.4073206783829385,-0.897310270778432
-1198.6468093395233,3680.0,-284.0,16316.0,285.0,619.0,-1192.0,-0.2370962358879156,0.06031842202618793,-0.43806773704573904,-0.8650108211182551
-1198.662430047989,3608.0,-392.0,16096.0,225.0,510.0,-1468.0,-0.326575410210448,0.14883813621075598,-0.45345250521111574,-0.8158287419384961
-1198.6780235767365,3424.0,-448.0,16120.0,4.0,423.0,-1645.0,-0.42243832521136526,0.24123524653236902,-0.4394531036391389,-0.7551373298447192
-1198.6936242580414,3392.0,-600.0,15820.0,294.0,208.0,-1875.0,-0.536883798328977,0.31163296924502587,-0.42106550346153215,-0.6613202865223972
-1198.7092266082764,3252.0,-288.0,15764.0,509.0,-78.0,-2048.0,-0.6607524143138849,0.35250548495793527,-0.384472363000948,-0.5397472854414463
-1198.7248542308807,3436.0,-556.0,15992.0,173.0,-19.0,-2207.0,-0.7567758767075796,0.4080404212472748,-0.31760968580873195,-0.39989670484051193
-1198.7404608726501,3808.0,-716.0,16240.0,133.0,-180.0,-2435.0,-0.8328324293379521,0.4502123743618316,-0.2185824409719506,-0.23647553597205515
-1198.756096124649,3964.0,-792.0,16324.0,186.0,-22.0,-2740.0,-0.8724948306644024,0.47490965334875257,-0.10991361973819125,-0.033653942059020135
-1198.77170920372,3864.0,-728.0,16256.0,248.0,30.0,-2951.0,-0.8628821112840481,0.46883273825718597,0.009194052620121781,0.1885359248543132
-1198.7873120307922,3780.0,-540.0,16372.0,316.0,-42.0,-3000.0,-0.7992433822116127,0.4285009665855022,0.135747259400162,0.3989606737406299
-1198.8029205799103,3684.0,-604.0,15952.0,318.0,-180.0,-2981.0,-0.6822190753687034,0.36472189525553067,0.2619956147825653,0.5769864557847009
-1198.8186218738556,3776.0,-876.0,15908.0,381.0,-293.0,-2865.0,-0.5267700792751299,0.28216799890982797,0.377761686064723,0.707241551743981
-1198.83420920372,3572.0,-1112.0,15952.0,415.0,-359.0,-2725.0,-0.34695135642572633,0.18979999365785713,0.4731013146948583,0.7872584484880569
-1198.849853515625,3488.0,-1224.0,16376.0,484.0,-365.0,-2605.0,-0.1567421163570053,0.09019784109998341,0.5457230966978585,0.8182191394432967
-1198.8654987812042,3552.0,-1176.0,16160.0,607.0,-342.0,-2400.0,0.025535523798927966,-0.007809347972034474,0.5984236135131129,0.8007347437812815
-1198.8811058998108,3496.0,-1068.0,16160.0,757.0,-262.0,-2283.0,0.1949939792015468,-0.10472457683940226,0.6350564379804218,0.7400766390452906
-1198.8967506885529,3444.0,-908.0,16280.0,821.0,-174.0,-1743.0,0.3202268626337061,-0.17363619206679154,0.6597501121446329,0.6572937081529552
-1198.9124269485474,3544.0,-780.0,16104.0,872.0,-72.0,-1432.0,0.4153563836256957,-0.22515877338879592,0.6787291190412285,0.56223605746426
-1198.9281132221222,3488.0,-620.0,16100.0,858.0,-79.0,-1526.0,0.5059620834085431,-0.2773234445885322,0.6799903789617641,0.4524457555927274
-1198.9437351226807,3424.0,-500.0,16072.0,809.0,-145.0,-1062.0,0.57224639858263,-0.2968367704575604,0.67512977313491,0.3586387882540599
-1198.959331035614,3464.0,-276.0,16252.0,712.0,-241.0,-946.0,0.6310901412927821,-0.30773472079532266,0.6571466268152995,0.27419497815487953
-1198.9749431610107,3520.0,-684.0,16216.0,672.0,-318.0,-816.0,0.6838317415723605,-0.30844876360158,0.6307862819543938,0.1983486222511283
-1198.990630865097,3584.0,-700.0,16172.0,798.0,-261.0,-521.0,0.7261047132057871,-0.2838909011411403,0.6126264666293729,0.12987191418787639
-1199.006275177002,3632.0,-668.0,16244.0,770.0,-269.0,-240.0,0.7602959174216448,-0.24416175284134511,0.5966115639664297,0.07993621296353831
-1199.0218963623047,3600.0,-572.0,16140.0,1081.0,-227.0,-119.0,0.792366706876819,-0.17616920648043058,0.5836949801962943,0.020483715846695595
-1199.0375425815582,3344.0,-500.0,16188.0,1009.0,-139.0,-149.0,0.812059263433902,-0.11323824345584318,0.5711569580821108,-0.038943319383605936
-1199.0532038211823,3464.0,-296.0,16320.0,900.0,-41.0,-196.0,0.8197832378456871,-0.05914278285653117,0.5612917784806392,-0.09700058553054171
-1199.0688645839691,3340.0,-76.0,16248.0,848.0,-114.0,-231.0,0.8254238972180595,-0.010703336611142715,0.5429829122005327,-0.1540466992342486
-1199.0844931602478,3236.0,44.0,15992.0,770.0,-342.0,-218.0,0.8371053352291034,0.029755659484495753,0.5061586981973742,-0.20535975920017166
-1199.1001303195953,3148.0,240.0,15920.0,660.0,-612.0,-274.0,0.8547312280571099,0.05470635102630971,0.44862703382427244,-0.25529498127343997
-1199.115779876709,3096.0,-32.0,15844.0,434.0,-857.0,-308.0,0.8760461064272433,0.05567895138494447,0.3748318084229112,-0.2982351239890261
-1199.1313788890839,3276.0,-48.0,15876.0,276.0,-1045.0,-442.0,0.8928300352376255,0.034892994347196865,0.28816069191762367,-0.34438412094146176
-1199.1469712257385,3248.0,-144.0,16092.0,158.0,-1222.0,-533.0,0.900944139445054,-0.002964665269084206,0.18825070554755668,-0.3909636047259394
-1199.1626253128052,3236.0,-48.0,16128.0,148.0,-1347.0,-544.0,0.8973097120779313,-0.045897293365096785,0.07622450540266196,-0.43234077282682676
-1199.1782381534576,3308.0,-64.0,16060.0,104.0,-1414.0,-485.0,0.8813109270545163,-0.09353314078409881,-0.040350802838691475,-0.4614264991736432
-1199.1938781738281,3500.0,-176.0,16224.0,91.0,-1411.0,-497.0,0.8498079983792702,-0.14020576734523651,-0.15552471719632271,-0.4837155889929074
-1199.2095408439636,3644.0,-468.0,16304.0,76.0,-1300.0,-548.0,0.8039453995078131,-0.18043238934611894,-0.25969925458225834,-0.5036588574168955
-1199.22518825531,3820.0,-240.0,16628.0,181.0,-1142.0,-563.0,0.7515360309566559,-0.20375029993774743,-0.3542241199957513,-0.5178848156322309
-1199.2407982349396,3932.0,-272.0,16568.0,199.0,-920.0,-498.0,0.701198821449864,-0.2158580877024273,-0.4303746875000084,-0.5258356464999717
-1199.2564206123352,4124.0,-192.0,16448.0,352.0,-688.0,-435.0,0.6601485389012572,-0.20885312558315902,-0.49517607908329275,-0.524771311357983
-1199.2720685005188,4056.0,-272.0,16280.0,430.0,-595.0,-265.0,0.6287785450560145,-0.19936384757960046,-0.5525445621682262,-0.5094959316558105
-1199.2876954078674,3960.0,-260.0,16324.0,487.0,-434.0,-89.0,0.6114576249259422,-0.1872984366132172,-0.5984358627031021,-0.4826110098132491
-1199.30335354805,4008.0,-224.0,16340.0,517.0,-325.0,133.0,0.6077353417250726,-0.18004845707245049,-0.6343079123217665,-0.44259889278006703
-1199.3189487457275,3928.0,-204.0,16280.0,484.0,-242.0,246.0,0.610728503091799,-0.1770823100164944,-0.6609638648066347,-0.3984712290873071
-1199.334621667862,3844.0,-180.0,16348.0,495.0,-151.0,351.0,0.621055539752651,-0.17591422519315245,-0.6796765355575082,-0.3484020793993336
-1199.3502261638641,3792.0,-108.0,16276.0,495.0,-72.0,451.0,0.6371049596165942,-0.17769849085506942,-0.6904047867094795,-0.29302175221032073
-1199.3658406734467,3820.0,-88.0,16228.0,515.0,27.0,502.0,0.6583684188011715,-0.17824655195495687,-0.692814714719721,-0.2340661507122415
-1199.381488084793,3596.0,48.0,16144.0,538.0,94.0,512.0,0.6815381266900145,-0.17597015108288674,-0.6888616445933534,-0.17323372190157538
-1199.3971467018127,3680.0,100.0,16060.0,588.0,68.0,576.0,0.7016571766625108,-0.17411566286322006,-0.6829783281170811,-0.10441046741630808
-1199.4127633571625,3644.0,192.0,16280.0,567.0,-63.0,551.0,0.7099531181687704,-0.17236691711370447,-0.681888548072069,-0.03583606975273402
-1199.4283680915833,3648.0,180.0,16264.0,757.0,-125.0,519.0,0.713310929834632,-0.15619303728217973,-0.681859475892236,0.043115050956544734
-1199.4440019130707,3740.0,188.0,16140.0,435.0,-141.0,456.0,0.7081231705763295,-0.15543683142543754,-0.6815920070262202,0.09916301068097755
-1199.4596107006073,3772.0,288.0,16052.0,325.0,-196.0,239.0,0.6983819603067156,-0.14772075128227194,-0.6870157612240926,0.13583284208331542
-1199.4752714633942,4056.0,220.0,16112.0,306.0,-192.0,124.0,0.6890744473843793,-0.13411492134561845,-0.6929996905900736,0.164137206861921
-1199.4908728599548,3960.0,244.0,16144.0,276.0,-219.0,18.0,0.6785914367872702,-0.11537568662763885,-0.7015671603694578,0.18440616135401902
-1199.5064985752106,4044.0,384.0,16124.0,269.0,-254.0,-193.0,0.66852173300077,-0.08344617206944613,-0.7136469205880971,0.19189450645531791
-1199.5221560001373,4196.0,448.0,16128.0,204.0,-210.0,-270.0,0.6611614093329697,-0.051147039502622386,-0.7239084837428085,0.19027894871515974
-1199.5378062725067,4256.0,440.0,15932.0,131.0,-148.0,-310.0,0.6573166171878638,-0.021508029859033388,-0.7311771787654996,0.18125176598535786
-1199.5534110069275,4304.0,296.0,16076.0,102.0,23.0,-318.0,0.6638345283317029,0.004288473250859772,-0.7284245586246423,0.16941956907127736
-1199.5690183639526,4120.0,148.0,16192.0,142.0,173.0,-327.0,0.6793202768066654,0.030739238496495857,-0.7156411781456472,0.15948907447935418
-1199.5846099853516,4120.0,136.0,16120.0,122.0,196.0,-305.0,0.6952055137289838,0.05426918569353495,-0.7009979007312295,0.1494860941204552
-1199.6002583503723,4020.0,208.0,16156.0,131.0,159.0,-192.0,0.7067171609879863,0.0718674403880104,-0.6884045611655033,0.14657791628921218
-1199.6159336566925,4028.0,88.0,15944.0,131.0,181.0,-179.0,0.718949086230955,0.08835282411607322,-0.6741073925020467,0.14451717286357477
-1199.6315550804138,3956.0,84.0,16232.0,122.0,320.0,-118.0,0.7380678002698341,0.09885269898701446,-0.6511234621170212,0.1467048165145761
-1199.6471519470215,3608.0,132.0,16172.0,126.0,334.0,-78.0,0.7566878434748574,0.10705423698562183,-0.6268655940328863,0.1516655033242325
-1199.6627819538116,3748.0,256.0,16108.0,84.0,302.0,-21.0,0.7725263299361391,0.109691367368812,-0.6052397365521124,0.15765701626787612
-1199.678414106369,3788.0,304.0,16148.0,79.0,286.0,-39.0,0.787258597639181,0.11308132763056254,-0.5841436309569398,0.16190346567304142
-1199.6940121650696,3948.0,288.0,16180.0,-5.0,273.0,-112.0,0.8026554054292986,0.11452559453540853,-0.5640035541873327,0.15661474769476816
-1199.7096462249756,4052.0,268.0,16024.0,-108.0,308.0,-126.0,0.8203482968804033,0.10886992957948746,-0.5422228566020656,0.14550046053904797
-1199.7252950668335,4024.0,228.0,15956.0,-74.0,287.0,-128.0,0.8360383662407045,0.10590913228413003,-0.5210146911927458,0.13552415811848445
-1199.740907907486,3848.0,156.0,16216.0,-36.0,281.0,-41.0,0.849478604165567,0.10175400717762711,-0.5002183340486168,0.1334685032876375
-1199.756545305252,4100.0,160.0,16252.0,5.0,325.0,10.0,0.863266635240101,0.09782348452521146,-0.47576931155585733,0.13727652580920646
-1199.7721514701843,4040.0,220.0,16240.0,-32.0,452.0,69.0,0.8808810793230544,0.08702061863955264,-0.442129062694269,0.14490627296058478
-1199.7877881526947,4052.0,12.0,16148.0,-46.0,563.0,90.0,0.9007928276810474,0.07275445174043872,-0.3993947369187781,0.15415224770307762
-1199.8033771514893,3988.0,316.0,16000.0,-82.0,522.0,47.0,0.9179860883394575,0.05754815526258276,-0.3591368712338517,0.15814695432241305
-1199.818990945816,4000.0,372.0,16056.0,-155.0,395.0,-62.0,0.9314374612648563,0.04156418940631569,-0.3288370919798754,0.15020932344463306
-1199.8346230983734,4172.0,376.0,16064.0,-302.0,319.0,-226.0,0.9438586674133944,0.019285521449854705,-0.305498158090635,0.12421658510137833
-1199.8502233028412,4224.0,268.0,15960.0,-278.0,286.0,-320.0,0.9545516285404059,0.0018216850987753264,-0.2838605176098956,0.09083543612765949
-1199.8658020496368,4144.0,44.0,16700.0,-239.0,435.0,-265.0,0.9663749586989159,-0.014937239302627464,-0.2488948506307425,0.06283049746090598
-1199.8813960552216,4204.0,-124.0,16804.0,-156.0,841.0,-511.0,0.9835841119689923,-0.021482006112380967,-0.1785223010695415,0.015185720805826195
-1199.896996974945,3932.0,-132.0,16660.0,-226.0,1156.0,-472.0,0.9957360834538278,-0.03475759150773028,-0.07968956827561488,-0.030840470953918578
-1199.912669658661,3472.0,-56.0,16400.0,-462.0,1246.0,-517.0,0.9939631180493695,-0.06718424503500357,0.02783136976322304,-0.0821523708346522
-1199.9283273220062,3180.0,236.0,15940.0,-629.0,1168.0,-420.0,0.9772999383025562,-0.11341278874831578,0.12995336015131428,-0.12302233182447898
-1199.9439549446106,3204.0,-28.0,15672.0,-684.0,1165.0,-409.0,0.9458569089925658,-0.16254191715330435,0.23059828074887223,-0.16049693391096806
-1199.95955824852,2836.0,24.0,16308.0,-722.0,1109.0,-574.0,0.8982645972468961,-0.21635015242631403,0.3213481994349824,-0.20748170906823843
-1199.9751586914062,3068.0,-60.0,16368.0,-769.0,1011.0,-537.0,0.8397098069582029,-0.27135050801766813,0.40130389860944915,-0.24538036363496607
-1199.990802526474,3184.0,-140.0,16208.0,-786.0,914.0,-1059.0,0.7590942591530827,-0.34306025128870354,0.45543848909890844,-0.31410404701924394
-1200.006483078003,3312.0,-156.0,16220.0,-803.0,933.0,-1289.0,0.6548370674207226,-0.4168535247275989,0.49459478775555127,-0.3908932718518527
-1200.0220623016357,3384.0,-148.0,16056.0,-773.0,1016.0,-1395.0,0.5281829890301815,-0.480048280964119,0.5211292276720296,-0.4679751127020445
-1200.037665605545,3228.0,-212.0,16048.0,-828.0,1015.0,-1466.0,0.3819094456799823,-0.5355708230551866,0.5324507249792305,-0.5327337930538012
-1200.0533323287964,3128.0,-300.0,16076.0,-853.0,911.0,-1490.0,0.2271947525939161,-0.5825245441967954,0.5252524443390068,-0.5771980331896531
-1200.0689227581024,3080.0,-344.0,16204.0,-925.0,909.0,-1583.0,0.05782605602027757,-0.6178217028129576,0.5013918220591559,-0.6029583165946356
-1200.0845201015472,3284.0,-248.0,16244.0,-885.0,855.0,-1627.0,-0.11121420574963542,-0.6383995680431972,0.4572910716875459,-0.6090667186085548
-1200.1001327037811,3132.0,-328.0,16076.0,-953.0,750.0,-1715.0,-0.28078617435117803,-0.6468814414596702,0.3984095507917531,-0.5864924166826053
-1200.1157958507538,3056.0,-444.0,16132.0,-1004.0,705.0,-1780.0,-0.44531097771151634,-0.6367623824742257,0.3262102921368828,-0.5383480720679986
-1200.131411075592,2816.0,-584.0,16052.0,-947.0,662.0,-1728.0,-0.5884538893285777,-0.608012806859867,0.24488695157145318,-0.4733633147789308
-1200.1469917297363,3176.0,-864.0,16096.0,-807.0,612.0,-1437.0,-0.6956698335536828,-0.5652394206466343,0.168523372920867,-0.41005823099874805
-1200.1626410484314,2820.0,-1028.0,16200.0,-608.0,629.0,-1122.0,-0.7692496004738189,-0.518169274643925,0.09597503602722109,-0.3613093514502946
-1200.1782467365265,3012.0,-1112.0,16224.0,-560.0,568.0,-672.0,-0.8172297093009216,-0.4661706329542912,0.04492180441781302,-0.3358609454741269
-1200.1938412189484,2944.0,-1252.0,16376.0,-530.0,419.0,-310.0,-0.847821466619776,-0.4162152312790706,0.017946336934015747,-0.3280877489036312
-1200.2094860076904,2996.0,-932.0,16216.0,-522.0,380.0,-5.0,-0.8662218136372477,-0.3659071331266899,0.004631673805370891,-0.34022093866157777
-1200.225084066391,2864.0,-940.0,16236.0,-552.0,366.0,302.0,-0.8733340953273276,-0.31231050655958525,0.0030524745770419753,-0.3738186563432195
-1200.2407162189484,2956.0,-1064.0,15988.0,-515.0,120.0,274.0,-0.877332870344854,-0.26844705579050604,0.018234855029093652,-0.3973546311696097
-1200.2563171386719,2876.0,-984.0,15756.0,-404.0,-159.0,644.0,-0.8622764437305213,-0.2411753477670965,0.05945659490968154,-0.44133739875361927
-1200.2720866203308,3024.0,-952.0,15600.0,-169.0,-447.0,744.0,-0.8324231379975447,-0.2408121269450418,0.11497845393130443,-0.48565542720543414
-1200.287747144699,2508.0,-800.0,15592.0,99.0,-504.0,701.0,-0.7933502398698947,-0.261306058274263,0.16163011012378167,-0.5255380560044365
-1200.3033525943756,2428.0,-892.0,15196.0,375.0,-376.0,515.0,-0.7543661030866491,-0.2963864195204922,0.18175222413962386,-0.5568240313222712
-1200.319036245346,2464.0,-636.0,14924.0,513.0,-1.0,117.0,-0.7346863428807031,-0.3277778494796222,0.15965451715116702,-0.5721084636048657
-1200.3346683979034,2664.0,-284.0,14700.0,1080.0,-334.0,-506.0,-0.7202844170379257,-0.41810084143350534,0.11194697912955986,-0.5420792551174562
-1200.3502662181854,3244.0,20.0,15288.0,1203.0,-370.0,-1219.0,-0.7221379902614693,-0.5169362411797486,0.033398374674206796,-0.45845195402048444
-1200.3658556938171,3924.0,136.0,16084.0,1200.0,-423.0,-1960.0,-0.7302566299797845,-0.6026442297967528,-0.07482958275447939,-0.3129628096244624
-1200.3814313411713,4772.0,84.0,16596.0,1259.0,-512.0,-2193.0,-0.7096170452815762,-0.6657691869171316,-0.1872070403668593,-0.1347166019265191
-1200.3970258235931,5392.0,-336.0,16612.0,1667.0,-653.0,-2013.0,-0.6300052773440006,-0.7239914544388542,-0.275773167939838,0.053655235183971486
-1200.412715435028,6072.0,-1192.0,16500.0,2188.0,-836.0,-1015.0,-0.4950474183090027,-0.7963970237746537,-0.276866548316964,0.20982075343377124
-1200.4283208847046,6224.0,-1940.0,16512.0,2275.0,-862.0,289.0,-0.35505273846525554,-0.8662896615960161,-0.17390000895333255,0.3053499009435135
-1200.4439454078674,5728.0,-2372.0,16680.0,1952.0,-703.0,1875.0,-0.2604839252115272,-0.9097764715871344,0.040532188209236146,0.3206431633012477
-1200.4595255851746,5456.0,-2256.0,17052.0,1413.0,-768.0,2990.0,-0.21982302000391535,-0.8723068849081138,0.32120244461780034,0.295951901480308
-1200.4751133918762,5480.0,-1732.0,17052.0,909.0,-859.0,3910.0,-0.21423105526103892,-0.7134758563636563,0.6202828009845919,0.24557382627348137
-1200.4906992912292,5124.0,-812.0,16404.0,547.0,-1066.0,4501.0,-0.20285172729129328,-0.42345224331299375,0.8636157478266957,0.1835952463269927
-1200.506318807602,4872.0,-288.0,15828.0,452.0,-1250.0,4737.0,-0.15425557056815187,-0.049885173898723455,0.9814034558024758,0.10278105522296423
-1200.5219779014587,4816.0,-428.0,15044.0,421.0,-1580.0,4849.0,-0.05534696736661718,0.3415217601711772,0.9382121408602477,0.007588100904058873
-1200.537564754486,4868.0,-964.0,14904.0,393.0,-1975.0,4847.0,0.08313509224358026,0.6708460834890004,0.7304863845356209,-0.09717885939440526
-1200.5531694889069,5148.0,-1432.0,14344.0,458.0,-2554.0,4871.0,0.23467178995044102,0.867669843294376,0.3809117238161837,-0.21675897374353992
-1200.5687375068665,5536.0,-1708.0,14596.0,546.0,-2447.0,4845.0,0.33078450557763484,0.8971149483931358,-0.04200877915851723,-0.2898303688590141
-1200.58434009552,5848.0,-1644.0,14676.0,747.0,-2537.0,5106.0,0.35052805061072817,0.7469221703539491,-0.47728294447888864,-0.30238774459020523
-1200.5999681949615,6152.0,-1576.0,14744.0,770.0,-2478.0,4872.0,0.29345737360479696,0.45227751534509847,-0.8027559788418536,-0.25477570022256096
-1200.6155683994293,6116.0,-1508.0,14584.0,1408.0,-2375.0,4917.0,0.1622695704164007,0.08158562485691924,-0.9770615745110475,-0.11118926183573456
-1200.6311657428741,6072.0,-1448.0,14364.0,1692.0,-2418.0,4951.0,-0.007060850762185153,-0.3039068602110868,-0.949570721404336,0.07685186890897189
-1200.646799325943,6172.0,-1424.0,14252.0,1861.0,-2527.0,4946.0,-0.17834490454724766,-0.6215444980291909,-0.7161240305860025,0.26275826306499395
-1200.662436723709,6304.0,-1296.0,14444.0,1881.0,-2676.0,5066.0,-0.31835843195689906,-0.8018238486668051,-0.315411376207375,0.39527469975963136
-1200.6780269145966,6412.0,-948.0,14800.0,1862.0,-2729.0,5105.0,-0.38806706359786947,-0.7948831774462263,0.16077053266514416,0.43785559741778374
-1200.693611383438,6476.0,-896.0,14628.0,1989.0,-2931.0,5097.0,-0.3550342799499689,-0.5966815235141489,0.6064595229203577,0.38746440690269024
-1200.7092118263245,7080.0,-660.0,15324.0,1963.0,-2852.0,4930.0,-0.2377593810778549,-0.265531930739841,0.9010223692300777,0.2472285594628286
-1200.7248022556305,6880.0,-760.0,15512.0,1980.0,-2667.0,4788.0,-0.0762037044942294,0.11368415008773922,0.9894219446451785,0.048094957061402294
-1200.7403943538666,6900.0,-744.0,15232.0,1918.0,-2774.0,4599.0,0.11190073716330029,0.45637158466881744,0.868601887292418,-0.15727035042000737
-1200.7560493946075,6664.0,-884.0,14848.0,1712.0,-2761.0,4318.0,0.2824669928475162,0.6897145828860872,0.5843545385742993,-0.3209921577758086
-1200.7716646194458,6624.0,-1004.0,14916.0,1661.0,-2632.0,4024.0,0.39253256677044956,0.7879649957629925,0.2107720298886542,-0.42497588271976783
-1200.7872893810272,7104.0,-1272.0,15488.0,1605.0,-2378.0,3706.0,0.4289106283499279,0.7616042537689599,-0.17139930285316457,-0.4545513309967807
-1200.8028981685638,7408.0,-1480.0,15892.0,1560.0,-1987.0,3189.0,0.3977373895522513,0.6534045272372295,-0.4897480426244947,-0.41834716143835526
-1200.8184595108032,7296.0,-1204.0,16488.0,1479.0,-1418.0,2644.0,0.33538799874713937,0.5182357306211839,-0.7139762680875188,-0.3304307891400803
-1200.8340666294098,7100.0,-888.0,16184.0,1432.0,-963.0,2417.0,0.27141079289066405,0.3694897417759518,-0.8642332004684652,-0.2071581218123856
-1200.8496539592743,6888.0,-1020.0,15480.0,1553.0,-447.0,2434.0,0.22449921544203394,0.20789802887057884,-0.9509604975687075,-0.04530611351148448
-1200.8652443885803,6740.0,-1388.0,15192.0,1643.0,-387.0,2454.0,0.16678258099541282,0.033721222600343256,-0.9770800341235711,0.12791034649287697
-1200.8808705806732,6732.0,-1588.0,15308.0,1573.0,-295.0,2225.0,0.10912659737161795,-0.12629482816110918,-0.9437106312836583,0.2855717887468014
-1200.896451473236,6740.0,-1472.0,15508.0,1234.0,-499.0,1621.0,0.040591777301795195,-0.23177273304602825,-0.8850973240839473,0.4015425690151569
-1200.912397146225,6688.0,-1092.0,15352.0,874.0,126.0,969.0,0.03386627617371512,-0.30594066345080756,-0.8289739545381737,0.4669642047124676
-1200.928082704544,7224.0,-560.0,14748.0,685.0,412.0,279.0,0.07045393864733486,-0.33993964666055654,-0.7901990416172717,0.5050373786013455
-1200.943695306778,4232.0,744.0,20036.0,-58.0,1270.0,-1645.0,0.2252084069140354,-0.2782428110884833,-0.8203233903786067,0.44601754083283385
-1200.959290266037,8088.0,3000.0,22668.0,-1583.0,2607.0,-2956.0,0.4581193943179061,-0.18673514680719727,-0.8461764945814534,0.19809579883110368
-1200.974868297577,6852.0,4724.0,20876.0,-3120.0,3388.0,-4171.0,0.6414356849958963,-0.05447112285157354,-0.7318411250016646,-0.2236106583896034
-1200.9904615879059,4372.0,2900.0,16156.0,-3106.0,2754.0,-4721.0,0.6229014949577987,0.11132230004168887,-0.47281966707004525,-0.6132231531217158
-1201.006070137024,4312.0,-496.0,15768.0,-2425.0,930.0,-4443.0,0.40785532709614786,0.19385105561105986,-0.2272283044464397,-0.8628111601365434
-1201.0216603279114,5432.0,-2264.0,18664.0,-1396.0,686.0,-3396.0,0.1800657423480853,0.2499874005069314,-0.03810853809004851,-0.950594744012957
-1201.0373380184174,6596.0,-3092.0,19860.0,-1135.0,1153.0,-2696.0,-0.014471748970196983,0.32451130853871574,0.12831749720186408,-0.9370259329517425
-1201.0529310703278,5876.0,-2492.0,17200.0,-971.0,865.0,-1475.0,-0.11563240051696562,0.3742512216184672,0.2448244818825365,-0.8869194688012642
-1201.0685148239136,4396.0,-1956.0,15476.0,-984.0,426.0,-138.0,-0.10286389583677272,0.41218776282901914,0.31973960367419885,-0.8469278912336965
-1201.0841159820557,3504.0,-1380.0,16124.0,-1444.0,684.0,486.0,-0.033751971248785984,0.4840202877062527,0.39858644551718503,-0.7782763076026107
-1201.0997545719147,3288.0,4.0,16624.0,-1622.0,1224.0,556.0,0.02945367611172538,0.5814551594480638,0.47368409936342776,-0.6608068950343895
-1201.1154203414917,2740.0,2124.0,16520.0,-1643.0,1530.0,73.0,0.052794164503011276,0.6559679552720115,0.5580233660071725,-0.5054985072586372
-1201.1310217380524,2068.0,2724.0,15704.0,-1604.0,1594.0,-265.0,0.05425430731044581,0.6924437650465326,0.6388100107989476,-0.3309076494877301
-1201.146642446518,1392.0,2156.0,15468.0,-1538.0,1401.0,-886.0,0.04269052831484653,0.663415858316456,0.7293489972648844,-0.16157647698581173
-1201.1622278690338,1068.0,944.0,15540.0,-1682.0,967.0,-929.0,0.06431161553245812,0.601131738244209,0.7965556597089181,-0.0019314162656835655
-1201.1778101921082,1000.0,36.0,15692.0,-1826.0,567.0,-814.0,0.1186389784383526,0.5257922256334937,0.8292274037685367,0.1478148879435816
-1201.1934020519257,1196.0,-468.0,15884.0,-1791.0,337.0,-640.0,0.18214890945791004,0.4502080847563554,0.8272960502000077,0.2823396899601167
-1201.2090196609497,1612.0,-688.0,16052.0,-1661.0,339.0,-414.0,0.23050880619082928,0.3811373354532842,0.7987801035812907,0.40441360995237535
-1201.2246553897858,1584.0,-788.0,15928.0,-1375.0,499.0,-83.0,0.24244241035703376,0.3273840163573618,0.7568337036082714,0.5111204638601176
-1201.240255355835,1544.0,-856.0,15656.0,-1064.0,507.0,339.0,0.22298056345764933,0.3028901317227638,0.7063035965322138,0.5997269928481925
-1201.2559189796448,1472.0,-828.0,15920.0,-883.0,276.0,702.0,0.19159963472431854,0.31290473401452534,0.6435074220672221,0.6717725843983253
-1201.2715270519257,1408.0,-504.0,16128.0,-724.0,412.0,949.0,0.13180117598720764,0.3279189356772516,0.5784174273457972,0.7352080667235346
-1201.2871263027191,1584.0,116.0,16236.0,-514.0,539.0,1176.0,0.04351590275162691,0.3442049519165816,0.5140707055009222,0.7844492507674408
-1201.3027639389038,1404.0,72.0,15876.0,-471.0,549.0,1337.0,-0.05801240555085241,0.3615759749270825,0.43975023488055515,0.8200714030377049
-1201.3183763027191,1392.0,-72.0,15940.0,-531.0,477.0,1486.0,-0.1642581391181758,0.38311589515877004,0.348694851678381,0.8394363436396592
-1201.333991765976,1244.0,148.0,15788.0,-614.0,299.0,1280.0,-0.2446835765950303,0.40559620724631895,0.25445009532915874,0.8431351095755929
-1201.3496005535126,1268.0,212.0,15652.0,-699.0,20.0,1410.0,-0.3211632402593166,0.4460121253334667,0.15113359745967425,0.8216361681915894
-1201.3652079105377,1264.0,348.0,15768.0,-678.0,-174.0,1107.0,-0.369495577359761,0.48872769649663456,0.06381583160411929,0.7877472923630681
-1201.380807876587,1464.0,44.0,15960.0,-472.0,-273.0,1060.0,-0.418512588519063,0.5256022585762119,-0.005044472826201118,0.740651086763912
-1201.396394252777,1744.0,52.0,16276.0,-382.0,-390.0,889.0,-0.4567956746468766,0.5618813678283979,-0.0560353690893465,0.6873769544596429
-1201.4120705127716,2172.0,-128.0,16468.0,-314.0,-589.0,554.0,-0.4762131193067956,0.6051454627368299,-0.07830812737587282,0.6331570667030445
-1201.4276671409607,2620.0,-196.0,16652.0,-189.0,-738.0,262.0,-0.4846209559976247,0.6502572500718218,-0.07170498712037433,0.5806603418170105
-1201.4432871341705,2868.0,-304.0,16760.0,73.0,-659.0,10.0,-0.49263655408633983,0.6792487594637812,-0.04059814920206052,0.5424777770805163
-1201.4588804244995,3000.0,-392.0,16704.0,281.0,-565.0,-81.0,-0.5067503654720719,0.6930218470242688,0.0018255324457487057,0.5127586704018587
-1201.4744672775269,3020.0,-532.0,16700.0,346.0,-416.0,-158.0,-0.5199842803238593,0.6953548465450823,0.045229418977646194,0.4940164827830016
-1201.4900534152985,2936.0,-644.0,16308.0,420.0,-238.0,-204.0,-0.5352535025023846,0.6849164106366633,0.08643941474416396,0.48674575096060746
-1201.5056312084198,3024.0,-708.0,15888.0,589.0,-128.0,-3.0,-0.5686621830283961,0.6617764379623654,0.11745811924086384,0.47421393692680675
-1201.5212321281433,3112.0,-800.0,16128.0,623.0,-10.0,-75.0,-0.6006204441622901,0.6294239433731382,0.14784245025969278,0.47034369504024615
-1201.5368843078613,3224.0,-800.0,16328.0,566.0,195.0,-78.0,-0.6302363277717498,0.5897796717702846,0.16489324893804252,0.47725499094087165
-1201.5525147914886,3124.0,-752.0,16628.0,600.0,400.0,-36.0,-0.6641434615421478,0.5383697059812204,0.1693712582030145,0.49029062714601834
-1201.568091392517,2824.0,-876.0,16344.0,572.0,523.0,-63.0,-0.6945394490645472,0.48062049462626744,0.16606849795969478,0.5089598685787793
-1201.583723783493,3016.0,-864.0,16552.0,685.0,634.0,62.0,-0.7328546890848954,0.4102693734208821,0.15489702117984883,0.5202018442381068
-1201.5993270874023,2760.0,-980.0,16148.0,721.0,738.0,180.0,-0.7736650143058803,0.33147554634310333,0.13335879342575546,0.5232416650379154
-1201.6149470806122,2320.0,-1144.0,16464.0,814.0,685.0,402.0,-0.8195778649926727,0.24844266869566148,0.11201019990132485,0.5040060304237391
-1201.6306109428406,2600.0,-1328.0,16488.0,835.0,584.0,708.0,-0.8694983015851221,0.1686940852033263,0.09098056060831515,0.4552335079378472
-1201.6462268829346,2508.0,-1380.0,16556.0,935.0,340.0,1007.0,-0.9190163978494768,0.0912554591336811,0.08671643217838837,0.37357939189993383
-1201.6618037223816,2524.0,-1592.0,16636.0,1058.0,52.0,1568.0,-0.9659075033367918,0.016196161761908797,0.10287921666961404,0.2370152866785479
-1201.6773881912231,2924.0,-1884.0,16628.0,1173.0,-238.0,2154.0,-0.9874471283299794,-0.05683213405118612,0.14078751593311312,0.04355631583879489
-1201.6929776668549,3464.0,-1692.0,16868.0,1171.0,216.0,2601.0,-0.9646199779647686,-0.12254916151749475,0.1352634753469144,-0.1902466645165767
-1201.7085902690887,3360.0,-1124.0,16736.0,1278.0,431.0,2540.0,-0.886421161434229,-0.18690130659005605,0.10170299131673045,-0.4110741146238125
-1201.7241659164429,3648.0,-536.0,16404.0,977.0,740.0,2469.0,-0.7666372817350573,-0.2077907805174861,0.04830768028480109,-0.605604357490365
-1201.7398438453674,3348.0,-636.0,16436.0,1017.0,1051.0,2282.0,-0.6150607263248346,-0.20472491585661232,-0.033383703905968946,-0.7607059484937584
-1201.7554500102997,3484.0,-608.0,16464.0,768.0,1352.0,2166.0,-0.44179901286909784,-0.15804659503741747,-0.1149779877816685,-0.8755655134543888
-1201.7710819244385,3404.0,-424.0,16592.0,970.0,1457.0,1926.0,-0.25999867537217625,-0.10075544534368353,-0.21300905321604116,-0.9364166659592916
-1201.7866778373718,3444.0,-472.0,16100.0,854.0,1563.0,1822.0,-0.07273377186610479,-0.025640905662812283,-0.29476335861663194,-0.9524530984799005
-1201.8022763729095,3516.0,-700.0,16072.0,810.0,1648.0,1985.0,0.1328678524604722,0.05360601294029532,-0.3580277158698616,-0.9226530679666093
-1201.8178796768188,3084.0,-912.0,15948.0,742.0,1543.0,2194.0,0.34433306185499346,0.11448531319233805,-0.3983517258079944,-0.8424035601317279
-1201.8335628509521,3124.0,-1120.0,15628.0,601.0,1240.0,2478.0,0.5472037566314882,0.13342545351819118,-0.41725813878573237,-0.7132049794406364
-1201.8491714000702,2952.0,-1272.0,15580.0,502.0,829.0,2608.0,0.7132544368012451,0.11069241939981805,-0.42670110444652587,-0.5449233562023822
-1201.864765405655,2936.0,-740.0,15488.0,491.0,405.0,2753.0,0.8297662933257586,0.056202611703537554,-0.4381189559266237,-0.34114651596623125
-1201.8803539276123,3408.0,-464.0,15992.0,383.0,145.0,2797.0,0.8901227410856241,-0.018222616988329856,-0.4393576018142304,-0.11964254995761196
-1201.8960134983063,3716.0,-320.0,16248.0,321.0,68.0,2708.0,0.8965609915157419,-0.09380542851528814,-0.4211279432348804,0.10015081377668524
-1201.9118642807007,3752.0,-52.0,16384.0,8.0,34.0,2405.0,0.8582505471469529,-0.17793089267365653,-0.38999580022291935,0.2822230882879647
-1201.9275388717651,3912.0,232.0,15876.0,230.0,94.0,1990.0,0.8038859056704577,-0.2271632319481014,-0.3410256955121192,0.43112155097577354
-1201.9431083202362,3968.0,556.0,15924.0,46.0,37.0,1325.0,0.7511286263089219,-0.26283206733980197,-0.30822997436913924,0.5212670851085435
-1201.958688735962,4032.0,624.0,15848.0,-288.0,-115.0,696.0,0.708301236271526,-0.29435972019617174,-0.31210431822308,0.5605823832129988
-1201.9742872714996,4036.0,408.0,15804.0,-679.0,-110.0,228.0,0.6754610551789028,-0.3363064763619468,-0.34548171548036694,0.5579361084948322
-1201.9899399280548,4012.0,-472.0,15624.0,-661.0,17.0,-259.0,0.6680102631289399,-0.36741998451129676,-0.383446783335594,0.5212805460457054
-1202.0055446624756,3888.0,-1368.0,15676.0,-510.0,141.0,-651.0,0.6842714204896175,-0.3806124430487211,-0.41810005799000766,0.4605422160957205
-1202.0211727619171,3620.0,-1940.0,16340.0,155.0,134.0,-616.0,0.7180258733167725,-0.353554604309642,-0.42355162129187074,0.4243135764033087
-1202.0367755889893,3484.0,-1740.0,16760.0,3.0,116.0,-379.0,0.7361101476542434,-0.3433114743872505,-0.42750024122010594,0.396891201503953
-1202.0523707866669,3716.0,-1372.0,17128.0,182.0,217.0,25.0,0.7486708750438714,-0.3398287242717251,-0.4062639284927549,0.39869534663265055
-1202.0679802894592,3908.0,-924.0,16888.0,116.0,267.0,374.0,0.7480323309727196,-0.35435458611641746,-0.37325525509458657,0.41899996857047295
-1202.0835857391357,3692.0,-772.0,16544.0,-15.0,291.0,484.0,0.7385587653344414,-0.3811269788080091,-0.3393191704648444,0.440608303062249
-1202.0992183685303,3696.0,-688.0,16220.0,22.0,256.0,506.0,0.7266291881083715,-0.4038798381492994,-0.30467685819719253,0.46482589364680676
-1202.1148507595062,3588.0,-620.0,16108.0,50.0,186.0,396.0,0.7168476874716732,-0.4183039788123744,-0.2766141860367265,0.4843921617444797
-1202.130470275879,3532.0,-828.0,15860.0,72.0,-255.0,260.0,0.7020614411635518,-0.4088993897742688,-0.2798244971261924,0.5114775387850972
-1202.1460592746735,3440.0,-952.0,15808.0,195.0,-180.0,63.0,0.7017129934707098,-0.3901583527031321,-0.2797554298389432,0.5264145078604711
-1202.1616401672363,3416.0,-1272.0,15688.0,335.0,-333.0,-13.0,0.7050844455949913,-0.3535300512453496,-0.28488777203993826,0.5447122036347124
-1202.1772377490997,3828.0,-792.0,15856.0,541.0,-400.0,-21.0,0.7116950620946223,-0.2999771928502666,-0.28386037358539185,0.5682667601292261
-1202.1928825378418,3604.0,-436.0,16140.0,596.0,-432.0,-50.0,0.7176760195059824,-0.23958400833828525,-0.2817546048535867,0.5900465885151854
-1202.208524942398,3692.0,-512.0,16508.0,538.0,-385.0,-44.0,0.7206007163775031,-0.18445176205232452,-0.2784882575965621,0.6075824597639837
-1202.2241322994232,3848.0,-300.0,16356.0,406.0,-320.0,252.0,0.70518841848285,-0.14767198634863735,-0.2725323101850648,0.6376742262242502
-1202.2397630214691,3660.0,-560.0,16216.0,414.0,-277.0,247.0,0.6894531994808194,-0.11230881799190064,-0.2628726480049288,0.6655366151143005
-1202.2553615570068,3496.0,-848.0,15840.0,523.0,-388.0,-1.0,0.6846995005383884,-0.057982037268436565,-0.2552421257082434,0.6802030098291393
-1202.2709565162659,3376.0,-1068.0,15436.0,550.0,-530.0,12.0,0.6735327047203494,0.006235273864329456,-0.2534039959733314,0.6943351005506457
-1202.286623954773,3384.0,-1084.0,16096.0,544.0,-522.0,79.0,0.6555336199413451,0.0680303843305594,-0.25034164376277174,0.7092084329254597
-1202.3022058010101,3472.0,-1156.0,16336.0,598.0,-382.0,89.0,0.6369464276673693,0.12367706158326405,-0.23497045146586798,0.7237348407102095
-1202.317859172821,3440.0,-1012.0,16616.0,697.0,-328.0,175.0,0.6102472772886549,0.17901264619678786,-0.21031219400807344,0.7425102787941172
-1202.3334512710571,3408.0,-964.0,16232.0,661.0,-320.0,228.0,0.5780193200421424,0.23006363925922702,-0.18746108805728437,0.7601465174643629
-1202.3490362167358,3392.0,-860.0,16020.0,475.0,-206.0,219.0,0.54996475737151,0.2635675733194792,-0.17038786867763855,0.7739760165220038
-1202.364649772644,3372.0,-608.0,16008.0,324.0,-134.0,231.0,0.5246058040917502,0.28431086317422277,-0.16002149610656025,0.7863518323105726
-1202.3802406787872,3360.0,-460.0,16288.0,270.0,-159.0,461.0,0.4835167965979119,0.3005560863584607,-0.1599166551311596,0.8064144156525482
-1202.395857334137,3536.0,-488.0,16624.0,197.0,-212.0,211.0,0.4603563871244609,0.32045775949667055,-0.16035490234399108,0.8121977139258252
-1202.4115216732025,4088.0,-592.0,16540.0,38.0,-321.0,185.0,0.44149434680116545,0.34174096965045264,-0.17555365109558715,0.8108494107983242
-1202.4271068572998,3832.0,-516.0,16200.0,-9.0,-336.0,16.0,0.4353387797139933,0.36455524735536554,-0.1894413088088703,0.8010565579405624
-1202.4426996707916,3720.0,-724.0,15900.0,-250.0,-350.0,-154.0,0.44796296503221056,0.3815626392350422,-0.21506310476665616,0.7794145208216653
-1202.4582896232605,3652.0,-700.0,16052.0,137.0,-329.0,-297.0,0.45710482202268093,0.4143437060579646,-0.20845250991760955,0.7588952668470224
-1202.473879814148,3624.0,-708.0,16284.0,289.0,-298.0,-370.0,0.46524344069426554,0.45162517647090067,-0.18752047300775784,0.7378477573805697
-1202.4895043373108,3672.0,-672.0,16536.0,373.0,-190.0,-492.0,0.4784087147973995,0.48610373163188114,-0.1515218191103956,0.7154504888760206
-1202.5051243305206,3672.0,-572.0,16792.0,366.0,52.0,-617.0,0.5011638053181185,0.5051206644724404,-0.100082606038859,0.695464899567515
-1202.5207471847534,3820.0,-288.0,16952.0,406.0,391.0,-639.0,0.5240741137831901,0.5031498681391202,-0.03006338995092772,0.6865003467141209
-1202.5363461971283,3456.0,-108.0,17196.0,386.0,760.0,-839.0,0.5564184670994292,0.4746950494680213,0.06431467411581757,0.6789158432196516
-1202.5519483089447,3068.0,384.0,17284.0,424.0,1167.0,-1216.0,0.5975763686671405,0.41436934433879236,0.19422614708228597,0.658389500123144
-1202.5675530433655,2416.0,524.0,17112.0,533.0,1405.0,-1661.0,0.6379190959056548,0.32690803726409356,0.3514514122588923,0.6022227719642294
-1202.5831587314606,2248.0,132.0,16700.0,599.0,1676.0,-1550.0,0.6375786617760272,0.21988780202162975,0.5096368149613542,0.5342406961342737
-1202.5987944602966,2116.0,-176.0,17144.0,553.0,2016.0,-1958.0,0.6099076657570272,0.06742621578724073,0.6646108724986907,0.426331716896545
-1202.6144580841064,1544.0,-256.0,17588.0,514.0,2404.0,-2085.0,0.5247291901658622,-0.11132210701151003,0.7931081996546118,0.2885239142931079
-1202.630050420761,1432.0,156.0,17224.0,594.0,2883.0,-2149.0,0.36698810264517906,-0.2911258295310918,0.8759400934716923,0.11530150278954836
-1202.645643234253,1088.0,344.0,16820.0,671.0,3210.0,-2216.0,0.15212563375627094,-0.4455412347459652,0.8782621607364204,-0.08370410213297486
-1202.6612300872803,532.0,384.0,16200.0,749.0,3303.0,-2409.0,-0.08418865018088688,-0.5604074877346057,0.7736115012510619,-0.2835153681968333
-1202.6768493652344,428.0,460.0,15740.0,869.0,3134.0,-2607.0,-0.2986993370069772,-0.6251713989075418,0.5652594281015927,-0.4476842715595887
-1202.6924421787262,352.0,444.0,15860.0,1076.0,2859.0,-2569.0,-0.45467796580226244,-0.631000943568923,0.2912443354105537,-0.5570300653647973
-1202.7080578804016,20.0,364.0,15616.0,1254.0,2493.0,-2573.0,-0.5450117669154604,-0.5931396411508829,-0.009918870976774836,-0.592494013486749
-1202.7236890792847,40.0,536.0,15240.0,1438.0,1966.0,-2700.0,-0.580050135230035,-0.5312587461203225,-0.3027290631932407,-0.5382017275970262
-1202.7393000125885,396.0,740.0,15144.0,1614.0,1652.0,-2436.0,-0.5528373826155263,-0.45188197939288827,-0.5518990049801029,-0.4307911250069476
-1202.754897594452,1272.0,864.0,15324.0,1744.0,1476.0,-2167.0,-0.4768285080515163,-0.36264264493251547,-0.7464379530669469,-0.2897503549729335
-1202.7705035209656,1416.0,1220.0,15352.0,1674.0,1244.0,-2163.0,-0.3845559400774511,-0.2513990558963577,-0.8792518511723614,-0.12582299414472456
-1202.7860934734344,1588.0,1340.0,15776.0,1427.0,1143.0,-2380.0,-0.2821863623008891,-0.10067482628307861,-0.953335885141236,0.03723071831484751
-1202.8016757965088,1400.0,1704.0,16084.0,1098.0,1149.0,-2654.0,-0.1625095827612403,0.0863202756155733,-0.9667595591666454,0.1775257735888866
-1202.817494392395,1156.0,1864.0,15728.0,935.0,984.0,-2979.0,-0.038812354569267855,0.2973118261879481,-0.9074467363302593,0.2943462244791625
-1202.8331549167633,936.0,1664.0,15620.0,772.0,841.0,-3281.0,0.0881148529510046,0.5100509725955943,-0.7706323420222339,0.37176547913037605
-1202.8487713336945,616.0,1092.0,15876.0,1143.0,742.0,-3385.0,0.18771817642955002,0.6883811075630779,-0.5498650208923209,0.434213997686949
-1202.864375114441,428.0,640.0,15912.0,1316.0,581.0,-3129.0,0.24435733362986198,0.8025954944005417,-0.2896020573485061,0.4607174993949838
-1202.879981994629,508.0,468.0,15744.0,1471.0,74.0,-2615.0,0.24026963369854012,0.8677707258083538,-0.04414303711827576,0.43277692039477694
-1202.8955738544464,404.0,292.0,15400.0,1291.0,-10.0,-2279.0,0.22282442735879454,0.8812245311260903,0.17260587547825482,0.37947307159298216
-1202.9111776351929,40.0,376.0,15432.0,888.0,-535.0,-1518.0,0.2102101600958858,0.8820344677625057,0.3044894640389787,0.29174141385931335
-1202.9269170761108,-452.0,808.0,15904.0,571.0,-882.0,-1237.0,0.2190444044770866,0.8733548783150223,0.3941515140590056,0.18416131340654684
-1202.9425179958344,-304.0,1264.0,16204.0,555.0,-1022.0,-1207.0,0.22890552688692975,0.8498075259907579,0.4705387674260759,0.06342473397053659
-1202.9581797122955,-512.0,1516.0,16224.0,632.0,-1132.0,-1294.0,0.23277171781246256,0.8053125587595159,0.5405405031401485,-0.07144910465381281
-1202.973829984665,-528.0,1712.0,16060.0,602.0,-1393.0,-1525.0,0.24247724163319137,0.7242254807174819,0.6050997015311536,-0.22484792989129304
-1202.9894800186157,-320.0,1824.0,16196.0,460.0,-1680.0,-1653.0,0.2639991295174321,0.6006012362772959,0.6508490010365079,-0.38207092593653574
-1203.0051054954529,-316.0,1536.0,16252.0,297.0,-1933.0,-1607.0,0.2975229009290495,0.4410065698922452,0.6645790521042424,-0.5247170782801583
-1203.0207252502441,-176.0,1420.0,16588.0,163.0,-2163.0,-1436.0,0.34228680827632746,0.2562946363063693,0.6398544670658017,-0.6385444865132963
-1203.0364968776703,32.0,1208.0,17108.0,89.0,-1992.0,-1111.0,0.3821641835821631,0.08417439013937004,0.5885460126720412,-0.7074452627585298
-1203.0522832870483,-36.0,928.0,17384.0,186.0,-1685.0,-713.0,0.4180287896626361,-0.04968370286042633,0.5192842883069028,-0.7437252776401121
-1203.0679383277893,-160.0,700.0,16996.0,412.0,-1500.0,-204.0,0.47022246982637533,-0.1399449968000577,0.4326972213088426,-0.7563592674203323
-1203.083518743515,-228.0,704.0,16928.0,688.0,-1606.0,447.0,0.5619210427514575,-0.1983377381086416,0.32264544112050275,-0.7353956776315856
-1203.0990717411041,-500.0,504.0,16508.0,702.0,-1957.0,1373.0,0.7009821092149475,-0.24499381450325225,0.2004837255084332,-0.639068376014624
-1203.1146762371063,-332.0,-40.0,16536.0,605.0,-2407.0,2277.0,0.8472527007202783,-0.28991605020800076,0.0652397305225838,-0.440290043625026
-1203.1302547454834,404.0,-716.0,16740.0,267.0,-3052.0,2976.0,0.9237368341486172,-0.3469321520321438,-0.08946108553259889,-0.13544392676958508
-1203.1458241939545,1032.0,-932.0,17480.0,892.0,-3664.0,3473.0,0.8792827663695396,-0.315102202456979,-0.26490045516891225,0.2395833208376443
-1203.1614093780518,2004.0,-840.0,19004.0,1433.0,-3938.0,3833.0,0.6698103809377989,-0.18923508829172397,-0.3867180653570559,0.6049737786662163
-1203.1770055294037,3056.0,-748.0,19848.0,1910.0,-3805.0,4042.0,0.32000099563495493,-0.011524565660844524,-0.3928078820759243,0.8620722214281082
-1203.1926136016846,4228.0,-356.0,20144.0,2155.0,-3029.0,4162.0,-0.08522284365758148,0.12043105928854825,-0.2794537125531272,0.9487565806980355
-1203.208197593689,5552.0,728.0,20012.0,2295.0,-1874.0,3807.0,-0.4334082009147659,0.15271466197971753,-0.10618228144662431,0.8817941293198975
-1203.2239036560059,6232.0,1344.0,18924.0,2128.0,-408.0,2989.0,-0.6620179495657639,0.07223303710183084,0.03187641008083822,0.7453177290821312
-1203.2394950389862,6888.0,2160.0,17312.0,1777.0,690.0,1842.0,-0.7744596991246769,-0.0683010404754693,0.09382037226793127,0.6218881571867967
-1203.2551143169403,7704.0,2052.0,15756.0,1020.0,1115.0,415.0,-0.7927022811664308,-0.19230913688689832,0.07579254188266789,0.5734943590815144
-1203.270697593689,7940.0,1500.0,15364.0,-54.0,1140.0,-1077.0,-0.7404219017780966,-0.25015760593715825,-0.023486406318438947,0.6234139622091738
-1203.2862730026245,7748.0,436.0,17100.0,-456.0,663.0,-3213.0,-0.5516908691791491,-0.2401033563981765,-0.15481894803917348,0.7835934254693111
-1203.3018317222595,7656.0,-8.0,19932.0,-645.0,468.0,-5228.0,-0.18283459902364638,-0.15452062304998584,-0.3004244869470434,0.9232767808705645
-1203.3174390792847,7672.0,-512.0,21600.0,-789.0,1221.0,-6699.0,0.324719326582682,-0.05533000629046284,-0.40647021146129614,0.8522194063398204
-1203.333016872406,7920.0,-360.0,20184.0,-589.0,2435.0,-7381.0,0.7915377498814786,0.007321603102662347,-0.34453681923340934,0.5046867987505698
-1203.3485660552979,7660.0,-96.0,16988.0,-492.0,3108.0,-7259.0,0.9916374415710683,0.04513633769340988,-0.12064506662437705,-0.007916021299405954
-1203.3641574382782,6120.0,324.0,14728.0,-1266.0,2880.0,-7146.0,0.844636087208963,0.01047361702165898,0.1299988025689656,-0.5192114163435274
-1203.3797643184662,5876.0,416.0,13272.0,-2478.0,2190.0,-6752.0,0.43154331932985335,-0.12513735163111286,0.34246949861391995,-0.8251215966678207
-1203.3953471183777,5172.0,-272.0,13116.0,-3555.0,1285.0,-6236.0,-0.07998613080847673,-0.29775392159803415,0.488075613683866,-0.816533536591363
-1203.410926103592,5144.0,-1988.0,13536.0,-3991.0,1166.0,-5620.0,-0.5411979731164227,-0.3637900514398399,0.5276816311813826,-0.5443469927186427
-1203.426569700241,5240.0,-3532.0,14544.0,-3811.0,1491.0,-4389.0,-0.8322459785402496,-0.2790071565796905,0.4418981111743456,-0.18506133340448008
-1203.4421544075012,5404.0,-4320.0,15312.0,-3567.0,1988.0,-3538.0,-0.9524028636161765,-0.11221736536099988,0.2431433509800813,0.14566179719239927
-1203.4577586650848,5224.0,-4448.0,15172.0,-2594.0,2172.0,-2245.0,-0.9382081666126351,0.026796506649448822,0.007108347687187496,0.34495920733602997
-1203.4733605384827,4960.0,-3648.0,14284.0,-1979.0,1742.0,-1547.0,-0.8580852869617167,0.13110639094773852,-0.18481460402860964,0.460808329666723
-1203.4889414310455,4724.0,-2560.0,13896.0,-1465.0,1357.0,-1042.0,-0.7629774496014844,0.19928158623049338,-0.3268921147795909,0.5208587198886079
-1203.50452876091,4508.0,-1520.0,14400.0,-954.0,821.0,-772.0,-0.6822851927997725,0.2454616814227082,-0.40790733200122387,0.5548396949921279
-1203.5201172828674,4652.0,-332.0,14604.0,-520.0,475.0,-675.0,-0.6193615582647446,0.276420712270003,-0.4451168294079159,0.584682698692082
-1203.535739183426,4536.0,152.0,15256.0,-255.0,165.0,-890.0,-0.5595481651735912,0.31526027588453115,-0.4439131940640778,0.6248662940468988
-1203.551306962967,4468.0,64.0,14952.0,-32.0,-315.0,-969.0,-0.516023741127133,0.37003623195876145,-0.4018549061655076,0.6597767198239344
-1203.5668914318085,4812.0,-504.0,15416.0,177.0,-668.0,-701.0,-0.5029808882523585,0.42349083040456986,-0.33752479120793877,0.6736043036799527
-1203.58247423172,5116.0,-1168.0,16508.0,577.0,-165.0,-599.0,-0.49263387539598436,0.4242441397701207,-0.2733111304674494,0.7089638923426558
-1203.5980761051178,4704.0,-1308.0,16604.0,1116.0,714.0,-444.0,-0.4858731994445814,0.34000805510776017,-0.2167511233690697,0.7754616090056108
-1203.6136593818665,3620.0,-1576.0,16216.0,1597.0,1343.0,-573.0,-0.46093722457359654,0.18871548821203438,-0.14585148312355217,0.8547810739493145
-1203.6293337345123,2172.0,-564.0,15612.0,1556.0,1522.0,-591.0,-0.4151287174678403,0.019546795605623647,-0.07949885900198175,0.9060717422657221
-1203.6449024677277,1608.0,680.0,15184.0,1142.0,357.0,-410.0,-0.3798650981350764,-0.046873811323708534,-0.0011032205357707546,0.9238528756978934
-1203.6605024337769,812.0,1296.0,15256.0,587.0,-708.0,-680.0,-0.32111877649541565,-0.00889916958417832,0.06679975550611317,0.9446381999618281
-1203.6760942935944,24.0,1680.0,17236.0,-123.0,-1395.0,-1182.0,-0.2129354982155925,0.10128154442956849,0.09333739148113236,0.9673100091021164
-1203.691769361496,1088.0,2184.0,18776.0,-1168.0,-1646.0,-2047.0,-0.015894113939963806,0.23761475255922615,0.04200934011228899,0.9703204737877127
-1203.7073640823364,3104.0,2708.0,19396.0,-1486.0,-1042.0,-3234.0,0.27843262309686834,0.30043711554088154,-0.014530539278508392,0.9121412595805256
-1203.7229752540588,4100.0,2296.0,17864.0,-911.0,286.0,-4192.0,0.595876113803826,0.2439661579003673,0.027974423338922243,0.7646107522368736
-1203.7386240959167,2736.0,100.0,15632.0,-217.0,1231.0,-4028.0,0.8129888425581395,0.1317877938193186,0.15311778168240392,0.5461099378411575
-1203.754222869873,2172.0,-1280.0,14236.0,636.0,978.0,-2903.0,0.8981588706224348,0.08814525123246554,0.27585998141938944,0.33082068928453057
-1203.7698004245758,2668.0,-2356.0,13772.0,900.0,186.0,-1598.0,0.9211427228263238,0.11331024089596128,0.324303868358,0.18298599525713097
-1203.7853827476501,3284.0,-2364.0,14064.0,597.0,-148.0,-621.0,0.9267453847323703,0.14558465855974667,0.3269036325414623,0.11437706981947703
-1203.8009660243988,3908.0,-1788.0,14476.0,81.0,-454.0,68.0,0.9372990104367293,0.15838810377190943,0.2896596734031566,0.11171860732144707
-1203.8165409564972,3892.0,-808.0,14872.0,-179.0,-808.0,685.0,0.949424294532343,0.16810973079072586,0.21117563410756954,0.160429046386552
-1203.832147359848,3704.0,-232.0,15188.0,-179.0,-1083.0,1021.0,0.9496657163589473,0.18555953130949754,0.10281197934499273,0.23050462992272377
-1203.8477647304535,3576.0,392.0,15800.0,-231.0,-1431.0,1295.0,0.9269680904764442,0.20373483712429485,-0.041074380403930126,0.3123062129622544
-1203.8633244037628,4028.0,900.0,16316.0,175.0,-1772.0,1438.0,0.8613228582934597,0.2557064760832853,-0.20138205225122643,0.39010562787703706
-1203.8788924217224,4212.0,1000.0,16732.0,244.0,-1239.0,1639.0,0.7659954797579568,0.28263611619147594,-0.31754182076347465,0.48221877076778497
-1203.8944487571716,3764.0,652.0,17016.0,286.0,-772.0,1444.0,0.6698501066623169,0.2910391097258995,-0.38851573596770383,0.5618296842637559
-1203.9100511074066,3016.0,404.0,17616.0,173.0,-124.0,1095.0,0.604779363147477,0.2687192511002042,-0.4129841185876467,0.6256804326439033
-1203.9256796836853,3064.0,616.0,18020.0,-22.0,689.0,764.0,0.5861247545216047,0.20148331048590556,-0.39397060542569584,0.6787115807124107
-1203.9413752555847,2876.0,1228.0,18160.0,-79.0,1349.0,-225.0,0.6427208131501198,0.12430827040974814,-0.32316315478945623,0.6833908000828749
-1203.9569444656372,3460.0,1628.0,17112.0,125.0,1618.0,-802.0,0.7258936028669113,0.056711199966688164,-0.2133302042047299,0.6514234729338522
-1203.9725778102875,3748.0,1388.0,16076.0,195.0,1508.0,-1026.0,0.801177624444319,0.002495302337468717,-0.1000650150010645,0.5899959155187764
-1203.989099264145,3632.0,580.0,15332.0,266.0,1263.0,-888.0,0.8499887134260338,-0.035529369289582884,0.00217508141977353,0.52559691778687
-1204.0047311782837,3792.0,-436.0,15076.0,142.0,782.0,-766.0,0.8813648072668298,-0.06053125665534758,0.06376379471532544,0.4641833925968598
-1204.020367860794,3172.0,-1060.0,15296.0,-140.0,528.0,-194.0,0.8844559049782844,-0.09351677955486756,0.09726178055946055,0.44669062015351674
-1204.0360085964203,2932.0,-752.0,15768.0,-363.0,803.0,251.0,0.8622014173597714,-0.15007421808421723,0.1464067315880904,0.4611415334958508
-1204.0515928268433,3040.0,172.0,16176.0,-420.0,933.0,-44.0,0.8432675976035587,-0.21873219785473957,0.19812820453471233,0.4492228834569861
-1204.0672597885132,2908.0,888.0,16332.0,-426.0,933.0,-14.0,0.8163771025682539,-0.2855806327105204,0.24865897372066492,0.4360514228976982
-1204.0828363895416,3004.0,1096.0,16240.0,-410.0,682.0,-262.0,0.7992902205654434,-0.3453491621926219,0.27424004305837585,0.4082419604409118
-1204.0984575748444,2868.0,676.0,16344.0,-359.0,346.0,-624.0,0.8005775858890517,-0.3965464429699121,0.265998668391956,0.3620375062803226
-1204.1140222549438,2856.0,136.0,16176.0,-435.0,-71.0,-552.0,0.8031881335189465,-0.43654043434238715,0.22763048701987593,0.3354185933093233
-1204.129632949829,3052.0,-264.0,16304.0,-522.0,-348.0,-309.0,0.7978757409100186,-0.4680649673127372,0.17573883314315503,0.33678680343400874
-1204.145204782486,2768.0,-384.0,16344.0,-508.0,-436.0,-198.0,0.7882705632796093,-0.49258965979923314,0.12203329132868489,0.3479839391885946
-1204.1607768535614,2704.0,-312.0,16448.0,-439.0,-369.0,-41.0,0.7737015632061743,-0.5112135870532242,0.08137337659019955,0.36527377826338325
-1204.1763398647308,2644.0,-120.0,16144.0,-359.0,-385.0,1.0,0.7596866249041921,-0.5224559289757831,0.04387030330125622,0.3846965436652438
-1204.1919605731964,2680.0,-60.0,15828.0,-312.0,-258.0,-53.0,0.74785467016519,-0.5341763435557623,0.013817530577482792,0.3939265187141521
-1204.2075481414795,2740.0,144.0,15688.0,-329.0,-738.0,-201.0,0.7384679021186743,-0.5289547076689193,-0.05492965329501911,0.4145537455677142
-1204.2231409549713,3060.0,164.0,15968.0,-394.0,-846.0,-410.0,0.7282796885284175,-0.5195474327546835,-0.14210252101479398,0.42365792087037457
-1204.23872256279,3036.0,156.0,16052.0,-503.0,-1051.0,-798.0,0.7166204564590645,-0.49881253118582025,-0.26171290553569343,0.41127549792379126
-1204.2542977333069,3248.0,240.0,16344.0,-649.0,-1112.0,-1139.0,0.6961635070492465,-0.46807493405823425,-0.3996487565365177,0.36951738654370303
-1204.269880771637,3376.0,228.0,16812.0,-812.0,-1082.0,-1218.0,0.65640656427075,-0.4344575321295016,-0.5345879699910242,0.30755938857249776
-1204.2854931354523,3384.0,112.0,16552.0,-884.0,-974.0,-1348.0,0.6056039564532194,-0.3907273495906412,-0.6563746924823821,0.22304315564199362
-1204.301087141037,3420.0,-220.0,16352.0,-774.0,-837.0,-1264.0,0.5499293826500442,-0.3391490670477112,-0.7505043687759871,0.13892003767263178
-1204.3167102336884,3300.0,-448.0,16152.0,-563.0,-746.0,-1096.0,0.49389210397373856,-0.2830653329532483,-0.8190902210323959,0.07096348865128706
-1204.3323242664337,3192.0,-576.0,16144.0,-391.0,-631.0,-866.0,0.4423838039198714,-0.23292328894133466,-0.8657917558283148,0.021164759338580637
-1204.347907781601,3036.0,-500.0,16332.0,-201.0,-691.0,-716.0,0.38596792995097884,-0.1845604202394403,-0.9038299158030603,-0.0075955006306632255
-1204.3634753227234,2808.0,-412.0,15876.0,-145.0,-883.0,-594.0,0.3122771705701214,-0.14253447432074118,-0.9389121123708162,-0.02471715222676601
-1204.3790724277496,2576.0,-24.0,16088.0,-154.0,-1171.0,-442.0,0.21221179333868775,-0.11235058899015657,-0.9701264338696155,-0.03461505783565002
-1204.441413640976,3272.0,-324.0,16016.0,-258.0,-1727.0,-116.0,0.06240356359028277,-0.11123446826095706,-0.9909767714034561,-0.04120348117232174
-1204.4569890499115,3456.0,-364.0,16208.0,-228.0,-1733.0,-177.0,-0.08929313294557371,-0.10220396719939452,-0.9897456314489019,-0.04454964113529433
-1204.4725723266602,3360.0,-312.0,16276.0,-184.0,-1700.0,-219.0,-0.23600714488114793,-0.0874751594157102,-0.9668461759776047,-0.043095197501897844
-1204.4881477355957,3388.0,-104.0,16228.0,-160.0,-1683.0,-318.0,-0.37627429404982704,-0.06296500096626544,-0.9236338194246781,-0.0367917369201766
-1204.5037784576416,3392.0,-176.0,16136.0,-178.0,-1713.0,-345.0,-0.5105527811220656,-0.03440037115305771,-0.8586322911112786,-0.030050970268071377
-1204.5193634033203,3428.0,-324.0,16240.0,-115.0,-1742.0,-348.0,-0.6348213963904282,-0.007667159206995404,-0.7724176207314715,-0.01772085037841024
-1204.534924030304,3348.0,-428.0,16372.0,-76.0,-1723.0,-351.0,-0.7429485933452342,0.017344304695432012,-0.6691200585488367,-0.0022158494017000107
-1204.550499677658,3444.0,-316.0,16584.0,-65.0,-1692.0,-407.0,-0.8322763997590321,0.044492554116736936,-0.5522915225594289,0.017620475058884862
-1204.5660600662231,3504.0,-256.0,16376.0,-63.0,-1704.0,-469.0,-0.9028446339262036,0.0734221095889792,-0.4216091776158992,0.04155071797464785
-1204.5816204547882,3524.0,-160.0,16404.0,-58.0,-1610.0,-493.0,-0.9497878927747555,0.10086348947763422,-0.288459615073781,0.0672351522670297
-1204.5971796512604,3596.0,-100.0,16344.0,-25.0,-1457.0,-497.0,-0.9746235355695575,0.12283582875446103,-0.16173031779048858,0.09414683954062213
-1204.6127450466156,3552.0,-120.0,16308.0,5.0,-1472.0,-472.0,-0.9826961334680403,0.13978768334709252,-0.030857591258307063,0.11753944832757997
-1204.6283295154572,3656.0,-28.0,16296.0,-28.0,-1369.0,-271.0,-0.9760544743141512,0.15559875468750958,0.0891488738643812,0.12312257713244495
-1204.6439468860626,3716.0,-476.0,16348.0,3.0,-1258.0,-70.0,-0.9598088680594841,0.16700114028668614,0.1961607573771147,0.11134861113887083
-1204.659526348114,3736.0,-528.0,16384.0,58.0,-1111.0,110.0,-0.9383321860995457,0.17375891457708362,0.2866829385077448,0.08457801666630389
-1204.6751074790955,3844.0,-272.0,16632.0,91.0,-947.0,263.0,-0.9146740922594748,0.17904610338434157,0.3594084462660474,0.046253287070382204
-1204.6906759738922,3948.0,-392.0,16448.0,80.0,-729.0,393.0,-0.8924041413695813,0.18731103816302588,0.41052215887911625,0.0009902110579373187
-1204.706247806549,4056.0,-332.0,16348.0,150.0,-552.0,411.0,-0.8735781585736703,0.18993273666970595,0.4457940580901593,-0.045325645893900285
-1204.7218179702759,4136.0,-372.0,16392.0,218.0,-260.0,397.0,-0.8647200819492288,0.18743421847844588,0.4575283497591676,-0.08829157821528734
-1204.7374367713928,4192.0,-392.0,16516.0,290.0,-11.0,382.0,-0.865433111137392,0.18045967734979074,0.44930860500584185,-0.1287696100233608
-1204.7530057430267,4216.0,-472.0,16348.0,323.0,222.0,289.0,-0.8752942714714202,0.16963402651035484,0.42379651353738307,-0.15962691030261336
-1204.7685673236847,3976.0,-188.0,16200.0,338.0,335.0,252.0,-0.8882998327428872,0.1575132016249927,0.38914835885631693,-0.1862164151256232
-1204.7841079235077,3852.0,-224.0,16240.0,332.0,343.0,178.0,-0.9008272657714078,0.14312714304970928,0.354167023459948,-0.20637484744696458
-1204.7997057437897,3680.0,-160.0,16132.0,332.0,234.0,121.0,-0.9094984077893145,0.12475696376546308,0.3278500280702371,-0.22307555965427878
-1204.8152866363525,3528.0,-92.0,15976.0,286.0,116.0,146.0,-0.9127730932914327,0.10830006646578015,0.3111338667350677,-0.24147896955466322
-1204.8308837413788,3460.0,-80.0,16004.0,175.0,31.0,26.0,-0.9146963787728212,0.09556420846174013,0.30447305310062855,-0.24798019408120212
-1204.8464524745941,3460.0,-128.0,15936.0,107.0,-148.0,-34.0,-0.9123611378343325,0.08276806340095881,0.3139893887086605,-0.24931358893742386
-1204.8620293140411,3488.0,-200.0,16004.0,129.0,-330.0,-74.0,-0.9055008012132681,0.0631371436536699,0.33759520866832154,-0.24922173897470784
-1204.8776097297668,3492.0,-204.0,16108.0,139.0,-454.0,-61.0,-0.8935350846706788,0.04035521759078801,0.3702304752417841,-0.25079055819150287
-1204.893187046051,3500.0,-240.0,15972.0,127.0,-554.0,-50.0,-0.8761935176107687,0.016630811638739404,0.41009290636370893,-0.25265024035466666
-1204.9087569713593,3812.0,-132.0,16108.0,44.0,-636.0,10.0,-0.8520649083885922,-0.0004357802795260532,0.45682092215576653,-0.2555383475508971
-1204.9244012832642,3908.0,-244.0,16236.0,58.0,-669.0,-251.0,-0.8294791661308918,-0.029639145090064264,0.5040835855611904,-0.23871651137050573
-1204.9400687217712,4044.0,-336.0,16256.0,42.0,-648.0,36.0,-0.7989409931240958,-0.04452484317089397,0.5491489346352444,-0.24113538818569674
-1204.9556548595428,4076.0,-388.0,16164.0,72.0,-539.0,52.0,-0.770972626365052,-0.05832496837244712,0.5845914090725887,-0.2458704778916169
-1204.9712677001953,4008.0,-420.0,16096.0,185.0,-494.0,164.0,-0.7405599663352926,-0.07291326250839132,0.6138326318721998,-0.2635604152005775
-1204.986822605133,4044.0,-280.0,16196.0,162.0,-477.0,228.0,-0.7080173776240551,-0.08203670078684913,0.6415015389612179,-0.2836496927845226
-1205.0024275779724,4068.0,-288.0,16348.0,188.0,-480.0,222.0,-0.673602319148174,-0.09298736430879849,0.6671693159649456,-0.3041354460630511
-1205.0180025100708,3972.0,-300.0,16112.0,130.0,-461.0,196.0,-0.6399549551272844,-0.10134186572805852,0.6915880713553035,-0.31920748928846104
-1205.033582687378,4000.0,-384.0,16180.0,120.0,-412.0,7.0,-0.6135038485817921,-0.1190093002464861,0.7107100318374797,-0.3230186757383231
-1205.049148797989,4016.0,-316.0,16088.0,219.0,-305.0,282.0,-0.5839699419905517,-0.12172914195279808,0.7230851784941391,-0.3482943403115909
-1205.0647258758545,4004.0,-384.0,16172.0,251.0,-275.0,316.0,-0.5539357759164124,-0.12281757568610142,0.7320635768189818,-0.3770330473015193
-1205.080312013626,3856.0,-448.0,16280.0,269.0,-279.0,469.0,-0.5171554059559924,-0.11486564617497627,0.7405874855695141,-0.4133840171524804
-1205.0959248542786,3932.0,-432.0,16384.0,271.0,-337.0,532.0,-0.47270221696057174,-0.10467500528380108,0.7499192088883597,-0.4507958933815322
-1205.1115086078644,3924.0,-484.0,16276.0,281.0,-234.0,549.0,-0.4325837306069765,-0.08938905801434376,0.752194369981513,-0.48896272055195955
-1205.127109527588,4032.0,-168.0,16212.0,285.0,-163.0,593.0,-0.3937412418595045,-0.06805573789593608,0.7494082669184482,-0.5279427056723703
-1205.1426718235016,3928.0,-224.0,16224.0,342.0,-179.0,571.0,-0.3531244388966841,-0.05062196764104575,0.741755638819066,-0.5679252761817968
-1205.1582570075989,3812.0,-356.0,16028.0,284.0,-308.0,623.0,-0.30046923374774753,-0.034243642604814876,0.7382433052684075,-0.6029448023978415
-1205.173843383789,4084.0,-428.0,15992.0,328.0,-279.0,794.0,-0.23904447339057447,-0.00635931980156186,0.7283131189542412,-0.642166099659761
-1205.189419746399,4132.0,-300.0,15932.0,312.0,-171.0,881.0,-0.17806284135700137,0.033418047939881464,0.7123355352299195,-0.678052316453873
-1205.204981803894,4208.0,-292.0,16076.0,311.0,-24.0,990.0,-0.11844792235076852,0.08833025038381448,0.6884904213559345,-0.7100343627311615
-1205.220549106598,4244.0,-96.0,16196.0,310.0,79.0,959.0,-0.06593466825689356,0.1470436796482803,0.658402714671249,-0.7352119701901467
-1205.2361483573914,4080.0,-244.0,16184.0,272.0,82.0,999.0,-0.010019480068186147,0.20725336700400732,0.6249831531404877,-0.7525567820272695
-1205.2517502307892,4072.0,0.0,16044.0,261.0,30.0,1016.0,0.05012870079009301,0.2632580264012617,0.586870119134363,-0.7640456715142284
-1205.2673189640045,4028.0,-32.0,15952.0,215.0,-4.0,1136.0,0.12052964065190232,0.3204252356600641,0.5435462848008268,-0.7663926606875449
-1205.282876253128,4044.0,-168.0,16072.0,197.0,-81.0,1187.0,0.19717863886458098,0.37126128757017957,0.4934912273929722,-0.7614145055181318
-1205.2984697818756,4056.0,-284.0,16060.0,234.0,-71.0,1216.0,0.27189488906234915,0.42039882328382044,0.43467676293643404,-0.7485947571593425
-1205.31405210495,4196.0,-240.0,16176.0,221.0,-19.0,1122.0,0.33617555536938953,0.46455975261034765,0.3766525511260112,-0.7275321903235363
-1205.3296620845795,4248.0,-80.0,15972.0,150.0,-43.0,1035.0,0.39562498130982904,0.49807281781570256,0.3224710958390332,-0.701011222923782
-1205.3452939987183,4224.0,52.0,16004.0,138.0,-63.0,921.0,0.446326068898529,0.5230571731377122,0.27083652069179665,-0.6736852476567473
-1205.3608739376068,4320.0,132.0,15684.0,99.0,-68.0,834.0,0.49119038410481686,0.5410479545991962,0.22361303655322004,-0.6449777726948711
-1205.3765001296997,4284.0,152.0,15912.0,41.0,-75.0,724.0,0.5304740710535054,0.5514715186593925,0.18345978764380977,-0.6171052830474812
-1205.3920776844025,4188.0,136.0,15976.0,-49.0,-132.0,586.0,0.5658044229666166,0.5505810220776395,0.15150795005803472,-0.5947867131573874
-1205.407706975937,4228.0,180.0,15920.0,-5.0,-270.0,1.0,0.5695883365782451,0.5360398628921105,0.13828682037056325,-0.607541889532265
-1205.4233000278473,4200.0,24.0,15956.0,-92.0,-378.0,-175.0,0.5688582720359189,0.5088050667585357,0.13240962242212492,-0.6324439597839332
-1205.4388809204102,4176.0,72.0,15884.0,-9.0,-444.0,-602.0,0.540081561264311,0.47571577634341605,0.1372405876279463,-0.6805669904041933
-1205.454463005066,4204.0,184.0,15804.0,-347.0,-480.0,-878.0,0.5059936474811061,0.4183686081960088,0.1708843112002542,-0.734667740254406
-1205.4700424671173,4252.0,172.0,15976.0,-438.0,-524.0,-770.0,0.4785573317382381,0.352333223833749,0.20303947766072258,-0.7782153623090179
-1205.485622882843,4336.0,112.0,16212.0,-508.0,-582.0,-1183.0,0.4209944559947622,0.26838907205609797,0.24762606501889636,-0.830308560684399
-1205.5011959075928,4356.0,-32.0,16108.0,-580.0,-750.0,-1418.0,0.3442597796570516,0.1601175609908101,0.29195146791384075,-0.8778450382361263
-1205.5167770385742,4396.0,-208.0,16008.0,-584.0,-479.0,-1552.0,0.24298021018375066,0.06541102509300774,0.33996828123884026,-0.9061476607081492
-1205.532347202301,4464.0,-120.0,16060.0,-615.0,-424.0,-1613.0,0.12993678096542355,-0.02881042552156992,0.38401287209540824,-0.9136851243172591
-1205.5479583740234,4512.0,-96.0,16080.0,-635.0,-267.0,-1784.0,-0.004939814672024763,-0.11557309244280245,0.4210863017480837,-0.8996136865423598
-1205.563532590866,4464.0,-300.0,16072.0,-685.0,-145.0,-1880.0,-0.15187120493361522,-0.19284629079449928,0.448924050257343,-0.859193018092767
-1205.579086303711,4488.0,-356.0,16004.0,-643.0,-85.0,-2057.0,-0.3082667557930888,-0.26659427880521974,0.45544998891569616,-0.7914950444429967
-1205.5946490764618,4356.0,-416.0,16024.0,-609.0,31.0,-2124.0,-0.4619594558169141,-0.32642686991599495,0.4389987890926879,-0.6980823898031951
-1205.6102244853973,4404.0,-440.0,16008.0,-611.0,50.0,-2100.0,-0.5985049610846869,-0.37239149939981814,0.4068757189140758,-0.581006481968942
-1205.6258239746094,4436.0,-568.0,16004.0,-559.0,170.0,-1944.0,-0.7103185653208856,-0.3972968835188722,0.3574597128877007,-0.4580668900596433
-1205.641422510147,4464.0,-600.0,15952.0,-529.0,246.0,-1810.0,-0.7978771487680004,-0.4054373990517311,0.2964297288704733,-0.33337964359839223
-1205.657000541687,4480.0,-620.0,16096.0,-541.0,325.0,-1757.0,-0.8652354163369955,-0.39832893221345056,0.22432245947195534,-0.2058668750777828
-1205.6725845336914,4436.0,-548.0,16012.0,-665.0,350.0,-1707.0,-0.913939376894757,-0.37015709136024294,0.14848934206198805,-0.07516287894263846
-1205.6881561279297,4448.0,-500.0,15968.0,-787.0,319.0,-1840.0,-0.9410497145110686,-0.32386582792093804,0.06770379665877155,0.07037440047140474
-1205.7037913799286,4424.0,-588.0,16140.0,-823.0,402.0,-1739.0,-0.9423226423661654,-0.26488661988085443,-0.01919301422130715,0.20370258834203459
-1205.719375371933,4400.0,-296.0,16152.0,-1002.0,534.0,-1733.0,-0.9189523623709094,-0.18580308863716957,-0.11893284731991786,0.32689255998598404
-1205.7349872589111,4408.0,-584.0,16168.0,-734.0,708.0,-1700.0,-0.8622680559297904,-0.12738680856111187,-0.22074399819562857,0.4376511030356058
-1205.7506048679352,4380.0,-756.0,16108.0,-705.0,877.0,-1631.0,-0.7794172004670822,-0.07514074839398827,-0.3267297901629354,0.5292545132230162
-1205.7661700248718,4268.0,-760.0,16204.0,-666.0,1005.0,-1425.0,-0.6804045678498964,-0.03506211908170079,-0.42932961003279463,0.592871282660566
-1205.7817595005035,4152.0,-840.0,16108.0,-635.0,1045.0,-1510.0,-0.5571596479023735,0.0051479658942084824,-0.5212381212373426,0.6464189401351267
-1205.7973606586456,4304.0,-848.0,16196.0,-572.0,1061.0,-1090.0,-0.44274841147076943,0.022508461293139218,-0.5984710951653935,0.6673076963154705
-1205.8129334449768,4200.0,-816.0,16268.0,-589.0,1149.0,-1258.0,-0.30458061895199845,0.04355663547661207,-0.6663814835912206,0.6791680089576797
-1205.8285119533539,4192.0,-872.0,16044.0,-630.0,1202.0,-929.0,-0.1754100386575409,0.04267066858552678,-0.724618653166071,0.6650852124836436
-1205.844131231308,4268.0,-924.0,15996.0,-612.0,1172.0,-825.0,-0.05063322103784322,0.035873446433144704,-0.7678580641770899,0.6376075329280175
-1205.859751701355,4208.0,-876.0,16076.0,-515.0,1166.0,-742.0,0.06987508934816848,0.022816495641837978,-0.7927294253014274,0.6051255552994603
-1205.8753304481506,4224.0,-744.0,16096.0,-398.0,1178.0,-745.0,0.1900586203284601,0.009656720000120933,-0.7986409715281851,0.5709264989420251
-1205.8909168243408,4196.0,-760.0,16028.0,-310.0,1154.0,-621.0,0.29970944245916037,-0.009623254514905703,-0.7889124984333268,0.536375533454917
-1205.9065041542053,4080.0,-1024.0,16048.0,-289.0,1279.0,-424.0,0.4045473178456551,-0.047510896028788045,-0.7637480565741739,0.5007724917181458
-1205.9221744537354,3880.0,-1148.0,16012.0,-219.0,846.0,-312.0,0.47221108804128525,-0.0711728440409593,-0.742216771373766,0.4701759020765415
-1205.937821149826,3900.0,-1156.0,16192.0,-225.0,783.0,-176.0,0.5274583812576542,-0.10089104708429071,-0.7182715916822264,0.4423737935745872
-1205.9533998966217,3956.0,-972.0,16100.0,-234.0,842.0,-167.0,0.5829752576517383,-0.1332772849221871,-0.6878330332401206,0.4114155231312435
-1205.9689552783966,3584.0,-608.0,15432.0,-286.0,857.0,-246.0,0.6379078963504581,-0.16325595622679429,-0.655057459432472,0.3705681224445564
-1205.984540939331,2908.0,-576.0,15056.0,-304.0,703.0,-397.0,0.68477686850149,-0.1796709413747429,-0.6295015337546971,0.3201980827414346
-1206.0001072883606,2340.0,-796.0,14684.0,-158.0,409.0,-610.0,0.7203789235679444,-0.1666250835765869,-0.617584804260285,0.2681031472194436
-1206.0157198905945,2092.0,-952.0,14444.0,21.0,508.0,-875.0,0.7656687550029806,-0.12947755916698,-0.5954221389822568,0.2060567778408191
-1206.031311750412,2680.0,-1204.0,14512.0,849.0,333.0,-1038.0,0.8055068729114524,-0.02456255121169313,-0.5653766465197486,0.17579706010189597
-1206.0469460487366,3528.0,-1280.0,14644.0,1496.0,576.0,-1979.0,0.8469325169458617,0.16541332167648776,-0.4939291829718559,0.10666633470994344
-1206.0626215934753,4032.0,-792.0,15704.0,1910.0,642.0,-2632.0,0.8373082014544044,0.39771937994534257,-0.3751284968920835,0.0035890684820337705
-1206.0782117843628,4300.0,-20.0,16136.0,1960.0,293.0,-3323.0,0.739027913182796,0.6154097284146568,-0.22516196868351496,-0.15623923184605049
-1206.0937983989716,5348.0,260.0,16024.0,1902.0,-227.0,-3526.0,0.5515787981246367,0.7590022027765292,-0.07203790378631575,-0.33835931501560756
-1206.1093785762787,6868.0,-28.0,16012.0,1952.0,-415.0,-3024.0,0.315037667029933,0.8196754311073808,0.048303218143650115,-0.4759729562782255
-1206.1249675750732,7508.0,-712.0,16560.0,2097.0,-93.0,-2221.0,0.07067875810891527,0.8348837469699546,0.11355186917000477,-0.5339284738666672
-1206.140575170517,7064.0,-1612.0,17192.0,2249.0,759.0,-1364.0,-0.15982820022641503,0.8467358873961274,0.10973061065777158,-0.4954316062712897
-1206.156167268753,6036.0,-2264.0,17300.0,2161.0,1307.0,-513.0,-0.3456668715862622,0.8469863860979745,0.03508554887222369,-0.402364859192244
-1206.1717545986176,5216.0,-2444.0,16508.0,1820.0,1230.0,368.0,-0.4624806991088183,0.8209746177647376,-0.09143556231069391,-0.32210529005713184
-1206.1873335838318,4508.0,-1916.0,16124.0,1420.0,709.0,1053.0,-0.521893620142863,0.7646247163507559,-0.23223786151017958,-0.2983985054937133
-1206.2028970718384,4560.0,-1196.0,15520.0,1096.0,96.0,2286.0,-0.5210145345936158,0.6549264577224746,-0.4078272838951606,-0.365091901071478
-1206.2184607982635,4956.0,-976.0,15304.0,1005.0,-404.0,3030.0,-0.47786918080303303,0.4702224004811862,-0.5725051340936903,-0.47198496963432507
-1206.2340319156647,5144.0,-1192.0,15160.0,994.0,-706.0,3335.0,-0.39793045700195717,0.2225089013966824,-0.6885186125063978,-0.5639887059345426
-1206.2496037483215,5896.0,-1392.0,14756.0,1130.0,-759.0,4230.0,-0.23986642667234429,-0.10104848762495644,-0.7457313780543267,-0.6133009149588357
-1206.2651762962341,6112.0,-1392.0,14352.0,1222.0,-1019.0,4773.0,-0.036521037226422,-0.450391767680817,-0.684521084317162,-0.5720527550589302
-1206.28076338768,5584.0,-1084.0,14080.0,1189.0,-1492.0,5077.0,0.1578340335928324,-0.7520192241167857,-0.48757779403023044,-0.4145158611768897
-1206.2963497638702,4900.0,-928.0,14312.0,1226.0,-2150.0,5345.0,0.3026045494116864,-0.9252544984036634,-0.18734038934922614,-0.1312942435052501
-1206.31196475029,5564.0,-828.0,14428.0,1448.0,-2599.0,5665.0,0.38592077354781273,-0.8812622464284396,0.1614834677637234,0.2199206657027948
-1206.3275427818298,6332.0,-864.0,14984.0,1739.0,-2369.0,5855.0,0.3826071972509063,-0.6029976766424139,0.49086374370034885,0.499057431260306
-1206.3431351184845,6400.0,-616.0,15336.0,1976.0,-2021.0,5659.0,0.2860209952711952,-0.18070404601730827,0.7066957147984279,0.6213849086537174
-1206.3587238788605,6172.0,-320.0,14896.0,2171.0,-1983.0,5390.0,0.13241956761260246,0.2764149834462886,0.7578939479006034,0.5758963264124165
-1206.3743302822113,6092.0,-500.0,14444.0,2050.0,-2279.0,5366.0,-0.03172422649072764,0.6774143693347675,0.6205281525179046,0.3937615491703834
-1206.3899340629578,5948.0,-380.0,13988.0,2314.0,-3029.0,5304.0,-0.16230515225678457,0.9229466657784815,0.3429523362555408,0.06488593635104753
-1206.405514240265,5700.0,-748.0,14216.0,2176.0,-3385.0,5485.0,-0.22990897026005008,0.9247327933649394,-0.03325809533370668,-0.3015046025589223
-1206.4211175441742,6120.0,-536.0,14432.0,2163.0,-3536.0,5698.0,-0.22559098359142782,0.6573030841721613,-0.4081476088531431,-0.5920108892980588
-1206.4367141723633,6012.0,-632.0,14796.0,2215.0,-3667.0,5883.0,-0.15136641238249715,0.18106543767082872,-0.6650574064615539,-0.7085211094908567
-1206.4522905349731,6160.0,-920.0,14848.0,2491.0,-3506.0,5393.0,-0.05201463428793052,-0.3271081209635192,-0.7349844377319811,-0.5916862608776817
-1206.467901468277,6392.0,-668.0,15140.0,2567.0,-3153.0,4908.0,0.0633735946446464,-0.7135256100164201,-0.6231037085511084,-0.3140171328803047
-1206.4834764003754,6720.0,-44.0,15276.0,2581.0,-2733.0,4315.0,0.1733683262463138,-0.9025197468619214,-0.39378733119351533,0.018250144392128638
-1206.499100446701,7020.0,292.0,15540.0,2236.0,-2525.0,3514.0,0.23667228131095805,-0.9068809454179819,-0.13950467437480063,0.3195178053324022
-1206.5146670341492,7228.0,800.0,15636.0,1933.0,-2223.0,2687.0,0.27173179103881145,-0.7910892996917271,0.07668258460466694,0.5426410737038254
-1206.5302534103394,7128.0,376.0,16068.0,2001.0,-1450.0,1975.0,0.31433981681212,-0.6377856228800555,0.2635797217403298,0.6518785999718911
-1206.5458393096924,6420.0,-792.0,16140.0,2479.0,-353.0,1477.0,0.3649065770488109,-0.49976348240537033,0.46248617251104945,0.6349694417187784
-1206.5614275932312,5728.0,-1140.0,15512.0,2780.0,319.0,791.0,0.41631017565902273,-0.3846887233972476,0.6408621705693339,0.5176833994507755
-1206.5770015716553,5988.0,-644.0,14812.0,2529.0,152.0,552.0,0.4562929816982163,-0.262098350409199,0.7599337445911729,0.3815781353764469
-1206.592592716217,6512.0,232.0,14880.0,2127.0,-195.0,251.0,0.5008303604216658,-0.15155650770426338,0.8144885436588366,0.2506152176163671
-1206.608149766922,8408.0,0.0,15792.0,1957.0,118.0,51.0,0.5098469448727532,-0.06400650872052555,0.8507255289367268,0.11056823260166282
-1206.6237680912018,9692.0,-448.0,16852.0,2063.0,1040.0,-504.0,0.439781067936067,-0.01924542212347341,0.8952124442549252,-0.06940393118133929
-1206.6393373012543,4356.0,564.0,25464.0,845.0,3535.0,-2821.0,0.13726273260898694,-0.17245498127253417,0.9474875171958386,-0.23170158918114722
-1206.6549105644226,7464.0,4248.0,25556.0,-1373.0,5459.0,-6046.0,-0.37084981836530534,-0.4692743252078104,0.7702556001994599,-0.22126529389071406
-1206.6704659461975,5756.0,5984.0,19500.0,-1916.0,6838.0,-7293.0,-0.784916397410338,-0.5722274262443656,0.2146035685455751,-0.10201632270195701
-1206.6860313415527,2800.0,3272.0,14184.0,-1007.0,4318.0,-6900.0,-0.7949172952962362,-0.48287917860366647,-0.33903201006621553,0.1413912609054266
-1206.7015924453735,2620.0,92.0,13956.0,-151.0,576.0,-4744.0,-0.6698057961585845,-0.31285803883457486,-0.5359316180854249,0.40774666608727367
-1206.7171742916107,5376.0,-2932.0,19232.0,442.0,-220.0,-2584.0,-0.5615124298275092,-0.20457833151915505,-0.5631431958754727,0.5707199298790998
-1206.732754945755,7620.0,-4628.0,23384.0,-7.0,1459.0,-1133.0,-0.42799861913119136,-0.2183228269750365,-0.6467802217514363,0.5923070740710297
-1206.7483625411987,7204.0,-3872.0,22420.0,-730.0,3327.0,-67.0,-0.24024982570866793,-0.3443290810964184,-0.7764354993753646,0.4699632118240524
-1206.7639956474304,4732.0,-1388.0,20240.0,-812.0,4232.0,784.0,-0.00934128781153232,-0.5175045871474925,-0.8172251983248228,0.2534654174562669
-1206.7795705795288,2988.0,764.0,18580.0,-1024.0,4689.0,1024.0,0.23555751160535915,-0.6374381867589376,-0.7330130732273593,-0.029615051334596687
-1206.79518532753,1888.0,2444.0,17348.0,-431.0,4705.0,1562.0,0.47392453158079056,-0.6732868159833626,-0.5028268978002446,-0.26314542108403854
-1206.810792207718,888.0,3036.0,17380.0,-202.0,4537.0,1137.0,0.6362755402416127,-0.5806454498654636,-0.2255246480619907,-0.45512957666723053
-1206.8264017105103,468.0,3184.0,17632.0,330.0,4274.0,1041.0,0.7265357242344282,-0.38528150902206726,0.048093667847611356,-0.5669135730689443
-1206.8421325683594,-228.0,2612.0,17152.0,669.0,3747.0,1152.0,0.7466439016348497,-0.14394937735258112,0.2751832677306181,-0.5882819307716258
-1206.857804775238,-188.0,1348.0,16548.0,630.0,2834.0,1293.0,0.7255613436533946,0.07113083717091413,0.42741017497723155,-0.5346229352779188
-1206.8734107017517,376.0,816.0,16216.0,263.0,2347.0,1235.0,0.6760594495724809,0.2370387689176751,0.5414600107639296,-0.4399742031270384
-1206.889016866684,636.0,788.0,15684.0,-159.0,2272.0,1100.0,0.5998789782394544,0.3582355225378246,0.643277154706547,-0.3130607354669201
-1206.9046866893768,164.0,1636.0,15824.0,-58.0,2142.0,916.0,0.496384324567786,0.4558100858423789,0.7136978460708123,-0.19098469174682378
-1206.9203743934631,-96.0,2612.0,15112.0,421.0,2151.0,865.0,0.3527503559037734,0.5522321414995723,0.7497333811663315,-0.0922318029177443
-1206.9360690116882,-332.0,2324.0,14820.0,989.0,2193.0,1365.0,0.1677829993351192,0.6704112216739531,0.7227153239190268,-0.008956537297703761
-1206.9516985416412,-896.0,1700.0,14668.0,1120.0,1992.0,2019.0,-0.021087462799195832,0.7883002527976254,0.6115585711107462,0.06429731295221357
-1206.9672861099243,-728.0,492.0,14568.0,1016.0,1594.0,2631.0,-0.1836637154686001,0.8832981542023016,0.416922983092259,0.11057683560550932
-1206.982913017273,-160.0,20.0,14928.0,935.0,1318.0,2933.0,-0.3187289902322847,0.9236645726225595,0.1714795524495102,0.12589817774379533
-1206.9985494613647,216.0,48.0,15136.0,1055.0,1256.0,3178.0,-0.4367806655503218,0.8858841921245016,-0.10320737455475043,0.1173886118107378
-1207.0141730308533,232.0,912.0,15840.0,1318.0,1098.0,3693.0,-0.5339855742140573,0.7453765451526215,-0.3930546832298929,0.06914642766386249
-1207.0298111438751,200.0,1760.0,15432.0,1617.0,710.0,4330.0,-0.5935002083532793,0.47874618980141714,-0.6463246984216504,-0.0287049237135765
-1207.0454950332642,268.0,1792.0,15892.0,1771.0,852.0,4779.0,-0.5538170072389154,0.1088875301600961,-0.8154513857763321,-0.12833263694019859
-1207.0611436367035,88.0,1884.0,16556.0,1909.0,1399.0,5192.0,-0.3708426802985024,-0.30195039963348136,-0.8537269480492689,-0.2060387361752266
-1207.0767619609833,324.0,1812.0,16124.0,2066.0,1682.0,5444.0,-0.08236153111931141,-0.6578907797899559,-0.7087322241122346,-0.24102890814998074
-1207.092372894287,428.0,1752.0,15640.0,2289.0,1477.0,5722.0,0.22825404935503218,-0.8726434394904853,-0.3840381656515574,-0.19725162557057208
-1207.1080498695374,432.0,2132.0,15260.0,2311.0,1323.0,5701.0,0.4792990198991815,-0.8720293419224361,0.03227150760442025,-0.09378606584639891
-1207.1236639022827,480.0,2544.0,15464.0,1917.0,1051.0,5411.0,0.5939865016053335,-0.6842515146348257,0.4209656944626164,0.042045032003926223
-1207.13933968544,776.0,2392.0,14848.0,1500.0,666.0,4914.0,0.5841853008869667,-0.3902305628982562,0.687451343763046,0.18400622806333622
-1207.1549649238586,892.0,2880.0,14908.0,1097.0,482.0,4101.0,0.49362059202570374,-0.08983928899234664,0.8144910336326028,0.29132794135413353
-1207.1706354618073,952.0,3424.0,14748.0,810.0,362.0,3339.0,0.37280120838321923,0.16590152853498402,0.8394670751215477,0.3588745904137561
-1207.1862268447876,760.0,3920.0,14516.0,463.0,208.0,2796.0,0.25556978538628133,0.3681854102480065,0.7960644945558465,0.4067000233411133
-1207.2018690109253,672.0,4108.0,14032.0,-44.0,-62.0,1375.0,0.21100046553039176,0.4616139690169498,0.7435237566393142,0.43538921721528456
-1207.217521429062,1152.0,4020.0,13320.0,-1273.0,-1023.0,105.0,0.32147424478386966,0.4789692235170521,0.6652600123552703,0.4739956843950994
-1207.233172416687,2196.0,4040.0,13200.0,-2208.0,-2470.0,-984.0,0.5724940122821747,0.44232965327002005,0.5223958003624024,0.4513288285749164
-1207.2488617897034,3808.0,3820.0,14244.0,-2960.0,-3119.0,-1781.0,0.8330819850120649,0.3113023058709105,0.2951274548889977,0.3492349724448489
-1207.2645046710968,4428.0,3216.0,15624.0,-3636.0,-3172.0,-2772.0,0.9877412644640523,0.06485979231695232,0.025856901053172347,0.1396131171612585
-1207.280124425888,4568.0,2576.0,15624.0,-4211.0,-3188.0,-3755.0,0.9265619070571185,-0.232984728457936,-0.24311449048738545,-0.16762008594174127
-1207.2957556247711,4316.0,2168.0,14720.0,-4623.0,-3788.0,-4540.0,0.5737279338815983,-0.47322558572680495,-0.48023713506622306,-0.4650441882239372
-1207.3113589286804,3948.0,1952.0,13268.0,-5609.0,-4687.0,-5094.0,-0.048280987857444724,-0.5768601849021697,-0.5507126681389116,-0.6013458492726667
-1207.3269617557526,3080.0,980.0,13124.0,-5889.0,-5041.0,-5296.0,-0.6691568014153605,-0.43468601879042146,-0.3766350728791466,-0.4705563325097403
-1207.3426427841187,1912.0,248.0,15896.0,-5500.0,-4830.0,-5567.0,-0.9867266099793336,-0.10035129649052009,-0.06216093785117969,-0.11151785622412942
-1207.3582615852356,1548.0,-1344.0,21728.0,-4262.0,-3588.0,-5824.0,-0.8998244209246332,0.21557906191758974,0.19423103846136272,0.3257544831135882
-1207.3738474845886,3388.0,-4520.0,24640.0,-2463.0,-2909.0,-6296.0,-0.5260929110807264,0.32381386037301757,0.396231515466512,0.67924326930198
-1207.3894348144531,4016.0,-3352.0,21052.0,-504.0,-2813.0,-6357.0,-0.03224312213826865,0.2510069849123973,0.5767266078579389,0.7767511148293507
-1207.405042886734,2584.0,-172.0,16412.0,194.0,-3171.0,-5382.0,0.42844320352462295,0.1707349121897643,0.6290893614303662,0.6257256479066894
-1207.4207310676575,1684.0,2224.0,13620.0,-271.0,-3816.0,-4259.0,0.7824380848380013,0.12088504986960223,0.47848967787222974,0.3797697674681258
-1207.4363384246826,1864.0,2464.0,13204.0,-1387.0,-4383.0,-3578.0,0.9794152930228858,0.019621654244922893,0.15217330491120684,0.13116386602257663
-1207.4520118236542,2884.0,1596.0,14132.0,-1723.0,-4892.0,-3136.0,0.9574726396686601,-0.10009028894856883,-0.24805265275725036,-0.10815710704438784
-1207.467618227005,3980.0,256.0,15592.0,-1701.0,-4632.0,-2769.0,0.7319461324174943,-0.20251642895024205,-0.5766221798086755,-0.30124544311409085
-1207.483256816864,4524.0,-792.0,16668.0,-1778.0,-3551.0,-2518.0,0.42157282937490603,-0.26155091157657223,-0.7411498217122164,-0.45228797459389797
-1207.4988520145416,4392.0,-1376.0,17632.0,-1222.0,-1680.0,-2201.0,0.19159608415466692,-0.22279736438420158,-0.7782090727312091,-0.5550161385751614
-1207.5144526958466,4044.0,-1140.0,17236.0,-1022.0,-753.0,-1751.0,0.03516235083215915,-0.15468707932838927,-0.7618153440279652,-0.6280707748147193
-1207.53004860878,3760.0,-816.0,16796.0,-437.0,-490.0,-1519.0,-0.08568826500717912,-0.08103914010976773,-0.7519875817564078,-0.6485405584036196
-1207.5456550121307,3684.0,-404.0,16944.0,-481.0,-299.0,-793.0,-0.15305068630509405,-0.04217036690632127,-0.7254227928047038,-0.6697454137625355
-1207.5612885951996,3900.0,-60.0,17536.0,-385.0,-88.0,-219.0,-0.17271002557103024,-0.0282965985231799,-0.7019016912033827,-0.6904379519298623
-1207.5768837928772,4004.0,320.0,17712.0,-102.0,293.0,63.0,-0.1511573957033545,-0.012973928463806444,-0.6996440066623145,-0.6981986700401964
-1207.592524766922,3816.0,420.0,17580.0,281.0,595.0,39.0,-0.11193883052071336,0.017150890620819082,-0.7232787655663445,-0.6812072903701138
-1207.60812997818,3448.0,580.0,16872.0,461.0,683.0,-136.0,-0.07738462217017486,0.06166138900475434,-0.7550674245725201,-0.6481378539377293
-1207.62375497818,3408.0,632.0,16352.0,452.0,765.0,-377.0,-0.050536808115741606,0.12626765111508031,-0.7809353366288586,-0.609624893940302
-1207.6393513679504,3552.0,444.0,16112.0,336.0,461.0,-580.0,-0.053531230493629296,0.18835625497072733,-0.7923982448572214,-0.5777208236877353
-1207.65496134758,3836.0,172.0,16124.0,2.0,534.0,-532.0,-0.04334929465134227,0.2515044627623653,-0.7844969047436462,-0.5651822275262055
-1207.6706266403198,3800.0,-100.0,16040.0,267.0,803.0,-966.0,-0.04160604593719078,0.35401940836079016,-0.7746031490716063,-0.522426221483665
-1207.6862313747406,3684.0,-352.0,15492.0,289.0,968.0,-979.0,-0.029496869173150083,0.4598337175211482,-0.7553378454332056,-0.4659910151451265
-1207.7018377780914,3520.0,-376.0,15308.0,305.0,1072.0,-798.0,-0.0034811608034524635,0.5513191033044528,-0.7332214240250006,-0.39802194814078395
-1207.717425584793,3284.0,-184.0,15408.0,511.0,957.0,-490.0,0.016081525991922134,0.6124644363981933,-0.7237758755735774,-0.3174542181274588
-1207.7330112457275,3468.0,-100.0,16100.0,109.0,706.0,-193.0,0.049424978720275486,0.6430247215641558,-0.7139921634420012,-0.2725647986795994
-1207.7486414909363,3448.0,76.0,16468.0,-75.0,744.0,-82.0,0.09786644225435852,0.664074081879144,-0.7028761367670242,-0.23535698336847705
-1207.7641966342926,3420.0,52.0,16408.0,-197.0,204.0,-113.0,0.11946819856143863,0.6732667142913226,-0.6902857904118308,-0.23652654928224295
-1207.7798428535461,3352.0,136.0,16160.0,-216.0,244.0,-331.0,0.13994911668756896,0.6954150690396131,-0.6632775975457924,-0.23848470618654205
-1207.795443058014,3508.0,32.0,16252.0,-174.0,-107.0,-555.0,0.1326210469257289,0.7222229350292791,-0.6264316702537946,-0.26151300643191416
-1207.81107711792,3684.0,-12.0,16172.0,-118.0,-98.0,-735.0,0.1177038427080794,0.757175094609421,-0.5772905863481921,-0.282076692459208
-1207.826682806015,3740.0,-116.0,16440.0,-70.0,-148.0,-533.0,0.10165777333312787,0.7787365387961881,-0.5412131673741055,-0.3005385295192147
-1207.8423120975494,3652.0,-88.0,16324.0,16.0,-172.0,-861.0,0.06967779849036361,0.8126462143744771,-0.4832074445507858,-0.318216436079387
-1207.8579750061035,3572.0,84.0,16056.0,21.0,-251.0,-899.0,0.0325409263552295,0.8409203496747176,-0.4201461742101383,-0.33951619388694576
-1207.8735632896423,3640.0,-28.0,15844.0,-74.0,-403.0,-847.0,-0.001890817550428835,0.8569298829923729,-0.3557195018615821,-0.37300299789548197
-1207.8891637325287,3688.0,-216.0,15692.0,-207.0,-551.0,-803.0,-0.029545136751704077,0.8606941279877655,-0.28772968089463014,-0.41898011131076074
-1207.9047651290894,3744.0,-388.0,15820.0,-359.0,-656.0,-752.0,-0.046355444406437685,0.852842399661973,-0.21547813605294283,-0.47337108804387157
-1207.920401096344,3824.0,-340.0,15812.0,-451.0,-828.0,-795.0,-0.06085807182963452,0.8305707866907642,-0.1335248326161613,-0.5372332663414374
-1207.9360728263855,3980.0,-328.0,15996.0,-421.0,-887.0,-921.0,-0.08330007026606613,0.7964146661633011,-0.04199559132449261,-0.5975124669184503
-1207.951762676239,4180.0,-496.0,16160.0,-389.0,-880.0,-969.0,-0.10926543622008333,0.7515097738426256,0.051700592484331793,-0.6485531381493808
-1207.9673449993134,4156.0,-300.0,16240.0,-314.0,-793.0,-985.0,-0.13997072901684535,0.7005651936702515,0.140751458960599,-0.6854236873910317
-1207.9828987121582,4204.0,-404.0,16148.0,-213.0,-701.0,-986.0,-0.1763446783024462,0.6453142272167346,0.22108319671408566,-0.7096437998860811
-1207.9984481334686,4140.0,-380.0,16168.0,-143.0,-586.0,-927.0,-0.21344911525568616,0.590470843877665,0.28981305935557267,-0.722351748356662
-1208.014042377472,4104.0,-432.0,16088.0,23.0,-602.0,-853.0,-0.2521904028453157,0.5281958055882371,0.34209345336554214,-0.7351062922027998
-1208.029645204544,4452.0,-536.0,16256.0,-229.0,-594.0,-664.0,-0.2657013472435045,0.473643101999051,0.3991484030327378,-0.7387459362718134
-1208.0452613830566,4732.0,-696.0,16364.0,76.0,-368.0,-441.0,-0.28415684785771944,0.4321059371866163,0.42041857978839176,-0.7455116113330179
-1208.060883283615,4712.0,-796.0,16208.0,18.0,-175.0,-89.0,-0.2842283689225039,0.41681496602368356,0.42681286265785867,-0.750540004708698
-1208.0765182971954,4500.0,-916.0,16232.0,375.0,-43.0,133.0,-0.2874455272001095,0.4092692550642968,0.3981542439409387,-0.7689908606632372
-1208.092111825943,4248.0,-752.0,16076.0,464.0,-46.0,307.0,-0.28154389194655777,0.40458893149533315,0.35669272503131466,-0.7936064095814654
-1208.107738018036,4048.0,-464.0,15844.0,403.0,-206.0,440.0,-0.2585485091601729,0.3933646264695108,0.31773727460786855,-0.8230795607827461
-1208.1233396530151,3980.0,-272.0,15744.0,353.0,-378.0,564.0,-0.219229121352799,0.3728846966923584,0.28083409923244235,-0.8567542261534694
-1208.138930797577,4024.0,-32.0,15772.0,332.0,-540.0,716.0,-0.16273202199031506,0.34232612308175175,0.24210801065608625,-0.893148826148763
-1208.154610157013,4060.0,-240.0,15752.0,405.0,-582.0,913.0,-0.0909336244014658,0.3087229586780608,0.1904672426129423,-0.9274391841138157
-1208.1701900959015,4136.0,-144.0,15976.0,504.0,-663.0,1095.0,-0.004843421568199705,0.2671082114918363,0.12444388432966128,-0.9555854039666424
-1208.1858139038086,4232.0,-8.0,16004.0,565.0,-729.0,1244.0,0.09280059177631206,0.21734306433038397,0.048111754198500965,-0.9704819945065379
-1208.2013986110687,4252.0,-304.0,15872.0,636.0,-911.0,1433.0,0.2034050508076719,0.14919913009868677,-0.03986467282862954,-0.9668385660201965
-1208.2169642448425,4432.0,-268.0,15888.0,567.0,-1093.0,1590.0,0.32148140695127897,0.06027091058857165,-0.12586914342425923,-0.9365757209404341
-1208.2325675487518,4548.0,-384.0,16368.0,624.0,-1136.0,1668.0,0.43476275534396625,-0.033129354668486696,-0.21377939128258283,-0.8741751336476122
-1208.2482459545135,4776.0,-344.0,16136.0,710.0,-936.0,1696.0,0.5401254986635683,-0.107679309277078,-0.2935835713247154,-0.7813311069548357
-1208.2638709545135,4920.0,-364.0,16308.0,779.0,-614.0,1788.0,0.6435637887447073,-0.15620170746114814,-0.35300605865673,-0.6609186023667519
-1208.2794749736786,5060.0,-312.0,16084.0,903.0,-276.0,1893.0,0.744088620894813,-0.17670258013202353,-0.38799893304784255,-0.5143589703536599
-1208.2951109409332,5196.0,-288.0,15964.0,984.0,142.0,1926.0,0.8358109629088452,-0.16858913464772393,-0.3861820395537114,-0.35193915708010703
-1208.310715675354,5180.0,-172.0,16036.0,892.0,359.0,1919.0,0.9043437264523188,-0.15439599955411498,-0.35280453357547703,-0.18399255647066126
-1208.3263232707977,5164.0,-16.0,16184.0,805.0,513.0,1854.0,0.9453159814878292,-0.13732461603870255,-0.295194893672982,-0.01948383234689112
-1208.3419904708862,4928.0,76.0,16196.0,741.0,666.0,1835.0,0.9587574465631583,-0.12017196881336988,-0.2157586893073346,0.1406806474238445
-1208.3576066493988,4648.0,212.0,16272.0,692.0,648.0,1680.0,0.9443574398306518,-0.10018816900958454,-0.13340034126869105,0.2834708196206455
-1208.3732295036316,4532.0,288.0,15956.0,605.0,671.0,1589.0,0.906727947473157,-0.08404451426910702,-0.04862017359443348,0.41038643692504345
-1208.388813495636,4476.0,256.0,15784.0,503.0,626.0,1464.0,0.851682742603607,-0.07182597541819102,0.02920913574278014,0.5182898432301982
-1208.404414176941,4424.0,280.0,15888.0,372.0,552.0,1171.0,0.7942090550087154,-0.06547343166899433,0.09353672400496124,0.5968216550612655
-1208.4200491905212,4464.0,368.0,15884.0,262.0,597.0,907.0,0.7401215492926628,-0.07047226196377986,0.15277501973336208,0.6510864350543697
-1208.4356517791748,4264.0,484.0,15628.0,179.0,464.0,615.0,0.698467482984847,-0.07671596966005115,0.19598633778252306,0.6839935603604212
-1208.4513041973114,4216.0,276.0,15708.0,145.0,201.0,369.0,0.673504923389805,-0.07335130252739332,0.21895249513523532,0.7021897958965813
-1208.466915845871,4272.0,368.0,15844.0,133.0,-42.0,203.0,0.6626000342023941,-0.058916500406940985,0.22563393638834484,0.711743891722778
-1208.4825179576874,4396.0,200.0,15796.0,69.0,-109.0,-14.0,0.6659609298520118,-0.04829038201198538,0.2232752538557839,0.7101494490115552
-1208.498146057129,4464.0,32.0,15956.0,-244.0,-19.0,-195.0,0.6771683457535408,-0.06494279702962232,0.205887239711583,0.7034457400164759
-1208.5137276649475,4556.0,60.0,16156.0,-36.0,97.0,-362.0,0.697106509474273,-0.07934275413798578,0.20699100915178198,0.681837197536715
-1208.5293612480164,4540.0,16.0,16032.0,-54.0,208.0,-455.0,0.7194014628732627,-0.10297876294036624,0.21282657885322792,0.6531169550185573
-1208.5449979305267,4488.0,-52.0,16016.0,-81.0,235.0,-530.0,0.7436010871367538,-0.1309833035250014,0.21767535716275277,0.6184805868342055
-1208.5606236457825,4488.0,-120.0,15876.0,-79.0,198.0,-562.0,0.7682752335417953,-0.1571049333170632,0.21930297563914572,0.5804975541116065
-1208.5762338638306,4400.0,-216.0,16176.0,-69.0,272.0,-274.0,0.7756179660526823,-0.18049509706860778,0.2299312107689537,0.5594371537400938
-1208.5918588638306,4276.0,-144.0,16260.0,-87.0,11.0,-466.0,0.7961665089289361,-0.19594712517317395,0.21868570159430883,0.5290559309888543
-1208.6074464321136,4200.0,-64.0,15936.0,-83.0,276.0,-453.0,0.8095842176869864,-0.2226968053827751,0.225831358051727,0.4939430382796881
-1208.6230702400208,4208.0,16.0,15988.0,-137.0,2.0,-454.0,0.8258243901945895,-0.24103991334501296,0.21086544331334006,0.4641654894007433
-1208.6386523246765,4216.0,68.0,16108.0,-229.0,194.0,-479.0,0.8359088799856164,-0.27371623779854354,0.2050580510763148,0.42928657236790796
-1208.6542501449585,4280.0,88.0,15760.0,-273.0,121.0,-528.0,0.8459081889197766,-0.30701388379877936,0.19060257847568113,0.39224031938554615
-1208.669848203659,4336.0,116.0,15984.0,-293.0,136.0,-645.0,0.8562739103202824,-0.34317606141035095,0.17282797581704593,0.3451893279849111
-1208.6854906082153,4408.0,16.0,16364.0,-350.0,202.0,-729.0,0.8625272604958768,-0.38522117535828804,0.15499056211130363,0.28918730368651874
-1208.7011380195618,4456.0,88.0,16072.0,-389.0,274.0,-811.0,0.8634140820950154,-0.43077091637510817,0.13794105966738737,0.22343859224227564
-1208.7167437076569,4396.0,24.0,16128.0,-444.0,319.0,-975.0,0.8579296951391081,-0.479745544871894,0.11600306198125765,0.1426328853562842
-1208.732353925705,4436.0,24.0,16180.0,-448.0,363.0,-1028.0,0.843949165278627,-0.5252887887083895,0.09397377124486851,0.05468478033967786
-1208.7480177879333,4420.0,-20.0,16216.0,-468.0,434.0,-1217.0,0.8189795671423612,-0.5675974834053088,0.06735098127447195,-0.050689355456904936
