programtime,ax,ay,az,gx,gy,gz,q0,q1,q2,q3
-9632.19339299202,384.0,-4976.0,-16700.0,-662.0,170.0,-6115.0,0.8810109124810923,-0.05118622301830269,0.01304769046939117,-0.4701377462358969
-9632.208984851837,852.0,-5196.0,-15932.0,-1031.0,1608.0,-725.0,0.831684111663259,-0.06459854738643589,0.17309823350213882,-0.5236082196078449
-9632.22457575798,-128.0,-5904.0,-15396.0,145.0,1217.0,2150.0,0.8917387156794454,0.03304050544047962,0.2611424728218535,-0.3681236162583139
-9632.240187644958,-984.0,-4624.0,-15296.0,128.0,452.0,1761.0,0.9259172326331314,0.09635101264066409,0.2838631215899386,-0.2298162067334197
-9632.255818128586,-1584.0,-4296.0,-15412.0,-925.0,-88.0,-1934.0,0.8816544917274587,-0.027611218477394558,0.3065451522835372,-0.3577052521874021
-9632.271423339844,-1768.0,-5648.0,-15204.0,-1471.0,-1782.0,-4442.0,0.7211824265878224,-0.288970548621823,0.1877975883527032,-0.6009359328738894
-9632.287005662918,-1060.0,-6912.0,-14536.0,-1139.0,-2904.0,-4275.0,0.46827961759172726,-0.5294688519045405,-0.038879834400726725,-0.706303966496016
-9632.302649736404,-296.0,-7532.0,-14572.0,-595.0,-3056.0,-2438.0,0.2647967710609357,-0.6939416819835108,-0.22651541149019375,-0.6300939456930421
-9632.318236589432,56.0,-7116.0,-14108.0,-172.0,-2098.0,864.0,0.25543011444953817,-0.8146235236456466,-0.20908588701796293,-0.4768931360434519
-9632.333834409714,-564.0,-7164.0,-14848.0,103.0,-1177.0,2561.0,0.3377605178778764,-0.8818417826733116,-0.05583108940580261,-0.3242773386318967
-9632.349493980408,-1428.0,-6308.0,-14748.0,152.0,-766.0,3517.0,0.42464664909231387,-0.8740871761771359,0.17933830595474098,-0.15324687231599032
-9632.365111112595,-2172.0,-5960.0,-15040.0,113.0,-1273.0,2147.0,0.4706079516060724,-0.8338410556245408,0.2877204735977713,0.021311473735110116
-9632.380741357803,-2228.0,-5388.0,-15024.0,3.0,-1669.0,755.0,0.5046504794864671,-0.8016352388751526,0.27074004830830345,0.17148954367445687
-9632.396337747574,-1796.0,-5172.0,-14912.0,-248.0,-959.0,164.0,0.5053376096910682,-0.7914758425409357,0.23540161055473188,0.25057129255777094
-9632.411947965622,-1480.0,-5656.0,-14672.0,-385.0,426.0,1675.0,0.42808972818381374,-0.7743474311344727,0.3572191684696712,0.29919843949591063
-9632.427527189255,-1592.0,-6384.0,-14584.0,-33.0,1541.0,4111.0,0.2524538314824642,-0.6423127007144274,0.6459297716378868,0.3263068917178878
-9632.443127632141,-2484.0,-6516.0,-14784.0,135.0,2445.0,5760.0,-0.03672755176651479,-0.3373632929086513,0.9009178260069413,0.27052572210789155
-9632.458707332611,-3544.0,-6092.0,-14388.0,263.0,2180.0,4585.0,-0.28200474727565467,-0.026703278646466603,0.9462618375357165,0.15604099540522212
-9632.47427201271,-4344.0,-5836.0,-14752.0,252.0,775.0,474.0,-0.35048345150470217,-0.004283248390579831,0.9286881267950886,0.12116669160460326
-9632.48985004425,-4108.0,-5716.0,-15016.0,-299.0,-996.0,-4332.0,-0.2086085424464048,-0.3128821082876676,0.8896013355837886,0.25922331310935476
-9632.505418777466,-2824.0,-5776.0,-14852.0,-444.0,-2030.0,-6379.0,0.07023720948996758,-0.6508212930568223,0.6406565307090047,0.4013198083409419
-9632.521016836166,-1468.0,-5648.0,-15052.0,-598.0,-1812.0,-5704.0,0.298770995230949,-0.8057948874626162,0.2520518347041098,0.44485993792441025
-9632.536615610123,-292.0,-6116.0,-15116.0,-339.0,-631.0,-2378.0,0.37243258845014177,-0.8234922585404483,0.053947616550740686,0.42455167159342705
-9632.552256345749,-60.0,-5968.0,-15204.0,20.0,336.0,64.0,0.3696518246523137,-0.8347871379346954,0.07012361485506938,0.4019585071990306
-9632.567865848541,-908.0,-5516.0,-15336.0,-65.0,685.0,421.0,0.3449830710647417,-0.8563768101558855,0.12026992913919146,0.3648843431154912
-9632.583453655243,-1444.0,-5408.0,-15616.0,-143.0,341.0,-933.0,0.35892223106688115,-0.8781156891676403,0.05601872233735969,0.3113672610139071
-9632.599078178406,-1624.0,-5648.0,-15340.0,-390.0,-234.0,-1890.0,0.3760027196802137,-0.880766693238153,-0.10525207203510954,0.2679440019999102
-9632.614669322968,-1312.0,-6136.0,-14876.0,-289.0,-496.0,-1807.0,0.38604524055539186,-0.8506257352408303,-0.26361711038343927,0.24064694035788628
-9632.6302587986,-804.0,-6080.0,-14928.0,-133.0,61.0,-709.0,0.391460871399825,-0.8385331515542579,-0.31640068876159566,0.20859325027086037
-9632.645851373672,-800.0,-6036.0,-14968.0,-96.0,664.0,1190.0,0.37818387261180914,-0.8806418546300641,-0.20697983807583537,0.19648467879241036
-9632.661415338516,-1160.0,-5972.0,-15288.0,-96.0,812.0,1176.0,0.36224498175207115,-0.911996222532989,-0.09079297963385671,0.16970002395464295
-9632.676988840103,-1284.0,-5872.0,-15256.0,-251.0,1056.0,1614.0,0.3218848966979008,-0.9350908061413339,0.0663333883476352,0.13264682106275325
-9632.692555189133,-2020.0,-5960.0,-15172.0,109.0,393.0,552.0,0.3212905933623159,-0.9318196992799014,0.12344116149396328,0.11509423226133489
-9632.70812177658,-2076.0,-5564.0,-14928.0,-184.0,11.0,-882.0,0.3138390616427255,-0.9437764126693156,0.050032781079794135,0.09103761362026509
-9632.723743915558,-1840.0,-5696.0,-14856.0,-462.0,-283.0,-1729.0,0.2869176119054604,-0.9500203986261224,-0.1024951289455716,0.0680755074543093
-9632.739341974258,-1432.0,-6056.0,-15268.0,-497.0,-474.0,-1906.0,0.2486467335941793,-0.9282917251480698,-0.27110048455340313,0.054348892992184206
-9632.754960775375,-1060.0,-6000.0,-15196.0,-92.0,-517.0,-1521.0,0.23359601607213948,-0.8832704872948997,-0.401993169779847,0.06056103532310462
-9632.770592927933,-820.0,-5856.0,-15168.0,-105.0,-317.0,-1114.0,0.2188637341802454,-0.8404180964624943,-0.4923218612773571,0.05844034486067913
-9632.78618311882,-600.0,-5788.0,-15080.0,-324.0,449.0,354.0,0.2119772663163819,-0.8627593402840849,-0.4586605713241413,0.018505124431266007
-9632.801801919937,-936.0,-6040.0,-15016.0,-27.0,911.0,2111.0,0.2380912426422411,-0.9307302290090929,-0.277342971498629,-0.011605048300873467
-9632.817368268967,-1596.0,-5904.0,-15072.0,114.0,526.0,1831.0,0.2582023182059205,-0.9589922657379572,-0.11616539868331102,-0.0130765926990008
-9632.832952022552,-2304.0,-5144.0,-15260.0,-133.0,176.0,-12.0,0.24856952159494244,-0.9615588927344608,-0.11298333004950305,-0.029196846889074493
-9632.848584413528,-2076.0,-5788.0,-15224.0,-459.0,-580.0,-2102.0,0.1951482150964443,-0.9348211503212441,-0.2951897592860191,-0.02982611388364329
-9632.86415719986,-1516.0,-6120.0,-15068.0,-342.0,-939.0,-2308.0,0.13380795188169725,-0.8631248309178778,-0.4869393822356751,-0.0009981453546990665
-9632.879775047302,-1008.0,-5968.0,-14940.0,-59.0,-430.0,-577.0,0.11086567612674421,-0.8376811816007951,-0.5343188362793302,0.022414750633416514
-9632.89535164833,-600.0,-5732.0,-15020.0,-123.0,408.0,1162.0,0.11804880636716528,-0.8886902608684423,-0.44304799944607937,-0.0016030407649677144
-9632.910940408707,-784.0,-5688.0,-14952.0,-340.0,1087.0,1495.0,0.13225365375991271,-0.937344509176494,-0.3116532716502071,-0.0822586193268107
-9632.926667690277,-1688.0,-6060.0,-15148.0,-267.0,862.0,1108.0,0.14078212906156418,-0.9570065836565539,-0.2075034726437668,-0.14581186445444572
-9632.942257881165,-2176.0,-5908.0,-15308.0,-21.0,253.0,203.0,0.1461756849549188,-0.9573911273329523,-0.1870575252819291,-0.16445175787293898
-9632.957892417908,-1988.0,-5472.0,-14928.0,-292.0,-235.0,-1151.0,0.10088804580058591,-0.9405284828250167,-0.28043479005582067,-0.1630463238952638
-9632.973534345627,-1612.0,-5780.0,-15064.0,-544.0,-471.0,-1874.0,0.017848028322144972,-0.8926220020389937,-0.42417916491999924,-0.151589727253145
-9632.989171743393,-1188.0,-6032.0,-15180.0,-288.0,-469.0,-1157.0,-0.036881095827449216,-0.8511877106405031,-0.5080622754882701,-0.12645944112966243
-9633.004769802094,-896.0,-5860.0,-15304.0,-192.0,-281.0,-20.0,-0.06361195228274236,-0.8524487172980068,-0.5063083609517177,-0.11373894466780579
-9633.020346403122,-516.0,-5612.0,-15272.0,-256.0,170.0,-2.0,-0.07492496699668469,-0.8489918524295897,-0.504693225570993,-0.13741845542526818
-9633.035988092422,-900.0,-5676.0,-15132.0,-375.0,749.0,1004.0,-0.05710836944347169,-0.8761525524762586,-0.42794407813268764,-0.21438098077956683
-9633.051599264145,-1040.0,-6148.0,-15228.0,-25.0,744.0,2070.0,0.007532970274460483,-0.9226407515066859,-0.268009644385188,-0.2772149500559933
-9633.067207574844,-1684.0,-5560.0,-15172.0,40.0,625.0,1452.0,0.06005387868764349,-0.9327059622522317,-0.1502101041073324,-0.32231978570632763
-9633.082822322845,-1972.0,-5348.0,-15024.0,-448.0,767.0,27.0,0.03438223991878236,-0.9112170642341976,-0.13096830963118525,-0.3890355064758584
-9633.09842801094,-2112.0,-5904.0,-15192.0,-423.0,-208.0,-1042.0,-0.036733083525562794,-0.903275848334397,-0.19907339111807487,-0.3783030628203123
-9633.114025592804,-1752.0,-6132.0,-15268.0,-293.0,-827.0,-1565.0,-0.12422375654211787,-0.8917000975823186,-0.30636981467242913,-0.30915518908766426
-9633.129603147507,-1136.0,-5680.0,-14996.0,-385.0,-537.0,-1637.0,-0.21005973323637056,-0.8483432270399016,-0.41269774417486654,-0.2566500527199779
-9633.145182132721,-820.0,-5844.0,-15128.0,-324.0,-121.0,-757.0,-0.2544861229827453,-0.8158011247570224,-0.4581009146715362,-0.24464032789278634
-9633.160762310028,-780.0,-5756.0,-15264.0,-209.0,340.0,289.0,-0.24915774524499185,-0.8148039133349028,-0.4402578200270886,-0.28317495069930837
-9633.176369428635,-1052.0,-5740.0,-15312.0,-188.0,539.0,1416.0,-0.20480985351674985,-0.8444511694918395,-0.34364862528945916,-0.3561751936659499
-9633.192009925842,-1384.0,-5688.0,-15320.0,-114.0,540.0,1265.0,-0.15638577157921524,-0.8574977695392877,-0.25471463832470176,-0.41876188783822804
-9633.207611322403,-1544.0,-5488.0,-15356.0,-324.0,364.0,-17.0,-0.17285487976278124,-0.8387853670826559,-0.24890024772438396,-0.4523372250798609
-9633.223272323608,-1916.0,-6000.0,-14980.0,-423.0,239.0,-854.0,-0.23134894529364067,-0.801636196677178,-0.29724780706029885,-0.46422065323110295
-9633.238866329193,-1740.0,-5900.0,-15040.0,-161.0,-402.0,-1063.0,-0.2944824180588979,-0.7833308916052171,-0.3552312730979725,-0.41651357999992483
-9633.254501104355,-1476.0,-5516.0,-15432.0,-176.0,-449.0,-1415.0,-0.3685782181932457,-0.7450938403401453,-0.43043591595195974,-0.3517245917180993
-9633.270099163055,-1236.0,-5420.0,-15144.0,-356.0,-330.0,-2097.0,-0.46025897953041484,-0.6536991610936679,-0.5359651134874573,-0.2712572131233253
-9633.285686016083,-944.0,-5688.0,-15192.0,-479.0,-370.0,-1989.0,-0.5429155366319435,-0.5414538614389391,-0.6133472031308789,-0.18940867041410653
-9633.301344871521,-564.0,-6132.0,-15364.0,-293.0,-88.0,-808.0,-0.5729897220910841,-0.4844849169768258,-0.6408544995467789,-0.16205756387959197
-9633.316916942596,-624.0,-5840.0,-15316.0,-137.0,308.0,911.0,-0.5464952895930338,-0.5224314385087202,-0.6137714981982023,-0.22736059137385567
-9633.332518339157,-868.0,-5512.0,-15192.0,-102.0,842.0,1363.0,-0.47415738357143444,-0.5684082122745681,-0.5842165121828063,-0.33283321155869994
-9633.348103523254,-1528.0,-5648.0,-15120.0,-262.0,991.0,1149.0,-0.39948058089801497,-0.5822374184491119,-0.5557691398362893,-0.4387886931641806
-9633.36372256279,-1964.0,-5756.0,-15152.0,-77.0,317.0,-33.0,-0.38897665362883915,-0.5656992784143768,-0.5654554536601218,-0.4571013227493324
-9633.379304170609,-1704.0,-5760.0,-15040.0,-375.0,-67.0,-523.0,-0.43083850602741647,-0.5291097942782172,-0.5732715188307198,-0.45363065705532524
-9633.394896030426,-1764.0,-5872.0,-15232.0,-357.0,-158.0,-1380.0,-0.5057810202637448,-0.4495004258975304,-0.6123015812212834,-0.4089275000447146
-9633.41048526764,-1204.0,-5888.0,-14968.0,-401.0,175.0,-296.0,-0.5220219107623169,-0.40939177909542496,-0.6168538785851702,-0.4235360532086669
-9633.42606830597,-1200.0,-5740.0,-15292.0,-123.0,116.0,24.0,-0.5190799820723722,-0.4008299273728804,-0.6168572685847952,-0.435176345552126
-9633.441654920578,-1176.0,-5400.0,-15036.0,-314.0,590.0,222.0,-0.48880252979170097,-0.3755228223880993,-0.6229140493619912,-0.4816978138235177
-9633.457338571548,-1436.0,-5392.0,-15280.0,-203.0,417.0,110.0,-0.4676272036881079,-0.355082245764399,-0.6282206178675726,-0.5104706185470786
-9633.472940683365,-1520.0,-5484.0,-15192.0,-337.0,138.0,-953.0,-0.5108244566532865,-0.2818845712977634,-0.6460197800282937,-0.4921970202686578
-9633.48853135109,-1248.0,-5764.0,-15152.0,-336.0,196.0,-1533.0,-0.5683824591105591,-0.17047556446099307,-0.6718811276565451,-0.4432326842597559
-9633.504135608673,-956.0,-5904.0,-15168.0,-313.0,267.0,-824.0,-0.58723438180292,-0.09598415617970321,-0.6832967068589616,-0.42314115019306603
-9633.519761562347,-752.0,-5996.0,-15204.0,70.0,867.0,126.0,-0.5286007663421174,-0.07480737134587957,-0.7273372671310808,-0.43123727442921334
-9633.535323381424,-572.0,-5804.0,-14952.0,-84.0,1804.0,976.0,-0.371842274966349,-0.0639320303465797,-0.7886644359031257,-0.4854425049222808
-9633.55094218254,-684.0,-6404.0,-14928.0,-96.0,3737.0,2390.0,-0.012865475237725348,-0.062444392182320146,-0.8324632528965344,-0.5503999545864885
-9633.566514968872,-1084.0,-7344.0,-15016.0,-20.0,5665.0,6813.0,0.5742395148127403,-0.22568956952448735,-0.6335476554821693,-0.46683033970440135
-9633.58209514618,-2180.0,-7548.0,-14316.0,878.0,10631.0,17834.0,0.9202430426387669,-0.3547979228252426,0.10362332033522484,0.12858220684270852
-9633.597674369812,-5744.0,-9296.0,-8732.0,984.0,18200.0,32116.0,0.12618136569919153,-0.05627459235058607,0.7618688340049554,0.632824867540769
-9633.613353967667,-12284.0,-12348.0,-9456.0,6914.0,9293.0,31425.0,-0.709995261977139,0.5166545456695304,0.45332035090164696,0.15321706128050094
-9633.628948926926,-14012.0,1028.0,-10844.0,16643.0,-14246.0,12152.0,-0.44051867440086645,0.06517377022292031,0.42034467237968376,-0.7905732310045982
-9633.644540548325,-11316.0,14488.0,-32768.0,4091.0,-22655.0,-32768.0,-0.5208619327462576,-0.7859953579113919,0.3288906721741118,0.05239341670894342
-9633.660130023956,6120.0,13820.0,-18584.0,-23086.0,-15588.0,-32768.0,-0.38800111856971153,-0.15605371795140333,-0.33872077165900516,0.8428348639851847
-9633.67575955391,16348.0,-12400.0,-15484.0,-24896.0,-2632.0,-32768.0,0.4298095428813786,0.49509861441077013,-0.6765732404928897,0.3352458338377766
-9633.6914229393,17076.0,-25112.0,-11604.0,1282.0,-3410.0,13272.0,-0.13783884143399047,-0.0901187732038671,-0.8576014054637238,0.487235969377273
-9633.707030296326,14808.0,-10812.0,-15704.0,17449.0,-1953.0,32767.0,-0.45360474416976426,-0.7863166298600522,0.04875931607882249,0.41661903793242305
-9633.722653388977,9056.0,4472.0,-17648.0,12513.0,16183.0,15283.0,-0.08980163308709271,-0.7389658571122942,0.3733190207711768,-0.5536226489655506
-9633.73824596405,2624.0,9076.0,-14332.0,-3745.0,18048.0,30029.0,0.1643617643564796,0.3527598714242747,0.726623227943878,-0.5661840408760858
-9633.7538459301,-2788.0,-3284.0,-17324.0,-10608.0,22320.0,15295.0,-0.06188964905936645,0.8338068972173523,0.4035489578988631,0.3715965124578293
-9633.769426345825,-9184.0,-14324.0,-13544.0,-5771.0,13670.0,18736.0,-0.3160644086122042,0.46755406461330834,-0.5278427170449471,0.6347271479421687
-9633.784995794296,-12972.0,-16104.0,-15796.0,5554.0,-3911.0,11118.0,-0.8840740375862853,0.012455733657589107,-0.37391244636539966,0.2800846893672996
-9633.800571918488,-11264.0,-5720.0,-16616.0,7166.0,-14369.0,-14245.0,-0.47688237589526056,0.12982730601066908,0.4356382738533181,0.7522947324876099
-9633.816244840622,-4432.0,1220.0,-14744.0,2200.0,-17437.0,-21208.0,0.5967035099719019,0.14469900568893576,0.593905121651458,0.5198882816682951
-9633.83188176155,2112.0,1260.0,-15052.0,-4445.0,-12954.0,-18912.0,0.961400708013945,-0.21109938677595547,-0.01905941062886826,-0.17544932715625025
-9633.847489833832,5828.0,-4752.0,-16088.0,-6354.0,-2970.0,-17568.0,0.295522222623702,-0.3941259329957205,-0.25630566935447674,-0.8316482241504238
-9633.863104343414,7104.0,-10476.0,-15880.0,-1545.0,1268.0,5744.0,0.6073804383426225,-0.4157615008447203,0.07604310576915221,-0.6726431621588455
-9633.87870144844,5536.0,-8912.0,-16508.0,3764.0,4207.0,23443.0,0.8979788234265136,0.07981027812927198,0.39862925682130845,0.16840150767898146
-9633.894290924072,1504.0,-3700.0,-16104.0,3805.0,10114.0,19361.0,0.10786376111312265,0.4145038725431761,0.510782762975386,0.745421302172451
-9633.909890413284,-3088.0,-2196.0,-14784.0,707.0,10760.0,16078.0,-0.7351933127762468,0.22310985897405297,0.039038918882395565,0.6388965068695867
-9633.925570011139,-7372.0,-4344.0,-15004.0,-1803.0,6968.0,4635.0,-0.786848311143497,-0.027032520296998173,-0.47988203517186606,0.3871074920694854
-9633.941212892532,-8668.0,-6288.0,-14420.0,-2601.0,-122.0,-7557.0,-0.44511424398004557,0.3872253652148604,-0.4736216970701475,0.6539207248624896
-9633.95688867569,-6668.0,-8168.0,-15160.0,-570.0,-6445.0,-14855.0,0.08977278444001163,0.803336181101174,0.1419848146122291,0.5713424014784827
-9633.972519397736,-2796.0,-6268.0,-15580.0,694.0,-9134.0,-16247.0,0.5047581545257004,0.5564403912637549,0.6511979218709454,-0.10739908268235163
-9633.988989830017,1568.0,-4336.0,-15568.0,-326.0,-6819.0,-12806.0,0.4882248038487948,-0.15465002646367665,0.6047771740304093,-0.6098889079114179
-9634.004722356796,3900.0,-4348.0,-15468.0,-1232.0,-2089.0,-6972.0,0.17704926660100928,-0.5770177933102292,0.40978423637670053,-0.6839451023412646
-9634.020351409912,4496.0,-5436.0,-15764.0,-928.0,1598.0,1231.0,0.14392200272008937,-0.44389896931628936,0.5418885841508951,-0.6989970847864195
-9634.035974025726,3480.0,-6292.0,-15572.0,-70.0,4267.0,8566.0,0.35452440022860937,0.1691492297043043,0.7151673907263439,-0.5781319840440055
-9634.051692008972,768.0,-5600.0,-15456.0,486.0,5259.0,10831.0,0.38962631533228326,0.7755588587170499,0.47804796869785615,-0.13479588528567396
-9634.069611787796,-1556.0,-5240.0,-15180.0,37.0,4255.0,7447.0,0.23769692073614704,0.9107499627872815,0.09474802413211238,0.32412573344086665
-9634.087649822235,-3256.0,-5968.0,-14908.0,-546.0,1782.0,2092.0,0.20107075493690776,0.8416607161390298,-0.04859454916798011,0.4988149558790296
-9634.10571885109,-3284.0,-6572.0,-14988.0,-163.0,-1315.0,-1908.0,0.2845745671388848,0.8862499500392604,0.0601073130453006,0.3605072158939387
-9634.123693943024,-1852.0,-5720.0,-15160.0,-50.0,-3009.0,-4305.0,0.3994830344411932,0.8701369250703719,0.2879465637212177,0.019021389641058314
-9634.141723871231,-124.0,-5240.0,-15348.0,-360.0,-2612.0,-4209.0,0.4579979800841795,0.6938842634036249,0.4734152495692536,-0.29093037090496726
-9634.158839941025,1064.0,-5432.0,-15540.0,-439.0,-1197.0,-1925.0,0.47535831785134147,0.5553667446750619,0.5425295825383931,-0.41384042894488277
-9634.17447257042,1304.0,-5424.0,-15648.0,-271.0,364.0,1716.0,0.5267222433269904,0.6310888513638756,0.47872343896178243,-0.30840624030231895
-9634.190077543259,668.0,-5548.0,-15248.0,-88.0,1294.0,4324.0,0.5523237951722118,0.7839932040903015,0.2815221091194905,-0.032223955432273584
-9634.205664634705,-488.0,-5544.0,-15124.0,-113.0,2002.0,4507.0,0.48063487106381686,0.8221124528075074,0.06433331210656919,0.2982992802701524
-9634.22134399414,-1556.0,-5684.0,-15144.0,-255.0,1426.0,2897.0,0.39962492250759585,0.7609203110946174,-0.086946138640612,0.5037266822890724
-9634.236946105957,-2244.0,-5900.0,-15180.0,-370.0,140.0,583.0,0.3986920132125286,0.7362347489898742,-0.13685734171750788,0.5294082932844699
-9634.252564668655,-2112.0,-5908.0,-15124.0,-285.0,-788.0,-1359.0,0.46569904240895993,0.7716847571661946,-0.0893484129727602,0.42384419136750984
-9634.268169879913,-1404.0,-5388.0,-15288.0,-330.0,-1742.0,-2764.0,0.5540648841022124,0.8117612176703601,0.013204540707003954,0.18406919838977226
-9634.283797979355,-492.0,-5504.0,-15072.0,-511.0,-1674.0,-2537.0,0.6109958880125294,0.7833547167740113,0.1002149237575136,-0.05473921442590017
-9634.299422979355,252.0,-5436.0,-15440.0,-365.0,-1028.0,-1071.0,0.6339728641371162,0.7432213078235577,0.11934121671954989,-0.17736450920835173
-9634.315004825592,616.0,-5476.0,-15240.0,-568.0,92.0,539.0,0.6763844943742291,0.7173401989114457,0.09808445839807135,-0.135301492292447
-9634.330656290054,244.0,-5728.0,-15520.0,-543.0,602.0,2588.0,0.7158007454213479,0.6955450330336547,-0.021354339453783518,0.058227073281657035
-9634.346242427826,-580.0,-5608.0,-15864.0,-161.0,690.0,3496.0,0.6768439545689491,0.6451447280710952,-0.1826537117977764,0.3038225840388332
-9634.361871004105,-1416.0,-5308.0,-15512.0,-227.0,901.0,2762.0,0.6111006805025999,0.5466236199444642,-0.28208344203127916,0.49818421105034555
-9634.377518415451,-2048.0,-5580.0,-15204.0,-575.0,173.0,738.0,0.6084328756221227,0.4887607243140893,-0.3320965428713146,0.5297492580863914
-9634.393153190613,-2288.0,-5860.0,-15148.0,-468.0,-933.0,-1630.0,0.667084968822189,0.5466856886632304,-0.32928800729961105,0.38431993238831563
-9634.40875840187,-1612.0,-5216.0,-15064.0,-236.0,-1235.0,-2635.0,0.7083994374357278,0.6301241724262688,-0.2747762315757681,0.16003682990447618
-9634.424354314804,-1248.0,-5288.0,-15096.0,-631.0,-984.0,-2977.0,0.7328651649090169,0.6515373809656646,-0.17416711707933805,-0.08985269386921045
-9634.439995765686,-416.0,-5508.0,-15124.0,-622.0,-319.0,-2118.0,0.7328306855328166,0.6298480534629258,-0.0680404379653034,-0.2482360060344895
-9634.455612182617,-104.0,-5872.0,-15624.0,-456.0,486.0,-361.0,0.7511413468131306,0.6122546328737043,-0.007218113169327221,-0.24673637849882793
-9634.471239566803,-228.0,-5636.0,-15528.0,-156.0,1316.0,1786.0,0.78395175239056,0.61794623475486,-0.012753121364552353,-0.05830487776783496
-9634.48683476448,-900.0,-5388.0,-15564.0,-30.0,2012.0,2182.0,0.7732024376122938,0.6040043083399429,0.007161053058633728,0.19309455014651591
-9634.50245809555,-1892.0,-5296.0,-15724.0,224.0,1455.0,1087.0,0.7327072316269893,0.5880676562941685,0.05118735532080974,0.33866856806833784
-9634.518019199371,-2124.0,-4856.0,-15404.0,-291.0,717.0,-1600.0,0.7822273537361962,0.5349687581444584,0.16857170970999613,0.27113165355910057
-9634.533623695374,-1656.0,-5240.0,-15280.0,-337.0,-384.0,-4045.0,0.847141328871478,0.4350384451164395,0.30463623518146854,-0.01702599198278211
-9634.549210071564,-716.0,-5524.0,-15468.0,-138.0,-822.0,-4307.0,0.8103044153295569,0.2888155710085851,0.38084225825797674,-0.3390449745467029
-9634.564888000488,248.0,-5468.0,-15480.0,253.0,-341.0,-2414.0,0.7272171761471159,0.21166230110562437,0.40128305402502007,-0.5150982038016046
-9634.580528259277,748.0,-5452.0,-15284.0,-39.0,1013.0,121.0,0.6949856419784195,0.25795139804774975,0.4635342008486777,-0.48537828374643355
-9634.59612941742,504.0,-5400.0,-15600.0,-88.0,1544.0,2107.0,0.7054551637068242,0.39317868520013427,0.500877411208545,-0.3112319913580507
-9634.611753463745,-700.0,-5788.0,-15108.0,103.0,1825.0,2147.0,0.6605320449026686,0.5272665935204298,0.5214401410809751,-0.11742034016095111
-9634.62735247612,-1500.0,-5676.0,-15160.0,336.0,1258.0,950.0,0.5914846164849978,0.5969616486469519,0.5416517269429549,-0.019903396846337518
-9634.642946004868,-1660.0,-5284.0,-15380.0,162.0,-137.0,-1962.0,0.5773532791063728,0.504992041368416,0.6274320273175334,-0.13407192232488027
-9634.658569097519,-1016.0,-5376.0,-15292.0,-66.0,-464.0,-3162.0,0.5474974858579922,0.3112711193549984,0.7169730375039125,-0.29884185906107164
-9634.674168109894,-508.0,-5564.0,-15612.0,117.0,-67.0,-2465.0,0.47310704953624333,0.15728395986612095,0.7604219385698621,-0.4161609676430456
-9634.689792633057,328.0,-5644.0,-15620.0,429.0,441.0,-493.0,0.41882098021932684,0.1578953622954252,0.7681975448544911,-0.45774509628531335
-9634.705365896225,432.0,-5264.0,-15744.0,519.0,1371.0,846.0,0.3495372497127366,0.2852209935007925,0.7776694689521443,-0.43783888930674847
-9634.720967054367,300.0,-5064.0,-15680.0,491.0,2067.0,1754.0,0.25651553874135086,0.48439345006858103,0.7568952872644809,-0.355910505649539
-9634.736554861069,-96.0,-5176.0,-15516.0,210.0,3056.0,2380.0,0.11313833768832535,0.7020597920376755,0.6803553461953816,-0.17728047792269855
-9634.752144575119,-624.0,-5756.0,-15232.0,126.0,3537.0,2381.0,-0.06379020253199033,0.8428424042603917,0.5318292048179316,0.05201142705422088
-9634.767798423767,-1148.0,-6308.0,-15224.0,377.0,3986.0,1583.0,-0.2657244532543257,0.8389085125226456,0.3696642963466157,0.29828062385326587
-9634.783442258835,-1680.0,-6192.0,-15756.0,743.0,4043.0,-192.0,-0.4193118063359341,0.6686266767714887,0.2911172708965397,0.540709451334598
-9634.79906630516,-1876.0,-5832.0,-15836.0,1009.0,3591.0,-3093.0,-0.390009470836354,0.3536247605963877,0.35722749026055894,0.7715119322170183
-9634.814675569534,-944.0,-5288.0,-15456.0,456.0,4590.0,-4152.0,-0.23533530240916956,-0.08806142778858522,0.3165482725902537,0.9146910251532737
-9634.830274820328,-232.0,-5624.0,-15392.0,-88.0,6757.0,-4080.0,-0.07982622168596373,-0.6081467698800312,0.1149609734509895,0.7813893109065599
-9634.845869779587,372.0,-6256.0,-15580.0,-903.0,9920.0,-2376.0,-0.0485754395346608,-0.9709668880685592,-0.10577252820982,0.2089878016166858
-9634.861586809158,-236.0,-7004.0,-16476.0,-2040.0,12473.0,1824.0,-0.09303534800848465,-0.8058328395585563,-0.027609033557412177,-0.5841366278328726
-9634.877193927765,-1388.0,-7420.0,-18164.0,-883.0,12736.0,-987.0,-0.11647034425676622,-0.09816772273046222,-0.10361270361915768,-0.9828846141696155
-9634.892777442932,-1804.0,-5576.0,-20612.0,-2164.0,10389.0,-3401.0,-0.23858480678809177,0.6062557708813776,-0.03770786415978589,-0.7577000377612652
-9634.908350944519,-1104.0,-5472.0,-23364.0,-4800.0,10710.0,-7700.0,-0.2899184115357587,0.9104808854383865,0.2934484668395927,-0.02932352661953443
-9634.924074411392,684.0,-8516.0,-24152.0,-5815.0,13820.0,-12291.0,-0.10836530881867111,0.39605860534947823,0.4758919572055348,0.7777669226962186
-9634.939668178558,2108.0,-12028.0,-21548.0,-4769.0,16452.0,149.0,-0.3542062364606295,-0.37210400485420875,-0.004722610947450909,0.8579360399060612
-9634.955276727676,1640.0,-13756.0,-22316.0,-1489.0,20682.0,-231.0,-0.1821281440636382,-0.9065873325242496,-0.3691067560817292,0.09321453889454824
-9634.97086405754,-3008.0,-11100.0,-17724.0,838.0,17051.0,12062.0,0.1613222770306183,-0.6956221797981249,0.15431071063691273,-0.6828419366802927
-9634.986479759216,-6684.0,-7868.0,-15720.0,3780.0,17039.0,9845.0,0.3713783029190174,0.2509210365754238,0.3806456981329935,-0.8088421613749814
-9635.002086639404,-9072.0,-5448.0,-12284.0,3323.0,15140.0,8217.0,0.20542129784905475,0.9297589612619652,0.24994124420026878,-0.17572631786588835
-9635.017689228058,-11944.0,-4848.0,-7136.0,537.0,13285.0,25344.0,0.09686765647061508,0.6303421514249883,-0.5860346605064217,0.4998487830853758
-9635.033348560333,-17028.0,-5800.0,-6884.0,2461.0,10468.0,32176.0,-0.2902023233694742,-0.4643953470944433,-0.6912490783431087,0.47148094849929356
-9635.048921585083,-22276.0,-4784.0,-7156.0,3854.0,59.0,27823.0,-0.4817429854060978,-0.8471407308200574,0.22422056510892138,-0.0011901176056578284
-9635.064556121826,-23500.0,-2952.0,-8288.0,1397.0,-11735.0,11293.0,-0.08465871152101727,-0.39379960852401175,0.8910616578118042,0.20919821430312313
-9635.080153942108,-20368.0,-4292.0,-10880.0,-3867.0,-23177.0,-2917.0,0.7136199736166982,-0.07357056802173391,0.3882352233871624,0.5784525184470914
-9635.095772743225,-13872.0,-8176.0,-14348.0,-5825.0,-31930.0,-6973.0,0.6885229545138072,0.3064082299924161,-0.6326555143781937,0.17831751968708992
-9635.111353635788,-6844.0,-11356.0,-18420.0,-3131.0,-32768.0,-6303.0,-0.30380353195446014,0.31577920351827443,-0.8028756427673085,-0.40419996393906427
-9635.126929998398,-352.0,-13700.0,-20368.0,2739.0,-31204.0,3068.0,-0.840730052292518,-0.3669069419537812,-0.05362440955874046,-0.39455886483238606
-9635.142496109009,1992.0,-11032.0,-20576.0,5918.0,-28122.0,18092.0,-0.05103661504684995,-0.5928116055964834,0.7626075089871607,-0.2537704699744965
-9635.15813922882,1232.0,-8428.0,-20316.0,7174.0,-23484.0,18098.0,0.8031274566902411,0.020960412585086265,0.5783106659436047,0.14178759843650726
-9635.173733711243,-556.0,-5952.0,-19428.0,4999.0,-23752.0,17524.0,0.634828469680038,0.5539794279253114,-0.3776545726467272,0.3840268627039827
-9635.189356327057,-2236.0,-4664.0,-19668.0,1914.0,-24891.0,7342.0,-0.21129205014439287,0.504669523952089,-0.8251169923312802,-0.14087686149944373
-9635.204934835434,-2168.0,-5048.0,-19996.0,-1998.0,-25736.0,-1400.0,-0.8079353459118961,0.13211930051586046,-0.10715063640810514,-0.5641841085804905
-9635.220526218414,-768.0,-8224.0,-20304.0,-3341.0,-27008.0,-6991.0,-0.5159352952462933,-0.3385081479992695,0.7712284621695101,-0.156299916816604
-9635.236106157303,2276.0,-11116.0,-20504.0,-1132.0,-27635.0,-8128.0,0.44322308585779036,-0.44747580455922553,0.661511399588339,0.40708889534283327
-9635.251715183258,5472.0,-10732.0,-19844.0,3457.0,-25686.0,-2931.0,0.8709178014287973,0.1727550889682417,-0.13018823391691206,0.4412582986637194
-9635.267309188843,8140.0,-6684.0,-18852.0,5633.0,-20270.0,4222.0,0.18514959137692635,0.6281054564903813,-0.7148992863920346,0.24519823542620842
-9635.282890081406,8692.0,-2736.0,-17068.0,4824.0,-12372.0,8885.0,-0.6068616603849927,0.2427496263369936,-0.7568005692300663,0.006666519411748403
-9635.298461198807,6488.0,-1976.0,-15924.0,696.0,-5408.0,7041.0,-0.7759653191437761,-0.20210341988314262,-0.4890223881646229,-0.34334987262471034
-9635.314061641693,3096.0,-5164.0,-14400.0,-2679.0,-1236.0,3407.0,-0.7200895792733252,-0.18909496910346715,-0.24677590024567436,-0.6203351880553459
-9635.32964849472,-196.0,-9124.0,-13976.0,-2578.0,-1715.0,-582.0,-0.8013735405316149,-0.10348701841176414,-0.008759769581238747,-0.5890790710871935
-9635.345214605331,-2588.0,-10780.0,-14000.0,409.0,-4708.0,-6464.0,-0.9292356100806367,-0.30240667305462743,0.1977641268483746,-0.07720579759317846
-9635.36078953743,-2316.0,-8700.0,-13588.0,2510.0,-8051.0,-11940.0,-0.49619345757317024,-0.4727446652251315,0.32007037220333606,0.6541096934004104
-9635.376363515854,-300.0,-4696.0,-12944.0,2261.0,-8360.0,-14113.0,0.3621516237277235,-0.27760194165329616,0.13029883761545089,0.8802304109366796
-9635.391969203949,1700.0,-2312.0,-12668.0,-883.0,-4871.0,-14731.0,0.9066704485592008,-0.05883828551514679,-0.2660736844576502,0.3220117207590842
-9635.40754199028,2528.0,-3588.0,-12504.0,-3483.0,81.0,-9900.0,0.8619060027951937,-0.07886252381899875,-0.3013613147873457,-0.4001001157612329
-9635.42313694954,780.0,-6308.0,-12688.0,-3139.0,4339.0,-3544.0,0.7246605929530165,-0.06152573449231837,0.09600089644534197,-0.67960682522901
-9635.438731908798,-1840.0,-8056.0,-12704.0,-1186.0,4745.0,64.0,0.6275038317076487,0.13356450659510866,0.42948656700370363,-0.6355633347933133
-9635.45432472229,-4260.0,-7180.0,-12964.0,338.0,2239.0,-3187.0,0.3433388289373442,0.14840343226253125,0.5401647769303747,-0.7538679483837948
-9635.470015764236,-4436.0,-5120.0,-13232.0,-1151.0,-1112.0,-11241.0,-0.23361020388902048,-0.347363577176817,0.5174260923582107,-0.7463478122408937
-9635.485607862473,-3016.0,-4268.0,-12904.0,-2931.0,-4144.0,-19016.0,-0.691217157659755,-0.7125864025771448,0.10899429778940123,-0.05059350618733576
-9635.501205921173,188.0,-3596.0,-13712.0,-4150.0,-5797.0,-25220.0,-0.40271267192457283,-0.29161053807029613,-0.4371937750472976,0.7494313851298309
-9635.516788244247,3480.0,-2060.0,-15324.0,-3999.0,-4852.0,-23535.0,0.36169480875723503,0.45293487588664694,-0.479868166695768,0.658599579498543
-9635.532372713089,7460.0,1364.0,-21064.0,-4007.0,20281.0,-701.0,0.6831591302082415,-0.39235666589392704,-0.02059498913747795,0.6155694079176998
-9635.547989368439,-3492.0,-6632.0,-24228.0,-32768.0,32767.0,32767.0,-0.4235414814777862,-0.8243227871653986,0.25618784586625193,0.2747223028039052
-9635.563607215881,-28664.0,-32768.0,-26428.0,3336.0,21357.0,32767.0,-0.40530810316298455,-0.20372435948439974,0.5335131272292277,-0.7138525547598639
-9635.579202413559,-30376.0,-19864.0,-16092.0,22063.0,-17044.0,-32768.0,-0.324469863267695,-0.9192133986580467,-0.21121347886122482,-0.07179764554569325
-9635.594814538956,-16096.0,9624.0,-10408.0,17942.0,-24081.0,-32768.0,0.11623586987635913,-0.2431343591743376,-0.566771291853746,0.77855327927728
-9635.61042046547,-2544.0,17480.0,-13508.0,-4693.0,-25533.0,-32768.0,0.2590809419294335,0.8102021264468103,-0.4863714953281416,0.19973068958548107
-9635.626025915146,3936.0,8748.0,-25972.0,-28129.0,-21504.0,-32768.0,0.4405038263251112,0.44830331390779693,0.1973388440096958,-0.7523549018761961
-9635.641618967056,12468.0,-2252.0,-20592.0,-25533.0,-10624.0,-32768.0,-0.1366383791656851,-0.4634555373052517,0.7093403006406258,-0.5132009900293856
-9635.657215118408,18372.0,-20436.0,-13832.0,-13304.0,1977.0,-24333.0,-0.7189690517042768,-0.6564104711972061,0.11341650481348131,0.19835698230717427
-9635.67285656929,22200.0,-18572.0,-19544.0,5182.0,1148.0,32767.0,-0.3264557322743814,-0.22091457969256226,0.6552880703468745,-0.6443764025827805
-9635.688455343246,18196.0,-1724.0,-16092.0,8677.0,19690.0,32767.0,0.15639651715375674,0.7050561113023119,0.066871049788496,-0.688450631518064
-9635.704067230225,11204.0,3140.0,-18200.0,2581.0,32767.0,32767.0,0.42544785321876394,0.695151345591456,-0.3972008653055661,0.42188885208600013
-9635.71966099739,-1912.0,-212.0,-21592.0,-2938.0,32767.0,32767.0,0.12768789020429597,-0.42074909642820874,-0.3059075860499972,0.8444445211777295
-9635.735257387161,-20168.0,-6652.0,-18528.0,4785.0,32767.0,32767.0,-0.2953570237835361,-0.8734855865564437,0.38569468615568775,0.032043215368352106
-9635.750869512558,-32208.0,-8684.0,-11452.0,6926.0,11913.0,8669.0,-0.11077492334287521,-0.4567030558901537,0.4367506624801681,-0.7670724176517558
-9635.76648569107,-31120.0,-3700.0,-12400.0,1837.0,-17858.0,-32768.0,-0.45458961313991675,-0.8558247279807357,-0.24032103749326092,0.05619713106701203
-9635.782059192657,-17032.0,1728.0,-15356.0,-6902.0,-32768.0,-32768.0,-0.3554918533822317,0.06318045746059747,-0.3377371650165672,0.8692337886555652
-9635.797636032104,-556.0,3096.0,-17440.0,-10248.0,-32768.0,-32768.0,0.2865503864885914,0.8995018109121119,0.01920705107873547,0.32926654454701154
-9635.81321811676,11548.0,2600.0,-16784.0,-13229.0,-25554.0,-32768.0,0.5868576815735083,0.31723311439322394,0.39956399932257813,-0.6287366882534288
-9635.828798532486,16788.0,-6756.0,-19048.0,-13369.0,1203.0,-27132.0,-0.20318084320872568,-0.44168196240718066,0.6888994042056984,-0.5376357502270165
-9635.844378232956,16404.0,-13056.0,-16108.0,-6499.0,14626.0,20885.0,-0.14095918637851423,0.6449056848493628,0.6147902210614151,-0.43157867128918465
-9635.860030174255,7608.0,-12804.0,-17448.0,3775.0,21426.0,32767.0,-0.07524641229313993,0.8848527969596525,-0.4573195534830087,0.04724755180739521
-9635.87564587593,-3116.0,-6880.0,-17332.0,8650.0,26831.0,26557.0,0.06180143740679606,-0.09719266139980862,-0.7514345919638885,0.6496770142959811
-9635.89129948616,-12684.0,-1180.0,-12928.0,4456.0,13519.0,20175.0,-0.06647349925723006,-0.9104304224515429,-0.10727753163239843,0.3939406693628673
-9635.906889677048,-16016.0,-1564.0,-13556.0,-2795.0,2003.0,-12205.0,0.10060300967527624,-0.5689977977139523,-0.7943512965789311,0.18742080531338912
-9635.92254781723,-13512.0,-2452.0,-13224.0,-9525.0,-11391.0,-26404.0,-0.25842741191130514,0.48263567952772696,-0.8353799265557386,-0.04917775846216107
-9635.938184261322,-7100.0,-5456.0,-15724.0,-10061.0,-14836.0,-32768.0,-0.3099772364007972,0.8901063361512674,0.2705836462168894,-0.19598294225943294
-9635.953821897507,476.0,-9148.0,-16536.0,-4561.0,-15333.0,-30950.0,-0.0383877279358034,0.0064353596490382605,0.9896604963699753,-0.13804734845279862
-9635.969409704208,6212.0,-8024.0,-16208.0,266.0,-11174.0,-13988.0,0.4085001453771595,-0.7208606087344674,0.5561138023167201,-0.06500040672682192
-9635.985026597977,8000.0,-3576.0,-15588.0,-89.0,-2917.0,-2568.0,0.5015819967754628,-0.8194913209355238,0.2756430686249217,0.02950210401185996
-9636.000627040863,7004.0,-2272.0,-15580.0,-2922.0,5400.0,4934.0,0.12340667127900526,-0.6944659461968742,0.7064743901160934,-0.058153066701676664
-9636.016245365143,3324.0,-5176.0,-15672.0,-3225.0,10068.0,12542.0,-0.3603727763128661,0.05449117480553294,0.9112785203959041,-0.19166019990055735
-9636.03180885315,-1548.0,-7228.0,-15548.0,-1543.0,9344.0,16184.0,-0.4302637214358417,0.8063834841685531,0.2953304983687524,-0.27820622424674396
-9636.047376155853,-5656.0,-6928.0,-15256.0,-695.0,5404.0,9473.0,-0.21014999296493336,0.8741494790880325,-0.4032570352912878,-0.17053865296477796
-9636.063006162643,-7692.0,-6052.0,-15084.0,-1218.0,884.0,243.0,-0.08201400015932202,0.8932689709466826,-0.4161396228663678,-0.14890286633358948
-9636.078646421432,-7128.0,-5848.0,-15212.0,-1237.0,-2059.0,-6030.0,-0.12095295870766919,0.9521730699566872,0.07381674738790032,-0.27071740696562063
-9636.09423661232,-5196.0,-5624.0,-14644.0,-222.0,-3786.0,-6897.0,-0.19879715361853556,0.6765231434006728,0.5705456251605935,-0.42103897416575164
-9636.10982966423,-2852.0,-4688.0,-15524.0,403.0,-4585.0,-7067.0,-0.20444250529251728,0.12031381769240702,0.8477702468156376,-0.4743558325942144
-9636.12542438507,-612.0,-3184.0,-15056.0,-712.0,-3141.0,-8124.0,-0.2391361239701945,-0.4754661021890465,0.8100524431525371,-0.24609132293576005
-9636.141012191772,1220.0,-4272.0,-15436.0,-1949.0,421.0,-5340.0,-0.4155967652801958,-0.7192170936973471,0.5566359375106398,-0.012748878140069286
-9636.156607866287,1208.0,-6840.0,-15648.0,-1583.0,2462.0,-528.0,-0.6145629588155167,-0.662855494653962,0.42210038274141504,-0.06903788632714436
-9636.172251939774,276.0,-7336.0,-15400.0,157.0,2652.0,5488.0,-0.5913566369786835,-0.400113433371438,0.5266181673964584,-0.46138907020537145
-9636.18788599968,-1352.0,-5912.0,-15032.0,752.0,2586.0,3953.0,-0.48409659225187224,-0.14136852933118843,0.46248276059735227,-0.7292291302705299
-9636.203462839127,-2676.0,-5176.0,-14780.0,-653.0,1709.0,106.0,-0.54729913585112,-0.0007085942603167565,0.4280025255584928,-0.7192197104545616
-9636.219074726105,-3180.0,-6252.0,-15204.0,-1039.0,-228.0,-4499.0,-0.7614674344731402,-0.12362578238434165,0.4674890496491258,-0.43166885528714094
-9636.234662294388,-2720.0,-6736.0,-15464.0,-359.0,-2500.0,-5249.0,-0.7674579620701005,-0.3637227188926643,0.5266522166739505,-0.03676279218109289
-9636.250242710114,-1516.0,-5820.0,-15604.0,217.0,-3700.0,-5522.0,-0.5258440758722163,-0.5569729540448195,0.517795924771332,0.3809941162575657
-9636.265839576721,88.0,-4772.0,-15424.0,-43.0,-2832.0,-5175.0,-0.20243329122893589,-0.6177617294628914,0.3511150856591306,0.6738764017502169
-9636.281415700912,1328.0,-5304.0,-15580.0,-644.0,-1244.0,-1607.0,-0.10266328411886198,-0.572855077876993,0.24446035579391004,0.7755878056607058
-9636.296999454498,1388.0,-6024.0,-15496.0,-229.0,272.0,3821.0,-0.3588919901402524,-0.48165134982038,0.39597360533840154,0.6945598753920951
-9636.312576770782,680.0,-5872.0,-15224.0,217.0,1806.0,7608.0,-0.7212196352347364,-0.27682829997472136,0.5554072358653698,0.3077842303195026
-9636.328153371811,-964.0,-5512.0,-14992.0,158.0,2798.0,8197.0,-0.8559584418643134,0.028196419082839458,0.46409192409916533,-0.2261830978169155
-9636.343775987625,-2544.0,-5460.0,-15252.0,-29.0,2363.0,6426.0,-0.7078573370090544,0.2896389197776579,0.23400068585696002,-0.600242422368624
-9636.359335899353,-3524.0,-5664.0,-15140.0,25.0,1096.0,3953.0,-0.4930678864616883,0.4015258965984446,0.06140023683436654,-0.7693445422031033
-9636.374949455261,-3532.0,-5432.0,-15268.0,343.0,-4.0,1055.0,-0.4321661988581737,0.3906111738520806,0.0016504171694648165,-0.8128053663390418
-9636.390567064285,-2932.0,-5108.0,-15252.0,229.0,-654.0,44.0,-0.4359310343459197,0.33527744487062566,0.008619738797166012,-0.8351520031456487
-9636.406168937683,-2276.0,-5276.0,-15268.0,94.0,-710.0,-532.0,-0.4754615287746009,0.27901197778770875,0.04429483088055897,-0.8331426161609867
-9636.421798944473,-1644.0,-5312.0,-15184.0,98.0,-465.0,-597.0,-0.5182850687918128,0.23859154752919617,0.0709650566061419,-0.8181800667676866
-9636.437390327454,-1212.0,-5440.0,-15120.0,109.0,295.0,-158.0,-0.5333822999595723,0.25389822446003035,0.05326024969371631,-0.8051101536488307
-9636.452984333038,-1272.0,-5812.0,-15216.0,212.0,786.0,949.0,-0.4722296683150211,0.3021473783331687,-0.018989032792719972,-0.8278559770655011
-9636.4685921669,-1664.0,-5952.0,-15148.0,299.0,526.0,1202.0,-0.38971674064405654,0.32390427928579585,-0.09322339995962386,-0.8570392509226693
-9636.484181642532,-1824.0,-5724.0,-15132.0,348.0,-256.0,-616.0,-0.44674655360663595,0.2976010985820618,-0.09288567462453162,-0.8385841367524719
-9636.499817371368,-1676.0,-5752.0,-15180.0,-87.0,-365.0,-1736.0,-0.5676965887157107,0.2852552468594719,-0.02684153347236788,-0.7717704058724579
-9636.515436410904,-1740.0,-6240.0,-14800.0,-49.0,-446.0,-737.0,-0.6153897211186837,0.2589410615150337,0.01692966148662136,-0.7442838197656084
-9636.530999422073,-1560.0,-5960.0,-15112.0,434.0,-780.0,-489.0,-0.6532102152031166,0.18383062103716416,0.041615542978846634,-0.7333422557755446
-9636.546576499939,-1368.0,-5264.0,-15216.0,194.0,-415.0,-515.0,-0.6865053104787605,0.14437892465402258,0.06113430837952094,-0.7100195639129715
-9636.562154054642,-1304.0,-5304.0,-15340.0,-13.0,-253.0,-254.0,-0.7003550364001898,0.12834871927664848,0.08040773623722947,-0.6975414146859934
-9636.577799797058,-1468.0,-5740.0,-15264.0,185.0,35.0,207.0,-0.6898350300290564,0.12086514990897151,0.06483717188402029,-0.7108553917811798
-9636.593374490738,-1532.0,-5704.0,-15224.0,313.0,135.0,756.0,-0.6452920905931696,0.1146563477184066,0.02940527894461559,-0.7547101227066997
-9636.608948469162,-1644.0,-5544.0,-15292.0,297.0,549.0,712.0,-0.6007171882311507,0.13574466308498948,-0.02795460337758128,-0.7873568354676328
-9636.624544620514,-1916.0,-5748.0,-15056.0,193.0,790.0,1326.0,-0.5053268878253815,0.17537388650406596,-0.09734994275672545,-0.8392923954251197
-9636.640131235123,-2296.0,-5908.0,-15052.0,371.0,209.0,736.0,-0.45408377307252173,0.16792815126960806,-0.14456993898336118,-0.8629644232445167
-9636.655755996704,-2412.0,-5696.0,-15224.0,267.0,-286.0,-1305.0,-0.5559788268775,0.15152836043398768,-0.1332914520189577,-0.8063250516180087
-9636.671352148056,-1888.0,-5716.0,-15300.0,-59.0,-875.0,-2331.0,-0.7127639086132739,0.11751553079601114,-0.05459969278908837,-0.6893305333056107
-9636.686944246292,-1420.0,-5964.0,-15084.0,77.0,-900.0,-1583.0,-0.8029718758259977,0.06562685309349406,0.012875674154451648,-0.5922529018929262
-9636.702538251877,-952.0,-5824.0,-15024.0,202.0,-552.0,-376.0,-0.8214124174448942,0.02278096333524659,0.04331704186996548,-0.5682308527882733
-9636.71815943718,-708.0,-5612.0,-15256.0,155.0,413.0,966.0,-0.7720594877899795,0.035918691412931976,0.004274564956168224,-0.634520072980432
-9636.733785390854,-1120.0,-5664.0,-15000.0,30.0,931.0,2046.0,-0.6468718234699194,0.08489143530199192,-0.06514375539563724,-0.755054024124117
-9636.74939775467,-1780.0,-6148.0,-15076.0,340.0,562.0,2314.0,-0.4832051326041219,0.08797870541283614,-0.13344104029055948,-0.8607938405826843
-9636.764991521835,-2236.0,-5816.0,-15140.0,403.0,-55.0,1489.0,-0.3717598816878396,0.049394171137113155,-0.17128478739910744,-0.9110523189316645
-9636.780569314957,-2284.0,-5412.0,-15256.0,131.0,-625.0,-474.0,-0.4183907651322426,0.0028424577871387865,-0.15906322562129327,-0.8942259101260344
-9636.79615855217,-1932.0,-5884.0,-15144.0,94.0,-784.0,-594.0,-0.4739461557944799,-0.053027150368253194,-0.13715036974642533,-0.8681894602043243
-9636.811869621277,-1792.0,-5920.0,-15236.0,300.0,-735.0,153.0,-0.4686468683654762,-0.12238556275503268,-0.1284562279077687,-0.8653848186281486
-9636.827455759048,-1220.0,-5636.0,-15168.0,394.0,-35.0,1261.0,-0.3671279064076016,-0.15428789422093678,-0.14232943222630692,-0.9061758542114093
-9636.843083620071,-1356.0,-5600.0,-14956.0,279.0,796.0,2075.0,-0.18579341090098675,-0.12387075756779972,-0.15893205309590172,-0.9617054883820088
-9636.858678102493,-1852.0,-5932.0,-15244.0,199.0,1278.0,2363.0,0.031626656504296705,-0.05131864448187911,-0.16624099609284942,-0.9842408661221902
-9636.874277830124,-2360.0,-5964.0,-15288.0,557.0,514.0,1956.0,0.20620202363460632,-0.033381034411760865,-0.20049400185367364,-0.9571669589007412
-9636.889873504639,-2420.0,-5384.0,-15208.0,539.0,236.0,953.0,0.2901363229788776,-0.02052125920608458,-0.23745865725093712,-0.9268296381242211
-9636.905509233475,-2320.0,-5684.0,-14676.0,389.0,-7.0,49.0,0.29446927192221195,-0.012256574471601275,-0.2689935007298741,-0.9169406310339353
-9636.921196699142,-1952.0,-6060.0,-14668.0,-78.0,357.0,53.0,0.3068438081895902,0.013032222942408776,-0.2535525909844747,-0.9172721091071879
-9636.936843633652,-2036.0,-6608.0,-15392.0,606.0,-184.0,232.0,0.3200875472665964,0.009401625002245425,-0.3068594940312839,-0.8962660444617079
-9636.952439785004,-1224.0,-6020.0,-15012.0,385.0,-268.0,828.0,0.3760580872313777,-0.022939279016636654,-0.34417894193885185,-0.8599970700135711
-9636.968096256256,-984.0,-5936.0,-15064.0,300.0,261.0,1528.0,0.49451035108939323,-0.03913183957484638,-0.35197607357437216,-0.7937512553867878
-9636.98371386528,-1192.0,-6296.0,-15056.0,267.0,1159.0,2523.0,0.6857842782744812,-0.024257647175228575,-0.30319324749679394,-0.6611999280833437
-9636.99931049347,-1724.0,-6280.0,-15116.0,473.0,968.0,2855.0,0.8476030405448824,-0.015293629160226245,-0.2577127889128143,-0.46359390526295663
-9637.014887094498,-2200.0,-6104.0,-15036.0,987.0,659.0,2350.0,0.9344643586833186,0.03049085196740435,-0.23967935498842577,-0.26153484870894017
-9637.030449867249,-2480.0,-5632.0,-14668.0,481.0,810.0,1906.0,0.9769376292983214,0.04731268637209133,-0.1866789648748848,-0.09222441239971695
-9637.04600405693,-2720.0,-5736.0,-15176.0,496.0,776.0,614.0,0.9878773363102693,0.08519818120710163,-0.12662236103869184,-0.028397464825515473
-9637.061606884003,-2872.0,-5712.0,-15168.0,522.0,237.0,-162.0,0.9849102692745407,0.1321392892307158,-0.10622469984372158,-0.03474597620249483
-9637.077231407166,-2688.0,-5464.0,-15448.0,974.0,-1071.0,-1947.0,0.9370785212835979,0.22553783079926204,-0.17499737004290894,-0.200978735953269
-9637.092865467072,-1856.0,-5136.0,-14976.0,764.0,-1176.0,-2617.0,0.830640523307288,0.29769654600103757,-0.22578093018133996,-0.41283902323459687
-9637.108476400375,-1368.0,-6196.0,-15004.0,497.0,-996.0,-2371.0,0.6946397081579936,0.3360825189265021,-0.24802727702323288,-0.5856677267654717
-9637.124104261398,-948.0,-6780.0,-14880.0,924.0,-1002.0,-681.0,0.6055921738747991,0.35272736762907086,-0.33319733396082857,-0.6307305761642266
-9637.139730215073,-996.0,-6568.0,-15328.0,1296.0,-97.0,1958.0,0.6568642823546723,0.35181202881378704,-0.460494004589012,-0.482392871719912
-9637.155334472656,-1484.0,-6112.0,-14972.0,1621.0,354.0,2867.0,0.7126817734442216,0.330989853307386,-0.5731775680798183,-0.23237444407262017
-9637.170983791351,-2332.0,-5924.0,-14856.0,1628.0,67.0,2151.0,0.6934555889953592,0.31739074214580876,-0.6466577015073197,-0.014706460230194202
-9637.186642885208,-3020.0,-5928.0,-15000.0,1582.0,-553.0,410.0,0.6118197986498167,0.3849788807340932,-0.6859640236673703,0.08319347091505438
-9637.202225446701,-3092.0,-6260.0,-14860.0,1644.0,-2124.0,-1241.0,0.42425256714587156,0.544630271449967,-0.7221987556671354,0.042621403112925775
-9637.217801332474,-2600.0,-6284.0,-14616.0,1814.0,-2902.0,-2245.0,0.15366657365001396,0.7195644162574258,-0.6745177790798377,-0.06032744569412845
-9637.233390569687,-1652.0,-6256.0,-14940.0,2067.0,-2817.0,-1220.0,-0.14147001030699544,0.7653228757537176,-0.6152575017232225,-0.1254007121395146
-9637.248975276947,-1196.0,-6248.0,-14700.0,1975.0,-2008.0,-192.0,-0.37223849229547434,0.7081479995180983,-0.5818315786112658,-0.14641355730542938
-9637.264553546906,-1268.0,-6772.0,-14988.0,2163.0,-1676.0,1459.0,-0.552353410745759,0.5237223705970939,-0.6228374002692195,-0.1808152676063805
-9637.280171871185,-1468.0,-6912.0,-14708.0,2498.0,-1366.0,2870.0,-0.6557251648098124,0.21309648390227423,-0.6862585837816427,-0.23165395090446095
-9637.295816421509,-1908.0,-6676.0,-14756.0,2525.0,-1027.0,3388.0,-0.650314645147883,-0.14482892166107475,-0.6934983270403778,-0.27418153867259276
-9637.311443328857,-2676.0,-6876.0,-14644.0,2552.0,-1390.0,3236.0,-0.5839674730991131,-0.484976950673343,-0.5936824804590971,-0.26705890749749617
-9637.327061653137,-3060.0,-6864.0,-14356.0,2778.0,-2182.0,3190.0,-0.46628739741475794,-0.7782828087555548,-0.38082472435035203,-0.17839411966546023
-9637.342695713043,-3472.0,-6536.0,-14752.0,2849.0,-3367.0,1113.0,-0.34120439987531515,-0.9142798629224426,-0.19763002491714285,0.09281305410067694
-9637.35829257965,-2884.0,-6236.0,-14560.0,2724.0,-4747.0,296.0,-0.18747844902648497,-0.867910081553131,-0.00960257168593496,0.4598822807046143
-9637.373865365982,-2396.0,-6284.0,-15020.0,2336.0,-5264.0,1714.0,-0.07398006415590933,-0.6168309550107296,0.2657288144333862,0.7371802494830323
-9637.38948750496,-2232.0,-8200.0,-14264.0,2655.0,-4722.0,2055.0,0.04138475279761799,-0.2523505167594614,0.5155162127143498,0.8178322281224714
-9637.405067443848,-2480.0,-8304.0,-14416.0,4636.0,-5276.0,6499.0,-0.06366673966358986,0.33252466881365883,0.7450317599579557,0.5747186855714074
-9637.42070889473,-2608.0,-7328.0,-14260.0,5139.0,-4265.0,5571.0,-0.17117243958537082,0.7010632171130224,0.6888873407684153,0.06815125286121267
-9637.436290502548,-3364.0,-7168.0,-14444.0,4630.0,-4720.0,5459.0,-0.16257801801932548,0.7911230911589942,0.36257083925857436,-0.46501078397310186
-9637.451936721802,-3900.0,-7960.0,-15052.0,4822.0,-5665.0,2553.0,-0.17534328446524652,0.47311893487114265,0.058673806870385724,-0.8613771476227308
-9637.467556238174,-4068.0,-8412.0,-14776.0,4879.0,-7561.0,1692.0,-0.1648020535820788,-0.125751866716607,-0.2047810909880038,-0.9566041270693856
-9637.483149766922,-3056.0,-8736.0,-15004.0,5539.0,-8642.0,-1070.0,-0.2584321272648532,-0.6745880064997334,-0.4120999543330615,-0.5552634372284626
-9637.498779296875,-1720.0,-8228.0,-15028.0,5768.0,-8924.0,1331.0,-0.12795427755690317,-0.9388184267094215,-0.3009845097988456,0.10796290745847069
-9637.51438331604,-364.0,-8328.0,-15216.0,4804.0,-7779.0,1818.0,0.03451176370590818,-0.7500460370983321,-0.015451472606942757,0.6603038182482909
-9637.52997994423,712.0,-8908.0,-16168.0,4424.0,-6470.0,4418.0,0.0478966946428233,-0.2910750979025129,0.4004503426785625,0.8675371560180903
-9637.54556441307,1192.0,-8372.0,-18012.0,6148.0,-5396.0,13575.0,-0.37212167931906653,0.3617562722893235,0.69626565121605,0.4958548156232634
-9637.561175584793,664.0,-4916.0,-20600.0,9151.0,-2116.0,17362.0,-0.644392395438416,0.6080427080866373,0.30772885639571956,-0.34690842708875075
-9637.576794862747,-1000.0,-2264.0,-20088.0,4480.0,1633.0,16096.0,-0.24722334337379898,0.4724802851464153,-0.43620500452041155,-0.7248228698588299
-9637.59238910675,-3548.0,-4728.0,-15196.0,1095.0,2776.0,14840.0,0.4538779299279432,0.03608495881204298,-0.7106295415194261,-0.5363752000155755
-9637.608055591583,-6216.0,-7456.0,-14020.0,2060.0,-1020.0,10999.0,0.6417754257128615,-0.43712061842849403,-0.6298846288601061,0.017182031938410017
-9637.623610258102,-6336.0,-6676.0,-17360.0,5542.0,-5029.0,3422.0,0.46408353435266403,-0.24973095658247746,-0.6276662116269631,0.5729712464417362
-9637.639220237732,-3700.0,-2336.0,-22636.0,2307.0,-14022.0,-12486.0,0.19194661163776502,0.6365615853192405,-0.7007651872009684,0.2586000749880561
-9637.654811143875,4592.0,1224.0,-22692.0,234.0,-12226.0,-25024.0,-0.0015654445243329094,0.9309132448397687,0.18631920624324305,-0.3141388758976229
-9637.670448541641,12488.0,896.0,-17860.0,-7028.0,-4863.0,-13829.0,0.1551778278686683,0.3305101714519102,0.8660526030306661,-0.3415197755454263
-9637.686022043228,16128.0,-2640.0,-18324.0,-9365.0,12294.0,-3837.0,-0.36122317680723737,0.1635488686717942,0.8306914536342163,0.3907957176742555
-9637.701600790024,14788.0,-9952.0,-19724.0,-6961.0,26523.0,13151.0,-0.9284413757696112,0.152301823042076,-0.15177582179871593,0.30292716348062326
-9637.717192411423,8240.0,-9184.0,-18264.0,52.0,30519.0,32596.0,-0.34466903154218564,-0.27097465857892905,-0.7597390407632619,-0.4801797403513848
-9637.732784748077,808.0,-7280.0,-17576.0,4159.0,32767.0,21306.0,0.7890241784475693,-0.12192025323963948,-0.396269036408785,-0.45337307866565413
-9637.74838066101,-5524.0,-4308.0,-13856.0,1222.0,27816.0,13819.0,0.7992507544491012,0.20227486037845077,0.5595729967778562,0.08462371800192868
-9637.764016151428,-9148.0,-5036.0,-13640.0,-4275.0,21919.0,-6992.0,-0.06336882955115387,-0.26350165688633553,0.958845892420103,0.08465118338552076
-9637.779609680176,-9596.0,-7972.0,-13680.0,-8883.0,13851.0,-20755.0,-0.5055404307693668,-0.8153956809669999,0.13469676638250774,0.24782158389450568
-9637.7952709198,-7184.0,-12520.0,-14692.0,-7555.0,7942.0,-32768.0,-0.134573081223118,-0.32705273938115653,-0.8533161060173684,0.38311645055355237
-9637.81087064743,-1872.0,-11608.0,-14120.0,-2857.0,2734.0,-23856.0,0.3362801180286651,0.5958820001534052,-0.7116236261458193,0.15947457108542235
-9637.826468467712,2788.0,-6116.0,-14896.0,-1600.0,5816.0,-19435.0,0.515653770070178,0.8219020324614675,0.21951170198632317,-0.10194533407266954
-9637.84205698967,4760.0,-1516.0,-13976.0,-4976.0,12500.0,-11300.0,0.290787387745142,0.2692261044832668,0.894152580374424,0.2084494250480939
-9637.857629060745,4480.0,-2792.0,-14776.0,-9022.0,18967.0,-7335.0,-0.38651104424116645,-0.40161072916572976,0.6335869657215727,0.5365497104335295
-9637.87321472168,2660.0,-8036.0,-16404.0,-10174.0,22804.0,-3791.0,-0.7546185797951449,-0.551957306593254,-0.3077307379629471,0.1766231118485326
-9637.888808965683,152.0,-12280.0,-16268.0,-7925.0,23119.0,6580.0,-0.25431963980555533,-0.2322560890570069,-0.6745682228792951,-0.6529443640821061
-9637.904400348663,-3348.0,-13800.0,-16240.0,-3752.0,21146.0,12091.0,0.676077943123233,0.145124452707756,-0.2888226348040755,-0.6621472598096018
-9637.920113325119,-6428.0,-11296.0,-14680.0,-1644.0,17706.0,9740.0,0.8393448921901364,0.4063281644234527,0.35803636566235464,0.04698441884165842
-9637.935757398605,-8704.0,-9092.0,-14124.0,-1826.0,15049.0,2703.0,0.25229969508138883,0.1762938529698864,0.8102372636268657,0.4987794281015603
-9637.951353549957,-9492.0,-9332.0,-13740.0,-3326.0,11938.0,-2961.0,-0.2753660238092959,-0.41865934253061843,0.6512756449729618,0.5698578262236478
-9637.966947555542,-9388.0,-10848.0,-14268.0,-2461.0,8293.0,-4964.0,-0.44473551732866995,-0.795216641080231,0.11178022366870544,0.3966686211084129
-9637.98264336586,-8684.0,-11180.0,-14620.0,-1076.0,5248.0,-3649.0,-0.3864695256913225,-0.8449821484347959,-0.33293550030021624,0.16062511378450653
-9637.99824142456,-7336.0,-10056.0,-13956.0,-320.0,3719.0,-536.0,-0.27949069439763485,-0.8271356363781844,-0.4773136531914104,-0.09951516093266048
-9638.013832569122,-6648.0,-8900.0,-13436.0,-96.0,2991.0,2452.0,-0.13297721935964796,-0.8536781474279223,-0.3529249427246542,-0.3591582722675426
-9638.029414892197,-5992.0,-7888.0,-13000.0,-245.0,2932.0,5725.0,0.10345893545625812,-0.8155057714777961,0.04122184869506725,-0.5679325176029484
-9638.04500412941,-5752.0,-7760.0,-12928.0,581.0,3368.0,11125.0,0.4800146120518057,-0.42331951912277194,0.5856191116014315,-0.497430209249066
-9638.060576438904,-6204.0,-7360.0,-13828.0,949.0,3208.0,16040.0,0.6002109631510948,0.32968973838001364,0.7287197108502923,0.0043656773151101134
-9638.076134681702,-7204.0,-6860.0,-15748.0,1082.0,1769.0,16584.0,0.2545107414488718,0.8145102965789693,0.19501837674119235,0.48349259765503666
-9638.09176659584,-7332.0,-6152.0,-17340.0,743.0,682.0,13254.0,-0.24113982508374895,0.6711563585692724,-0.45746954713268734,0.5311518997017964
-9638.10734128952,-7972.0,-6268.0,-15552.0,-777.0,-766.0,11489.0,-0.5345948604194526,0.18626935224958763,-0.8105225404949462,0.1502174256710696
-9638.122919559479,-8876.0,-7116.0,-15444.0,-1310.0,-2768.0,5585.0,-0.6835875639218703,-0.09725095421878929,-0.6901266898242507,-0.21673819771124822
-9638.13848400116,-9420.0,-7184.0,-14560.0,-1102.0,-6853.0,-2367.0,-0.9689493341406115,-0.015557872435890022,-0.23651695500949077,-0.07039084078750993
-9638.154084682465,-7120.0,-6588.0,-15304.0,-1454.0,-9796.0,-6003.0,-0.8511207666118776,0.12046643941053477,0.4166262239332154,0.2958105257574654
-9638.169699192047,-3864.0,-5528.0,-16184.0,-1863.0,-9729.0,-2202.0,-0.3150029189082731,0.32198124060689964,0.83428236502095,0.3179216525994414
-9638.185363531113,-2300.0,-5388.0,-17820.0,-357.0,-11583.0,-5101.0,0.45628514365144546,0.18910023240599885,0.8629879846962398,0.10628597300161363
-9638.200946807861,540.0,-2848.0,-16864.0,-484.0,-11989.0,-9168.0,0.8777918956771948,-0.24752029601006106,0.3219533730913068,-0.25408879648984556
-9638.216536521912,3448.0,-2724.0,-15544.0,-2966.0,-9980.0,-11318.0,0.5037039778346758,-0.6060122854492526,-0.37109169252646684,-0.49124573111217984
-9638.232116699219,5312.0,-4624.0,-14088.0,-4954.0,-6729.0,-10457.0,-0.2760704081388945,-0.5032206373100575,-0.6552196404948277,-0.49116325457541354
-9638.247739076614,6100.0,-8780.0,-14756.0,-3020.0,-1343.0,-7300.0,-0.6542191144299879,-0.0579241122588507,-0.6671754223787701,-0.3514528464917818
-9638.263311862946,5100.0,-10436.0,-14876.0,107.0,283.0,6047.0,-0.3992805796593261,-0.36024395146159954,-0.5802018369916866,-0.6116903975817486
-9638.278894424438,2052.0,-8964.0,-16636.0,1134.0,2289.0,9057.0,0.18233839759600964,-0.5689893043520583,-0.3368265394185391,-0.7277030731269531
-9638.294449806213,-1168.0,-7428.0,-16444.0,-152.0,2539.0,4357.0,0.4815650001433602,-0.4928244502257401,-0.06446904801449663,-0.7218469046444176
-9638.310059547424,-4132.0,-7652.0,-15916.0,-850.0,-1220.0,-1266.0,0.3532887469416654,-0.5900165443188025,-0.1148633426426455,-0.7168500200400671
-9638.325657129288,-5216.0,-7140.0,-16064.0,-591.0,-6284.0,-9195.0,-0.22600179757621716,-0.6516906292800873,-0.5338825103204432,-0.489072567595837
-9638.34125328064,-3792.0,-5792.0,-16428.0,-691.0,-11444.0,-17117.0,-0.7431772611576977,-0.1599401640738522,-0.6086679575044607,0.22722240189189208
-9638.356872081757,-216.0,-4656.0,-16092.0,-1072.0,-13855.0,-20877.0,-0.4488108273316422,0.5374773226557645,-0.009563049579394583,0.7138595919250649
-9638.372482299805,3864.0,-4236.0,-15624.0,-1069.0,-11539.0,-17140.0,0.3195029348936106,0.6360073124590387,0.5715175627009926,0.4083873756830842
-9638.388095140457,6320.0,-4600.0,-15596.0,-672.0,-6463.0,-8300.0,0.7174152319718737,0.3192542394875225,0.6094765186516563,-0.1092267765533869
-9638.403706550598,6712.0,-5068.0,-15712.0,-481.0,-338.0,3924.0,0.7427561604745002,0.46748890425164497,0.4571212966263461,0.14424815648535408
-9638.419318437576,4956.0,-5440.0,-15400.0,-159.0,4851.0,14163.0,0.2292277756241248,0.5842204677336743,0.1165868910809314,0.7697717640908543
-9638.434915065765,1376.0,-5664.0,-15664.0,-73.0,7088.0,16989.0,-0.5181892788209754,0.14781643257848584,-0.32381184513852596,0.777673493519453
-9638.450482606888,-2692.0,-5756.0,-15280.0,-336.0,5947.0,12671.0,-0.763597518078361,-0.37906217963963035,-0.4935445051976134,0.17217582798018635
-9638.466079235077,-5632.0,-6336.0,-14908.0,-411.0,1542.0,4189.0,-0.7203799551143732,-0.5171522766119836,-0.4322703515893227,-0.16354995017210866
-9638.481686353683,-5712.0,-6696.0,-15304.0,-372.0,-3114.0,-7122.0,-0.7909453276709335,-0.2230263139068165,-0.4573226588341502,0.33988341774426284
-9638.497359752655,-3988.0,-6020.0,-15020.0,-1257.0,-7385.0,-12530.0,-0.4559064085823208,0.35985814574832753,-0.14142263486452092,0.8016552250812826
-9638.512951374054,0.0,-6204.0,-15680.0,-420.0,-7831.0,-12236.0,0.19604145661361164,0.6659861593963123,0.32493301327766116,0.6422217060047583
-9638.528524637222,3360.0,-5628.0,-15972.0,31.0,-5279.0,-7219.0,0.5899599079061735,0.5974530112732679,0.517085156331368,0.16619310300252713
-9638.54411649704,4860.0,-4660.0,-15496.0,-1149.0,-434.0,-848.0,0.6758401461941883,0.5022427077510269,0.5180301753351912,0.15045629513358902
-9638.559736013412,4264.0,-5136.0,-15268.0,-1008.0,4026.0,6486.0,0.37564833507707557,0.5671196295627404,0.3801970892566459,0.6266688339459807
-9638.575355291367,1452.0,-6000.0,-15568.0,-676.0,5358.0,10805.0,-0.2476095455662493,0.42024997686202736,-0.010903530096956498,0.8729035358637091
-9638.590948820114,-1512.0,-5356.0,-15848.0,117.0,4505.0,7804.0,-0.661950685506667,0.05297596156582907,-0.30316099741161273,0.6834531784268952
-9638.606568336487,-3196.0,-4860.0,-15196.0,-649.0,2382.0,1803.0,-0.6795961563690749,-0.09587846613017134,-0.47157523141206203,0.553690513824795
-9638.62216091156,-3364.0,-5744.0,-15260.0,-978.0,-477.0,-3999.0,-0.4834078718346993,0.1407980354916007,-0.49301753112486185,0.7095255151532599
-9638.637778520584,-2084.0,-6024.0,-15148.0,-648.0,-2581.0,-7300.0,-0.1112711558239562,0.531422049016217,-0.2771496555259459,0.7927152099858158
-9638.653369903564,48.0,-5596.0,-15520.0,-453.0,-2902.0,-6677.0,0.25425698759714327,0.7577383018946983,0.024586583271752543,0.6004844294590714
-9638.668948173523,2040.0,-5532.0,-15576.0,-758.0,-1289.0,-3483.0,0.464738047607325,0.7606704639656778,0.17708074038253338,0.41718269827732074
-9638.684565067291,2764.0,-5436.0,-15412.0,-343.0,1008.0,1254.0,0.4217267073778082,0.7222361176985436,0.12097191161882576,0.5346843659349833
-9638.700162649155,2464.0,-5504.0,-15548.0,-165.0,2595.0,5034.0,0.15205405222046725,0.5812567446897127,-0.09730952260817703,0.793442511317501
-9638.715792417526,1280.0,-5476.0,-15536.0,-24.0,3329.0,6332.0,-0.21800120943988058,0.2518567883004538,-0.31905277656874387,0.8872705092774722
-9638.731415987015,148.0,-5472.0,-15540.0,-89.0,3568.0,5870.0,-0.4898954889520887,-0.15950943018447372,-0.448643721312655,0.7302588328211794
-9638.74700474739,-876.0,-5652.0,-15332.0,-249.0,2064.0,3707.0,-0.6081710700615833,-0.398974827050938,-0.4701296291748715,0.4999251630911575
-9638.762650489807,-1112.0,-5548.0,-15316.0,-87.0,700.0,187.0,-0.5892438888716184,-0.4317751708045667,-0.5037799603976145,0.4610505317271818
-9638.778246879578,-548.0,-5524.0,-15220.0,-340.0,-671.0,-2268.0,-0.5287192472398375,-0.28161259448424386,-0.5566687314753905,0.5755607940292421
-9638.793847084045,284.0,-5884.0,-15524.0,-335.0,-963.0,-2463.0,-0.44788256772202417,-0.0956195523006123,-0.5745051674414143,0.6783818388869718
-9638.80948805809,920.0,-5556.0,-15500.0,-275.0,-671.0,-1761.0,-0.3742902950624211,0.04257755375308522,-0.5716717792358955,0.7288932046354625
-9638.82508802414,1516.0,-5628.0,-15312.0,-230.0,28.0,-447.0,-0.34315585629936507,0.07061500544292935,-0.585237154198439,0.7312694801777639
-9638.840669870377,1076.0,-5504.0,-15388.0,-278.0,691.0,525.0,-0.3384759144426472,0.008084024970109264,-0.6251711884660063,0.703228049066942
-9638.856253862381,552.0,-5524.0,-15220.0,-303.0,818.0,948.0,-0.3494882397119617,-0.08429858651309587,-0.6646445943570254,0.654980367497312
-9638.871859312057,228.0,-5480.0,-15232.0,-242.0,467.0,-113.0,-0.3172322044327289,-0.09692707702047003,-0.6930149269118893,0.6400774806914614
-9638.887469530106,-368.0,-5364.0,-15160.0,-362.0,-49.0,-1605.0,-0.23110430846070273,0.012765882008080447,-0.7182985211537418,0.6561059863892446
-9638.903078317642,-432.0,-5492.0,-15424.0,-443.0,-632.0,-3091.0,-0.0897615463217499,0.2424444964332601,-0.701096069443177,0.6645508500953702
-9638.918800592422,-164.0,-5444.0,-15276.0,-461.0,-1127.0,-3795.0,0.06717328203525737,0.5134556871394225,-0.6034648603752593,0.6063671905842731
-9638.934453964233,384.0,-5456.0,-15516.0,-342.0,-1201.0,-3736.0,0.2050630308371812,0.7298976765772993,-0.43632889982526946,0.4845777814636154
-9638.950059890747,868.0,-5420.0,-15496.0,-432.0,-786.0,-2858.0,0.3128024990703486,0.8362408226075997,-0.27743852542630776,0.35480099744671695
-9638.96566081047,1104.0,-5460.0,-15336.0,-339.0,-193.0,-1571.0,0.37751469649109,0.8625659323707563,-0.17689886749637782,0.2866521531841458
-9638.981358766556,1004.0,-5452.0,-15288.0,-328.0,40.0,-373.0,0.41150408972404934,0.8558482659908504,-0.1556376656436614,0.271965157279068
-9638.996973752975,624.0,-5432.0,-15428.0,-311.0,407.0,-196.0,0.44414923756021274,0.8368758069281966,-0.13368001068491728,0.29068882554415837
-9639.012568235397,304.0,-5468.0,-15376.0,-401.0,377.0,-736.0,0.4946757491777607,0.8178972886050369,-0.07530923353683175,0.2840219143165627
-9639.028165102005,188.0,-5636.0,-15296.0,-424.0,22.0,-1311.0,0.5533614323369686,0.802066812970184,0.008598190599657244,0.22451285899084364
-9639.04377746582,180.0,-5852.0,-15476.0,-216.0,-392.0,-1823.0,0.5963138198303485,0.7876361115851647,0.11153777576305446,0.10769637219596226
-9639.059351444244,308.0,-5288.0,-15548.0,-306.0,-571.0,-2114.0,0.6309012172273613,0.7429842234818729,0.2202249868647172,-0.03793485097515992
-9639.07495546341,276.0,-5264.0,-15544.0,-383.0,-540.0,-2513.0,0.6412734900083437,0.6553483565475064,0.346002427857149,-0.19891999019696247
-9639.09056186676,652.0,-5280.0,-15480.0,-341.0,-455.0,-1922.0,0.6313336750278393,0.5619569062505031,0.42999426818996067,-0.3173754174742998
-9639.10616350174,800.0,-5340.0,-15444.0,-304.0,-266.0,-1356.0,0.6137812517762534,0.4834152778604732,0.4867467184135073,-0.39071713068758396
-9639.12176823616,856.0,-5144.0,-15456.0,-286.0,-47.0,-992.0,0.5913984109664276,0.4227437473971015,0.5338723601254307,-0.43187492012982476
-9639.137402057648,780.0,-5492.0,-15460.0,-223.0,191.0,-136.0,0.5851498406296815,0.41200727198034676,0.5571538787258125,-0.4212234885036134
-9639.152997493744,552.0,-5456.0,-15396.0,-97.0,199.0,452.0,0.5947843863996858,0.43599464436296675,0.5543212660911875,-0.3858343397638708
-9639.168588161469,412.0,-5216.0,-15136.0,-37.0,127.0,153.0,0.5948821248823706,0.44575863756698203,0.55646937290132,-0.37115540081302256
-9639.184248209,464.0,-5108.0,-15260.0,-139.0,-27.0,-253.0,0.5929883858719572,0.42532533090771746,0.5694443166697539,-0.37841287943426094
-9639.199882268906,540.0,-5256.0,-15360.0,-180.0,-67.0,-694.0,0.578710236168519,0.37863228009942607,0.5967210085008925,-0.4070087186218062
-9639.215479850769,704.0,-5468.0,-15488.0,-156.0,-19.0,-225.0,0.5764722641045315,0.35831031155222337,0.6087881395236789,-0.4106950821824405
-9639.231099843979,824.0,-5532.0,-15492.0,-159.0,468.0,62.0,0.5580444720667515,0.37006776410827386,0.6357128027753516,-0.3840643820391974
-9639.246685743332,604.0,-5468.0,-15504.0,-171.0,142.0,562.0,0.5734953190882851,0.3971676342172475,0.6295545064842104,-0.34208494950746243
-9639.26225233078,536.0,-5260.0,-15460.0,-57.0,90.0,601.0,0.5873983344398727,0.42946474334928075,0.6142738359947729,-0.3052718220364705
-9639.277828454971,552.0,-5188.0,-15372.0,-84.0,-245.0,284.0,0.6106669496224166,0.4336787589441965,0.5931875025113234,-0.29519010407507407
-9639.293407201767,280.0,-5256.0,-15440.0,-179.0,-69.0,239.0,0.6267111529629972,0.43464906212195803,0.5850808980489777,-0.2756694874056521
-9639.308999300003,604.0,-5352.0,-15428.0,-195.0,-88.0,31.0,0.6389997638204713,0.4234463570907799,0.5838929206527429,-0.2672855059960032
-9639.32457780838,604.0,-5444.0,-15476.0,-155.0,66.0,378.0,0.649526226966281,0.43538920174424095,0.577060236386972,-0.2356977027220926
-9639.340152740479,684.0,-5356.0,-15504.0,-97.0,-87.0,951.0,0.6745659637807546,0.4744129517886013,0.5363267838692443,-0.1795736411287601
-9639.35578417778,568.0,-5488.0,-15756.0,-134.0,325.0,71.0,0.6654550467577979,0.47480076423443623,0.554548655035785,-0.15559435794711332
-9639.371371984482,436.0,-5496.0,-15152.0,-181.0,53.0,1266.0,0.6831069071316828,0.5231193607021103,0.5046919760129758,-0.07069014949566553
-9639.38696718216,376.0,-5396.0,-15444.0,40.0,71.0,1091.0,0.681560019215124,0.5715162206914713,0.45697666453577773,-0.0041806415503804865
-9639.402584791183,324.0,-5124.0,-15412.0,-61.0,-127.0,791.0,0.6880455729176572,0.5980640701640515,0.4091512120378071,0.0388322450447412
-9639.418170452118,336.0,-5132.0,-15320.0,-61.0,-90.0,385.0,0.6924983570297104,0.6082429991375955,0.3833589953068121,0.05934947538610839
-9639.433789014816,336.0,-5304.0,-15520.0,-117.0,30.0,618.0,0.6932440885653143,0.6209244157380209,0.35136930325473364,0.10200547210776137
-9639.449376106262,268.0,-5608.0,-15560.0,-85.0,79.0,532.0,0.6897039155285516,0.6308563700899842,0.32632067996155895,0.14086718230623982
-9639.464970350266,320.0,-5404.0,-15484.0,-63.0,56.0,338.0,0.6868966232700263,0.6358929838064603,0.3102774056151807,0.1659550350265542
-9639.480576515198,220.0,-5384.0,-15324.0,-127.0,4.0,120.0,0.6918136361258631,0.6315877153104281,0.3020902802479328,0.17672666272804127
-9639.496158123016,244.0,-5272.0,-15424.0,-176.0,-73.0,-359.0,0.7083298087588508,0.6124317327121134,0.3146651770786854,0.15550588775004015
-9639.511762857437,64.0,-5276.0,-15320.0,-201.0,-139.0,-609.0,0.7297619844061184,0.5844010233959767,0.33546601388882347,0.11569547741775947
-9639.52733540535,428.0,-5384.0,-15612.0,-183.0,-126.0,-517.0,0.7469083752129855,0.5583945845084062,0.3516721963590059,0.08154773654991936
-9639.542901039124,344.0,-5324.0,-15404.0,-166.0,-78.0,-434.0,0.7596445607313147,0.5345349984339095,0.36639756607472324,0.054454571663979545
-9639.55847811699,376.0,-5380.0,-15420.0,-153.0,-52.0,-305.0,0.7693534149321857,0.5148225695016041,0.3764449374554133,0.036636783812721715
-9639.57407450676,352.0,-5324.0,-15484.0,-156.0,-30.0,-268.0,0.7777271412223655,0.4956208949441985,0.3860054372798554,0.022365703458333636
-9639.589709997177,332.0,-5332.0,-15504.0,-203.0,-103.0,-473.0,0.7898850409405025,0.46577870881196004,0.39884477706963034,-0.007393261807939106
-9639.605349779129,296.0,-5320.0,-15340.0,-221.0,-169.0,-535.0,0.803111143149425,0.4313618227405856,0.40872105421900934,-0.0434346574666486
-9639.620961666107,388.0,-5356.0,-15452.0,-128.0,-194.0,-557.0,0.8114325889301195,0.40136317369288926,0.4162174853711703,-0.08513378469582468
-9639.636544704437,436.0,-5224.0,-15468.0,-155.0,-150.0,-583.0,0.8165985171664155,0.3676757632821082,0.4267702162481625,-0.1258911330476737
-9639.652139902115,472.0,-5256.0,-15404.0,-214.0,50.0,-292.0,0.8178002050677242,0.3420271946052865,0.44207249879913624,-0.13708438476760806
-9639.667738437653,360.0,-5364.0,-15500.0,-140.0,73.0,-43.0,0.8183867026056465,0.33130147419603867,0.4504472935812163,-0.13258873971475257
-9639.683337211609,316.0,-5620.0,-15472.0,-106.0,-39.0,20.0,0.8229999931127432,0.324124583706914,0.44854451781007637,-0.1281486680218346
-9639.698915243149,268.0,-5380.0,-15396.0,-117.0,-15.0,-88.0,0.8256696226340279,0.31215827330143475,0.4514857737489261,-0.13033603788355094
-9639.714485883713,308.0,-5324.0,-15416.0,-151.0,-78.0,-210.0,0.8300641231557561,0.29210529856121115,0.4534391190776989,-0.1416368994724616
-9639.730066776276,236.0,-5424.0,-15612.0,-154.0,-120.0,-329.0,0.8340362858896933,0.26635741582782907,0.45505041695580434,-0.16237708853528426
-9639.74565410614,324.0,-5356.0,-15436.0,-170.0,-177.0,-300.0,0.8401187355944917,0.23947014903975747,0.4515653442198513,-0.1815028862624398
-9639.761209249496,396.0,-5336.0,-15400.0,-218.0,-45.0,-240.0,0.8421379784701448,0.21325954676496975,0.45682695024973147,-0.19139782772368918
-9639.7768034935,412.0,-5420.0,-15560.0,-143.0,-12.0,-148.0,0.8425057173211381,0.1966312104355961,0.4612951429804646,-0.19679195721995257
-9639.792393684387,336.0,-5252.0,-15440.0,-115.0,13.0,136.0,0.8460267311511054,0.19385697076462416,0.4621202121466969,-0.18194272337532783
-9639.808073043823,332.0,-5236.0,-15456.0,-125.0,41.0,176.0,0.8489647549752704,0.192346668932944,0.4643531163008957,-0.16321086710702443
-9639.823697328568,328.0,-5288.0,-15596.0,-199.0,128.0,103.0,0.848206165389634,0.1835571648560611,0.4751035883355899,-0.14536040924427768
-9639.839309453964,268.0,-5380.0,-15364.0,-105.0,1.0,43.0,0.8501877698304563,0.17756667411747368,0.4760795913310371,-0.13783705957269562
-9639.854900121689,180.0,-5440.0,-15608.0,-97.0,-105.0,92.0,0.8569063969249482,0.17290257394650296,0.4682628047568125,-0.1286315377854931
-9639.870488643646,256.0,-5324.0,-15272.0,-149.0,-155.0,-79.0,0.8642733893325651,0.156750529157855,0.4597297566701567,-0.13080264115197052
-9639.886147022247,288.0,-5296.0,-15312.0,-91.0,-176.0,-174.0,0.870210831045515,0.14084078314521564,0.4500423293327286,-0.1426845651879985
-9639.901767492294,444.0,-5264.0,-15428.0,-107.0,-155.0,-240.0,0.8741663342378555,0.12128810234235018,0.44268538496238596,-0.15859402969861605
-9639.917387962341,428.0,-5176.0,-15484.0,-50.0,84.0,398.0,0.8762522595427154,0.13388812373426354,0.4455781161046671,-0.12536383217587166
-9639.933017253876,392.0,-5324.0,-15536.0,-131.0,292.0,675.0,0.8718133284263545,0.15295482725094717,0.46076332930922786,-0.06514211819299595
-9639.948596477509,16.0,-5316.0,-15472.0,-64.0,250.0,676.0,0.8645842800038894,0.1763172568174453,0.4704730397089796,-0.007833685308963145
-9639.964172840118,112.0,-5324.0,-15456.0,-85.0,111.0,449.0,0.8607656078134841,0.18825107681921857,0.47188273719908336,0.031157387813949323
-9639.979906797409,84.0,-5304.0,-15300.0,-141.0,25.0,235.0,0.8610158699950373,0.1872171990952945,0.4696618452215547,0.05494672986344392
-9639.99564409256,248.0,-5292.0,-15276.0,-97.0,-27.0,-22.0,0.8636304505410074,0.1791520736951276,0.4677879382959872,0.05675759133245357
-9640.011275053024,220.0,-5196.0,-15576.0,-227.0,-21.0,-185.0,0.8685205529199007,0.15454557037398833,0.4681004482122383,0.05166900634800679
-9640.026880264282,212.0,-5332.0,-15340.0,-256.0,-1.0,-214.0,0.8724639821483967,0.126331496027024,0.46983920654911276,0.04580472633512992
-9640.042476892471,284.0,-5128.0,-15576.0,-216.0,-43.0,-275.0,0.8771480224215612,0.09870325391263178,0.4687951866759886,0.033167565156762106
-9640.05806517601,400.0,-5284.0,-15144.0,-250.0,-150.0,-27.0,0.8850893051113241,0.07881471340794968,0.4569557858007952,0.03995713642334398
-9640.073652505875,472.0,-5248.0,-15320.0,-204.0,-39.0,214.0,0.8868671942018994,0.07163573422268942,0.45189020888915166,0.06426616949021874
-9640.089340925217,332.0,-5180.0,-15396.0,-339.0,93.0,134.0,0.8839565813955259,0.05006317353525687,0.4563849910162225,0.08847135603253822
-9640.10492348671,224.0,-5292.0,-15512.0,-358.0,118.0,234.0,0.8782232869637931,0.03074631008627053,0.4616333615565942,0.12113282853359222
-9640.120514392853,156.0,-5504.0,-15520.0,-264.0,-113.0,174.0,0.8811414071106457,0.018608661875647973,0.4497968565618961,0.14465934537839606
-9640.136105775833,80.0,-5208.0,-15236.0,-207.0,-235.0,-145.0,0.8920084424409233,-0.00014062369935541222,0.42942880079472345,0.14110926223001347
-9640.15178346634,80.0,-5040.0,-15120.0,-300.0,-122.0,-29.0,0.8964563398192543,-0.023189783046930843,0.41634183899602356,0.14995912063462855
-9640.167443275452,120.0,-5112.0,-15444.0,-411.0,7.0,-600.0,0.9012876458744662,-0.07721677016562636,0.4097347263496173,0.11762484355975024
-9640.183097362518,128.0,-5348.0,-15812.0,-540.0,43.0,-758.0,0.9007906341531849,-0.1469170480229973,0.4013836352059659,0.0766993599122931
-9640.198707580566,508.0,-5484.0,-15456.0,-390.0,-158.0,-409.0,0.9027504007942152,-0.19079690382814268,0.38082483662721534,0.06008909354727642
-9640.214290380478,332.0,-5624.0,-15388.0,-169.0,-223.0,-135.0,0.9075966238618881,-0.2075751568802825,0.3601877087781086,0.05870040072951099
-9640.229887723923,328.0,-5060.0,-15356.0,-308.0,-120.0,-244.0,0.9063274238757311,-0.2390975402505418,0.3446555663300683,0.05114203334460933
-9640.245498895645,380.0,-5020.0,-15540.0,-422.0,107.0,-161.0,0.8941517802433635,-0.27780092084520996,0.34776442823689996,0.04877647709951149
-9640.261084794998,276.0,-5256.0,-15576.0,-325.0,176.0,118.0,0.8797814549303355,-0.3003959181075642,0.3629265729674323,0.06349162605486207
-9640.276715517044,68.0,-5324.0,-15824.0,-148.0,-46.0,75.0,0.876698673609267,-0.30933182964403755,0.3606608863168149,0.07507982380102939
-9640.292313098907,60.0,-5072.0,-15440.0,-103.0,-486.0,251.0,0.8863874661842647,-0.30601021071212764,0.3293540393161503,0.11045780876648739
-9640.30786728859,88.0,-4948.0,-15540.0,-237.0,-279.0,-606.0,0.8920795657212265,-0.33867264723903184,0.28890634947771826,0.07764024514511016
-9640.323468208313,180.0,-5120.0,-15420.0,-314.0,-94.0,-586.0,0.8874734393750012,-0.3768652668493498,0.2618188515996443,0.04259523439914456
-9640.339099407196,20.0,-5412.0,-15564.0,-184.0,27.0,84.0,0.8802066049687917,-0.38949797979882994,0.2660547674589385,0.05236904633764208
-9640.35467004776,112.0,-5600.0,-15484.0,26.0,62.0,455.0,0.8767212885560595,-0.37718358815099634,0.286274260869501,0.08449479620523016
-9640.370270967484,-52.0,-5376.0,-15464.0,-27.0,-86.0,-100.0,0.8785125462403806,-0.3813483415206976,0.2763005778663802,0.08029407941038287
-9640.385887861252,-24.0,-4972.0,-15544.0,-253.0,-204.0,-886.0,0.8780952786115631,-0.41951503262067963,0.2287450073896735,0.025130473128256343
-9640.40150308609,168.0,-5228.0,-15412.0,-293.0,-324.0,-892.0,0.8723650003782726,-0.4576099764963283,0.17007351130123144,-0.025444376190356333
-9640.41710305214,304.0,-5592.0,-15604.0,-144.0,-272.0,-449.0,0.868516856951332,-0.47557361696786277,0.1316729464831705,-0.04658797269601063
-9640.432733535767,484.0,-5388.0,-15404.0,-17.0,-103.0,332.0,0.869786359945567,-0.4735227391968607,0.1376966172727812,-0.016957155061378033
-9640.448326587677,404.0,-5220.0,-15468.0,1.0,47.0,804.0,0.8681554344249888,-0.462851213621076,0.17410206956139687,0.04199244101376699
-9640.463933229446,188.0,-5320.0,-15148.0,23.0,134.0,933.0,0.860568661382866,-0.44619202692078147,0.22133168530358244,0.1065201353674622
-9640.479523420334,-76.0,-5040.0,-15416.0,14.0,36.0,548.0,0.8541918535639398,-0.43466198636952147,0.24529959482768177,0.14578526567413358
-9640.49515581131,-68.0,-5148.0,-15432.0,-113.0,-183.0,-53.0,0.8541870895221139,-0.4420758779218846,0.22825409078790268,0.15110726088419107
-9640.510728597641,52.0,-5160.0,-15448.0,-49.0,-351.0,-265.0,0.8619922933481642,-0.44631709051520646,0.191156688162424,0.14570333384376308
-9640.526333332062,152.0,-5168.0,-15516.0,-26.0,-309.0,-62.0,0.8664478109423147,-0.44548594267244884,0.16516761282776019,0.15339532413763318
-9640.541979789734,248.0,-5228.0,-15596.0,-23.0,-108.0,332.0,0.8621226639143706,-0.44106969364557336,0.16957017674845049,0.18288792434190065
-9640.55756187439,164.0,-5200.0,-15460.0,17.0,-24.0,561.0,0.853016944848726,-0.43087133908350284,0.1894503635740803,0.22543411609377845
-9640.573160648346,136.0,-5148.0,-15440.0,21.0,-5.0,627.0,0.8401644076015696,-0.41849993022830395,0.21280359164614407,0.27147045507920314
-9640.588734865189,56.0,-5072.0,-15356.0,22.0,-55.0,440.0,0.8308160258426613,-0.4073891262218688,0.22525802131767073,0.3050207449850523
-9640.604321479797,240.0,-5040.0,-15492.0,-67.0,-109.0,121.0,0.8271356593706152,-0.40720004205711113,0.21991643121179547,0.3188596713748738
-9640.619930267334,-16.0,-5224.0,-15476.0,-68.0,-152.0,143.0,0.8233865377810129,-0.40534227675736584,0.2121623549666542,0.3357370745228399
-9640.635493040085,-76.0,-5232.0,-15480.0,11.0,-173.0,280.0,0.81832306415901,-0.39442168982553455,0.2099354223887131,0.36153286391011674
-9640.651104211807,-44.0,-5192.0,-15492.0,31.0,-181.0,79.0,0.8199801703125777,-0.38527895108502797,0.2007396265463894,0.37268787541184195
-9640.666694402695,-68.0,-5164.0,-15548.0,-120.0,-190.0,-163.0,0.8242250263736101,-0.3907147176272409,0.17776913660068003,0.3693145670037072
-9640.682300806046,-12.0,-5292.0,-15540.0,-153.0,-111.0,-98.0,0.8236372412844841,-0.39988281601327563,0.1615311690359469,0.36827043005983723
-9640.697897434235,-32.0,-5380.0,-15384.0,-67.0,-190.0,243.0,0.8157527396383336,-0.39530962810240383,0.15417919909021266,0.3930731996333412
-9640.713529348373,-56.0,-5584.0,-15376.0,0.0,-500.0,-6.0,0.8218070803050961,-0.3781765081466743,0.11829683093737463,0.40941606128311103
-9640.729151725769,-40.0,-5120.0,-15484.0,-64.0,-304.0,-469.0,0.8384822132982617,-0.37659166546676665,0.07865413106443843,0.38592722519914746
-9640.744751691818,48.0,-5104.0,-15512.0,-183.0,-297.0,-695.0,0.8558413110278432,-0.3841639125226819,0.027854000181266818,0.3452215134190073
-9640.760326385498,140.0,-5244.0,-15508.0,-185.0,-209.0,-341.0,0.8596752195641776,-0.392517700181822,-0.004783563337112333,0.32690287461730333
-9640.775944709778,144.0,-5336.0,-15456.0,-26.0,-79.0,217.0,0.8522757239328808,-0.39251756509166535,-0.004061318517733837,0.3457449308104054
-9640.791543960571,-228.0,-5256.0,-15524.0,59.0,40.0,632.0,0.8338517371097227,-0.38925625373703454,0.022268566683070964,0.3907364333967196
-9640.807116746902,-112.0,-5364.0,-15576.0,4.0,12.0,449.0,0.8179249688413418,-0.38849943263676007,0.038466959099766926,0.42259582255912387
-9640.822691679,-276.0,-4880.0,-15404.0,-154.0,-130.0,66.0,0.8104655953435103,-0.394704234678627,0.025720975403855602,0.4320792951710635
-9640.838272094727,-316.0,-5304.0,-15524.0,-118.0,-372.0,-557.0,0.8266814474302443,-0.3898823735773866,-0.02420990990232108,0.4049733318513961
-9640.853856801987,-140.0,-5136.0,-15472.0,-70.0,-437.0,-364.0,0.8350920179252623,-0.3785390354665355,-0.07055847422505251,0.39287532620490523
-9640.869505405426,-48.0,-5264.0,-15568.0,45.0,-311.0,-17.0,0.8348270412586559,-0.3646429362695749,-0.09228503993604233,0.4019736454247021
-9640.885143756866,-40.0,-5252.0,-15364.0,-26.0,-62.0,487.0,0.8155633897718373,-0.36822826887251636,-0.08223525989379422,0.4387501125894104
-9640.900743246078,-116.0,-5208.0,-15580.0,-56.0,-252.0,478.0,0.792664329749776,-0.3658691052911291,-0.08694724634630847,0.4798575147776694
-9640.916363954544,-176.0,-5196.0,-15436.0,32.0,51.0,476.0,0.7733683324117573,-0.3693615808188232,-0.06692182778747117,0.5108766132866738
-9640.932076692581,-216.0,-4892.0,-15452.0,-42.0,122.0,502.0,0.7494890357860919,-0.38046256655748983,-0.044424686803382185,0.5399452452678356
-9640.947699308395,-296.0,-5148.0,-15548.0,-250.0,112.0,210.0,0.7313042943625531,-0.40300551230060583,-0.041967772659959796,0.5486522506653706
-9640.963322639465,-340.0,-5120.0,-15400.0,-9.0,121.0,5.0,0.7310585078812836,-0.4096523028682977,-0.03457634989213242,0.5445575496099825
-9640.978930711746,-372.0,-5248.0,-15516.0,-73.0,-8.0,-356.0,0.7448726515230872,-0.41293100463286914,-0.05132791677368884,0.5215536054764918
-9640.994634866714,-244.0,-5316.0,-15584.0,-116.0,-67.0,-366.0,0.7565127435355511,-0.41582239385301595,-0.07418623295796047,0.4992760844244072
-9641.010204076767,-64.0,-5376.0,-15476.0,24.0,-6.0,-192.0,0.7654982736817517,-0.412952246820115,-0.08058170443661926,0.48681559521708656
-9641.025801897049,32.0,-5252.0,-15516.0,46.0,47.0,114.0,0.7624902737476631,-0.41292792735052636,-0.0714679834499938,0.4929416158084071
-9641.041380167007,-16.0,-5216.0,-15464.0,12.0,95.0,304.0,0.7500466146984043,-0.41822884814146843,-0.05374475449601917,0.5095352860459091
-9641.056951999664,-28.0,-5156.0,-15612.0,249.0,7.0,505.0,0.7357319575516116,-0.40440796015612784,-0.023838234532358372,0.5427563237531312
-9641.072535276413,-96.0,-5236.0,-15524.0,-21.0,328.0,460.0,0.7129291083806273,-0.42201969487178853,0.012370162096075546,0.5598914561356007
-9641.088135004044,-476.0,-5268.0,-15372.0,11.0,507.0,404.0,0.6918504973189598,-0.4452437539392905,0.05918019882926214,0.5653305166043007
-9641.103758573532,-296.0,-5340.0,-15512.0,30.0,181.0,360.0,0.6738157895867697,-0.45051061885811655,0.08548849199818763,0.5793998461645555
-9641.119350671768,-164.0,-5252.0,-15436.0,43.0,166.0,311.0,0.658144266031266,-0.4541255943632248,0.10957318484049167,0.5904318646535985
-9641.134932041168,-172.0,-5232.0,-15296.0,40.0,232.0,307.0,0.6412468304517919,-0.4608710881987948,0.13703173401321456,0.5980155904082444
-9641.150500059128,-228.0,-5276.0,-15416.0,-20.0,222.0,338.0,0.6196824297238257,-0.4695260290691453,0.1619003279125964,0.6077230274886163
-9641.166087150574,-204.0,-5296.0,-15476.0,79.0,159.0,159.0,0.6120314854930953,-0.47162171216061327,0.18117004237190346,0.6084141986597369
-9641.18167591095,-148.0,-5272.0,-15440.0,57.0,219.0,227.0,0.5985518515934957,-0.4767112411225802,0.2051689050410083,0.6102358510818919
-9641.197353363037,-164.0,-5264.0,-15616.0,18.0,210.0,257.0,0.5815333849688186,-0.4824282574949154,0.2277160824075994,0.6141883134268047
-9641.212930679321,-164.0,-5292.0,-15136.0,-134.0,220.0,-222.0,0.5830844160576225,-0.5054807960642782,0.22228300393897063,0.5958959596446619
-9641.228507995605,240.0,-5424.0,-15428.0,-195.0,112.0,-245.0,0.5847224643788663,-0.5260277014490451,0.2069679435178709,0.5818580302057565
-9641.244099140167,56.0,-5632.0,-15040.0,-129.0,-143.0,728.0,0.5431709979821152,-0.5113728372451972,0.22606357031681856,0.6263851454612592
-9641.259699344635,12.0,-5048.0,-15392.0,-172.0,181.0,1470.0,0.4477292102982091,-0.496509158393467,0.28843754145868566,0.6854348944680464
-9641.2753200531,-532.0,-5640.0,-14876.0,-796.0,-120.0,-484.0,0.443681892796843,-0.5310979448372656,0.21448527551908397,0.6892585999313655
-9641.290889978409,-408.0,-5976.0,-14960.0,-5.0,-526.0,-1181.0,0.5209897921879935,-0.5187385300956988,0.13820861300932866,0.6636100911831456
-9641.306490659714,-108.0,-5816.0,-16080.0,493.0,-635.0,-1224.0,0.6167787759168414,-0.4707686146734322,0.08179862024897182,0.6255156582711138
-9641.322075843811,168.0,-4828.0,-16308.0,361.0,-702.0,-2055.0,0.7352756258243753,-0.4202945541281889,-0.02035434550401617,0.5313265873809283
-9641.33765912056,672.0,-4600.0,-16072.0,-191.0,-187.0,-1904.0,0.8048661801610664,-0.41497853329041473,-0.10958092206014192,0.4098478625801516
-9641.353240013123,964.0,-4956.0,-15488.0,-30.0,1219.0,988.0,0.7727732267261551,-0.4660467016159086,0.010527538800997136,0.43071009147101724
-9641.36885213852,600.0,-5004.0,-15816.0,186.0,2862.0,4022.0,0.5752559769904423,-0.5121024509841997,0.3434729520466552,0.5374550882121252
-9641.384444952011,-672.0,-5188.0,-15572.0,713.0,3563.0,3335.0,0.3157873927873004,-0.4993892118270538,0.6474278713909268,0.4813791530732991
-9641.40008020401,-1480.0,-4924.0,-15472.0,90.0,3547.0,2188.0,0.025674046843337458,-0.490944490245982,0.7934921780189794,0.35872623856988106
-9641.41564488411,-2160.0,-5392.0,-15424.0,279.0,3431.0,469.0,-0.2053324843598818,-0.5410083887305736,0.7943420292862116,0.18484922152719757
-9641.43126630783,-2288.0,-5596.0,-15676.0,206.0,2645.0,-2393.0,-0.3247222063431245,-0.7191813646346426,0.6084527853903091,0.08437334543966317
-9641.446835279465,-1716.0,-5332.0,-15800.0,168.0,2444.0,-5416.0,-0.3584438226135922,-0.9139696911595069,0.1780211310056871,0.06697691085297632
-9641.462437868118,-624.0,-5188.0,-15480.0,-259.0,3498.0,-5541.0,-0.3478344678146216,-0.8787682908598253,-0.3253753894243603,-0.030138512510844116
-9641.478039264679,144.0,-5496.0,-15984.0,-204.0,4918.0,-5144.0,-0.2013540192220954,-0.6061564888062791,-0.737845478870926,-0.21820843093447428
-9641.493613958359,732.0,-5328.0,-16688.0,-808.0,6857.0,-4502.0,0.09086689440054131,-0.13923841235692935,-0.8776937808798095,-0.4494546684941959
-9641.509195804596,1216.0,-5684.0,-17056.0,-1620.0,9058.0,-5932.0,0.38491222772654937,0.4754662403435805,-0.588957624447979,-0.5281130066990577
-9641.524779081345,1408.0,-7152.0,-17584.0,-3580.0,10041.0,-1295.0,0.7222234193644363,0.6455310897997201,-0.024106695787467432,-0.2471878068225411
-9641.540365934372,1132.0,-8344.0,-19832.0,-3394.0,12890.0,-4370.0,0.5352328577863459,0.4548918278383154,0.7008194859378981,0.12430310149597198
-9641.555997133255,760.0,-8196.0,-22544.0,-3187.0,12893.0,-2588.0,-0.06396782719415553,0.005113762632937506,0.886192219200711,0.4588521735198728
-9641.571584701538,936.0,-7904.0,-24672.0,-3885.0,15495.0,-1421.0,-0.6997953804595436,-0.4090440326677592,0.3749033069406097,0.4499076741636831
-9641.587185621262,820.0,-9864.0,-26820.0,-4746.0,19266.0,-2345.0,-0.7001785285937511,-0.47390271688231245,-0.5331604206604277,0.030103303291302945
-9641.602822303772,328.0,-11156.0,-26568.0,-3958.0,22066.0,2566.0,0.07079085987743705,-0.1853903475378157,-0.8085901223761329,-0.5538962783711148
-9641.618446588516,-1148.0,-11896.0,-25720.0,-1596.0,25371.0,11924.0,0.9112645675441182,0.07167490373164612,-0.1442849770364378,-0.3790005824735431
-9641.634035348892,-5324.0,-13524.0,-20116.0,2400.0,23391.0,13135.0,0.6362309675433685,0.34080878469548137,0.6085721757420464,0.32969597377858584
-9641.649606466293,-9416.0,-10696.0,-15384.0,7377.0,16005.0,7194.0,-0.3302376141476475,0.34651839964738324,0.7713649448106131,0.4193617040517713
-9641.66519498825,-11180.0,-4888.0,-11476.0,7788.0,9901.0,-4391.0,-0.6981765235609213,-0.3492326750478838,0.5889591744185346,0.20907695113408323
-9641.680794239044,-11284.0,192.0,-7808.0,5338.0,3395.0,-1149.0,-0.6007290955994761,-0.6938888925898019,0.38759445139818144,-0.0861005208234927
-9641.696417808533,-11252.0,1756.0,-6648.0,-2430.0,4150.0,7450.0,-0.6581959615974295,-0.2241017081610951,0.5057080491136868,-0.5107013506911291
-9641.71207022667,-14840.0,-4776.0,-6440.0,-4204.0,-709.0,4744.0,-0.4347297922989436,0.17067271070395876,0.7222705627611309,-0.5101039773197219
-9641.727669239044,-15992.0,-8596.0,-7164.0,-1593.0,-11551.0,2483.0,0.29650492168149933,-0.08761752165538284,0.827651596866056,-0.4684024290315796
-9641.743290662766,-12844.0,-10152.0,-6816.0,752.0,-18953.0,1494.0,0.8937665069429691,-0.37908324876506355,0.16400972116880205,-0.17486604282941906
-9641.758887529373,-8088.0,-9932.0,-8176.0,3151.0,-22240.0,9440.0,0.621538920202938,-0.14378021976846864,-0.5559170671060886,0.5328910147267087
-9641.77447772026,-4436.0,-9644.0,-9092.0,4748.0,-22012.0,19493.0,-0.4644214788291415,0.06875940102220585,-0.4612698741485628,0.7528711297268543
-9641.790145874023,-2716.0,-9948.0,-11348.0,4884.0,-19736.0,28986.0,-0.9830923983575467,0.00023710722658232283,0.14941960540771962,-0.10584451611477705
-9641.805775403976,-3480.0,-9732.0,-14052.0,5679.0,-19155.0,32767.0,-0.12323736213638217,-0.06761204024288865,0.49772694764786823,-0.8558674255823716
-9641.821372509003,-6480.0,-9380.0,-17584.0,5074.0,-21492.0,32767.0,0.9156704423483758,-0.08469241379539882,0.15138474490803186,-0.3625706759573487
-9641.836976766586,-9216.0,-8312.0,-20484.0,2483.0,-27290.0,21999.0,0.6171725289331866,-0.14238737995722034,-0.6030172199927154,0.4849681803493816
-9641.852554798126,-9284.0,-7224.0,-21704.0,-1292.0,-32768.0,3433.0,-0.41647783314462916,0.3262866972654226,-0.7812701845385006,0.33121006089482596
-9641.868145227432,-6040.0,-7292.0,-24052.0,-3738.0,-32768.0,-14495.0,-0.6441522025867454,0.7267752351690819,0.2164684133724493,-0.10003561095722158
-9641.883841276169,208.0,-7440.0,-26688.0,-3633.0,-32768.0,-23401.0,0.0003195399600567794,0.05539478579758685,0.9746948113230598,-0.21656717290614064
-9641.899438858032,7952.0,-7960.0,-27660.0,-1417.0,-32768.0,-22840.0,0.6511259587690332,-0.690895971675936,0.306205042147887,-0.0702581974027393
-9641.915036916733,14476.0,-9472.0,-25764.0,2151.0,-32768.0,-11406.0,0.4966134282642228,-0.3364166316901479,-0.7064917716518904,0.3755906406955374
-9641.930682182312,17964.0,-9604.0,-22784.0,7676.0,-22786.0,4177.0,-0.348440504968557,0.20637298099558607,-0.5610484132472092,0.7219585065674075
-9641.946271419525,18364.0,-6188.0,-20660.0,11226.0,-10142.0,22509.0,-0.9595330861605023,-0.23270215073336503,0.019119822842929717,0.1574179087074388
-9641.961877346039,14444.0,-2272.0,-18516.0,11267.0,2001.0,32767.0,-0.37123167277197927,-0.3602259507128934,0.21068966005576206,-0.8294782557183145
-9641.97751569748,6948.0,1052.0,-16728.0,6727.0,8522.0,32767.0,0.647597157589524,0.20192091000345008,0.15055893956825336,-0.7191508001117921
-9641.993175029755,-420.0,48.0,-15148.0,777.0,10296.0,19551.0,0.7939621968834311,0.5287323129411532,0.1561390563299792,0.2562942961915418
-9642.008785247803,-6024.0,-4796.0,-13040.0,-5354.0,5160.0,5463.0,0.6608410389941195,0.09106404712551867,0.11062300057932786,0.7367218011197444
-9642.02438378334,-8560.0,-10452.0,-12876.0,-6508.0,-3221.0,-12220.0,0.9597784666844308,-0.12266787365114877,-0.24878488086983805,0.043404731462932514
-9642.040008068085,-6708.0,-13108.0,-13608.0,-2122.0,-11922.0,-24922.0,0.29526670490495355,0.10912052232385924,-0.5817499849942988,-0.7499848262074855
-9642.055611133575,-548.0,-9476.0,-14016.0,3006.0,-15314.0,-26240.0,-0.7830376285998041,0.18147330693207575,-0.3244403056158109,-0.49865619334352085
-9642.07123374939,5224.0,-3484.0,-13368.0,3678.0,-11080.0,-17973.0,-0.9133375695407605,-0.020256993940318088,0.26274333631255375,0.3104353032198928
-9642.086826086044,8184.0,84.0,-13016.0,573.0,-1190.0,-9904.0,-0.4648253359078244,-0.19650627003076332,0.268259581196484,0.8205848463340413
-9642.102449178696,7816.0,24.0,-13444.0,-3338.0,9360.0,797.0,-0.6023305132622774,-0.5377308611414833,-0.2538911542250599,0.5325248872827516
-9642.118036270142,3632.0,-3548.0,-14368.0,-5401.0,17154.0,8952.0,-0.4416929663461258,-0.6190611548231753,-0.4888016107262484,-0.427485199066333
-9642.133604288101,-2440.0,-6840.0,-14928.0,-2872.0,17836.0,13283.0,0.300223495561837,-0.1864104893564074,-0.16001140501882222,-0.9216904753953135
-9642.149171113968,-7292.0,-7384.0,-14520.0,594.0,11330.0,6243.0,0.6430089091088872,0.43294382156556144,0.12648241010093486,-0.618951847973544
-9642.164734840393,-8136.0,-4748.0,-13388.0,1053.0,5050.0,-4459.0,0.2633740996641013,0.6150298561662185,0.4482232423934083,-0.5928476065808349
-9642.180343151093,-5916.0,-1604.0,-13356.0,-2345.0,1429.0,-14562.0,-0.2569748034668113,0.04018906785670399,0.8466513456060324,-0.4642523970767384
-9642.1960105896,-8.0,496.0,-20480.0,-9984.0,32767.0,29439.0,-0.3566115857674148,0.926303880947168,0.1016271889522626,-0.06679230123543713
-9642.211607933044,-24756.0,-24820.0,-30140.0,-23944.0,32767.0,32767.0,0.3174457939133907,0.4619676681082708,-0.7354341715505021,0.38072381179160614
-9642.227218151093,-32768.0,-30084.0,-18072.0,9162.0,-3566.0,4127.0,-0.30614505779236867,0.41676000947799574,-0.5096411790996792,0.68764247007809
-9642.24282336235,-24452.0,-10456.0,-18452.0,23610.0,-29023.0,-32768.0,-0.10987572802149144,0.670211745213538,0.6453417009490039,0.3496821842556713
-9642.258444309235,-5764.0,15112.0,-10872.0,14596.0,-30737.0,-32768.0,0.41669303880254127,-0.08895281100818109,0.7783722053454408,-0.46107593601588204
-9642.274040460587,3472.0,18080.0,-16376.0,-18323.0,-19831.0,-32768.0,0.07891761567173958,-0.9846797160983763,0.14072567749181675,-0.06613735960542864
-9642.289629936218,9004.0,4948.0,-22620.0,-25394.0,-13044.0,-32768.0,-0.5436590946308142,-0.41739853754520095,-0.6675499171238757,0.2908442157379748
-9642.305252552032,15676.0,-15060.0,-16188.0,-19023.0,2593.0,-32768.0,-0.07323640329158693,0.6725684011835833,-0.7126093761583241,0.18567727909874882
-9642.320854187012,18432.0,-16132.0,-14120.0,-3229.0,7707.0,19981.0,0.1271550275793829,-0.3154111189011443,-0.9291759893896762,0.14484269321070595
-9642.336436510086,16948.0,-9232.0,-17864.0,6297.0,17500.0,32767.0,0.37988631864162065,-0.9088961086837343,0.07178601294730907,0.1563362302014839
-9642.352077960968,11192.0,-1288.0,-19716.0,8674.0,32767.0,32767.0,0.09810233169312527,-0.2038572014429031,0.9152956157111514,-0.3332448196089234
-9642.367697954178,100.0,1772.0,-19100.0,3779.0,32767.0,32767.0,-0.35874944977934625,0.8133197322595358,0.3993868888711209,-0.2242765221732768
-9642.38331413269,-14916.0,-2652.0,-19356.0,4330.0,32767.0,32767.0,-0.2788779876450142,0.5883990381465548,-0.7260542712966166,0.22104034710254897
-9642.398912906647,-27608.0,-6188.0,-11964.0,2263.0,19241.0,14740.0,0.22984199798073965,-0.3287951654764857,-0.8124153828611589,0.4231402141301022
-9642.414475917816,-30348.0,-7132.0,-11008.0,-1072.0,-7467.0,-28751.0,0.2630076158806286,0.7064377151526341,-0.6570710346787836,-0.005513980854730505
-9642.430070877075,-21660.0,-4184.0,-13864.0,-4603.0,-30161.0,-32768.0,-0.29720130228848995,0.6111952968445998,0.1669006839670243,-0.714321955930522
-9642.445650100708,-6404.0,-108.0,-18468.0,-6375.0,-32768.0,-32768.0,-0.3622648290982091,-0.4147580535506708,0.7523699457178752,-0.3614960793615687
-9642.461237192154,6744.0,2612.0,-18492.0,-8004.0,-32768.0,-32768.0,0.11028176309668916,-0.7923349321438221,0.202385090624088,0.5648748207576704
-9642.476808309555,15964.0,2204.0,-17144.0,-10969.0,-17434.0,-28904.0,0.33322063859241535,-0.16866105857018138,-0.7695937445269078,0.517921733202133
-9642.49241566658,19088.0,-9664.0,-19472.0,-10119.0,9258.0,-23067.0,0.7258981620323312,0.26226450960509234,-0.5094550300636881,-0.38045335811698466
-9642.508086204529,15608.0,-10532.0,-16224.0,-2064.0,16383.0,32767.0,0.7718574601026961,-0.23294459421398667,-0.045686878861745384,0.5898182655786172
-9642.523708343506,5240.0,-7096.0,-19256.0,6230.0,25491.0,32767.0,-0.1807657121013309,-0.33082319443944336,0.6999282052248671,0.6066137806546085
-9642.53930592537,-6420.0,-2708.0,-16984.0,7094.0,27689.0,27170.0,-0.8665019833335242,-0.06950307169552161,0.39711374465289206,-0.2943540550284871
-9642.554897069931,-15300.0,-932.0,-12848.0,208.0,13662.0,15719.0,-0.45056323947881044,0.39074106165003597,-0.26325659268411006,-0.7582942412937839
-9642.570486307144,-18740.0,-2852.0,-13696.0,-5245.0,-2269.0,-15435.0,-0.768613112781298,0.4580608558519591,0.39949385583566677,-0.1995464716459952
-9642.586075544357,-14920.0,-4912.0,-15052.0,-8913.0,-16430.0,-32768.0,-0.11914535163242596,-0.10823852900231933,0.8622433835115669,0.48023447774428324
-9642.601715564728,-6188.0,-9152.0,-17100.0,-2180.0,-23505.0,-32768.0,0.8195267375907185,-0.427514610863491,0.19264193446254985,0.32938771828754954
-9642.617362976074,2664.0,-6912.0,-17320.0,1503.0,-21849.0,-26549.0,0.6337002898138832,-0.043787887170338116,-0.7320239924407155,-0.24626700574399643
-9642.632957220078,7704.0,-1284.0,-15620.0,575.0,-11390.0,-12951.0,-0.20474965627457403,0.31555617114473,-0.7876758820058428,-0.4879227254537744
-9642.64853644371,9084.0,-2176.0,-15588.0,-2501.0,1314.0,-3454.0,-0.17935663368265967,0.609135817581958,-0.5681180074389006,-0.5234755804394673
-9642.66410279274,7116.0,-6452.0,-15176.0,-3271.0,9263.0,13526.0,0.6059650225284143,0.23346359191202581,-0.7252297756254136,-0.2287857409673641
-9642.679693698883,1340.0,-7976.0,-15724.0,-299.0,12166.0,27262.0,0.6901925245214335,-0.45325022961981964,-0.2262785495888879,0.5167170661399335
-9642.6953394413,-5400.0,-5928.0,-15460.0,1358.0,10377.0,22972.0,-0.036011355811684555,-0.5345594813294564,0.5656468756464231,0.6268915019720929
-9642.710925340652,-9612.0,-3996.0,-14144.0,-58.0,5910.0,7212.0,-0.56223859781116,-0.38930858824445663,0.6828840163555622,0.2568968712470918
-9642.72653388977,-10544.0,-4428.0,-14364.0,-2438.0,-1728.0,-6275.0,-0.3429917690782344,-0.5172998012282404,0.4273832076911483,0.6573440163091401
-9642.742147445679,-7912.0,-6040.0,-15188.0,-2270.0,-7137.0,-15323.0,0.390340743070991,-0.3410964434169235,-0.10091313614919997,0.8491783437768801
-9642.757777929306,-2480.0,-6520.0,-16112.0,-1783.0,-7480.0,-15020.0,0.7777808833031199,0.15980470289530985,-0.5253232654950755,0.3058673261895601
-9642.773372888565,1436.0,-5644.0,-15136.0,-1177.0,-4434.0,-7797.0,0.6270044311283117,0.4361380730715759,-0.5880489757792663,-0.2661717991219784
-9642.788961172104,3156.0,-4480.0,-14964.0,-1512.0,913.0,-134.0,0.719607049654444,0.3770943652482373,-0.49225158514860434,-0.31249625710453177
-9642.804595947266,2692.0,-4104.0,-15124.0,-1737.0,5885.0,5715.0,0.9565816740373307,0.14775194188460886,-0.2127446072613739,0.13364354322775482
-9642.820179700851,876.0,-4884.0,-15524.0,-1804.0,8677.0,10299.0,0.6581066014164778,-0.19036613888823756,0.23046432596876978,0.6910445924776476
-9642.835813522339,-2160.0,-5308.0,-15476.0,-984.0,9342.0,13308.0,-0.2006057996985441,-0.31234688121922916,0.5343957335230484,0.7593536323165192
-9642.851419687271,-5472.0,-5336.0,-15684.0,-85.0,7027.0,7959.0,-0.7760496775545246,-0.29747938547636094,0.45685757714093594,0.3170710762479586
-9642.866996765137,-6924.0,-4900.0,-15792.0,201.0,3469.0,-211.0,-0.864191702842132,-0.3977343650519091,0.21252636171937916,0.22318741266006653
-9642.882643699646,-6428.0,-5292.0,-15980.0,292.0,-217.0,-7371.0,-0.5937623417719541,-0.46446659939330054,-0.017910393086387928,0.656807641064718
-9642.898319244385,-4536.0,-5468.0,-15080.0,430.0,-2788.0,-13041.0,0.10876281040178835,-0.1998863935385553,-0.2459714015547062,0.9421858364297714
-9642.914026498795,-1392.0,-5524.0,-15364.0,485.0,-4095.0,-11639.0,0.6709100109945628,0.26601590686958265,-0.3049195106377934,0.6214011477878344
-9642.929681301117,1212.0,-4920.0,-15292.0,856.0,-2050.0,-7467.0,0.8280519018931686,0.5177692610252711,-0.16992244783515295,0.13180061392179074
-9642.94534778595,2576.0,-4700.0,-15592.0,760.0,1422.0,-3034.0,0.8137515056838605,0.5762131365471329,0.07521287525527989,-0.011398757107639263
-9642.96092915535,2564.0,-5292.0,-15992.0,163.0,4749.0,3041.0,0.6972729654240667,0.5496874773836328,0.2327162596759983,0.3968592085094662
-9642.976526021957,1360.0,-6372.0,-15536.0,511.0,6342.0,9225.0,0.16030996308886108,0.3922690826012014,0.1385801251366537,0.8951096198157906
-9642.992112636566,-884.0,-6196.0,-15216.0,1544.0,6344.0,10772.0,-0.5456455516154081,0.03286263514677115,-0.014044672955711622,0.8372536810161507
-9643.007804632187,-3504.0,-5208.0,-15136.0,1375.0,3904.0,6598.0,-0.8492625362587775,-0.26952297412467013,-0.098188446508841,0.44324884647168733
-9643.023444414139,-4432.0,-4844.0,-14644.0,801.0,1007.0,-1299.0,-0.7617860244153333,-0.3523975231159958,-0.1704970673560038,0.5161674037850459
-9643.039077043533,-3384.0,-5448.0,-14772.0,288.0,-1909.0,-7024.0,-0.3922555134370563,-0.15292544652912532,-0.20833943552106912,0.8828046780510747
-9643.054681062698,-1488.0,-6136.0,-14940.0,548.0,-3305.0,-6482.0,0.045867675110375254,0.16928815566409283,-0.11793026087165111,0.9774099090466412
-9643.070272922516,716.0,-5788.0,-15308.0,794.0,-2453.0,-3928.0,0.3181809953183215,0.3907020989418457,-0.0021079413043651597,0.8637755962541057
-9643.085863351822,1924.0,-5268.0,-15116.0,382.0,-58.0,-241.0,0.3229625308596088,0.4056745703665674,0.03312677450683562,0.8544155683444857
-9643.101510047913,2004.0,-5308.0,-15372.0,58.0,2520.0,3807.0,0.027556801891615478,0.21431405540891788,-0.024539685075473144,0.9760675756217324
-9643.117146730423,576.0,-5788.0,-15668.0,37.0,3602.0,6608.0,-0.4416019060108199,-0.08887103717659707,-0.11412308868552103,0.8854747969240252
-9643.1327419281,-1220.0,-6112.0,-15548.0,424.0,3537.0,6878.0,-0.77422670370722,-0.37036867136857987,-0.13640519736198575,0.4947662889364664
-9643.148314714432,-2616.0,-5444.0,-14936.0,259.0,2217.0,3537.0,-0.8379651742570456,-0.4940014622051698,-0.1511700515199966,0.17585373921232034
-9643.163935899734,-2952.0,-5588.0,-15068.0,-119.0,972.0,-339.0,-0.821541815917726,-0.49392325667565257,-0.2379011593248057,0.1565627657057577
-9643.179520368576,-2184.0,-6020.0,-14960.0,-136.0,-482.0,-2271.0,-0.79009377247986,-0.4219976725188164,-0.2972324812593849,0.3306397543575701
-9643.195082902908,-1144.0,-6092.0,-14940.0,-36.0,-774.0,-1873.0,-0.7457057588128096,-0.34339991950808,-0.309320419451177,0.47991696642836473
-9643.210675477982,-372.0,-5744.0,-15036.0,151.0,-297.0,-366.0,-0.7330380173966108,-0.33071062310484994,-0.29463257985818586,0.5162144822677467
-9643.226264953613,-72.0,-5404.0,-15064.0,179.0,868.0,698.0,-0.7332978680905173,-0.3974000996068346,-0.3206662625797892,0.44891039810800787
-9643.24185848236,-420.0,-5476.0,-15312.0,-68.0,1654.0,1623.0,-0.7378186817458096,-0.49338959434734336,-0.365717836735216,0.2800727850940779
-9643.257452011108,-1020.0,-5832.0,-15332.0,255.0,1404.0,1539.0,-0.7076582184516317,-0.583662366426994,-0.3775484779329561,0.12655131245946127
-9643.273054122925,-1372.0,-5748.0,-14988.0,22.0,973.0,369.0,-0.6755421141749093,-0.6055669509618726,-0.41705669818692803,0.05472869792213576
-9643.288717031479,-1432.0,-5768.0,-15164.0,-250.0,359.0,-1094.0,-0.6667132371669141,-0.5499501462505978,-0.49478983352529576,0.09072660395589625
-9643.304355621338,-908.0,-5912.0,-14952.0,-374.0,227.0,-1952.0,-0.6493427152290304,-0.43915022748349875,-0.5958141198784687,0.1746615310640205
-9643.31997537613,-272.0,-6024.0,-15244.0,-209.0,93.0,-909.0,-0.6362911145992015,-0.3802443303590097,-0.6371832977743548,0.211057602917621
-9643.335575580597,-220.0,-5764.0,-15124.0,-90.0,472.0,481.0,-0.6205525513244614,-0.410002831646999,-0.6481606649578286,0.16340122853751624
-9643.351150035858,68.0,-5632.0,-15124.0,-61.0,1259.0,1935.0,-0.5674472065929793,-0.5236198054025968,-0.635395454044448,0.009928952594373056
-9643.366770267487,-312.0,-5444.0,-15480.0,-118.0,1748.0,2508.0,-0.46164846794337266,-0.6361470873503466,-0.5870470029208582,-0.19383857114322
-9643.382353544235,-764.0,-5672.0,-15348.0,-41.0,1516.0,2161.0,-0.3405433099861096,-0.7012867927225198,-0.514105662689483,-0.3576624889015811
-9643.398031234741,-1004.0,-5532.0,-15188.0,-11.0,1100.0,1064.0,-0.25618883147744,-0.7082000158529036,-0.4771867696235316,-0.45289381434109854
-9643.413605928421,-1132.0,-5612.0,-15180.0,-160.0,730.0,-233.0,-0.24416990928627108,-0.664662373881769,-0.5005022696751951,-0.49809884781533514
-9643.429181814194,-1276.0,-5736.0,-15432.0,-287.0,394.0,-1030.0,-0.28684196009183444,-0.5936481110975749,-0.5535384002949719,-0.5088210387944263
-9643.444769620895,-804.0,-5864.0,-15228.0,-397.0,420.0,-2042.0,-0.37135894084077314,-0.45874662065251753,-0.6414363090992737,-0.4901056380685854
-9643.460369825363,-528.0,-5996.0,-15308.0,-511.0,259.0,-933.0,-0.4152066757275391,-0.3772606213978918,-0.6624744267729964,-0.49639245949707234
-9643.47599864006,-264.0,-5820.0,-15328.0,-217.0,583.0,-888.0,-0.4250825884405658,-0.2915765112618499,-0.700488388382021,-0.493562507517534
-9643.491580963135,-552.0,-5488.0,-15056.0,-396.0,753.0,-1356.0,-0.44310605720478213,-0.16004285494505455,-0.7388904943236657,-0.48175112251825375
-9643.507238388062,-704.0,-5656.0,-15588.0,-277.0,810.0,-2199.0,-0.4770584853964919,0.025987507481387742,-0.7732475380903928,-0.41692696698973103
-9643.522829055786,-844.0,-6004.0,-15364.0,-377.0,80.0,-2323.0,-0.5438329629364345,0.19730455653641177,-0.7422584773123307,-0.3381848211433043
-9643.538451433182,-612.0,-5648.0,-15252.0,-301.0,-530.0,-3170.0,-0.6414102631735598,0.38636761937888453,-0.6293045263437693,-0.2080594869607295
-9643.554047107697,-340.0,-5404.0,-15160.0,-452.0,-522.0,-3667.0,-0.6857660886499944,0.5740601609106946,-0.4453563860870947,-0.042865985166773986
-9643.569626808167,40.0,-5524.0,-15200.0,-532.0,-431.0,-3294.0,-0.6600887553425004,0.7028193398630453,-0.2424222090568683,0.10751410670628204
-9643.585193634033,184.0,-5740.0,-15108.0,-431.0,-410.0,-2458.0,-0.6044844052788048,0.7652671052894895,-0.07046585387105089,0.20976039849027517
-9643.600805282593,384.0,-5720.0,-15264.0,-344.0,-489.0,-1667.0,-0.5472849523319989,0.7933865556398366,0.05960488977571058,0.25973873680247156
-9643.616391420364,328.0,-5600.0,-15324.0,-353.0,144.0,-610.0,-0.5085620645562,0.8024184842733394,0.08676602980153861,0.2999347573444771
-9643.6319937706,112.0,-5612.0,-15256.0,-306.0,381.0,73.0,-0.4912895751041831,0.8060184829597636,0.05665987094885123,0.3252051929862931
-9643.647570848465,-144.0,-5660.0,-15280.0,-325.0,370.0,89.0,-0.47216331304907866,0.8093066897995496,0.02525485183837381,0.3484920086814544
-9643.663150548935,-488.0,-5624.0,-15304.0,-211.0,27.0,-232.0,-0.44993686889995693,0.8165426160027344,0.03404961632439244,0.36007720544915844
-9643.678775787354,-528.0,-5592.0,-15368.0,-288.0,-240.0,-777.0,-0.40299754954978023,0.8309092909140032,0.08948539585752822,0.373061776731257
-9643.69437289238,-420.0,-5552.0,-15264.0,-309.0,-359.0,-1091.0,-0.3403155016878212,0.8406003129576233,0.17020068308650993,0.38549734194076846
-9643.710005283356,-360.0,-5528.0,-15268.0,-326.0,-396.0,-1178.0,-0.269110943559572,0.8410024068982981,0.2557721498752965,0.39354143237518874
-9643.72558760643,-300.0,-5592.0,-15296.0,-291.0,-321.0,-1154.0,-0.19975377820103732,0.8284809708526764,0.33605319513717596,0.40098124528151285
-9643.741193771362,-236.0,-5584.0,-15216.0,-487.0,-486.0,-1114.0,-0.11057940941283403,0.8161432370016073,0.40538225906673087,0.3966706882848805
-9643.75678229332,-288.0,-5552.0,-15240.0,-270.0,-224.0,-1102.0,-0.04508701459543189,0.7836736730004373,0.4742887667426603,0.3985886364443941
-9643.772357225418,-480.0,-5648.0,-15608.0,-232.0,-226.0,-987.0,0.014340922342358411,0.7486534424581401,0.5324565593926072,0.39471809358291826
-9643.787977933884,-260.0,-5636.0,-15292.0,-280.0,-270.0,-987.0,0.0787498327734535,0.7088301444139817,0.5845043619068525,0.3869275657278376
-9643.80357003212,-260.0,-5584.0,-15260.0,-232.0,-300.0,-1266.0,0.1500446509888019,0.6485988767652497,0.6486859714959403,0.3687988749343918
-9643.81914806366,-480.0,-5496.0,-15320.0,-189.0,-345.0,-1085.0,0.21398073906827042,0.5929002552267383,0.6960612039345448,0.34377366251220765
-9643.83471274376,-240.0,-5516.0,-15408.0,-330.0,-452.0,-1324.0,0.29576609744714755,0.5159110764969739,0.7405244078902147,0.3130204115827993
-9643.85028386116,-164.0,-5496.0,-15612.0,-303.0,-484.0,-1131.0,0.36916246994005464,0.4455722502234529,0.7661288496222851,0.2796980986617555
-9643.865849256516,-44.0,-5496.0,-15412.0,-309.0,-348.0,-1057.0,0.42789078902504807,0.37160975152502157,0.7846411604786544,0.25130442598916564
-9643.881431818008,-36.0,-5464.0,-15432.0,-358.0,-221.0,-740.0,0.4693730582552662,0.3115939107577889,0.7905145006119838,0.24017699990829944
-9643.89704489708,-148.0,-5432.0,-15340.0,-335.0,42.0,-509.0,0.48536383238235775,0.26152649153925217,0.7980893351681321,0.24306225031701012
-9643.912754535675,-308.0,-5544.0,-15376.0,-362.0,59.0,-515.0,0.4994844045665933,0.20876194452264674,0.8036157121872951,0.24725607624401394
-9643.928428411484,-496.0,-5616.0,-15460.0,-354.0,-143.0,-697.0,0.5295399262934648,0.14717371322534295,0.8006993963026455,0.2383439559904033
-9643.944089889526,-436.0,-5540.0,-15408.0,-24.0,-497.0,-921.0,0.5811222963714472,0.09164003754054888,0.7859753778270755,0.1901096673741984
-9643.95972442627,-332.0,-5380.0,-15488.0,-306.0,-186.0,-1113.0,0.6114112419100297,0.002808982983501465,0.7765284345388431,0.15222349763846363
-9643.975331068039,-220.0,-5480.0,-15120.0,-375.0,-74.0,-966.0,0.6265673307961458,-0.08141547441278071,0.7648888741128786,0.12541894100759998
-9643.990945100784,-208.0,-5388.0,-15248.0,-334.0,-86.0,269.0,0.6263216077176814,-0.0808142310899041,0.7580838146987904,0.16278585212178695
-9644.006646871567,168.0,-6008.0,-17284.0,-1004.0,1479.0,-5533.0,0.5348300824783816,-0.46621941616706325,0.7007239076845441,-0.07471441670997987
-9644.02223777771,-360.0,-6028.0,-14892.0,-1162.0,-662.0,-1005.0,0.5157437045109662,-0.580203557488642,0.6299386764024695,-0.023441994521241873
-9644.037812948227,-504.0,-6008.0,-14956.0,192.0,-445.0,803.0,0.5494762443062473,-0.5267292895803166,0.6480982262731425,0.02451125339354262
-9644.053395986557,36.0,-5572.0,-15596.0,572.0,-318.0,259.0,0.5918387350816993,-0.4832253725721795,0.6448696271550681,0.019060821919744706
-9644.068971633911,80.0,-4624.0,-15460.0,-331.0,336.0,-203.0,0.5584901078078334,-0.5119350337968046,0.6525670722696283,0.012943602346525055
-9644.084555149078,-100.0,-5348.0,-15196.0,-538.0,486.0,139.0,0.5053119141293801,-0.5298327547659445,0.6805330839472509,0.02849285997011176
-9644.100159406662,-216.0,-6140.0,-15280.0,-44.0,300.0,1001.0,0.4807224345316035,-0.4712612134082008,0.7369520524081791,0.06099575498680999
-9644.115798711777,-308.0,-5880.0,-15456.0,316.0,118.0,1357.0,0.47514132116551905,-0.3687669119123644,0.7936012287657613,0.09191724158816583
-9644.13141965866,-352.0,-5164.0,-15396.0,62.0,124.0,818.0,0.4605415732831622,-0.3098473112416065,0.8235208831539363,0.11708739472538295
-9644.14701795578,-508.0,-5252.0,-15320.0,-179.0,207.0,544.0,0.43442236822100333,-0.2797742436648362,0.8436440226339722,0.1458366951250397
-9644.162629842758,-148.0,-5604.0,-15224.0,-110.0,153.0,841.0,0.4084037668929146,-0.22344570670635405,0.8662459769601801,0.18137333525763666
-9644.17821264267,-76.0,-5616.0,-15548.0,119.0,-250.0,1288.0,0.4063679402291236,-0.11719560882457229,0.878676641343494,0.2214896078453664
-9644.193795681,24.0,-5260.0,-15396.0,162.0,306.0,1923.0,0.3422586733155998,0.029602344303904418,0.8994826669998793,0.2700252460766263
-9644.20940899849,-76.0,-5292.0,-15500.0,245.0,730.0,2269.0,0.22579564314738182,0.19361436876567284,0.901823218240942,0.31344008484027797
-9644.22495341301,-236.0,-5420.0,-15408.0,-71.0,693.0,2212.0,0.10959068614969669,0.3404614796345955,0.8588668804744041,0.36663816497798796
-9644.240527629852,-436.0,-5476.0,-15120.0,54.0,635.0,2209.0,-0.010178128115524758,0.47678322195426426,0.7854819362862412,0.39445188900421296
-9644.256093263626,-760.0,-5432.0,-15420.0,86.0,548.0,1963.0,-0.11709851627544446,0.5833185599844097,0.6954297616189347,0.40299484080870773
-9644.271711111069,-640.0,-5428.0,-15472.0,-65.0,446.0,1498.0,-0.19176736001451747,0.6532662196157705,0.6067694961675391,0.41024298222221073
-9644.287431240082,-540.0,-5456.0,-15396.0,-59.0,325.0,520.0,-0.22388436126725228,0.6693246716892205,0.5688088505862205,0.4222993821246417
-9644.303181171417,-552.0,-5568.0,-15480.0,-26.0,508.0,696.0,-0.27243140740412103,0.6838784097613673,0.5158663988566571,0.4381475863824172
-9644.318812847137,-436.0,-5424.0,-15360.0,-18.0,322.0,619.0,-0.30889786514547435,0.6987301315083894,0.4697563787517894,0.44236552403283286
-9644.334442138672,-444.0,-5328.0,-15436.0,-133.0,339.0,381.0,-0.3289797299463313,0.7042796558636194,0.4318375866322661,0.4574700016314523
-9644.3500187397,-744.0,-5372.0,-15476.0,-100.0,302.0,1.0,-0.3340571642108501,0.6950510152188347,0.4189910485416023,0.47932911295338754
-9644.36558842659,-748.0,-5476.0,-15408.0,-141.0,68.0,-398.0,-0.31106149641815695,0.6814821405330962,0.43498668180249744,0.4996092715662702
-9644.381157875061,-372.0,-5376.0,-15604.0,-167.0,-25.0,-682.0,-0.2698837576776975,0.6601688155625653,0.46811091758329637,0.5217394571429399
-9644.39672780037,-320.0,-5408.0,-15424.0,-238.0,56.0,-590.0,-0.2312023679129982,0.6383210745819544,0.4892441882620276,0.5474776662730556
-9644.41232419014,-208.0,-5504.0,-15416.0,-216.0,219.0,-390.0,-0.20967466235248486,0.6151764837901137,0.4958314617683009,0.5759736029365524
-9644.427940607071,-184.0,-5456.0,-15596.0,-85.0,262.0,-174.0,-0.20761172394941943,0.5959832100688887,0.4959805879443495,0.5964097934953032
-9644.44354057312,-432.0,-5384.0,-15336.0,-220.0,196.0,-401.0,-0.18360234047001953,0.5720658220856941,0.501445348800612,0.6225619952595746
-9644.459131002426,-608.0,-5364.0,-15512.0,-225.0,253.0,-1096.0,-0.12327758156837852,0.5116017689920134,0.5372966953275004,0.6590739935978672
-9644.474700927734,-620.0,-5448.0,-15236.0,-349.0,-505.0,-1646.0,0.010524984643734268,0.4620044571492613,0.5893775101468973,0.6626275400294719
-9644.490298748016,-544.0,-5476.0,-15356.0,-301.0,-472.0,-1971.0,0.15837068267034377,0.38174059077273237,0.6409852200291173,0.6467849688507291
-9644.505900144577,-420.0,-5368.0,-15412.0,-505.0,-552.0,-2050.0,0.31604973925698737,0.2862128122460095,0.6614346204268619,0.6170081290571413
-9644.521522283554,-184.0,-5384.0,-15356.0,-390.0,-443.0,-2163.0,0.4590488422896948,0.17127544434441103,0.6697455644503802,0.5580141229898729
-9644.537146091461,-60.0,-5488.0,-15356.0,-318.0,-299.0,-2042.0,0.5712134865501171,0.052885330607868285,0.6621213511192909,0.48219665177365184
-9644.552726507187,-20.0,-5440.0,-15580.0,-273.0,-112.0,-1253.0,0.6276054399493591,-0.028280152281957155,0.6469940991841782,0.4320998499811526
-9644.568300485611,-96.0,-5396.0,-15360.0,-225.0,61.0,-760.0,0.6505705590410543,-0.08569509881433603,0.6386667856145105,0.40189430787340097
-9644.58387708664,-212.0,-5432.0,-15444.0,-229.0,180.0,-530.0,0.6563627463438528,-0.13447327431767164,0.6362234644838703,0.38252396911354547
-9644.599450826645,-380.0,-5444.0,-15308.0,-298.0,171.0,-792.0,0.6677738225791224,-0.20078466521661822,0.6252097138624985,0.3505373785830693
-9644.615118980408,-356.0,-5460.0,-15408.0,-499.0,-43.0,-1241.0,0.6944673582714413,-0.2944069843119554,0.5819300105314762,0.30396887789157195
-9644.63070011139,-416.0,-5424.0,-15128.0,-251.0,-193.0,-1381.0,0.7287406313196473,-0.3719761892733689,0.5242701864692131,0.23603300289798707
-9644.64628124237,-312.0,-5388.0,-15412.0,-14.0,-11.0,-1543.0,0.7535881498150213,-0.43946256169471254,0.4691062174755243,0.1375387729074972
-9644.661881685257,-96.0,-5316.0,-15424.0,-292.0,-235.0,-1448.0,0.7627229182913999,-0.510993483619314,0.39142468884867204,0.06265877888507206
-9644.677511930466,4.0,-5436.0,-15432.0,-281.0,-137.0,-1119.0,0.7569042594906397,-0.5644931109072785,0.32928555821072497,0.003806685828969192
-9644.693137645721,48.0,-5408.0,-15336.0,-223.0,27.0,-461.0,0.7443398027391537,-0.5921075246717997,0.30806050535797996,-0.021579210454928884
-9644.708770036697,32.0,-5304.0,-15408.0,-175.0,219.0,-71.0,0.7288277005902812,-0.6049985900392577,0.31892004999829643,-0.03281601151690522
-9644.724363088608,-96.0,-5340.0,-15492.0,-183.0,292.0,87.0,0.7107248874260108,-0.613299481397691,0.34251942202332075,-0.03760752647300588
-9644.739991664886,-304.0,-5452.0,-15408.0,-175.0,247.0,45.0,0.6936492428394421,-0.6219823346534138,0.3607716384250488,-0.04280803891167445
-9644.755560874939,-432.0,-5452.0,-15404.0,-148.0,88.0,-332.0,0.6810110023547433,-0.6409229628541598,0.34852895422128854,-0.06300268587487319
-9644.77114725113,-304.0,-5404.0,-15284.0,-163.0,-138.0,-550.0,0.6719431042768786,-0.6674102820507553,0.3101325895042699,-0.08290812357699842
-9644.786710262299,-232.0,-5332.0,-15392.0,-181.0,-69.0,-601.0,0.6576861998121276,-0.6939325323393339,0.2720532997243408,-0.1090573484314535
-9644.802308321,-68.0,-5408.0,-15408.0,-167.0,-219.0,-212.0,0.6502188307982746,-0.7105057245829339,0.24818530639330258,-0.10392853843226679
-9644.817890167236,244.0,-5404.0,-15396.0,-128.0,165.0,242.0,0.6404149079323012,-0.7109538848921213,0.27365621358440034,-0.09759915994265339
-9644.833504199982,-52.0,-5408.0,-15416.0,-84.0,267.0,259.0,0.6304419423993359,-0.7069925124348535,0.3052483081411543,-0.09761155157955854
-9644.849090337753,-132.0,-5360.0,-15420.0,-63.0,259.0,530.0,0.6230914313917237,-0.6933973259701426,0.3523206255096254,-0.08262804187547369
-9644.864733695984,-228.0,-5280.0,-15388.0,-111.0,504.0,404.0,0.6025577831674345,-0.6824458176474895,0.4043746905159032,-0.08759528292073673
-9644.880335569382,-228.0,-5304.0,-15512.0,-141.0,509.0,158.0,0.5764842393943183,-0.6797801471811089,0.4411858816498437,-0.10449828257552589
