programtime,ax,ay,az,gx,gy,gz,q0,q1,q2,q3
-2507.2445566654205,-1080.0,-1340.0,-16752.0,-1519.0,-77.0,-923.0,0.9881297666323482,-0.13123815202427014,-0.00643513016205595,-0.07959083394557978
-2507.260154247284,-136.0,-588.0,-16644.0,-1523.0,186.0,312.0,0.9639186234655209,-0.2593555045521787,0.02353328589629987,-0.05515246186475141
-2507.2757856845856,212.0,-596.0,-16120.0,-1007.0,537.0,2167.0,0.9293537414575612,-0.32988478066506527,0.11990479991186027,0.11445738806425274
-2507.2913563251495,-1036.0,-1892.0,-15420.0,-1111.0,1029.0,-349.0,0.8818683443003253,-0.43024627262512094,0.1806571973995266,0.06752292381807307
-2507.306953907013,-1036.0,-3492.0,-16204.0,-1205.0,679.0,-1405.0,0.8219436856554336,-0.5414180371504707,0.17064485637636218,-0.04642649730039749
-2507.322587251663,516.0,-2908.0,-17052.0,-226.0,1652.0,4754.0,0.7376046559391335,-0.43978089012882354,0.4711910463150012,0.20127378887223848
-2507.338168859482,-1112.0,-2336.0,-16848.0,552.0,2242.0,5630.0,0.5012239462118844,-0.18752036471735764,0.7431293425796459,0.4017081636676039
-2507.3537900447845,-972.0,-120.0,-16416.0,256.0,2296.0,3472.0,0.22045843108547442,-0.029797826433524358,0.8546623895812364,0.4691080574222315
-2507.3693993091583,-248.0,952.0,-16176.0,-13.0,2435.0,-2217.0,0.12441141899088545,-0.283593885054968,0.8605279632165219,0.40446004958033666
-2507.3849864006042,460.0,512.0,-15756.0,-963.0,1350.0,-9118.0,0.24953224327097717,-0.7981121158628833,0.4787159451020827,0.2675476667550009
-2507.4161446094513,1344.0,-2496.0,-17444.0,-1173.0,-217.0,-5452.0,0.2733375821016477,-0.940802701707864,0.060152641676237406,0.19120277814241815
-2507.4317650794983,1680.0,-3144.0,-16748.0,-1633.0,856.0,-3256.0,0.17957823726819822,-0.9612284478757721,-0.20343959273665996,0.049029172959808826
-2507.4473235607147,544.0,-3684.0,-16828.0,-958.0,70.0,146.0,0.09920872018070861,-0.9756600039367549,-0.19352353246390364,0.028174970114085835
-2507.462903738022,-228.0,-1144.0,-16336.0,-366.0,203.0,547.0,0.06968430267557771,-0.9868074606220698,-0.14583395715075836,0.009358983010537052
-2507.478477716446,-972.0,-644.0,-16436.0,-1719.0,316.0,-3742.0,-0.06733209808938856,-0.893623957869353,-0.439842256002699,-0.05866344963646288
-2507.4940757751465,-296.0,-1416.0,-16820.0,-906.0,-949.0,-4462.0,-0.1825465943325478,-0.6689259853200499,-0.7205364116175133,0.0064843345491931575
-2507.5096538066864,1276.0,-520.0,-16396.0,-705.0,-330.0,-4176.0,-0.22669642491758818,-0.37034250628801174,-0.899687065996921,0.04492596402693912
-2507.5252487659454,1356.0,-1068.0,-16688.0,-1106.0,204.0,-2432.0,-0.23035800306849466,-0.15417681288632445,-0.9608145134682243,-0.0004141247762693152
-2507.5408747196198,692.0,-2480.0,-16516.0,33.0,-297.0,219.0,-0.2543709127487253,-0.17311641491379948,-0.9514841129200569,0.0020318699530346668
-2507.5564947128296,1128.0,-692.0,-15836.0,-854.0,172.0,-822.0,-0.25115897412336385,-0.08547937214159151,-0.9627102869678434,-0.05292778119165215
-2507.5720975399017,1068.0,-1524.0,-16040.0,-1209.0,843.0,818.0,-0.18330059104125995,-0.12248840678904366,-0.9592548135042139,-0.1767135713384854
-2507.5877282619476,-124.0,-1928.0,-16592.0,-551.0,699.0,1772.0,-0.10164127522629333,-0.24755592687335895,-0.9292746669132766,-0.25462464074292557
-2507.603306055069,-112.0,-1036.0,-16572.0,-260.0,258.0,-157.0,-0.0896602627902823,-0.22667025200815386,-0.928710027338777,-0.2794267690314323
-2507.6188826560974,332.0,-1000.0,-16560.0,-425.0,1093.0,-496.0,-0.02134295221952115,-0.15556200701975342,-0.931081413256474,-0.32929066529567524
-2507.6344633102417,-144.0,-1888.0,-16508.0,70.0,82.0,-821.0,-0.03720457041066686,-0.08641810442034965,-0.9420400104652574,-0.32203780810887556
-2507.650042772293,892.0,-1476.0,-16716.0,-473.0,-723.0,-1262.0,-0.13442904237164113,-0.0014559475886313771,-0.9278097467936823,-0.3479881988491935
-2507.6656506061554,2108.0,-1700.0,-17408.0,-455.0,-170.0,2241.0,-0.0785024541011066,-0.1791966080182745,-0.8941151013527245,-0.40284503957211104
-2507.681238889694,676.0,-2144.0,-17108.0,703.0,-696.0,6243.0,0.08557655338262118,-0.6091115360565047,-0.7149780285273131,-0.3323645722354197
-2507.6968710422516,-308.0,-1084.0,-15852.0,353.0,-809.0,5099.0,0.1838210443680917,-0.8641170752929829,-0.41949275464318997,-0.2086560150975613
-2507.7124598026276,-160.0,-712.0,-15768.0,-257.0,-498.0,3431.0,0.19951301048371237,-0.9597793598492779,-0.15703731302632026,-0.11982245771352727
-2507.7280716896057,-108.0,-1040.0,-15748.0,-412.0,-134.0,3031.0,0.1880104450327405,-0.9757239479666981,0.09544716921024357,-0.05920040382144595
-2507.7436599731445,-548.0,-1428.0,-16112.0,-491.0,-161.0,1972.0,0.15500783993109282,-0.9532653335048352,0.25919287931806795,-0.008764976247624928
-2507.7592725753784,108.0,-1272.0,-16576.0,-414.0,-187.0,3187.0,0.12218068080103282,-0.8539136101553546,0.5026424722396132,0.05704360377198214
-2507.7748568058014,100.0,-1376.0,-16804.0,-192.0,95.0,4055.0,0.07849670091788286,-0.63964104308632,0.7586582825471637,0.09557831483679188
-2507.790466785431,-92.0,-1272.0,-16592.0,-15.0,-38.0,3214.0,0.051263566799579816,-0.41082193638780407,0.9028603660412583,0.11593335470607799
-2507.806062936783,-76.0,-660.0,-16164.0,-613.0,-584.0,1185.0,0.06271345380905996,-0.31181091523103255,0.9291148069651145,0.18864424542588837
-2507.8216524124146,40.0,-544.0,-16420.0,-1059.0,-919.0,328.0,0.10212340885034234,-0.2737642555344762,0.9085285732264122,0.29866331108393546
-2507.8372480869293,176.0,-1240.0,-16492.0,-1031.0,-1063.0,550.0,0.14597799434178835,-0.20970026634381747,0.8771614615402147,0.40657593860423596
-2507.8528695106506,240.0,-1360.0,-16204.0,-689.0,-1173.0,1419.0,0.1702430048122539,-0.06729319475689959,0.8514682490402278,0.4914170999550926
-2507.8685009479523,-252.0,-1236.0,-16100.0,-633.0,-875.0,1448.0,0.16730560068838385,0.06756804529314406,0.8100151882239224,0.5579594878484696
-2507.8840885162354,-656.0,-1108.0,-16336.0,-697.0,-817.0,518.0,0.20279306074999678,0.1330798813252079,0.7572162234632425,0.6064555306221403
-2507.899706840515,-920.0,-1356.0,-16584.0,-747.0,-1011.0,-907.0,0.3232783301052772,0.11243190688485816,0.704135224805634,0.6221284214585421
-2507.915334701538,-160.0,-1512.0,-16528.0,-370.0,-831.0,-97.0,0.3819306651879808,0.1407322652370762,0.6596957454485638,0.6317633417248674
-2507.9309980869293,236.0,-892.0,-16252.0,143.0,-201.0,962.0,0.33732898150159873,0.21122047488390758,0.6468774986739408,0.6504956348341289
-2507.946653366089,-96.0,-400.0,-15888.0,51.0,94.0,-550.0,0.3617700124958141,0.1761994113048968,0.6621158279932576,0.6322015942999425
-2507.962239742279,-436.0,-452.0,-16104.0,12.0,-189.0,-2228.0,0.48615050236564195,0.05724389436245408,0.6785061745977611,0.547731865642822
-2508.0403339862823,-712.0,-912.0,-16204.0,703.0,455.0,-657.0,0.4848649430959339,0.026308051323777358,0.7317674740312525,0.47825750108288145
-2508.0559499263763,-676.0,-856.0,-16292.0,636.0,171.0,-1748.0,0.5381651098371858,-0.06469515639546337,0.7597418250040475,0.35914511082905654
-2508.071562767029,-472.0,-928.0,-16292.0,749.0,478.0,-2716.0,0.577911356013333,-0.21792340737691834,0.7670313163410656,0.17375503693463645
-2508.0871522426605,-260.0,-1292.0,-16516.0,675.0,189.0,-2324.0,0.5997751791611691,-0.33494032329479617,0.726655547303302,0.00751198154309982
-2508.1027784347534,-40.0,-1328.0,-16852.0,420.0,416.0,-2145.0,0.5760510481496336,-0.44110271952855284,0.6735948016456617,-0.140938369318526
-2508.1183726787567,48.0,-1800.0,-16132.0,-31.0,28.0,-2163.0,0.5368609825539437,-0.5596898206346745,0.5819937979121971,-0.24456248543240808
-2508.134008169174,392.0,-1648.0,-16252.0,167.0,-171.0,-902.0,0.5324438182917546,-0.5994873535155327,0.5247606449297229,-0.2859104035721348
-2508.1496028900146,140.0,-1040.0,-16244.0,47.0,179.0,-1208.0,0.49353299924131744,-0.6446525099557379,0.4661930818705736,-0.3514432108942405
-2508.1651895046234,-624.0,-1076.0,-16472.0,121.0,-147.0,-2422.0,0.4224466440386065,-0.7264956084999749,0.3130673574965397,-0.44241586029538316
-2508.1808133125305,-428.0,-684.0,-16352.0,-414.0,87.0,-3850.0,0.23211015990384995,-0.7993348770832669,0.08361551562235103,-0.5479024306342288
-2508.1964128017426,-408.0,-1696.0,-16444.0,-837.0,255.0,-5046.0,-0.06343126751569596,-0.7679149524681036,-0.2037229156294415,-0.6039702589736533
-2508.212055683136,300.0,-2100.0,-16436.0,-420.0,-132.0,-2656.0,-0.22765667758777874,-0.7063019090676795,-0.34936159452225524,-0.5720633939258069
-2508.2276215553284,572.0,-1540.0,-16544.0,117.0,238.0,-5.0,-0.21326463276230886,-0.6965961822190534,-0.3602166748352372,-0.5826799314385572
-2508.243217945099,-144.0,-1224.0,-16396.0,95.0,333.0,313.0,-0.18085683622622406,-0.6908859374126858,-0.35201254343893473,-0.6050244586273248
-2508.258795976639,-172.0,-1532.0,-16284.0,-140.0,53.0,-86.0,-0.19210154957355438,-0.6833517438701502,-0.3506867154218065,-0.6108569525083009
-2508.274411201477,496.0,-1348.0,-16224.0,-8.0,83.0,528.0,-0.1616208896280045,-0.694392096712611,-0.31989782435674946,-0.623990132959436
-2508.2900307178497,272.0,-1168.0,-16388.0,390.0,272.0,1427.0,-0.05216160142947913,-0.7189469372251583,-0.25637393431273975,-0.6439463289715092
-2508.3055803775787,-340.0,-1072.0,-16076.0,334.0,166.0,476.0,-0.0007085511287167529,-0.7209889105349544,-0.24575312245059805,-0.6479042303046795
-2508.321153640747,-292.0,-1172.0,-16184.0,236.0,142.0,-85.0,0.01239191337739306,-0.7111341023906125,-0.264426577391247,-0.6513166004863501
-2508.3367626667023,104.0,-1224.0,-16448.0,308.0,451.0,655.0,0.0789381061686798,-0.6985613414930845,-0.24019437801006563,-0.6693933733898492
-2508.3523514270782,20.0,-1332.0,-16592.0,592.0,767.0,1087.0,0.19304368571468714,-0.6673221109989612,-0.20166492858728946,-0.690468386065186
-2508.3679854869843,-284.0,-1136.0,-16260.0,547.0,367.0,-133.0,0.22291608843073485,-0.6328029172892565,-0.23583700469676075,-0.7030290126336234
-2508.3835666179657,-144.0,-1172.0,-16276.0,374.0,322.0,-935.0,0.19196781340210206,-0.5842874647052189,-0.30293666773459405,-0.7280012998256415
-2508.399159193039,160.0,-1408.0,-16156.0,105.0,272.0,-1049.0,0.13721559125664773,-0.535340382214638,-0.35702811239592164,-0.7530693750547682
-2508.414778470993,36.0,-1568.0,-16508.0,91.0,296.0,-340.0,0.12822365169218655,-0.5040244363339207,-0.3751696558161167,-0.7673107532674167
-2508.4303760528564,188.0,-1760.0,-16360.0,252.0,497.0,371.0,0.1801041176090174,-0.4794784187546081,-0.36966801255554727,-0.7752473884264877
-2508.4460117816925,128.0,-1808.0,-16328.0,-40.0,87.0,1168.0,0.2588826051524633,-0.5094671170472989,-0.31521414588374863,-0.7576695161030084
-2508.4615926742554,128.0,-1640.0,-16160.0,-199.0,91.0,1297.0,0.33604485011716434,-0.5403137271856401,-0.24086934328912646,-0.7328825924989345
-2508.477160215378,-44.0,-1376.0,-16328.0,-98.0,42.0,1167.0,0.40476654408339896,-0.5623493652421454,-0.1775047965900086,-0.6988700046432654
-2508.4927303791046,-272.0,-956.0,-16292.0,-48.0,69.0,137.0,0.41170862888014187,-0.5621630361264138,-0.16546469396859512,-0.6979184485085956
-2508.508295059204,-396.0,-944.0,-16632.0,29.0,87.0,-823.0,0.36322956147229457,-0.5427861661821334,-0.20400773643705195,-0.7292655942438094
-2508.5238740444183,-216.0,-1052.0,-16356.0,-15.0,223.0,-1439.0,0.27264668199446224,-0.4996943262317208,-0.262117023707923,-0.779271475810412
-2508.5394644737244,24.0,-1620.0,-16268.0,146.0,196.0,-1401.0,0.1867485511830649,-0.4476677975597074,-0.3260769663810556,-0.8114137869513895
-2508.555092573166,192.0,-1484.0,-16272.0,378.0,281.0,-947.0,0.14182933045482338,-0.39322975503073776,-0.38377041876253093,-0.8233924134117547
-2508.5706980228424,-88.0,-1556.0,-16200.0,247.0,316.0,-1110.0,0.08068658984970688,-0.32876636987473457,-0.433582725137325,-0.8351097944104747
-2508.5862848758698,-132.0,-1912.0,-16412.0,211.0,79.0,-854.0,0.027406968758105575,-0.28853715569143057,-0.471711683478298,-0.8327564202809016
-2508.6018679142,368.0,-1692.0,-16136.0,344.0,284.0,425.0,0.07854215629853345,-0.28432105365495486,-0.4848487422596543,-0.823355552153348
-2508.617451906204,-156.0,-1664.0,-16528.0,382.0,367.0,298.0,0.12477870780162022,-0.26771504158324483,-0.5019063479715349,-0.8129261642088512
-2508.6330399513245,-180.0,-1468.0,-16244.0,215.0,59.0,-171.0,0.12019905563949548,-0.2537600665391013,-0.520585379912389,-0.8063180996820785
-2508.648668527603,324.0,-1472.0,-16320.0,-8.0,224.0,-379.0,0.10343944261705211,-0.2208366737479748,-0.5259122216489418,-0.8148299088517053
-2508.664272546768,112.0,-1372.0,-16276.0,206.0,99.0,-20.0,0.11049463268324153,-0.21109396603794003,-0.5401856199303174,-0.8071119932642975
-2508.679932832718,120.0,-1224.0,-16264.0,-100.0,-245.0,-698.0,0.047820582669232316,-0.19610386094747048,-0.5474475305890011,-0.8121315588294025
-2508.695490837097,176.0,-1584.0,-16136.0,-342.0,127.0,-752.0,-0.005249392357471735,-0.15230355122636807,-0.5343811979601003,-0.8313920900696871
-2508.711088657379,172.0,-1944.0,-16596.0,-45.0,54.0,39.0,-0.0004898417536544535,-0.1502671241109145,-0.5308685398272361,-0.8340252663368116
-2508.7266659736633,196.0,-1384.0,-16248.0,-33.0,116.0,447.0,0.036963218438989184,-0.1624840610551778,-0.522445032938161,-0.8362319283212597
-2508.742238998413,-316.0,-1300.0,-16140.0,-209.0,85.0,-610.0,-0.006636473123765296,-0.12902085327923782,-0.5150047325884305,-0.8473958355190886
-2508.7578082084656,-208.0,-1436.0,-16188.0,-262.0,28.0,-1327.0,-0.10572517291240334,-0.06676476617221343,-0.5073364767197562,-0.8526279101696096
-2508.7734036445618,304.0,-1616.0,-16544.0,-356.0,-38.0,-870.0,-0.17361039237994075,-0.027738521898561373,-0.48422004078560216,-0.8571003197771869
-2508.788998365402,324.0,-1360.0,-16272.0,-328.0,83.0,-487.0,-0.2070155273020386,0.003994056018230942,-0.4617955287133866,-0.8624810192883703
-2508.804585456848,-96.0,-1464.0,-16160.0,-423.0,-120.0,-828.0,-0.27308672807896583,0.03586624012637586,-0.4263721680020472,-0.861593887002198
-2508.8201756477356,12.0,-1376.0,-16364.0,-745.0,-51.0,-1140.0,-0.3558318985383,0.09159855447751761,-0.36331296303383154,-0.8561524722219962
-2508.835809469223,44.0,-1848.0,-16400.0,-595.0,-93.0,-654.0,-0.40165148761508856,0.12359709328623103,-0.3100990969955958,-0.8527827338016976
-2508.8514235019684,-88.0,-1524.0,-16532.0,-562.0,-168.0,-492.0,-0.43575065346183245,0.14393753856018932,-0.25678222560823105,-0.8505681875149713
-2508.8670148849487,-76.0,-1432.0,-16320.0,-712.0,-96.0,-856.0,-0.4901447225836387,0.1823969256895345,-0.1888852160802274,-0.8311509415074616
-2508.8826615810394,-60.0,-1516.0,-16380.0,-611.0,-84.0,-666.0,-0.5284266431901792,0.21300916393397842,-0.13015189388693743,-0.8114510850103965
-2508.8982384204865,72.0,-1524.0,-16300.0,-605.0,-25.0,-911.0,-0.5793073089927887,0.2486526685039693,-0.06902073388133953,-0.7731824044091214
-2508.9138400554657,88.0,-1236.0,-16348.0,-575.0,-73.0,-864.0,-0.6229580677615232,0.2771733855555197,-0.007795633396660407,-0.7314624995517307
-2508.929533958435,108.0,-1244.0,-16280.0,-580.0,23.0,-844.0,-0.6600951637831561,0.309822188374977,0.0482240043935225,-0.6826119188388686
-2508.9451513290405,36.0,-1348.0,-16212.0,-755.0,-247.0,-564.0,-0.6697477701272138,0.33531538741712635,0.122304048392955,-0.6511860218997496
-2508.9607362747192,156.0,-1248.0,-16500.0,-258.0,-33.0,47.0,-0.6589161746958624,0.3492083289535144,0.13760222201378444,-0.6518808527718349
-2508.976356267929,124.0,-1136.0,-16384.0,-369.0,196.0,-242.0,-0.6631111659933405,0.3786078045778511,0.15468367796628874,-0.6269072272820864
-2508.992005586624,-92.0,-1524.0,-16144.0,-200.0,-253.0,-252.0,-0.6663529702903227,0.3729732591630666,0.18859333103982803,-0.617492690176852
-2509.007607460022,188.0,-1344.0,-16612.0,-249.0,93.0,1.0,-0.6594459372327496,0.39263266322734186,0.19666173922386845,-0.6101596577615309
-2509.0232105255127,52.0,-1412.0,-16584.0,-5.0,88.0,484.0,-0.6343266943974729,0.40579817850403643,0.17525994081923643,-0.6342250674970353
-2509.0388112068176,-80.0,-1444.0,-16368.0,-10.0,-40.0,148.0,-0.6250143008243767,0.40663186306380583,0.1728970525331145,-0.6435171022837195
-2509.0544204711914,576.0,-1000.0,-16140.0,-735.0,309.0,-875.0,-0.6491679034373781,0.4487354703500684,0.2272872844350064,-0.5705769020303769
-2509.070018529892,2532.0,120.0,-16580.0,-1587.0,2299.0,1024.0,-0.5628376293779878,0.6520030138018336,0.13176124739791398,-0.49065756555222767
-2509.0856306552887,1488.0,-2192.0,-16548.0,-794.0,3977.0,4807.0,-0.31332293258237165,0.8036681627807679,-0.2656109658895986,-0.43057756426660515
-2509.1012148857117,-4148.0,-2376.0,-15928.0,1029.0,-186.0,1247.0,-0.3394020236155264,0.7324726260827387,-0.38284114990372414,-0.4491355834773465
-2509.116801261902,-1016.0,452.0,-15996.0,-1599.0,-150.0,-4103.0,-0.3760087688743626,0.8504872264049683,-0.049992197975500745,-0.364403160789185
-2509.1323812007904,1432.0,-1992.0,-16856.0,-594.0,169.0,-713.0,-0.3524929270534966,0.8756580030312419,0.016232497752891664,-0.32970942376780576
-2509.1480000019073,1340.0,-1212.0,-16412.0,488.0,871.0,1678.0,-0.3376852575073106,0.875619251121378,-0.15063211173027374,-0.3107564333099755
-2509.163582086563,-632.0,-1148.0,-16232.0,-439.0,166.0,-180.0,-0.3063354384292482,0.8947024600467363,-0.12975822660257155,-0.29804179199842795
-2509.179219722748,28.0,-1232.0,-16432.0,-724.0,-151.0,-382.0,-0.2605682010315561,0.9121840167283147,-0.07687173174150977,-0.30678211990863763
-2509.1948013305664,1352.0,-1728.0,-16492.0,-183.0,864.0,2359.0,-0.17277025240804644,0.9022292820848009,-0.27287292644060623,-0.2857851088621383
-2509.210426092148,-64.0,-1140.0,-16328.0,575.0,993.0,3118.0,-0.11189413197880542,0.8107798188693516,-0.5260240961470745,-0.23111563948712882
-2509.2260189056396,-1084.0,-648.0,-16072.0,-330.0,142.0,-730.0,-0.09640057841391766,0.8483129289700162,-0.467964331044039,-0.22821368910361095
-2509.241612434387,-116.0,-1788.0,-16260.0,-413.0,-159.0,-1468.0,-0.10060334687292422,0.9006260602061366,-0.34665999552440185,-0.2420299852881053
-2509.2571947574615,796.0,-1848.0,-16760.0,96.0,142.0,1927.0,-0.062210569968175755,0.8327868172868214,-0.4944071746467308,-0.24115867721348555
-2509.2727892398834,580.0,-1348.0,-16436.0,143.0,391.0,3324.0,0.013688509229223133,0.6688950205680206,-0.711366683394063,-0.21528938183598345
-2509.2883892059326,-156.0,-988.0,-16192.0,181.0,161.0,2936.0,0.06607725315344973,0.47449328514846056,-0.8580977113523055,-0.1848194706643543
-2509.304010629654,-32.0,-760.0,-16096.0,2.0,184.0,1403.0,0.10151513701803001,0.3696346718095434,-0.9083206866668606,-0.1673870261564633
-2509.319608926773,12.0,-484.0,-16176.0,-139.0,135.0,-371.0,0.11104291728590426,0.39954214097276863,-0.892595876819741,-0.1769410884784244
-2509.3352262973785,-40.0,-912.0,-16576.0,-265.0,-273.0,-1669.0,0.07227615669362178,0.5170588186920692,-0.8238822606171043,-0.22055465496518287
-2509.3508036136627,316.0,-1188.0,-16420.0,-186.0,-754.0,-2095.0,-0.013707348933829284,0.6399960247277159,-0.7170929851641284,-0.27567162992648764
-2509.3664112091064,1412.0,-984.0,-16316.0,-465.0,11.0,-413.0,0.0030374641605697655,0.6657466819792727,-0.6819240506813237,-0.30290546107232563
-2509.382030248642,164.0,-2592.0,-16480.0,394.0,336.0,2303.0,0.05971717067652761,0.5266925714570947,-0.8091172684948462,-0.2536888655848789
-2509.397600889206,-368.0,-1108.0,-16396.0,171.0,77.0,1522.0,0.09008915320565897,0.4181428682238988,-0.8747248339571537,-0.2278090232778506
-2509.413177013397,-228.0,-1056.0,-16544.0,-181.0,72.0,583.0,0.11349037633135332,0.37315029111404024,-0.8906302631534477,-0.23378735867641642
-2509.4287757873535,300.0,-924.0,-16324.0,373.0,7.0,455.0,0.11089603042423567,0.34119981105817015,-0.9118564781184045,-0.19950569586735017
-2509.444378376007,308.0,-312.0,-16012.0,105.0,96.0,-734.0,0.10226947742565796,0.40146380235618356,-0.8890795514453855,-0.1946928878682269
-2509.460015296936,84.0,-812.0,-16624.0,-203.0,-256.0,-1393.0,0.06520069046225094,0.49953525140643223,-0.8327167090175136,-0.22977442218097277
-2509.4756467342377,660.0,-1228.0,-16584.0,-232.0,-361.0,-337.0,0.04219934248829511,0.5149256541633861,-0.814581095790503,-0.26368243126668106
-2509.4912848472595,616.0,-1788.0,-16464.0,107.0,-371.0,1022.0,0.03432522507522232,0.43221851110401877,-0.8605079517674569,-0.26746028214958717
-2509.5068819522858,272.0,-948.0,-16384.0,262.0,-452.0,921.0,0.011903727853865547,0.3518312852697514,-0.8989630965103728,-0.26064995507595634
-2509.5224487781525,-400.0,-512.0,-16172.0,-71.0,-595.0,-324.0,-0.0399284839068743,0.3630391244326499,-0.8865367095177616,-0.2840087551141573
-2509.5380449295044,-140.0,-984.0,-16376.0,-496.0,-663.0,-2266.0,-0.12882493360161598,0.5124632112354818,-0.783075109224521,-0.32799232754099855
-2509.553617954254,472.0,-1504.0,-16444.0,-239.0,-727.0,-1399.0,-0.20579389767749684,0.5843958930362381,-0.6988643417249275,-0.3573778724913806
-2509.569196462631,728.0,-1176.0,-16284.0,54.0,-456.0,-369.0,-0.24741080846541588,0.5910290314334689,-0.6727574074668414,-0.36995952015835387
-2509.5848019123077,-32.0,-1092.0,-16256.0,-39.0,-444.0,-599.0,-0.29004960356758724,0.6115191804904285,-0.629790950314349,-0.38115466449297125
-2509.6003844738007,76.0,-1176.0,-16588.0,-173.0,-391.0,-540.0,-0.31953906343972643,0.6315569352142393,-0.5843780054631161,-0.3969042343561099
-2509.6160011291504,116.0,-1132.0,-16576.0,-33.0,-410.0,-133.0,-0.3428351343010073,0.6247532677144952,-0.5641814917189939,-0.41694924100015046
-2509.631580352783,144.0,-844.0,-16296.0,13.0,-303.0,-446.0,-0.37411470163898297,0.6347389832449872,-0.5308016552851375,-0.41880092635195143
-2509.6471688747406,80.0,-996.0,-15944.0,-46.0,-388.0,-749.0,-0.4156216273904068,0.6551333565118244,-0.4737928174657435,-0.41662850856461253
-2509.6627926826477,180.0,-1320.0,-16244.0,-98.0,-298.0,-733.0,-0.447739095229714,0.6766948354180878,-0.41661012076554343,-0.40993878762210734
-2509.6784076690674,84.0,-1700.0,-16508.0,152.0,-210.0,89.0,-0.4608635216829801,0.6600041800587684,-0.41906797793695155,-0.41997776911968676
-2509.6940262317657,-96.0,-1292.0,-16468.0,312.0,-146.0,760.0,-0.4549411200766326,0.6128756881233058,-0.4672669254038468,-0.4461766338508092
-2509.7096061706543,-384.0,-1036.0,-16632.0,262.0,36.0,467.0,-0.4486406553149231,0.5843675743461538,-0.5034396698734233,-0.4514250760083308
-2509.725184440613,-136.0,-924.0,-16384.0,310.0,42.0,-380.0,-0.47696454053341963,0.5902015634380018,-0.4975862741438204,-0.420208092940573
-2509.740765810013,20.0,-1072.0,-16160.0,174.0,111.0,-894.0,-0.5120690601154635,0.6240186431067095,-0.4611880554588859,-0.3683633915439731
-2509.7563619613647,-12.0,-1356.0,-16088.0,218.0,47.0,-1249.0,-0.5585890189675761,0.6621840722130644,-0.39994578367215605,-0.299222212609674
-2509.771981239319,312.0,-1332.0,-16324.0,403.0,26.0,-114.0,-0.5833435348566451,0.6469538948604848,-0.4049722719039388,-0.2777740759227994
-2509.7875878810883,192.0,-1072.0,-16560.0,347.0,150.0,209.0,-0.5919273847574658,0.6252838867923992,-0.4326143061155321,-0.26737033163040713
-2509.803199529648,712.0,-724.0,-16696.0,-271.0,524.0,62.0,-0.5549362436141169,0.64847219692092,-0.4562345470543041,-0.25175308025556126
-2509.818815946579,1700.0,-928.0,-16400.0,-427.0,1878.0,2559.0,-0.3847884102136871,0.5862071957594283,-0.6574889540754285,-0.2756941752628983
-2509.83443236351,-336.0,-1684.0,-16312.0,412.0,1298.0,592.0,-0.31429487769521447,0.5650078250208077,-0.7352012656062707,-0.20362707720424664
-2509.850022315979,624.0,-1072.0,-16244.0,-1063.0,3047.0,903.0,-0.048084670559642315,0.5666762874084597,-0.810485779653092,-0.1402806142211218
-2509.865619659424,-2476.0,-2920.0,-16412.0,1338.0,-13.0,1736.0,-0.0923604781510017,0.43034630931214785,-0.8964008062622107,-0.052318167681887545
-2509.8812441825867,208.0,-48.0,-16408.0,-425.0,47.0,-1470.0,-0.07845340848849415,0.5441590695969969,-0.8322698028038181,-0.07115437451598924
-2509.896856069565,588.0,-1588.0,-16876.0,310.0,27.0,1118.0,-0.0836838762329678,0.45868276752957826,-0.8829737894834496,-0.05444643895856754
-2509.9124794006348,460.0,-1172.0,-16136.0,700.0,-56.0,1341.0,-0.1084918068710787,0.3469804980779157,-0.931496400731686,-0.012186764105561966
-2509.9281227588654,232.0,-960.0,-16264.0,106.0,-215.0,556.0,-0.12810550799541584,0.3001562984239799,-0.9451265171810365,-0.015200061147738104
-2509.943767309189,-128.0,-1428.0,-16504.0,115.0,-469.0,564.0,-0.1684082332868867,0.25123354934116265,-0.9528584035007465,-0.024108785217003947
-2509.9593522548676,-16.0,-1424.0,-16772.0,151.0,-450.0,467.0,-0.20750774489510052,0.20891308716583862,-0.9552516486964877,-0.028109526535151346
-2509.9749681949615,-216.0,-1536.0,-16604.0,252.0,-590.0,346.0,-0.2596145446539769,0.1737408835644567,-0.9496526946355283,-0.023961493146933698
-2509.9906430244446,-336.0,-1644.0,-16464.0,114.0,-862.0,-133.0,-0.3317841349907488,0.17988493371918027,-0.9257240433027328,-0.02440684413287844
-2510.006212949753,92.0,-1620.0,-16444.0,58.0,-944.0,282.0,-0.4065581061233655,0.15288941562742975,-0.8997393787724234,-0.04247803221312236
-2510.021808862686,132.0,-1984.0,-16628.0,92.0,-940.0,833.0,-0.47536524462114815,0.08029800985368066,-0.8727428509438669,-0.0768116524115037
-2510.0374031066895,52.0,-1620.0,-16316.0,466.0,-1153.0,2129.0,-0.5395666927739137,-0.10644521171663766,-0.8242751186287437,-0.1345649648355464
-2510.052981376648,80.0,-800.0,-16336.0,403.0,-717.0,1979.0,-0.5542948833425705,-0.27150651566742606,-0.7638155279578078,-0.18875177747749847
-2510.068553209305,-620.0,-1008.0,-16528.0,377.0,-736.0,993.0,-0.5741855580069752,-0.365791522008463,-0.70661182086994,-0.192891788342113
-2510.084198951721,-620.0,-1048.0,-16500.0,301.0,-1021.0,-889.0,-0.6376133995590489,-0.34083670378031306,-0.6840968807690276,-0.09638958336361061
-2510.0998435020447,80.0,-1256.0,-16224.0,149.0,-759.0,-1275.0,-0.6832196174154713,-0.27714439478544717,-0.6755483667409603,0.0060285165078880765
-2510.1154613494873,240.0,-1744.0,-16208.0,361.0,-705.0,-214.0,-0.713881315324881,-0.2850212779090757,-0.6370931791359148,0.05699666540762235
-2510.1310670375824,96.0,-1296.0,-16212.0,643.0,-519.0,513.0,-0.7264588773698071,-0.34984493603985317,-0.5869190007327291,0.07343096619795533
-2510.14666223526,-212.0,-820.0,-16468.0,489.0,-220.0,834.0,-0.7252081222681184,-0.4206932086043638,-0.5425627964979477,0.05211540546557891
-2510.1622405052185,-332.0,-1044.0,-16524.0,207.0,46.0,-82.0,-0.7146872297508499,-0.4301682293977126,-0.5476312750859534,0.06540217577134262
-2510.177846431732,-268.0,-1572.0,-16236.0,420.0,-168.0,-207.0,-0.7048722143864236,-0.4452198689980079,-0.542212966561828,0.10459220108401182
-2510.1934292316437,-108.0,-1436.0,-16048.0,447.0,145.0,-233.0,-0.6775694867009978,-0.46265914909676475,-0.5557101948824718,0.13428433174607232
-2510.209014892578,-112.0,-1184.0,-16192.0,385.0,491.0,-394.0,-0.6320393280127681,-0.47121965176732195,-0.5950798804679879,0.15607134104523307
-2510.224603176117,-108.0,-1664.0,-16368.0,535.0,921.0,-222.0,-0.5564193957069505,-0.49959795718321637,-0.6449811005185113,0.15747608463953797
-2510.2401852607727,-1260.0,-1756.0,-16044.0,1011.0,176.0,-1629.0,-0.47314085396129957,-0.45315239248686373,-0.7009795583281372,0.2818125268725529
-2510.255790948868,-256.0,-1660.0,-16344.0,162.0,175.0,-2398.0,-0.388306999124312,-0.3107352722842762,-0.7820961068115265,0.3754822828040512
-2510.271372795105,208.0,-1832.0,-16432.0,746.0,198.0,-790.0,-0.326942210134059,-0.28729828403281993,-0.7823300578619043,0.4455649983899581
-2510.286969423294,536.0,-1364.0,-16316.0,418.0,1008.0,-784.0,-0.21549733384389344,-0.2829952517339323,-0.809108957285025,0.4677790951329069
-2510.302628517151,-180.0,-2152.0,-16224.0,636.0,1045.0,358.0,-0.13961650421650776,-0.3607014188506874,-0.7892484487485759,0.47695765465859663
-2510.318203687668,-1004.0,-1832.0,-16252.0,759.0,330.0,-1159.0,-0.04433029487366817,-0.3016056179394085,-0.7922221601733295,0.5286330722855929
-2510.3338072299957,-272.0,-1920.0,-16516.0,87.0,143.0,-1777.0,0.04925970272686412,-0.18353321086353888,-0.8257390916676043,0.5310781436750533
-2510.3493769168854,1008.0,-1592.0,-16468.0,157.0,280.0,-1423.0,0.1367916893985791,-0.09257346765599443,-0.8334977563017765,0.5272567467918563
-2510.3649525642395,2396.0,-960.0,-16252.0,-669.0,3198.0,1356.0,0.28815657081908375,-0.3309129297766851,-0.779050411774299,0.4478201419260773
-2510.380527496338,-2884.0,-4424.0,-16208.0,1934.0,895.0,2960.0,0.2753702237506949,-0.4941810897759551,-0.5675981066984462,0.5981543944933287
-2510.3961000442505,-1520.0,-664.0,-15748.0,-238.0,253.0,-3641.0,0.44543003677493664,-0.3171553898747208,-0.6964931686668755,0.46465235070154093
-2510.411761522293,312.0,-2468.0,-16840.0,-697.0,327.0,-1881.0,0.5140741405970127,-0.23953494110863247,-0.752536323511454,0.33472357513833867
-2510.4273493289948,1116.0,-2196.0,-16468.0,989.0,458.0,1545.0,0.5125587923562762,-0.3059437522579554,-0.6620655660284714,0.45315680631763494
-2510.442940235138,-164.0,-1508.0,-15968.0,433.0,577.0,587.0,0.5323141281310121,-0.3422917769758339,-0.6016945732647897,0.4872798466082392
-2510.4585361480713,-632.0,-1636.0,-16128.0,63.0,-236.0,-975.0,0.5609326270844003,-0.2772036653393205,-0.6368551690898621,0.45047553695862563
-2510.4741566181183,288.0,-1820.0,-16384.0,-204.0,-53.0,-870.0,0.5852835006992435,-0.23613766162681266,-0.666692566144752,0.3964886515626705
-2510.4898059368134,404.0,-2448.0,-16376.0,319.0,-36.0,574.0,0.5687697547903819,-0.25167292423397447,-0.6448212704302836,0.444260322833228
-2510.505372285843,-252.0,-2540.0,-15972.0,400.0,-311.0,219.0,0.5507375806480214,-0.2319246241024335,-0.6394133838142959,0.48378674082291756
-2510.520963907242,-644.0,-3216.0,-16208.0,315.0,-681.0,54.0,0.5155403260608628,-0.19074880881315415,-0.6565493690286353,0.5165036206741663
-2510.536556482315,408.0,-2416.0,-16188.0,376.0,-643.0,1986.0,0.388679665570268,-0.254391398896839,-0.6250791641325947,0.6272871529903914
-2510.5521216392517,420.0,-1652.0,-16568.0,368.0,-121.0,3347.0,0.19851984292908556,-0.4009750240234997,-0.5132442317155559,0.732386005248239
-2510.5677285194397,-400.0,-1508.0,-16412.0,500.0,-458.0,1370.0,0.10694593321233682,-0.42083239478049805,-0.4376162784621527,0.787371993213874
-2510.5833163261414,-420.0,-1324.0,-16084.0,43.0,-955.0,-631.0,0.1148192620608063,-0.32925734847629406,-0.4646326393567071,0.8139549410001714
-2510.59889292717,100.0,-1304.0,-15992.0,233.0,-786.0,-1186.0,0.172510323629301,-0.22141027356410573,-0.486434752914561,0.8274049251476158
-2510.6144649982452,12.0,-1408.0,-16348.0,227.0,-557.0,-1145.0,0.2344063243280583,-0.12846806187911688,-0.49765281344688456,0.8251613838882867
-2510.630049228668,84.0,-1788.0,-16772.0,-319.0,-635.0,-1206.0,0.2879055246379017,-0.03669271351114634,-0.5433609290753634,0.7877327937902049
-2510.6456422805786,24.0,-2680.0,-17056.0,-306.0,-737.0,271.0,0.23265239249303146,-0.0065813726811182974,-0.5807395141148551,0.7801097144290299
-2510.66122841835,92.0,-2460.0,-16452.0,165.0,-605.0,2307.0,0.044030860842601986,-0.07730619696116538,-0.5684904616853658,0.8178652885271636
-2510.676852941513,-132.0,-1624.0,-15824.0,182.0,-196.0,2411.0,-0.1335882556194979,-0.1783106605751973,-0.5285467441111066,0.8191445693986652
-2510.6924476623535,-400.0,-968.0,-15884.0,64.0,50.0,944.0,-0.19706259227277467,-0.22548787058970937,-0.5083912133069634,0.8073784299669681
-2510.7080709934235,92.0,-852.0,-16268.0,-534.0,719.0,-581.0,-0.13410236654980795,-0.240241761446007,-0.5675944005736165,0.7759749015145643
-2510.7236557006836,-660.0,-2160.0,-16488.0,377.0,98.0,-272.0,-0.10279743251748039,-0.23770650046876685,-0.5486891408547345,0.7949015877520937
-2510.73926448822,-304.0,-1352.0,-16220.0,91.0,42.0,-1651.0,0.015495230195526824,-0.16081650787514665,-0.5713249516363513,0.8046649913310205
-2510.7548339366913,-240.0,-2580.0,-16012.0,105.0,247.0,-1292.0,0.11921687030914078,-0.11292367759558435,-0.5781834910570733,0.7992117563831486
-2510.7704412937164,-160.0,-3552.0,-16364.0,266.0,-204.0,400.0,0.08353539630771796,-0.11604154885365432,-0.5574969941004561,0.8177733781875719
-2510.7860412597656,208.0,-2556.0,-16364.0,565.0,104.0,3249.0,-0.13218206490836729,-0.26662472301561674,-0.46490746038870917,0.8338466358199971
-2510.8016107082367,-420.0,-2132.0,-16520.0,745.0,229.0,3326.0,-0.33305610222485393,-0.4091518590892729,-0.32219788372491986,0.786038747580399
-2510.8171837329865,-552.0,-1340.0,-16344.0,912.0,101.0,1285.0,-0.38211022309594744,-0.474444025667247,-0.214857485075206,0.7633681320446771
-2510.8327548503876,-920.0,-1544.0,-15464.0,875.0,317.0,-1966.0,-0.20521332662859,-0.4795487886825324,-0.24431445102908608,0.8174539123800801
-2510.8483419418335,-896.0,-2412.0,-15884.0,1356.0,30.0,-1620.0,-0.031665990555851134,-0.4638440326362391,-0.2124939405907798,0.8594721075416412
-2510.863965034485,404.0,-1908.0,-16152.0,1025.0,629.0,-309.0,0.04443159010756736,-0.5054028169081817,-0.1491397287044191,0.8487350397996776
-2510.879591703415,-56.0,-2336.0,-16992.0,1415.0,656.0,1184.0,0.027302897042086053,-0.5561084150832615,0.010162064796273693,0.8305990097067105
-2510.8951864242554,-164.0,-2100.0,-17544.0,1410.0,698.0,1632.0,-0.02272412954816474,-0.5907132848574349,0.18952175955512485,0.7839789102293164
-2510.9108130931854,-144.0,-1940.0,-18128.0,1756.0,1208.0,1849.0,-0.0763702705240764,-0.6277376786535724,0.3909389820781762,0.6687897284426424
-2510.9264810085297,36.0,-1224.0,-16544.0,2751.0,1863.0,1641.0,-0.08083126090168342,-0.6650481262458373,0.598516734977685,0.4392664510175988
-2510.942075252533,1828.0,460.0,-15836.0,2428.0,4248.0,2816.0,-0.24193114048502462,-0.6260921853227727,0.7401312485230831,0.041032105734806826
-2510.957675218582,-760.0,-2496.0,-17524.0,4322.0,5548.0,5099.0,-0.3044792611214612,-0.325051962708996,0.7308558159930388,-0.517187951633744
-2510.973311185837,-2408.0,-988.0,-18996.0,6328.0,3739.0,137.0,-0.300610831472937,-0.2658042968730884,0.29460151462841916,-0.8672895429691251
-2510.9889690876007,2432.0,100.0,-19372.0,4436.0,9600.0,2862.0,-0.16473961958293457,0.3019985205474704,-0.16364858623565937,-0.9245955286231267
-2511.0045766830444,-4016.0,-5416.0,-21640.0,12533.0,6290.0,12697.0,0.32082333881909253,0.23227587905243788,-0.8289412257565966,-0.39493891365695805
-2511.0201597213745,-3496.0,4572.0,-21916.0,12709.0,6661.0,5340.0,0.4367239252163115,0.2585217102511267,-0.7123368474281787,0.4847834096465901
-2511.035751104355,-4020.0,3140.0,-21600.0,9568.0,7569.0,-3750.0,0.5678490852065647,0.3582366777485679,0.043680447805585686,0.7398012690075896
-2511.051331758499,-2188.0,2688.0,-20000.0,9112.0,6004.0,-3900.0,0.35986982602860235,0.28656450185502375,0.7393023108242083,0.49173833265336464
-2511.0669288635254,-660.0,3628.0,-18264.0,8252.0,5993.0,4002.0,-0.2926908477901014,0.3951821986704336,0.854042292424939,0.16963154253696067
-2511.082550764084,-8004.0,6584.0,-17100.0,7575.0,2822.0,15909.0,-0.5400891657729536,0.7271318122008753,0.186663756541411,-0.3804466620881237
-2511.098177433014,-12060.0,10576.0,-14544.0,279.0,878.0,5849.0,-0.3354886095722612,0.7449228273255806,-0.20901167812164548,-0.537449060456252
-2511.113807439804,-10680.0,8592.0,-14696.0,-4754.0,-1541.0,4220.0,0.12470702993591982,0.6382659295903838,-0.18708417397950788,-0.7362501420407945
-2511.1294009685516,-8676.0,7508.0,-15172.0,-6161.0,-3856.0,7367.0,0.651796275770135,0.15101284585219144,-0.18083462312068638,-0.7208713993221009
-2511.1449909210205,-8768.0,6448.0,-15512.0,-9165.0,-6048.0,3732.0,0.6409912907583453,-0.5689211755496644,0.0017128665482879415,-0.5152241524534016
-2511.160584926605,-7556.0,5056.0,-16772.0,-11343.0,-8023.0,417.0,0.062058832537012845,-0.994945320747417,0.05322799579938006,-0.05830343463419294
-2511.1761832237244,-4844.0,2520.0,-18116.0,-11893.0,-8741.0,1377.0,-0.5645139577229189,-0.6710680264562056,0.11372098924272957,0.46696812740254023
-2511.1918284893036,-3572.0,512.0,-18664.0,-11993.0,-9482.0,1700.0,-0.7419825383368189,0.1928378998546708,0.11452208699452099,0.6317912224566835
-2511.207453250885,-2980.0,-828.0,-18824.0,-12880.0,-10688.0,406.0,-0.24889726139839538,0.9151512271482207,0.05064855247918677,0.31302253728645096
-2511.2230639457703,-2020.0,-2100.0,-18864.0,-13091.0,-11513.0,2563.0,0.4238675691540055,0.8315163929726368,-0.14259322147506862,-0.3295207811756524
-2511.2386779785156,-1544.0,-2928.0,-18252.0,-12988.0,-11757.0,5259.0,0.727970418558771,-0.02776262293284125,-0.31094307729440374,-0.6104119176047786
-2511.254255771637,-1488.0,-2480.0,-17752.0,-13742.0,-11352.0,4895.0,0.3410475412738898,-0.8632398484038721,-0.15201549000392317,-0.33969814470727
-2511.269838809967,-1392.0,-2756.0,-18160.0,-14672.0,-11440.0,898.0,-0.4660361438992945,-0.8650439350566766,0.005291436654677313,0.18569142063990438
-2511.285507917404,-204.0,-2640.0,-18556.0,-16236.0,-10426.0,-4275.0,-0.8113604443214981,-0.01900681153443669,-0.07852001973472081,0.5789365915249911
-2511.3011436462402,1016.0,-3572.0,-19816.0,-15496.0,-10470.0,-5052.0,-0.3327120735183216,0.8358889941441148,-0.06553946169999467,0.4316211817832322
-2511.3167457580566,2436.0,-3556.0,-19668.0,-14578.0,-9114.0,-4326.0,0.4568038012576315,0.8832970984170849,-0.01871557642903612,-0.10376054299908839
-2511.3323318958282,976.0,-3256.0,-18328.0,-13645.0,-9405.0,-3879.0,0.8142867389182804,0.1455801072572602,0.016152186646564443,-0.561678418723144
-2511.347965478897,-768.0,-1764.0,-16860.0,-13906.0,-9190.0,-5959.0,0.3868363184493209,-0.7071667977291487,0.06553856845758334,-0.5881985030264932
-2511.363568544388,-2272.0,-2680.0,-16388.0,-13876.0,-9253.0,-4123.0,-0.3485819727923053,-0.9289581646308791,0.11710180931508007,-0.04259698187651069
-2511.3791654109955,-1732.0,-3172.0,-15460.0,-13708.0,-7691.0,-6971.0,-0.7802796778043459,-0.33934361583677947,-0.09046321573207952,0.5175190251534506
-2511.394818544388,-2296.0,-2212.0,-16168.0,-15158.0,-7286.0,-12708.0,-0.3403910540191001,0.5358697097310651,-0.31304478923712786,0.7063855494473203
-2511.410439491272,-2072.0,-3700.0,-16424.0,-13249.0,-10255.0,-11823.0,0.3550410252386062,0.9193448823652663,-0.13289063448792923,0.10531351732664336
-2511.4260325431824,2516.0,-1940.0,-15460.0,-10662.0,-8010.0,-7581.0,0.7104024149635174,0.4492725992161248,0.07727718006611849,-0.5362003150396487
-2511.4416258335114,3272.0,-2032.0,-16004.0,-7450.0,-4084.0,2607.0,0.9103786731645004,-0.1469030074967928,0.05572458713882106,-0.3827857732777551
-2511.4572038650513,-164.0,-1168.0,-15304.0,-3091.0,-2258.0,9434.0,0.8946641459465792,-0.3156949954255954,0.07524371316410589,0.30700345185386596
-2511.4727897644043,-3052.0,1228.0,-14352.0,-3060.0,-1903.0,5705.0,0.5772420020372339,-0.401900105371635,0.001746674267404587,0.7108198966794037
-2511.488401412964,-3584.0,84.0,-15228.0,-2831.0,-2265.0,6314.0,0.07305920581923284,-0.3404368493183059,-0.056091212841062936,0.9357450934486948
-2511.5040514469147,-2744.0,-1608.0,-15340.0,-444.0,-2300.0,11276.0,-0.615180656704313,-0.1487993157186886,0.16075349009357492,0.7573439368485332
-2511.5196630954742,-1500.0,-768.0,-14468.0,1877.0,-787.0,16297.0,-0.9480323812703016,0.017622845408362297,0.30833287686338223,-0.0765171642693635
-2511.5352935791016,-3336.0,-436.0,-14032.0,2868.0,-974.0,16808.0,-0.45343239859442236,0.12601185327154757,0.19176358210917221,-0.8612472358833075
-2511.550872325897,-6812.0,1260.0,-13516.0,1591.0,-2200.0,8686.0,0.17133498483725249,0.033972812749788486,0.049922049024856786,-0.9833605442490796
-2511.566458463669,-6136.0,2096.0,-13520.0,-1931.0,-1140.0,-1225.0,0.07507798176232916,-0.09539481908613096,0.1973891585108596,-0.9727798544626602
-2511.582039117813,-4376.0,640.0,-13936.0,-1866.0,-1473.0,-2201.0,-0.09804804422677986,-0.26028205691380757,0.3157481154520209,-0.9071620359453532
-2511.5976552963257,-3148.0,1192.0,-13996.0,-1176.0,-570.0,-2166.0,-0.27390353879035617,-0.34681983643401443,0.35619150935819155,-0.8232985249319573
-2511.6132538318634,-4656.0,1564.0,-13924.0,-1328.0,-712.0,-5411.0,-0.611216781380405,-0.48002683165761406,0.2738969985907604,-0.5665410145882679
-2511.6288759708405,-4420.0,2000.0,-13836.0,-1851.0,-349.0,-9029.0,-0.877698797358928,-0.4787669383722691,0.0045441392698271285,-0.020159132784713627
-2511.644491672516,-3296.0,1212.0,-13928.0,-1251.0,-142.0,-9134.0,-0.7368945111421504,-0.3015916733947202,-0.2836444914492271,0.534391938990525
-2511.6600954532623,-1976.0,544.0,-13792.0,595.0,451.0,-4932.0,-0.440081968711432,-0.21916296112611455,-0.3804172687192221,0.7833122997538787
-2511.6757085323334,-1052.0,912.0,-14112.0,2289.0,1691.0,740.0,-0.3784285931090211,-0.43335613875324963,-0.2663431025882343,0.7733405515205279
-2511.691314935684,-1616.0,1192.0,-14600.0,3161.0,2497.0,2266.0,-0.32802092378509357,-0.7040207140750321,-0.046288467758211584,0.6281834807323833
-2511.706897497177,-2112.0,1348.0,-14052.0,2494.0,2737.0,-4463.0,0.07226590245271924,-0.8097937146495852,-0.23385164891652815,0.5332215162160483
-2511.7224984169006,-3120.0,472.0,-14620.0,798.0,2541.0,-5964.0,0.3978429913472719,-0.6962868405305022,-0.5231404166268003,0.2884955709043785
-2511.7381467819214,-2420.0,-732.0,-15388.0,3062.0,2090.0,-2491.0,0.6911838491928485,-0.49295041713901605,-0.4891280808896653,0.20004622801397948
-2511.753718137741,-2296.0,1260.0,-15604.0,3808.0,3581.0,-1258.0,0.9322114082159494,-0.24649678517542412,-0.23622903830496533,0.12007109040784412
-2511.7693388462067,-1604.0,1536.0,-15280.0,2278.0,3689.0,-5513.0,0.9510136127587019,0.0116014164091034,-0.02647257381538325,-0.3077949290039285
-2511.7849605083466,1264.0,-1360.0,-16540.0,799.0,5357.0,-11364.0,0.4425223180734772,0.1668537163525732,0.27459729405787925,-0.8372157197773474
-2511.8005430698395,8040.0,-1368.0,-19756.0,4723.0,2906.0,-5938.0,-0.1059522637397314,0.34201354347815943,0.10480204678309527,-0.9278024492724803
-2511.8161232471466,392.0,32767.0,-32768.0,30688.0,7749.0,32767.0,0.38060972770938367,0.24038126348754046,-0.8365830066964236,-0.3122210054494962
-2511.83176612854,-32768.0,15452.0,-6712.0,-7498.0,14929.0,-32768.0,0.21855022134921545,0.8299936799949152,0.1639469227473996,-0.48627944480346397
-2511.8473613262177,-19036.0,-12672.0,-11604.0,-32768.0,-12424.0,-32768.0,0.3203252843799564,-0.18377470820922134,0.8574665754269889,-0.3582870927552757
-2511.862952709198,32767.0,-32768.0,-32284.0,7692.0,2412.0,29183.0,0.41609352447780246,0.8107872641884395,0.4079327814624557,-0.0555070889686217
-2511.8785905838013,19804.0,1748.0,-14752.0,31779.0,26607.0,32767.0,-0.5555454768936535,0.690955274324961,-0.23280999566241523,0.39968679976349913
-2511.894203901291,-29696.0,3392.0,-11092.0,23377.0,5675.0,32767.0,-0.8119677463599553,-0.3544001087283673,-0.4526824436806415,-0.10093337895750654
-2511.9098176956177,-17248.0,26000.0,-10276.0,-178.0,8552.0,-32768.0,-0.24623416766737438,0.3294094714171181,-0.6636937122556629,0.6247949992806822
-2511.9255170822144,-4860.0,5892.0,-15944.0,-11407.0,2871.0,-32768.0,0.63612244267711,0.724035392323317,-0.12676989006439016,0.23462818151021358
-2511.941155433655,9612.0,-3760.0,-18552.0,-2543.0,1615.0,-19816.0,0.6056432251114122,0.3817958596949589,0.5771422529132146,-0.3928549672572482
-2511.956754922867,9888.0,-2964.0,-16896.0,4775.0,9448.0,14357.0,0.25004089587244727,0.9086630835352278,0.23484676295855186,0.23802930269075157
-2511.9723393917084,-6948.0,-540.0,-15748.0,8400.0,4264.0,15136.0,-0.4422984575298482,0.710275704698718,-0.37732109350182863,0.39687440101377275
-2511.988146543503,-11172.0,7260.0,-12976.0,-1979.0,4431.0,-21351.0,0.26242428642852755,0.6196189732499732,0.3276190812628159,0.6632281353151686
-2512.003819465637,-5864.0,-548.0,-15516.0,-5381.0,3944.0,-22763.0,0.7647488367786838,-0.16642151434582184,0.5817954163444319,0.22130790706412293
-2512.0194437503815,736.0,-4576.0,-16884.0,635.0,7352.0,-2248.0,0.36820951194047064,-0.3154325486633599,0.8727874039896678,-0.05626908562677982
-2512.0350499153137,-2708.0,-3464.0,-18440.0,5259.0,6936.0,9118.0,0.019630971590979745,0.39145945599180804,0.8885003511780695,-0.23862364766602465
-2512.050642967224,-4196.0,1840.0,-16724.0,4006.0,6131.0,2206.0,-0.45459773322663694,0.5798479187534906,0.6157381181842178,-0.2792559075067299
-2512.066225528717,-2484.0,2384.0,-16056.0,1328.0,5386.0,-4945.0,-0.7815750835586551,0.3296041992717137,0.5202487618531839,0.09921031384368617
-2512.081799507141,1572.0,1088.0,-15924.0,1383.0,5595.0,-1740.0,-0.9385831542301966,0.09558409196624526,0.17787213488061748,0.27979786916861105
-2512.0974354743958,-108.0,-2344.0,-16364.0,2004.0,3902.0,2957.0,-0.9879232784003801,-0.10686794475881986,-0.10645467099680286,0.03541527072653068
-2512.113018512726,356.0,196.0,-17104.0,765.0,4560.0,4295.0,-0.8335292092306025,-0.19887856838042958,-0.4006059836215501,-0.32433195692834205
-2512.128623485565,-3540.0,-708.0,-17272.0,227.0,3779.0,2070.0,-0.5977611924946916,-0.16926082527500658,-0.6047717227080717,-0.49828053663298866
-2512.1442408561707,-2428.0,-1364.0,-16444.0,50.0,4257.0,1232.0,-0.2971776331241451,-0.0483170877810176,-0.7564167549712256,-0.5806759907193453
-2512.1598505973816,-1816.0,-1028.0,-16592.0,595.0,3631.0,466.0,-0.02976455000259817,0.08514860402806225,-0.8362318747781928,-0.5409066817854666
-2512.175439596176,-816.0,980.0,-16908.0,957.0,3296.0,1043.0,0.24132404907113095,0.1547452035901594,-0.8568603919051391,-0.42849375035107073
-2512.191097974777,-248.0,1784.0,-16424.0,1074.0,3135.0,742.0,0.46867931370480503,0.22928833822446532,-0.8065120291764012,-0.2780375975533164
-2512.2066848278046,844.0,2120.0,-16864.0,1597.0,2256.0,3193.0,0.6312361289698843,0.11698905977807283,-0.7666568386128869,0.009581293412254967
-2512.2222690582275,1664.0,4540.0,-15444.0,1616.0,2919.0,943.0,0.7743859714438053,0.1345509644578188,-0.5880512778324554,0.19083526884232097
-2512.2378437519073,-1248.0,2012.0,-15448.0,441.0,1912.0,-3355.0,0.8741382374754615,0.28863786119871077,-0.39050740084074537,0.008631150243927547
-2512.25342464447,-1120.0,276.0,-15700.0,862.0,1535.0,-4941.0,0.8258945136816565,0.47446817108809386,-0.13504885352473578,-0.27302017151945707
-2512.2689957618713,-188.0,-1188.0,-17116.0,665.0,2527.0,-2578.0,0.7300057272560413,0.5840195999190623,0.13133384590125904,-0.3297941266980673
-2512.284571647644,-1188.0,-2800.0,-17428.0,2048.0,1727.0,2688.0,0.6483336878170319,0.7548799122637505,0.0432010978092747,-0.08918190651871674
-2512.3001561164856,-1900.0,-1516.0,-16220.0,2174.0,2318.0,3390.0,0.4841900839534785,0.8422544935189161,-0.0610222337789845,0.22900571550278045
-2512.3157861232758,-1564.0,-1248.0,-15912.0,1772.0,2062.0,2937.0,0.28886650297135835,0.8123249815716398,-0.14572735890640684,0.48522964114107536
-2512.331366300583,552.0,-996.0,-16768.0,1385.0,2468.0,4773.0,0.017827475932991797,0.6140349012020533,-0.326959475560748,0.7181509747599621
-2512.3469636440277,220.0,-280.0,-17032.0,2372.0,1758.0,6201.0,-0.3840659926901994,0.28378198730508414,-0.43572290524198704,0.7629591383472323
-2512.3625893592834,-496.0,984.0,-16068.0,2017.0,1731.0,3366.0,-0.5546906514558649,-0.02521330248237024,-0.414954068625377,0.7207604952386377
-2512.3781883716583,-992.0,424.0,-15820.0,1260.0,1574.0,-341.0,-0.4660352771770236,-0.1702111395825641,-0.4065168923698317,0.7671918303830629
-2512.393800973892,88.0,-336.0,-16696.0,487.0,1619.0,-1217.0,-0.31464472454037357,-0.2512188631786341,-0.4507087376781422,0.7967116252965829
-2512.4094018936157,96.0,-1180.0,-17116.0,943.0,1505.0,1154.0,-0.30968861971853123,-0.42013560581109,-0.39473519266143187,0.7561502226549442
-2512.4250013828278,64.0,-436.0,-15640.0,866.0,1729.0,79.0,-0.2203854383276732,-0.5526949743657011,-0.37626915965974417,0.7101971862609472
-2512.440578222275,-952.0,-500.0,-15592.0,289.0,1642.0,-1952.0,-0.030725646990234043,-0.5816814086024261,-0.4724931808306027,0.6614021980398224
-2512.4561483860016,-364.0,-796.0,-16828.0,-399.0,1745.0,-2134.0,0.14007273303046489,-0.5766864305668554,-0.5914181994776604,0.545927562583204
-2512.4717869758606,412.0,-1924.0,-16928.0,-216.0,1411.0,-438.0,0.220971719557201,-0.6188115157123328,-0.6015454535111876,0.4542982220279523
-2512.4873559474945,1060.0,-440.0,-17028.0,1336.0,1144.0,2300.0,0.25391050809949234,-0.7361349229708596,-0.39018846470208046,0.49131231520569235
-2512.5029349327087,224.0,872.0,-15928.0,476.0,1737.0,-1490.0,0.3991632662298937,-0.7343552776992681,-0.4184674851455254,0.35535331275210214
-2512.51851439476,-656.0,-480.0,-15764.0,-488.0,441.0,-4274.0,0.48306075227492984,-0.5698764883956379,-0.6476292406105144,0.14989817974773353
-2512.5341460704803,1764.0,-432.0,-16948.0,-180.0,256.0,-2258.0,0.5078963198142801,-0.4445863811672153,-0.7371685680909307,0.03109308956210111
-2512.549740552902,1632.0,512.0,-17884.0,1093.0,879.0,449.0,0.6004331810006021,-0.4240147301729737,-0.6724711405595318,0.0864526972650424
-2512.5653443336487,104.0,384.0,-16592.0,114.0,602.0,-2818.0,0.6410021887597026,-0.24953594550694183,-0.7220084173007555,-0.07451074588329426
-2512.5809416770935,-716.0,-1032.0,-16048.0,-436.0,-1021.0,-4534.0,0.4977250618623931,0.004657600550461538,-0.8105294756895023,-0.3086908463004528
-2512.596554994583,1168.0,-876.0,-16492.0,-414.0,-1192.0,-1897.0,0.355305250688022,0.0870224180408716,-0.8342293731037195,-0.41260953775066456
-2512.6121497154236,2028.0,-672.0,-16288.0,-404.0,405.0,1314.0,0.4316622712932451,-0.006535536139609122,-0.8109748018652911,-0.3948985199375614
-2512.6277511119843,-440.0,-1284.0,-16772.0,750.0,749.0,4002.0,0.5857670891247159,-0.2216862334069497,-0.7585260208644823,-0.1799177781312658
-2512.643338918686,-724.0,324.0,-16628.0,915.0,-203.0,568.0,0.5959759037445939,-0.2147701716817282,-0.7689627693142973,-0.08592295921406977
-2512.6589076519012,312.0,616.0,-16460.0,285.0,-317.0,-2589.0,0.546228510121658,-0.02791423746380905,-0.8151975959023647,-0.190546817638325
-2512.6744759082794,1128.0,640.0,-16428.0,519.0,-390.0,-2560.0,0.4647364335976145,0.16804129175574056,-0.8271474524681388,-0.267599072172345
-2512.690057992935,1176.0,-736.0,-16040.0,148.0,-253.0,-1195.0,0.4137899773062697,0.2529563536360799,-0.8188053577264174,-0.30716237398895174
-2512.705630302429,1104.0,-1748.0,-15784.0,706.0,-284.0,1563.0,0.4148486744059899,0.15737570655082408,-0.8726482039071198,-0.20400631497309016
-2512.7212023735046,1508.0,-828.0,-15636.0,728.0,1499.0,4022.0,0.5518786039615796,-0.0896099247436133,-0.8289292423377016,0.016624652607063976
-2512.7367577552795,-1212.0,-968.0,-16260.0,1320.0,871.0,1872.0,0.6084746432783467,-0.15915728315358205,-0.7535832723834408,0.1911539151843985
-2512.7523646354675,-1880.0,-428.0,-16324.0,498.0,-74.0,-5845.0,0.6300229027576246,0.2250759736226036,-0.7393373922148079,-0.07610629784519304
-2512.767994403839,-508.0,-1852.0,-16860.0,75.0,-679.0,-5379.0,0.4960330946538323,0.5168462889900557,-0.6071701127549811,-0.34375214434597123
-2512.7835791110992,1804.0,-2796.0,-16836.0,819.0,-465.0,-1103.0,0.39798870922720386,0.592163758521366,-0.5975047091532589,-0.3659715739797189
-2512.799155473709,1816.0,-2420.0,-16340.0,579.0,1468.0,4277.0,0.5398658907632052,0.405331890548389,-0.7304687346214319,-0.10327781095416423
-2512.8147695064545,-1716.0,-2408.0,-16304.0,1632.0,374.0,4930.0,0.5008561262389941,0.15603337085618785,-0.8212820386137604,0.2242599853708866
-2512.830358982086,-676.0,404.0,-16532.0,-3.0,388.0,261.0,0.5229182374784721,0.12953264572622783,-0.8074496626519369,0.24042223875266847
-2512.8459553718567,156.0,-684.0,-17228.0,-297.0,-23.0,-414.0,0.5325629804326095,0.14551229794476647,-0.809435886801337,0.20004096624867224
-2512.8615593910217,1684.0,-416.0,-16588.0,-247.0,-352.0,513.0,0.5007682986124645,0.1037962541520091,-0.8353708880408999,0.20152649488974755
-2512.877171278,1240.0,-756.0,-16056.0,-48.0,-443.0,2153.0,0.4230646224078244,-0.04659263478568951,-0.8595619253108286,0.2828404995869473
-2512.8927652835846,460.0,-544.0,-16100.0,-14.0,-975.0,1887.0,0.2979777167647036,-0.16183869623257496,-0.8734997032599049,0.3493075795316966
-2512.9083456993103,872.0,-360.0,-16380.0,-596.0,-638.0,2174.0,0.17094010947142213,-0.3170604262220841,-0.8598993522463004,0.3616977593297497
-2512.9240827560425,784.0,-736.0,-16292.0,-301.0,-312.0,2458.0,0.06009535275676364,-0.4848173245952324,-0.7876993192477288,0.3753271810114819
-2512.939747095108,-144.0,-300.0,-16344.0,387.0,-471.0,3672.0,-0.0724985538143661,-0.6846344988272607,-0.5918151649067774,0.41925454475382257
-2512.955333709717,-684.0,1012.0,-15956.0,-100.0,-76.0,1735.0,-0.14420238078225117,-0.7622061884764416,-0.48584720911112383,0.4027404735358463
-2512.9709346294403,-1172.0,12.0,-16084.0,-436.0,-222.0,-2214.0,-0.10271877688230839,-0.6427128225054631,-0.6334327897708449,0.41848773160749647
-2512.9865248203278,-276.0,-776.0,-16352.0,-344.0,50.0,-2882.0,-0.013490124635246063,-0.46747432653502274,-0.7834359959077654,0.4092845109260309
-2513.002170085907,176.0,-1568.0,-16408.0,451.0,14.0,-845.0,0.035955844179504245,-0.4093703744296292,-0.7991562787904248,0.43871666925081093
-2513.017797470093,308.0,-1140.0,-16572.0,563.0,191.0,327.0,0.05676333350586437,-0.4370194553563806,-0.7641252975660346,0.47106735105389475
-2513.0333802700043,-668.0,-1732.0,-16512.0,676.0,-79.0,613.0,0.05187912621506105,-0.4698852705544542,-0.7112314991733991,0.5202558441408304
-2513.04896068573,332.0,-980.0,-16484.0,160.0,157.0,1147.0,0.01601380713268488,-0.5447417493191559,-0.6529878710704402,0.5259342399622952
-2513.0645411014557,404.0,-1928.0,-16392.0,94.0,96.0,2230.0,-0.07496209336465624,-0.663693251327481,-0.5326524759581072,0.5197819663632471
-2513.0801248550415,16.0,-1816.0,-16428.0,356.0,-263.0,3523.0,-0.21616277362262365,-0.7813389356017203,-0.2969424359599888,0.5045872696954342
-2513.0957736968994,28.0,-1068.0,-16348.0,75.0,-158.0,3101.0,-0.3393252350821998,-0.8265040970552449,-0.07653365624190138,0.4425968389511504
-2513.111341238022,-368.0,-920.0,-16500.0,26.0,-471.0,1769.0,-0.40362792473465453,-0.8108066131688474,0.0651553558938776,0.4188459311183545
-2513.126975297928,100.0,-472.0,-16472.0,-174.0,-394.0,1193.0,-0.4543467158593406,-0.7789365511172559,0.1561470158716213,0.4030446880381552
-2513.1426169872284,-88.0,-492.0,-16288.0,-457.0,-424.0,433.0,-0.49359114569534335,-0.7385950330835839,0.18594914607571986,0.41984291475399305
-2513.158212184906,52.0,-692.0,-16344.0,-107.0,-413.0,150.0,-0.4987036807077491,-0.7160764786109761,0.20937443184433402,0.44123855556661207
-2513.173796892166,176.0,-524.0,-16496.0,298.0,-278.0,230.0,-0.48326859437963404,-0.7137515312465919,0.24717431552572566,0.44262294910438976
-2513.189411878586,392.0,-60.0,-16504.0,91.0,437.0,62.0,-0.4888595816986726,-0.7327625386636043,0.2360120741713052,0.4103336108071419
-2513.204991340637,-672.0,-1072.0,-16188.0,275.0,227.0,-432.0,-0.45972196824204337,-0.760808173251213,0.20835096280109644,0.40794179943917247
-2513.2205696105957,-176.0,-888.0,-16272.0,249.0,-200.0,-830.0,-0.4085743206999745,-0.7766271219597278,0.16966786122749372,0.44847536695741985
-2513.2361431121826,628.0,-1048.0,-16648.0,215.0,30.0,-16.0,-0.39357016549454654,-0.7857532794946965,0.1759371869988541,0.4435542974956449
-2513.25177359581,1208.0,-672.0,-16384.0,-128.0,993.0,1156.0,-0.45810350225831536,-0.7951717028646219,0.21429176168719286,0.33454773210267374
-2513.2673432826996,-1164.0,-1604.0,-16456.0,976.0,105.0,1889.0,-0.4397213943688614,-0.788603377651428,0.36347538666000234,0.22942417349404468
-2513.2829220294952,-796.0,-160.0,-16124.0,-492.0,14.0,-2217.0,-0.42118924154432763,-0.8244524577649222,0.19675179106154894,0.32274835461511797
-2513.2985582351685,-56.0,-1472.0,-16524.0,-351.0,-13.0,-1279.0,-0.40725190947309503,-0.8277964570386331,0.09472226404975063,0.37406764179502877
-2513.314158678055,668.0,-1064.0,-16416.0,345.0,-229.0,768.0,-0.4041323625361084,-0.8240259477660269,0.16913359954404747,0.359238216876432
-2513.329746246338,460.0,-460.0,-16328.0,-39.0,122.0,-738.0,-0.38457517039017236,-0.8357581142889479,0.11034040521984245,0.3760788583468537
-2513.3453509807587,20.0,-828.0,-16348.0,-579.0,98.0,-1804.0,-0.36339367917122695,-0.825856296703226,-0.04292374531828363,0.4290267628270801
-2513.3609449863434,-12.0,-1752.0,-16480.0,-244.0,54.0,-572.0,-0.35863602834171016,-0.816971001288443,-0.09488194660766577,0.44151556986926604
-2513.376534461975,-300.0,-1116.0,-16448.0,107.0,213.0,-214.0,-0.3406773196047221,-0.8266101934581377,-0.1126726019765227,0.4335428891607869
-2513.3921439647675,-144.0,-812.0,-16476.0,16.0,113.0,32.0,-0.33942277004911275,-0.8318075290646881,-0.11314565054539535,0.4243659735725106
-2513.4077808856964,-176.0,-812.0,-16612.0,97.0,35.0,-497.0,-0.3131386250898355,-0.8304289031600118,-0.14655617266945467,0.43686763043945936
-2513.423379421234,-60.0,-1076.0,-16416.0,-180.0,64.0,-442.0,-0.3080651259640206,-0.8217440030472124,-0.18707603206542112,0.44140143842920665
-2513.4389657974243,104.0,-1652.0,-16480.0,-78.0,-100.0,441.0,-0.3318338052471831,-0.8225075546793684,-0.1556992040807625,0.4348855091160861
-2513.4546296596527,220.0,-1456.0,-16364.0,236.0,-58.0,1618.0,-0.37312022046141374,-0.8407732004402899,-0.028681575375775707,0.39122767506681033
-2513.47021818161,-108.0,-1032.0,-16144.0,205.0,-32.0,1284.0,-0.3992301507144549,-0.8443243471693639,0.07308390096394025,0.34984343206273594
-2513.485794067383,-288.0,-912.0,-16436.0,-30.0,-292.0,817.0,-0.423092219924413,-0.8269642532600141,0.1421392326742067,0.34193498768673425
-2513.501413822174,-28.0,-632.0,-16548.0,-13.0,-137.0,993.0,-0.45002531694813486,-0.8071755585880485,0.2176672788080743,0.31395188717396
-2513.517002105713,-204.0,-1148.0,-16340.0,-1.0,-203.0,173.0,-0.4506268208568902,-0.7982498157346237,0.23777507338287962,0.32124089789722926
-2513.532604455948,180.0,-1188.0,-16244.0,59.0,-291.0,580.0,-0.4557771898492956,-0.7792942208297425,0.2908569499920566,0.31681209767899
-2513.548183441162,188.0,-912.0,-16240.0,-129.0,-82.0,1014.0,-0.48832858179947203,-0.7433622386264579,0.3581453343450836,0.2840417185358972
-2513.5638093948364,20.0,-1076.0,-16368.0,-53.0,-71.0,797.0,-0.507827100870585,-0.7128592972532601,0.41063675024064855,0.255579180084693
-2513.579424381256,-400.0,-1164.0,-16608.0,109.0,-196.0,9.0,-0.4938823001975943,-0.7130205446901978,0.42232146647239593,0.2632993645222712
-2513.595024585724,-308.0,-992.0,-16508.0,96.0,-197.0,64.0,-0.4817788092337369,-0.7102898534315419,0.43700361685270517,0.2690824073461052
-2513.6106452941895,-312.0,-1188.0,-16216.0,-314.0,12.0,-524.0,-0.48846380615867374,-0.716498090655694,0.3961780924505967,0.30178885867760746
-2513.62624168396,-96.0,-1776.0,-16520.0,-276.0,-336.0,223.0,-0.4992981553476244,-0.6877198943494006,0.4168897808793583,0.32240597013837935
-2513.6418216228485,460.0,-1512.0,-16552.0,18.0,-39.0,2181.0,-0.5481010076228499,-0.5974911441772083,0.5403914708400757,0.2248703544621361
-2513.657402038574,68.0,-928.0,-16288.0,185.0,237.0,2378.0,-0.5834246017662515,-0.48841582480264734,0.6428965899550239,0.08803232792811115
-2513.6729824543,-408.0,-456.0,-16228.0,510.0,-64.0,1491.0,-0.5639645290420526,-0.42633274451178976,0.707104905393944,-0.013676757921459552
-2513.6885640621185,-404.0,-244.0,-16292.0,-81.0,101.0,-960.0,-0.5720458006459143,-0.47985078980930884,0.6643065353229708,0.03469363932982175
-2513.7041490077972,-548.0,-932.0,-16492.0,-94.0,-23.0,-1762.0,-0.562416425513975,-0.5706183277753079,0.5846499338377734,0.1275419271552757
-2513.719782114029,428.0,-940.0,-16508.0,-109.0,-248.0,-720.0,-0.5456898696546492,-0.5980223121943846,0.5586410690891003,0.18031094309819629
-2513.7353661060333,532.0,-952.0,-16584.0,62.0,253.0,-596.0,-0.5442839831931706,-0.6331249040659851,0.5157722167577811,0.19205942286588784
-2513.7509479522705,1676.0,-264.0,-16304.0,-564.0,1312.0,1543.0,-0.649292141406025,-0.5498440600039473,0.5207093351649624,0.07037764601645023
-2513.766574859619,-2176.0,-1936.0,-16256.0,1163.0,-56.0,2018.0,-0.5909823403152193,-0.513339124530086,0.6153944035351805,-0.09226345300177285
-2513.782177209854,-1236.0,492.0,-16004.0,-709.0,172.0,-3486.0,-0.6300654669990067,-0.6328785538715801,0.43565455702624906,0.1126381386875862
-2513.7977981567383,-112.0,-1444.0,-16428.0,-49.0,-88.0,-1897.0,-0.6023119825946142,-0.6921652241602243,0.3308484886912543,0.22060565635741186
-2513.8133573532104,440.0,-944.0,-16516.0,462.0,76.0,-1736.0,-0.5363750740043852,-0.7589280347504864,0.22818944138193945,0.29027503664344523
-2513.8289370536804,168.0,-1196.0,-16112.0,-324.0,457.0,-1812.0,-0.513815626659442,-0.7809941447200835,0.07758218003387579,0.346442856838904
-2513.844544172287,-524.0,-2048.0,-16264.0,246.0,-27.0,-834.0,-0.4700692068006211,-0.7947651517447459,0.029305148560566027,0.382785191272898
-2513.8601315021515,332.0,-1176.0,-16400.0,-176.0,565.0,-1231.0,-0.43927954765987465,-0.8040696886706057,-0.08453059362197522,0.3916120446447065
-2513.875765800476,-408.0,-1584.0,-16724.0,565.0,307.0,371.0,-0.4089699952579126,-0.8373784475076219,-0.05088746234205253,0.3590979599007128
-2513.891389131546,-548.0,-660.0,-16324.0,305.0,365.0,-1151.0,-0.34672679258391675,-0.8497519771089657,-0.1376741136496219,0.37248885504758994
-2513.906980276108,-508.0,-664.0,-16624.0,25.0,97.0,-2048.0,-0.2725993923319231,-0.816251162205533,-0.2871396533129614,0.4206832906043396
-2513.922702074051,176.0,-1144.0,-16164.0,-4.0,254.0,-1996.0,-0.1901586319611147,-0.7639212949593018,-0.4290066220622052,0.4429641836821089
-2513.938307762146,872.0,-1604.0,-16324.0,-302.0,-250.0,-765.0,-0.18940325080659606,-0.7187171992702195,-0.48626113924582665,0.45948025040954255
-2513.953953027725,460.0,-1916.0,-16496.0,-66.0,146.0,2294.0,-0.2737300558278474,-0.8049025088312394,-0.340757536878881,0.401357831459532
-2513.969537258148,-212.0,-1192.0,-16144.0,45.0,222.0,2780.0,-0.35090911539483816,-0.8711281432740475,-0.145054062118807,0.3113805867287748
-2513.985143661499,-756.0,-800.0,-16400.0,-270.0,42.0,680.0,-0.3883564844774965,-0.8709845997165855,-0.10181341750672186,0.28319444916244624
-2514.000776052475,-188.0,-544.0,-16304.0,-287.0,67.0,-1257.0,-0.3758938427236395,-0.8465490099045512,-0.20544419587310184,0.3159925239845631
-2514.0163650512695,32.0,-616.0,-16280.0,-231.0,51.0,-1172.0,-0.3575595022899192,-0.8150982395624539,-0.29849339524451596,0.34448186480535514
-2514.031981945038,-136.0,-876.0,-16284.0,-211.0,130.0,-1467.0,-0.32215846801147763,-0.7679119039386731,-0.40986647064451415,0.37220250606247846
-2514.0475811958313,-228.0,-1232.0,-16512.0,-157.0,18.0,-1058.0,-0.2961763509155427,-0.723230798134465,-0.4843539982835277,0.39321493630697524
-2514.0631823539734,108.0,-1508.0,-16564.0,57.0,253.0,234.0,-0.28958237198386666,-0.7430509647747643,-0.4740490222934516,0.373222236805515
-2514.0788090229034,144.0,-1412.0,-16448.0,108.0,151.0,1100.0,-0.3104907092893794,-0.7925778480586158,-0.40121800851067796,0.33828979271990633
-2514.094441652298,-68.0,-1232.0,-16380.0,172.0,204.0,1645.0,-0.3362592960681931,-0.8520196774757931,-0.28497108510038216,0.28245997178092275
