programtime,ax,ay,az,gx,gy,gz,q0,q1,q2,q3
-717.9525392055511,2744.0,-644.0,16928.0,316.0,2495.0,-2724.0,0.951505088371794,0.02616715297730204,0.20686534498595796,-0.22618593225814823
-717.9681277275085,2640.0,-732.0,17024.0,163.0,2824.0,-2933.0,0.7936612975466701,0.039978392794675036,0.4189028653357604,-0.43934481025679595
-717.9853086471558,2304.0,-784.0,16992.0,-64.0,3055.0,-3128.0,0.5253659419012113,0.03576622153704767,0.6014089261095465,-0.6008483236915767
-718.0010631084442,2396.0,-1220.0,16692.0,-512.0,3223.0,-3315.0,0.17044671304485656,0.006734047776977966,0.7285292766631177,-0.6634362544038848
-718.0166683197021,2520.0,-1188.0,16848.0,-496.0,3187.0,-3346.0,-0.209152363439611,-0.026764572151925674,0.7473876074182023,-0.6300402453993273
-718.0323276519775,2624.0,-1252.0,16568.0,-654.0,3248.0,-3402.0,-0.5632495818290915,-0.053717345211035585,0.6614292368684946,-0.49231668670520706
-718.0479562282562,2584.0,-1524.0,16408.0,-824.0,3288.0,-3441.0,-0.8338068571946121,-0.06502214394974742,0.47814044863902644,-0.26817896462379887
-718.0635423660278,2364.0,-1564.0,16184.0,-919.0,3116.0,-3289.0,-0.9701095675787491,-0.05788131395413947,0.23554128669690227,-0.00758173121933181
-718.0791132450104,2260.0,-2316.0,15960.0,-900.0,2896.0,-3031.0,-0.9704827949268803,-0.03923196690274652,-0.023044533750494228,0.23683949625870104
-718.0946924686432,2228.0,-2448.0,16292.0,-999.0,2684.0,-2739.0,-0.861850109411709,-0.004067214782122098,-0.2648440441288111,0.43249910862386487
-718.1103127002716,2248.0,-2528.0,16392.0,-1130.0,2650.0,-2654.0,-0.6632133365747905,0.040072412556055995,-0.48025269695376765,0.5726251994192217
-718.1260015964508,2440.0,-2356.0,16236.0,-1245.0,2691.0,-2478.0,-0.4001253015534673,0.07727640213021282,-0.6532708249518496,0.6380950791201
-718.1416027545929,2452.0,-2036.0,15644.0,-1222.0,2808.0,-2240.0,-0.101602474093786,0.08666996192643757,-0.7634153578534398,0.6319511423766838
-718.1571960449219,2500.0,-2084.0,15864.0,-1118.0,2239.0,-1930.0,0.15668084601657245,0.09803121302465988,-0.8003679789683921,0.57030876900719
-718.1727914810181,2404.0,-2556.0,15608.0,-908.0,1818.0,-1683.0,0.3657142050726667,0.10981198856626287,-0.7856580816908162,0.486760542822749
-718.1883764266968,2492.0,-2344.0,15640.0,-766.0,1397.0,-1394.0,0.5193657631825818,0.11956659187118311,-0.7475049425946275,0.39648378899860043
-718.2040002346039,2592.0,-2292.0,15752.0,-535.0,1222.0,-1199.0,0.6384831142373821,0.12965437407985242,-0.6896056777362786,0.31618517572710986
-718.2195897102356,2800.0,-2112.0,15428.0,-286.0,929.0,-1062.0,0.7213698638082177,0.15078456897715398,-0.6286407610098121,0.24839550508149608
-718.2352519035339,2872.0,-1964.0,15680.0,246.0,670.0,-855.0,0.7699035513357357,0.19768522700981744,-0.5670576825319801,0.21590427819790736
-718.2508416175842,3020.0,-1856.0,15640.0,288.0,488.0,-660.0,0.7993272813501113,0.23974990953824327,-0.5158207227215623,0.19371334537622664
-718.2664523124695,3104.0,-2148.0,15452.0,652.0,124.0,-377.0,0.7959814630800467,0.29935825186331405,-0.4870417498807753,0.1989685436127062
-718.2820339202881,2824.0,-2172.0,15536.0,754.0,-363.0,-62.0,0.7599979885004001,0.3596148614453704,-0.4961051985244295,0.21670219403598429
-718.2976109981537,2548.0,-2212.0,15744.0,516.0,-986.0,240.0,0.6932594277591383,0.4000334438575579,-0.5564590419199547,0.22297521002133935
-718.3132038116455,2060.0,-1856.0,16016.0,679.0,-1645.0,562.0,0.5712863001504549,0.4399715717885098,-0.6537298418605789,0.22955233202756875
-718.3288571834564,1992.0,-1500.0,16512.0,760.0,-1958.0,709.0,0.40867049454317284,0.46792640617355863,-0.7494292683389155,0.22888660304249867
-718.3445003032684,1864.0,-1216.0,16844.0,342.0,-1821.0,772.0,0.2563110219193459,0.45899426817325556,-0.8264788884423431,0.20139902876098306
-718.3600924015045,2132.0,-1148.0,16884.0,345.0,-1324.0,700.0,0.13350970802411422,0.43557645525121164,-0.8702752675288759,0.18726790494275478
-718.3757181167603,2500.0,-1088.0,16264.0,380.0,-933.0,767.0,0.03545608242084209,0.3945811575624514,-0.8986205589335262,0.18849314941938694
-718.3913011550903,2640.0,-1180.0,16132.0,294.0,-868.0,785.0,-0.055355920535235276,0.3462770032946251,-0.9184206691534773,0.18311590188367083
-718.4068834781647,2628.0,-1184.0,16496.0,74.0,-839.0,872.0,-0.1380254101677014,0.28781234775066844,-0.9343181040166224,0.15862761152167137
-718.4224972724915,2536.0,-912.0,16840.0,-165.0,-797.0,690.0,-0.20755256775087977,0.24350617728485932,-0.940258750343753,0.11636217446462234
-718.4381413459778,2272.0,-704.0,16884.0,-284.0,-681.0,570.0,-0.26235863299015344,0.20809591153748094,-0.9398050107260846,0.06804837331683256
-718.4537174701691,2060.0,-516.0,16608.0,-197.0,-520.0,323.0,-0.3029163081821314,0.18889975745880147,-0.9334523772781257,0.03500358871786267
-718.4693517684937,2028.0,-536.0,15992.0,51.0,-482.0,499.0,-0.34396432026742335,0.14808880985426934,-0.9270568924657403,0.017993579707230787
-718.4849252700806,1984.0,-656.0,15832.0,214.0,-468.0,191.0,-0.38450985813629274,0.12679470276475394,-0.9140692766676035,0.023508079444518038
-718.500504732132,2300.0,-604.0,15848.0,296.0,-468.0,227.0,-0.42506663278866375,0.09956978761859651,-0.8990152663097797,0.034289444808145934
-718.5160510540009,2260.0,-688.0,16584.0,232.0,-572.0,254.0,-0.4719904909545266,0.0726157965709007,-0.8777838231349886,0.038045793189282966
-718.5316824913025,2212.0,-780.0,16640.0,163.0,-633.0,196.0,-0.5213189267709508,0.05288974682290309,-0.8508556895628498,0.038390712547705395
-718.5472869873047,2192.0,-832.0,16724.0,92.0,-596.0,197.0,-0.5658761033013385,0.03601370962225117,-0.8230232038517346,0.03346721311019624
-718.5628938674927,2256.0,-764.0,16164.0,121.0,-535.0,72.0,-0.6042770149191996,0.02639728664470359,-0.7954820354497314,0.03688907392292397
-718.5784819126129,2340.0,-708.0,16224.0,112.0,-560.0,240.0,-0.6433366306367246,0.0056205101011253785,-0.7649477292793154,0.030681607154916943
-718.5940871238708,2380.0,-540.0,16252.0,70.0,-605.0,-67.0,-0.6827005997568224,0.0077752189661428285,-0.7296273006283415,0.0387742084316806
-718.6096847057343,2420.0,-636.0,16484.0,61.0,-513.0,-147.0,-0.7142243506216054,0.015225517539422178,-0.6978883661272736,0.0510253762260219
-718.6253991127014,2532.0,-720.0,16612.0,104.0,-396.0,-63.0,-0.7378188057247749,0.01433745366275907,-0.6721079309382213,0.06073529872552237
-718.6410231590271,2236.0,-984.0,16696.0,72.0,-353.0,-7.0,-0.7583046674719737,0.01198213382608176,-0.6485458516001518,0.06495181391945225
-718.6566560268402,2204.0,-1180.0,16684.0,103.0,-367.0,58.0,-0.7791755333789293,0.003967100348598334,-0.6232513721982118,0.06653929178711918
-718.6722393035889,2088.0,-1168.0,16420.0,143.0,-348.0,134.0,-0.7985510256525538,-0.011011180535522018,-0.59829918025268,0.0650623104526723
-718.6878554821014,2004.0,-984.0,16252.0,173.0,-377.0,204.0,-0.8186669751701285,-0.03154508008067119,-0.5702319652639867,0.060206291030652455
-718.7034244537354,2076.0,-828.0,16000.0,243.0,-341.0,100.0,-0.8350088443193554,-0.05204181285497315,-0.5437718163016274,0.06606127019102417
-718.7190096378326,2276.0,-668.0,15904.0,286.0,-290.0,-72.0,-0.8466094622970082,-0.06773127828181369,-0.5208087045910064,0.08615791033747236
-718.7346441745758,2216.0,-644.0,16508.0,234.0,-363.0,-113.0,-0.8603254619347381,-0.0770692662861623,-0.4923445773580328,0.1072252063977122
-718.7502250671387,2192.0,-832.0,16464.0,165.0,-373.0,-173.0,-0.8730717147949802,-0.07843768266886643,-0.46342363361531025,0.1297376066114739
-718.7658293247223,2044.0,-892.0,16572.0,116.0,-403.0,-199.0,-0.8856942583983011,-0.07455887383870763,-0.4322113828551656,0.1522497142940269
-718.7814269065857,1812.0,-896.0,16416.0,85.0,-363.0,-220.0,-0.8953658676446781,-0.06790867344823286,-0.4039550431491614,0.17472463547466108
-718.7970230579376,2064.0,-804.0,16244.0,120.0,-252.0,-245.0,-0.8994221595518326,-0.06472034846392023,-0.38346359081988296,0.1995162397333811
-718.8126602172852,2180.0,-956.0,16196.0,144.0,-182.0,-286.0,-0.8993438982699589,-0.06319368265017852,-0.3678689074008757,0.2277269814611088
-718.828277349472,2264.0,-924.0,16348.0,181.0,-212.0,-352.0,-0.8975520407101579,-0.06177822547580058,-0.3490725046039236,0.26216821242026217
-718.8439314365387,2256.0,-1004.0,16548.0,125.0,-245.0,-327.0,-0.8963171231945907,-0.05589623385834297,-0.32831635658430225,0.2927449328474121
-718.8595342636108,2208.0,-1084.0,16400.0,122.0,-1.0,-292.0,-0.888031167727461,-0.05695447596725834,-0.32617824520158617,0.31900561933782745
-718.8751213550568,2168.0,-1052.0,16508.0,88.0,-220.0,-506.0,-0.8787978734411315,-0.043119654979350996,-0.30857957466879987,0.3614327587353278
-718.8907034397125,2216.0,-960.0,16228.0,109.0,-163.0,-278.0,-0.8736928150863497,-0.03876350323093274,-0.2933021491850126,0.386176261527308
-718.9062795639038,2212.0,-892.0,16332.0,132.0,-177.0,-248.0,-0.8691192031828904,-0.03642854196289128,-0.2758194255437889,0.40893571191801026
-718.9220123291016,2168.0,-948.0,16252.0,114.0,-173.0,-258.0,-0.8634141575950602,-0.032600152689415164,-0.2590751043042361,0.43166342541242536
-718.9376657009125,2284.0,-1048.0,16456.0,69.0,-193.0,-276.0,-0.8568537321950824,-0.024193606317846835,-0.2423385097552182,0.45440994457242573
-718.9533014297485,2520.0,-1112.0,16508.0,62.0,-86.0,-359.0,-0.8439057695622612,-0.017730579883429264,-0.23380748330006096,0.48253781135722085
-718.968891620636,2152.0,-924.0,16288.0,166.0,-104.0,-370.0,-0.8296835465564373,-0.0179369370101587,-0.2193028171765636,0.5130397189717855
-718.9847345352173,2128.0,-1276.0,16060.0,295.0,-98.0,-342.0,-0.8151623158095355,-0.028244386472714586,-0.1990915514136426,0.5432082544223016
-719.0003435611725,2248.0,-988.0,16264.0,299.0,-159.0,-213.0,-0.8066349553836103,-0.03814478797377779,-0.1737429446217153,0.5636474191353069
-719.0159769058228,2328.0,-1088.0,16544.0,203.0,-257.0,-210.0,-0.7990946352027238,-0.03644999145809798,-0.14600438819910655,0.5820669040063481
-719.03156042099,2232.0,-1088.0,16692.0,86.0,-512.0,-209.0,-0.7937994438723993,-0.01360338155279182,-0.10619346628461282,0.598682168296883
-719.047162771225,2172.0,-984.0,16728.0,53.0,-172.0,-192.0,-0.7851056886089454,-0.0063527464268717596,-0.09142995067126268,0.6125432755707636
-719.0627858638763,2048.0,-976.0,16612.0,164.0,-246.0,-150.0,-0.7786404688202697,-0.003083178120523911,-0.06557973927063598,0.6240262912131372
-719.078421831131,2132.0,-1012.0,16068.0,10.0,255.0,-151.0,-0.7687099532302762,-0.016590333603346243,-0.08210981620799909,0.6340881222022101
-719.0940036773682,2256.0,-1008.0,16016.0,15.0,-83.0,-152.0,-0.7607938054010525,-0.01171962003458853,-0.07566152503829528,0.6444616123544596
-719.1095778942108,2408.0,-924.0,16164.0,63.0,-4.0,-176.0,-0.7507663634975525,-0.014322977707145093,-0.0717585702099984,0.6565024199130403
-719.1251685619354,2368.0,-888.0,16688.0,56.0,-311.0,-18.0,-0.7513286857483197,0.00013560616463593802,-0.047917165258746175,0.6581862448093525
-719.1407670974731,2304.0,-916.0,16508.0,97.0,-259.0,-5.0,-0.7519035325938972,0.008878111342302658,-0.025101187137950752,0.6587352937379911
-719.1563565731049,2532.0,-1008.0,16500.0,156.0,-113.0,-289.0,-0.7353158680962951,0.006004984091995731,-0.00826149116251112,0.6776475942963412
-719.1719799041748,2244.0,-796.0,16500.0,59.0,-91.0,-280.0,-0.7186036273998351,0.008066639244190831,0.0014068008892529815,0.6953716825772825
-719.1875665187836,2272.0,-1112.0,16528.0,-250.0,-34.0,-182.0,-0.7071136714761237,0.026083122016004025,-0.011380778208496513,0.7065270017804158
-719.2031631469727,2144.0,-1196.0,16452.0,-15.0,42.0,-195.0,-0.6949005444897919,0.02487950983699286,-0.014262641597088342,0.7185337990051232
-719.2187974452972,2108.0,-788.0,16212.0,54.0,82.0,-131.0,-0.6866247616997486,0.016848002663562563,-0.015320666945917456,0.7266552542928073
-719.2344460487366,2176.0,-1260.0,16140.0,120.0,35.0,-114.0,-0.6794456422814933,0.007877106448136934,-0.009477528686027506,0.7336223461895769
-719.2500376701355,2192.0,-956.0,16372.0,94.0,-87.0,-92.0,-0.6736238107677571,0.008237875748368022,0.0019207991720317653,0.7390259870264511
-719.2656381130219,2284.0,-976.0,16464.0,251.0,-160.0,-184.0,-0.6615993653395401,0.004079006549002474,0.027745787765227858,0.7493329118283663
-719.2812361717224,2268.0,-968.0,16624.0,-41.0,-126.0,-270.0,-0.6434069020929138,0.014355881520712543,0.032402093123299794,0.7647035839893729
-719.2968673706055,2348.0,-948.0,16224.0,35.0,-70.0,-332.0,-0.6208291522027114,0.01644257073262119,0.039021511699632236,0.7828014609513966
-719.3124995231628,2332.0,-756.0,16292.0,74.0,-68.0,-324.0,-0.5983186590019756,0.016288942073712117,0.04812812567809263,0.7996456316237279
-719.3281199932098,2352.0,-876.0,16132.0,30.0,-102.0,-339.0,-0.5740153217324067,0.020706916172178173,0.05586666369682951,0.8166740781526406
-719.3437385559082,2440.0,-1080.0,16472.0,-255.0,-78.0,-376.0,-0.5459504266420031,0.03744735688091741,0.04205911171082457,0.8359227585334332
-719.3593266010284,2480.0,-1012.0,16448.0,29.0,-77.0,-357.0,-0.5194690718113385,0.04062979143888036,0.04880832389667475,0.8521260769378537
-719.3749170303345,2608.0,-900.0,16400.0,31.0,-48.0,-381.0,-0.4907835292224985,0.04141058649260233,0.05441130143980578,0.8685943247833676
-719.3904976844788,2492.0,-844.0,16196.0,252.0,-93.0,-474.0,-0.45483454720034006,0.03560477935916366,0.0788834120158264,0.886360672451451
-719.406081199646,2448.0,-816.0,16632.0,-17.0,-79.0,-579.0,-0.4089480353140577,0.03852432581151054,0.08211696586739067,0.9080386471127067
-719.4216802120209,2536.0,-932.0,16448.0,24.0,-67.0,-580.0,-0.3621466832648375,0.038931064945034434,0.0879613832977386,0.9271445124849046
-719.4373614788055,2484.0,-1040.0,16452.0,-14.0,-26.0,-590.0,-0.31377509205782933,0.037039019132375,0.08924224034341692,0.9445682215723225
-719.45294713974,2388.0,-1044.0,16544.0,19.0,-236.0,-763.0,-0.24852815298267567,0.050037587132250864,0.09919767509468354,0.9622316863961672
-719.4685442447662,2416.0,-1160.0,16324.0,58.0,79.0,-486.0,-0.20848913073730557,0.03798590998206683,0.10406747778691165,0.9717300618352339
-719.4841394424438,2388.0,-1056.0,16312.0,82.0,51.0,-442.0,-0.17163555461258453,0.02823605669168141,0.11116647566013697,0.9784610243564323
-719.4997625350952,2524.0,-952.0,16104.0,47.0,228.0,-469.0,-0.13380293835609472,0.0036361184992206126,0.11250730984636817,0.9845941588089319
-719.5153315067291,2588.0,-936.0,15944.0,74.0,-66.0,-479.0,-0.09195989141400233,0.003906937624935982,0.11940682044303755,0.9885697372675354
-719.5309824943542,2600.0,-928.0,16248.0,252.0,-23.0,-507.0,-0.048029545993546294,-0.001255410651284763,0.14105483178818204,0.9888352345486876
-719.5465748310089,2808.0,-876.0,16300.0,2.0,-73.0,-542.0,-0.00037936300928466903,-0.0014820962827596085,0.14103600617841214,0.9900032850630138
-719.5621657371521,2568.0,-988.0,16320.0,249.0,-56.0,-555.0,0.04820782306233307,-0.003342797443515042,0.16196564909494104,0.9856124796359351
-719.5777666568756,2480.0,-1148.0,16516.0,39.0,-95.0,-447.0,0.0879272178701407,-0.0012114430769539731,0.16436922994430342,0.9824714209638898
-719.593359708786,2440.0,-1344.0,16468.0,39.0,-38.0,-405.0,0.12311323566131525,-0.0033604689253572827,0.16697984363025245,0.9782379926555805
-719.608941078186,2428.0,-1324.0,16148.0,58.0,39.0,-287.0,0.1470067182943129,-0.010145669122128442,0.17191730200898178,0.974027993152329
-719.6245355606079,2412.0,-1260.0,16204.0,128.0,52.0,-157.0,0.15965298930753338,-0.015172887854717362,0.18300720491820463,0.9699428176069674
-719.6401481628418,2380.0,-1168.0,16100.0,70.0,-53.0,-91.0,0.16827970457438443,-0.011059382970872755,0.18777636754318922,0.9676257886543468
-719.6557838916779,2480.0,-1196.0,16156.0,39.0,-133.0,20.0,0.16878926358851598,0.0011726303753856952,0.188834792593299,0.9673935241366334
-719.6713712215424,2584.0,-1224.0,16308.0,40.0,-121.0,83.0,0.1637496123628339,0.013432832402946064,0.1901134917640186,0.9679165685708394
-719.6869518756866,2604.0,-1156.0,16372.0,29.0,-123.0,92.0,0.15796073697523816,0.025837558155874005,0.19038572404045875,0.9685732301919001
-719.7025537490845,2512.0,-1096.0,16260.0,100.0,-112.0,127.0,0.14882866563878325,0.03884781225483207,0.19668243921607062,0.968326852809117
-719.7181613445282,2520.0,-1080.0,16228.0,128.0,-148.0,114.0,0.14126201656478224,0.05500781330690072,0.20485339689498155,0.9669820416801087
-719.7338054180145,2492.0,-984.0,16296.0,164.0,-144.0,150.0,0.13034308427574193,0.07186802471703532,0.2158445902240038,0.965016466323653
-719.7494080066681,2460.0,-1140.0,16388.0,127.0,-138.0,167.0,0.11803968881169793,0.08806138225253278,0.22357722819537626,0.9634962625010455
-719.7649750709534,2472.0,-1148.0,16488.0,170.0,-85.0,179.0,0.10329867624926131,0.10041152618823938,0.23527235354862483,0.9611939599005966
-719.7805683612823,2444.0,-1156.0,16548.0,168.0,6.0,181.0,0.08648406798092867,0.10508733195158476,0.2474946220562362,0.9592828418678239
-719.796145439148,2540.0,-1172.0,16148.0,160.0,25.0,292.0,0.059986016724097285,0.11043748090851456,0.2580135542759124,0.9579322765300626
-719.8117825984955,2472.0,-1288.0,16204.0,131.0,-29.0,301.0,0.03417736078785706,0.1202470636348271,0.2655297058720671,0.9559636640564704
-719.8274004459381,2512.0,-1336.0,16412.0,100.0,-67.0,315.0,0.008373078144628168,0.13334259473613888,0.26998139371233304,0.9535510951388835
-719.8430037498474,2476.0,-1284.0,16296.0,40.0,-101.0,362.0,-0.019853302625879837,0.1501806568648133,0.26861275805211954,0.9512616900149674
-719.8586218357086,2444.0,-1148.0,16172.0,-18.0,-128.0,438.0,-0.05296615292930668,0.1709122776405201,0.2611315056723955,0.948574676417659
-719.8741989135742,2464.0,-1112.0,16316.0,-59.0,-127.0,441.0,-0.08566193488035653,0.19151620165706967,0.249797912130832,0.9452960279777332
-719.8898086547852,2596.0,-1124.0,16296.0,-11.0,-202.0,429.0,-0.11640229273001144,0.21733773004673057,0.24277456141799214,0.9382298916969297
-719.9053826332092,2712.0,-1164.0,16332.0,-1.0,-215.0,469.0,-0.15011806185048163,0.2445327989568414,0.23550638465815782,0.9285499558590435
-719.9210467338562,2712.0,-1256.0,16608.0,-48.0,-188.0,458.0,-0.1822149835209391,0.26942835915108027,0.22387384134987898,0.9187418365486953
-719.9367413520813,2620.0,-1228.0,16632.0,-79.0,-77.0,444.0,-0.21432560873236084,0.2851577849618728,0.2079545018242054,0.910771374324088
-719.9523198604584,2412.0,-1344.0,16352.0,9.0,-38.0,466.0,-0.2507371716821382,0.29605771539195663,0.1974291485005053,0.9002790851819799
-719.9679505825043,2340.0,-1360.0,16024.0,143.0,-108.0,433.0,-0.28640163600848095,0.30844600388302534,0.1994952701895778,0.8848936674834135
-719.9835522174835,2272.0,-1256.0,15980.0,219.0,-173.0,480.0,-0.32602386883924717,0.32413543145727247,0.20740124986771483,0.8634983384896621
-719.9991617202759,2388.0,-1192.0,16248.0,305.0,-272.0,547.0,-0.37035114976620975,0.3450724346931731,0.22210217440002564,0.8333280655351484
-720.014817237854,2360.0,-1516.0,16636.0,211.0,-332.0,656.0,-0.41711637011226466,0.3741189843834151,0.22776469848086398,0.7963492710075217
-720.030463218689,2324.0,-1308.0,16696.0,130.0,-366.0,688.0,-0.46087670841979567,0.40737011206538287,0.22698767385926297,0.7550621480036811
-720.0460686683655,2216.0,-1320.0,16772.0,74.0,-287.0,759.0,-0.5066326795049939,0.4370761343701405,0.21576100228788764,0.711150455749957
-720.0616478919983,2280.0,-1180.0,16580.0,96.0,-94.0,754.0,-0.5541617430349236,0.4516875918501708,0.19657453935289199,0.6710003967236436
-720.0773234367371,2424.0,-1032.0,16536.0,71.0,29.0,793.0,-0.6025210756089011,0.45887595594808067,0.16757770212801612,0.6311251256678992
-720.0929110050201,2404.0,-872.0,16448.0,67.0,89.0,673.0,-0.6425172580890938,0.45929389159812667,0.1393195059345234,0.5973363955632383
-720.1085183620453,2336.0,-980.0,16496.0,7.0,134.0,694.0,-0.6793972127155471,0.45928732522044374,0.10409535612181027,0.5627066172350111
-720.1240820884705,2276.0,-1080.0,16512.0,-87.0,90.0,655.0,-0.707781366210721,0.4649906455000484,0.06807453809111555,0.5274420295217424
-720.1397347450256,2180.0,-1128.0,16636.0,-80.0,137.0,599.0,-0.7319385889984339,0.46630068610993197,0.03155193327717366,0.4958165462899168
-720.1553189754486,2096.0,-1224.0,16180.0,-255.0,163.0,528.0,-0.7438975071079366,0.4761176738460293,-0.011371216794203814,0.46882742560420154
-720.170907497406,2224.0,-1300.0,15648.0,86.0,82.0,530.0,-0.7683008113994209,0.46592812055740696,-0.035137376034988614,0.43748167331010557
-720.1864941120148,2272.0,-1328.0,16004.0,162.0,57.0,588.0,-0.796115821894436,0.45023899132533873,-0.05656609226534312,0.4003557493349095
-720.2020826339722,2376.0,-1244.0,16256.0,236.0,-36.0,659.0,-0.8271358997418004,0.43083466478098686,-0.07152470062498362,0.3537116229103635
-720.2176809310913,2552.0,-1228.0,16292.0,307.0,40.0,642.0,-0.8566797977005142,0.40244324271790965,-0.08883077700249153,0.31023902665466435
-720.2333655357361,2520.0,-1180.0,16172.0,351.0,-54.0,720.0,-0.8868332371886861,0.37095856634029506,-0.10024012613893057,0.2566485312403711
-720.2489624023438,2680.0,-1028.0,16204.0,344.0,-225.0,809.0,-0.9152773169485338,0.3410151504950642,-0.10088024652443633,0.18920696623933064
-720.2645587921143,2624.0,-1184.0,15984.0,332.0,-430.0,837.0,-0.939290632294166,0.31282554434049714,-0.08550313098285173,0.11208256548021532
-720.2801508903503,2648.0,-1016.0,15648.0,420.0,-721.0,819.0,-0.9592397129657952,0.277667517575292,-0.04427690236350156,0.028275053845505556
-720.2957746982574,2772.0,-824.0,15604.0,542.0,-956.0,865.0,-0.9710548862533235,0.22935658011721724,0.016149054414739857,-0.06470838494344676
-720.3113534450531,3036.0,-728.0,15240.0,749.0,-1036.0,977.0,-0.9695985877274831,0.1595609114929107,0.07949399272175008,-0.16762935101460058
-720.326940536499,3096.0,-1068.0,15536.0,801.0,-1216.0,933.0,-0.9479575233502676,0.07925544650285586,0.15596363196091634,-0.2660271670879114
-720.342622756958,3164.0,-1060.0,16072.0,791.0,-1434.0,918.0,-0.9006385868115996,-0.007140148196798168,0.2464188398793719,-0.35787834466790147
-720.358208656311,3464.0,-800.0,16528.0,810.0,-1362.0,821.0,-0.835214665164208,-0.09457621395808238,0.3245008788146905,-0.4337867938244419
-720.3738169670105,3640.0,-888.0,16580.0,801.0,-977.0,699.0,-0.768481591397998,-0.16875395025063908,0.36801889768773105,-0.49549998880112284
-720.389404296875,3836.0,-1176.0,16236.0,848.0,-828.0,684.0,-0.6949637649779464,-0.2376783933504094,0.3939604626974759,-0.5525662860989952
-720.4050078392029,3608.0,-1332.0,16004.0,1020.0,-824.0,715.0,-0.6059426190139008,-0.3119511320520802,0.40598223980552844,-0.6088501085131601
-720.4206447601318,3428.0,-1488.0,15780.0,1204.0,-752.0,912.0,-0.4928028782149692,-0.37906633518876093,0.40212962460872653,-0.672120377433722
-720.4362771511078,3000.0,-1740.0,16232.0,1261.0,-1078.0,1181.0,-0.33870634361534674,-0.4479553533057035,0.4071061270740785,-0.7203322952209135
-720.4519009590149,3076.0,-1636.0,17100.0,1278.0,-1403.0,1423.0,-0.1463441648006036,-0.5124120230721227,0.4149779864038248,-0.7374351326321354
-720.4674942493439,3644.0,-1304.0,17548.0,646.0,-1243.0,1551.0,0.02694642075910876,-0.5355627164757258,0.45112128671477686,-0.7133975412084195
-720.4830820560455,3692.0,-1232.0,16676.0,512.0,-877.0,1652.0,0.18564770770628441,-0.5164929112876868,0.4873926413859599,-0.6791306312748592
-720.4986815452576,3368.0,-1680.0,15820.0,664.0,-854.0,1749.0,0.35002441526082223,-0.47429585671798863,0.5048879689081787,-0.6305667988986121
-720.5142736434937,2680.0,-1944.0,15248.0,907.0,-775.0,1873.0,0.5152735416616762,-0.39919311989121675,0.49943480381010746,-0.5707038698292741
-720.529848575592,2740.0,-1644.0,15384.0,973.0,-1510.0,2166.0,0.7020935147930983,-0.32645301540602395,0.44516379097566444,-0.44980253936806824
-720.5454986095428,3024.0,-1260.0,15952.0,736.0,-1875.0,2150.0,0.85265984690706,-0.26279754624359775,0.3510406661784838,-0.2840406411937197
-720.5610735416412,3268.0,-732.0,16540.0,477.0,-1963.0,1996.0,0.9447090276063974,-0.20840557445734673,0.23169056019925635,-0.10203653271565677
-720.5766534805298,3484.0,-720.0,16604.0,236.0,-1760.0,1771.0,0.9772770239182816,-0.16478155368960945,0.11374868274386757,0.0695549801171702
-720.5922513008118,3512.0,-876.0,16252.0,264.0,-1614.0,1622.0,0.9679118443782805,-0.11391872757977674,0.0007446441677203272,0.22398354967252285
-720.607923746109,3336.0,-992.0,16072.0,391.0,-1287.0,1464.0,0.929384467148332,-0.05459440010513896,-0.084734033100561,0.3550832400087109
-720.6235172748566,3240.0,-1228.0,16104.0,532.0,-1482.0,1478.0,0.8600131657831033,0.0234397629711938,-0.1783788609215756,0.4775027896964579
-720.6390717029572,3144.0,-1280.0,16160.0,446.0,-1540.0,1433.0,0.762173912980238,0.0970505002345862,-0.27325023935915016,0.5787974027816442
-720.6546556949615,3368.0,-1144.0,16480.0,175.0,-1642.0,1376.0,0.640924939384054,0.1560155986870789,-0.3784523163735799,0.6493444380860831
-720.6702334880829,3524.0,-1068.0,16576.0,-27.0,-1561.0,1530.0,0.4941857906654759,0.18895722308924567,-0.4792992468557053,0.7002483874385526
-720.6858148574829,3356.0,-1052.0,16452.0,11.0,-1510.0,1240.0,0.35006267876201164,0.22652876009644368,-0.5560208976430765,0.7190143275146331
-720.7013931274414,3084.0,-1172.0,16136.0,95.0,-1373.0,1185.0,0.20467790027071203,0.25486615403932966,-0.6077196399252197,0.723758965343528
-720.7169733047485,3008.0,-1400.0,16384.0,96.0,-1195.0,1137.0,0.06666836388345673,0.2689436912364609,-0.6415450923912329,0.7152933067140601
-720.732565164566,3000.0,-1424.0,16412.0,66.0,-1072.0,1049.0,-0.059878058864722014,0.2751349180385285,-0.6625184974711558,0.6941070777993027
-720.7481319904327,2864.0,-1492.0,16456.0,58.0,-1010.0,1110.0,-0.1853462211760447,0.2695018023916603,-0.6745128877253674,0.6618518875819521
-720.7637476921082,2824.0,-1432.0,16636.0,57.0,-1082.0,1172.0,-0.3150766872954766,0.2595557796950802,-0.6746714753897797,0.6149600626424171
-720.779317855835,2872.0,-1456.0,16188.0,186.0,-1027.0,1257.0,-0.44280142832376956,0.23316331036783497,-0.6581599175831412,0.5624831452227658
-720.7948756217957,2832.0,-1528.0,16084.0,215.0,-986.0,1312.0,-0.5624507518651793,0.19583835646020642,-0.6295465158470118,0.4989666063477069
-720.8104498386383,3092.0,-1444.0,16404.0,178.0,-960.0,1395.0,-0.6716913780664331,0.15058454850622663,-0.5918800835307909,0.41932440079486916
-720.8260262012482,3088.0,-1320.0,16504.0,193.0,-961.0,1610.0,-0.7724966133592318,0.0900428404133922,-0.5421982018119892,0.3180603389148846
-720.8416569232941,3380.0,-1232.0,16728.0,187.0,-856.0,1639.0,-0.8489671439234627,0.02332372960626859,-0.48565083821867644,0.20701221102434725
-720.8572819232941,3508.0,-1192.0,16768.0,151.0,-748.0,1688.0,-0.8998845905987479,-0.04530198330312638,-0.42521365461259913,0.08572515291747455
-720.8728723526001,3528.0,-1072.0,17128.0,47.0,-218.0,1637.0,-0.9107145980433831,-0.10697732027361158,-0.3969494656882959,-0.03982330407604293
-720.8884851932526,3560.0,-1012.0,16868.0,-43.0,-23.0,1541.0,-0.8985538246867316,-0.15557416545830777,-0.37697249203582345,-0.1621401968393362
-720.9040911197662,3600.0,-900.0,16540.0,24.0,193.0,1495.0,-0.8633726218886909,-0.20210791513306234,-0.368760071025954,-0.2788478374141492
-720.9197723865509,3432.0,-720.0,16216.0,49.0,332.0,1289.0,-0.8150504863601339,-0.2375340730683092,-0.36954270630229913,-0.37776772894790933
-720.9354124069214,3388.0,-492.0,15980.0,45.0,320.0,1076.0,-0.7647317392853882,-0.26354846841030477,-0.36951705526429207,-0.45736715841535214
-720.951016664505,3388.0,-340.0,15876.0,-10.0,174.0,894.0,-0.7214577461918028,-0.2837924783687602,-0.35884583938822817,-0.5197982428163056
-720.9666368961334,3200.0,-284.0,15856.0,-46.0,48.0,648.0,-0.6906454426769183,-0.29844292399902117,-0.3429909123841876,-0.5624037052210632
-720.9822268486023,3252.0,-532.0,15996.0,23.0,-168.0,754.0,-0.6566317172362817,-0.32980284522893893,-0.3134555324805034,-0.6015068581118526
-720.9978082180023,3236.0,-1012.0,15948.0,124.0,-184.0,340.0,-0.6399027978478647,-0.3555379547225369,-0.29927222458372893,-0.6120076042427057
-721.0133774280548,3324.0,-804.0,15892.0,197.0,-217.0,205.0,-0.6282587704209329,-0.38318456749749663,-0.29100814782400025,-0.6113712149921506
-721.0289468765259,3316.0,-828.0,16080.0,294.0,-227.0,152.0,-0.6157621933955902,-0.41490644393494847,-0.2888368012273215,-0.6043698091588259
-721.0445308685303,3412.0,-860.0,16328.0,308.0,-82.0,148.0,-0.5986463123565836,-0.4391907386668947,-0.2950408714806492,-0.6014025040910873
-721.0601160526276,3656.0,-784.0,16308.0,383.0,73.0,132.0,-0.5748427268976768,-0.4583607110654842,-0.3135684985218122,-0.6009459997530251
-721.0757250785828,3600.0,-796.0,16348.0,376.0,164.0,70.0,-0.5513332190648159,-0.4701223177345809,-0.33837559317658517,-0.6004320493327182
-721.0913064479828,3832.0,-872.0,16352.0,319.0,170.0,-250.0,-0.5459783318848364,-0.4687376057667787,-0.3731433490645809,-0.5856251011535862
-721.1068806648254,3720.0,-832.0,16300.0,284.0,304.0,-54.0,-0.5269200508751504,-0.4645733544288743,-0.4039732999168718,-0.5859457579799565
-721.1224880218506,3760.0,-824.0,16284.0,235.0,286.0,-43.0,-0.5092889113501384,-0.45891489087767084,-0.4305503679833773,-0.5870675500620901
-721.1381115913391,3684.0,-844.0,16124.0,250.0,284.0,-13.0,-0.48905217005308077,-0.4546654166784165,-0.4561481603854286,-0.5882484080896467
-721.1536910533905,3964.0,-920.0,16436.0,231.0,268.0,50.0,-0.466467424698561,-0.45247096732206565,-0.4771250179540987,-0.591633233234939
-721.1693587303162,3760.0,-928.0,16484.0,202.0,306.0,91.0,-0.440851909513921,-0.4483778546496401,-0.4960478339342739,-0.5987849695732441
-721.1849360466003,3496.0,-548.0,16784.0,243.0,497.0,157.0,-0.40115461893542326,-0.43793909540651155,-0.520971791231963,-0.6130845889123799
-721.2005348205566,3408.0,-172.0,17084.0,286.0,558.0,145.0,-0.35656429660702743,-0.4239624098300525,-0.5493079028226199,-0.6256025937708742
-721.2161083221436,3080.0,-44.0,17012.0,307.0,321.0,207.0,-0.318252012599715,-0.42547462911452166,-0.5677874846305107,-0.6287323506493435
-721.2317178249359,3280.0,-4.0,17148.0,333.0,2.0,458.0,-0.28033667975791254,-0.4567131529191199,-0.5683219679514114,-0.6243673459405295
-721.2473423480988,3316.0,-24.0,16488.0,334.0,-99.0,849.0,-0.22496348156611187,-0.510720397139141,-0.5484125965815966,-0.6227356837522023
-721.262951374054,2868.0,-428.0,16288.0,374.0,11.0,1047.0,-0.15016060389024444,-0.5648863711457768,-0.5197645190956675,-0.6230570001390905
-721.2785732746124,2896.0,-1012.0,15260.0,321.0,394.0,1313.0,-0.04471123275598972,-0.6026522825869646,-0.47400740846039385,-0.6404124520048176
-721.2941551208496,3156.0,-1112.0,14280.0,206.0,497.0,1341.0,0.06118543670720403,-0.6261386322559709,-0.4135714181924989,-0.6581530502746422
-721.309720993042,4160.0,-488.0,13808.0,251.0,237.0,936.0,0.13674586404446848,-0.6424675175665561,-0.37408283283822114,-0.6546740347030192
-721.3252975940704,5244.0,568.0,13624.0,-480.0,-794.0,744.0,0.1257746201495981,-0.713949243757077,-0.3126666981333971,-0.6137562693311419
-721.340882062912,5360.0,1016.0,14184.0,-920.0,-1828.0,596.0,0.049649972005332124,-0.8240445693251484,-0.2421145603759066,-0.5097705049329373
-721.3565056324005,5136.0,112.0,14368.0,-1333.0,-2521.0,518.0,-0.07411865190250495,-0.9238072713932467,-0.15166530560079453,-0.3436337961233403
-721.3721067905426,5124.0,-364.0,14912.0,-1481.0,-2226.0,1005.0,-0.18715114155357607,-0.9647509185647445,-0.011431057000084965,-0.18466035383789356
-721.387722492218,4868.0,-1116.0,15588.0,-1258.0,-1464.0,1455.0,-0.26528512196232445,-0.9483546861002221,0.15196293427163662,-0.08458404119417504
-721.4033026695251,4376.0,-1848.0,16180.0,-771.0,-800.0,1940.0,-0.29857955219099974,-0.8937939356879923,0.3305562561798755,-0.05210770615883555
-721.418883562088,3720.0,-2704.0,17172.0,-127.0,-174.0,2264.0,-0.2875976950947532,-0.8101168443436642,0.5025079188499844,-0.09210893431098958
-721.4344446659088,3152.0,-2416.0,17288.0,480.0,11.0,2255.0,-0.23140679843033665,-0.708926883283758,0.6449073514705779,-0.16723658635897526
-721.4500453472137,2780.0,-1248.0,17072.0,1091.0,-186.0,1973.0,-0.12229418643474468,-0.610796886839065,0.7405270084188975,-0.2521726487827904
-721.4656257629395,2748.0,200.0,16204.0,1947.0,-79.0,1781.0,0.025141175996501394,-0.5049455724309384,0.7731912070250994,-0.38284885729354706
-721.4812123775482,2720.0,992.0,15328.0,2894.0,709.0,696.0,0.12375976031785925,-0.4134137748433482,0.6846679727097944,-0.5873689978550958
-721.4967858791351,2316.0,1524.0,13984.0,3629.0,1447.0,-617.0,0.12912179830619824,-0.31841205401437006,0.4649476074687282,-0.8159442673183194
-721.5123629570007,2248.0,1708.0,13476.0,4066.0,895.0,-1501.0,0.09224579265159429,-0.2515605542590211,0.13391754804123784,-0.9540828536377728
-721.5280089378357,2976.0,960.0,14724.0,3909.0,-596.0,-1939.0,0.021982103633407767,-0.27272706862816476,-0.2232365652824639,-0.9355758489177811
-721.5436670780182,4404.0,-244.0,16888.0,3410.0,-1792.0,-1815.0,-0.0749393499009885,-0.3534279909434566,-0.5138273645996828,-0.7781093679185681
-721.5592930316925,6096.0,-1564.0,18340.0,2734.0,-1292.0,-1919.0,-0.1707175492240772,-0.3559860977828647,-0.716002582018477,-0.5757340697884115
-721.574887752533,7548.0,-2748.0,19120.0,1976.0,-361.0,-1727.0,-0.2130430761765396,-0.2880379483956354,-0.8413482894527825,-0.4046972248634122
-721.5904636383057,7600.0,-3888.0,17784.0,1534.0,714.0,-973.0,-0.154182250429304,-0.2167649286378682,-0.9200046995292486,-0.287805754301877
-721.606053352356,7388.0,-3804.0,16696.0,512.0,-342.0,190.0,-0.1669112000428001,-0.24712498690262857,-0.9232004854061928,-0.24242680523081178
-721.6216056346893,7412.0,-3356.0,16568.0,-384.0,-800.0,1076.0,-0.2152964377511668,-0.34265142126229164,-0.8737431973520411,-0.26983378676441117
-721.6371812820435,6800.0,-3152.0,16052.0,-1152.0,-1591.0,2117.0,-0.31149064785957287,-0.5041749474009315,-0.7305078005479537,-0.3393221950416481
-721.6527292728424,6572.0,-2820.0,15864.0,-1704.0,-1855.0,2718.0,-0.40368188652425085,-0.6527948165572598,-0.48517580187408055,-0.41893233731002216
-721.6683163642883,5904.0,-2196.0,15524.0,-1583.0,-1509.0,3066.0,-0.4234047190375754,-0.7428872236549273,-0.18936434263276203,-0.4826884736206653
-721.6839280128479,5804.0,-1952.0,15156.0,-1211.0,-1362.0,3122.0,-0.3747206900182119,-0.7696294138386619,0.10920005695314178,-0.5053022040205873
-721.699511051178,6044.0,-1836.0,15052.0,-740.0,-1030.0,3367.0,-0.2539121249319322,-0.7238088405310416,0.38328824341432677,-0.5145090063760009
-721.7150971889496,5408.0,-1836.0,14764.0,-154.0,-1198.0,3369.0,-0.06899698789849139,-0.6313221575103488,0.6009545556880422,-0.485309562130401
-721.7306890487671,5192.0,-2604.0,14072.0,500.0,-1330.0,3793.0,0.178188237401151,-0.46354352674446314,0.7512081575454373,-0.434813356398312
-721.7463047504425,4996.0,-2980.0,13752.0,982.0,-1782.0,4183.0,0.4572997850743854,-0.223843668628775,0.7925864054730043,-0.33552601753830413
-721.7619304656982,5144.0,-2928.0,13148.0,1656.0,-2424.0,4854.0,0.7165384342607435,0.09596962694984586,0.6650323263739103,-0.1873352818023726
-721.7775187492371,5552.0,-2640.0,12940.0,2213.0,-2927.0,4966.0,0.8355496462998068,0.41792421504709804,0.35568265455281617,-0.026191378272193738
-721.7931406497955,5888.0,-2228.0,13424.0,2330.0,-3352.0,5216.0,0.7502541549664423,0.6423914091266003,-0.0731756791130991,0.13819298253626022
-721.80872797966,6304.0,-2104.0,13928.0,2777.0,-4023.0,5535.0,0.4220721105731444,0.7037698502325347,-0.5157093988960462,0.2461847827756332
-721.8243095874786,6464.0,-1748.0,14520.0,2835.0,-3926.0,5761.0,-0.04393836390547264,0.5292168174793801,-0.7967924930945435,0.2883066132132404
-721.8399152755737,6128.0,-1428.0,15544.0,2746.0,-3519.0,5376.0,-0.47027036926345656,0.19918492571172333,-0.8217260618799102,0.252858506658094
-721.8554937839508,6132.0,-1304.0,16104.0,2713.0,-2750.0,5312.0,-0.7217746497168555,-0.20171536646136953,-0.6430572604872979,0.15757419107848075
-721.8710975646973,6164.0,-1672.0,16800.0,2796.0,-1716.0,4988.0,-0.74274673292849,-0.5624343708096812,-0.36230316118036904,0.027042349281890175
-721.8866670131683,6440.0,-1864.0,16880.0,2754.0,-766.0,4782.0,-0.578378005366637,-0.8006867949399007,-0.06410323893700572,-0.14237385319912088
-721.9022355079651,6632.0,-1684.0,16416.0,2779.0,180.0,4650.0,-0.2941545409967358,-0.8720384736955232,0.19643701667873487,-0.3382816945744188
-721.9178569316864,6424.0,-1400.0,15600.0,2538.0,502.0,4381.0,0.01806694007548116,-0.7742773525686684,0.4040391254824918,-0.4867448531365342
-721.9335205554962,5824.0,-792.0,14848.0,2621.0,551.0,3903.0,0.3157169305866796,-0.5628624879738351,0.515066393676186,-0.5641057077164158
-721.9492189884186,6872.0,-676.0,15116.0,2720.0,212.0,3981.0,0.5859899179592004,-0.27501789062125404,0.5367904905103696,-0.5411441075961582
-721.9648084640503,5528.0,-848.0,16052.0,2125.0,843.0,3257.0,0.7098002909017541,0.024684683743980553,0.5267049436782419,-0.4670718528547237
-721.9804084300995,5492.0,-1524.0,15664.0,2066.0,1369.0,3207.0,0.7289657446618827,0.3355253523526376,0.4904418711111197,-0.33985063204179733
-721.9960615634918,5404.0,-2024.0,15920.0,2421.0,1446.0,3511.0,0.6518611389958819,0.6353924711462491,0.37944204114143254,-0.16546057080790585
-722.0116577148438,5352.0,-2752.0,15896.0,2445.0,1628.0,3697.0,0.4768925832307571,0.8509910267251519,0.21418556097774086,0.050122669137004895
-722.0272738933563,5228.0,-3048.0,15252.0,2793.0,1961.0,3797.0,0.19746553184472473,0.940486413081935,0.02370651921450906,0.2755552058813044
-722.0428686141968,5300.0,-2616.0,15180.0,2753.0,2529.0,3616.0,-0.10995085805410913,0.8509566528822363,-0.14874480607090573,0.4915878013087337
-722.0584423542023,5004.0,-1744.0,14592.0,2930.0,3107.0,3201.0,-0.38490246472170686,0.5872565469410387,-0.26340670216799394,0.6615109598328848
-722.0740125179291,4604.0,-688.0,14760.0,3068.0,2895.0,2713.0,-0.5791987906609746,0.23314377642031356,-0.29542017319183905,0.723118013663498
-722.0895855426788,4348.0,364.0,15036.0,2329.0,2402.0,2063.0,-0.6572747533177451,-0.08462449520411529,-0.2947339168944789,0.6884479004939913
-722.1051506996155,3936.0,1336.0,15996.0,1757.0,1578.0,1490.0,-0.6735831376298446,-0.30943130936013225,-0.2608030268945496,0.6184818531299433
-722.1207296848297,3052.0,2464.0,17868.0,67.0,777.0,16.0,-0.6535310464073614,-0.35472384691555875,-0.3015703162476447,0.596760846712837
-722.1362969875336,2276.0,3636.0,20664.0,-2180.0,765.0,-2000.0,-0.5766560814459143,-0.21010475238774878,-0.5029587130689724,0.60856905089195
-722.1519658565521,3568.0,4628.0,21592.0,-3890.0,512.0,-3103.0,-0.4222792519800571,0.08686291465524416,-0.7259678339650282,0.5358225186130985
-722.1675264835358,4812.0,2312.0,18064.0,-4422.0,4014.0,-3958.0,0.04299704172720583,0.26533931906706626,-0.8908312026794699,0.3662868663935188
-722.1831018924713,4624.0,-1252.0,17272.0,-3255.0,6185.0,-3291.0,0.5841906012118859,0.25807752977997156,-0.7423924302900236,0.20241247374219665
-722.1986989974976,4100.0,-4156.0,17236.0,-2107.0,6856.0,-1417.0,0.9281246303212208,0.10222359953639107,-0.33548065735852606,0.12485085032634691
-722.2142837047577,3148.0,-5920.0,17184.0,-1849.0,5492.0,-230.0,0.9884827555673584,-0.08999214808300866,0.08161822712676418,0.09023148136904202
-722.2298698425293,1772.0,-4484.0,17292.0,-1901.0,3394.0,772.0,0.8915001779407551,-0.26016054113050424,0.34511700287772207,0.1357872596931824
-722.2455265522003,940.0,-416.0,18276.0,-2150.0,2278.0,1248.0,0.72851154731782,-0.39981777283716646,0.5037279522458317,0.2359551314855117
-722.2611448764801,988.0,3396.0,19916.0,-2287.0,2932.0,1022.0,0.47276888464463024,-0.5313420157227428,0.6432224321989385,0.28360209229772443
-722.2767374515533,2080.0,6032.0,20920.0,-1930.0,4501.0,-638.0,0.13441435299302573,-0.6962758780089241,0.6901913436044788,0.14411312440514304
-722.2923109531403,2248.0,4420.0,18844.0,-1734.0,6181.0,-2066.0,-0.2735198641819137,-0.7918334225459018,0.5302670592058374,-0.13039770227401792
-722.3079075813293,776.0,1504.0,16564.0,-884.0,7207.0,-2688.0,-0.5790168175305499,-0.6736447876437024,0.15114569480098783,-0.4337017454892149
-722.323483467102,184.0,-1216.0,15480.0,-469.0,6911.0,-2110.0,-0.6573837940739616,-0.3516485581252325,-0.2573768913930836,-0.6147739215632042
-722.3391163349152,220.0,-2616.0,14368.0,-291.0,5058.0,-886.0,-0.5476368241245378,-0.03964892031166247,-0.5100143568241388,-0.6621232723701604
-722.3546996116638,120.0,-2268.0,14400.0,-41.0,2630.0,337.0,-0.400707273884257,0.0967845519258066,-0.6157576348459213,-0.6714975549424771
-722.370285987854,548.0,-116.0,15104.0,-97.0,861.0,740.0,-0.30876537560597206,0.1103027047694139,-0.6431371282685591,-0.6920057011253055
-722.385870218277,576.0,1200.0,16668.0,-202.0,445.0,421.0,-0.25603931453609136,0.11877449225305411,-0.6458364105729678,-0.7093883422922471
-722.4014999866486,968.0,1456.0,18148.0,-230.0,717.0,-240.0,-0.2275825333576743,0.18138020974119223,-0.6434817045838626,-0.707982136703032
-722.4170804023743,1120.0,1304.0,17872.0,-156.0,1493.0,-627.0,-0.17823631004936455,0.30882848522016,-0.6469769967409059,-0.674001149987688
-722.4327082633972,404.0,1004.0,17104.0,62.0,2004.0,-812.0,-0.11253804922991545,0.4633981207992977,-0.6483782013359165,-0.5934669975218557
-722.4483170509338,-128.0,628.0,15632.0,223.0,1960.0,-788.0,-0.05060112194579435,0.5971338614348537,-0.6364136606921394,-0.48564218357774275
-722.4639272689819,-196.0,440.0,14476.0,331.0,1328.0,-693.0,-0.02325605801343478,0.6843370034242732,-0.6146753110446231,-0.3915562328735907
-722.4795074462891,100.0,680.0,14064.0,306.0,446.0,-564.0,-0.03679746722374754,0.7275135158318383,-0.5909586217330667,-0.34660920081161806
-722.4950788021088,432.0,936.0,14140.0,229.0,-625.0,-646.0,-0.10279244373858033,0.7387557229052035,-0.5530311014712399,-0.37125502850543096
-722.5106530189514,796.0,1076.0,14888.0,127.0,-1446.0,-946.0,-0.2090787612299783,0.7281150758247185,-0.47771572486490554,-0.4448844728422203
-722.5262143611908,1220.0,1084.0,15724.0,132.0,-1655.0,-1168.0,-0.3267760725007916,0.6992027906651173,-0.37256979451559946,-0.5152907957470944
-722.5418844223022,1268.0,844.0,15896.0,273.0,-1477.0,-1457.0,-0.4496115548287092,0.661348593438752,-0.2496250278352053,-0.5460355603798783
-722.5575053691864,688.0,764.0,16128.0,467.0,-1080.0,-1567.0,-0.5666204858759223,0.6166259205017035,-0.13700800518954664,-0.5290959323838558
-722.5731205940247,464.0,168.0,16000.0,589.0,-710.0,-1780.0,-0.6787794075775321,0.5672320448218555,-0.03275567481769415,-0.465224020170013
-722.5887243747711,392.0,-184.0,15672.0,593.0,-482.0,-1534.0,-0.7634009063999883,0.5110565048142811,0.04716385266666595,-0.3921936715403805
-722.6043195724487,260.0,-316.0,15412.0,601.0,-548.0,-936.0,-0.8153224439594635,0.4456037170996605,0.10423795176074409,-0.35471268527592564
-722.6199147701263,404.0,-328.0,15384.0,567.0,-717.0,-610.0,-0.8459422297475025,0.3755716535145564,0.1606565825437625,-0.34280772962628075
-722.6355047225952,528.0,-428.0,15752.0,508.0,-921.0,-390.0,-0.8573351312256202,0.3033692551190346,0.22508832191332787,-0.3496838788865062
-722.6510877609253,1088.0,-508.0,16228.0,459.0,-1085.0,-240.0,-0.8509129036535553,0.22972439826915955,0.2968697726123979,-0.36748097820813913
-722.6666948795319,1432.0,-568.0,16764.0,367.0,-1112.0,-223.0,-0.832212224942356,0.15999438636820118,0.36998781762445804,-0.3807014890917122
-722.6822557449341,1556.0,-604.0,16984.0,480.0,-1099.0,-224.0,-0.8064077086955479,0.0808133285858024,0.434340766396554,-0.39309529623913525
-722.6978468894958,1652.0,-500.0,17648.0,736.0,-855.0,-170.0,-0.7812531474675979,-0.006789099605627113,0.46794817001722844,-0.4130640844663735
-722.713428735733,1768.0,-536.0,17424.0,974.0,-531.0,-101.0,-0.7591448185237752,-0.0960293133647732,0.4665778946910468,-0.443601830100897
-722.7290096282959,1804.0,-388.0,17404.0,1187.0,-204.0,5.0,-0.7367247814139953,-0.18134246278393867,0.4315994628993643,-0.4879276701181613
-722.7445929050446,1904.0,-328.0,17268.0,1176.0,144.0,109.0,-0.7151312466602718,-0.24532821276696534,0.3717891965065453,-0.5386781612723033
-722.7601742744446,1980.0,-284.0,17064.0,1106.0,256.0,131.0,-0.6902494044432522,-0.2964854140207084,0.3049201948474399,-0.5853852011393045
-722.7757883071899,2044.0,-364.0,16732.0,1120.0,302.0,181.0,-0.6566885512873968,-0.3417642745861329,0.23281014784676402,-0.6306796035105642
-722.7913706302643,2068.0,-384.0,16400.0,1125.0,154.0,159.0,-0.6145056138164212,-0.39238604806694477,0.16585463178918022,-0.6640092476649583
-722.8069665431976,2212.0,-364.0,16196.0,1108.0,4.0,176.0,-0.5637851639114334,-0.4466936091790783,0.10687383449195063,-0.6864321466633931
-722.8226215839386,2296.0,-308.0,16268.0,929.0,-59.0,244.0,-0.5106586715649065,-0.49173702941012115,0.06337912269434541,-0.7024282894851044
-722.8381993770599,2360.0,-228.0,16304.0,680.0,-54.0,198.0,-0.46819228370391625,-0.5230698398783772,0.03252440094788471,-0.7114324222529514
-722.8538386821747,2452.0,-56.0,16368.0,446.0,-253.0,204.0,-0.43399503476807394,-0.5556076222067936,0.02445899359311015,-0.7087667017960024
-722.869428396225,2504.0,-468.0,16168.0,451.0,-256.0,210.0,-0.3981595558506338,-0.5872188574600093,0.01643173971533187,-0.7045374223262487
-722.8850183486938,2464.0,-652.0,15884.0,650.0,-48.0,183.0,-0.35294861173611386,-0.61128083995574,-0.01245829260562248,-0.7082427571969285
-722.9006507396698,2672.0,-684.0,16276.0,917.0,22.0,184.0,-0.2916882080161225,-0.6361137031038462,-0.05979016989543968,-0.7118303741845591
-722.9162743091583,2664.0,-648.0,16448.0,1137.0,96.0,237.0,-0.21226344787915688,-0.6568167990360209,-0.1190816258605855,-0.7136914512455138
-722.931966304779,2444.0,-572.0,16464.0,1199.0,193.0,207.0,-0.12790170009580581,-0.6652090817244367,-0.18438954442161534,-0.7121365940688087
-722.947597026825,2344.0,-720.0,16312.0,1277.0,168.0,302.0,-0.03206774377728709,-0.6693314164212341,-0.24643325822926776,-0.7001698108595412
-722.9632234573364,2364.0,-948.0,16232.0,829.0,198.0,378.0,0.04359370803568984,-0.6653868255206092,-0.2746144660831607,-0.6927819686316655
-722.9789383411407,2096.0,-940.0,16348.0,663.0,92.0,409.0,0.10880450122927264,-0.6654552812519685,-0.28987589831973315,-0.6791927655234857
-722.994574546814,1960.0,-572.0,16356.0,595.0,-39.0,417.0,0.16679173231118816,-0.6712263452569711,-0.30064800005320763,-0.6566936055190495
-723.0101647377014,1820.0,-396.0,16828.0,496.0,-253.0,410.0,0.21236173929004215,-0.6879311276344813,-0.30813811294238874,-0.6218554162098798
-723.0258021354675,2116.0,-160.0,16892.0,366.0,172.0,512.0,0.26636400189928316,-0.6843882282792063,-0.2935556100080261,-0.6119543081945443
-723.0414395332336,2024.0,-48.0,16428.0,379.0,250.0,512.0,0.3222301799824724,-0.6740502112394126,-0.27686853853924553,-0.6042911849462219
-723.0570497512817,1884.0,-96.0,16220.0,387.0,300.0,629.0,0.38454976193609225,-0.6608472873889214,-0.2511880987763522,-0.5935544476951717
-723.0727093219757,1956.0,-240.0,16108.0,259.0,271.0,693.0,0.44035514553235294,-0.6516622935365805,-0.2149872318298734,-0.5789681261830846
-723.0883052349091,1968.0,-352.0,16280.0,613.0,176.0,592.0,0.5070495802796636,-0.6283884318989549,-0.20490071520000416,-0.553212796945548
-723.1039230823517,2120.0,-320.0,16396.0,656.0,134.0,537.0,0.5698342392317945,-0.6006778476506128,-0.2005941140063281,-0.5236764884611163
-723.1195368766785,2064.0,-132.0,16660.0,647.0,156.0,484.0,0.6270736372961679,-0.5682383010457145,-0.1964884328169383,-0.4952536546073916
-723.1350882053375,1808.0,-248.0,16588.0,538.0,91.0,455.0,0.6737766944827539,-0.5414723837056283,-0.19178531418153857,-0.46481288377187574
-723.1507112979889,1680.0,-168.0,16412.0,404.0,189.0,539.0,0.7166539196778707,-0.5179447806133801,-0.1712205086563689,-0.43453872216541967
-723.1662890911102,1424.0,-188.0,16444.0,19.0,205.0,705.0,0.7458768405096221,-0.5182868621591744,-0.1269376833550678,-0.39866438497692414
-723.181880235672,1372.0,16.0,16572.0,123.0,243.0,711.0,0.7772521220276626,-0.5084043458800608,-0.08301787071147532,-0.36126471324542037
-723.1974432468414,1428.0,148.0,16608.0,85.0,212.0,680.0,0.802525172844986,-0.49971799948807444,-0.041044210242951,-0.32334291509679736
-723.213020324707,1512.0,208.0,16536.0,145.0,270.0,696.0,0.8277329973846701,-0.48318083287665803,0.004123340811835962,-0.2852671832541529
-723.2286539077759,1508.0,332.0,16596.0,228.0,302.0,267.0,0.8432926995109808,-0.45852131770232574,0.03147795679941663,-0.27861220791584035
-723.2442772388458,1388.0,244.0,16516.0,320.0,361.0,486.0,0.8654731227457929,-0.4238913209340943,0.0695599229543214,-0.25774762648758426
-723.2599048614502,1436.0,284.0,16596.0,288.0,436.0,381.0,0.8807410829728526,-0.3891824087238816,0.10988037831996851,-0.2464923933186276
-723.2755019664764,1400.0,48.0,16508.0,199.0,407.0,335.0,0.8898198005398162,-0.3612670933354119,0.14800205366217065,-0.23622489697752888
-723.2910969257355,1428.0,60.0,16720.0,242.0,432.0,247.0,0.8960074974998414,-0.32978476922678807,0.18402654069984964,-0.23355256951734152
-723.306694984436,1380.0,164.0,16816.0,280.0,503.0,116.0,0.8972629699629224,-0.29518800050004385,0.22056951160064034,-0.24317133393218246
-723.3222880363464,1308.0,320.0,16760.0,369.0,636.0,82.0,0.894491180936736,-0.2505107091899028,0.2639493140537955,-0.25973192221616936
-723.3378982543945,1524.0,536.0,16500.0,503.0,692.0,179.0,0.8911030234035933,-0.1907224184532647,0.3094001778015562,-0.2717202435533255
-723.353524684906,900.0,564.0,16516.0,684.0,902.0,297.0,0.8806828139860052,-0.10742781426845907,0.3661657481593804,-0.2806772002605021
-723.369154214859,668.0,492.0,16400.0,809.0,1265.0,389.0,0.8497190163027061,-0.0017335303941076116,0.44297425904350596,-0.28591676066784066
-723.384740114212,468.0,380.0,16348.0,973.0,1519.0,542.0,0.7941144341881453,0.1275932741556281,0.5242009019318494,-0.27984930984035683
-723.4003241062164,268.0,396.0,16420.0,1052.0,1625.0,620.0,0.7121865157363381,0.26442071795206845,0.5947976443148647,-0.262845606846558
-723.4159309864044,180.0,748.0,16244.0,1055.0,1544.0,728.0,0.6151238124963646,0.397147805235884,0.6399282779939133,-0.23321259640079983
-723.4315247535706,116.0,1264.0,16276.0,802.0,1381.0,678.0,0.5181740150442071,0.5004611853658075,0.6665826425098181,-0.19157732845993142
-723.4471509456635,-192.0,1680.0,16304.0,595.0,1166.0,670.0,0.4320829111827444,0.5810689687002347,0.6745260296090095,-0.14379793759785162
-723.4628067016602,-348.0,1820.0,16276.0,396.0,983.0,389.0,0.3573452829192367,0.6281895481649803,0.683562089554614,-0.10210342832333658
-723.4784362316132,-276.0,1848.0,16792.0,239.0,801.0,120.0,0.29677244058353364,0.6481741351480599,0.6979264023567618,-0.06852113490380161
-723.4940278530121,-420.0,2096.0,17280.0,156.0,574.0,-221.0,0.2513240050322109,0.641193174272945,0.7232469951173143,-0.05119904114463003
-723.5096185207367,-512.0,2164.0,17344.0,144.0,569.0,-589.0,0.20421962984981545,0.6081032240573684,0.7660304226279365,-0.041257766341664136
-723.5252070426941,-720.0,2060.0,17188.0,138.0,568.0,-807.0,0.15546027057386833,0.5565399433860175,0.815413302275473,-0.034591070541340856
-723.540780544281,-924.0,2048.0,16664.0,-20.0,555.0,-928.0,0.11365353692632273,0.4897090992961341,0.8642439776007854,-0.018714133468561104
-723.5564007759094,-1036.0,1916.0,16616.0,-314.0,142.0,-1032.0,0.11419158428580839,0.4071341551522121,0.906201639913888,0.000805980255337792
-723.5720670223236,-892.0,1832.0,16216.0,-546.0,-349.0,-908.0,0.1605361428873841,0.3283327216440109,0.9305493205776882,0.022443990221891228
-723.5876643657684,-764.0,1816.0,16340.0,-753.0,-765.0,-930.0,0.24424542547512806,0.24187932593812575,0.9378199559050759,0.04829383112151404
-723.6032967567444,-700.0,1844.0,16520.0,-848.0,-781.0,-982.0,0.3274237431887014,0.1454307322699469,0.9302180212807494,0.07961172898671078
-723.6188926696777,-688.0,1844.0,16600.0,-996.0,-551.0,-1080.0,0.38874230958379274,0.03278564793878543,0.9127098399564434,0.12151241119892404
-723.6344790458679,-744.0,1940.0,16592.0,-1210.0,-274.0,-1268.0,0.4225136209493362,-0.10514028924460922,0.8836376445329904,0.1720821689020366
-723.6501450538635,-816.0,1944.0,16388.0,-1470.0,-232.0,-1458.0,0.4416416313224282,-0.26399723755408244,0.8260248183776634,0.23008939017439714
-723.6657469272614,-788.0,1928.0,15740.0,-1659.0,-442.0,-1611.0,0.4581294458256827,-0.4263100243395168,0.7233701243917168,0.2917410446827901
-723.6813621520996,-960.0,1792.0,15524.0,-1638.0,-912.0,-1556.0,0.4836365577511373,-0.5544056861816193,0.5743797691506997,0.35891210055737544
-723.6969590187073,-552.0,1760.0,15492.0,-1548.0,-1314.0,-1440.0,0.5079291654706471,-0.6358907720730888,0.39152914660879407,0.42936676188588757
-723.712550163269,-572.0,1312.0,15696.0,-1507.0,-1499.0,-1047.0,0.5041468401028117,-0.6680814341011523,0.20606125256778077,0.5069930189005516
-723.7281303405762,-624.0,1360.0,15772.0,-1592.0,-1519.0,-1256.0,0.48261452740575483,-0.6770386268012667,-0.004406336624218682,0.5555920265388348
-723.7437741756439,-684.0,1388.0,15632.0,-1756.0,-1611.0,-1312.0,0.4299517343831806,-0.654077885346959,-0.22860926245162788,0.5788449111137353
-723.7594382762909,-640.0,1328.0,15524.0,-2026.0,-1892.0,-1373.0,0.3339901265144412,-0.5860333622409826,-0.46373278059591516,0.5744278909769073
-723.7750375270844,-384.0,1240.0,15440.0,-1645.0,-2628.0,-1416.0,0.20559611115597826,-0.4263618929311127,-0.6663538527297982,0.5761235269331497
-723.7906439304352,84.0,1056.0,16064.0,-1422.0,-3475.0,-1517.0,0.025323049536602405,-0.178044102203006,-0.8076623878963055,0.5615518747279986
-723.8062427043915,416.0,1096.0,16640.0,-1237.0,-4189.0,-1652.0,-0.19285057969091837,0.13061691080386154,-0.8363622911382476,0.4962317951188881
-723.8218383789062,552.0,1192.0,17800.0,-1205.0,-4443.0,-1596.0,-0.3997308702599277,0.42319427772143786,-0.7320542891538135,0.35386205277844657
-723.8374445438385,476.0,944.0,18804.0,-1283.0,-4599.0,-1736.0,-0.5417732133038808,0.6590346236238427,-0.5000603175584961,0.1486432945499511
-723.8530571460724,660.0,520.0,19576.0,-1238.0,-4034.0,-1933.0,-0.5761494600550287,0.791742655855971,-0.19843233382120576,-0.04266117052662898
-723.8687195777893,852.0,176.0,20368.0,-904.0,-3490.0,-2372.0,-0.5456128306608272,0.8096884795970655,0.1351453565044961,-0.16866219979990982
-723.8843326568604,1224.0,156.0,20320.0,-436.0,-2596.0,-2717.0,-0.49781607493709396,0.7217798577559982,0.4341791804871262,-0.20664324741806658
-723.8999636173248,1332.0,-28.0,20484.0,-117.0,-1681.0,-2915.0,-0.45994185462322285,0.5622296356680921,0.6648583645131944,-0.17411112049238903
-723.915559053421,1548.0,-952.0,19696.0,-70.0,-1009.0,-2744.0,-0.4260675244851632,0.3782847190022956,0.8149394305117412,-0.10602292462311266
-723.9312965869904,2524.0,-1936.0,18444.0,-359.0,216.0,-2438.0,-0.4420336618129573,0.2152204628696542,0.8706320821849548,0.01691660890042814
-723.9469060897827,3744.0,-3024.0,17224.0,-722.0,890.0,-2207.0,-0.4817164127639516,0.07234199217978927,0.8566881510529336,0.16970959220620235
-723.962504863739,5200.0,-3820.0,15740.0,-1089.0,1012.0,-1984.0,-0.5094301839044432,-0.04419099310105458,0.7921297489134528,0.3332544144375858
-723.9782059192657,6012.0,-4128.0,14692.0,-1073.0,795.0,-1829.0,-0.5056516408668305,-0.14326098418583932,0.7047921289323562,0.47650893327804833
-723.9948244094849,5948.0,-4412.0,14392.0,-982.0,288.0,-1814.0,-0.45287583432118306,-0.21982924797177297,0.6183307148278405,0.6035277189363789
-724.0104851722717,5444.0,-3496.0,15032.0,-966.0,-285.0,-2677.0,-0.3057066486491963,-0.3017726944392858,0.5115434614852886,0.7441773799801894
-724.0260970592499,5276.0,-1880.0,16132.0,-1002.0,-1256.0,-2970.0,-0.07976163410894706,-0.3126555936798464,0.38524777611876154,0.8645627290489233
-724.0416932106018,5584.0,-1216.0,17176.0,-1104.0,-1221.0,-3415.0,0.1792888735451181,-0.31093171468920233,0.20612602172702207,0.9103235863089268
-724.0586359500885,5860.0,-1768.0,17588.0,-1217.0,-163.0,-4188.0,0.45039922068485905,-0.3664829287725132,-0.0064548637514388815,0.8141186275099859
-724.0766749382019,5660.0,-2364.0,16228.0,-1307.0,1305.0,-5113.0,0.6981235238820076,-0.4584935313655091,-0.1912244371000977,0.5155971700410155
-724.094705581665,5140.0,-2152.0,14828.0,-1221.0,2556.0,-5490.0,0.8265934630282454,-0.4894718575648764,-0.27298010965540664,0.05140435062798228
-724.1126997470856,5104.0,-2384.0,14076.0,-879.0,1736.0,-5010.0,0.7722256754562246,-0.3993606170834515,-0.33105795513389896,-0.36685042460308487
-724.1307382583618,4792.0,-3192.0,14240.0,-444.0,1051.0,-4597.0,0.5914643967203025,-0.24272866343199678,-0.37529751242592907,-0.671121777718258
-724.148679971695,4548.0,-3780.0,14480.0,-140.0,529.0,-3804.0,0.36321133576876596,-0.08943735249386586,-0.39835075339753706,-0.8374933807592579
-724.1644270420074,4396.0,-3560.0,14844.0,209.0,176.0,-2744.0,0.16572501072583115,0.024702102297891482,-0.4173360100390874,-0.8931716977640091
-724.195662021637,4188.0,-2372.0,15592.0,546.0,293.0,-1541.0,0.05456339147680984,0.11034246202912987,-0.44746755405198874,-0.8857878783628893
-724.2112872600555,4280.0,-1940.0,15364.0,543.0,263.0,-1911.0,-0.08679926905631245,0.20470169696731103,-0.4626025711498463,-0.8582318820199727
-724.2268812656403,4132.0,-1308.0,15256.0,612.0,537.0,-2140.0,-0.23177765487255042,0.3202765439106362,-0.4649484482930692,-0.7921647521521684
-724.24249792099,3992.0,-840.0,15040.0,692.0,493.0,-2513.0,-0.3944710770595301,0.4308633692826454,-0.44074867676072377,-0.6815349809859886
-724.2581346035004,3996.0,-704.0,14980.0,703.0,376.0,-2809.0,-0.5558404978109234,0.5203719979709915,-0.37770741175629535,-0.5268694675394877
-724.2737169265747,4168.0,-796.0,15336.0,514.0,-179.0,-3051.0,-0.7003094443394051,0.5673073868646126,-0.2451781415189482,-0.35723478259989333
-724.2899141311646,4236.0,-1288.0,15756.0,267.0,-521.0,-3136.0,-0.7924102126082416,0.5796797208226262,-0.06384702670338534,-0.1788324170901375
-724.3056001663208,3852.0,-1620.0,16220.0,204.0,-54.0,-3040.0,-0.8220039782544066,0.5619732817044397,0.08754002632483852,0.028848469202333884
-724.3212232589722,3664.0,-2316.0,16792.0,113.0,467.0,-2985.0,-0.7964315598518735,0.5121711130314044,0.1941044140034119,0.25632205896581806
-724.3368680477142,3772.0,-2620.0,17012.0,181.0,642.0,-2888.0,-0.7269443914097636,0.4222139509635521,0.2735770298502251,0.4673786903015206
-724.352522611618,3864.0,-2812.0,16964.0,358.0,958.0,-3049.0,-0.6149476404177426,0.2767495013198847,0.32699953583283825,0.6620577139713381
-724.3681151866913,3640.0,-2160.0,16568.0,558.0,972.0,-3313.0,-0.444551297489943,0.09178524818276296,0.37004227823450975,0.8105666687170469
-724.3837456703186,3628.0,-1720.0,16236.0,860.0,883.0,-2913.0,-0.2640687952638452,-0.09458172447810065,0.40459460328518754,0.870416667898284
-724.3993399143219,3480.0,-1504.0,15848.0,993.0,830.0,-2721.0,-0.07592957825013291,-0.26742984485020277,0.4238485634020508,0.8620141370837088
-724.414924621582,3204.0,-1552.0,15592.0,977.0,684.0,-2523.0,0.1082260674282599,-0.4067161073929181,0.42148080801175275,0.8032577760556856
-724.4305324554443,3008.0,-1852.0,14820.0,1031.0,121.0,-2230.0,0.290140050976694,-0.4765471716235698,0.40638608337555954,0.7235826803313428
-724.4461631774902,2776.0,-2048.0,15264.0,990.0,-611.0,-1879.0,0.4631817149403704,-0.4707636031496303,0.3683954623328094,0.6543157588099727
-724.4618232250214,2608.0,-1136.0,15836.0,699.0,-1052.0,-2024.0,0.6279213833498373,-0.43799318243103336,0.27658004653326745,0.5808443735938377
-724.4774057865143,2368.0,-572.0,16108.0,504.0,-1181.0,-1744.0,0.750891082726948,-0.3856145179824718,0.16764739373115298,0.5092723993870563
-724.4929840564728,2508.0,48.0,16332.0,438.0,-1065.0,-1931.0,0.8508916555593428,-0.33130399940337324,0.05123620908998812,0.4044699016699482
-724.5085754394531,3020.0,160.0,16360.0,409.0,-797.0,-2295.0,0.9261963022725187,-0.2764901787563939,-0.05862824826523476,0.24955223744402813
-724.5241510868073,3444.0,140.0,16568.0,297.0,-704.0,-2743.0,0.9603497883705446,-0.21625379535220882,-0.17012524746838933,0.04494418923770183
-724.539781332016,3280.0,68.0,16796.0,106.0,-717.0,-3018.0,0.9300853059127666,-0.15392713191933374,-0.27670892919618306,-0.18622548237914505
-724.5554339885712,3516.0,-400.0,17136.0,48.0,-1008.0,-2947.0,0.8285072151224728,-0.09176158659029265,-0.3847345324789918,-0.39640250407207084
-724.5711047649384,3608.0,-660.0,17552.0,-225.0,-677.0,-2773.0,0.6870029244848894,-0.03716945382146909,-0.4345273732218415,-0.5812326344698391
-724.5867054462433,3328.0,-1032.0,17176.0,-382.0,-438.0,-2374.0,0.5367307345956547,0.0075440806306468254,-0.4390232254168047,-0.7205010846157502
-724.6023051738739,3160.0,-1776.0,16424.0,-353.0,-255.0,-2060.0,0.39117246101865605,0.05296101624971679,-0.42017202431637857,-0.8170891667867601
-724.61794090271,3136.0,-1564.0,15752.0,-88.0,275.0,-1791.0,0.2706274921456357,0.13350645002473582,-0.3911523335157216,-0.8694461687085419
-724.6335418224335,3252.0,-1748.0,15092.0,140.0,305.0,-905.0,0.21003882602250634,0.1900654238061006,-0.3824881450904536,-0.8794666822010705
-724.6491792201996,3352.0,-1368.0,14792.0,150.0,-108.0,-134.0,0.19366545329244486,0.18882457591971807,-0.39351660798669363,-0.878626001759803
-724.6647663116455,3504.0,-960.0,15008.0,68.0,-958.0,283.0,0.18069822519736625,0.10624124094031974,-0.4178312570750144,-0.8840124381167361
-724.68035364151,3424.0,-424.0,15532.0,24.0,-1636.0,864.0,0.18512334661096996,-0.05057926787037163,-0.4475069861255284,-0.8734463816228778
-724.6959493160248,3500.0,-176.0,16292.0,-23.0,-2009.0,1059.0,0.1837586145976254,-0.2408286868791367,-0.4642973804144115,-0.8322633343344806
-724.711549282074,3420.0,108.0,16924.0,-127.0,-1916.0,1033.0,0.17537981921104806,-0.4164000372170935,-0.45573960827368826,-0.7669122097539253
-724.7271039485931,3556.0,428.0,17136.0,-201.0,-1402.0,933.0,0.17291397144078344,-0.5444356389404965,-0.42508955604859056,-0.7021320836355801
-724.7427098751068,3296.0,308.0,17136.0,-265.0,-618.0,805.0,0.1859835109269926,-0.613532615821849,-0.37825999526203613,-0.6677628613291045
-724.7583210468292,3284.0,200.0,16344.0,-230.0,-431.0,750.0,0.20257006499908847,-0.665041362450534,-0.3306167655340431,-0.6382616307941517
-724.7739939689636,2940.0,-60.0,16132.0,-61.0,-74.0,803.0,0.24106889412537963,-0.6916104544405312,-0.2811641339328005,-0.6200866853783803
-724.7896013259888,2904.0,-268.0,15744.0,-25.0,-283.0,857.0,0.278181826784901,-0.7261504586574753,-0.23326639183583386,-0.5838725657864434
-724.8051950931549,2860.0,-512.0,15444.0,-250.0,-714.0,858.0,0.2901331732357096,-0.7821144919732761,-0.18254156894631676,-0.5203827810757954
-724.8207919597626,2908.0,-348.0,15408.0,-110.0,-1015.0,827.0,0.30208674742141245,-0.8386230971354546,-0.1458200532494938,-0.42917526729018823
-724.8363835811615,2968.0,-172.0,16092.0,-142.0,-1186.0,686.0,0.3001842893528926,-0.889081183573344,-0.12068188331349297,-0.3238208215687019
-724.8521304130554,3100.0,20.0,16048.0,-132.0,-1360.0,709.0,0.2930702420272196,-0.93006287182739,-0.09669331216483237,-0.19935719467551072
-724.8677611351013,3148.0,152.0,16296.0,64.0,-1356.0,648.0,0.2956085655495911,-0.9493248041483353,-0.07921049621193432,-0.07157995174835448
-724.8833360671997,3272.0,108.0,16412.0,218.0,-1212.0,513.0,0.30647707230724974,-0.9483958127060546,-0.06887407994650474,0.04328449726081815
-724.8989267349243,3324.0,132.0,16592.0,403.0,-914.0,467.0,0.33110121129870945,-0.9326408758954375,-0.05290119385026421,0.13324581860131746
-724.9145021438599,3352.0,44.0,16556.0,502.0,-582.0,312.0,0.36475338498347865,-0.9103962952025222,-0.03838695030539355,0.19146800221151203
-724.9301595687866,3400.0,-128.0,16588.0,400.0,-310.0,348.0,0.3891880594551864,-0.8923335681935709,-0.013901703325137686,0.22821086761391457
-724.9457998275757,3456.0,-468.0,16528.0,272.0,-188.0,383.0,0.4021906143776515,-0.8789202419521766,0.01494122977672021,0.2559661650414248
-724.9614269733429,3512.0,-280.0,16464.0,142.0,-139.0,335.0,0.40561332818527174,-0.8698515697841392,0.0389047538545923,0.27806922639883996
-724.9770176410675,3380.0,-292.0,16272.0,42.0,-8.0,204.0,0.40387780914066834,-0.8672945546898071,0.05511167464943752,0.2857368964737974
-724.9927098751068,3228.0,-168.0,16352.0,-140.0,-490.0,19.0,0.3948361803321006,-0.8590255870616473,0.035736554913167774,0.3238862919561237
-725.0083150863647,3312.0,96.0,15700.0,-5.0,-668.0,-135.0,0.3997176905438209,-0.8392041153985541,0.0024337958326438396,0.3687225206063356
-725.0239400863647,2748.0,184.0,15824.0,-303.0,-915.0,-256.0,0.3845635025143813,-0.8172359875603806,-0.057788339950555614,0.4253195985795146
-725.0395424365997,2724.0,12.0,15796.0,-265.0,-1173.0,-36.0,0.3591641131464236,-0.7780585677126833,-0.10897704173661868,0.5037360513314152
-725.0551588535309,2700.0,-188.0,15772.0,-266.0,-1312.0,-392.0,0.3433759904487897,-0.7195860035697512,-0.18704953408173508,0.5738478757036856
-725.0708062648773,2832.0,-496.0,15960.0,-200.0,-1298.0,-444.0,0.32951448438638364,-0.6484871760235073,-0.26194195384660957,0.6342483740047374
-725.0864434242249,3020.0,-688.0,16040.0,-86.0,-1280.0,-464.0,0.31887280251983124,-0.5653814481866275,-0.3274481000029195,0.6866161195777581
-725.1020340919495,3224.0,-856.0,16248.0,-65.0,-1302.0,-459.0,0.3038155921996462,-0.47248676562996544,-0.3873842116698197,0.7310169729834353
-725.1176133155823,3416.0,-812.0,16560.0,-15.0,-1405.0,-326.0,0.2743811234952498,-0.36916229758051006,-0.43553871789944076,0.7737830589545591
-725.1332032680511,3584.0,-768.0,16244.0,43.0,-1369.0,-235.0,0.23790566282956957,-0.26466074782454674,-0.46945459948573814,0.8080643310877298
-725.1487739086151,3856.0,-960.0,16264.0,91.0,-1200.0,-130.0,0.19895241211908762,-0.1717226555639639,-0.4881138168695411,0.8322704903209686
-725.1644220352173,3896.0,-832.0,15932.0,61.0,-1266.0,252.0,0.12686861798048985,-0.08875915048666008,-0.4985764004865138,0.8529054694715694
-725.1800622940063,4000.0,-612.0,16144.0,-44.0,-1307.0,3.0,0.06902160214985516,0.007958700376336149,-0.5128022220545568,0.8556906909514067
-725.1956746578217,4352.0,-276.0,16356.0,-142.0,-1179.0,276.0,-0.004203861210121287,0.08239713206279504,-0.5275472631693592,0.8455098611496329
-725.2112853527069,4512.0,-520.0,16164.0,-171.0,-1108.0,325.0,-0.07754811807630914,0.14852601788195202,-0.5391332873248803,0.8253857340015157
-725.2268810272217,4676.0,-608.0,16660.0,-192.0,-1094.0,432.0,-0.1567998298607273,0.20720245287480848,-0.5480393210276147,0.795068462137633
-725.242466211319,4724.0,-544.0,16232.0,-249.0,-656.0,441.0,-0.21371560650212645,0.23441978590564908,-0.5626939393643369,0.7633796788728542
-725.2580716609955,4244.0,-508.0,16292.0,-90.0,-433.0,203.0,-0.24644863182870128,0.25473260083431226,-0.5641144959724582,0.7457541212596063
-725.2736721038818,4596.0,-352.0,16316.0,10.0,-194.0,-119.0,-0.24843230212257553,0.27293170493768243,-0.5563922192641227,0.744457771834126
-725.2893781661987,4628.0,-84.0,16216.0,93.0,27.0,-319.0,-0.22851347923817994,0.28450800281347843,-0.5429625420376308,0.756325633629842
-725.3049788475037,4424.0,-112.0,16084.0,142.0,271.0,-412.0,-0.19180457618401212,0.2829959278701737,-0.5280871137092304,0.7773341042936589
-725.3205642700195,4696.0,-364.0,15996.0,115.0,268.0,-317.0,-0.16066220488548663,0.2772708749634558,-0.5164236721103103,0.7941127808456658
-725.3361508846283,4384.0,-660.0,15992.0,70.0,43.0,-287.0,-0.14046795583026694,0.2861128708368867,-0.504901149363753,0.8021739262139492
-725.3517637252808,3888.0,-696.0,15732.0,65.0,-160.0,-374.0,-0.1228680723454946,0.31275555218618645,-0.48857648389905395,0.8052207279719351
-725.3674211502075,4128.0,-528.0,16040.0,249.0,-158.0,-206.0,-0.1218541403243844,0.3297601372089316,-0.4633739206569494,0.8134460215950159
-725.3830056190491,3992.0,-752.0,15896.0,32.0,-186.0,-133.0,-0.12082142932954208,0.3478721561118224,-0.4550492678727945,0.8107510771040098
-725.3986163139343,3872.0,-672.0,15808.0,147.0,-205.0,-167.0,-0.12155907744061216,0.36726494378854674,-0.43711117513581577,0.811956693627911
-725.4142072200775,3872.0,-648.0,15768.0,155.0,-304.0,76.0,-0.1434399798099024,0.3840103011416776,-0.4249926566998443,0.8070578062074744
-725.4298219680786,3976.0,-700.0,15768.0,135.0,-450.0,3.0,-0.16472784147345995,0.41348100790048603,-0.40946204266545083,0.7963912543249889
-725.4454183578491,3920.0,-836.0,15992.0,100.0,-590.0,406.0,-0.21721824203817328,0.4375874928220181,-0.40773732749974073,0.7714166793730577
-725.4610505104065,3808.0,-1016.0,16120.0,49.0,-551.0,460.0,-0.26915716675380946,0.456400219048283,-0.41062969278194006,0.7420488629757147
-725.4767143726349,3964.0,-784.0,16076.0,10.0,-512.0,507.0,-0.32013297787102807,0.4701421737310129,-0.4172091984076204,0.7088142900104205
-725.4923055171967,3928.0,-692.0,16228.0,31.0,-482.0,568.0,-0.37333842066329737,0.47732124066453074,-0.42412240453557887,0.672980715056581
-725.5079367160797,4128.0,-660.0,16372.0,30.0,-393.0,557.0,-0.42114502987546093,0.4778846057620261,-0.431884299018734,0.6385445322355885
-725.5235357284546,4188.0,-612.0,16312.0,82.0,-315.0,528.0,-0.4652284277873058,0.4717572420056747,-0.43700846098989277,0.6083019148556055
-725.5391392707825,4188.0,-612.0,16228.0,68.0,-229.0,420.0,-0.49866724811490604,0.46464838754550086,-0.4408894718391353,0.5839942852719376
-725.5547134876251,4208.0,-516.0,16164.0,105.0,-130.0,256.0,-0.5208423891479911,0.45661904551074783,-0.4399903160137933,0.5715162069071609
-725.570338010788,4056.0,-424.0,16024.0,92.0,-62.0,167.0,-0.5351917976469008,0.4489749396118941,-0.4390546468906146,0.5649975755485439
-725.5859749317169,4044.0,-488.0,15788.0,75.0,-62.0,82.0,-0.5445711583735541,0.4452872110891368,-0.43552679047484955,0.561674254249579
-725.6015691757202,4004.0,-560.0,15892.0,66.0,-109.0,41.0,-0.553307554031633,0.4458318666379593,-0.4285529877482566,0.5580564792507001
-725.6171607971191,4092.0,-624.0,16044.0,77.0,-250.0,88.0,-0.5698331733862121,0.4507937819319837,-0.4159092379497085,0.5468954438173268
-725.6327605247498,4068.0,-540.0,16052.0,35.0,-290.0,114.0,-0.5870194785752626,0.4585087906181662,-0.4040262476682676,0.5309808018132041
-725.648325920105,4096.0,-664.0,16108.0,10.0,-290.0,166.0,-0.6051450965435541,0.4653045057518962,-0.3950576382977401,0.5110974383411524
-725.6639523506165,4220.0,-904.0,15896.0,74.0,-212.0,197.0,-0.624101411269777,0.4638202419790677,-0.3883056561612774,0.49455730605735815
-725.679544210434,4252.0,-884.0,16104.0,98.0,-95.0,233.0,-0.6412354719579713,0.4544744488175922,-0.3881026756901793,0.48129653852578985
-725.6951105594635,4240.0,-824.0,16064.0,59.0,-17.0,22.0,-0.6451335152304782,0.4510493128194845,-0.38541325635182927,0.48147054609780254
-725.7106883525848,4292.0,-860.0,16024.0,72.0,37.0,281.0,-0.6583870651734115,0.4357599690617067,-0.39527840503501627,0.46946214361613464
-725.7262513637543,4340.0,-516.0,16028.0,106.0,0.0,280.0,-0.6737324119281332,0.4197826629147222,-0.40131752117444164,0.4569588605466868
-725.7418563365936,4352.0,-836.0,15984.0,143.0,-46.0,316.0,-0.6929356219619229,0.4018718873899671,-0.40416262603492525,0.441578737778917
-725.7574498653412,4324.0,-856.0,16060.0,187.0,-65.0,358.0,-0.7152041767117794,0.38011673486991154,-0.40518133081174484,0.42405464582702834
-725.7730505466461,4160.0,-856.0,15936.0,110.0,-106.0,350.0,-0.7352256640304935,0.36451546385290856,-0.4057318360970901,0.40243431357216924
-725.7887108325958,4176.0,-712.0,15864.0,70.0,-159.0,303.0,-0.7534557823657374,0.35463756842361677,-0.40237029835893734,0.38030871943824646
-725.8043050765991,4176.0,-644.0,15864.0,111.0,-169.0,274.0,-0.7716622504616246,0.3430966228598099,-0.39572167999690505,0.3608689936460615
-725.8199396133423,4232.0,-684.0,16044.0,56.0,-125.0,506.0,-0.792849363661852,0.32536756022458213,-0.400112861531141,0.32470838506552524
-725.835541009903,4228.0,-612.0,15936.0,-27.0,-77.0,506.0,-0.8083922994486806,0.3113623950638416,-0.4093468772607768,0.28633980374553836
-725.8511402606964,4236.0,-616.0,16224.0,25.0,-21.0,168.0,-0.8140198609356475,0.3040164879890383,-0.41159474132795476,0.2748370607183349
-725.8667941093445,4184.0,-684.0,16148.0,65.0,64.0,117.0,-0.816274460030712,0.2935662033210677,-0.41748560005276647,0.2705931704936484
-725.8824045658112,4148.0,-724.0,16180.0,152.0,203.0,0.0,-0.8126639042097901,0.2778079961718789,-0.42808589408670045,0.28132288094191144
-725.8979959487915,4152.0,-872.0,16012.0,163.0,225.0,-46.0,-0.8069258522719899,0.2623019781940796,-0.4386245146069903,0.2961028138271866
-725.9135904312134,4088.0,-932.0,15992.0,154.0,283.0,-58.0,-0.7978818515628819,0.24620881944616502,-0.4528920292481844,0.3124973248157087
-725.9292941093445,4048.0,-844.0,16016.0,120.0,176.0,-14.0,-0.7930721646305964,0.2335174576226537,-0.46132325776702365,0.3220046436261636
-725.9448864459991,3872.0,-812.0,16012.0,98.0,41.0,-27.0,-0.7927109425297497,0.2266147208837848,-0.46066262997125224,0.3287021010281637
-725.9605479240417,4096.0,-776.0,16092.0,61.0,14.0,-15.0,-0.7929981206730506,0.22255170464406618,-0.45940229207309147,0.3325270716904415
-725.9761619567871,4084.0,-728.0,15996.0,24.0,49.0,-255.0,-0.7839808600287472,0.22959485378158836,-0.45684925514524405,0.35206387531076344
-725.9917879104614,4044.0,-716.0,15972.0,67.0,46.0,4.0,-0.7836771032417826,0.22338980765358907,-0.45783118061872924,0.3554402927979908
-726.0074262619019,4012.0,-772.0,15936.0,80.0,9.0,-38.0,-0.7837585219828411,0.21911065187185003,-0.45503273792602594,0.36146688488865736
-726.023068189621,3960.0,-832.0,16040.0,64.0,-15.0,-71.0,-0.7833933679310316,0.21797881154707385,-0.4504335896900744,0.3686321338097296
-726.0386626720428,3852.0,-808.0,16324.0,85.0,23.0,-80.0,-0.7815731859067403,0.21451917055369635,-0.44754378456376415,0.37792782569544286
-726.0542593002319,4008.0,-764.0,16048.0,62.0,-59.0,-94.0,-0.7819707987686917,0.21585562602614505,-0.439502443522781,0.38570146580408554
-726.0855133533478,3984.0,-648.0,15900.0,22.0,-13.0,-96.0,-0.779703644560627,0.21842522203800574,-0.43586371203909957,0.39290644378022116
-726.1167423725128,3956.0,-1004.0,16044.0,83.0,47.0,-21.0,-0.778829250456823,0.21191572692466779,-0.4356121018725677,0.39844550445075466
-726.1323211193085,4032.0,-848.0,16028.0,53.0,246.0,-1.0,-0.7703169192256591,0.19970882839842463,-0.45017798050285746,0.4050530998335735
-726.147917509079,4076.0,-648.0,16152.0,50.0,-29.0,-20.0,-0.7716890910825005,0.19812127661432813,-0.4459195089907048,0.4079211908671352
-726.1635267734528,4048.0,-640.0,15900.0,33.0,-104.0,27.0,-0.7773099101911141,0.1985070665870766,-0.4379970012398814,0.4056388479159107
-726.179132938385,4104.0,-480.0,16168.0,253.0,-148.0,76.0,-0.789843012742917,0.18357400682865166,-0.4199758875441191,0.40751546365701996
-726.194753408432,4220.0,-348.0,16132.0,-53.0,-192.0,100.0,-0.7995155304828321,0.19032004759355242,-0.40994923474329975,0.39559426301973405
-726.2103643417358,4404.0,-376.0,16108.0,-81.0,-166.0,78.0,-0.8067577570212252,0.19884524372291468,-0.40219395111964656,0.38450294695570775
-726.2259967327118,4460.0,-240.0,16028.0,-103.0,-154.0,64.0,-0.8124845289466796,0.20894645652025579,-0.39565744857267054,0.3737184126035079
-726.241592168808,4372.0,72.0,16120.0,-108.0,-95.0,197.0,-0.8201180868453736,0.21280130606019643,-0.39574733747102636,0.35426822134189884
-726.2571914196014,4100.0,-60.0,15764.0,-163.0,76.0,270.0,-0.8225713287203071,0.21265423098573322,-0.4108824427276359,0.330651183982979
-726.2728428840637,4104.0,-380.0,15756.0,-300.0,237.0,206.0,-0.8139555274178987,0.2197609373284737,-0.43987501444032806,0.30934042975576687
-726.2884516716003,4028.0,-732.0,16032.0,-316.0,282.0,120.0,-0.7998108643280419,0.22977891179952434,-0.47021913966045886,0.29393569652567625
-726.3040742874146,4092.0,-696.0,15948.0,-353.0,226.0,19.0,-0.7835121252526749,0.24764052620355637,-0.49493754007877444,0.2825238941831892
-726.3196485042572,3980.0,-560.0,15972.0,-348.0,226.0,-53.0,-0.7645053724609493,0.267939453167902,-0.5173333197777643,0.275873560099819
-726.3352680206299,3796.0,-392.0,16164.0,-386.0,198.0,-117.0,-0.7432436758684595,0.2939473827737746,-0.5365533095249989,0.2707292383171036
-726.3508658409119,3632.0,-400.0,16256.0,-370.0,217.0,-207.0,-0.7181699476413955,0.3221996501513527,-0.5534588439499117,0.272217963773019
-726.3664786815643,3828.0,-280.0,16372.0,-179.0,348.0,-278.0,-0.6892045492781733,0.3382455603121845,-0.5710922779123486,0.2905867173362382
-726.3820676803589,3840.0,-808.0,16272.0,4.0,511.0,-222.0,-0.6575280891218226,0.33567730763548514,-0.5943661661307318,0.3189144363515891
-726.3976438045502,3792.0,-1036.0,16328.0,-52.0,756.0,-325.0,-0.6062493152627663,0.33358474875410843,-0.6279546689608226,0.3561683827523004
-726.4132931232452,3936.0,-808.0,16268.0,-131.0,437.0,-352.0,-0.5668949665226267,0.34576396954466687,-0.643994793591456,0.37993167823060336
-726.428896188736,4156.0,-1112.0,15880.0,-163.0,465.0,-407.0,-0.5215934373870306,0.36070665267580837,-0.6590128723810755,0.40439217453635246
-726.4445323944092,4188.0,-952.0,15900.0,-162.0,441.0,-471.0,-0.47375896906553583,0.37895236367799523,-0.6687707352418785,0.42975952459120487
-726.460126876831,4016.0,-1212.0,15712.0,-240.0,288.0,-489.0,-0.4300940638734553,0.4060143391799655,-0.6724584598090166,0.44493940310154295
-726.4757611751556,3740.0,-984.0,15512.0,-344.0,-81.0,-473.0,-0.4037981070279131,0.4492238815526202,-0.6650598085347073,0.4391360200157236
-726.4913659095764,3736.0,-1164.0,15688.0,-360.0,-376.0,-505.0,-0.3914138446893447,0.5046115728508017,-0.6444472962179166,0.4205354267216522
-726.506963968277,3604.0,-1444.0,15988.0,-341.0,-553.0,-425.0,-0.3910513100338016,0.5591634165353527,-0.6178733961534203,0.3907014369761105
-726.522608757019,3576.0,-1240.0,16028.0,-355.0,-521.0,-422.0,-0.38663359364604516,0.6104473078831796,-0.5902527918932508,0.35981966347706223
-726.5381948947906,3624.0,-1108.0,16012.0,-284.0,-374.0,-427.0,-0.3768294196833058,0.6527520442011233,-0.5628875641567351,0.3392225631795373
-726.5538132190704,3712.0,-1036.0,15848.0,-196.0,-326.0,-421.0,-0.36880899424751856,0.6886672347347158,-0.5332840486286174,0.3245388867967039
-726.5693941116333,3892.0,-1108.0,15876.0,-186.0,-369.0,-420.0,-0.36247496844870636,0.7236767289477563,-0.5007253255950808,0.30688440419038165
-726.5849871635437,3976.0,-1228.0,16080.0,-242.0,-417.0,-582.0,-0.3491124431400073,0.7662508773680949,-0.45622168021131243,0.2878226424077975
-726.6005675792694,3872.0,-1276.0,16168.0,-263.0,-768.0,-647.0,-0.34448788228169325,0.8159589639021742,-0.39450246279593987,0.24475880992663482
-726.6161644458771,3624.0,-1116.0,16292.0,-250.0,-500.0,-700.0,-0.3279924261332942,0.8556284574105963,-0.3339064586334041,0.2209692018161303
-726.6318118572235,3992.0,-1168.0,16284.0,-140.0,-230.0,-663.0,-0.31089330394345843,0.8816551804510991,-0.27993657354886303,0.21832318048384625
-726.6474347114563,3840.0,-1140.0,16344.0,-109.0,-94.0,-628.0,-0.29241787017468585,0.9003033123735708,-0.2307493663771566,0.22516763721329486
-726.6630845069885,4076.0,-1100.0,16396.0,-98.0,70.0,-656.0,-0.2699991583066198,0.9130709098900411,-0.18258345507418294,0.2450821290087533
-726.6786870956421,4008.0,-932.0,16108.0,-66.0,207.0,-669.0,-0.24670330301456908,0.9191025509614376,-0.13528441878656636,0.2758371025287588
-726.6942808628082,3996.0,-844.0,16092.0,-162.0,6.0,-648.0,-0.2177004451726693,0.9284943430323932,-0.0871659996441012,0.2879355129790536
-726.7098615169525,4044.0,-740.0,16036.0,-184.0,140.0,-496.0,-0.18907355061167555,0.9311561144659468,-0.05418036416240771,0.3070243819161656
-726.725501537323,4324.0,-864.0,15832.0,-196.0,102.0,-472.0,-0.15987512777056154,0.9328954537135805,-0.022721578524387293,0.32191574337121087
-726.7411007881165,4636.0,-1032.0,15924.0,-203.0,70.0,-401.0,-0.13186067962584375,0.9337908577011614,0.003253769841232356,0.332621118127157
-726.7567269802094,4732.0,-1116.0,16360.0,-228.0,275.0,-283.0,-0.1050784850090545,0.9275848555813302,0.016525009225169682,0.35815048758095075
-726.7723307609558,4432.0,-1004.0,16004.0,-174.0,328.0,-175.0,-0.0859571769320165,0.9180504660311181,0.022232143640914578,0.386394147656321
-726.7879574298859,4224.0,-896.0,15840.0,-237.0,278.0,-118.0,-0.0635057494652327,0.9096750963472009,0.021595554581235472,0.40986811402315604
-726.8035318851471,4048.0,-820.0,15568.0,-232.0,5.0,-94.0,-0.04173362754604403,0.9103494840021592,0.02072493798548366,0.4112087040109297
-726.8191230297089,4104.0,-728.0,15412.0,-190.0,-40.0,-168.0,-0.020537528510121816,0.9119066762883763,0.027392230623125617,0.40896710058985436
-726.8347027301788,4296.0,-1024.0,15488.0,-52.0,-47.0,-301.0,-0.0055476092986637355,0.9125886497876116,0.04955929101195538,0.4058263877377684
-726.8503017425537,4484.0,-900.0,15416.0,89.0,-36.0,-349.0,-0.00012560459094073878,0.9118190012078636,0.08048727545298882,0.40262624324543883
-726.8660142421722,4560.0,-920.0,15656.0,340.0,-279.0,-318.0,-0.014043304343610842,0.9183226720024671,0.11761374304215289,0.37769466919322076
-726.8816134929657,4096.0,-1064.0,15684.0,581.0,-405.0,-141.0,-0.05172032306161446,0.9276461123593723,0.14826812224449584,0.3388425332407903
-726.8971924781799,4032.0,-984.0,15964.0,739.0,-450.0,144.0,-0.10969419721693005,0.9367185164648679,0.16002366930680503,0.2914069821922193
-726.9128091335297,3984.0,-796.0,15892.0,852.0,-275.0,524.0,-0.18810572227039515,0.9390114058558043,0.14090234926802875,0.25103853268490367
-726.9285163879395,3856.0,-1524.0,16268.0,1073.0,-25.0,838.0,-0.2920992288728775,0.9257049519390432,0.09546068941109502,0.22053489343993274
-726.9441335201263,3740.0,-1404.0,16276.0,1032.0,182.0,1054.0,-0.3940504448230678,0.8971162772179033,0.025303482015410685,0.19815742702035766
-726.9597895145416,3596.0,-1292.0,16072.0,1347.0,313.0,1354.0,-0.5163950537127358,0.8364570550575807,-0.06723916207328408,0.17074729464651103
-726.9754567146301,3724.0,-920.0,15956.0,1304.0,123.0,1566.0,-0.6244644043018263,0.7546950628851606,-0.16507250931348363,0.11502450384886873
-726.991096496582,3532.0,-636.0,16588.0,930.0,-216.0,1606.0,-0.6958635739991491,0.6740417847941086,-0.24647056946800985,0.026340408478577524
-727.0066931247711,3400.0,-748.0,17164.0,559.0,-69.0,1608.0,-0.7260485416838246,0.5989730168344206,-0.3319024546227371,-0.06265461546020726
-727.0222766399384,3448.0,-940.0,18324.0,237.0,539.0,1096.0,-0.7127455748924688,0.5518181425299891,-0.42211352266215213,-0.09649174592526262
-727.0378661155701,3424.0,-1160.0,18224.0,66.0,1381.0,585.0,-0.6546251409057974,0.5331649279674321,-0.5321492766654428,-0.06338952456040309
-727.0535056591034,3464.0,-888.0,17240.0,177.0,2348.0,67.0,-0.5421802856321478,0.5219712206212581,-0.65662770941817,0.04926087635480905
-727.0691449642181,3904.0,-880.0,16084.0,590.0,2818.0,-216.0,-0.3943540836054407,0.47930497064919986,-0.754004586008631,0.21500857223058722
-727.0847537517548,4136.0,-1408.0,14972.0,1026.0,2672.0,-232.0,-0.24938637346189804,0.3968185493793006,-0.7924680954703514,0.3903021819841959
-727.100344657898,4744.0,-1836.0,14632.0,1554.0,2173.0,-133.0,-0.14449016563788955,0.29033458509977483,-0.7616792565385839,0.56095733428462
-727.1159806251526,4948.0,-2288.0,15208.0,2145.0,1204.0,27.0,-0.11743801521150128,0.19800392247458015,-0.6574386152650805,0.717479774227955
-727.1315767765045,5536.0,-1976.0,15664.0,2345.0,209.0,1021.0,-0.20481979965432612,0.0998090347281748,-0.5174039040463733,0.8248516268601058
-727.1471552848816,5448.0,-1908.0,17332.0,2086.0,-247.0,1457.0,-0.33089211758920767,0.014177300891009863,-0.36629015829007366,0.8695636437872782
-727.1627898216248,5832.0,-1572.0,17416.0,1766.0,-94.0,1612.0,-0.44872938730482154,-0.0794132593206245,-0.22641647757882705,0.8608548367140139
-727.1784298419952,5088.0,-1420.0,16752.0,1065.0,630.0,1317.0,-0.5214148932379686,-0.19191498547852626,-0.15975901650859495,0.8159486528591254
-727.1940245628357,4080.0,-1288.0,15920.0,631.0,1099.0,1236.0,-0.5767472038586775,-0.31219371118565814,-0.14230457588958098,0.7413819239893898
-727.2096076011658,3960.0,-1304.0,14860.0,355.0,1068.0,1233.0,-0.6270440183012855,-0.4099458470736013,-0.13794862239552982,0.6478660194506733
-727.2251813411713,3956.0,-1416.0,14412.0,121.0,1013.0,1492.0,-0.6864828895534054,-0.4856273959446737,-0.1314664655833099,0.5249988981754479
-727.24076628685,4068.0,-1608.0,13632.0,14.0,322.0,1778.0,-0.7544354916343996,-0.5150938256701324,-0.07377818254019829,0.4000777668153206
-727.2563464641571,4036.0,-1844.0,13856.0,92.0,-495.0,2117.0,-0.8129725395644738,-0.5082445406132363,0.056260722885630894,0.27856393864123336
-727.272008895874,4368.0,-2124.0,13856.0,217.0,-1481.0,2519.0,-0.8306755778222447,-0.46026266273677174,0.2697288803929025,0.1593194802343009
-727.2876036167145,4980.0,-2236.0,14696.0,260.0,-2457.0,2964.0,-0.7616612311882685,-0.35536642057518697,0.5407025052785734,0.03503821938718546
-727.3032720088959,5284.0,-2092.0,14888.0,905.0,-2720.0,3324.0,-0.5747568884527029,-0.23366230551505024,0.772586878014518,-0.13478116365924106
-727.3188774585724,5680.0,-1640.0,15644.0,1037.0,-2437.0,3110.0,-0.3322788486318208,-0.09851514716305261,0.8910812190362633,-0.2930184185545349
-727.33447098732,6000.0,-1188.0,16160.0,1285.0,-1825.0,3155.0,-0.09347199468968684,0.059641735977905654,0.8890160578855615,-0.44424801446927037
-727.3500623703003,5964.0,-796.0,16100.0,1773.0,-1321.0,2821.0,0.10418592605114996,0.20314206461482767,0.7790680493248239,-0.5838934568207658
-727.365690946579,5776.0,-1296.0,16004.0,1886.0,-896.0,2772.0,0.26122181440619685,0.34750405796593387,0.5987036432037576,-0.6727243424985387
-727.3813543319702,5568.0,-1944.0,15536.0,1800.0,-576.0,2442.0,0.3670290606525384,0.4656475828271501,0.39173494663856745,-0.7035664352609683
-727.3969690799713,5312.0,-2056.0,15240.0,2330.0,-167.0,2393.0,0.4079985446538477,0.5872442346456106,0.14010731043705937,-0.6848732276837275
-727.4125444889069,5248.0,-1904.0,15004.0,2814.0,93.0,2542.0,0.39361848440356956,0.6872967514149475,-0.1472840484484864,-0.5924483718459529
-727.4281220436096,5208.0,-1620.0,14848.0,2507.0,-93.0,2693.0,0.363074858616986,0.6987439049071216,-0.4205335689559036,-0.45064966412570767
-727.4437634944916,5368.0,-1376.0,14928.0,2358.0,-18.0,2585.0,0.30637592159456883,0.6482618593295304,-0.642245554290194,-0.27094465191285894
-727.4593451023102,5048.0,-1084.0,14284.0,2477.0,113.0,2350.0,0.21867059127417252,0.5609914124193622,-0.7961437449438714,-0.06022412382327052
-727.474956035614,4792.0,-468.0,14740.0,2802.0,-140.0,2149.0,0.07938314610744951,0.4437436032927977,-0.8779562481002383,0.16119167804995513
-727.4906320571899,4984.0,-112.0,16076.0,2546.0,-734.0,1606.0,-0.09465678449411134,0.3365350804769539,-0.8778744298709528,0.3272930157158183
-727.506236076355,5012.0,-432.0,15888.0,2001.0,-657.0,1250.0,-0.23420010621688722,0.23760985331542245,-0.8331408779518864,0.44109879317561285
-727.5218350887299,4928.0,-756.0,15888.0,2196.0,-549.0,1191.0,-0.35675838885356775,0.12417816421257179,-0.7436934192243266,0.5515644420354091
-727.5374283790588,4944.0,-1204.0,16096.0,2071.0,-96.0,959.0,-0.4232988005145711,0.0020191654068241627,-0.6387144935158507,0.6425401498947559
-727.5530319213867,5104.0,-1220.0,15984.0,2025.0,545.0,853.0,-0.4327670292083784,-0.14802908729804123,-0.5349476015983741,0.7103739517240274
-727.5687124729156,5736.0,-1256.0,15752.0,1901.0,1000.0,1097.0,-0.42034268416572956,-0.32584602280271874,-0.43108577412382043,0.7289042822209693
-727.584312915802,5928.0,-1568.0,15904.0,1739.0,1501.0,1255.0,-0.38438013308149144,-0.5188930878909525,-0.33118493526301523,0.68798140620665
-727.5999345779419,5664.0,-1536.0,15928.0,1580.0,2034.0,1374.0,-0.32615280408525565,-0.7109684897312195,-0.2347588127013354,0.5770931076140945
-727.6155452728271,5152.0,-1380.0,15916.0,1300.0,2397.0,1496.0,-0.26226429657945766,-0.8679207491471687,-0.13959637015149448,0.39805007898507777
-727.631119966507,4936.0,-1316.0,15500.0,1585.0,2533.0,1611.0,-0.16042856430042537,-0.9701414000203247,-0.01960575411026357,0.1808423460610831
-727.6467108726501,4960.0,-960.0,15108.0,1631.0,2656.0,1506.0,-0.03977517425301911,-0.9931364746620038,0.09236582962553976,-0.05971960923058967
-727.662299156189,5848.0,-952.0,14948.0,1422.0,2400.0,1133.0,0.06775560663450152,-0.9443407085612254,0.16910188231007164,-0.2739239991728799
-727.677930355072,6184.0,-696.0,14544.0,1316.0,2641.0,991.0,0.15532484083721024,-0.8286925082389756,0.22671633430474,-0.487588581046472
-727.6935296058655,5824.0,148.0,14884.0,1098.0,2630.0,532.0,0.19907514144888158,-0.6701351307165132,0.2463256261380721,-0.6712761581825742
-727.7091572284698,5152.0,552.0,15420.0,857.0,2574.0,300.0,0.205682811538741,-0.4842968501659483,0.25128371184389564,-0.8124085413871606
-727.7247412204742,3544.0,1028.0,16704.0,284.0,2209.0,5.0,0.16647261786102624,-0.31637214164781935,0.2659180838773752,-0.8952558897648506
-727.7403147220612,528.0,2524.0,18800.0,-1455.0,706.0,-1082.0,0.025002651899326343,-0.30297575008304883,0.3547574589788487,-0.8841536673896033
-727.7559466362,472.0,4504.0,19788.0,-2845.0,-1063.0,-2965.0,-0.2308380930027635,-0.4528753235850884,0.4627062969934893,-0.7263061329970455
-727.7715337276459,4004.0,4792.0,19096.0,-3939.0,322.0,-4327.0,-0.6000118516492177,-0.4698893563867595,0.47610188762212374,-0.4387673224358953
-727.7871236801147,6840.0,592.0,19220.0,-2977.0,3224.0,-3644.0,-0.8913478039747285,-0.3059882283621379,0.24321340116182724,-0.22960300073937417
-727.8026943206787,8152.0,-3020.0,19920.0,-1160.0,4309.0,-2331.0,-0.970938615413151,-0.16352403978323557,-0.119977379670215,-0.12705715989283428
-727.8182847499847,7232.0,-4376.0,20920.0,-192.0,3632.0,-832.0,-0.898545431029814,-0.09326706272321045,-0.41580258408280724,-0.10500273547146668
-727.8340106010437,3952.0,-4624.0,20152.0,-272.0,2585.0,-658.0,-0.7917099588445052,-0.02364320956842843,-0.6048943735824881,-0.08209224394536
-727.8495986461639,1192.0,-1112.0,18204.0,70.0,1188.0,-525.0,-0.728041951839853,0.0077165527389286455,-0.6840570049884842,-0.04428752760348496
-727.8651993274689,552.0,852.0,17600.0,-9.0,-469.0,-557.0,-0.7567670897050937,0.03964824370409723,-0.6524084873661424,-0.009734183226406797
-727.8808064460754,996.0,1356.0,17932.0,-99.0,-1103.0,-440.0,-0.8153083942935206,0.06991413577323001,-0.5747068083519453,0.009814287927494628
-727.8964123725891,840.0,2244.0,19600.0,-627.0,-536.0,-895.0,-0.8330197062015734,0.15896387114813876,-0.5285092633593844,0.038556650434952676
-727.912086725235,-188.0,2232.0,19560.0,-1178.0,338.0,-1530.0,-0.7846484469779317,0.3095075020607069,-0.5280035086180022,0.09871279405599294
-727.927806854248,-564.0,1280.0,18304.0,-1110.0,887.0,-2034.0,-0.680596932001322,0.4608827238123367,-0.5309544974860465,0.20606371015064562
-727.9434354305267,-1392.0,1216.0,16792.0,-856.0,1531.0,-2255.0,-0.5188603143436348,0.5711569136602872,-0.53028707102987,0.35122553505666587
-727.9590165615082,-1776.0,1772.0,14980.0,-778.0,1657.0,-1913.0,-0.3359451087710924,0.6275496179600344,-0.5200665641962979,0.4720732249302557
-727.9746587276459,-1256.0,1552.0,14304.0,-853.0,999.0,-1627.0,-0.17399449312712967,0.6740781524524228,-0.487301494391311,0.5271449651772805
-727.9902582168579,-296.0,1652.0,14788.0,-1101.0,83.0,-1482.0,-0.03702369542455517,0.7404130500708692,-0.44622047830658856,0.5013033472875495
-728.0058741569519,412.0,1400.0,15856.0,-1146.0,-630.0,-1900.0,0.09377308121190711,0.8290277599507745,-0.3641964942646881,0.4138604789495336
-728.0215075016022,1020.0,2064.0,17180.0,-700.0,-360.0,-2481.0,0.21711232246332976,0.8924066354271927,-0.20757516819567112,0.3367271685335705
-728.0371301174164,1292.0,1916.0,18872.0,217.0,147.0,-3099.0,0.28373724602241773,0.9151927681655292,0.04151517675033313,0.28318167740254396
-728.0527379512787,1140.0,1524.0,19356.0,1111.0,461.0,-3867.0,0.2724296644923175,0.8648210818510489,0.3670743745104493,0.2076607277949949
-728.0683538913727,648.0,472.0,18236.0,1517.0,1585.0,-3544.0,0.16107452303090075,0.7128650222543279,0.6576344955248188,0.18274388737389083
-728.0839893817902,80.0,248.0,16872.0,1815.0,3207.0,-2684.0,-0.08653612357905019,0.4953523577825547,0.8350104300487091,0.2233721617951646
-728.099582195282,280.0,-312.0,16116.0,1854.0,2736.0,-1705.0,-0.31664087038846284,0.28886912151512306,0.8790475799623495,0.20873078833045852
-728.1152153015137,660.0,-328.0,15368.0,1676.0,1345.0,-981.0,-0.43513628486419004,0.13980774223309472,0.878629583971454,0.1382760390538615
-728.1308190822601,816.0,24.0,15052.0,1265.0,1021.0,-564.0,-0.5163545271043587,0.035766895133366,0.8523934990326715,0.07432398238921376
-728.1464493274689,680.0,832.0,14700.0,964.0,43.0,-356.0,-0.51825364872576,-0.03432062927177028,0.8543330411963712,0.018716428852371313
-728.162045955658,1004.0,1436.0,14244.0,928.0,-693.0,-484.0,-0.4603337826431353,-0.11060918309889237,0.8804340417633243,-0.02634986292099315
-728.1776475906372,1720.0,2164.0,14044.0,768.0,-935.0,-1173.0,-0.37975341191759027,-0.23128829415641577,0.895242041025472,-0.028892197973003953
-728.1932666301727,1936.0,3248.0,14124.0,947.0,-938.0,-1982.0,-0.2862478135166338,-0.4111009860699234,0.8652971416566719,-0.017861275152594384
-728.2088887691498,2284.0,4136.0,14176.0,517.0,-1169.0,-2756.0,-0.17761724273609597,-0.6128340505098319,0.7682254173274007,0.052117653349711135
-728.2245121002197,1928.0,4612.0,14116.0,188.0,-1127.0,-3197.0,-0.07429451764802138,-0.7910077213519926,0.5901446775118484,0.14323536230069955
-728.2400903701782,1656.0,3156.0,14324.0,-382.0,-1221.0,-3310.0,0.0034245398872420813,-0.9015116680551278,0.34839302027989427,0.25668519300355996
-728.2557215690613,1236.0,1176.0,14640.0,-587.0,-1261.0,-3303.0,0.06640865155637424,-0.9294465762239682,0.07150554672067677,0.3558172420389218
-728.271345615387,1016.0,172.0,14876.0,-684.0,-1483.0,-2849.0,0.10446274977196303,-0.8700612493470885,-0.18215681469356812,0.4459818955466203
-728.286952495575,1356.0,-688.0,15360.0,-1017.0,-1937.0,-2226.0,0.08018035305402361,-0.7414584875326419,-0.39410867133210725,0.5371115130313076
-728.3026225566864,1544.0,-1276.0,15652.0,-668.0,-2281.0,-1615.0,0.033187072421584404,-0.5660296299709874,-0.5294946503112629,0.6309869186526336
-728.3182232379913,1664.0,-1544.0,16104.0,-758.0,-2144.0,-1282.0,-0.0319134952526846,-0.3810392196372281,-0.6247333914496371,0.6808074849227523
-728.3338227272034,2088.0,-1500.0,15888.0,-33.0,-1964.0,-1053.0,-0.07609828436393139,-0.20293299860735148,-0.6440897903260617,0.7336045196090497
-728.3494205474854,2428.0,-376.0,16084.0,53.0,-1987.0,-849.0,-0.13020449280261964,-0.02776746702487696,-0.6312857931503536,0.7640379605723553
-728.3650205135345,2592.0,1204.0,16016.0,-23.0,-2067.0,-702.0,-0.19385755159077914,0.1464221819994369,-0.6000968464930045,0.7621440606203683
-728.3807015419006,2368.0,1920.0,16112.0,-907.0,-1914.0,-953.0,-0.21476843036637638,0.3322577833036599,-0.6034630179447127,0.692323387388553
-728.3962874412537,2156.0,1772.0,15740.0,-1322.0,-2038.0,-1350.0,-0.19651479115605555,0.5357549244533668,-0.5888244611332298,0.5723935287475048
-728.4119191169739,2292.0,1172.0,15784.0,-1491.0,-1562.0,-1774.0,-0.11507386041542685,0.7097237591938051,-0.5377418370258152,0.4403225056671601
-728.4275040626526,2092.0,300.0,15844.0,-1416.0,-1540.0,-2119.0,-0.017611190066153616,0.854208142455503,-0.4310702076492391,0.2901667993144886
-728.4430894851685,2552.0,-72.0,15688.0,-1253.0,-1789.0,-2286.0,0.06401681141069256,0.951877754986335,-0.27915207943943626,0.10910867959800946
-728.4586930274963,2512.0,-8.0,16044.0,-1246.0,-1748.0,-2297.0,0.1416122323038593,0.9812544663387555,-0.10600072321045048,-0.07648198893218976
-728.4742984771729,2368.0,-64.0,16356.0,-1473.0,-1613.0,-2129.0,0.23063523277343412,0.9392437224170966,0.06402879379536607,-0.24602628491429615
-728.4899725914001,2140.0,172.0,16768.0,-1640.0,-1458.0,-1874.0,0.322948838789448,0.8382265917425258,0.21677026192492405,-0.38221836947647625
-728.5055832862854,1792.0,40.0,17116.0,-1628.0,-1348.0,-1471.0,0.40835540006839194,0.701951467365722,0.33241082921465526,-0.47959675282357594
-728.5211772918701,2444.0,-428.0,17560.0,-1394.0,-1196.0,-1083.0,0.47503087620228934,0.5610534307346807,0.4074636290168716,-0.541791570203645
-728.5367813110352,2356.0,-656.0,17904.0,-955.0,-929.0,-739.0,0.5154146035956763,0.447202428828448,0.44630575788529575,-0.5789377725875903
-728.5523805618286,2128.0,-628.0,17424.0,-410.0,-521.0,-527.0,0.5237178782507915,0.38075834061966446,0.46280399456900406,-0.6054379676399737
-728.5680477619171,2044.0,-284.0,17212.0,55.0,-208.0,-332.0,0.5125062718514664,0.3585583653724474,0.46103997164546784,-0.6294564039546309
-728.5836811065674,2268.0,148.0,16860.0,241.0,-220.0,-154.0,0.5051681012656744,0.35078551914222,0.44243993694917155,-0.6526879891771946
-728.5992774963379,2488.0,696.0,16316.0,509.0,-327.0,189.0,0.5122575329615027,0.361248786516143,0.39250887697010345,-0.6730737817390285
-728.6148636341095,2548.0,732.0,16320.0,87.0,-331.0,444.0,0.5463493720755283,0.36035932154392497,0.3580400490897567,-0.6659210510690308
-728.6304347515106,2280.0,440.0,16076.0,-135.0,-313.0,573.0,0.5927470192740877,0.3529107603054779,0.33224412342404785,-0.6432097704889752
-728.6460137367249,2168.0,56.0,15864.0,-144.0,-187.0,610.0,0.6358878402604522,0.3519398947593682,0.3112246063777421,-0.6123105498606746
-728.6615967750549,2480.0,-248.0,15888.0,-228.0,24.0,1023.0,0.6940910520933387,0.36667981209712436,0.2919674837753224,-0.5463867817053104
-728.6771712303162,2860.0,-672.0,16156.0,-323.0,-83.0,791.0,0.7422677528261938,0.3621423051213061,0.27613015316962736,-0.4915726522766473
-728.6927695274353,3240.0,-884.0,16600.0,-337.0,-270.0,1358.0,0.8115238918941247,0.3585314679282801,0.2282852138244553,-0.4009613703828942
-728.7083716392517,3232.0,-808.0,16728.0,-352.0,-277.0,1579.0,0.8744772463221069,0.3516010464368859,0.169707956599304,-0.2878636122824153
-728.7240207195282,3284.0,-436.0,17032.0,-278.0,-658.0,1860.0,0.9256749410617694,0.3361588174439873,0.06823181900864206,-0.15958562535429696
-728.7396228313446,3256.0,24.0,17284.0,-239.0,-367.0,1845.0,0.9477550736724493,0.3181643526411915,-0.012168673922015883,-0.01958796598734865
-728.7552597522736,3348.0,524.0,17300.0,-59.0,-254.0,1727.0,0.9412762236279595,0.3072097874510587,-0.08018476849142055,0.11485477886853608
-728.7708735466003,3360.0,776.0,17148.0,45.0,420.0,1495.0,0.9196800390927922,0.29328318921435453,-0.08455566873610816,0.2470302319618528
-728.7864677906036,3140.0,644.0,16388.0,137.0,615.0,1150.0,0.8901730725906778,0.2804316752611231,-0.061276438283474184,0.3538293012965478
-728.8020792007446,3020.0,764.0,16168.0,101.0,758.0,848.0,0.8613576997884052,0.258776258614544,-0.019942175473621093,0.4366921920873621
-728.8176610469818,2756.0,200.0,16000.0,-251.0,685.0,652.0,0.8403521600458628,0.2116146139933611,0.007166045625744307,0.4989750996199944
-728.8333668708801,2792.0,-68.0,15864.0,-94.0,463.0,615.0,0.8131869792769936,0.18425060974247168,0.02547896985231363,0.5514793483342335
-728.8489489555359,2876.0,-216.0,15752.0,-301.0,84.0,545.0,0.790439486531609,0.15957068741753702,0.007990928009867438,0.5913364177169218
-728.8645296096802,3136.0,-44.0,16016.0,-386.0,-233.0,492.0,0.7692862088609991,0.1448226231395263,-0.03499941904222892,0.6212891254077803
-728.8801503181458,3580.0,-76.0,16224.0,-281.0,-364.0,657.0,0.7343023623513452,0.14306762982223664,-0.0829482604651614,0.6583701694549086
-728.8957848548889,3416.0,224.0,16408.0,-80.0,-143.0,705.0,0.6924007331594376,0.1404666953390163,-0.10525220112354498,0.6998373428014958
-728.9113883972168,3612.0,-184.0,16384.0,21.0,187.0,650.0,0.6530441407058778,0.12383842917358721,-0.1003535974202231,0.7403556910258473
-728.9270966053009,3608.0,-492.0,16316.0,99.0,426.0,622.0,0.6141751528893251,0.09599940386130301,-0.07613144083559478,0.7796005385759714
-728.9426972866058,3576.0,-704.0,16156.0,180.0,480.0,742.0,0.5636136092383331,0.06754218774181142,-0.044337023137788735,0.8220778434769233
-728.9582996368408,3492.0,-912.0,16136.0,241.0,461.0,933.0,0.49487913792262533,0.042569628602936324,-0.010154961387926296,0.8678590567187606
-728.973984003067,3576.0,-960.0,15980.0,270.0,385.0,1121.0,0.40702673292787533,0.024103211547520265,0.022342075276128037,0.9128247945512388
-728.989589214325,3292.0,-1012.0,15680.0,264.0,-54.0,1314.0,0.29984837691068944,0.04024303036083578,0.03814942100608966,0.9523739134648229
-729.0051848888397,3560.0,-936.0,15592.0,266.0,-434.0,1643.0,0.16197586430117766,0.08792483336228521,0.042371573289275946,0.9819560544337472
-729.0207781791687,3636.0,-924.0,15688.0,237.0,-797.0,1937.0,-0.00286481213464464,0.1640530087178599,0.03563420064675265,0.985803533634526
-729.0363621711731,3724.0,-844.0,16044.0,100.0,-1194.0,1830.0,-0.15525861653628145,0.2674188069190286,0.017771951742705693,0.9508239066349238
-729.0519678592682,3748.0,-632.0,16376.0,39.0,-1388.0,2176.0,-0.3264428543404805,0.3757687153026278,-0.010735684011433705,0.8672471853737315
-729.0675599575043,3884.0,-456.0,16444.0,-116.0,-1390.0,2013.0,-0.4658330316489417,0.47152934849029926,-0.044886222462938954,0.7474255061008273
-729.0831727981567,3588.0,-152.0,16688.0,-479.0,-1299.0,1752.0,-0.5551209333278833,0.5582044565864024,-0.09361566428005796,0.6094953990225542
-729.0987892150879,3424.0,92.0,16696.0,-697.0,-1179.0,1417.0,-0.5974808232348708,0.6336778447742605,-0.14049504326287557,0.4708823608157265
-729.1143698692322,3300.0,208.0,16828.0,-821.0,-975.0,1109.0,-0.6031700839558016,0.6953443080095275,-0.18271011523620742,0.34539710034954596
-729.1299974918365,3152.0,260.0,16180.0,-866.0,-567.0,887.0,-0.5823720433656089,0.7385973617953432,-0.23113462278216587,0.24878409596770873
-729.1456077098846,2832.0,108.0,16232.0,-872.0,-212.0,537.0,-0.5399323388199445,0.7734174953252436,-0.27274906036536617,0.1894898347961214
-729.1611979007721,2848.0,-280.0,16248.0,-873.0,15.0,184.0,-0.48230077153369655,0.8074414602451945,-0.2993832789353535,0.16060481421497078
-729.1768589019775,2640.0,-672.0,16332.0,-799.0,154.0,-186.0,-0.4183178505538235,0.8415149365407322,-0.30313182299022473,0.15803127974391562
-729.1924550533295,2612.0,-680.0,16472.0,-803.0,38.0,-575.0,-0.34916093045302055,0.8822236387678053,-0.272328288246097,0.16001687181489455
-729.2080798149109,2592.0,-520.0,16572.0,-835.0,-28.0,-797.0,-0.2730589213588725,0.9223186601131395,-0.22062877757402813,0.16152416902625402
-729.2237024307251,2772.0,-160.0,16548.0,-798.0,-76.0,-1447.0,-0.18796172192887964,0.9603056848054133,-0.11239179742552526,0.17277576997772673
-729.2393019199371,2924.0,208.0,16600.0,-712.0,-73.0,-1754.0,-0.10118955143391917,0.9770174888573251,0.024773154406406796,0.1859671798148401
-729.2548997402191,2888.0,244.0,16300.0,-622.0,75.0,-1968.0,-0.016109177717195305,0.9615258944977306,0.1789771522618646,0.20778745768657042
-729.2704885005951,2860.0,-20.0,16108.0,-553.0,45.0,-2108.0,0.06663998365237125,0.9121747978550808,0.3397229296374226,0.21928196874212189
-729.2861437797546,2836.0,-820.0,15964.0,-494.0,-20.0,-2189.0,0.14570362083230567,0.8290001153341902,0.49504042067368853,0.21555566694353548
-729.3017573356628,2852.0,-1272.0,16180.0,-494.0,-52.0,-2243.0,0.22150664938474227,0.7125696198984254,0.6347557057117041,0.20066024803780885
-729.3173859119415,2972.0,-1416.0,16312.0,-566.0,108.0,-2112.0,0.2826305547320901,0.5723408640265688,0.7448124028968915,0.19442322234782095
-729.3329639434814,3200.0,-1340.0,16484.0,-632.0,214.0,-1992.0,0.3286500761347527,0.41664465857296173,0.8251141733322968,0.19386324279089556
-729.3485584259033,3192.0,-1532.0,16428.0,-681.0,204.0,-1854.0,0.3646988743269184,0.25628702240088436,0.8738233251507006,0.1942794112512703
-729.3641483783722,3116.0,-1620.0,16296.0,-739.0,161.0,-1605.0,0.3915453402213096,0.10632734763085888,0.8916670772965815,0.2007898527369784
-729.3797912597656,2984.0,-1600.0,16260.0,-719.0,-28.0,-1412.0,0.4211849437315071,-0.027405567118143473,0.8827764867630147,0.2062955464453098
-729.3954191207886,3092.0,-1488.0,16324.0,-791.0,-101.0,-1194.0,0.4451487964585674,-0.1455412890721403,0.8552358415955805,0.2218827109916579
-729.4110131263733,3396.0,-1584.0,16316.0,-733.0,47.0,-1108.0,0.45082112220991705,-0.25593333798861473,0.8232254976749624,0.23142649427670792
-729.4266328811646,3496.0,-1760.0,16280.0,-576.0,63.0,-947.0,0.45050661780787643,-0.34629763006409536,0.789175048201732,0.23307612923483348
-729.4422240257263,3520.0,-1540.0,16328.0,-469.0,-152.0,-717.0,0.4601242396417322,-0.4098506113038472,0.7497818167595846,0.241112811282763
-729.4578218460083,3528.0,-1488.0,16304.0,-254.0,-9.0,-604.0,0.4636449898659757,-0.45863075904666356,0.7212461689830967,0.23344188560681814
-729.4734075069427,4028.0,-1580.0,16464.0,-93.0,317.0,-244.0,0.44471516273931877,-0.4838906204108326,0.7219122535425813,0.21661253355526958
-729.4890158176422,3792.0,-1608.0,16200.0,-111.0,282.0,-133.0,0.42465615471231544,-0.5016901767766428,0.7248078550313621,0.2064647429359476
-729.504634141922,3768.0,-1536.0,15708.0,-134.0,176.0,-18.0,0.40795936779763625,-0.5108599173263108,0.7279630320438819,0.20654569245807586
-729.5202474594116,3760.0,-1528.0,16116.0,-194.0,-81.0,281.0,0.39925824065880755,-0.4982051634818306,0.733739925339511,0.23240093439752965
-729.5358576774597,3540.0,-1444.0,16184.0,-215.0,-371.0,466.0,0.4036558676756662,-0.4675956804915756,0.7355618117669325,0.278145719267389
-729.5514392852783,3340.0,-1240.0,16352.0,-327.0,-529.0,400.0,0.41375731403906246,-0.4396564903188416,0.7237682203495936,0.3341655559923573
-729.5670301914215,3920.0,-1004.0,16264.0,-331.0,-145.0,197.0,0.40426187439239225,-0.4346333878388174,0.7159357899499094,0.3675623753287341
-729.5827870368958,3984.0,-764.0,16064.0,-203.0,220.0,-51.0,0.3843645321103564,-0.45186143938644596,0.7149615119914674,0.3700205162177776
-729.5984280109406,3776.0,-612.0,15820.0,-155.0,162.0,-358.0,0.3794951372838647,-0.4842859078188295,0.7007569620551841,0.3610959434792673
-729.6139993667603,3556.0,-412.0,15912.0,-102.0,-16.0,-622.0,0.3952192313464954,-0.5243914626027307,0.6696681937815805,0.34692919070117106
-729.6295776367188,3820.0,-536.0,15944.0,-165.0,-41.0,-851.0,0.41469923575848083,-0.5769119442605917,0.6224831973218379,0.32819479197997325
-729.6451556682587,3352.0,-716.0,15868.0,-225.0,255.0,-1021.0,0.4169859989443206,-0.6449770094494685,0.5713005777141255,0.2893838002887065
-729.6607205867767,3344.0,-916.0,15640.0,-231.0,78.0,-1133.0,0.42659499696397624,-0.708218821821346,0.5019205375738149,0.2540050844863197
-729.6763062477112,3120.0,-1112.0,16016.0,-166.0,51.0,-1211.0,0.4385211773710321,-0.7642172119427567,0.42283751015461585,0.21184822390996952
-729.6919343471527,3404.0,-1124.0,16052.0,-87.0,59.0,-1204.0,0.45037352981473777,-0.8085626994306189,0.3412457565102132,0.16413829046099102
-729.7075273990631,3320.0,-1156.0,16376.0,22.0,21.0,-1130.0,0.4653027429352284,-0.8375591691711434,0.2613345696232953,0.11701383795989173
-729.7231078147888,3344.0,-1372.0,16020.0,66.0,-73.0,-991.0,0.4801798229466196,-0.8534844665693618,0.18586384748276447,0.08028843726632431
-729.7386918067932,3308.0,-1620.0,16152.0,40.0,-147.0,-521.0,0.4887271943032336,-0.8582266961173607,0.14098700133264241,0.06866828289099693
-729.7542736530304,3100.0,-1808.0,16164.0,-36.0,-144.0,-626.0,0.4908632844379154,-0.8651962957460583,0.08757250581411775,0.05310049005007231
-729.7698550224304,3360.0,-1640.0,16284.0,-90.0,-124.0,-480.0,0.48685052291447334,-0.8712603329023852,0.04552918227454512,0.042533448133672554
-729.7855052947998,3076.0,-1488.0,16612.0,-41.0,-71.0,-399.0,0.48527111145234686,-0.8737278490362936,0.011993288340250407,0.031108764729623834
-729.8011174201965,3288.0,-1360.0,16292.0,-32.0,-59.0,-259.0,0.4835453159780668,-0.8749108847189428,-0.0103554990439704,0.02465025021249523
-729.8167736530304,3392.0,-1476.0,16308.0,-24.0,-56.0,-188.0,0.4820766207873976,-0.875458066441185,-0.02713544004845249,0.02095169412344008
-729.8324465751648,3472.0,-1616.0,16360.0,44.0,47.0,-34.0,0.4856853351780067,-0.8735483927759428,-0.027684213073154246,0.016017022760632216
-729.8480677604675,3464.0,-1456.0,16280.0,150.0,113.0,11.0,0.49739616033323236,-0.867209411560849,-0.021851157744885528,0.008211156511211619
-729.8636183738708,3488.0,-1432.0,16188.0,186.0,139.0,122.0,0.511603416854633,-0.859191039571115,-0.006455245233797656,0.0033213238840997432
-729.8792202472687,3528.0,-1264.0,16264.0,205.0,32.0,228.0,0.5268240798878657,-0.8498142171536534,0.01211784006789168,0.011195674428810554
-729.8948028087616,3544.0,-1188.0,16280.0,194.0,69.0,233.0,0.5408013405376533,-0.8403497476681343,0.032739872256048866,0.01656238000523658
-729.9104595184326,3532.0,-1020.0,16364.0,255.0,120.0,161.0,0.5587935649950281,-0.8276359288859081,0.0505483825208029,0.014607599454998236
-729.9261548519135,3416.0,-1072.0,16120.0,265.0,133.0,169.0,0.576969013435876,-0.8137115002060705,0.06953531210662772,0.012049578310116852
-729.9417901039124,3280.0,-1152.0,15888.0,240.0,66.0,97.0,0.5934432166493181,-0.8008217892210463,0.07996025902889946,0.010768820629199325
-729.9573817253113,3332.0,-1396.0,15828.0,156.0,-84.0,163.0,0.604741797096955,-0.7912805259783834,0.08710835961826427,0.02397126896794005
-729.9729719161987,3456.0,-1304.0,16044.0,106.0,-185.0,94.0,0.6132414833302186,-0.7843501788619668,0.08401513513318491,0.04087954391510158
-729.9889438152313,3488.0,-1140.0,16140.0,95.0,-192.0,85.0,0.6208205969399697,-0.7777262834133319,0.0798548277928186,0.057851715457404224
-730.0045733451843,3572.0,-972.0,16296.0,80.0,-132.0,35.0,0.6270314084242753,-0.7723321843696886,0.07544899145648006,0.06813266121630039
-730.0201745033264,3600.0,-944.0,16580.0,95.0,-25.0,34.0,0.6334694218883392,-0.7666517371698316,0.07690939518642416,0.07103907628193962
-730.0358190536499,3328.0,-1080.0,16404.0,107.0,-255.0,11.0,0.6421843332630539,-0.7587789561497384,0.06416420962896618,0.08795869495672601
-730.0514311790466,3504.0,-1248.0,16180.0,126.0,15.0,80.0,0.6498758015388865,-0.7512356768784069,0.07123897671963572,0.09072711036493437
-730.0670297145844,3404.0,-1160.0,16144.0,164.0,68.0,34.0,0.659956170594309,-0.7420817643062995,0.07858791522707902,0.08715760184175873
-730.0826926231384,3312.0,-1196.0,16128.0,214.0,118.0,22.0,0.672788197344215,-0.7302444529924061,0.08838989472816056,0.079286233975941
-730.0982799530029,3292.0,-1204.0,16172.0,193.0,50.0,40.0,0.6844222615035364,-0.7187422321538166,0.09516556333938568,0.07693690422178144
-730.1138350963593,3440.0,-1224.0,16212.0,161.0,34.0,37.0,0.6940202118957207,-0.7088729047455464,0.10055420120075026,0.07565714122744335
-730.1294169425964,3428.0,-1100.0,16236.0,123.0,-245.0,-25.0,0.7038466701832299,-0.6997230269534962,0.08491611091822374,0.08818619239733674
-730.1449887752533,3496.0,-1084.0,16596.0,64.0,23.0,-45.0,0.7080187990620682,-0.6961825063741719,0.08403574127150747,0.08353018725126221
-730.1605656147003,3480.0,-928.0,16168.0,101.0,160.0,-150.0,0.71402282320241,-0.691951003298172,0.08549021588015722,0.06377021224268503
-730.1761269569397,3468.0,-840.0,16184.0,114.0,214.0,-185.0,0.7201908401530499,-0.68706982292637,0.08822089993824057,0.038435465362836034
-730.1917350292206,3548.0,-980.0,16284.0,142.0,194.0,-293.0,0.7279024198369145,-0.6805710533395658,0.08323660880038397,0.007264675302435785
-730.2073287963867,3596.0,-1156.0,16288.0,149.0,205.0,-262.0,0.7351633116942179,-0.6726866090674367,0.08071150246591093,-0.02265578270197481
-730.2229237556458,3484.0,-1336.0,16188.0,180.0,382.0,-188.0,0.7421705628442669,-0.6610522167605566,0.09371421658811617,-0.05839921208932376
-730.2385153770447,3324.0,-1512.0,15956.0,193.0,395.0,-51.0,0.7493618686415585,-0.6463522733250961,0.11524823998413651,-0.08604284847720188
-730.2541246414185,3180.0,-1560.0,15736.0,152.0,489.0,82.0,0.75296821612325,-0.6311455797384081,0.15051719707886074,-0.10972099192206794
-730.2697162628174,3228.0,-1500.0,15832.0,102.0,252.0,171.0,0.7567215857422159,-0.6194191469510848,0.17539874987904122,-0.11369978277484144
-730.2853367328644,3416.0,-1360.0,16064.0,62.0,-122.0,165.0,0.7635491119235618,-0.613784102939415,0.17555187965945407,-0.0971769839397694
-730.3009066581726,3368.0,-1000.0,16332.0,56.0,-83.0,59.0,0.7683859631688543,-0.6097021126131305,0.17263367197427487,-0.08968813065749644
-730.3165032863617,3124.0,-816.0,16316.0,143.0,1.0,-227.0,0.7740949640166408,-0.603236621152193,0.15939414649444925,-0.10712642833711523
-730.3320739269257,3148.0,-748.0,16284.0,205.0,46.0,-58.0,0.7836675187707809,-0.5895283441213662,0.15744083317029794,-0.1163354440908286
-730.3476402759552,3088.0,-924.0,16352.0,218.0,-51.0,-108.0,0.79440482783743,-0.5763502749390587,0.14608127412745814,-0.12410314837083317
-730.3631896972656,3268.0,-1044.0,16396.0,290.0,76.0,-193.0,0.805645152875068,-0.5574698394851608,0.13836483403716415,-0.14497737207980135
-730.3787863254547,3376.0,-1244.0,16392.0,347.0,154.0,-201.0,0.8176509953386836,-0.5330249356353505,0.13485452030063425,-0.17072060850136533
-730.3943660259247,3420.0,-1532.0,16464.0,310.0,182.0,-203.0,0.8264677869685267,-0.5100912113219466,0.13361259524061336,-0.19724509532184378
-730.4099671840668,3344.0,-1092.0,16456.0,232.0,150.0,-146.0,0.8323209225976969,-0.492130689273932,0.13380417245228832,-0.21713062868983182
-730.425555229187,3308.0,-884.0,16340.0,121.0,206.0,-506.0,0.8246340466944572,-0.48460212791086044,0.12450262571523456,-0.2638911950910867
-730.4411599636078,3248.0,-816.0,16148.0,127.0,153.0,-245.0,0.8224798192213841,-0.47424871052768275,0.12209135679934412,-0.2893247451070939
-730.4567456245422,3224.0,-968.0,16308.0,178.0,186.0,-116.0,0.8247754277977899,-0.45769479847237887,0.12601791639858756,-0.3072140131876471
-730.4723207950592,3576.0,-1272.0,16144.0,172.0,90.0,48.0,0.8319036628885008,-0.44212766464585795,0.12967893402139372,-0.3092616980787797
-730.4879484176636,3532.0,-1712.0,16224.0,206.0,54.0,359.0,0.8484560889825228,-0.42119005621713934,0.14168855992327709,-0.2874813969618769
-730.503538608551,3352.0,-1976.0,16340.0,308.0,-24.0,607.0,0.8738499375675278,-0.39060624487224077,0.15410368815267925,-0.2450818258822483
-730.5191142559052,3260.0,-1920.0,16200.0,398.0,41.0,851.0,0.9021233247755,-0.34658185401568214,0.1769952309872714,-0.18635239083739302
-730.5346882343292,3560.0,-1540.0,16068.0,452.0,117.0,1022.0,0.9262531908092874,-0.2917342667337509,0.20860083236800334,-0.11589580175446555
-730.5502560138702,3396.0,-1236.0,15952.0,446.0,79.0,1105.0,0.9423290564458693,-0.23334656996391065,0.23712984298483086,-0.0365344389570286
-730.5658190250397,3424.0,-928.0,15888.0,351.0,-57.0,1074.0,0.9495485805544147,-0.18142341395718556,0.2517487609078417,0.045448865954853396
-730.5814325809479,3456.0,-1024.0,16212.0,349.0,-251.0,949.0,0.9529727776270785,-0.1300136523189238,0.24609840274385444,0.11989541892561312
-730.5970070362091,3420.0,-712.0,16100.0,316.0,-285.0,822.0,0.9510525116467382,-0.08273537606533772,0.23400429770864214,0.18410857202108558
-730.6125781536102,3548.0,-664.0,16152.0,323.0,-242.0,596.0,0.946950326660735,-0.0397193681713064,0.22269443834520058,0.2282863065523537
-730.6281468868256,3220.0,-528.0,16124.0,308.0,-216.0,396.0,0.9433164840351832,-0.0022190320583854884,0.21182291337599715,0.2554997851528034
-730.6437757015228,3324.0,-568.0,15912.0,270.0,-210.0,263.0,0.9407770203406204,0.029546185313413104,0.20016793680157235,0.2720265024019737
-730.6593635082245,3496.0,-852.0,16288.0,282.0,-142.0,161.0,0.9383161865915447,0.05883380912009938,0.1943983929432179,0.2798402789196286
-730.6749513149261,3480.0,-932.0,16204.0,276.0,-119.0,56.0,0.9372737305427785,0.08521085743091367,0.19074537372808287,0.2790578187609968
-730.6906139850616,3272.0,-976.0,16528.0,288.0,-93.0,24.0,0.9358264567568454,0.11131516442376273,0.1896223483812404,0.2754653190469216
-730.7062034606934,3044.0,-1164.0,16572.0,262.0,-245.0,36.0,0.9360663146833627,0.13902157487723715,0.17520241393079763,0.27158234549871285
-730.721791267395,2928.0,-972.0,16216.0,243.0,82.0,-45.0,0.9327550177975414,0.15606888895306714,0.18790057428124413,0.265148925811971
-730.7373692989349,2844.0,-908.0,16204.0,236.0,108.0,-96.0,0.9297899962766338,0.1710204609208544,0.20315450497414655,0.25489372663725035
-730.7529563903809,2996.0,-860.0,16380.0,141.0,51.0,-201.0,0.9311022223333405,0.1775859569976698,0.21313763962638868,0.23682108440260985
-730.7685220241547,2944.0,-716.0,16444.0,32.0,20.0,-353.0,0.9371544393787669,0.1729889312176793,0.22055162015082563,0.20778202347094435
-730.7841172218323,3020.0,-696.0,16380.0,-38.0,-43.0,-555.0,0.9475716525402756,0.15965837638196392,0.22421883261452333,0.16230551824921552
-730.7997598648071,2848.0,-696.0,16196.0,-85.0,40.0,-584.0,0.9550497256717262,0.140320187608423,0.2339058168446025,0.1160962328852947
-730.8153252601624,3028.0,-872.0,16444.0,-36.0,386.0,-563.0,0.9517066232944064,0.12158295852294002,0.27188190162170406,0.07451388424269696
-730.8308906555176,3072.0,-1092.0,16396.0,33.0,493.0,-496.0,0.9412202185675933,0.10904758038186503,0.3174771353161332,0.03770137827579191
-730.8464455604553,3352.0,-1280.0,16288.0,81.0,613.0,-442.0,0.9229900222196319,0.10113506706522801,0.3712632362418319,0.004972575585848961
-730.8620417118073,3536.0,-1508.0,16224.0,113.0,620.0,-408.0,0.9002545520421813,0.09647435989269874,0.4237413082831911,-0.026033498901896737
-730.8776180744171,3316.0,-1224.0,16280.0,126.0,541.0,-323.0,0.8771808831766778,0.09545520470208402,0.46775560824547907,-0.051446020638808314
-730.8932194709778,3168.0,-1176.0,16032.0,168.0,378.0,-232.0,0.8586793849342883,0.10041155040336139,0.4972699614959272,-0.07286851053990756
-730.9088053703308,3240.0,-776.0,15972.0,134.0,260.0,-129.0,0.8451777223705174,0.10642914964941845,0.5166645447767071,-0.08605348269631086
-730.924476146698,3268.0,-772.0,15936.0,97.0,125.0,-27.0,0.8384599275891007,0.11325712787218012,0.5251940025166507,-0.09126353342910264
-730.940078496933,3296.0,-1032.0,15740.0,72.0,252.0,10.0,0.8261657953807737,0.12091990160438493,0.542666251836139,-0.091333427927323
-730.9556720256805,3172.0,-984.0,16016.0,83.0,-104.0,33.0,0.8305223104558618,0.12759011099061032,0.5339653603348615,-0.09399175163237694
-730.9712898731232,3096.0,-1056.0,15896.0,152.0,-103.0,67.0,0.8341612690102493,0.14082291421986798,0.5242740744182228,-0.09736826488517684
-730.9869256019592,3292.0,-1120.0,16224.0,166.0,-87.0,192.0,0.8376072014730056,0.16086483027027867,0.5138719492498548,-0.09204510957584383
-731.0025115013123,3388.0,-1176.0,16736.0,157.0,-55.0,263.0,0.8397765940602039,0.1835775173798485,0.5045549667521624,-0.08061546195997013
-731.0180878639221,3468.0,-1248.0,16744.0,171.0,111.0,299.0,0.8339419066964471,0.20989878320507868,0.5062925374885395,-0.06443029992121434
-731.0336580276489,3468.0,-1172.0,16616.0,208.0,383.0,207.0,0.8137573614604794,0.23607328053052748,0.5285982685124223,-0.05149983897162062
-731.0492625236511,3404.0,-988.0,16268.0,251.0,598.0,148.0,0.780454958796745,0.26292196950709923,0.5658157045933365,-0.0401831267527198
-731.0648701190948,3224.0,-944.0,16024.0,285.0,608.0,81.0,0.7429843540906125,0.2879210734085273,0.6032159807062761,-0.03473018405367871
-731.0804905891418,3184.0,-968.0,15704.0,270.0,444.0,45.0,0.7123215991626439,0.30878465391282306,0.6293142405982515,-0.03483623766364166
-731.0960960388184,3232.0,-936.0,15772.0,192.0,222.0,64.0,0.6950049083219847,0.3247629210579591,0.6405024083659909,-0.03541027240246471
-731.1116945743561,3200.0,-828.0,15796.0,129.0,-20.0,74.0,0.6927299000882693,0.33659759876277734,0.636655137967371,-0.038698544295314934
-731.1272928714752,3184.0,-1220.0,16024.0,42.0,-221.0,121.0,0.7041039538681296,0.3449878408944926,0.6193583086037386,-0.04020320069023237
-731.1428790092468,3180.0,-1196.0,16052.0,29.0,-360.0,175.0,0.7229573031624243,0.35470494677163455,0.5914110575124025,-0.04183419166074878
-731.1584670543671,3232.0,-1140.0,16288.0,103.0,-510.0,188.0,0.7460080275491133,0.36856698463092313,0.5522926934078435,-0.05102138258279583
-731.1740493774414,3196.0,-1112.0,16240.0,135.0,-223.0,199.0,0.7530920333106961,0.38574137662115215,0.5304528991176456,-0.051727183801797055
-731.1896741390228,3212.0,-1108.0,16204.0,209.0,-184.0,247.0,0.7553912654532501,0.40980683250853794,0.5087305792183227,-0.051338035358267094
-731.2052779197693,3280.0,-780.0,16088.0,170.0,-212.0,224.0,0.7594697506346593,0.42974380198843853,0.4856496711024147,-0.051675521105902796
-731.2208833694458,3540.0,-800.0,16108.0,119.0,-253.0,189.0,0.7663510458331287,0.44424015705955433,0.4609532038524402,-0.0536553936183792
-731.2364842891693,3284.0,-796.0,16200.0,63.0,-283.0,87.0,0.7755324451675591,0.45039437962231565,0.4381028003683281,-0.06132100461086
-731.2520794868469,3372.0,-1024.0,16304.0,71.0,-242.0,-19.0,0.7818049189310374,0.4529843902858592,0.42188687618440857,-0.07481760886278012
-731.2676556110382,3080.0,-916.0,16296.0,96.0,-112.0,-69.0,0.7817077023499551,0.45612829823812984,0.4162051833519162,-0.08748307827311219
-731.2832505702972,3308.0,-1256.0,16292.0,172.0,-26.0,-69.0,0.7752778458444906,0.46500784053386524,0.41571436656800975,-0.09946625263734483
-731.2988603115082,3272.0,-1072.0,16264.0,133.0,26.0,-78.0,0.7682912277072388,0.47127154397414783,0.4193532168106645,-0.10851083272592835
-731.3144361972809,3484.0,-1200.0,16364.0,136.0,27.0,-59.0,0.7611867092269365,0.47836075348239615,0.42217617699582355,-0.11633167582912425
-731.3300204277039,3148.0,-1040.0,16624.0,125.0,129.0,-7.0,0.7511537914691797,0.4875728448026022,0.42963028074188586,-0.11601088070617342
-731.3455979824066,3204.0,-1120.0,16424.0,155.0,186.0,5.0,0.7375707224343206,0.499613928761425,0.43986225114126404,-0.11356298523827021
