programtime,ax,ay,az,gx,gy,gz,q0,q1,q2,q3
-1162.4024374485016,4504.0,-3496.0,-15080.0,-574.0,733.0,939.0,0.9934143755337075,-0.04996208064601394,0.06328609015567849,0.08140356118317246
-1162.4180488586426,4292.0,-3704.0,-15228.0,-659.0,395.0,-193.0,0.9873582767338673,-0.11098715154203767,0.0916302019510687,0.06640325028278903
-1162.4336473941803,4836.0,-3828.0,-15256.0,-454.0,385.0,-62.0,0.9788751656918957,-0.15293191335495507,0.12130166821765519,0.060837037706238224
-1162.449248790741,5032.0,-3968.0,-15084.0,-556.0,479.0,79.0,0.9639160428745769,-0.2020300483939532,0.15992442088488618,0.06688722927127075
-1162.4648661613464,5088.0,-4116.0,-15152.0,-552.0,374.0,196.0,0.9460100146916112,-0.24777040037477266,0.19124310699237249,0.08426716341022958
-1162.4804606437683,5064.0,-3820.0,-15132.0,-505.0,507.0,451.0,0.9207199572860335,-0.28519652522207606,0.2384913221595219,0.11857314835603174
-1162.4960751533508,4824.0,-3540.0,-15316.0,-420.0,426.0,233.0,0.8974748392057575,-0.3183006343628919,0.2737876841785063,0.13514408292245247
-1162.5116693973541,4880.0,-3420.0,-15200.0,-482.0,231.0,-197.0,0.879679480629758,-0.36331950463414625,0.28043510598887306,0.12457568077424828
-1162.5273306369781,5572.0,-3592.0,-15180.0,-422.0,476.0,874.0,0.8412883456936789,-0.3781078948709384,0.33863851028844255,0.18599004969590352
-1162.5429337024689,5460.0,-3544.0,-15124.0,-397.0,1038.0,1926.0,0.7520876702226024,-0.3607219802468083,0.4633866640705104,0.2991932299159916
-1162.558524131775,4616.0,-3792.0,-14876.0,-545.0,843.0,1048.0,0.667987712004801,-0.37335454935628826,0.5333463201456174,0.36047260627221395
-1162.5741605758667,4500.0,-4008.0,-15332.0,-384.0,296.0,-85.0,0.6436278900870057,-0.4088172864158071,0.5353992202321787,0.3632619446137189
-1162.5897924900055,5180.0,-3616.0,-15404.0,-189.0,376.0,48.0,0.6172189725773064,-0.42899831869000626,0.551994686984761,0.3609751348671512
-1162.605391740799,5172.0,-3420.0,-15288.0,-264.0,696.0,1011.0,0.5385707073113517,-0.41413342324265634,0.6154658926303092,0.3995457870986074
-1162.6209745407104,4584.0,-3704.0,-15584.0,-122.0,482.0,106.0,0.5039207368030278,-0.4307033564662499,0.6372084795497506,0.3930952344387999
-1162.6365842819214,4620.0,-3656.0,-15220.0,101.0,252.0,-370.0,0.5058333465369141,-0.4552566890384644,0.6374687834471323,0.36125824938322704
-1162.6521663665771,4884.0,-3692.0,-14888.0,-66.0,156.0,-667.0,0.5144720408860719,-0.4994383534699821,0.6147856885495621,0.32850937183641193
-1162.6677775382996,5780.0,-3588.0,-15168.0,-125.0,265.0,480.0,0.48029852603450013,-0.4864561010333716,0.6433564356547076,0.34462484582247793
-1162.6833567619324,5596.0,-3752.0,-14888.0,64.0,706.0,852.0,0.4156424851208991,-0.45517594323166705,0.7078492657861591,0.34497188608882445
-1162.6989386081696,4808.0,-3696.0,-15152.0,-36.0,248.0,-111.0,0.40195157605796095,-0.4707828765579855,0.7112638244586807,0.3330197977008585
-1162.7145464420319,5160.0,-3600.0,-15020.0,-497.0,190.0,-313.0,0.3781178237152319,-0.5125366070796008,0.6897339234607792,0.3443838739249964
-1162.7301757335663,5364.0,-3844.0,-15188.0,-255.0,456.0,472.0,0.3243054853696089,-0.5054023558519953,0.7169770299824677,0.3540315654513802
-1162.7457909584045,4704.0,-3716.0,-15060.0,-90.0,360.0,-197.0,0.30354245506650296,-0.5311425484855085,0.715313325513115,0.33775200592133814
-1162.7613956928253,4712.0,-4348.0,-14952.0,43.0,-228.0,-1177.0,0.35240489262531627,-0.5936225213739861,0.6525028047742989,0.31251109345590244
-1162.776990890503,5564.0,-3656.0,-15048.0,-72.0,-49.0,-1020.0,0.3776264041901864,-0.6501146011228957,0.5938982168555723,0.2864161522696995
-1162.792588710785,5380.0,-3804.0,-15344.0,-154.0,278.0,73.0,0.352349721815619,-0.6582170966031108,0.6031673117567418,0.2806939994085601
-1162.8081719875336,5372.0,-3748.0,-15044.0,-74.0,167.0,-90.0,0.34130065723672903,-0.669337975275853,0.6012817909872225,0.2719572467330046
-1162.823846578598,4868.0,-4048.0,-15040.0,-194.0,44.0,-389.0,0.3364934268368974,-0.6961909752244656,0.5748977381547065,0.26754979046183525
-1162.8394408226013,5204.0,-3796.0,-15080.0,-39.0,223.0,84.0,0.32074718761499726,-0.6982944985837786,0.5855550481310539,0.2581304331010549
-1162.8550837039948,4904.0,-3752.0,-15040.0,-127.0,173.0,-168.0,0.3077079616024065,-0.7142460372649225,0.5771790368666724,0.24906378303460203
-1162.8706650733948,4812.0,-3700.0,-15260.0,-7.0,24.0,-627.0,0.31905777141165736,-0.7455355646002023,0.5378214425712129,0.23049285526606603
-1162.8862466812134,4988.0,-3636.0,-15056.0,-20.0,-77.0,-773.0,0.3359881441937458,-0.7791537136131549,0.48389746007788437,0.21418381277361978
-1162.9018273353577,5284.0,-3680.0,-15196.0,22.0,-15.0,-825.0,0.35245981840346396,-0.8110869296054476,0.42667950043510317,0.18935330190587035
-1162.9181215763092,5220.0,-3712.0,-15228.0,-33.0,72.0,-1020.0,0.3626785727498696,-0.8480190769849794,0.3547367424131384,0.15326363404205096
-1162.933836221695,5068.0,-3864.0,-14924.0,24.0,-108.0,-1046.0,0.3800054902446047,-0.8746400605418021,0.2730623229783154,0.1266394869267743
-1162.9495108127594,5152.0,-3592.0,-15232.0,-153.0,-59.0,-926.0,0.3784894839244861,-0.8982273723148375,0.19803766887166444,0.10351028881630692
-1162.9651296138763,5508.0,-3752.0,-15036.0,-15.0,178.0,-490.0,0.3780676735464076,-0.907971024000819,0.16515429058084913,0.07333153548677211
-1162.9807713031769,5184.0,-3664.0,-15040.0,-125.0,110.0,-761.0,0.37036856235867055,-0.9217450607528638,0.10738625014894958,0.04100444211324493
-1162.9963600635529,5240.0,-3876.0,-15028.0,-168.0,-50.0,-692.0,0.3588707147519048,-0.9317730463440608,0.049350745165583916,0.023985498780876472
-1163.0120060443878,5532.0,-3696.0,-14892.0,-191.0,134.0,-53.0,0.3425652188874374,-0.9381505222374154,0.048760046478712946,0.012046837828264621
-1163.0276374816895,5340.0,-3744.0,-15164.0,-159.0,501.0,12.0,0.32681813675438137,-0.9424702847489859,0.0644194787854713,-0.02810335578837905
-1163.043309211731,4780.0,-3712.0,-14988.0,-234.0,-184.0,-1167.0,0.3038024695160413,-0.9509938989458082,-0.03609377235101088,-0.04485424485239069
-1163.058907032013,5448.0,-3756.0,-15164.0,-186.0,-157.0,-701.0,0.28427047264065103,-0.952398507125504,-0.09756932313322883,-0.051064754900966514
-1163.0744972229004,5580.0,-3516.0,-15060.0,-220.0,304.0,399.0,0.269787404823418,-0.9588586908941255,-0.05589704872382021,-0.06841262339229494
-1163.0901448726654,4876.0,-3700.0,-15232.0,-172.0,503.0,99.0,0.2578719352770986,-0.9593772533702746,-0.03477066933773959,-0.10903371618887993
-1163.1057515144348,4812.0,-3536.0,-14972.0,-197.0,-123.0,-811.0,0.23235653509324633,-0.9599798877656558,-0.10333711672898967,-0.11734775665107215
-1163.1213726997375,5588.0,-3812.0,-15168.0,-446.0,-37.0,-388.0,0.19013999750897917,-0.9646484698050842,-0.1319153956272638,-0.12608901398019282
-1163.1369969844818,5752.0,-3788.0,-15132.0,-98.0,312.0,512.0,0.19058045753468186,-0.967396970757176,-0.08251684448639987,-0.14495916856728308
-1163.152599811554,5064.0,-3288.0,-15096.0,-415.0,424.0,432.0,0.16341685165726239,-0.9701071114709872,-0.03373387601219205,-0.17620769131068068
-1163.1681883335114,4552.0,-3816.0,-15208.0,-164.0,-48.0,-583.0,0.1400165817961267,-0.9701754568902169,-0.08113875776412266,-0.18047559851260386
-1163.1838352680206,5100.0,-3600.0,-15096.0,-117.0,-189.0,-728.0,0.11692018015215,-0.9673618969337525,-0.14290926528470854,-0.17354415498571377
-1163.1994655132294,5472.0,-3536.0,-15036.0,-145.0,128.0,-104.0,0.104884116284973,-0.9654644531769554,-0.14809830165054147,-0.18693476094902203
-1163.2150826454163,5164.0,-3348.0,-15088.0,-125.0,216.0,-17.0,0.09699288328749428,-0.9626892346484112,-0.14542863224445118,-0.2065728225279
-1163.2306869029999,4868.0,-3644.0,-15088.0,-104.0,-58.0,-719.0,0.07455761042709584,-0.9536246043943222,-0.2039832923334639,-0.20840367815845906
-1163.2462742328644,5180.0,-3536.0,-14868.0,-113.0,-191.0,-822.0,0.0469010314631962,-0.9406611211536029,-0.2707755544526511,-0.19909180673396495
-1163.261859178543,5712.0,-3532.0,-15080.0,-228.0,62.0,-309.0,0.024550459291587067,-0.9327206929630054,-0.29170368863888946,-0.2105667160347261
-1163.2774329185486,5608.0,-3628.0,-15008.0,-106.0,218.0,409.0,0.02924396864470929,-0.9385891290674427,-0.2557224538816043,-0.22978525556505416
-1163.2930181026459,5216.0,-3664.0,-14860.0,-235.0,198.0,201.0,0.018689016263305457,-0.9392814585515131,-0.23386872570464412,-0.25041262234507716
-1163.3086960315704,5356.0,-3668.0,-15012.0,-80.0,111.0,192.0,0.018833942625988358,-0.9407696492061299,-0.2161021302649945,-0.2605717157188546
-1163.324290752411,5164.0,-3640.0,-15112.0,-233.0,120.0,95.0,0.0043552726499564015,-0.9400116569107417,-0.2026967250397731,-0.27435953442557315
-1163.3399159908295,5108.0,-3704.0,-15016.0,-73.0,-37.0,-107.0,-0.004619604903910528,-0.9390438047127132,-0.20967434448154837,-0.2724189078376105
-1163.3555040359497,5484.0,-3476.0,-14924.0,-304.0,244.0,-41.0,-0.025781972119548777,-0.9319071108340581,-0.20573333974351696,-0.2975873310618651
-1163.371069908142,5488.0,-3616.0,-15040.0,-162.0,310.0,828.0,-0.011612773251678626,-0.9355660063616853,-0.1344213033695508,-0.3263622288781029
-1163.3867013454437,4828.0,-3492.0,-15184.0,-228.0,131.0,234.0,-0.02182838267228711,-0.9340082172763852,-0.10885707170746235,-0.3395619379573886
-1163.4023094177246,4856.0,-3864.0,-15072.0,-99.0,-10.0,-628.0,-0.04833083242660616,-0.9268302811068361,-0.156795993999604,-0.3377347730483943
-1163.4179849624634,5668.0,-3692.0,-15040.0,-384.0,-158.0,-312.0,-0.0904252739977964,-0.9247545570114208,-0.16981792020866532,-0.3283506556793174
-1163.433581829071,6024.0,-3632.0,-15220.0,-200.0,589.0,1547.0,-0.052695214559170235,-0.9196313661783865,-0.04337660892891211,-0.3868072317075597
-1163.449155330658,4740.0,-3656.0,-14964.0,-466.0,400.0,994.0,-0.054561881537339985,-0.9031865941544366,0.050080119869218884,-0.42281078370436476
-1163.4647476673126,4156.0,-4048.0,-15184.0,-230.0,-404.0,-285.0,-0.0811876447008212,-0.9173230518814044,0.038050396851229865,-0.3879164241616784
-1163.4803342819214,5600.0,-3484.0,-15120.0,-360.0,-233.0,435.0,-0.09417298208290838,-0.9200143602635565,0.0866534977802834,-0.37040005085973393
-1163.4959585666656,5460.0,-3728.0,-15128.0,-323.0,561.0,1564.0,-0.07278657938929005,-0.8779748445201098,0.21578098641742544,-0.4210710773152423
-1163.5115427970886,4360.0,-3540.0,-14852.0,-128.0,-116.0,-234.0,-0.08882979409195632,-0.8856580632954699,0.20330602986310606,-0.4079040583551477
-1163.5271792411804,4856.0,-3632.0,-14840.0,-288.0,-744.0,-1848.0,-0.16102724203435337,-0.9285845343971089,0.07543083222345565,-0.325747109505812
-1163.5428385734558,6456.0,-3352.0,-14884.0,-519.0,-270.0,-473.0,-0.21401276986924167,-0.9301746638070818,0.055614517578908944,-0.2930540130739428
-1163.5584876537323,6196.0,-3332.0,-15492.0,-408.0,746.0,1848.0,-0.20006757075313628,-0.8808231569670628,0.19909090477233624,-0.38011359475878825
-1163.5740900039673,4468.0,-3444.0,-15256.0,-20.0,43.0,682.0,-0.17917463130807515,-0.8657670680257011,0.2510632282823739,-0.39409528140061356
-1163.589678287506,4212.0,-3236.0,-15216.0,-191.0,-114.0,-199.0,-0.19767104804618058,-0.8708778966439751,0.2443840350611595,-0.3778548521701369
-1163.6052992343903,4240.0,-3532.0,-15576.0,112.0,238.0,-7.0,-0.19418349941813606,-0.8649954410544367,0.23608145113844264,-0.39792110265369707
-1163.6209149360657,4052.0,-3812.0,-15156.0,436.0,-1135.0,-2925.0,-0.23058391282223678,-0.9370224973574532,0.018775425779984232,-0.26166272562283055
-1163.6365280151367,5708.0,-3156.0,-14656.0,216.0,-1662.0,-3353.0,-0.2722678150694768,-0.9361048536414852,-0.215587306212497,-0.0556781219707148
-1163.6521153450012,7652.0,-3128.0,-15188.0,-319.0,-97.0,561.0,-0.2966815357989425,-0.9381128389835369,-0.1655986719439902,-0.06709282749009753
-1163.6677255630493,5348.0,-3752.0,-14872.0,91.0,118.0,1218.0,-0.2785088070052272,-0.9520178286800381,-0.06904219140581459,-0.10643342567893428
-1163.6833436489105,4012.0,-3616.0,-14904.0,-344.0,-1149.0,-1556.0,-0.32345074091432774,-0.931469987985524,-0.1647658864999225,0.024402506635889
-1163.6989402770996,5052.0,-4076.0,-16048.0,364.0,-994.0,-739.0,-0.3043803674416253,-0.9232652489799356,-0.1947669509385582,0.1303829235913057
-1163.714527130127,4648.0,-3568.0,-15996.0,970.0,158.0,538.0,-0.22830780090620648,-0.9554988891690617,-0.14389375994874948,0.1191302089726748
-1163.7301681041718,3452.0,-3776.0,-15628.0,1409.0,-348.0,-812.0,-0.10536861384291552,-0.9597594131366194,-0.18805742807735262,0.17998257653841326
-1163.7458095550537,4052.0,-3192.0,-15484.0,1673.0,-1118.0,-3472.0,0.0671509635668635,-0.8500335255470693,-0.4174816096091785,0.31407460765905765
-1163.7614088058472,5604.0,-2388.0,-15788.0,1605.0,-661.0,-2351.0,0.21961411491323757,-0.7140651181585312,-0.5347407060128657,0.3948835586511295
-1163.777001619339,5092.0,-2356.0,-16036.0,2267.0,-429.0,-2896.0,0.4193002110476255,-0.4955443089767269,-0.6141827655159572,0.44877912317683155
-1163.792602300644,4656.0,-2196.0,-16456.0,2330.0,-1065.0,-4415.0,0.5807670602703165,-0.1206128598502189,-0.6878713804802115,0.41832418488532774
-1163.8081953525543,5196.0,-2080.0,-16460.0,3183.0,-1529.0,-5402.0,0.6269451213959286,0.3666108817307428,-0.6153864620367743,0.30632626151917425
-1163.8238854408264,6348.0,-1924.0,-16496.0,3528.0,-779.0,-3870.0,0.5224201738421351,0.7156434930601033,-0.3995254109866924,0.23518290494719565
-1163.8394846916199,6724.0,-2496.0,-15036.0,2355.0,-35.0,-1952.0,0.399911246201303,0.8616944897833908,-0.22321999261751277,0.21846381012538435
-1163.8551042079926,6412.0,-3784.0,-15188.0,1420.0,170.0,2539.0,0.24008459250260938,0.8321149822537522,-0.3694725443671942,0.3367997679787283
-1163.8706948757172,2976.0,-904.0,-16468.0,-176.0,2398.0,14268.0,-0.05548203899626654,0.185051628515201,-0.8447035733209242,0.49915279359285464
-1163.8862886428833,-5084.0,-220.0,-16336.0,-3235.0,-938.0,6920.0,-0.31034841414030867,-0.2229227437801935,-0.9072467074831962,0.17576326097056028
-1163.901867389679,-5296.0,-1312.0,-18704.0,-5068.0,-5779.0,-1088.0,-0.7033672097473194,0.07373825990103793,-0.7035849797811989,-0.06932108990291007
-1163.9175157546997,-880.0,-1708.0,-18268.0,-2990.0,-5547.0,-504.0,-0.8998100247001607,0.223040637892402,-0.2995011127071122,-0.22559671270842677
-1163.9332342147827,1388.0,-2104.0,-16152.0,-4085.0,-6438.0,-2323.0,-0.8490493081476017,0.39243929765718827,0.2721353194642121,-0.22594034143667868
-1163.9488852024078,3700.0,-5084.0,-15464.0,-5058.0,-6541.0,-425.0,-0.4285494950042788,0.5092537874134986,0.7060896939807697,-0.2417503968781184
-1163.964515209198,4440.0,-3832.0,-15048.0,-4736.0,-4886.0,4607.0,0.14653448761910629,0.7046787954418675,0.6371808792744483,-0.27560109992495635
-1163.9801466464996,1480.0,-4688.0,-13516.0,-4916.0,-5707.0,642.0,0.6523162500997858,0.45102934492698754,0.5368291467768601,-0.2878723797819347
-1163.9957921504974,2208.0,-5736.0,-13144.0,-5072.0,-8572.0,-6959.0,0.740010129067759,-0.2600882821784627,0.3090213482160154,-0.5378149316422252
-1164.0114579200745,9108.0,-7588.0,-13192.0,-4449.0,-8168.0,-6234.0,0.40520961079220136,-0.7860523296795426,-0.10803425495656056,-0.4541536150720118
-1164.0270929336548,14164.0,-7676.0,-12904.0,-2799.0,-3098.0,3035.0,0.2772895243975112,-0.945043467986043,0.09249147861963872,-0.14645371166026439
-1164.042717218399,12212.0,-7876.0,-12480.0,-1125.0,365.0,8035.0,0.23186777435793918,-0.7365170964340955,0.6350626923046255,0.02180088799534578
-1164.0583200454712,7484.0,-7048.0,-12416.0,-386.0,232.0,4328.0,0.1737397524707476,-0.47205328823844145,0.8574939717381681,0.10809384768514728
-1164.0740065574646,6752.0,-7396.0,-13040.0,391.0,-513.0,568.0,0.22214153758986394,-0.41765031993961177,0.8743847468381571,0.10804009454051262
-1164.0896017551422,9004.0,-4880.0,-14496.0,1671.0,1224.0,3246.0,0.15056033887186349,-0.14133793420594779,0.9784444408965591,-0.0012840528822523835
-1164.1051921844482,7396.0,-3328.0,-17168.0,2018.0,3102.0,7630.0,-0.07143113492339188,0.43168562036867014,0.8946964461636789,-0.0897963660320156
-1164.120768547058,3804.0,-20.0,-17512.0,2648.0,2700.0,7279.0,-0.2642975031555366,0.8169517619859344,0.4740090691984905,-0.19506934851843505
-1164.1363666057587,656.0,652.0,-18520.0,-515.0,2409.0,5933.0,-0.1971237451072007,0.9728815879164524,0.00374043695486042,-0.1209531071922515
-1164.1519894599915,-2184.0,-1844.0,-19072.0,1414.0,1183.0,5494.0,-0.23137386171438407,0.8592982672660198,-0.4443806428172871,-0.10294886244288438
-1164.167590379715,-2620.0,-1720.0,-15964.0,-491.0,-399.0,-514.0,-0.2138127716488708,0.8833968808750341,-0.39242273063825117,-0.14106186592593797
-1164.1832506656647,48.0,-4368.0,-15088.0,-91.0,-2160.0,-4156.0,-0.3071385907273212,0.9265014674702979,-0.02832021993209242,-0.21554322537351453
-1164.19886636734,4808.0,-3312.0,-14252.0,-1164.0,-1338.0,-2553.0,-0.2550053334932995,0.9061869557261969,0.22769419800202478,-0.24890326104306795
-1164.2144627571106,6028.0,-4652.0,-15756.0,-1365.0,-458.0,967.0,-0.11559015635934604,0.9352534316869036,0.18900159397732494,-0.2760766772922387
-1164.230084180832,5164.0,-4404.0,-16328.0,-434.0,403.0,2410.0,-0.028138185772813153,0.9667560101393035,-0.0012265316602322299,-0.2541447520234009
-1164.24569106102,3776.0,-3100.0,-15084.0,-194.0,-344.0,517.0,-0.00040362208622103614,0.958092739961256,-0.03961062901366358,-0.2837060746474887
-1164.2613549232483,4436.0,-2696.0,-14840.0,-1305.0,-77.0,1089.0,0.13388812373299327,0.9422352782012711,-0.09727530756621487,-0.2912115474601413
-1164.2769639492035,4012.0,-3552.0,-15540.0,-711.0,999.0,4412.0,0.29048807421880046,0.8561153253817321,-0.3996177263314032,-0.15162091275580483
-1164.292560338974,1424.0,-2956.0,-15428.0,-993.0,148.0,1465.0,0.38439265925065413,0.7726897543052724,-0.48644191814137977,-0.13626110002786296
-1164.3081521987915,1780.0,-3316.0,-16236.0,-1484.0,-879.0,-983.0,0.4288314766605606,0.7432406690747771,-0.4257577055930613,-0.28710146043956813
-1164.3238351345062,3756.0,-3292.0,-16308.0,-1660.0,382.0,2163.0,0.5879916312464507,0.5935603442549983,-0.4961746917394817,-0.2361411327771091
-1164.3394660949707,2280.0,-3832.0,-16868.0,-460.0,773.0,3568.0,0.6842002803706692,0.4108472139929225,-0.601747425234901,-0.031218252963909874
-1164.3550844192505,-504.0,-1632.0,-15752.0,-626.0,-1601.0,-5023.0,0.5522462589754891,0.5743419274706144,-0.4679430612803759,-0.3823410927384959
-1164.3706758022308,3540.0,-2124.0,-15972.0,-1500.0,-2362.0,-6142.0,0.280797245206038,0.5809474544590815,-0.19305729261009824,-0.7391764633781791
-1164.3862681388855,6256.0,-2332.0,-16952.0,-631.0,196.0,1087.0,0.3838244505286583,0.556604921554109,-0.20152892299576275,-0.7087001098308688
-1164.401870250702,4044.0,-1916.0,-15496.0,-166.0,1086.0,3051.0,0.5769575445586933,0.543420884769725,-0.2917432559394892,-0.5354433736509571
-1164.417505979538,1628.0,-2804.0,-15348.0,-1305.0,-587.0,-1350.0,0.552617768382115,0.4778954265097612,-0.19360138451115738,-0.6547885668708546
-1164.4331269264221,3896.0,-3412.0,-15724.0,-1240.0,-65.0,474.0,0.6260656111393627,0.4038933675705695,-0.14481183014182533,-0.6511079265622377
-1164.4487352371216,3844.0,-3368.0,-16232.0,-570.0,1599.0,4771.0,0.8573950252225601,0.36910142423341,-0.17686582218652921,-0.3120198556097945
-1164.4643294811249,1152.0,-3252.0,-16388.0,-1.0,952.0,1694.0,0.9052108416014621,0.3638508112070893,-0.15807687719570984,-0.1523732926964839
-1164.4799478054047,924.0,-2588.0,-16008.0,-240.0,-647.0,-1770.0,0.8683966628500593,0.3560995694112231,-0.14793345927426396,-0.3117627691742096
-1164.4955501556396,2564.0,-2364.0,-16160.0,118.0,-440.0,-1588.0,0.8073931929255758,0.36998547997324477,-0.1339380732258977,-0.4396448216082457
-1164.5111496448517,2632.0,-2460.0,-15796.0,31.0,-540.0,-2488.0,0.6877559601317551,0.37171854493082657,-0.09078958851714349,-0.6169070539997452
-1164.5268058776855,3684.0,-2768.0,-15532.0,-708.0,-749.0,-2687.0,0.5431974376657163,0.3010958797648278,-0.010268011840146639,-0.783691509992864
-1164.542403936386,4976.0,-4048.0,-16444.0,-469.0,-20.0,459.0,0.5859005297379475,0.27685769252701115,0.008795409045118123,-0.7615727333099186
-1164.5580332279205,4868.0,-2808.0,-15456.0,473.0,1390.0,4044.0,0.7884073965762273,0.37144671565109644,-0.04616831219364872,-0.4881696440839994
-1164.5736238956451,2852.0,-3304.0,-15636.0,-433.0,1576.0,4303.0,0.9205249810893699,0.36349480003185586,-0.05460897147910965,-0.13237503455791977
-1164.589207649231,1592.0,-2956.0,-15972.0,344.0,1216.0,3750.0,0.9060894855379447,0.36635074860881106,-0.0755715532485893,0.19768134340635754
-1164.6047983169556,1020.0,-1876.0,-15840.0,35.0,266.0,936.0,0.8872570808621326,0.35735270053496565,-0.0836678993762558,0.2794165394072776
-1164.6203908920288,1640.0,-2400.0,-15768.0,-472.0,-1181.0,-3197.0,0.9301665616606667,0.35745181404984716,-0.08338763014860036,-0.00805427458227524
-1164.6360614299774,5080.0,-2672.0,-15884.0,-794.0,-577.0,-1403.0,0.9392384368681724,0.29970591805062746,-0.08516478431932342,-0.14406415552352256
-1164.6516680717468,5208.0,-2784.0,-16168.0,-314.0,1179.0,3263.0,0.9540433094981483,0.25328647989668107,-0.06712866942302376,0.14539967140562185
-1164.6672887802124,2448.0,-2960.0,-16116.0,-69.0,994.0,2530.0,0.9041045242572169,0.21438907106743893,-0.040262233417818545,0.3674388220978855
-1164.6828842163086,1068.0,-3196.0,-15848.0,-408.0,310.0,862.0,0.8817522891456444,0.16882972770248025,-0.045042454774198604,0.4381559093498987
-1164.6984708309174,1864.0,-3224.0,-16376.0,646.0,458.0,1330.0,0.8157145813057841,0.19422970866582553,-0.004907935878055798,0.5448490197129244
-1164.7140727043152,1772.0,-2080.0,-15516.0,2.0,-317.0,-2007.0,0.8969203212962046,0.2073555713228891,0.0063883106768825295,0.3905083786219791
-1164.7296841144562,3592.0,-3288.0,-15592.0,-567.0,-853.0,-2297.0,0.9629558297572871,0.1865617919432421,-0.03745944941324682,0.19106950927093924
-1164.745356798172,5440.0,-2756.0,-16332.0,-170.0,521.0,2529.0,0.9024776876671283,0.15167162267148895,-0.03702901694309044,0.4014456302457642
-1164.7609415054321,3232.0,-1336.0,-16876.0,-78.0,1513.0,3957.0,0.7219683645412504,0.0750154709148493,0.025137381118011424,0.6873881522077491
-1164.776529788971,1192.0,-1652.0,-15860.0,-854.0,530.0,1349.0,0.6386128358574555,-0.00726543823004816,-0.0016809611391786607,0.769492062113101
-1164.7921121120453,2196.0,-2328.0,-15960.0,-593.0,450.0,1368.0,0.5414616253928565,-0.07008975418083009,-0.015740974644715102,0.8376508558480861
-1164.807785987854,2976.0,-2292.0,-16304.0,-456.0,1645.0,4597.0,0.188385909401694,-0.20068114467259995,0.05190178630477264,0.9599708495002154
-1164.8233709335327,-292.0,-2180.0,-16376.0,117.0,556.0,2445.0,-0.016508867643000365,-0.22914907835967446,0.11101031647545076,0.9668996156851434
-1164.8389756679535,-524.0,-1132.0,-16832.0,-1198.0,-1041.0,-2295.0,0.1586504453305745,-0.15752565187769618,-0.03339858242671876,0.9741151060777175
-1164.8546268939972,1420.0,-1548.0,-16548.0,-1119.0,-1234.0,-906.0,0.21379457846440655,-0.06485995994896815,-0.1561279828699808,0.9621377847167193
-1164.8702166080475,1992.0,-1660.0,-15808.0,-1259.0,-746.0,652.0,0.14039831394101182,-0.03428192273107996,-0.26975286411020477,0.9520222978064761
-1164.8858194351196,796.0,-2768.0,-14908.0,-1169.0,-1597.0,-2264.0,0.2779648185771937,0.13284177545371184,-0.3806204010364815,0.8719040845428363
-1164.9014143943787,2216.0,-4264.0,-14268.0,-280.0,-2286.0,-4450.0,0.4982450842870659,0.4103310356581063,-0.3720492625558596,0.667052938971984
-1164.9170343875885,4892.0,-4148.0,-13280.0,418.0,-1372.0,-4546.0,0.6492742391343069,0.6057753779302104,-0.22604401461886,0.4004787851373228
-1164.9327657222748,6656.0,-4508.0,-12304.0,311.0,-805.0,-3696.0,0.7081028635877149,0.6878661891600505,-0.06227585048247956,0.14680653539945504
-1164.9483654499054,7972.0,-3812.0,-13692.0,591.0,423.0,-997.0,0.6835417728227172,0.7204108537875229,0.030967580109886164,0.11322480087704623
-1164.9640002250671,7164.0,-96.0,-16452.0,111.0,2078.0,3968.0,0.5881261382359176,0.6681497428870458,-0.0871001177903153,0.4473221837608707
-1164.979587316513,3276.0,-144.0,-19240.0,-1881.0,3487.0,7334.0,0.35408337672922696,0.30730798787749114,-0.3309604103959168,0.8189334342065189
-1164.9951877593994,-2136.0,-4900.0,-20008.0,761.0,2569.0,5762.0,-0.0035091483200177733,-0.016676107289088523,-0.3078305144623201,0.9512885827600446
-1165.0108006000519,-3244.0,-3468.0,-16828.0,2278.0,43.0,-2330.0,0.18695504522060297,0.03997519521096107,-0.11777049737019538,0.9744639063524029
-1165.026436328888,-32.0,-3136.0,-15304.0,416.0,-1503.0,-8369.0,0.7077776867193244,0.20919990361942414,-0.06265135726710531,0.6718340226130669
-1165.0420272350311,4140.0,-4804.0,-15604.0,797.0,-2276.0,-8247.0,0.9314578423905796,0.34973922352888326,-0.004968175859335249,0.10022016066206843
-1165.0576457977295,6724.0,-2668.0,-15304.0,559.0,-413.0,-4997.0,0.8766491145316712,0.3671918920406885,0.10861340043767087,-0.29130666599956506
-1165.0732462406158,5788.0,-3432.0,-15828.0,511.0,597.0,-1222.0,0.8169125770777396,0.4068802035766282,0.17900477344939952,-0.3675046019194553
-1165.088872909546,4056.0,-2348.0,-15868.0,1198.0,1572.0,2667.0,0.8022021074292122,0.5615215631685659,0.1517858244014851,-0.13463423206459335
-1165.1044735908508,1956.0,-1932.0,-15384.0,1183.0,1751.0,2643.0,0.7210802799008807,0.6714814294062341,0.12563251252957883,0.11563905783139769
-1165.1200895309448,1400.0,-2696.0,-15900.0,1163.0,194.0,-1435.0,0.6564742596321042,0.7178239693294353,0.23067746334816158,0.02362632853136648
-1165.1357290744781,4180.0,-2940.0,-15744.0,745.0,73.0,-1142.0,0.6061538137155836,0.732380436649294,0.3057954982955392,-0.051822421340824466
-1165.1513261795044,5252.0,-3208.0,-15524.0,742.0,1004.0,1045.0,0.5310684623447345,0.796222723835129,0.28591390099105657,0.04742260612243435
-1165.1669380664825,3460.0,-3116.0,-15452.0,222.0,801.0,760.0,0.489872472619601,0.8183707382883233,0.26987154773595207,0.13215007758448188
-1165.1825778484344,1916.0,-3612.0,-15380.0,198.0,-52.0,-1420.0,0.4892400730294328,0.7879951502825557,0.3685069292456761,0.06253348839821987
-1165.1981830596924,2676.0,-2876.0,-15736.0,-232.0,-466.0,-2799.0,0.5193951600347085,0.6703919466806277,0.5239623853475455,-0.07916264459445799
-1165.2138080596924,3560.0,-3156.0,-15852.0,-128.0,-400.0,-2029.0,0.5224260377551616,0.5600945853503877,0.6155519039650116,-0.18563659138669003
-1165.2294507026672,4532.0,-3292.0,-15696.0,129.0,197.0,163.0,0.5077682661266535,0.5778460421675421,0.6144155613841414,-0.17538203270303868
-1165.2450487613678,4040.0,-3004.0,-15776.0,-116.0,703.0,789.0,0.4856506140560728,0.6231958403495398,0.6050763232227424,-0.09825003161952439
-1165.2607181072235,3272.0,-3616.0,-15916.0,325.0,976.0,2508.0,0.42590180627371665,0.7569740563937287,0.4937244901736023,0.04282589359752012
-1165.2763168811798,1732.0,-3164.0,-15404.0,111.0,440.0,-193.0,0.39966916344374365,0.7505534942652576,0.5228302857122517,0.0598540255992451
-1165.2919256687164,2484.0,-3360.0,-15672.0,-71.0,-553.0,-1797.0,0.4328581078909316,0.6602434452295922,0.6127493084666786,-0.03536575233256476
-1165.3075151443481,3944.0,-2660.0,-15792.0,-188.0,-144.0,-419.0,0.4494241879216732,0.6298427773707791,0.6315691848262558,-0.04935929378249173
-1165.3231010437012,3620.0,-2592.0,-15452.0,-547.0,389.0,529.0,0.45877606772266893,0.6375536890369022,0.61848655653579,0.022895254199571384
-1165.3387281894684,2648.0,-3220.0,-15816.0,-441.0,474.0,-104.0,0.45690715230276774,0.6124377571248276,0.6414242491387996,0.0687806690808757
-1165.3543000221252,2536.0,-3404.0,-16044.0,-382.0,-29.0,-628.0,0.4814526558994754,0.561174276570515,0.6702740509281813,0.06339927519480125
-1165.3698987960815,2816.0,-2928.0,-15940.0,-203.0,-87.0,-766.0,0.49924204546591894,0.5071937798306722,0.7014372480317423,0.03869931283287755
-1165.3855390548706,3752.0,-2684.0,-15732.0,-329.0,390.0,589.0,0.48654337075854265,0.5264767057691748,0.6897767680981691,0.10151766765148641
-1165.4011697769165,3372.0,-2636.0,-15800.0,-126.0,578.0,1359.0,0.44154130758680754,0.592972734678721,0.6454964496008864,0.19172621932021072
-1165.4167668819427,2808.0,-2636.0,-15896.0,-175.0,755.0,889.0,0.39085436691907377,0.6205097033975896,0.6224655375592939,0.2733811010306756
-1165.432382106781,2616.0,-3012.0,-15436.0,-56.0,239.0,-154.0,0.38420411219623507,0.6044598817403654,0.6375105582303281,0.28389388806873195
-1165.4480149745941,3076.0,-3112.0,-15708.0,-396.0,462.0,427.0,0.36778920623977696,0.6023509630685417,0.6194581583176263,0.343767373608447
-1165.4636104106903,3392.0,-3176.0,-15936.0,11.0,624.0,1604.0,0.28195060583461723,0.6633831313996663,0.5494171887082148,0.4225723956860261
-1165.4792788028717,3144.0,-2788.0,-15816.0,-232.0,518.0,1057.0,0.23009766978188334,0.6856560821895676,0.4898071477994308,0.4868467492774157
-1165.4948585033417,2988.0,-2784.0,-15872.0,-61.0,188.0,465.0,0.20557674802171533,0.6958098316008254,0.4627790114375885,0.5093353173433934
-1165.5104575157166,3364.0,-2692.0,-15944.0,-272.0,115.0,81.0,0.2136036679008673,0.6890214147982188,0.4477311360131626,0.5283557446012298
-1165.526049375534,3616.0,-2788.0,-15868.0,-13.0,4.0,910.0,0.1715584287369865,0.7220525142469306,0.39130507143863813,0.5441398839134883
-1165.541671514511,3572.0,-2600.0,-15824.0,-112.0,805.0,1479.0,0.07988219894401731,0.7250221581361084,0.3016313218298643,0.6139871742916925
-1165.5572726726532,2340.0,-3576.0,-15976.0,114.0,124.0,456.0,0.04483150346128942,0.7307196237289595,0.27952598568253595,0.6212118729733157
-1165.5728805065155,2996.0,-2844.0,-15872.0,153.0,-385.0,-1265.0,0.11220608168220131,0.716714869027351,0.3645498060033116,0.5838090704087957
-1165.5885026454926,4660.0,-2816.0,-16016.0,-267.0,489.0,811.0,0.07163650233377226,0.7125652092225369,0.3039229335324873,0.6282912418711825
-1165.6041204929352,3880.0,-3236.0,-16340.0,433.0,1000.0,2231.0,-0.10186822075441151,0.7034965135984749,0.1907822731286251,0.6769916138439206
-1165.6197445392609,2648.0,-3020.0,-16744.0,649.0,467.0,526.0,-0.17994538090100787,0.6767687596394093,0.19202895585214375,0.6875526059748899
-1165.6353850364685,2892.0,-3012.0,-17280.0,1196.0,-485.0,-1402.0,-0.15616925557295014,0.6548290950587794,0.34942219112701434,0.6517009684098118
-1165.6509766578674,5012.0,-1516.0,-18200.0,2097.0,-474.0,-109.0,-0.25092729719165324,0.6388971736521605,0.47314540936301697,0.552249322880595
-1165.6666469573975,6508.0,-1048.0,-18892.0,3319.0,1929.0,3668.0,-0.6281530400638307,0.5669888006735047,0.35064893689991294,0.4012390574462428
-1165.6822438240051,5440.0,-2028.0,-15796.0,3936.0,1806.0,4504.0,-0.9093574182150523,0.37407246965403773,0.14642550127612977,0.1081593544739312
-1165.6978452205658,6008.0,-2648.0,-14600.0,1847.0,2362.0,3212.0,-0.9618247107242959,0.2301757333702313,-0.11974581212660096,-0.08702469813645697
-1165.7134461402893,6232.0,-4592.0,-17720.0,2297.0,5550.0,5514.0,-0.739913259004612,0.018103679666013426,-0.581577173505869,-0.33759238319110296
-1165.7290513515472,4020.0,-14440.0,-15292.0,6394.0,5657.0,-4631.0,-0.4570639464878082,0.00540775129765505,-0.8604578584802756,0.22511236933236406
-1165.7446694374084,8660.0,-12380.0,-13904.0,10950.0,5740.0,-9907.0,0.09593714460224478,0.1171538570520389,-0.5096047147680376,0.8469793815374643
-1165.7602622509003,11764.0,-14132.0,-13632.0,12022.0,10592.0,-4045.0,0.42347069668994886,-0.21943057906858845,0.289905632962992,0.829745451322802
-1165.7758810520172,6716.0,-15404.0,-13420.0,17626.0,10958.0,-301.0,0.24435318344211776,-0.1784821652065583,0.9498714776859354,0.07861179506676498
-1165.791465997696,1400.0,-9196.0,-10804.0,18035.0,8236.0,-2290.0,-0.07063818102772725,-0.020044269148722052,0.6041402861898596,-0.7934878633336632
-1165.8070895671844,-2276.0,-4984.0,-8284.0,15556.0,3688.0,-7471.0,-0.4112972103702155,-0.13855265522754392,-0.27698283326037626,-0.8572737465653143
-1165.8226931095123,-1992.0,-2648.0,-6528.0,10663.0,-529.0,-12545.0,-0.7044422521550241,-0.1470382001478016,-0.6895702115820417,-0.08144816986741284
-1165.8383152484894,1900.0,-1396.0,-7892.0,5192.0,-2376.0,-10059.0,-0.5996710778256285,0.08601013499404074,-0.49946300962773077,0.619300861545796
-1165.8539299964905,3600.0,-4036.0,-10796.0,2638.0,-3071.0,-7678.0,-0.2696073922894133,0.35771883955094297,-0.11063249287371658,0.887191939421102
-1165.86953663826,2672.0,6552.0,-16704.0,-3008.0,-3231.0,2515.0,-0.36704396552316687,0.5984392806780506,-0.31622546327752593,0.6380835455404563
-1165.8851726055145,-1688.0,-3884.0,-19200.0,-6864.0,-5583.0,-8284.0,0.20518059156131263,0.9328368626826037,-0.05986347861182218,0.2900563331415447
-1165.9007759094238,6036.0,-988.0,-23220.0,-7041.0,-6505.0,-8930.0,0.6387375937569464,0.670370410954841,0.2451407869100791,-0.28726954769159063
-1165.91641163826,10840.0,-1472.0,-21804.0,-5187.0,3432.0,12646.0,0.7479590541407897,0.4655590286564662,-0.10936853737522037,0.4602722750695157
-1165.932147026062,1136.0,-5088.0,-16952.0,-3430.0,4010.0,10077.0,0.3695180063292819,-0.010899850219816133,-0.2803167430819021,0.8858668973449528
-1165.947793006897,-2248.0,-4788.0,-15192.0,-4491.0,-1460.0,-3849.0,0.5535901132301516,0.04519568664157126,-0.5990623382960226,0.576731871217576
-1165.963434934616,5796.0,-1616.0,-14836.0,-5557.0,1093.0,4414.0,0.34776039746533166,-0.43124370400900736,-0.7148227388114237,0.42675522935926835
-1165.9790313243866,3244.0,-4236.0,-14208.0,-4165.0,2614.0,6859.0,0.07934537577534545,-0.8718926706556936,-0.42888648481173314,0.22262943503900487
-1165.9946718215942,-140.0,-5848.0,-12432.0,-3074.0,-1965.0,-7982.0,-0.057792468961758055,-0.4415944459529206,-0.8809318358753752,0.16004210813432387
-1166.0102591514587,6572.0,-7016.0,-12580.0,-4906.0,-3391.0,-11819.0,-0.22396621402546543,0.35292509627294644,-0.9082806224088318,-0.01758756243644902
-1166.0258736610413,11272.0,-10304.0,-15480.0,-2197.0,-319.0,-391.0,-0.17859021364504582,0.41842122123259146,-0.869990757720396,-0.19011916971608817
-1166.0415275096893,8280.0,-4820.0,-15008.0,-886.0,2365.0,8924.0,0.1411478472284102,-0.1602082682131711,-0.9467772710987156,-0.24088045779969666
-1166.0571608543396,1896.0,-5044.0,-15784.0,-5170.0,1889.0,3457.0,0.2588651790255561,-0.4087408037035714,-0.6668174492514688,-0.5668106066840934
-1166.0727677345276,1124.0,-8584.0,-17056.0,-2904.0,-1054.0,-1331.0,0.026949301686156644,-0.43101607499744365,-0.5705084706671436,-0.698583540551496
-1166.0883700847626,6088.0,-4196.0,-15992.0,-1699.0,469.0,3825.0,0.20618572032335195,-0.5604051446844679,-0.30229103582225586,-0.7430031306848099
-1166.1039814949036,4156.0,-2412.0,-16356.0,-1441.0,1460.0,4268.0,0.41676331676029293,-0.5586881112737063,0.024070852773111075,-0.716656491054922
-1166.1195816993713,1484.0,-1788.0,-16140.0,415.0,-1527.0,-4330.0,0.15709190414246008,-0.6015872697614358,-0.24908602429770735,-0.7425436303769897
-1166.135244846344,5008.0,292.0,-15324.0,-898.0,-2197.0,-8172.0,-0.3751890505159785,-0.46472878341070367,-0.5219103207086112,-0.6089909288161526
-1166.1508407592773,8632.0,-1608.0,-15404.0,-2089.0,-207.0,-3413.0,-0.6141226089842888,-0.23799034963264107,-0.512237168550202,-0.5512051322073622
-1166.1664607524872,7200.0,-4036.0,-15608.0,-693.0,2435.0,2844.0,-0.3631397098051233,-0.2002503094055583,-0.5223969463641268,-0.745071000089968
-1166.182042837143,2784.0,-4392.0,-14744.0,-24.0,2080.0,860.0,-0.20870724516661363,-0.10163510477580871,-0.5612143322555269,-0.7944495355673364
-1166.1976273059845,20.0,-5764.0,-14960.0,-337.0,-1130.0,-7456.0,-0.6546859092568491,0.15977060702240184,-0.48737374337493455,-0.555271598067945
-1166.2132141590118,3272.0,-5848.0,-14544.0,-275.0,-3578.0,-12140.0,-0.9336264833706348,0.348032271727251,-0.06744242801126965,0.051639580646005045
-1166.228777885437,8072.0,-4920.0,-14388.0,-1118.0,-1876.0,-6978.0,-0.7410929271641525,0.41213120694182737,0.24648474715952637,0.46922746188777725
-1166.2444293498993,9208.0,-4612.0,-15192.0,-640.0,823.0,1429.0,-0.7848764661233549,0.44551526049562995,0.11445876725404211,0.4151918546767391
-1166.2600951194763,5472.0,-3776.0,-15300.0,-65.0,1476.0,2692.0,-0.8640325266566733,0.40922142363858693,-0.09035509096916361,0.27896518931660197
-1166.2757198810577,3196.0,-3284.0,-14868.0,-20.0,-485.0,-2198.0,-0.7982377405958315,0.4319021833576087,0.023757208310686326,0.4191808780856725
-1166.2913129329681,4748.0,-3268.0,-15264.0,-563.0,-1067.0,-3599.0,-0.6103971004886484,0.47744019285136674,0.2023637167450516,0.5987613615708924
-1166.3069117069244,6568.0,-3508.0,-15100.0,-491.0,-138.0,-1535.0,-0.5022150975491814,0.47919475695066027,0.24566641859796667,0.676609482255394
-1166.3225073814392,5624.0,-3840.0,-14944.0,-529.0,13.0,-970.0,-0.42107715829955733,0.4788512342140188,0.25332800193116134,0.7274753918089916
-1166.3381519317627,4696.0,-3852.0,-15104.0,-618.0,-458.0,-2168.0,-0.2426153945382308,0.4735220962356373,0.31529366702328804,0.7858145444344198
-1166.3537428379059,4736.0,-4068.0,-14948.0,-921.0,-852.0,-2847.0,0.01360790076748694,0.4568395575565174,0.3743360502691806,0.8068363930544636
-1166.3693714141846,5100.0,-3868.0,-15224.0,-547.0,-862.0,-2473.0,0.23139738540720012,0.42493125274534693,0.42211830243387155,0.7666190835201852
-1166.3849647045135,5280.0,-3300.0,-15240.0,-482.0,-463.0,-2048.0,0.39628323332877524,0.3645963962756503,0.44871555524822965,0.713220454897063
-1166.400558233261,5120.0,-3524.0,-15172.0,-378.0,-417.0,-1790.0,0.528880639365091,0.30357745779219836,0.46170698009584654,0.6441681930644917
-1166.4161319732666,5744.0,-3512.0,-15088.0,-440.0,-56.0,-406.0,0.5646985387316868,0.2699059928062036,0.4446791856826319,0.6407236043897765
-1166.4317662715912,5648.0,-3712.0,-15276.0,-356.0,241.0,523.0,0.5334125351950642,0.2589442573445907,0.42374420682947894,0.6847333685921027
-1166.4473679065704,5092.0,-3676.0,-15208.0,-160.0,104.0,632.0,0.4944577687148739,0.26842722297740734,0.4042271940667116,0.7211509665105486
-1166.4629497528076,5208.0,-3608.0,-14940.0,-193.0,-3.0,169.0,0.48819506606013413,0.26642014830335775,0.3880361486467909,0.7349243698476217
-1166.4786303043365,5652.0,-3504.0,-14988.0,-423.0,362.0,1733.0,0.3698446408211414,0.28059660850693896,0.3319958812122581,0.82113288803237
-1166.4942247867584,5496.0,-4004.0,-15164.0,-405.0,740.0,2839.0,0.14983125335363917,0.2875741673445852,0.24923344713148243,0.9125428113932542
-1166.5098242759705,4616.0,-3796.0,-15320.0,-153.0,497.0,2599.0,-0.06253617863602946,0.2950287461590968,0.17379652543140303,0.9374657503340404
-1166.5254156589508,4780.0,-3424.0,-15228.0,-56.0,429.0,2389.0,-0.2573598644584312,0.2903309412567769,0.10311650383678586,0.9158825423335518
-1166.5410509109497,4884.0,-3200.0,-15024.0,-8.0,750.0,2172.0,-0.4289599292112613,0.24553654840345027,0.030030959140624848,0.868794178170114
-1166.5567018985748,5404.0,-3516.0,-15088.0,-394.0,606.0,2531.0,-0.5983806133342581,0.21567301531342573,-0.074802170929649,0.7680041844127828
-1166.5722997188568,5168.0,-3652.0,-15320.0,-285.0,676.0,2801.0,-0.7526211661989304,0.162185355437032,-0.17641644855593286,0.6132980738189525
-1166.5878591537476,4856.0,-3668.0,-15288.0,-187.0,424.0,1976.0,-0.8361190624601397,0.1197937995116201,-0.23862774815019472,0.47917758378508696
-1166.6034638881683,4488.0,-3600.0,-15284.0,-186.0,160.0,963.0,-0.8677690881316279,0.1065003907220895,-0.26729755383225984,0.40519932647344764
-1166.6190774440765,4808.0,-3916.0,-14904.0,-355.0,190.0,886.0,-0.8880764555569819,0.10589010319269829,-0.301545458394857,0.3304206888992016
-1166.6346762180328,4880.0,-4360.0,-15196.0,-379.0,261.0,1120.0,-0.9048631081229414,0.09797913836608806,-0.34132188576879247,0.23478120516422227
-1166.650246143341,4584.0,-4160.0,-15260.0,-21.0,298.0,1121.0,-0.9140001896355294,0.060067349642571675,-0.3731610599415479,0.14746657314942221
-1166.665849685669,4308.0,-3824.0,-14976.0,-82.0,-33.0,211.0,-0.9170660663399407,0.06033959443879866,-0.3728448172586173,0.12781121059647796
-1166.6814494132996,4952.0,-3864.0,-14984.0,-265.0,-164.0,-324.0,-0.9165753530596532,0.09404545038211823,-0.3609054757041649,0.14419539879187263
-1166.6970546245575,5568.0,-3684.0,-15276.0,-173.0,339.0,991.0,-0.9129351840539002,0.07231822812452918,-0.39682526908785287,0.06204135242524193
-1166.7127165794373,5088.0,-3728.0,-15156.0,-141.0,597.0,1405.0,-0.8909238448160931,0.031563227820362284,-0.45022959568632764,-0.05051511215266016
-1166.7283120155334,4416.0,-3820.0,-15216.0,8.0,404.0,808.0,-0.8686834043405363,0.001089061769048716,-0.4826525750423779,-0.11150985953162013
-1166.7439517974854,4552.0,-3740.0,-15168.0,-255.0,503.0,15.0,-0.8461557746630015,0.024734223647347203,-0.517926256681643,-0.12313007684867219
-1166.759550333023,4712.0,-4016.0,-15132.0,144.0,-65.0,-262.0,-0.8517762154307348,0.025325726088256076,-0.5141661993615524,-0.09730881696276864
-1166.775140285492,5436.0,-3720.0,-15084.0,-96.0,119.0,-480.0,-0.849336308597028,0.0550478441179218,-0.5208661464505323,-0.06554408622076988
-1166.7907733917236,5536.0,-3888.0,-14904.0,-142.0,398.0,603.0,-0.825263189327437,0.04046714140621596,-0.5515398660654925,-0.1144851734853685
-1166.8063728809357,5340.0,-3956.0,-15128.0,-83.0,415.0,625.0,-0.7968666818683442,0.02055082007855185,-0.5817754684725616,-0.1616120645427369
-1166.8220002651215,4660.0,-3772.0,-15148.0,-57.0,361.0,458.0,-0.7708017768269937,0.006407440028210457,-0.6063409055019502,-0.19538237348263973
-1166.837609052658,4704.0,-4076.0,-15104.0,-99.0,509.0,129.0,-0.7406340141712578,0.014957348251677013,-0.6384980484262543,-0.2087049998004635
-1166.8532149791718,4716.0,-4036.0,-15204.0,95.0,-241.0,-384.0,-0.7603934756580247,0.025854555537023146,-0.623866873275401,-0.178671286345251
-1166.868801832199,5168.0,-3796.0,-14884.0,-23.0,-118.0,-752.0,-0.7766118671556504,0.0663975698013508,-0.6128513835969824,-0.12991748204438563
-1166.8843955993652,5520.0,-3828.0,-14900.0,-271.0,72.0,-114.0,-0.7720452573001425,0.0917326366207425,-0.6139997938821093,-0.13614513275064594
-1166.9000017642975,5280.0,-4008.0,-15092.0,-179.0,374.0,664.0,-0.740781386029399,0.07258358326666287,-0.6411069060225986,-0.1869665654673721
-1166.915635585785,4476.0,-3920.0,-15152.0,-65.0,115.0,23.0,-0.7333317873963895,0.07744849009763519,-0.6478013699332629,-0.1912579569278123
-1166.931339263916,4324.0,-3924.0,-15124.0,-158.0,-387.0,-1457.0,-0.7715660544276995,0.1621437952371793,-0.6054910873731401,-0.10851615747273936
-1166.946995973587,5144.0,-3812.0,-15164.0,-25.0,-351.0,-1204.0,-0.7962318421878999,0.22292629198228336,-0.5614269695636123,-0.033443679159320436
-1166.962653875351,5648.0,-3600.0,-15024.0,-201.0,179.0,-74.0,-0.7833563901841096,0.24113913433478584,-0.5718468863087346,-0.03458066611556855
-1166.978259086609,5024.0,-3984.0,-15128.0,-150.0,159.0,-61.0,-0.7721122128604798,0.2550407582614651,-0.5810415050119686,-0.03446319530363638
-1166.9938712120056,4592.0,-3820.0,-15156.0,-24.0,-176.0,-973.0,-0.7803357779367102,0.3045061941099048,-0.5455993824599998,0.02594928283936285
-1167.0095281600952,4892.0,-3764.0,-15136.0,-211.0,-288.0,-1416.0,-0.7787373765507326,0.3840374029385686,-0.4850633434753232,0.10390824954556233
-1167.0251500606537,5320.0,-3912.0,-15096.0,-135.0,-234.0,-1274.0,-0.7674206016842796,0.4466116717576752,-0.4250625630698062,0.1758563397688004
-1167.0407433509827,5280.0,-3708.0,-14852.0,-228.0,72.0,-309.0,-0.7504784211184391,0.472203570171098,-0.4211790181569967,0.19082495229280663
-1167.056333065033,4688.0,-3928.0,-15060.0,-106.0,-88.0,-793.0,-0.7341164383700094,0.5087389453616131,-0.3836422091830793,0.23468360769430024
-1167.0719983577728,4492.0,-3616.0,-14900.0,-35.0,-450.0,-1770.0,-0.702292890705109,0.5724607999892161,-0.2735688456673187,0.32285200142018544
-1167.0875878334045,4868.0,-3608.0,-14924.0,-187.0,-417.0,-1800.0,-0.6435805162247411,0.6306480300057138,-0.16129099575563652,0.40258216065042346
-1167.1031699180603,5496.0,-3892.0,-15012.0,-271.0,-131.0,-880.0,-0.5974262776247924,0.6609146727815978,-0.11464855765461726,0.4394648408383704
-1167.1188085079193,5240.0,-3648.0,-15264.0,-41.0,104.0,-239.0,-0.5845080440046263,0.6615148274482558,-0.10782564006385993,0.45729871080597756
-1167.1344318389893,4632.0,-3728.0,-15348.0,-91.0,-76.0,-873.0,-0.5433432824618237,0.6756403534290647,-0.057024410092403326,0.4950115219623408
-1167.150067806244,5116.0,-3932.0,-14944.0,-138.0,-401.0,-1420.0,-0.4717615360323745,0.7009540676907928,0.0394190732982809,0.5334328306060763
-1167.1656539440155,5484.0,-3764.0,-15220.0,-217.0,-146.0,-613.0,-0.4285773507951615,0.7135845930494306,0.07271719187931594,0.5493912021074476
-1167.1812574863434,5380.0,-3788.0,-14852.0,-85.0,93.0,-25.0,-0.42251708053094583,0.7123186172374348,0.06673398628164275,0.5564423413719668
-1167.196879863739,4868.0,-3648.0,-15332.0,-166.0,-10.0,-127.0,-0.4057764288643392,0.7182823052253416,0.06693796850809498,0.5611909907957203
-1167.2125041484833,5204.0,-3708.0,-15236.0,-180.0,80.0,309.0,-0.4097579915753901,0.7223893478612723,0.03591827103348107,0.5558434098220775
-1167.2281000614166,5076.0,-3684.0,-15092.0,-63.0,171.0,601.0,-0.4346900766223661,0.7173732521172043,-0.011111102248910603,0.5443314227928073
-1167.243736743927,5044.0,-3584.0,-14904.0,-197.0,214.0,767.0,-0.4572668203476429,0.7123343034448699,-0.07639770209394484,0.5269253137396546
-1167.2593286037445,4916.0,-3784.0,-15248.0,-44.0,346.0,526.0,-0.47553384437006085,0.6938470300437269,-0.12474089101810197,0.5261972746662035
-1167.2749428749084,4740.0,-3676.0,-15168.0,59.0,139.0,354.0,-0.4934062764482953,0.681005801621495,-0.14916641369695258,0.5201256824500046
-1167.2905550003052,4960.0,-3340.0,-15144.0,-36.0,128.0,137.0,-0.49557712677021415,0.6750974589487891,-0.16444577203757382,0.521156713860652
-1167.3061690330505,5304.0,-4080.0,-14860.0,-42.0,328.0,649.0,-0.5166983676867914,0.6515996895467434,-0.21835153259235102,0.5106498307323368
-1167.3218047618866,5004.0,-3864.0,-15224.0,105.0,360.0,788.0,-0.5491576664041525,0.6142671127032324,-0.2739510599127736,0.49603688215035774
-1167.337414741516,4772.0,-3552.0,-15200.0,74.0,163.0,30.0,-0.5502715019273632,0.6031077395547341,-0.28018055414154996,0.5049368136081156
-1167.3530230522156,4900.0,-4096.0,-14960.0,68.0,-68.0,-323.0,-0.5408632147539865,0.6107036758271256,-0.2568609517008298,0.5181992423272772
-1167.3686249256134,5548.0,-3620.0,-15032.0,4.0,140.0,423.0,-0.556463666026456,0.594493535730064,-0.2856509839843934,0.5053010387049601
-1167.3842408657074,5296.0,-3732.0,-15128.0,-57.0,493.0,1074.0,-0.5852816808298477,0.5460928602750698,-0.36592295704759803,0.4746876146974168
-1167.3998537063599,4640.0,-3820.0,-15120.0,108.0,493.0,392.0,-0.5898167987017285,0.5070867051340643,-0.4047592553673805,0.48077974441522237
-1167.4154479503632,4736.0,-3660.0,-14900.0,-38.0,249.0,-184.0,-0.5712127430232269,0.5051370727293886,-0.41096500765972227,0.49966018696861375
-1167.4310774803162,5172.0,-3856.0,-15156.0,-53.0,84.0,53.0,-0.5679527833658773,0.5024209305077925,-0.41986780865744344,0.49871220930295396
-1167.4466788768768,5180.0,-4040.0,-15072.0,33.0,225.0,656.0,-0.5884336228532198,0.4663352800935983,-0.4575981762918094,0.4763204667975858
-1167.4622914791107,4928.0,-3900.0,-15088.0,-151.0,298.0,740.0,-0.5994456891292044,0.4312964566503587,-0.5081236560037768,0.44323648594696485
-1167.4779033660889,4644.0,-4312.0,-15160.0,-254.0,84.0,133.0,-0.5908924233892079,0.4354977032501799,-0.5272874001782663,0.4279671623597918
-1167.493543624878,4796.0,-3844.0,-14852.0,-15.0,-72.0,-5.0,-0.5932195080329007,0.43938892084106324,-0.524053806793652,0.42473003086244215
-1167.5091819763184,5372.0,-3932.0,-14992.0,-37.0,11.0,-63.0,-0.5887304486752056,0.4439801362638205,-0.5236791428414906,0.42665941072318114
-1167.5247774124146,5364.0,-3896.0,-15028.0,-46.0,220.0,647.0,-0.599696840353893,0.40807090106760613,-0.5608741114900374,0.3990765220251505
-1167.5403707027435,4924.0,-3968.0,-15080.0,-129.0,505.0,655.0,-0.5913968620635975,0.36440547358065456,-0.613610981400246,0.37541971960835485
-1167.5560193061829,4736.0,-3968.0,-15132.0,24.0,74.0,280.0,-0.5969489620004008,0.3458221411411251,-0.6254892954250664,0.364447698266659
-1167.5716166496277,4904.0,-3828.0,-15088.0,-11.0,117.0,150.0,-0.5946860928830061,0.33461977377794966,-0.636517527441058,0.3594766963082033
-1167.5872087478638,5044.0,-3972.0,-14992.0,-99.0,149.0,259.0,-0.5911849273329657,0.3207527372617277,-0.6548158815067482,0.3447234029768871
-1167.6027896404266,5000.0,-3848.0,-15192.0,-63.0,227.0,488.0,-0.5902329064349303,0.2891339487399229,-0.6814699077286308,0.3219090565792856
-1167.6183714866638,4736.0,-3964.0,-15136.0,66.0,121.0,47.0,-0.5857329353685475,0.2796746615829672,-0.6871342584081113,0.3264131170999916
-1167.634004831314,4864.0,-3700.0,-14856.0,-55.0,-48.0,-400.0,-0.5752677305893467,0.3077991330586205,-0.676212795910193,0.3421446864679682
-1167.6496341228485,5208.0,-3916.0,-15096.0,-176.0,201.0,22.0,-0.5589364020590323,0.30941183479429124,-0.6921031082534308,0.3359281210147103
-1167.6652119159698,4688.0,-3736.0,-15120.0,197.0,429.0,560.0,-0.5533873708126641,0.2530418496319367,-0.7210543556222002,0.33138022934108335
-1167.680855512619,4080.0,-4128.0,-15260.0,189.0,-103.0,-1171.0,-0.5270891185602802,0.31899672231999887,-0.6812461089235743,0.39537563319068336
-1167.6964745521545,4732.0,-3780.0,-14864.0,373.0,-308.0,-1310.0,-0.5065954391963453,0.3876379053176742,-0.6133505809829579,0.46572414598585676
-1167.7121086120605,5448.0,-3784.0,-15200.0,57.0,276.0,-434.0,-0.4754008381858847,0.39690921107916144,-0.6080621406956885,0.4967067084963242
-1167.727745294571,4796.0,-4120.0,-14804.0,423.0,-179.0,-801.0,-0.463117459098451,0.4284167289515477,-0.5529025079825433,0.5443162151720858
-1167.743349313736,5304.0,-4096.0,-14784.0,-342.0,-126.0,-1119.0,-0.4009450992952055,0.4997707825652449,-0.5196018833853612,0.5652309926283822
-1167.7589490413666,5468.0,-4432.0,-15148.0,156.0,450.0,787.0,-0.4246157959131356,0.4352364332427971,-0.5602837235386444,0.5624525065966146
-1167.7745914459229,4152.0,-3980.0,-15116.0,242.0,212.0,-524.0,-0.3969720877091897,0.44103294441661456,-0.5357285750630036,0.6007478650648558
-1167.7901928424835,3976.0,-3888.0,-14968.0,184.0,-1074.0,-3107.0,-0.279895957355134,0.6116361289186073,-0.3550777311605054,0.6492143742182713
-1167.8058166503906,5812.0,-3888.0,-15148.0,200.0,-909.0,-2510.0,-0.17179892609091854,0.7169061075440071,-0.1827465372367683,0.6504878669799137
-1167.8214116096497,6828.0,-3172.0,-15128.0,-30.0,404.0,703.0,-0.20280962189700463,0.6817181127802764,-0.23394141626175777,0.6628726014331378
-1167.8369739055634,5128.0,-3756.0,-15264.0,86.0,149.0,89.0,-0.2099370194876395,0.6698736128405878,-0.23693614053276776,0.6716078141132528
-1167.8526027202606,4384.0,-3480.0,-15028.0,77.0,-275.0,-1360.0,-0.13933707452180996,0.7077177461470681,-0.1468911191313768,0.6768631845303371
-1167.8681824207306,5504.0,-3824.0,-15140.0,-242.0,-271.0,-805.0,-0.08005841673023024,0.7350052474010355,-0.1079192796590227,0.6646136962788755
-1167.883813381195,5656.0,-4588.0,-15368.0,203.0,-43.0,592.0,-0.12764126727545952,0.7296094564067995,-0.13368468094826239,0.6584118423068119
-1167.8994553089142,5372.0,-3352.0,-15240.0,378.0,240.0,910.0,-0.2003799142566164,0.6984747107018625,-0.17195880975044706,0.6651399373227186
-1167.915104150772,4512.0,-3380.0,-15400.0,438.0,42.0,105.0,-0.23230282471068625,0.6864843011559238,-0.15361410626332594,0.6716974082537602
-1167.9308006763458,4680.0,-3108.0,-15220.0,683.0,2.0,-203.0,-0.2607196786570617,0.6741668455358529,-0.10132036796892646,0.6835630889507105
-1167.9464831352234,4992.0,-3272.0,-15544.0,719.0,414.0,330.0,-0.3180098260367495,0.6285331134685183,-0.08704368304073608,0.7044425264422577
-1167.9620804786682,4604.0,-3472.0,-15388.0,995.0,576.0,303.0,-0.3846992054242345,0.5604642067913582,-0.058213912724061304,0.7310933829662608
-1167.977741241455,4240.0,-3724.0,-15584.0,1384.0,300.0,-870.0,-0.3912019679148498,0.49438877371835227,0.061870280122819026,0.7737653579466689
-1167.993554353714,4420.0,-3512.0,-15600.0,1761.0,113.0,-1701.0,-0.34508251472478635,0.4085118654907285,0.24476832553467112,0.8087796860699804
-1168.009221792221,5204.0,-3588.0,-15528.0,1890.0,404.0,-1292.0,-0.3233019455456335,0.28986743736382464,0.40390214777838507,0.8051805858206873
-1168.0248684883118,5252.0,-3716.0,-15620.0,2413.0,885.0,-449.0,-0.3744032797764008,0.14042981705160543,0.5460169474011559,0.7361841778564995
-1168.040498971939,4908.0,-3176.0,-15660.0,2849.0,1066.0,-488.0,-0.41402967093044446,-0.04271507480433448,0.6763872073968094,0.6076637225008857
-1168.0561094284058,4860.0,-2928.0,-15860.0,3074.0,1336.0,-558.0,-0.43312447043208874,-0.24686540236237836,0.756681786108865,0.422957847545688
-1168.0717403888702,4932.0,-2960.0,-16308.0,3953.0,2119.0,191.0,-0.46069957381787163,-0.430023208712225,0.76978705871411,0.10131054678143231
-1168.0873272418976,4468.0,-3248.0,-16396.0,5019.0,2580.0,733.0,-0.4047234990787889,-0.5421801301923489,0.6610254337484933,-0.3244764577833738
-1168.102914571762,3852.0,-2716.0,-16768.0,6244.0,3233.0,57.0,-0.25054660186625166,-0.5693491014871876,0.3178535486820862,-0.7155676924786438
-1168.1184816360474,3732.0,-2352.0,-16992.0,6960.0,3601.0,-1138.0,-0.062209030904612043,-0.4347818054271987,-0.20722716005883238,-0.8741577216254087
-1168.1340889930725,3868.0,-2648.0,-17840.0,8342.0,5120.0,-906.0,0.21087558843271775,-0.05571372606064581,-0.6875367396253321,-0.6926187252716769
-1168.1496999263763,3796.0,-3076.0,-17940.0,9596.0,6418.0,-1226.0,0.3993274101881993,0.4090158739947097,-0.8117384774979844,-0.11968407764604087
-1168.165355682373,4668.0,-3824.0,-17980.0,9576.0,7902.0,-1065.0,0.4101359990510994,0.6096512579138249,-0.40510159928041417,0.5440647941807101
-1168.1809418201447,4928.0,-5240.0,-18300.0,9834.0,8831.0,-904.0,0.1582538078251684,0.37584307652391985,0.27856109909399035,0.869540929576876
-1168.1965396404266,4772.0,-5952.0,-18904.0,9341.0,8259.0,-3449.0,-0.0578663117759076,-0.13622045730682783,0.8053972140934683,0.573960629750031
-1168.2121407985687,5644.0,-5756.0,-19964.0,9188.0,8012.0,-4888.0,-0.17549910785524453,-0.6096890149674997,0.7672554953634019,-0.09379964288116416
-1168.2277715206146,6740.0,-5044.0,-20744.0,8678.0,8336.0,-5928.0,-0.20796515192500786,-0.6957682166915071,0.1644409960744812,-0.6675449370916994
-1168.2434339523315,6872.0,-6940.0,-19920.0,9129.0,8120.0,-5035.0,-0.04152775360178993,-0.3019828391539485,-0.5374585281944689,-0.7862697635089021
-1168.2590646743774,7676.0,-6920.0,-15996.0,10369.0,8293.0,1880.0,0.48710172244117256,0.09165906139683012,-0.7987337380321927,-0.3411084053315243
-1168.2746534347534,7408.0,-4012.0,-11156.0,7075.0,8565.0,5407.0,0.8080898009364155,0.18384860282582222,-0.46828055135114327,0.306437416266041
-1168.2902476787567,4348.0,-3232.0,-9232.0,3882.0,6792.0,12205.0,0.4321575634953891,-0.13813290046350174,-0.05062277251246405,0.8897170769556019
-1168.305843114853,-504.0,3512.0,-8412.0,757.0,6578.0,25099.0,-0.5970629602079238,-0.2953372339306459,0.22577023569927387,0.7108583125168055
-1168.321435213089,-10492.0,4144.0,-8752.0,-5769.0,1042.0,12480.0,-0.984623101637639,0.11900305013539784,0.08644968024949347,0.09424475881823786
-1168.337012052536,-12624.0,732.0,-11560.0,-10674.0,-10427.0,-10861.0,-0.3723035691793997,0.5486500751757606,0.53127515735343,0.5273706993804266
-1168.352701663971,-2184.0,-2548.0,-14184.0,-11712.0,-16112.0,-14100.0,0.6734211495802084,0.43227391242340457,0.5061504363121107,0.32164414460284063
-1168.368302822113,7328.0,-4000.0,-15528.0,-12036.0,-12552.0,1179.0,0.905737133141906,0.0711337503032413,-0.3372300715664622,0.24669032013225878
-1168.383918762207,6488.0,-5276.0,-16048.0,-11332.0,-10314.0,13195.0,0.191493294767522,-0.48845600093028985,-0.7289187403757956,0.4397937279489457
-1168.3995003700256,328.0,-4284.0,-15068.0,-12599.0,-13692.0,5902.0,-0.7305080517800209,-0.2779342917518133,-0.6023331766435404,0.16218896407424907
-1168.415087223053,16.0,-4916.0,-15456.0,-15488.0,-18009.0,-5440.0,-0.8407742073813149,0.5320869565157942,0.08271067310495372,0.05604594064342566
-1168.4306859970093,4444.0,-6368.0,-17644.0,-14537.0,-19242.0,-7465.0,0.004015992844432626,0.6774644448032914,0.7315703113189473,-0.07635887260521926
-1168.4462988376617,7996.0,-3912.0,-18516.0,-13582.0,-16161.0,-130.0,0.8767696720829724,0.26557828247367943,0.39316288621945283,-0.07852428218988822
-1168.4619028568268,6108.0,-5136.0,-17744.0,-13677.0,-14265.0,3279.0,0.8468945762547073,-0.3804415035916175,-0.3379019473733012,0.15445424246889292
-1168.4775309562683,3160.0,-6544.0,-16664.0,-12098.0,-15996.0,-812.0,-0.007718742425210789,-0.5131902575422116,-0.8478362732089352,0.13322850449628204
-1168.4931590557098,4648.0,-4416.0,-16104.0,-12692.0,-16850.0,-2700.0,-0.8497167552119353,-0.05166184915089431,-0.5241759095081596,-0.023496917791566888
-1168.5087523460388,6964.0,-4220.0,-16916.0,-13662.0,-15538.0,-252.0,-0.7860569717541835,0.45600400054648654,0.3172394579808149,-0.27117137559536336
-1168.5243680477142,6768.0,-4928.0,-17256.0,-13090.0,-14009.0,2258.0,0.08991961143768994,0.553804900800036,0.7646882901593036,-0.31696437374253533
-1168.5399749279022,5124.0,-5608.0,-16508.0,-12447.0,-13441.0,-703.0,0.8315729878420354,0.019822921165708544,0.549988765371462,-0.07487172799597447
-1168.5556056499481,6320.0,-5248.0,-16280.0,-12972.0,-12364.0,-2845.0,0.762882356949583,-0.6082273188670392,-0.13746695820743327,0.17080068337116772
-1168.5712082386017,8572.0,-4004.0,-16708.0,-13039.0,-9456.0,3923.0,-0.057561380102230254,-0.7860921762162363,-0.428279397731783,0.4419530919575622
-1168.586811542511,6276.0,-3636.0,-15728.0,-11817.0,-6158.0,8487.0,-0.8370832212600875,-0.4735378421232308,-0.15910322111556557,0.22302411930721955
-1168.602426290512,3152.0,-4920.0,-16304.0,-10951.0,-5287.0,6428.0,-0.9525308156071637,0.2176048545844305,0.1789641322408666,-0.1153473534647159
-1168.618015050888,3072.0,-3364.0,-15844.0,-9638.0,-4846.0,4611.0,-0.4522742103236603,0.728123144883935,0.4132076819599285,-0.3074803020190733
-1168.633582353592,4756.0,-2968.0,-16448.0,-8130.0,-1553.0,10073.0,0.2579498169540226,0.9048463589289847,0.03482372250755368,-0.3369009750906967
-1168.6491820812225,776.0,-3088.0,-16852.0,-5881.0,-103.0,9357.0,0.7180564396895724,0.5744064597803924,-0.38398235411197,-0.08372407129088794
-1168.6647760868073,-2344.0,-1964.0,-16280.0,-4217.0,-2299.0,2476.0,0.7871952080662072,0.19047295564706265,-0.5621444525552292,-0.167443638356476
-1168.6803603172302,-2040.0,-44.0,-15284.0,-4888.0,-3890.0,-4354.0,0.511200602183889,0.00960507345492876,-0.5711912445576041,-0.642123235081468
-1168.6960582733154,500.0,-736.0,-15024.0,-5527.0,-4066.0,-4463.0,0.0512350516253738,-0.19721520984606272,-0.3575628099401195,-0.9113890318837751
-1168.7116694450378,1096.0,-788.0,-15276.0,-5713.0,-2150.0,-2866.0,-0.29486702752033556,-0.2624533839389529,0.0324351614931902,-0.9182154527338476
-1168.7272913455963,332.0,-1952.0,-15668.0,-4148.0,-2192.0,-2032.0,-0.49900200829372265,-0.30811623323281473,0.3422527929758631,-0.7341147105442545
-1168.7429099082947,300.0,-396.0,-15516.0,-3456.0,-1431.0,-1019.0,-0.5819416232281186,-0.2651421798509382,0.567177677482962,-0.5189923446290398
-1168.7585225105286,-264.0,-2752.0,-15744.0,-1537.0,-133.0,-1139.0,-0.6532402263504549,-0.24612804505569572,0.6089621611420561,-0.37664741922899775
-1168.7741432189941,-236.0,-3060.0,-15368.0,690.0,-12.0,-3330.0,-0.7161718644928302,-0.443745932908186,0.49438543365292553,-0.21394029664398337
-1168.7897436618805,1408.0,-2340.0,-15620.0,1671.0,-59.0,-3533.0,-0.676393129292483,-0.6642554925966336,0.31258745453943765,-0.05954879063156048
-1168.8053731918335,1180.0,-3760.0,-14564.0,3206.0,97.0,-5425.0,-0.4566136040239965,-0.8772092216465189,-0.021171921365550784,0.14683238002639742
-1168.8209555149078,2428.0,-2812.0,-13524.0,2862.0,44.0,-9201.0,-0.09127236078701594,-0.7461654395233688,-0.5285619826456975,0.39437130159142164
-1168.8365545272827,4828.0,-4220.0,-13760.0,3007.0,1520.0,-7058.0,0.3450324000229516,-0.4103868781891458,-0.740744088652146,0.40476344730159447
-1168.8521845340729,6380.0,-3740.0,-13800.0,3775.0,4207.0,1553.0,0.6208036647704791,-0.4858810448531085,-0.37867546510560757,0.48489928045630876
-1168.8678290843964,2372.0,-4036.0,-14288.0,4956.0,5136.0,3763.0,0.6879643159543826,-0.4573212993708366,0.2196558220037655,0.5189543804372772
-1168.8834567070007,-344.0,-5352.0,-14756.0,6462.0,5291.0,1256.0,0.6338968585344895,-0.22957953787622282,0.7084686088448696,0.2086629790117559
-1168.8990874290466,-224.0,-6076.0,-15864.0,9753.0,5930.0,-533.0,0.33432231258259615,0.11956777950019097,0.8521957740631607,-0.3843104215132721
-1168.9147074222565,-1748.0,-6984.0,-16008.0,13455.0,5078.0,-7688.0,-0.2539831718945358,0.06361870330193026,0.361944694630136,-0.894673821576148
-1168.9303755760193,144.0,11148.0,-32000.0,30462.0,-15740.0,-2215.0,-0.031266320525728045,-0.6044538677937191,-0.5236483176764396,-0.5995418069698143
-1168.9460759162903,6240.0,32767.0,-2108.0,-32768.0,23566.0,32767.0,0.22200005973928497,-0.1677236105587895,0.6145365203500395,-0.7381934902807956
-1168.9617021083832,-32768.0,-32768.0,-25504.0,8969.0,3431.0,-32768.0,-0.6177439221676916,-0.4868521136352293,-0.11967467890727135,-0.605842749648973
-1168.9773635864258,18548.0,4248.0,-20820.0,3993.0,-14610.0,-32768.0,-0.7058718478110568,-0.34268536899112595,-0.282981324016902,0.55157342449112
-1168.9929621219635,32767.0,9244.0,-27308.0,988.0,10998.0,-3126.0,-0.17956303222523237,-0.604738119603322,-0.7110710278952653,0.3105268385255759
-1169.0085728168488,14956.0,-27300.0,-19564.0,11180.0,32767.0,32767.0,0.36369781815336927,-0.8650362314403798,0.18879548337975263,-0.28946930894537015
-1169.0241556167603,-32768.0,-2976.0,-6592.0,30418.0,8886.0,-3730.0,0.8177287569502799,0.08911079639464856,-0.19574506834720806,-0.5339127402864708
-1169.039792060852,-12044.0,17076.0,-4788.0,-9487.0,-11232.0,-32768.0,-0.2514231582202693,-0.1675289265257742,-0.09132116610265081,-0.9488840281664136
-1169.0554375648499,19772.0,-7676.0,-16176.0,-9640.0,-5627.0,-32768.0,-0.9900806112669935,-0.05063636974870737,0.1104491925227141,-0.07055010363513951
-1169.0710151195526,29444.0,-14404.0,-18320.0,6006.0,12395.0,23507.0,-0.3637917604892845,-0.10335676043667265,-0.3463363886099783,-0.858501043095896
-1169.0866622924805,8852.0,-3712.0,-13380.0,6940.0,14636.0,27914.0,0.7470045082189111,-0.02378833204721,-0.3610873953204265,-0.5577044673478461
-1169.1022753715515,-4512.0,-976.0,-13656.0,-981.0,8619.0,9028.0,0.9830139943606063,0.03195204513881492,0.18032470074085263,-0.012064659355945025
-1169.1178603172302,-6404.0,-5404.0,-16036.0,-243.0,1909.0,-6824.0,0.8047772434810019,-0.08025011898161766,0.30923738884323426,-0.5002656735375464
-1169.1334481239319,812.0,-2992.0,-15932.0,386.0,-283.0,-9574.0,0.30455054692741435,-0.24851219408482805,0.15780484611858422,-0.9058632812399713
-1169.1490597724915,6084.0,-4932.0,-15852.0,-38.0,899.0,-5002.0,-0.09513930020003371,-0.22635290250137777,0.06981010568425797,-0.9668709460062405
-1169.16472697258,6408.0,-4212.0,-14608.0,922.0,1626.0,-1149.0,-0.18048167600665974,-0.10224273864485507,-0.043235037243207285,-0.977293977559877
-1169.1803138256073,5332.0,-2188.0,-14284.0,-1670.0,1541.0,-1923.0,-0.34219781617126677,0.06041539695960564,0.055983552804492624,-0.9360109380948578
-1169.1959390640259,4596.0,-3512.0,-15552.0,-2113.0,1262.0,-980.0,-0.40655070120292586,0.2160419418781931,0.19132779666435115,-0.8668541289770001
-1169.2115335464478,3612.0,-3780.0,-15412.0,-1474.0,561.0,-1817.0,-0.5143342725323915,0.2745589889633733,0.31068021679388,-0.7507032839750294
-1169.2271316051483,3828.0,-2660.0,-15364.0,-1835.0,163.0,-2100.0,-0.5948611002672455,0.301923915762989,0.4606421976473629,-0.5854835490650387
-1169.2427263259888,3904.0,-1020.0,-16236.0,-1462.0,862.0,42.0,-0.5823740691141664,0.41905372843691857,0.48443992305110745,-0.5005520724767428
-1169.2583673000336,3508.0,-184.0,-16436.0,-1527.0,1580.0,1707.0,-0.5039799438510364,0.6199323446881725,0.3970940081380587,-0.451668521048548
-1169.2739992141724,3168.0,1272.0,-16032.0,-1106.0,1849.0,1994.0,-0.416025818208474,0.7853363782800868,0.24375853612117948,-0.38826674799929195
-1169.28959608078,2720.0,1272.0,-15552.0,-1449.0,1291.0,-362.0,-0.3510818875914445,0.8614206485620755,0.2669244602945602,-0.25188748863843824
-1169.3051817417145,3220.0,1116.0,-15068.0,-1810.0,1717.0,-77.0,-0.2506088827083559,0.9310568150159318,0.2539889973000937,-0.07627571284853008
-1169.320749282837,2580.0,16.0,-14944.0,-2368.0,2097.0,-1823.0,-0.11105209455030435,0.9112591980646307,0.3544733727360746,0.17782782195063895
-1169.3363544940948,2404.0,-3496.0,-16548.0,-2947.0,1151.0,-5497.0,0.15134899747922198,0.6579831426925103,0.6428572377911104,0.3617820292857372
-1169.3520140647888,3600.0,-5644.0,-16372.0,-1348.0,636.0,-4212.0,0.3036207662292665,0.35768322781022416,0.7925474999170196,0.3895453750628988
-1169.3676087856293,4432.0,-3792.0,-15892.0,-1817.0,1191.0,-1041.0,0.30645609124083156,0.19291808939875,0.777975162030838,0.5134412548551377
-1169.383237361908,3096.0,-3936.0,-15900.0,-2516.0,2227.0,184.0,0.18155220314270415,0.036835118898381945,0.6926490353730063,0.6970791098194067
-1169.3988349437714,1240.0,-4284.0,-17644.0,-1503.0,888.0,-1814.0,0.23734953927628544,-0.1471389431240994,0.6068859933680234,0.7441133775678044
-1169.4144678115845,3112.0,-1408.0,-16676.0,537.0,463.0,-2333.0,0.36301116105614234,-0.2833297989264153,0.6080212062662539,0.6467281768405628
-1169.4300694465637,5544.0,1564.0,-16160.0,-724.0,2268.0,-21.0,0.2210622052867246,-0.4263093142806769,0.6253449741939241,0.615089857827057
-1169.4456794261932,5328.0,668.0,-16824.0,276.0,3504.0,2702.0,-0.09799059564642998,-0.43055290697951937,0.7539485445621708,0.48639863240857056
-1169.4613485336304,4588.0,-184.0,-16552.0,-8.0,4006.0,2408.0,-0.4297137111406389,-0.4093593993937472,0.7499506316209468,0.29213876620036755
-1169.4769518375397,3600.0,-2412.0,-15884.0,-182.0,3487.0,1827.0,-0.6722048567962996,-0.3516876832530732,0.6430304442185417,0.10472942163335713
-1169.4925434589386,4216.0,-3780.0,-15628.0,121.0,3091.0,1730.0,-0.819284680454407,-0.2770541294987692,0.4931058460533836,-0.09412888126593415
-1169.5081508159637,5036.0,-3588.0,-15600.0,333.0,2888.0,2530.0,-0.8668763249403101,-0.15955212272756103,0.3273320804262432,-0.3404735915088548
-1169.523797750473,5364.0,-2772.0,-15672.0,579.0,2744.0,3634.0,-0.7697052509761865,-0.016801155505619,0.14245517787530884,-0.6220756144472115
-1169.53941822052,5252.0,-1628.0,-15776.0,273.0,3369.0,5572.0,-0.4422149286346029,0.18857924055145228,-0.07838419575246298,-0.8733497265024879
-1169.5550510883331,4308.0,-1668.0,-15532.0,609.0,2510.0,3790.0,-0.13571101546599618,0.30705193545349607,-0.26363959018530286,-0.9043206266045112
-1169.5706415176392,6120.0,-808.0,-15384.0,106.0,2370.0,4580.0,0.2530569724430589,0.3534197896001273,-0.3857359076206982,-0.8137963078000482
-1169.5862193107605,6456.0,-384.0,-15820.0,179.0,3525.0,7023.0,0.7132703431178105,0.30623787896129145,-0.4431893614678789,-0.44838261451530875
-1169.60182595253,4372.0,-960.0,-15944.0,-47.0,3552.0,5813.0,0.9276884473498339,0.18701316213635427,-0.32309013555732574,0.005743356768044685
-1169.6174156665802,3080.0,-1532.0,-15960.0,943.0,2627.0,4849.0,0.8841001649407851,0.11270131811812831,-0.1701825250636291,0.42036082049720114
-1169.6330170631409,2784.0,-292.0,-15204.0,204.0,2010.0,494.0,0.87944214295838,0.04676676392594602,-0.01256383045812492,0.4735362046822677
-1169.6486542224884,3836.0,-2700.0,-15420.0,-71.0,492.0,-2858.0,0.9678492967267898,0.023437775527608635,0.0325733170142978,0.24830905847846518
-1169.6642413139343,5948.0,-3232.0,-15420.0,23.0,458.0,-1366.0,0.9883410598911894,0.01142914034878458,0.07364694222159757,0.13276841486384147
-1169.679851770401,6304.0,-2728.0,-15656.0,416.0,1827.0,3406.0,0.8871228363609829,0.04538798166607461,0.2200481496892935,0.40315234855503845
-1169.695457458496,3392.0,-1272.0,-15552.0,694.0,2179.0,2241.0,0.7353905116250729,0.06319758775206091,0.38961813038803156,0.5508217250500103
-1169.711077451706,1544.0,-2504.0,-15796.0,203.0,176.0,-4331.0,0.8756865860406524,-0.07432201869780106,0.40666414288287006,0.24954661980978898
-1169.7266829013824,5168.0,-2652.0,-15816.0,1712.0,-567.0,-3937.0,0.92845715958275,-0.0663909928554102,0.35108105452013555,-0.10149695583727784
-1169.7422609329224,7456.0,-184.0,-15208.0,744.0,2276.0,1389.0,0.8507480973804783,0.054919158525824345,0.5221336331846802,-0.024249328396419596
-1169.757877588272,5180.0,-2160.0,-15704.0,593.0,3140.0,3012.0,0.663896401855239,0.2267459732634647,0.6908032148751125,0.17498214060491987
-1169.7735056877136,2556.0,-2492.0,-15288.0,1425.0,1471.0,-1534.0,0.556477719151492,0.18973866418917268,0.8084046531818226,0.02852549935827268
-1169.7890903949738,3868.0,-952.0,-14932.0,898.0,376.0,-4988.0,0.4819482637676984,-0.10920035428933157,0.8333642999874278,-0.24759866150859977
-1169.8047015666962,5784.0,-2208.0,-15448.0,722.0,88.0,-4882.0,0.3459287467001795,-0.39681591442718817,0.7118318780318963,-0.46493635013982404
-1169.8202774524689,6808.0,-2076.0,-15180.0,1191.0,648.0,-2334.0,0.24526467379780528,-0.4669345937018532,0.5863032763686198,-0.6148705498808372
-1169.8358912467957,5960.0,-1160.0,-15380.0,840.0,1515.0,-844.0,0.1543672708427257,-0.4053530041487297,0.5319262324479156,-0.7272648561245996
-1169.851500749588,3908.0,-1840.0,-15160.0,1140.0,1119.0,-2430.0,-0.011189665575750966,-0.41869489335315774,0.37692746441081654,-0.8261325948279267
-1169.8671050071716,3368.0,-3212.0,-15404.0,881.0,-273.0,-6262.0,-0.3689093002342237,-0.5649536993238511,0.07447694732907496,-0.7342931500004158
-1169.8827221393585,6476.0,-4284.0,-14732.0,1170.0,-582.0,-4979.0,-0.5713596348422362,-0.613467734647736,-0.20714904637084294,-0.5042764904363202
-1169.8983285427094,8132.0,-2500.0,-15060.0,386.0,1246.0,-673.0,-0.5530679988558179,-0.5613834527009388,-0.3196395452499268,-0.5261130760469784
-1169.9140219688416,5924.0,-4224.0,-15368.0,455.0,1342.0,500.0,-0.46619109764744954,-0.5313652485830653,-0.37759577024541113,-0.5981122531475994
-1169.929684638977,4616.0,-2228.0,-14456.0,1344.0,24.0,-1747.0,-0.48517985532847646,-0.5179582185032657,-0.5202565913948216,-0.4750293369662591
-1169.945365190506,6212.0,-776.0,-14956.0,-565.0,567.0,-1607.0,-0.5447441337446562,-0.3929898868358361,-0.5864315940518762,-0.45267070050238134
-1169.9610166549683,6484.0,-2952.0,-15588.0,577.0,1258.0,1096.0,-0.4121853120565267,-0.42199802446170626,-0.6241913837799822,-0.5122558465162811
-1169.9766509532928,5320.0,-1716.0,-14808.0,473.0,897.0,210.0,-0.3349362547987824,-0.4088478895168831,-0.6672666694736517,-0.5248012007117516
-1169.9922394752502,5084.0,-2324.0,-15452.0,-84.0,433.0,-1181.0,-0.36441919776031145,-0.31603525180434183,-0.7140456214112821,-0.5074043934221236
-1170.0078616142273,5200.0,-1808.0,-15176.0,651.0,25.0,-1411.0,-0.4034928617815118,-0.24558416246043313,-0.7756311961851727,-0.4186623665250214
-1170.0234563350677,5320.0,-1712.0,-15060.0,-32.0,285.0,-2408.0,-0.46241580092416434,-0.06959476813719195,-0.8181518804690301,-0.3345978119901326
-1170.0390899181366,5748.0,-2908.0,-15260.0,145.0,-59.0,-2645.0,-0.5288245668994545,0.10880062462871586,-0.814741383066816,-0.21143197544926232
-1170.0546967983246,6472.0,-3000.0,-15072.0,-100.0,53.0,-1806.0,-0.5503938961516256,0.23988057537750057,-0.7885772670237873,-0.13292765915672813
-1170.070297241211,6344.0,-2848.0,-15040.0,-134.0,758.0,232.0,-0.4912863955240753,0.23863259416685365,-0.8263944815532343,-0.13698293117217558
-1170.0859456062317,5044.0,-2432.0,-15136.0,-305.0,573.0,-518.0,-0.44837375821149134,0.29520896451303746,-0.8344686458229373,-0.12439742504118174
-1170.10156083107,4356.0,-2272.0,-15616.0,-274.0,-437.0,-3137.0,-0.4884904743938277,0.5104366367263075,-0.706991100829956,-0.03154488328200949
-1170.1172182559967,6312.0,-2628.0,-14948.0,-333.0,-893.0,-3288.0,-0.5150602563112667,0.6948274473321839,-0.4997756792969234,0.046389882363634796
-1170.1329078674316,8012.0,-1696.0,-15252.0,-768.0,932.0,1333.0,-0.4277396887668893,0.6595087616527149,-0.6180591974738938,0.009475250647526726
-1170.1485505104065,6064.0,-2208.0,-15384.0,-374.0,1618.0,2349.0,-0.31095747027635046,0.5291229497368091,-0.7894994801774684,-0.004992648661555329
-1170.1641771793365,3900.0,-2292.0,-15156.0,221.0,263.0,-129.0,-0.30265592676894787,0.5319343606037363,-0.7904240824437355,0.02598068308767641
-1170.1798675060272,4664.0,-2020.0,-15120.0,103.0,-366.0,-2086.0,-0.3221940836112248,0.6627692468433211,-0.672320018903232,0.07009771826969542
-1170.1954674720764,6228.0,-2224.0,-15248.0,60.0,85.0,-1269.0,-0.31071281011655044,0.7306176388201876,-0.59728325253503,0.11361395915760478
-1170.2110991477966,6288.0,-1980.0,-15080.0,505.0,174.0,-489.0,-0.32804578180623867,0.7393199599942494,-0.5646966918925755,0.16404148243300162
-1170.2266957759857,6436.0,-1936.0,-15356.0,-45.0,613.0,786.0,-0.30473069328848473,0.690601459509698,-0.6312214984690084,0.1782364961547823
-1170.2422959804535,5520.0,-2012.0,-15116.0,124.0,677.0,1063.0,-0.2893775590241011,0.6145892412377212,-0.7070804653587227,0.1964125973459624
-1170.2580008506775,4896.0,-2028.0,-15076.0,70.0,589.0,206.0,-0.25962031242651484,0.5892343052559538,-0.7307415578205158,0.22675317541136672
-1170.2735924720764,5012.0,-2548.0,-15580.0,49.0,-96.0,-1631.0,-0.23331764946941835,0.6871754648659448,-0.6373072961239227,0.2592145158735382
-1170.2891800403595,6192.0,-2728.0,-15132.0,511.0,-91.0,-482.0,-0.25732502534609086,0.7044119276391598,-0.5938697877756262,0.29138692952438583
-1170.3047759532928,6580.0,-2016.0,-14944.0,105.0,940.0,1364.0,-0.24687822308424662,0.601319749528467,-0.688983829645834,0.3205729001028425
-1170.3203511238098,5288.0,-1840.0,-15612.0,250.0,854.0,1011.0,-0.23504474219328167,0.5078893208829971,-0.7483471015643851,0.3560604197049793
-1170.3359999656677,4716.0,-2404.0,-14876.0,411.0,-2.0,-1576.0,-0.20213505066978796,0.5965648924208534,-0.6591299039521047,0.4108521876997946
-1170.3516249656677,6168.0,-2436.0,-14960.0,343.0,-271.0,-1458.0,-0.18147323684170047,0.6782720039136542,-0.5612684595483837,0.4381692245392599
-1170.3672986030579,6808.0,-1596.0,-15136.0,192.0,1111.0,1463.0,-0.1916725762243018,0.5541121437436043,-0.6497766635659279,0.4837474993884075
-1170.382900238037,5092.0,-2484.0,-14868.0,381.0,610.0,249.0,-0.18543031069185753,0.5069088652941497,-0.6545888177546172,0.5293132171347426
-1170.398508310318,4616.0,-2668.0,-15400.0,437.0,-323.0,-2182.0,-0.11998520219299631,0.6275679288207993,-0.5227974513285085,0.5643091979178562
-1170.4141449928284,6440.0,-2424.0,-15188.0,330.0,-37.0,-1219.0,-0.079117664970833,0.6776052752357637,-0.4368334430428748,0.5863173450457824
-1170.4297835826874,6880.0,-2368.0,-15184.0,-82.0,537.0,581.0,-0.08324028918612346,0.6272238783293027,-0.47800922761301573,0.6092359469257922
-1170.4453938007355,5788.0,-3176.0,-14996.0,157.0,230.0,-385.0,-0.061652700391765736,0.6295456591180706,-0.449972442408493,0.6303935347804043
-1170.4610385894775,5952.0,-2324.0,-15064.0,77.0,-115.0,-271.0,-0.055409787404901115,0.6460470032031089,-0.4301679008780673,0.6280991977117811
-1170.4767038822174,6296.0,-2116.0,-14992.0,-283.0,437.0,536.0,-0.05225710323396018,0.6022517255922307,-0.4770770582357736,0.6379338011799311
-1170.4922995567322,5708.0,-2400.0,-15292.0,4.0,464.0,1084.0,-0.09294662400679701,0.5286710657621695,-0.533228027353402,0.6538621415531186
-1170.507884502411,5076.0,-2148.0,-14904.0,253.0,-342.0,-912.0,-0.06815438773713291,0.5864822762293607,-0.4722462987952032,0.6545051202055153
-1170.5234653949738,5892.0,-2012.0,-15164.0,-209.0,-426.0,-1113.0,-0.011316458855788414,0.6544538562640774,-0.42243350989631334,0.6269864571876533
-1170.5390830039978,6412.0,-2360.0,-15108.0,101.0,-730.0,-740.0,-0.003459628766653462,0.7187535663742128,-0.37246472632078725,0.5870701571702723
-1170.5547051429749,5540.0,-1064.0,-14652.0,-411.0,-1369.0,-1793.0,0.0683507613325327,0.830948935027962,-0.27524913335399576,0.47863342485563354
-1170.5702900886536,4528.0,-1088.0,-15320.0,-851.0,-1358.0,-3545.0,0.2324134875510224,0.9164759048728176,-0.05861544412955344,0.32034374709273816
-1170.5858914852142,4548.0,-2412.0,-15452.0,261.0,-1848.0,-4668.0,0.3043188106758804,0.9133929455309537,0.2605023089142403,0.0724012125137102
-1170.6015326976776,6064.0,-1828.0,-15184.0,-609.0,-1982.0,-5765.0,0.38280759026625594,0.686808060885817,0.585196225274568,-0.1982382764785936
-1170.6171536445618,7764.0,-3564.0,-15564.0,-18.0,-717.0,-925.0,0.40218604596550017,0.6234120876564075,0.6138970167902617,-0.2696927996267854
-1170.6327714920044,6028.0,-1436.0,-15224.0,381.0,421.0,654.0,0.37300243074776557,0.6798913646439427,0.5825571227899934,-0.24340114548929345
-1170.6483726501465,3124.0,-1284.0,-15224.0,-43.0,-845.0,-4349.0,0.3039613056732817,0.40996641380084836,0.7593383771798892,-0.4036586344307247
-1170.6640536785126,4912.0,-2060.0,-15516.0,879.0,-2165.0,-5990.0,0.17856355033429586,-0.034804787505236516,0.772169289481255,-0.6088171101740988
-1170.6796493530273,7788.0,-1076.0,-15020.0,-305.0,-981.0,-3939.0,0.03230248394893899,-0.33660168367027,0.7173430689923387,-0.6091590740108208
-1170.695304632187,7496.0,-4724.0,-16492.0,-292.0,218.0,-192.0,-0.0002241966387036719,-0.3377723809042997,0.7275006999668556,-0.5972039015125765
-1170.7108945846558,5204.0,-3836.0,-16332.0,1776.0,605.0,1676.0,0.09865531568809162,-0.19536075594658175,0.6686067711862793,-0.7106801595980582
-1170.7264819145203,2820.0,-1408.0,-14932.0,705.0,-906.0,-4380.0,-0.1005985736251663,-0.46606783589572853,0.5046581925680343,-0.7197088355731219
-1170.7420783042908,5692.0,-3700.0,-15224.0,-236.0,-2914.0,-6760.0,-0.34185509439066164,-0.7948034949997645,0.22738185193121746,-0.4469004275984091
-1170.757696390152,10420.0,-2400.0,-14848.0,243.0,-590.0,1202.0,-0.26431621922394577,-0.7957205708532666,0.31676077790888024,-0.4434279185557351
-1170.77335190773,9612.0,-2132.0,-14684.0,-547.0,2470.0,8856.0,-0.021590617954629382,-0.3452094424258249,0.6983699792239133,-0.6266128455395559
-1170.7889471054077,4152.0,-2592.0,-15304.0,-261.0,1491.0,6359.0,0.19749044467334595,0.10789182628513809,0.7831365253054139,-0.5797016998561799
-1170.8045542240143,2624.0,-1848.0,-14488.0,83.0,-1762.0,-162.0,0.3051775249858755,0.008989823953316324,0.741509228061368,-0.5974528650936555
-1170.8201460838318,6444.0,-152.0,-14732.0,-792.0,-2014.0,-391.0,0.40812289698263304,-0.13994283495850546,0.7165955619225471,-0.5480351307491051
-1170.835780620575,8272.0,-1108.0,-14868.0,-985.0,-149.0,4184.0,0.5667285179009934,0.07431857629457476,0.7580496047333727,-0.3140960569298316
-1170.8513796329498,5424.0,-1448.0,-15088.0,-1012.0,100.0,5093.0,0.6430941308936619,0.3314735657129973,0.6903117316282457,0.004992716700375237
-1170.8670189380646,3644.0,-1924.0,-14904.0,-1225.0,-1133.0,338.0,0.7383287687492994,0.28059408301671335,0.609922469999717,0.0642819601645576
-1170.882660627365,4080.0,-2628.0,-16208.0,-910.0,-1883.0,-993.0,0.8490991955513058,0.17620220677830364,0.4979727292906432,0.0025493770629603863
-1170.8982799053192,5144.0,-2340.0,-16216.0,-324.0,-1668.0,83.0,0.9163941622643506,0.15455738970794689,0.3692230465765419,-0.0028450889654895134
-1170.91388463974,6164.0,-1828.0,-15544.0,-259.0,-1178.0,1562.0,0.9442498998910348,0.18133690461393778,0.25052529726279116,0.1128987555830292
-1170.929543018341,5744.0,-912.0,-14924.0,-604.0,-581.0,1955.0,0.9312581264028778,0.17726342875030351,0.16306095549365376,0.27339916537872644
-1170.9451773166656,5252.0,-1324.0,-15700.0,-283.0,-659.0,2855.0,0.8492277032701437,0.2042850953444986,0.056727310979437645,0.48359272121036734
-1170.9608476161957,4320.0,-1428.0,-15824.0,221.0,-1118.0,1401.0,0.7819478886282563,0.27171878603597577,-0.04137721956838887,0.5594768328409471
-1170.9764428138733,4604.0,-1228.0,-15636.0,347.0,-1513.0,481.0,0.7372764668178887,0.3641390983846911,-0.1378573227071643,0.5521064092003711
-1170.9920954704285,5724.0,-624.0,-16116.0,321.0,-763.0,2461.0,0.5843856713237933,0.38248375563220044,-0.24366372204951736,0.6729246275667893
-1171.0077402591705,5400.0,-1520.0,-15868.0,482.0,-89.0,3732.0,0.32981586030557997,0.31651518459680533,-0.3274296355863898,0.8269398224479847
-1171.0233550071716,4352.0,-1768.0,-15568.0,731.0,240.0,2451.0,0.13619164776024745,0.24434725795862286,-0.32754860144949793,0.9024733604361564
-1171.0389504432678,4464.0,-3280.0,-15640.0,182.0,-725.0,1906.0,-0.03791910956007996,0.2454256804435975,-0.35703990102897065,0.9004725901337534
-1171.0545406341553,5268.0,-3220.0,-15680.0,1013.0,-293.0,3559.0,-0.3314182599226286,0.14690754829308397,-0.33573632975307566,0.8694027985509974
-1171.0701625347137,5096.0,-1460.0,-15368.0,951.0,13.0,3430.0,-0.5762425624956504,0.01733306557432817,-0.29428834646475266,0.7622587770182014
-1171.0857977867126,4536.0,-2348.0,-15264.0,309.0,-94.0,2540.0,-0.7300154990142657,-0.055632438169420734,-0.2665404980039141,0.6268481203179154
-1171.1013917922974,4776.0,-3076.0,-15732.0,1184.0,100.0,4270.0,-0.8911594991225005,-0.21985453242723488,-0.1750532286111211,0.3561672343826119
-1171.1169793605804,4948.0,-2796.0,-15100.0,950.0,144.0,4288.0,-0.937373741653542,-0.3397855456217515,-0.06962637214834003,0.03206898418141476
-1171.132562637329,4716.0,-2236.0,-15016.0,1112.0,-146.0,3564.0,-0.8700284505357165,-0.4299816144417298,0.04868299127557467,-0.2362123469697685
-1171.1481702327728,4428.0,-2640.0,-14696.0,691.0,-980.0,1994.0,-0.7826804263788758,-0.4845184829974505,0.1801387373147088,-0.3467033676154488
-1171.1637918949127,4920.0,-4016.0,-14232.0,312.0,-1537.0,373.0,-0.7266838397971553,-0.5413088278668967,0.2887996675733866,-0.3090470868015584
-1171.1794338226318,6352.0,-4308.0,-14680.0,-90.0,-1849.0,1868.0,-0.6176614333983192,-0.52486405089661,0.48431096051223416,-0.32932502986631856
-1171.195060491562,6400.0,-3432.0,-14344.0,-1023.0,-516.0,4904.0,-0.45915118425521545,-0.2539555859844843,0.7015402155069033,-0.4822116510110867
-1171.210667848587,4376.0,-4056.0,-15540.0,-1232.0,-1262.0,4716.0,-0.1927864566007275,0.028329611451725273,0.8318603522189596,-0.5196529319386919
-1171.226265668869,3476.0,-4260.0,-15436.0,-706.0,-2373.0,2665.0,0.09731562366733237,0.12011856558426916,0.8553080042228838,-0.49451938031232234
-1171.2418630123138,4256.0,-3724.0,-13472.0,-1128.0,-3695.0,400.0,0.3807567486953707,-0.018102711557070807,0.822629628528442,-0.42187330375880544
-1171.2574565410614,6128.0,-4164.0,-13504.0,-3411.0,-4759.0,-526.0,0.620529039828219,-0.30654241687821354,0.7023759278313915,-0.1662633855884228
-1171.2730646133423,7828.0,-3900.0,-15648.0,-3556.0,-3235.0,5822.0,0.6746857304175187,-0.15810140766115924,0.6134917279955725,0.37872286668162203
-1171.2887313365936,5332.0,-2440.0,-16208.0,-3382.0,-1515.0,8395.0,0.33680082672937006,0.11103991084556983,0.4125666384831552,0.8390614459767116
-1171.3042924404144,1392.0,-2404.0,-16160.0,-2056.0,-2747.0,6127.0,0.005891220703119165,0.4028518466971238,0.10416785406203762,0.9092990384419496
-1171.3198819160461,1048.0,-1500.0,-15308.0,-1823.0,-5304.0,101.0,0.09892936950302361,0.7400071044134443,-0.041968356116359275,0.6639586751841219
-1171.335479259491,4016.0,-2040.0,-14928.0,-3280.0,-6203.0,-2217.0,0.35033512121168425,0.9081797450657442,-0.11984400008545425,0.19522363878750001
-1171.3510763645172,6144.0,-2020.0,-15800.0,-3324.0,-5935.0,1227.0,0.45426657252128727,0.7663331520704887,-0.3898318922142996,-0.23325196020631866
-1171.3667228221893,5372.0,-2192.0,-14720.0,-3918.0,-5398.0,2299.0,0.4933043061608273,0.3602354170027184,-0.5773483640261304,-0.5418027061730251
-1171.38232755661,2984.0,-4868.0,-14744.0,-4562.0,-7335.0,-735.0,0.1852438515496522,-0.11637038292816235,-0.5219961212483692,-0.8244165808872727
-1171.39799118042,2940.0,-3768.0,-14704.0,-3903.0,-7772.0,646.0,-0.12887078523331505,-0.6112950501751457,-0.28686092821223436,-0.7262379019370513
-1171.413586139679,2480.0,-3028.0,-14760.0,-6111.0,-8073.0,2006.0,-0.3935768398112506,-0.8207323658027288,0.22154680657340456,-0.34987521687763373
-1171.4291803836823,2344.0,-3900.0,-14876.0,-6933.0,-8859.0,-247.0,-0.5181060442331197,-0.6121921519896291,0.5136589281733782,0.3048629224408761
-1171.4447894096375,2748.0,-2960.0,-15128.0,-7536.0,-11736.0,108.0,-0.25222721097314327,0.02890127414227495,0.5394388630218483,0.802839874109002
-1171.4603791236877,4576.0,-3248.0,-16720.0,-11073.0,-12978.0,3461.0,0.07926731252697436,0.7395203094829826,0.02244268003498469,0.6680738964663953
-1171.4759981632233,4816.0,-1068.0,-20768.0,-13321.0,-9307.0,16374.0,0.0011186424799844565,0.5437389529025733,-0.834206032313867,0.09190753715866004
-1171.491577386856,16.0,-5028.0,-22144.0,-12194.0,-8400.0,27326.0,-0.0869226032842679,-0.4771813429832806,-0.7712298994040176,-0.4122461269826891
-1171.5071494579315,-6600.0,-3528.0,-17896.0,-10823.0,-12149.0,17381.0,-0.3166097113537001,-0.8682577992268491,0.1882439801481341,-0.3323415241829772
-1171.52272939682,-2488.0,-3532.0,-18292.0,-16134.0,-15005.0,960.0,-0.5830236902625038,-0.3882058600426717,0.5272399251551422,0.4810380942748936
-1171.5383129119873,5760.0,-11080.0,-23652.0,-11100.0,-10928.0,-7628.0,-0.07490473589805474,0.15674664762821752,0.1979196673914606,0.9647007692839329
-1171.5539276599884,12920.0,-20024.0,-26104.0,1266.0,-5093.0,-24721.0,0.8576982405459587,0.062171717775207594,0.2791037432667437,0.4273049334699266
-1171.5695645809174,20592.0,-9664.0,-20676.0,15460.0,-4696.0,-30164.0,0.6391755102550729,0.20952716203518457,0.21198011581902282,-0.7089551931941835
-1171.5851941108704,27680.0,1200.0,-15684.0,6405.0,8339.0,-14632.0,-0.28852255603508603,0.4357178204871049,0.29422542295717763,-0.8002100449598328
-1171.6007952690125,24912.0,-14052.0,-19316.0,8265.0,23061.0,7434.0,-0.2761407426277386,0.8289355693339158,-0.4682376706817444,-0.13177858668460563
-1171.6163876056671,13476.0,-10152.0,-19268.0,18858.0,27129.0,12025.0,-0.12188443044908828,0.06043942345795103,-0.6843707439796389,0.7163294957566159
-1171.6320066452026,7448.0,-1752.0,-18304.0,20041.0,25831.0,10290.0,0.2130855684783694,-0.7552965220343892,0.07584731923428685,0.6151169713753455
-1171.6475908756256,6788.0,-6188.0,-17544.0,14573.0,29135.0,19504.0,-0.019123441394127538,-0.5545196702466185,0.7758685609366012,-0.3002835417551129
-1171.6632380485535,-2424.0,-11728.0,-20432.0,27460.0,23516.0,11882.0,0.008399183045791507,0.2365660024738349,0.17071852944501892,-0.9564628397914072
-1171.6788396835327,-2892.0,1696.0,-17096.0,23375.0,17223.0,-551.0,-0.2850878936201026,0.6178615557055013,-0.64460809185243,-0.34850021350179955
-1171.6944465637207,-1384.0,-4916.0,-15880.0,21991.0,17746.0,-1107.0,-0.1900565978344573,0.2526632230110415,-0.6365906427212192,0.7034146280516556
-1171.7100365161896,-4844.0,-5520.0,-12144.0,26819.0,13886.0,-16253.0,0.31301490946669824,-0.04488238718508236,0.3604906516129321,0.8775270525014068
-1171.7256388664246,-2124.0,220.0,-9228.0,20723.0,8503.0,-32768.0,0.7311104708165813,-0.3219862361000504,0.5690337368564236,-0.19494345216932454
-1171.7412304878235,7052.0,-2556.0,-8456.0,13300.0,9619.0,-32645.0,0.021401889369186352,-0.2785919229608509,0.011725816018343015,-0.9600994765289211
-1171.756872177124,13036.0,-5096.0,-10740.0,11614.0,14529.0,-12699.0,-0.3515025382828366,0.4295183725751264,-0.5636531575179037,-0.6117638851887509
-1171.7725265026093,10308.0,-5708.0,-11208.0,11734.0,19960.0,3873.0,0.1743155414210174,0.4143763015001276,-0.8542682930620153,0.2610211796829593
-1171.7881181240082,3236.0,-4212.0,-12408.0,10273.0,17201.0,2128.0,0.5124366068734464,0.009998251365693394,-0.21543544507182144,0.8312017371928211
-1171.8037259578705,652.0,-4276.0,-13492.0,7669.0,12997.0,-5403.0,0.6642133426481932,-0.28399649507309727,0.5388449867115831,0.4333736338658638
-1171.8193123340607,3352.0,-4928.0,-14844.0,7493.0,11516.0,-2689.0,0.2596109090581394,-0.26080741209433567,0.9013718160648468,-0.22827728511313122
-1171.8348851203918,4692.0,-3832.0,-13420.0,7009.0,11782.0,6525.0,-0.2276911584287585,0.38907963679400615,0.7091528171812639,-0.54210336144456
-1171.8504664897919,1092.0,-2756.0,-11492.0,6314.0,10729.0,11553.0,-0.3129125888327731,0.8312925007715667,-0.10894161124435278,-0.4462849036774726
-1171.8660526275635,-3188.0,-748.0,-10008.0,2941.0,6429.0,8625.0,-0.09250029564068148,0.6589523069359455,-0.7343114327647792,-0.13420980665033053
-1171.8816425800323,-4768.0,680.0,-9216.0,-3400.0,1104.0,-844.0,0.15587290933929907,0.7174588146839086,-0.6235723655613085,-0.2685404816312381
-1171.8972458839417,-1768.0,-2392.0,-13628.0,-7944.0,-4770.0,-4120.0,0.22237628804503345,0.5406711444454827,-0.18301563090407155,-0.7903978611586123
-1171.9128756523132,1140.0,8876.0,-25508.0,-13219.0,-1771.0,16565.0,0.9299300426512583,-0.048544724409462996,-0.04143208593795181,-0.36215591636954975
-1171.9285974502563,-8320.0,2612.0,-28392.0,-10760.0,-1609.0,32767.0,0.6029408153816949,-0.343638511405358,0.09675283831094962,0.7134520550848121
-1171.9442479610443,-14156.0,14728.0,-27852.0,-11613.0,-9295.0,23421.0,-0.42949969364826956,-0.0681013092440913,-0.15755756068859456,0.8866046694582334
-1171.9599332809448,-9020.0,-2688.0,-27544.0,-29605.0,-23800.0,-32768.0,0.3568840885170986,0.7422946734204626,-0.38994987329446007,0.411790555370765
-1171.975554227829,22892.0,-23040.0,-32768.0,-9068.0,-29724.0,-32768.0,0.2730174153043008,0.6500834387064103,0.11828496684183318,-0.6991864417159664
-1171.9911839962006,32767.0,7988.0,-22044.0,504.0,15062.0,32767.0,0.6323120721312795,0.5811532879540975,-0.42773540085241085,0.28193035699409336
-1172.0068092346191,4560.0,-1392.0,-15336.0,-5182.0,29301.0,32767.0,0.29637590446607703,-0.4132066662227681,-0.15048211689264188,0.8478069985182299
-1172.0224425792694,-32768.0,-8304.0,-12892.0,-5162.0,-2534.0,4431.0,-0.21193681226569194,-0.35285029559103936,-0.3700780204683706,0.8328395495377158
-1172.0380408763885,-18200.0,1748.0,-15244.0,-6688.0,-22418.0,-32768.0,0.3393524925910769,0.6729300632571961,-0.3971261741620303,0.523732582080128
-1172.0536031723022,14272.0,764.0,-15748.0,-8511.0,-17912.0,-32768.0,0.4918228801178395,0.680825043228167,0.17413455566447048,-0.5140667968557153
-1172.069215297699,28816.0,-5296.0,-16668.0,-2962.0,117.0,8523.0,0.8236549546627282,0.5408843653193824,-0.15277297170463253,-0.07547872633479981
-1172.0848083496094,17280.0,-3532.0,-13800.0,671.0,10317.0,30317.0,0.3802944284708042,0.08519285070109461,-0.28524385032494903,0.8756450603499591
-1172.100401878357,-1256.0,-2460.0,-12472.0,-3876.0,5113.0,12648.0,-0.27033367880956277,-0.47069876149682804,-0.31805253102912256,0.7773062237835289
-1172.116073846817,-5864.0,-6980.0,-15756.0,-5519.0,-5485.0,-13297.0,0.15085620664140875,0.23896310347317173,-0.6621021224952062,0.6940892013881053
-1172.1317160129547,4304.0,-4836.0,-15420.0,-3606.0,-8696.0,-16556.0,0.3744616832621603,0.8634317087053933,-0.3350898797968462,0.04448488089553171
-1172.1473009586334,12496.0,-3296.0,-14932.0,-4938.0,-3619.0,-5000.0,0.5433124852193684,0.7099216437353707,-0.07891582580676836,-0.4411293411212394
-1172.1628954410553,10700.0,-4600.0,-14800.0,-3936.0,1062.0,6621.0,0.868287195430753,0.4291910963997779,-0.2377729422079333,-0.07305050975822625
-1172.178490638733,4044.0,-4164.0,-14956.0,-2942.0,346.0,3492.0,0.9358500403170458,0.12644689906112766,-0.3007086192625493,0.13330495136198026
-1172.1940915584564,1876.0,-3156.0,-14788.0,-4400.0,-3322.0,-6553.0,0.779657615797392,-0.01783542320701594,-0.4415073779286024,-0.44371965816578707
-1172.2096881866455,5496.0,-3704.0,-15812.0,-4314.0,-3687.0,-5697.0,0.33578843046195617,-0.19214347235493964,-0.4374819577764876,-0.8117490699836584
-1172.225299358368,7564.0,-2600.0,-15908.0,-2996.0,-1335.0,-572.0,0.18637417981086973,-0.33886795287739013,-0.26327454392646615,-0.8838097590165112
-1172.240885734558,6520.0,-2000.0,-16100.0,-2356.0,158.0,1690.0,0.24300751780195226,-0.391720700266438,-0.028246507964632257,-0.8869635697492368
-1172.2564985752106,4360.0,-1312.0,-16488.0,-3148.0,-500.0,-772.0,0.07151706560898773,-0.4764261919706875,0.17150555050824937,-0.8593539661139941
-1172.2721049785614,4028.0,-2164.0,-13848.0,-2031.0,-2006.0,-4451.0,-0.2875228379259642,-0.6413699611124178,0.11471398896118097,-0.7020084696000963
-1172.2877106666565,6108.0,-4868.0,-15808.0,-4791.0,-1400.0,-2935.0,-0.6437882133308145,-0.5681221686888115,0.24918879680903702,-0.4479719649325209
-1172.3033063411713,7800.0,-6736.0,-15196.0,829.0,114.0,3764.0,-0.4338888084965632,-0.5009071111992828,0.3764390180964686,-0.6473995933470985
-1172.3189022541046,5112.0,-252.0,-13680.0,-2827.0,141.0,1239.0,-0.4750192442367385,-0.33350130585096877,0.5649306231432751,-0.5865040388909588
-1172.3345031738281,3888.0,-5856.0,-15412.0,-3276.0,-858.0,-1489.0,-0.5748606779142882,-0.2998420894371445,0.68996597505492,-0.3218336148639638
-1172.3501019477844,4968.0,-4520.0,-15528.0,457.0,-1400.0,-411.0,-0.48560427101176595,-0.3834468219553869,0.7303184385922847,-0.2894684869887784
-1172.3657207489014,6384.0,-100.0,-14268.0,-2192.0,-747.0,-1099.0,-0.5258783671093067,-0.370392759157264,0.7618754803236328,-0.07620301471695301
-1172.381371498108,5808.0,-3260.0,-15584.0,-2502.0,221.0,365.0,-0.6041228761641801,-0.22442302823754162,0.7619020937742342,0.06461466083056158
-1172.39697599411,4852.0,-3012.0,-15344.0,-596.0,-177.0,-54.0,-0.6025952021712734,-0.19530004732108955,0.7658816648594224,0.11028231621026807
-1172.412573814392,4976.0,-3208.0,-15300.0,-2005.0,-599.0,-2464.0,-0.5512989040699189,-0.23942672680701058,0.7086594505380385,0.36952150685029506
-1172.4281775951385,5604.0,-3928.0,-15580.0,-901.0,-525.0,-1083.0,-0.49834216152164024,-0.24402001403607973,0.6766683309262472,0.4839724090495835
-1172.443794965744,5296.0,-3208.0,-15504.0,-1162.0,143.0,-394.0,-0.5118460022783442,-0.22150766343334946,0.6096962462854433,0.5632215481117666
-1172.4594204425812,4428.0,-3248.0,-15564.0,-12.0,311.0,251.0,-0.5405522853797121,-0.22277011017208756,0.5999512772276401,0.5461091188925612
-1172.4750378131866,3956.0,-2416.0,-15100.0,-373.0,-468.0,-2843.0,-0.37582980724960047,-0.3215681775065804,0.5324022265918308,0.6869452178433777
-1172.490662097931,5588.0,-2996.0,-15520.0,-189.0,-588.0,-3021.0,-0.16674241138933876,-0.40609750197327044,0.44017456901935953,0.7832803686572
-1172.506254196167,6528.0,-3232.0,-15152.0,-366.0,196.0,-1158.0,-0.10747835328486295,-0.456144383019923,0.3693499122555536,0.8024720230209665
-1172.5218489170074,5804.0,-4188.0,-14952.0,-265.0,35.0,-1007.0,-0.048422418807149994,-0.48672588585188287,0.30925454033789207,0.8155457134207524
-1172.5374312400818,5256.0,-3260.0,-14936.0,-366.0,-176.0,-1537.0,0.049713387321518,-0.5094566100523442,0.21671156623297524,0.831275308580644
-1172.5530178546906,4940.0,-3280.0,-14940.0,-553.0,-295.0,-2601.0,0.2136780531457492,-0.5257425560253662,0.05815841659703357,0.8213123966960946
-1172.568719625473,5520.0,-3280.0,-14864.0,-334.0,-468.0,-2316.0,0.35905126463713516,-0.4997013895151823,-0.079144226174998,0.7842938876098875
-1172.584311723709,5720.0,-2632.0,-15420.0,-384.0,197.0,-1332.0,0.43161705401468686,-0.512423848797753,-0.15632944215731917,0.7257338516162534
-1172.5999343395233,5272.0,-3512.0,-15152.0,-165.0,-159.0,-1819.0,0.5304990031141114,-0.47786962913309483,-0.2510994989823895,0.6535751424724824
-1172.615538597107,5744.0,-2716.0,-15068.0,-161.0,-298.0,-1880.0,0.6159244258199263,-0.42147368925723594,-0.34789021627874056,0.5674235000066709
-1172.6311304569244,5924.0,-3004.0,-15292.0,-495.0,319.0,-845.0,0.6465470390956667,-0.4365840350672044,-0.38501508927849554,0.49308689659018196
-1172.6467328071594,5080.0,-3036.0,-15496.0,298.0,212.0,-1166.0,0.7110511657929878,-0.3876592911293856,-0.4025970452188887,0.42666395770736887
-1172.6623139381409,4908.0,-2760.0,-15088.0,-50.0,-478.0,-2927.0,0.7758298392965113,-0.26163972603565044,-0.5163366086397935,0.2510562104300469
-1172.6779873371124,6044.0,-3132.0,-15328.0,214.0,-512.0,-1630.0,0.7843770388864224,-0.16077848426032518,-0.5772785219714586,0.16016381594220455
-1172.6935894489288,6636.0,-2564.0,-14720.0,131.0,37.0,-38.0,0.7883705474243414,-0.15046024456848392,-0.5736493659101439,0.16358483960662673
-1172.7091777324677,6020.0,-3184.0,-15088.0,-233.0,391.0,681.0,0.7929626620381554,-0.20570036522943339,-0.5400062795737954,0.1931082452375039
-1172.7247400283813,6156.0,-3632.0,-15156.0,72.0,365.0,1491.0,0.779190381321084,-0.2747513827346581,-0.4827021468468141,0.29046973124849623
-1172.740351676941,6092.0,-2644.0,-14944.0,50.0,884.0,2728.0,0.7259601347714622,-0.3965299066966715,-0.3455316198781801,0.44311828610664494
-1172.7559826374054,5620.0,-2916.0,-15180.0,-127.0,1070.0,3112.0,0.6087639440194332,-0.5189344063237077,-0.16840556207080057,0.5759801290487226
-1172.7716088294983,5116.0,-3448.0,-15048.0,201.0,711.0,2422.0,0.49458656008922713,-0.5661516327795388,-0.01077266231435447,0.6593484761693382
-1172.7872741222382,5648.0,-3164.0,-15216.0,-31.0,260.0,2129.0,0.36442559838762884,-0.574718999391086,0.10197590208319425,0.7255983533422925
-1172.8028664588928,6300.0,-3140.0,-15280.0,137.0,1085.0,4071.0,0.09742747474365207,-0.5659987806002951,0.32783988144816156,0.7501161774392747
-1172.8184745311737,5404.0,-2860.0,-15180.0,120.0,1605.0,4379.0,-0.21234221718179955,-0.5047017518675511,0.5239795546991552,0.652405051115806
-1172.8340783119202,4352.0,-3756.0,-15296.0,120.0,566.0,1842.0,-0.3330851395437345,-0.4487052729826599,0.5932581236058116,0.5794503141671418
-1172.8496804237366,5044.0,-3380.0,-14832.0,354.0,-6.0,334.0,-0.33544324270268155,-0.44106882534480724,0.6240408569776231,0.5509166280452019
-1172.8653783798218,6276.0,-2724.0,-14608.0,-178.0,255.0,1195.0,-0.41121715760594785,-0.3808727265571294,0.6504443480295661,0.5125998103509362
-1172.8809921741486,6388.0,-3116.0,-15076.0,-48.0,803.0,2610.0,-0.5594097354769656,-0.25965582666573556,0.6871761848050885,0.3839641787574044
-1172.8966000080109,5116.0,-3104.0,-15272.0,-17.0,667.0,2084.0,-0.6575982920398324,-0.15342427014337515,0.6890323250599372,0.2631728227985653
-1172.912195444107,4380.0,-3156.0,-15076.0,6.0,120.0,169.0,-0.6683287626239773,-0.14631437508351358,0.6846672277971948,0.25131564987865035
-1172.9279794692993,5216.0,-3308.0,-15076.0,18.0,-8.0,-571.0,-0.6541154990211923,-0.18104646537610541,0.6776321505167856,0.2831426493855555
-1172.9435963630676,5824.0,-3136.0,-14996.0,-30.0,-240.0,-87.0,-0.6379230885859865,-0.178474364977571,0.6892726688798898,0.29343520925404004
-1172.9592406749725,5796.0,-3500.0,-15048.0,-67.0,50.0,-73.0,-0.639918719962449,-0.18037371080218265,0.6838354785364277,0.300563461831152
-1172.9749081134796,5572.0,-3448.0,-14880.0,-28.0,-40.0,26.0,-0.6384900365236228,-0.176175155184235,0.6859664483245322,0.30123548882709766
-1172.9905233383179,5336.0,-3284.0,-15288.0,-245.0,37.0,-136.0,-0.6405449002645395,-0.17155927058755704,0.6754035469982721,0.3226448451822985
-1173.00616979599,5112.0,-3240.0,-15184.0,45.0,-138.0,-800.0,-0.6075334084247945,-0.21676951909113176,0.6709586726123941,0.36568920258460663
-1173.021809577942,4864.0,-3400.0,-15264.0,279.0,-660.0,-2046.0,-0.48949414779839606,-0.3245297090155324,0.6645977908148468,0.46193692608563025
-1173.0374240875244,5656.0,-2720.0,-15084.0,120.0,-546.0,-1873.0,-0.3734328615264539,-0.4103686172633272,0.6308289722011093,0.5424023448780813
-1173.0530247688293,6176.0,-3248.0,-15052.0,-233.0,-209.0,-1041.0,-0.3195121501333239,-0.4482279485002009,0.5869072579591407,0.5937537895924236
-1173.0687274932861,5768.0,-3384.0,-15076.0,46.0,-26.0,-317.0,-0.29979742037195994,-0.4642869176939408,0.5775873348165141,0.6007928390519767
-1173.0843453407288,5064.0,-2904.0,-15124.0,-257.0,-131.0,-1120.0,-0.2436033369399313,-0.5046781188024104,0.5197175752369366,0.6448651429745831
-1173.0999879837036,4840.0,-3548.0,-15244.0,-5.0,-501.0,-2054.0,-0.10370883249154564,-0.5602094807728543,0.43249766268159395,0.6988244325225096
-1173.115561723709,5356.0,-3172.0,-14980.0,227.0,-555.0,-2297.0,0.06702540663188429,-0.6024820199009696,0.3321510894165578,0.7226331464590259
-1173.1311764717102,5620.0,-2964.0,-14824.0,-159.0,-264.0,-1951.0,0.18660632008713224,-0.63415943003454,0.21491348612277766,0.7189103505197021
-1173.1468105316162,5416.0,-3628.0,-15136.0,-64.0,-667.0,-2564.0,0.3472798902170953,-0.6251624291192356,0.056649399657518196,0.6966774437191016
-1173.1624519824982,5804.0,-3464.0,-15224.0,7.0,-796.0,-2582.0,0.4949923787838461,-0.573808759111879,-0.10511119391395675,0.6439547265346978
-1173.1780679225922,5752.0,-3012.0,-15140.0,-177.0,-331.0,-1720.0,0.5729775109160766,-0.5409356601662575,-0.21313573578257813,0.5776318392171018
-1173.193680524826,4876.0,-3664.0,-15312.0,238.0,-627.0,-2258.0,0.6722325769955366,-0.44629216990113435,-0.33231050227790115,0.4883609234845534
-1173.20929646492,4352.0,-2768.0,-15276.0,399.0,-970.0,-3388.0,0.7679621947958002,-0.27079181231547084,-0.48181308193140054,0.3236696090569604
-1173.224895954132,4844.0,-3168.0,-15104.0,407.0,-1711.0,-5167.0,0.7686693455452286,0.019804976473381437,-0.6385639316087306,0.0314850023719062
-1173.2405054569244,6832.0,-2676.0,-14928.0,-126.0,-1303.0,-3938.0,0.6646595101600199,0.22032169447848812,-0.676726206861155,-0.22743730442318283
-1173.2561087608337,7296.0,-3180.0,-15088.0,-367.0,-13.0,-383.0,0.6624743804272599,0.22113342343485864,-0.6623585389753104,-0.2711251927873722
-1173.2717425823212,5480.0,-3532.0,-15056.0,-58.0,26.0,57.0,0.6662635761380323,0.21507847930122484,-0.6608008437049023,-0.2705112563501234
-1173.2873210906982,4296.0,-2748.0,-14908.0,-189.0,-981.0,-2477.0,0.5401195677700154,0.31531795788209543,-0.6497115959502658,-0.43211142085896714
-1173.3029205799103,5244.0,-3084.0,-14920.0,-492.0,-1499.0,-3114.0,0.33588791957484965,0.39429812739844505,-0.5896139915510037,-0.6197286770684829
-1173.3185272216797,6900.0,-2740.0,-15192.0,-330.0,-650.0,-258.0,0.2991455536225219,0.3619650354214515,-0.5808463424539126,-0.6649141127530188
-1173.3341660499573,6348.0,-2840.0,-15392.0,-541.0,351.0,1486.0,0.41611290980362287,0.2900363784551879,-0.5816718182231471,-0.6359141776626301
-1173.3498101234436,4164.0,-2920.0,-15408.0,38.0,-254.0,109.0,0.40812460460457517,0.27174690984700506,-0.5958278090978631,-0.636063790834381
-1173.3654153347015,4172.0,-2668.0,-15488.0,-200.0,-1072.0,-2318.0,0.22289572977191596,0.3178426326821594,-0.5545002927958576,-0.7360862583885311
-1173.381043434143,5620.0,-3000.0,-15336.0,91.0,-881.0,-1663.0,0.06996796491702112,0.3389946091498199,-0.5245520824780548,-0.7778381911558903
-1173.3966884613037,5980.0,-2496.0,-15292.0,-25.0,85.0,-11.0,0.0738880837465138,0.3451721013680382,-0.5222234660081109,-0.7763243027678036
-1173.412329673767,4760.0,-3220.0,-15560.0,337.0,-156.0,-415.0,0.028491213038006197,0.3553614586931532,-0.5331496603373292,-0.7672404604407199
-1173.4279608726501,4636.0,-2688.0,-15196.0,357.0,-271.0,-1484.0,-0.09368170238618728,0.40357350443693557,-0.5072997622872054,-0.7556448347854046
-1173.4435696601868,5224.0,-3432.0,-15736.0,652.0,216.0,-113.0,-0.11428432566433182,0.416841999402022,-0.5472567736553925,-0.7167230037680277
-1173.459174156189,4712.0,-3048.0,-15792.0,1149.0,569.0,60.0,-0.12432688473975065,0.43549244749867455,-0.6232553976237507,-0.6375279313374301
-1173.4748044013977,4456.0,-3028.0,-15192.0,1013.0,-109.0,-1788.0,-0.26396066704322985,0.5076694931603305,-0.6010224616754152,-0.5580039897080039
-1173.4904367923737,5868.0,-3176.0,-15176.0,1188.0,-389.0,-1885.0,-0.4205966153390145,0.5497448041905714,-0.5558024863864188,-0.46039410677973525
-1173.5060436725616,6912.0,-2620.0,-14904.0,1192.0,416.0,157.0,-0.44841278673759755,0.5120765636593583,-0.6227793994114424,-0.3858100378551187
-1173.5216298103333,6560.0,-3500.0,-14632.0,550.0,1019.0,1377.0,-0.3665948543805744,0.44469239176298064,-0.7338256248612269,-0.3596621216459068
-1173.5372133255005,6076.0,-4320.0,-15412.0,1189.0,844.0,2088.0,-0.2860066934877925,0.2923680948073846,-0.8583429201278296,-0.3097878304344934
-1173.5528535842896,6032.0,-2520.0,-15516.0,1400.0,1366.0,4527.0,-0.08891389488787788,-0.04110039950338334,-0.9606800728380496,-0.25980545434691954
-1173.5685410499573,4664.0,-2140.0,-14916.0,1084.0,1447.0,3255.0,0.10488556581074619,-0.275449055631757,-0.9366243097750381,-0.1893719572021334
-1173.5841352939606,5012.0,-3316.0,-15236.0,1084.0,53.0,480.0,0.1425441334531195,-0.30232243803077186,-0.9375005127189575,-0.09682511106588668
-1173.5997729301453,6996.0,-3208.0,-15444.0,839.0,877.0,2703.0,0.2511893795930721,-0.48955603716669693,-0.8348375059701213,-0.016885516837657946
-1173.615374326706,7156.0,-2896.0,-15756.0,1522.0,2652.0,7194.0,0.42939626138067094,-0.8066471665794454,-0.38973794731084827,0.11420828248240862
-1173.630980014801,4112.0,-2524.0,-15916.0,2267.0,3029.0,7097.0,0.5083583250660111,-0.8131617974370879,0.20122057796408965,0.19962460652124428
-1173.6466431617737,2736.0,-1748.0,-16064.0,2830.0,2093.0,3980.0,0.5469533795617906,-0.5936781306776612,0.5677697192160869,0.16132521093214075
-1173.6622259616852,3736.0,-2044.0,-15664.0,2181.0,1519.0,696.0,0.5588123864711633,-0.46348927820484453,0.687641716240174,0.007434769789551611
-1173.6778330802917,5204.0,-3108.0,-15472.0,3389.0,1760.0,1136.0,0.55660548292093,-0.2184911379262848,0.7761565409961341,-0.20008244025638983
-1173.6934089660645,5752.0,-2572.0,-15608.0,3451.0,2332.0,1823.0,0.4610557058774876,0.10526710777760295,0.8031808817061377,-0.3622802000657798
-1173.708972454071,4496.0,-2936.0,-16808.0,4405.0,2982.0,2291.0,0.2532414827791688,0.47956904743848755,0.6809839180812769,-0.4920804644094524
-1173.72456240654,3536.0,-1996.0,-17456.0,6526.0,2639.0,-675.0,-0.17520127922881998,0.5932101594718868,0.4148292042911463,-0.6673252203559357
-1173.7401509284973,4108.0,-60.0,-18444.0,8067.0,3170.0,-2213.0,-0.659367677135546,0.4528914417034268,0.00888983460735995,-0.6000371482011089
-1173.7557866573334,6088.0,116.0,-18868.0,9452.0,5651.0,-61.0,-0.7502235183257339,0.14789823142306024,-0.5831549660257394,-0.27426460087369475
-1173.7714364528656,6624.0,-488.0,-19496.0,10317.0,10012.0,6843.0,-0.12255987743544478,-0.3715695778187907,-0.9194242650284362,-0.039675510828400797
-1173.787026643753,3872.0,-2908.0,-20356.0,10875.0,13519.0,9940.0,0.6709234460721227,-0.6157892495483233,-0.38745459951565,0.14333270026615577
-1173.8026576042175,252.0,-4676.0,-21832.0,11783.0,11624.0,3166.0,0.9320502446391548,-0.10042874480647078,0.34333394299395315,0.05760392584636437
-1173.8182516098022,324.0,-4028.0,-24816.0,11376.0,8881.0,-6243.0,0.4693324095648562,0.3492366740987272,0.6292186291735548,-0.5117076816869746
-1173.8338544368744,2932.0,-2404.0,-24580.0,12503.0,8302.0,-6032.0,-0.3682986238254363,0.52077512669929,0.343916006139043,-0.6891089694823292
-1173.849494934082,4048.0,-3592.0,-17284.0,9650.0,8050.0,-4325.0,-0.8545013813759683,0.3690201495175702,-0.1948448868587007,-0.3093331352144678
-1173.8651041984558,4664.0,-948.0,-12304.0,6910.0,5565.0,9306.0,-0.4864361728589367,-0.10248105488969267,-0.7293143811468878,-0.47008298902999934
-1173.8807454109192,4.0,10164.0,-11068.0,-776.0,8048.0,32767.0,0.438246435599245,-0.5867016628843857,-0.2399265379760677,-0.6373040693641241
-1173.896341085434,-16284.0,10624.0,-12728.0,-10721.0,2454.0,22975.0,0.499859801930233,-0.5502789223549391,0.6673454820202109,-0.044534185221775865
-1173.9119715690613,-22808.0,5488.0,-17008.0,-15577.0,-13946.0,-9436.0,0.23560795050580338,-0.819332605450472,-0.14904638362143757,0.5009672153280766
-1173.9276230335236,-9600.0,2580.0,-20996.0,-18086.0,-23180.0,-20502.0,-0.14097630889747834,0.02699054092386789,-0.877695157742335,0.4572181110869707
-1173.943294286728,6808.0,-940.0,-23392.0,-17431.0,-19143.0,-2591.0,-0.589482701323471,0.48515684798208975,-0.536725993282999,-0.35924669216409627
-1173.9588932991028,8052.0,-3980.0,-21696.0,-15467.0,-13499.0,13108.0,-0.0663067532423821,0.10378580449932494,0.03728025043920667,-0.9916864949095917
-1173.9745419025421,384.0,-6332.0,-17952.0,-15418.0,-16905.0,4272.0,0.21996140999563166,-0.55472152867937,0.6320414437858113,-0.4943931806462378
-1173.9911909103394,996.0,-2104.0,-18104.0,-18279.0,-23533.0,-9539.0,0.0761452513435524,-0.8415367858700623,0.17446265047160572,0.5055497228915613
-1174.0068373680115,7948.0,-1704.0,-18876.0,-20682.0,-21460.0,-6082.0,-0.2988655641996703,-0.0440129247532273,-0.4679363538490228,0.8305286302932376
-1174.0225059986115,9720.0,-3484.0,-19476.0,-18624.0,-17570.0,4991.0,-0.5829341894118637,0.6078695869077299,-0.5391418121382875,0.0028987120593264464
-1174.03812789917,6532.0,-1972.0,-17704.0,-18105.0,-16309.0,8881.0,-0.15834864635365978,0.4507496646785975,-0.07485352405471309,-0.8752984610558195
-1174.0537490844727,4720.0,-3104.0,-16928.0,-20046.0,-16965.0,6230.0,0.3889679712541782,-0.2378516218554531,0.5650506869856486,-0.6876396181548775
-1174.0693836212158,5416.0,-5644.0,-17256.0,-19145.0,-16190.0,5398.0,0.4542793218631354,-0.6498783521205068,0.5207290621561016,0.31643272428548136
-1174.0849907398224,6524.0,-7028.0,-17356.0,-16197.0,-13446.0,2285.0,0.03971959263514391,-0.3888611073956258,-0.15708521397798197,0.9069363972547564
-1174.1006126403809,6812.0,-7140.0,-16856.0,-14982.0,-12000.0,-598.0,-0.30014948223001336,0.2649313625586138,-0.7199008592055548,0.566978319131336
-1174.116260766983,5308.0,-6152.0,-15108.0,-13019.0,-12903.0,-4853.0,-0.2945144441655566,0.8013069950318803,-0.47274038531819745,-0.21836865613002623
-1174.131891965866,6008.0,-3788.0,-14236.0,-14783.0,-12167.0,-7746.0,0.043590485836319276,0.6156914915137408,0.3218674317188344,-0.7179312036824002
-1174.1474878787994,8716.0,-6048.0,-15640.0,-14658.0,-9248.0,-4768.0,0.425794000091389,-0.08244534679912921,0.7855779846866036,-0.4413269357891946
-1174.1631119251251,10196.0,-5756.0,-14624.0,-11197.0,-4318.0,5561.0,0.5599725352165397,-0.18576987370271128,0.7179747642198404,0.3693677730543157
-1174.1787230968475,5916.0,-5640.0,-14032.0,-7633.0,-1386.0,9156.0,0.1572734523994659,0.0411128869586416,0.3817368235685568,0.9098636102340105
-1174.194312095642,4228.0,-4076.0,-12964.0,-6569.0,-327.0,7582.0,-0.30873975479012933,0.17278278999732513,-0.12893048751080433,0.926392357850116
-1174.2099928855896,3512.0,-2820.0,-13728.0,-3985.0,874.0,8579.0,-0.7177371364787254,0.0871839442211234,-0.4650835809714346,0.5108322870572638
-1174.225600719452,240.0,-2792.0,-14008.0,-2808.0,1815.0,6972.0,-0.7736736692197125,-0.08347933923664794,-0.6276891096242807,-0.021601739184545905
-1174.2412605285645,-3792.0,-3900.0,-13572.0,-1110.0,-365.0,-3166.0,-0.7746238957153108,0.15753770292587654,-0.5988317457445451,0.12860883574705953
-1174.256900548935,-3012.0,-3692.0,-14060.0,-381.0,-3230.0,-14135.0,-0.48315672240245344,0.5940714861618058,-0.11822741822609628,0.6321874156501484
-1174.272569179535,2336.0,-4696.0,-14736.0,1034.0,-1632.0,-13859.0,0.13371117953282313,0.4965823924619343,0.4599879627038277,0.7238358392151528
-1174.288158416748,4852.0,-6752.0,-15460.0,5191.0,1074.0,-7056.0,0.24657314244917536,0.16342265033626718,0.8764678834713057,0.37986678194222046
-1174.3037991523743,2904.0,-6432.0,-14776.0,9605.0,3151.0,-7110.0,0.07077322843941701,-0.18912404449054887,0.9274079267315467,-0.31486153046584314
-1174.3194465637207,3364.0,-7164.0,-15556.0,11487.0,4711.0,-7763.0,-0.20612893633214482,-0.38032079319004086,0.3160827366014046,-0.84436879353541
-1174.3350763320923,5816.0,-9076.0,-15140.0,15293.0,6969.0,-8249.0,-0.2603032170534567,-0.1929831919009714,-0.6315698389875906,-0.7043573392224451
-1174.3506667613983,7096.0,-8136.0,-14212.0,18687.0,7618.0,-14187.0,-0.1674995168590938,0.26651243359897764,-0.9235567123525941,0.2189932274240204
-1174.3662557601929,11344.0,-7492.0,-10448.0,18679.0,9240.0,-17801.0,0.18639698190060192,0.4827829682063937,-0.11087817076635408,0.8484590750270034
-1174.3818683624268,17288.0,-4896.0,-15520.0,21748.0,5882.0,-17661.0,0.23586744336485255,0.21265594422766093,0.8692616042319485,0.37885123987294694
-1174.397498369217,23384.0,32767.0,-32768.0,-10350.0,32767.0,32767.0,-0.7369163564771166,0.3289062238459287,0.139200485816872,0.5739322296406167
-1174.413101196289,-32768.0,-32768.0,-32548.0,31999.0,32670.0,10797.0,-0.6143720286262517,-0.7662243315350188,-0.15856334240628925,0.10151330282442679
-1174.4287548065186,-32768.0,-3524.0,-420.0,1666.0,-32768.0,-32768.0,-0.15975739276066228,-0.026779406690426198,-0.1386924888011112,0.9769978671347127
-1174.4443686008453,32767.0,-292.0,-32768.0,3960.0,-29654.0,-32768.0,0.5711908218696244,0.7109111517031516,0.13395452944953623,0.38781769355710793
-1174.460003376007,32767.0,-13896.0,-26424.0,-12246.0,32767.0,32767.0,-0.03751781227659535,-0.14540811134351403,-0.15815726051864484,0.9759278538205207
-1174.4756264686584,-26368.0,-25012.0,-16752.0,32767.0,30244.0,32767.0,-0.4045348071530785,-0.6653065125069431,0.5980009217183121,0.1900361329892812
-1174.4912981987,-32768.0,32767.0,12200.0,8807.0,-18299.0,-32768.0,0.45737807916805595,-0.6788608787613192,-0.14607218777195677,0.555532281639387
-1174.5069029331207,11584.0,14836.0,-12692.0,-30145.0,-32768.0,-32768.0,-0.032026895017652254,0.025234369340651285,-0.9857396661025075,0.16326302481463728
-1174.5225076675415,32767.0,-15184.0,-26392.0,-21489.0,4142.0,-9894.0,0.22082862448852073,0.3778437581674087,-0.5518406043277093,-0.709887850604351
-1174.5381381511688,32676.0,-23128.0,-29736.0,26090.0,32767.0,32767.0,0.625273254130515,0.280665369406252,-0.5512650238068141,0.47578060239185976
-1174.5537395477295,-11000.0,8460.0,-10116.0,19671.0,27543.0,32767.0,0.025483566722450515,-0.32284120102964925,0.22831448458000242,0.9181484862895565
-1174.5693864822388,-25440.0,-2344.0,-9448.0,-1961.0,675.0,-21829.0,0.7900373430894331,-0.37815697348329785,-0.2511481948566457,0.41202291702087385
-1174.5850172042847,-3656.0,-8376.0,-14100.0,1463.0,-8563.0,-32768.0,0.5856363830902088,0.239682550574692,-0.5989573357048931,-0.4907467898583998
-1174.6006166934967,13424.0,-5056.0,-13288.0,420.0,-2096.0,-16926.0,-0.1436581643588065,0.5888526364000762,-0.20645389771997905,-0.7681091670680452
-1174.6162383556366,12624.0,-5960.0,-12964.0,-1790.0,639.0,-7322.0,-0.4431704260982998,0.6560733442255773,0.23525087509819995,-0.563759493218562
-1174.6318535804749,7192.0,-5608.0,-13388.0,-2894.0,-160.0,-8320.0,-0.541792368454121,0.4672392691810772,0.6819875433983554,-0.15179422080396526
-1174.647474527359,4568.0,-3528.0,-14940.0,-4364.0,-835.0,-9559.0,-0.32422391753027013,0.0689813016728576,0.8604328155917421,0.38700878694638174
-1174.663114309311,2836.0,-3224.0,-16604.0,-1564.0,-1287.0,-8260.0,0.04891680538297658,-0.37218524741967046,0.7178384437990419,0.5863388579639357
-1174.6787903308868,2884.0,-1152.0,-14564.0,-1992.0,-1994.0,-10958.0,0.4766346490247837,-0.6868396579240925,0.17906814856519898,0.5186572026118684
-1174.6944262981415,5904.0,-3748.0,-15700.0,-2541.0,-1609.0,-8445.0,0.5762136082055223,-0.6709247221011927,-0.4009695567244862,0.23887509198821716
-1174.7100057601929,8932.0,-3168.0,-16220.0,-347.0,1666.0,2599.0,0.5403664231341452,-0.78580109851763,-0.16644081113594988,0.2506356293628317
-1174.725600719452,7060.0,-2096.0,-16352.0,-1484.0,4141.0,8319.0,0.24468653184303324,-0.8248559485386555,0.4379855689550408,0.26059510103252603
-1174.7412083148956,3208.0,-3552.0,-15312.0,-428.0,2973.0,3943.0,0.009582718901465125,-0.6892451146360296,0.7118165752002719,0.13478318411054593
-1174.7568564414978,2040.0,-772.0,-15252.0,-1315.0,590.0,-2183.0,-0.07853362572420561,-0.8120366776595986,0.5513882202627025,0.17435576939608483
-1174.7724251747131,2732.0,-2708.0,-16236.0,-2031.0,632.0,-3372.0,-0.19028669204189588,-0.9162035004916671,0.26183367263618523,0.23623134506753188
-1174.78808927536,2524.0,-2816.0,-15472.0,-389.0,-1043.0,-8371.0,-0.019958138352841544,-0.869106913623789,-0.3205415582921195,0.3761754308995744
-1174.8037178516388,6072.0,-2512.0,-14308.0,-3079.0,-1922.0,-10614.0,0.029504898098431393,-0.35998715173916324,-0.8742281805181354,0.32444383174730923
-1174.8193147182465,8120.0,-5228.0,-15948.0,-2476.0,-691.0,-3571.0,0.0002998529265502666,-0.06934959447942811,-0.9880013836072903,0.13799931095422635
-1174.8349123001099,6920.0,-4072.0,-15860.0,-1773.0,2706.0,4609.0,0.150498767634886,-0.4481633661686824,-0.8807477775651416,-0.02798339648433976
-1174.8504984378815,3580.0,-2500.0,-15332.0,-2061.0,2166.0,2922.0,0.22868621255722332,-0.6525415458185472,-0.6886341165526615,-0.21834651516960096
-1174.8661391735077,2992.0,-2752.0,-15688.0,-2131.0,91.0,-1895.0,0.0743058919407991,-0.5624009298057607,-0.7318464815126026,-0.37760370241050584
-1174.8817553520203,5816.0,-2584.0,-15796.0,-1445.0,148.0,-152.0,0.007873829055325854,-0.5528538406683692,-0.6852582471452049,-0.4740377288715764
-1174.8973834514618,7080.0,-2624.0,-15376.0,-2112.0,1477.0,3087.0,0.11526719826025836,-0.6397227442212688,-0.4227236616643262,-0.6314847499349006
-1174.9130158424377,5936.0,-3752.0,-15840.0,-1617.0,2579.0,6623.0,0.40935552842616374,-0.6399148473343248,0.05231376831360958,-0.648228593285466
-1174.9287538528442,4384.0,-2656.0,-14856.0,-1525.0,1613.0,4757.0,0.532590195779704,-0.5288455938396986,0.4198763824233715,-0.5102684045859943
-1174.9443788528442,5060.0,-2352.0,-14520.0,-2558.0,1443.0,3999.0,0.4951097040120179,-0.40118197004562456,0.7207956095920766,-0.2727143140655265
-1174.9600520133972,5788.0,-3292.0,-15416.0,-2682.0,1680.0,5145.0,0.36950675022650836,-0.1358660957361666,0.9177334498733898,0.05263535456270933
-1174.9758133888245,5920.0,-2844.0,-15508.0,-2672.0,2630.0,7291.0,0.07595923064992356,0.28449628755780343,0.8757191595212781,0.3826329981748117
-1174.9914667606354,5436.0,-3876.0,-14840.0,-3016.0,1655.0,6007.0,-0.15099809482562218,0.5721268925860971,0.5451537028402719,0.5938668490649648
-1175.0070958137512,6344.0,-4336.0,-14924.0,-3298.0,690.0,5719.0,-0.2730935918750762,0.7373204059293508,0.06894493509845694,0.614023700683627
-1175.0227689743042,7804.0,-3264.0,-15340.0,-2823.0,241.0,6627.0,-0.37914709060043905,0.704080848588971,-0.4354296452307308,0.41342310819993716
-1175.0383825302124,8244.0,1292.0,-15564.0,-3808.0,840.0,9445.0,-0.3386645847281966,0.3291811196620114,-0.8814265404587359,0.005774364370824733
-1175.0540149211884,5148.0,120.0,-18176.0,-3013.0,3076.0,12661.0,-0.014029409168745979,-0.36254125133159903,-0.870331739744935,-0.33300102034956114
-1175.0696177482605,56.0,3040.0,-18740.0,794.0,2199.0,8005.0,0.33207521110794413,-0.733865176064008,-0.5198757844642886,-0.28442420124841256
-1175.085230588913,-752.0,4012.0,-16388.0,61.0,-845.0,-3751.0,0.19365086183252736,-0.5526661435632301,-0.7453378405567995,-0.31863926453686403
-1175.1008648872375,3732.0,-200.0,-16104.0,-984.0,-2362.0,-8144.0,-0.1876374140624719,-0.08450815636705891,-0.9228256710880837,-0.32564298415936616
-1175.1165039539337,7816.0,-3156.0,-16020.0,-1375.0,-862.0,-3397.0,-0.34539565915038895,0.17772878757965319,-0.8501197109239687,-0.35554295634154104
-1175.1321053504944,7012.0,-3904.0,-16292.0,-163.0,1767.0,3050.0,-0.11174494841497029,0.010698238128348254,-0.9038559549017918,-0.41284746213735496
-1175.1477308273315,3120.0,-2684.0,-15844.0,931.0,2435.0,4015.0,0.20690249672580435,-0.20979419582363354,-0.8903974519410494,-0.3469439865802984
-1175.1633191108704,1036.0,-2476.0,-14436.0,602.0,1674.0,893.0,0.36941510526734156,-0.21447693334417658,-0.8494556402097027,-0.30976965697033737
-1175.178947210312,1788.0,-3588.0,-14936.0,781.0,450.0,-1448.0,0.37397639621944706,-0.06911609267605176,-0.8736801549667302,-0.3033934864515401
-1175.194582939148,4280.0,-2764.0,-15116.0,1933.0,513.0,-531.0,0.4040051927205979,0.047199549923376084,-0.8969344351087936,-0.1733800042043275
-1175.210177898407,6372.0,-2028.0,-14456.0,1399.0,1112.0,702.0,0.48889703385603145,0.05753504129289319,-0.8697836198913886,-0.03385061120322042
-1175.2258052825928,7908.0,-2484.0,-15428.0,899.0,1732.0,3378.0,0.5921972741571976,-0.1471271082866508,-0.7721522879244853,0.17730439007812515
-1175.2413973808289,7596.0,-2108.0,-16036.0,1405.0,3067.0,7348.0,0.5744508300058299,-0.5042481187682349,-0.40678455770593375,0.5002663313039334
-1175.256963968277,4820.0,-1920.0,-15624.0,1581.0,2440.0,5353.0,0.43873219226654275,-0.6372776142823168,0.017564214009784834,0.6333109853696292
-1175.2725229263306,4176.0,-2296.0,-15140.0,795.0,674.0,821.0,0.433576607053861,-0.638808013285511,0.13202695014516863,0.62169488691258
-1175.2881352901459,5752.0,-3396.0,-15076.0,750.0,722.0,1864.0,0.3596950403507899,-0.6177317869156806,0.2987875284058717,0.6322601760747819
-1175.3037431240082,6680.0,-2856.0,-15316.0,631.0,2316.0,6220.0,-0.00862762865583863,-0.4872311517195269,0.6410704737367209,0.5929249670243416
-1175.319329738617,4656.0,-4012.0,-15336.0,947.0,2896.0,7368.0,-0.4199873378939967,-0.1852126661260196,0.8218954356167565,0.33733484437209804
-1175.3349237442017,3672.0,-4528.0,-14956.0,1294.0,1308.0,3917.0,-0.5688291219162462,0.009203328575378198,0.8190289767934267,0.07443294953069123
-1175.3505218029022,5096.0,-3828.0,-14992.0,788.0,646.0,2780.0,-0.6133037778878436,0.15940559508319818,0.7648970490485448,-0.1156755663115505
-1175.366153717041,6424.0,-2916.0,-15116.0,456.0,1659.0,4825.0,-0.6221375776293964,0.4325914730508558,0.5519812305875649,-0.3480318563352426
-1175.381770849228,5684.0,-3088.0,-15376.0,909.0,2268.0,6401.0,-0.49023953765667866,0.6528016873908274,0.13719795963236778,-0.5609740390878792
