programtime,ax,ay,az,gx,gy,gz,q0,q1,q2,q3
-1162.410232782364,3368.0,-676.0,16372.0,-10.0,-263.0,-1152.0,0.994717620913573,-0.0009326518410074142,-0.02315168147079488,-0.09999992224826873
-1162.4258332252502,3460.0,-552.0,16324.0,-87.0,-481.0,-1234.0,0.9764220703427415,-0.010223499169254894,-0.06412920198075557,-0.20587099374521342
-1162.4414458274841,3532.0,-492.0,16256.0,-14.0,-431.0,-1272.0,0.9446544450964307,-0.012145686369613228,-0.10130943681415648,-0.31179618290569894
-1162.4570291042328,3628.0,-556.0,16244.0,90.0,-404.0,-1177.0,0.903825728837237,-0.005607813458111201,-0.13747914761638025,-0.40517537967000133
-1162.4726543426514,3600.0,-772.0,16148.0,209.0,-363.0,-972.0,0.8615859372929439,0.009408914751048623,-0.17304589407345397,-0.47711242231424467
-1162.4882361888885,3692.0,-840.0,16224.0,251.0,-201.0,-726.0,0.8261971040312109,0.030583510152181012,-0.19732083322949173,-0.5268087726783133
-1162.50386095047,3620.0,-696.0,16340.0,287.0,-92.0,-578.0,0.7960559330218732,0.05670278073759357,-0.21503744591196092,-0.5628842181239052
-1162.5194873809814,3564.0,-576.0,16224.0,340.0,-37.0,-757.0,0.7545873498067612,0.09226288920446597,-0.22975253878182503,-0.6076999767241716
-1162.5351231098175,3464.0,-368.0,16304.0,374.0,-17.0,-419.0,0.7282171240598523,0.12403213518125274,-0.24684551288195802,-0.6272026326781641
-1162.5507144927979,3508.0,-308.0,16200.0,448.0,-73.0,-421.0,0.6978164960372212,0.1571378673782928,-0.2708813259268803,-0.6441918470131642
-1162.5663125514984,3384.0,-320.0,16144.0,508.0,-102.0,-317.0,0.6697635615777185,0.1893699376953166,-0.3007207369291531,-0.6520144451319991
-1162.5819790363312,3364.0,-452.0,16284.0,537.0,-96.0,-183.0,0.6472307671858736,0.2196378446372291,-0.333292584391893,-0.6494363744051229
-1162.5975756645203,3468.0,-460.0,16348.0,485.0,-107.0,-38.0,0.6321638867341205,0.24167453393514965,-0.3656108490864537,-0.6389764839074443
-1162.6131682395935,3116.0,-308.0,16252.0,405.0,-147.0,-108.0,0.6125403223533569,0.2589196210682443,-0.39359446558539113,-0.634695501778351
-1162.6287605762482,3416.0,-92.0,15992.0,349.0,-505.0,-128.0,0.5794411116924341,0.2534722708551626,-0.43625212714837264,-0.6400655337906294
-1162.6443648338318,3528.0,8.0,15944.0,328.0,-299.0,-95.0,0.5551509048473204,0.25664255857191676,-0.4671005777559785,-0.6385601931195624
-1162.6599776744843,3520.0,-144.0,16108.0,290.0,-286.0,-120.0,0.5300347692045128,0.25935105575406553,-0.4939692854251314,-0.6385879096648757
-1162.67556142807,3568.0,-268.0,16172.0,308.0,-359.0,-128.0,0.5000830127828181,0.25876450955608904,-0.5242485930440719,-0.6388437380232881
-1162.6911387443542,3496.0,-312.0,16084.0,268.0,-371.0,-113.0,0.47044191147905834,0.2546334952499078,-0.5522516865378214,-0.6394249492605657
-1162.7067158222198,3468.0,-352.0,16188.0,202.0,-367.0,-64.0,0.444469910669987,0.24527459372548405,-0.5766672056795025,-0.6401107764095267
-1162.722340106964,3520.0,-352.0,16280.0,227.0,-321.0,-133.0,0.4158305312745851,0.2426022469431958,-0.5984555501139195,-0.6403749476485281
-1162.7379846572876,3332.0,-24.0,16312.0,284.0,-253.0,-174.0,0.38669512589138144,0.24762209082491737,-0.6193112771135016,-0.6368702550656521
-1162.753591299057,3592.0,-500.0,16284.0,281.0,-241.0,-205.0,0.35603021718833755,0.25455080419993537,-0.6381047939906901,-0.6334576895232154
-1162.7691869735718,3660.0,-176.0,16060.0,338.0,-256.0,-203.0,0.32283769631423714,0.2619232889237146,-0.6595947580895237,-0.6261842920887775
-1162.7847874164581,3748.0,-228.0,16048.0,259.0,-7.0,-153.0,0.30811316750926687,0.2774944019403238,-0.670136333789584,-0.6156138619575127
-1162.8003752231598,3664.0,-280.0,16148.0,238.0,-249.0,-159.0,0.27915148113693933,0.2796067403544257,-0.685318170058739,-0.6117462930944224
-1162.8160429000854,3604.0,-368.0,16056.0,226.0,-364.0,-124.0,0.24511451968739154,0.2728353371470595,-0.7026244750165641,-0.6097528992550733
-1162.831638097763,3552.0,-484.0,16296.0,228.0,-411.0,-107.0,0.20865268699619124,0.26212109697362534,-0.7202987979791666,-0.6073929768777218
-1162.8472757339478,3548.0,-488.0,16232.0,279.0,-280.0,-84.0,0.1801487356731771,0.25743545887523483,-0.7377445406008658,-0.5975001341946884
-1162.8628792762756,3616.0,-364.0,16304.0,311.0,-205.0,-73.0,0.15611215195392372,0.2561550071470365,-0.7550727162501626,-0.5829912533652785
-1162.8784384727478,3640.0,-300.0,16236.0,293.0,-101.0,-89.0,0.138363210170401,0.26073465393845047,-0.7690084657214769,-0.5670088552709192
-1162.8940258026123,3652.0,-296.0,16184.0,234.0,-54.0,-48.0,0.12704864059059182,0.2640163300981182,-0.7799192651779873,-0.5530641555641015
-1162.9096066951752,3668.0,-292.0,16152.0,215.0,-36.0,-31.0,0.11816356680540503,0.26669226419150077,-0.7897888428136398,-0.5395796433033099
-1162.9260017871857,3640.0,-352.0,16228.0,114.0,-27.0,-87.0,0.10957888719374738,0.2725425069096406,-0.79330048000788,-0.5332798494487259
-1162.941647529602,3560.0,-292.0,16080.0,131.0,-60.0,-135.0,0.09604439334917514,0.2802806260097318,-0.7965977431681673,-0.5269253085297424
-1162.9573299884796,3556.0,-484.0,16148.0,99.0,-95.0,-230.0,0.07644901628837168,0.29262684262216987,-0.7960605886463447,-0.5242257319986833
-1162.9729249477386,3636.0,-280.0,16168.0,82.0,-118.0,-350.0,0.05014114792852977,0.3118980730950486,-0.7911876129266587,-0.5236674693308919
-1162.9885649681091,3648.0,-260.0,16236.0,41.0,-117.0,-388.0,0.023219062591264206,0.3332879169567682,-0.7824759684473485,-0.5254630323299494
-1163.0041511058807,3608.0,-280.0,15888.0,58.0,-79.0,-463.0,-0.005076146358899454,0.3610706733511514,-0.7711301887496286,-0.5243666976294847
-1163.0198352336884,3688.0,-332.0,16240.0,66.0,-89.0,-488.0,-0.03543481708446366,0.38941712230066156,-0.7579711753996032,-0.522090390507818
-1163.0354566574097,3748.0,-332.0,16136.0,126.0,-96.0,-471.0,-0.06746107765218343,0.4153967579922549,-0.7466690048016409,-0.515150399126369
-1163.0511026382446,3652.0,-328.0,16148.0,136.0,-87.0,-468.0,-0.09901138762247713,0.44074758044628737,-0.734583353921325,-0.5062860965832584
-1163.066683769226,3688.0,-380.0,16200.0,130.0,-63.0,-434.0,-0.12713315798222766,0.46427160358000163,-0.7224790462368492,-0.4962993713469849
-1163.0822913646698,3656.0,-328.0,16048.0,137.0,-80.0,-400.0,-0.15495684035753005,0.48414302226329614,-0.7107837129547812,-0.48618970065025807
-1163.0979354381561,3648.0,-316.0,16244.0,168.0,-85.0,-304.0,-0.18015627618844593,0.49685554904943036,-0.7035439212168425,-0.47508339315064546
-1163.1135358810425,3644.0,-400.0,16196.0,197.0,-107.0,-264.0,-0.20614210437725985,0.5052755210385281,-0.6982326108153573,-0.4633285031552978
-1163.129174232483,3584.0,-340.0,16308.0,214.0,-192.0,-148.0,-0.23319708076304296,0.5024525024951597,-0.6965980725883641,-0.45597338686169253
-1163.1447823047638,3640.0,-396.0,15908.0,184.0,-196.0,-72.0,-0.25600070390197843,0.49511026502091987,-0.6965380865580874,-0.45184528220022874
-1163.1603744029999,3728.0,-292.0,16148.0,121.0,-213.0,18.0,-0.27343605738709076,0.48277128486976767,-0.6971364490382964,-0.4540543804965129
-1163.1760122776031,3596.0,-264.0,16180.0,162.0,-162.0,-26.0,-0.29112403356843625,0.47394084460417557,-0.6984192917655796,-0.4503746948757123
-1163.1916263103485,3760.0,-248.0,16272.0,138.0,-180.0,255.0,-0.2976828734644461,0.4475824232142447,-0.7094699634175019,-0.45574911111705285
-1163.207275390625,3724.0,-188.0,16152.0,175.0,-127.0,80.0,-0.30917368868152223,0.4329106758760077,-0.7160753209869085,-0.4519248959873036
-1163.2228825092316,3736.0,-284.0,15928.0,191.0,-101.0,40.0,-0.32110312991550227,0.4211648725252053,-0.7222249703332474,-0.4448640492739727
-1163.2384779453278,3704.0,-260.0,16272.0,172.0,-54.0,76.0,-0.32786933058865675,0.409367429220877,-0.7300394244593916,-0.4381351945318209
-1163.2540576457977,3672.0,-316.0,16124.0,182.0,-90.0,94.0,-0.33648771259585986,0.39462344572973973,-0.7376034056146702,-0.43242290801717886
-1163.2696344852448,4060.0,-196.0,16256.0,197.0,-117.0,163.0,-0.3445885741807198,0.3737855917871293,-0.746953934650619,-0.4284890493657953
-1163.285216331482,3744.0,-252.0,16212.0,155.0,-83.0,145.0,-0.3496054451278296,0.35646745091128923,-0.7547958163785203,-0.4254295062113848
-1163.3008584976196,3768.0,-508.0,16360.0,172.0,-70.0,101.0,-0.3558000523855477,0.34188138326970513,-0.7620185631716605,-0.41934610034890357
-1163.3164887428284,3892.0,-188.0,16148.0,190.0,20.0,138.0,-0.355054328267761,0.3274389288007113,-0.7735088467151107,-0.41037085171541005
-1163.3320851325989,3808.0,-212.0,16236.0,205.0,12.0,188.0,-0.35330590245921084,0.30870682144663714,-0.7863257156600505,-0.40195386124716603
-1163.3477063179016,3696.0,-12.0,16184.0,198.0,33.0,118.0,-0.35220405551235306,0.295575632437419,-0.7972667615573293,-0.3910921371055159
-1163.3632934093475,3812.0,-260.0,16164.0,179.0,82.0,78.0,-0.34843392123516426,0.2873745967083208,-0.8077358758793088,-0.3789094859157041
-1163.3788859844208,3812.0,-256.0,16204.0,157.0,128.0,81.0,-0.3406462263350296,0.2810527417626942,-0.8186701474056124,-0.3670813187540999
-1163.3944916725159,3744.0,-164.0,16204.0,163.0,154.0,122.0,-0.32968734760464413,0.27233734546503724,-0.8312262737069647,-0.3552485115995642
-1163.4101371765137,3688.0,-224.0,16220.0,128.0,66.0,146.0,-0.3233991008998031,0.26004938416358453,-0.8404000521434183,-0.34859014858523946
-1163.4257707595825,3724.0,-128.0,16352.0,124.0,47.0,140.0,-0.318496501657869,0.2476585782125279,-0.8485279094280284,-0.3423822337551233
-1163.4413623809814,3728.0,-128.0,16360.0,70.0,-3.0,131.0,-0.31632492437579207,0.23588563099800702,-0.8532674927525482,-0.3409268207681839
-1163.4569363594055,3684.0,-84.0,16116.0,73.0,-79.0,66.0,-0.32176282542217927,0.22657534657475434,-0.8545361832535422,-0.3389693319628413
-1163.4725341796875,3740.0,56.0,16080.0,41.0,-39.0,31.0,-0.3245949868594075,0.22193991792368822,-0.8552235917732944,-0.33759943040851387
-1163.4881217479706,3764.0,68.0,16188.0,-42.0,28.0,5.0,-0.32157524202217913,0.22356601016253924,-0.854837579033506,-0.3403826028023682
-1163.503751039505,3824.0,80.0,16196.0,-94.0,24.0,-200.0,-0.32386558380747804,0.24178300343407239,-0.8486252455240494,-0.3413022934799701
-1163.5193536281586,3796.0,296.0,16532.0,-178.0,73.0,-415.0,-0.3268394197255225,0.2794960483256144,-0.8359302845234793,-0.3409963520337784
-1163.5349633693695,3748.0,180.0,16204.0,-252.0,110.0,-611.0,-0.33032288804452375,0.33396003352274245,-0.815237115120894,-0.33874168886155115
-1163.5506739616394,3696.0,108.0,16148.0,-14.0,119.0,-617.0,-0.33921808442149065,0.38120226121132855,-0.7990373042524351,-0.31804923150635944
-1163.5662717819214,3512.0,-60.0,16192.0,-227.0,75.0,-665.0,-0.34428190553619803,0.4355473251190058,-0.7713331625008355,-0.31114891857196497
-1163.5818676948547,3524.0,-4.0,16188.0,-365.0,81.0,-674.0,-0.3425245489378411,0.4929679575716559,-0.7365359744635461,-0.31172790138772166
-1163.5974860191345,3536.0,44.0,16360.0,-503.0,118.0,-524.0,-0.32691944695227576,0.5437706426173564,-0.7023544679815148,-0.3227001158015424
-1163.613073348999,3616.0,236.0,16348.0,-546.0,219.0,-959.0,-0.31312273299236987,0.6213111834156115,-0.6445779877034419,-0.3169318305476164
-1163.6287169456482,3704.0,420.0,16212.0,-515.0,281.0,-1121.0,-0.2986153047374111,0.7019515270717981,-0.5737038355789513,-0.29825637035971825
-1163.6443176269531,3656.0,324.0,16236.0,-489.0,342.0,-1211.0,-0.2811449659173214,0.7788442651976352,-0.4922598914746438,-0.26840141198115114
-1163.6599252223969,3664.0,224.0,16204.0,-520.0,483.0,-1222.0,-0.25179502629489386,0.8489853403390372,-0.40576101410121607,-0.22623252652551057
-1163.6755154132843,3496.0,180.0,16364.0,-578.0,549.0,-1093.0,-0.20967490721674617,0.9049489072233967,-0.32315577403398077,-0.1807602121799152
-1163.6911308765411,3384.0,-192.0,16328.0,-591.0,624.0,-990.0,-0.15999206024868073,0.9473509643202015,-0.24543672874949807,-0.12918786026446974
-1163.7067203521729,3096.0,12.0,16420.0,-520.0,709.0,-939.0,-0.11170799922121061,0.9765869638707321,-0.17074421108508617,-0.06815892669835054
-1163.7223525047302,3396.0,104.0,16592.0,-1078.0,854.0,-1279.0,-0.014509308039212453,0.9979212748450499,-0.06278156165256495,0.0010414933120777383
-1163.7380006313324,3320.0,160.0,16516.0,-1299.0,1106.0,-1162.0,0.10315653634267898,0.9898905477923404,0.0363406000993135,0.09030389352394351
-1163.7536034584045,3236.0,160.0,16564.0,-1425.0,1320.0,-1257.0,0.22743907434128274,0.9436018479703047,0.14272985507554614,0.19368843135283073
-1163.769202709198,3476.0,-140.0,16532.0,-1491.0,1750.0,-1522.0,0.3443789609595197,0.841393178159368,0.26991597623453156,0.31718451533559966
-1163.784797668457,3372.0,-440.0,16944.0,-1778.0,2355.0,-1591.0,0.44491155683024064,0.6576193177885965,0.3918754739085069,0.4647839846844291
-1163.8003973960876,3120.0,-404.0,17472.0,-2218.0,2920.0,-2732.0,0.5416752728959209,0.33386291365288795,0.5312922827449511,0.5593317118812349
-1163.816061258316,3200.0,-76.0,18108.0,-2482.0,3356.0,-3863.0,0.5795416492535376,-0.11335360397422536,0.6101832737722052,0.5281655135042219
-1163.8316814899445,3648.0,260.0,18160.0,-2468.0,3874.0,-5092.0,0.5007614126168877,-0.5903281969262232,0.5507508553717234,0.3121283756006309
-1163.8472990989685,3564.0,376.0,17420.0,-2185.0,4679.0,-6069.0,0.2697955623588841,-0.9071976312689175,0.3143893497572752,-0.0732266967076639
-1163.8628754615784,2532.0,204.0,16196.0,-1851.0,4911.0,-6639.0,-0.043411011524775237,-0.8860285821529569,-0.06747476956819372,-0.4566355123707924
-1163.8784832954407,1568.0,148.0,16080.0,-1830.0,4438.0,-6791.0,-0.3475742563902959,-0.5358203828486287,-0.43422037961039955,-0.6352490185350013
-1163.8940670490265,1056.0,-84.0,16348.0,-2259.0,3786.0,-6683.0,-0.5576521242762686,-0.0032337121158321595,-0.6035260018031868,-0.5698859680177928
-1163.9096465110779,764.0,-752.0,16328.0,-2741.0,3250.0,-6513.0,-0.5884684148768672,0.5253486406724533,-0.5188013174094418,-0.3294828121315899
-1163.9253945350647,452.0,-1260.0,16212.0,-2924.0,2641.0,-6433.0,-0.43420868697556264,0.8709333294267717,-0.22991925744564926,-0.00866527000142844
-1163.9410271644592,256.0,-976.0,15360.0,-2777.0,1790.0,-6019.0,-0.16449779655111463,0.9420731853369237,0.1389144230290272,0.2571796482490066
-1163.9566836357117,1080.0,-1284.0,14440.0,-2417.0,291.0,-5460.0,0.13589626463603677,0.801453314139173,0.46941554018359455,0.3447518544510712
-1163.9723165035248,2620.0,-1896.0,13980.0,-2130.0,-610.0,-4681.0,0.4107647220665813,0.5491955959860364,0.6611301572171929,0.30424242911381716
-1163.9879567623138,4388.0,-3056.0,14084.0,-1832.0,-682.0,-4088.0,0.6012327124707928,0.24704644445479917,0.7290049716424898,0.21456707822447385
-1164.0036010742188,4752.0,-4004.0,15152.0,-1442.0,-172.0,-3370.0,0.6727884726614896,-0.0379921195253089,0.7290849575884002,0.11978060997555283
-1164.01926279068,4444.0,-4292.0,15328.0,-933.0,107.0,-2606.0,0.6708822960971147,-0.25249978590828975,0.6968029758176559,0.025028299810223552
-1164.0348925590515,4564.0,-4060.0,15332.0,-530.0,244.0,-1622.0,0.6407777087082823,-0.37846929973079557,0.6665927840301344,-0.0426494720107926
-1164.050499677658,3908.0,-3508.0,15048.0,-161.0,246.0,-557.0,0.6182256260333707,-0.4183245034248365,0.6614729974179347,-0.07249247434695298
-1164.0661566257477,3560.0,-2916.0,15080.0,232.0,-692.0,322.0,0.6671594686059836,-0.3906226184124287,0.6328097066825281,-0.043175091920831875
-1164.0817918777466,2912.0,-2688.0,15736.0,634.0,-1126.0,1117.0,0.747016050692707,-0.29297136543473984,0.5962487830773908,0.02494369101608111
-1164.097386598587,3008.0,-2524.0,16392.0,864.0,-835.0,1751.0,0.7953051429988482,-0.14124162329299722,0.578485884465053,0.11355445761319029
-1164.112960100174,2292.0,-2432.0,17388.0,903.0,-489.0,2273.0,0.7901934504902541,0.040144444949894484,0.5680594958171412,0.22647548113194618
-1164.1285562515259,2124.0,-2372.0,18020.0,588.0,-248.0,2525.0,0.731943492239428,0.2055423918414088,0.5398060541765267,0.3614145448080802
-1164.1441497802734,2180.0,-1968.0,18176.0,52.0,-182.0,2219.0,0.6573678642798456,0.3132495712322905,0.48086187952604986,0.4883790023676445
-1164.159776210785,2260.0,-828.0,17436.0,-341.0,-318.0,1583.0,0.606370035267729,0.3697943336693392,0.4005171824240422,0.5789244490419876
-1164.175437450409,2104.0,-44.0,16432.0,-447.0,-606.0,784.0,0.5997343904362271,0.4022600482977335,0.31897151482576763,0.6138099764596104
-1164.1910552978516,1996.0,-132.0,15532.0,-314.0,-954.0,504.0,0.607463325743637,0.4486876924036539,0.23325547325987275,0.61258431807897
-1164.2066571712494,2712.0,-1060.0,15252.0,84.0,-687.0,323.0,0.5996190911793039,0.4952121436753839,0.18813306641297406,0.5998565058176731
-1164.2222723960876,3060.0,-2212.0,15692.0,281.0,-27.0,489.0,0.5616869731992373,0.5185924584907071,0.17997656404448184,0.6190137660259147
-1164.2378859519958,3236.0,-2956.0,16312.0,296.0,535.0,841.0,0.4924648819213185,0.515153204665665,0.18328233618975248,0.677128570537194
-1164.2535200119019,3176.0,-3320.0,16872.0,126.0,620.0,1058.0,0.41200203069788166,0.49783540634982737,0.16873312050930875,0.7442737190903057
-1164.269151687622,3008.0,-2600.0,16964.0,121.0,475.0,1043.0,0.3303451705625052,0.48409345217191274,0.14750839231286164,0.7967225816101764
-1164.2847530841827,2808.0,-1848.0,16512.0,245.0,382.0,809.0,0.2579854390054508,0.4732943508742176,0.14082162166726436,0.8304247356399734
-1164.3003470897675,2212.0,-1272.0,16032.0,342.0,228.0,528.0,0.20245024195338918,0.4699852230373956,0.1485938625747762,0.8461959901019456
-1164.315981388092,2104.0,-456.0,16116.0,246.0,194.0,222.0,0.17336044263714953,0.46244579505823763,0.16091582356951997,0.8545151498285735
-1164.331621646881,2176.0,-656.0,16276.0,168.0,226.0,-142.0,0.1739380090170127,0.4457925941949617,0.18244236879193274,0.8589117032906889
-1164.3472771644592,2312.0,-1136.0,16304.0,105.0,204.0,-394.0,0.19599068871683017,0.42531304637944495,0.2084732185222146,0.8586241201333256
-1164.3628556728363,2240.0,-1700.0,16232.0,36.0,148.0,-366.0,0.21926249917425372,0.4077740218185878,0.22703181719264656,0.8567968589858151
-1164.3784596920013,2804.0,-2180.0,16304.0,-32.0,294.0,-350.0,0.2405567992820934,0.37778849234298234,0.2423868109609101,0.8606142662334684
-1164.3940563201904,2664.0,-2108.0,16460.0,48.0,323.0,-398.0,0.2617755606753069,0.34561976615116385,0.26547632489782275,0.8611288254364089
-1164.4096510410309,2672.0,-1788.0,16540.0,124.0,261.0,-424.0,0.2835780924012899,0.3185568801301044,0.2930894633654628,0.8556889306844893
-1164.4253103733063,2520.0,-1392.0,16288.0,243.0,233.0,-314.0,0.29408712359983213,0.2987731921541762,0.3252981147628969,0.8476016044784757
-1164.4409155845642,2428.0,-1408.0,16224.0,497.0,439.0,-52.0,0.27206478542194906,0.2770034235747934,0.3738838857708196,0.8422948983711495
-1164.4565165042877,2180.0,-1556.0,16416.0,179.0,712.0,178.0,0.2309258188141205,0.23411885370010801,0.39860256937097877,0.85614112168382
-1164.4721088409424,2052.0,-2120.0,16596.0,89.0,630.0,168.0,0.19432169655327938,0.19428718158650923,0.41364863371697935,0.8679783275773091
-1164.4877290725708,2000.0,-1772.0,16452.0,42.0,388.0,105.0,0.17154415801698797,0.16923387908687287,0.4211731624650677,0.874383018612911
-1164.5033450126648,2208.0,-1300.0,16336.0,76.0,117.0,169.0,0.15319591537970237,0.16758210004532575,0.4259503055899486,0.8757931196482437
-1164.5189275741577,2476.0,-1192.0,16236.0,78.0,244.0,23.0,0.14118723018684706,0.1507528122023484,0.43452906148348547,0.8766551490589277
-1164.5345966815948,2340.0,-1528.0,16632.0,1.0,451.0,7.0,0.1234347967568574,0.11639814342749856,0.4395303000362985,0.8820592035154025
-1164.5502009391785,2172.0,-1544.0,16564.0,-39.0,561.0,243.0,0.08347692806750254,0.08197130475910283,0.43927111398287266,0.8907037645012785
-1164.5658175945282,2064.0,-1840.0,16568.0,36.0,449.0,156.0,0.053822078935061274,0.05325454527904223,0.4436346826812369,0.8930035865261398
-1164.5814054012299,2012.0,-1628.0,16416.0,95.0,298.0,97.0,0.034256847100543254,0.03422084538776357,0.4515979908308446,0.8909066487827
-1164.5969920158386,2208.0,-1308.0,16252.0,201.0,327.0,153.0,0.00885003548898647,0.01543151071102347,0.4672429297030303,0.8839499929246836
-1164.6125793457031,2220.0,-1348.0,16160.0,331.0,471.0,183.0,-0.024906313014842387,-0.013147485912913148,0.4920217703093008,0.8701272301956068
-1164.6282522678375,2116.0,-1328.0,16168.0,299.0,535.0,95.0,-0.054694244551272524,-0.05024628993944778,0.5127438211185513,0.8553231107979217
-1164.6438608169556,1952.0,-1392.0,16264.0,157.0,406.0,-123.0,-0.06296512244352075,-0.08670612974087984,0.5214092629433204,0.8465517237227349
-1164.6594552993774,1896.0,-1532.0,16436.0,70.0,247.0,-258.0,-0.054604763863851824,-0.11697940408834014,0.5228432724458035,0.8425966124075464
-1164.675081729889,2172.0,-1736.0,16408.0,79.0,152.0,-362.0,-0.03410894366280801,-0.14491248351687355,0.5237551454909396,0.8387595004856541
-1164.6906716823578,2348.0,-1544.0,16424.0,67.0,177.0,-401.0,-0.012002758391277249,-0.176209426127652,0.5225183492011969,0.8341347293350279
-1164.7062623500824,2428.0,-1532.0,16260.0,126.0,286.0,-282.0,-0.0025886556923509175,-0.2098178939511683,0.5265560410822905,0.8238376574540327
-1164.7218625545502,2360.0,-1652.0,16308.0,151.0,384.0,-214.0,-0.0020926551520065685,-0.24702956393162315,0.5328355708173516,0.8093567012201196
-1164.7375144958496,2100.0,-1572.0,16324.0,71.0,295.0,-135.0,-0.004751359723344697,-0.2739772945695451,0.5345361847470367,0.7994904213542612
-1164.7531373500824,1932.0,-1756.0,16340.0,-61.0,120.0,-12.0,-0.01097784112779976,-0.28279572767591965,0.5297842986397812,0.7995215196148101
-1164.7687253952026,1984.0,-1408.0,16252.0,-215.0,-83.0,-459.0,0.01955870168197215,-0.2976488253544252,0.5029017238541559,0.8112413266705318
-1164.7843086719513,2280.0,-1400.0,16172.0,-215.0,-153.0,-613.0,0.06398386617372759,-0.31347444559239673,0.4705682846989164,0.8223170472910808
-1164.799979686737,2432.0,-1432.0,16320.0,-192.0,-107.0,-736.0,0.11569687079223867,-0.336248573060868,0.4349487178970447,0.8272670330692087
-1164.8155682086945,2524.0,-1600.0,16276.0,-68.0,181.0,-756.0,0.16105903831213708,-0.37773096654868177,0.40860769237090055,0.815119044571709
-1164.8311622142792,2396.0,-1624.0,16208.0,-71.0,409.0,-921.0,0.20887113830285628,-0.43887121824087977,0.37736098840787463,0.7882661896920781
-1164.8467955589294,2104.0,-1420.0,16148.0,-242.0,375.0,-1306.0,0.2751518715771194,-0.50832125093652,0.31513720374905707,0.752721393496402
-1164.8624045848846,2092.0,-1280.0,16300.0,-381.0,73.0,-1701.0,0.36384893648745187,-0.5624580693572305,0.21383368593210916,0.7110063476457683
-1164.8780028820038,2372.0,-1036.0,16044.0,-190.0,-296.0,-1852.0,0.4687375387645375,-0.5768028325669258,0.10030201627030427,0.6614553028193564
-1164.8935985565186,2532.0,-1420.0,15340.0,140.0,-918.0,-1606.0,0.5692022173424847,-0.525140350811663,-0.009954879938954294,0.6325641059111744
-1164.9091942310333,2724.0,-1812.0,14808.0,606.0,-1528.0,-906.0,0.6372522400914525,-0.40429866275606724,-0.09274063554787669,0.6495008455038819
-1164.9248797893524,3036.0,-2816.0,14424.0,805.0,-2019.0,123.0,0.6311188602306783,-0.24150025024406516,-0.15236616664105238,0.7212150613071628
-1164.940557718277,3112.0,-3516.0,15008.0,1452.0,-2252.0,993.0,0.5523984092071753,-0.031710995975776396,-0.15920282210223427,0.8176214721215991
-1164.9561421871185,3092.0,-3492.0,15528.0,1646.0,-2291.0,1407.0,0.40953942453000075,0.18498885115810176,-0.14289533244153163,0.8818375749928474
-1164.9717993736267,2956.0,-2660.0,16608.0,1540.0,-2015.0,1587.0,0.2297129591837833,0.36289128360972095,-0.11799343791260772,0.8953320173392005
-1164.987374305725,2728.0,-1412.0,17808.0,1167.0,-1651.0,1392.0,0.06549134000243367,0.48964728757832876,-0.10163839131549542,0.8634964131730191
-1165.002982378006,2712.0,52.0,18780.0,799.0,-1443.0,1027.0,-0.05802941439312176,0.5853360018848212,-0.09220061167070769,0.8034384849944837
-1165.0185866355896,2852.0,788.0,18180.0,654.0,-1351.0,935.0,-0.1659280806316282,0.661277642183912,-0.08620745724690551,0.7264626806110639
-1165.0342237949371,2540.0,16.0,16448.0,611.0,-1317.0,906.0,-0.26563630667010435,0.7210131066619594,-0.07977665054087953,0.634990660268964
-1165.049824476242,2180.0,-1356.0,15664.0,607.0,-1393.0,966.0,-0.3626807597334363,0.7679027596912301,-0.07371416967664866,0.5228328981296537
-1165.0654363632202,2164.0,-2156.0,15616.0,262.0,-1391.0,1104.0,-0.43434626185632813,0.8060730923950343,-0.09061029096023963,0.3916366552051036
-1165.0810329914093,2284.0,-2244.0,16324.0,536.0,-1257.0,1345.0,-0.520816034302394,0.8067932379236306,-0.11762042160676191,0.2529837268981533
-1165.096687555313,2408.0,-1848.0,16488.0,563.0,-1036.0,1358.0,-0.5939026820864295,0.7805046112482794,-0.15185020098024204,0.12261187745474565
-1165.112258195877,2324.0,-1404.0,16648.0,682.0,-825.0,1346.0,-0.6584231448441141,0.7279045380543046,-0.1913171103699085,0.005631082777269487
-1165.1279244422913,2228.0,-1068.0,16448.0,875.0,-676.0,1530.0,-0.7164941201972065,0.6436264323641538,-0.24589765674869898,-0.10915829648048442
-1165.1435189247131,2312.0,-784.0,16140.0,1054.0,-669.0,1300.0,-0.7683277833514278,0.53671985966564,-0.28359068488817224,-0.20292987216138078
-1165.1591308116913,2608.0,-980.0,16136.0,1071.0,-713.0,1390.0,-0.8007570660201964,0.4121362805316067,-0.3154916822945385,-0.2989929863579774
-1165.1747674942017,2860.0,-740.0,16568.0,1127.0,-675.0,1294.0,-0.8157091666486236,0.27642359632777225,-0.3397720684610659,-0.37784056469934196
-1165.1903784275055,2924.0,-692.0,16528.0,1228.0,-459.0,1111.0,-0.8132979050567638,0.13922635223840168,-0.37007936899203986,-0.42685337191958694
-1165.2059924602509,2840.0,-716.0,16832.0,1224.0,-175.0,762.0,-0.7991262756779924,0.02095879342274847,-0.4090332440852029,-0.44005650743105584
-1165.2216091156006,2716.0,-884.0,16672.0,1099.0,-47.0,380.0,-0.7842746168609125,-0.07072565863695153,-0.44615185088775294,-0.42527606622930325
-1165.2372469902039,2732.0,-896.0,16616.0,957.0,56.0,177.0,-0.766939634534507,-0.14052826334330765,-0.482478097404907,-0.39908681976022664
-1165.2528738975525,2788.0,-916.0,16576.0,804.0,276.0,129.0,-0.7389806520882185,-0.1896030785132583,-0.5257315088644744,-0.37625077946052077
-1165.268517255783,2688.0,-1008.0,16428.0,715.0,398.0,100.0,-0.7038776164609257,-0.22661742361623766,-0.5716096553013896,-0.355616712662736
-1165.2840957641602,2516.0,-936.0,16436.0,699.0,395.0,121.0,-0.6650144624258983,-0.2626454664919178,-0.6135233144281848,-0.3352048125380822
-1165.2997093200684,2540.0,-1152.0,16104.0,620.0,306.0,125.0,-0.6296636344855089,-0.29578738704748225,-0.6452484669558172,-0.31573397815453785
-1165.3152966499329,2368.0,-1176.0,15872.0,625.0,304.0,68.0,-0.5935161694746356,-0.3249572561569024,-0.6760874609709895,-0.29162833086127604
-1165.3309180736542,2632.0,-960.0,16212.0,660.0,359.0,136.0,-0.5490101781299715,-0.35722084228549933,-0.7059933480340954,-0.2693594005750382
-1165.3465077877045,2576.0,-820.0,16512.0,667.0,385.0,55.0,-0.5021292242583015,-0.3826342669596309,-0.7366839221713615,-0.24239236520204518
-1165.362086057663,2316.0,-808.0,16332.0,689.0,456.0,38.0,-0.4478925871718817,-0.40455965611604855,-0.7679376333761511,-0.21446562951759687
-1165.3776874542236,2556.0,-884.0,16132.0,670.0,503.0,10.0,-0.38934592672599294,-0.4208728773087815,-0.7976310457246144,-0.18724445354659514
-1165.3933537006378,2340.0,-912.0,16380.0,604.0,427.0,-110.0,-0.33855356760630206,-0.42584776549631514,-0.8242798358012023,-0.15683722381623422
-1165.4089512825012,2236.0,-844.0,16228.0,758.0,317.0,-207.0,-0.28965325940662723,-0.4278407477256867,-0.8493850719920683,-0.10769532662874219
-1165.4245507717133,2332.0,-660.0,15884.0,409.0,229.0,-264.0,-0.2596299163573273,-0.41599301351415685,-0.8679128272850551,-0.07917981733851032
-1165.4401638507843,2400.0,-608.0,16304.0,476.0,113.0,-16.0,-0.23371139696458992,-0.42439868503816,-0.8735397606586492,-0.046829751389155495
-1165.4557974338531,2488.0,-596.0,16332.0,500.0,2.0,-510.0,-0.21672540619777486,-0.39493272317670214,-0.8927797227212129,0.0016152926911202118
-1165.471423625946,2528.0,-584.0,16232.0,455.0,-114.0,-234.0,-0.2096943525851013,-0.3848837161716974,-0.8976820936622752,0.04538350182493308
-1165.487063884735,2504.0,-596.0,16028.0,293.0,-4.0,-387.0,-0.1984740260136896,-0.35957999089898424,-0.9086308557599031,0.07550006029156363
-1165.5026483535767,2804.0,-380.0,16072.0,119.0,-323.0,-486.0,-0.21688158651945458,-0.320528722377546,-0.9162635209179341,0.10336767287161475
-1165.5182485580444,2512.0,-464.0,16164.0,52.0,-285.0,-736.0,-0.2310540076936675,-0.25945121849759806,-0.9287739625266851,0.12914347556607805
-1165.5338661670685,2656.0,-284.0,16452.0,-34.0,-106.0,-942.0,-0.2290397874259644,-0.1805738945182792,-0.945111499431406,0.14730274280165273
-1165.5494928359985,2684.0,-476.0,16408.0,-31.0,-22.0,-1277.0,-0.21362259993815286,-0.07385237237699314,-0.9592434720694671,0.1695970907240661
-1165.565071105957,2680.0,-604.0,16732.0,45.0,83.0,-944.0,-0.19177158078179288,0.003120497766577192,-0.9629041983869334,0.18981419342862202
-1165.5806956291199,2496.0,-516.0,16588.0,-39.0,133.0,-814.0,-0.16668013414746805,0.06981364724470651,-0.9630460765060878,0.19971490196078068
-1165.5963027477264,2552.0,-1016.0,16400.0,-241.0,329.0,-513.0,-0.12841370853567607,0.11053417952968082,-0.9673167813284377,0.18865407277926974
-1165.611939907074,3032.0,-1132.0,16828.0,-564.0,995.0,-146.0,-0.0363704138193491,0.11223476977219772,-0.981384995121125,0.15153890854793886
-1165.6275732517242,3148.0,-1040.0,17416.0,-771.0,2269.0,-59.0,0.1628309280605937,0.08782117110564909,-0.9770424883142791,0.10564803264235424
-1165.6431715488434,3044.0,-1020.0,17972.0,-1076.0,3532.0,-661.0,0.4547028959669986,0.09154581311080287,-0.8854173875744935,0.03001150249264575
-1165.6588079929352,2296.0,-472.0,17320.0,-1350.0,3614.0,-1959.0,0.7016382492871746,0.16829233378897457,-0.6827141118622022,-0.11525145981415318
-1165.6744410991669,1028.0,12.0,15916.0,-1562.0,2436.0,-3014.0,0.7886936714034787,0.259962958726387,-0.4447447890747944,-0.3355348348072689
-1165.6900396347046,1588.0,-248.0,15524.0,-1663.0,1474.0,-3166.0,0.7494407876228034,0.2950708841416111,-0.2108709982248923,-0.5538999018657049
-1165.7056431770325,1860.0,-1100.0,15920.0,-1570.0,906.0,-2934.0,0.636555162975658,0.2776445574406276,-2.6624852017415053e-05,-0.7195213850218415
-1165.7212295532227,2116.0,-2204.0,16708.0,-1409.0,597.0,-2481.0,0.4990387404285778,0.2292793532595124,0.17614290759938434,-0.8169241028533759
-1165.7368607521057,2292.0,-2904.0,16256.0,-1196.0,232.0,-1747.0,0.3882098557846638,0.16380885854434574,0.3012259861690866,-0.8554078974328623
-1165.7524614334106,2472.0,-3176.0,15380.0,-842.0,-416.0,-914.0,0.3407240527717955,0.07947218218265892,0.36054804911925137,-0.8646365689688302
-1165.7680757045746,2728.0,-3136.0,14960.0,-553.0,-1147.0,-41.0,0.37524177083931387,-0.024816286663511676,0.3659933147251893,-0.8512500566285319
-1165.7836604118347,3096.0,-2720.0,14340.0,-164.0,-1910.0,988.0,0.5005111649081809,-0.13819432749185942,0.3120418959437148,-0.7956260156802192
-1165.7992765903473,3856.0,-2484.0,14468.0,177.0,-2489.0,2003.0,0.6833758124052542,-0.23960082752448145,0.2069917559544164,-0.6578323155911009
-1165.814876794815,4560.0,-2628.0,14948.0,264.0,-2784.0,3068.0,0.8606105588646084,-0.3085665246147405,0.08431310356577124,-0.39626691310912493
-1165.8304946422577,4532.0,-2856.0,14924.0,1175.0,-3066.0,3840.0,0.9585979355930546,-0.27257804086863446,-0.07631950390401177,-0.031089272053173432
-1165.8461241722107,4088.0,-3000.0,15076.0,1891.0,-2637.0,4835.0,0.8907554806730312,-0.1367996275981752,-0.16682038928476725,0.4000143663155564
-1165.861720085144,2808.0,-2448.0,15864.0,2142.0,-2548.0,5086.0,0.6198891812001156,0.03965686976974007,-0.2025191343534482,0.7570671938024036
-1165.8773546218872,2160.0,-1520.0,16424.0,2095.0,-2429.0,4885.0,0.2200082272720567,0.202315859592629,-0.18896159996424453,0.9353919962394671
-1165.8929574489594,1980.0,-464.0,17468.0,1719.0,-1975.0,4304.0,-0.17785062415668426,0.2978771215871507,-0.14861324914965002,0.9260412939492578
-1165.9085583686829,1952.0,380.0,18548.0,1257.0,-1393.0,3352.0,-0.47363067605783943,0.32925480796959244,-0.10656525846273254,0.809882151806466
-1165.9242494106293,1848.0,572.0,18416.0,677.0,-1520.0,2116.0,-0.6394320787089466,0.37850688778050895,-0.055070488044826074,0.6669530672897258
-1165.9399783611298,1732.0,316.0,17208.0,686.0,-1474.0,1497.0,-0.7426999691341367,0.4110303441548531,0.01741895374745177,0.5283440092235734
-1165.9555912017822,1564.0,-584.0,15820.0,962.0,-1929.0,1131.0,-0.8084749562599057,0.42953485035089356,0.1430733079083198,0.37602936853223357
-1165.9712235927582,1716.0,-1516.0,15104.0,1136.0,-2456.0,1280.0,-0.834501514301901,0.4312920909327248,0.2957013316474726,0.17365217357874746
-1165.9868290424347,2288.0,-2452.0,14576.0,1443.0,-2795.0,2511.0,-0.8065436122590068,0.4087253224392816,0.40242446518886166,-0.1431277825530632
-1166.0024585723877,2716.0,-2916.0,14512.0,1553.0,-3122.0,3314.0,-0.655552085393856,0.347300475719443,0.4466941697146933,-0.500098152009899
-1166.0180563926697,2780.0,-2860.0,14692.0,1454.0,-3351.0,3731.0,-0.3696205876595802,0.23947063540213073,0.42016742450142935,-0.7934064351554769
-1166.033703804016,3068.0,-2128.0,15788.0,1260.0,-3568.0,3953.0,0.007752214181873968,0.08712711491256325,0.3295776550299683,-0.9400677307126538
-1166.0493550300598,3140.0,-1200.0,17120.0,1104.0,-3632.0,3769.0,0.37426227614613045,-0.09228523505584953,0.188150909026259,-0.9033329505100524
-1166.0649507045746,4236.0,-172.0,18048.0,1141.0,-3215.0,3393.0,0.6488272022543655,-0.23306869970014052,0.01862934726066406,-0.7241237396022174
-1166.08056473732,4604.0,540.0,18416.0,1173.0,-2358.0,2833.0,0.8106332942810356,-0.29449612813803056,-0.1246701429088551,-0.49051304588346084
-1166.0961372852325,4444.0,744.0,17592.0,1104.0,-1543.0,2281.0,0.8905666302938164,-0.29719941369923053,-0.21536881747137238,-0.268663093790221
-1166.111773967743,3620.0,516.0,17096.0,1081.0,-934.0,1677.0,0.9235427791566291,-0.26157703285030376,-0.2648772205387259,-0.09212083907868253
-1166.1274161338806,3384.0,-16.0,16792.0,1047.0,-464.0,1186.0,0.9366941279769877,-0.20600111366861695,-0.2805959199757805,0.03786266596088883
-1166.143036365509,3148.0,-344.0,16888.0,921.0,-127.0,1017.0,0.9400907213978538,-0.15389534689172782,-0.26754635513946906,0.14479159367284683
-1166.1586558818817,3220.0,-692.0,16568.0,877.0,70.0,299.0,0.9466896016651751,-0.0893313887768997,-0.2456919202983823,0.18823969129361628
-1166.1742386817932,3180.0,-1004.0,16256.0,921.0,97.0,746.0,0.9387136011117523,-0.03052460654317382,-0.2153205318365089,0.2674361457485383
-1166.1898260116577,3108.0,-664.0,15856.0,994.0,26.0,561.0,0.9242318847427288,0.039655580538101344,-0.18728252400086098,0.3303757169662389
-1166.2054057121277,3072.0,-388.0,15468.0,1031.0,-219.0,1020.0,0.8805450784871637,0.11149301322664948,-0.17700951721684974,0.4252967241448429
-1166.220993757248,3212.0,-328.0,15540.0,1012.0,-457.0,969.0,0.8209708500604855,0.18949741329879788,-0.18228007522096787,0.506824987428073
-1166.2366094589233,3600.0,-24.0,16104.0,865.0,-488.0,1043.0,0.7469551755573755,0.2542409017542274,-0.1945493857442327,0.582726407578882
-1166.2522506713867,3920.0,-52.0,16668.0,719.0,-241.0,881.0,0.6786825342625112,0.2966646834847341,-0.19212984834330712,0.6437904974721946
-1166.2679026126862,3968.0,100.0,16792.0,758.0,-18.0,579.0,0.624122592191168,0.33150006210892025,-0.16491097175814895,0.6880283934054918
-1166.2835025787354,3900.0,352.0,16480.0,407.0,-64.0,8.0,0.6106114873380932,0.3569438535660564,-0.14400455498861306,0.692103594178434
-1166.2990975379944,3984.0,296.0,16360.0,348.0,-196.0,-40.0,0.599415459605807,0.387368900107738,-0.1320389339476368,0.6879041807816348
-1166.3146979808807,3980.0,28.0,16252.0,327.0,-86.0,-223.0,0.6004411031729956,0.41173016299874077,-0.10925611258453613,0.6767657322592076
-1166.3302850723267,3908.0,-340.0,16192.0,351.0,118.0,-322.0,0.6074713098181784,0.4256142355127504,-0.07068680439121448,0.6669591486452838
-1166.3459157943726,3852.0,-768.0,16220.0,419.0,267.0,-209.0,0.6051021945082983,0.43287845377468437,-0.024363981718338725,0.6677379537316329
-1166.3615281581879,3540.0,-584.0,16128.0,418.0,376.0,-139.0,0.5974982175957585,0.4325686968575397,0.02503851350506352,0.6747245921932282
-1166.3771600723267,3548.0,-392.0,16048.0,398.0,416.0,-141.0,0.5891278672206463,0.427736441051493,0.07533163590641287,0.68139198534494
-1166.39275431633,3684.0,-172.0,16100.0,368.0,396.0,-166.0,0.5819974418056255,0.4213048926571594,0.12353766704752432,0.6844849231175963
-1166.4083366394043,3900.0,-140.0,16316.0,278.0,432.0,-244.0,0.5810241006811747,0.4063027390885559,0.17073919239654436,0.6842347600177476
-1166.4239358901978,4072.0,-92.0,16160.0,220.0,271.0,-345.0,0.5892917375070972,0.3956061777101629,0.20952601220850756,0.6725547193139173
-1166.4395644664764,4208.0,-120.0,16252.0,166.0,609.0,-532.0,0.60213613933631,0.35758928503117543,0.26811848478652567,0.6615696872226191
-1166.4551494121552,4084.0,-136.0,16236.0,68.0,553.0,-657.0,0.6232985524620054,0.3128486917865907,0.32053939814665605,0.6409985216690961
-1166.4707980155945,4016.0,-376.0,16372.0,-87.0,489.0,-719.0,0.6503827354802892,0.2597875219208059,0.3606766270092417,0.615974927714318
-1166.4864230155945,3812.0,-620.0,16020.0,-130.0,422.0,-889.0,0.6853332927953714,0.20090386575883223,0.3961239293940007,0.5770976928310038
-1166.502019405365,3676.0,-604.0,15960.0,-100.0,398.0,-1010.0,0.7210118646675551,0.1392718757339672,0.4304626880389982,0.5248305534593025
-1166.517611503601,3716.0,-456.0,15988.0,-59.0,361.0,-1141.0,0.7563858562454877,0.07571126522190934,0.4616336927578465,0.45721173924236946
-1166.5332467556,3780.0,-360.0,16008.0,-68.0,304.0,-1310.0,0.7915033621185443,0.00625630303095548,0.4841237050901317,0.3729712114858579
-1166.548874616623,3808.0,-308.0,15972.0,-82.0,266.0,-1556.0,0.8232594762235423,-0.07311630784425237,0.49580077777861803,0.26660725625811516
-1166.5644965171814,3636.0,-180.0,15980.0,-102.0,208.0,-1758.0,0.8445633257989378,-0.15944034617078862,0.49113129061349,0.14170963308365475
-1166.5800573825836,3364.0,-332.0,16048.0,-110.0,43.0,-1892.0,0.8530955856745837,-0.24580490544022793,0.46018313776430925,0.006272948386089611
-1166.595629453659,3648.0,-412.0,16024.0,-180.0,-102.0,-1908.0,0.8427330322561334,-0.3311191995620068,0.40573371597122326,-0.12466460504081164
-1166.6112744808197,3620.0,-632.0,16308.0,-236.0,-168.0,-1919.0,0.8095421879650182,-0.4123130223731292,0.33554165484208853,-0.2491008136321099
-1166.6268565654755,3668.0,-820.0,16164.0,-249.0,-271.0,-1767.0,0.7608022221552342,-0.48150807960101805,0.25492513406100276,-0.3526232040955007
-1166.6424584388733,3672.0,-876.0,16204.0,-212.0,-348.0,-1631.0,0.7019989626518041,-0.5367141228253864,0.167874171935977,-0.4369824586781226
-1166.6580464839935,3704.0,-804.0,16192.0,-213.0,-423.0,-1474.0,0.6362900007553827,-0.5820650016841197,0.08020859847022592,-0.49990193986883374
-1166.673639535904,3780.0,-776.0,16024.0,-242.0,-428.0,-1436.0,0.5595158823758801,-0.6186815318120445,-0.005963562966945882,-0.551488508928864
-1166.6892428398132,3744.0,-744.0,16072.0,-195.0,-424.0,-1399.0,0.47754813655300327,-0.6424434962606659,-0.09209698666529648,-0.5922265414807902
-1166.7048733234406,3808.0,-640.0,16184.0,-163.0,-476.0,-1528.0,0.38190850795676745,-0.6550030438583336,-0.18735779420851637,-0.624510977514305
-1166.7205035686493,3748.0,-524.0,16252.0,-83.0,-440.0,-1243.0,0.3002738654970168,-0.6569571455200659,-0.266774362757983,-0.6380237879771244
-1166.7361118793488,3764.0,-560.0,16076.0,-49.0,-433.0,-1026.0,0.22920790960935375,-0.6552700560335204,-0.332619131261,-0.638317633594369
-1166.751737833023,3624.0,-652.0,16332.0,-44.0,-441.0,-1204.0,0.14593273343186686,-0.641669379061466,-0.4052763080921496,-0.6345984237194208
-1166.7673287391663,3616.0,-684.0,16144.0,-57.0,-259.0,-1059.0,0.07461137203322342,-0.6164155390609241,-0.4625839359651634,-0.6328357832443802
-1166.7829194068909,3592.0,-636.0,16112.0,-91.0,-673.0,-974.0,-0.01117958613980507,-0.611522666294703,-0.5115512303655896,-0.603515023982843
-1166.7985711097717,3680.0,-656.0,15912.0,-167.0,-740.0,-837.0,-0.09674935718621507,-0.6099653331895656,-0.5440175673759498,-0.5680024124749388
-1166.8141632080078,3728.0,-684.0,16140.0,-139.0,-695.0,-760.0,-0.17412053377678752,-0.6046396848616432,-0.5693329789747219,-0.529105708020116
-1166.8297834396362,3796.0,-644.0,16380.0,-110.0,-668.0,-682.0,-0.24377836097224992,-0.5977945943934619,-0.5879812019671732,-0.4873313449480525
-1166.8454027175903,3864.0,-504.0,16276.0,-42.0,-572.0,-625.0,-0.3011131387993098,-0.5875177694736512,-0.6049328217743414,-0.44520784958855575
-1166.860996723175,3972.0,-456.0,16092.0,-25.0,-481.0,-575.0,-0.34942287533468996,-0.5739356297774864,-0.6194342556292648,-0.40595904968084723
-1166.8765890598297,4032.0,-600.0,16072.0,19.0,-405.0,-487.0,-0.3870731216520173,-0.5616519901273396,-0.6311418637913835,-0.3692985083242284
-1166.8921706676483,3968.0,-668.0,16152.0,70.0,-390.0,-420.0,-0.41817990576960024,-0.5527261567785795,-0.6399547722105762,-0.3317789196863162
-1166.9077966213226,3912.0,-704.0,16136.0,88.0,-372.0,-334.0,-0.4440015567199887,-0.5474950933156738,-0.6443619843439018,-0.29649514929907
-1166.9234836101532,3872.0,-752.0,16192.0,115.0,-332.0,-312.0,-0.4649175282952318,-0.5425180417105212,-0.6487924338749411,-0.26190502868227566
-1166.9391810894012,3992.0,-740.0,16192.0,170.0,-280.0,-237.0,-0.4779021566526908,-0.5420382487464289,-0.6520900885204918,-0.22930892266972247
-1166.954820394516,4012.0,-568.0,16280.0,174.0,-231.0,-120.0,-0.4850987893549261,-0.5468658168370726,-0.6513284253646108,-0.20344096257529584
-1166.970440864563,3908.0,-584.0,16152.0,196.0,-149.0,-54.0,-0.48511677508505474,-0.5545870170588647,-0.650878930168179,-0.18289771268103272
-1166.9860682487488,3880.0,-592.0,16008.0,219.0,-198.0,38.0,-0.48505562385220485,-0.5689696135731174,-0.6438942590318736,-0.16246477706136866
-1167.0016686916351,3908.0,-516.0,16012.0,153.0,-265.0,140.0,-0.4902163560059953,-0.5868021341846037,-0.627580876194366,-0.14660635544105635
-1167.017346382141,3968.0,-520.0,16060.0,166.0,-274.0,223.0,-0.49364623112086015,-0.6092544793365009,-0.6061674169845771,-0.1329790979621438
-1167.0329158306122,3936.0,-276.0,16180.0,197.0,-313.0,203.0,-0.49710229334409833,-0.6316679819946144,-0.5837366666129686,-0.11461402412649747
-1167.0485258102417,4008.0,-472.0,16100.0,187.0,-9.0,273.0,-0.4843811025234654,-0.6534880724087309,-0.5698900569639902,-0.11641997127320272
-1167.064148426056,4000.0,-268.0,16176.0,205.0,-213.0,224.0,-0.48081853107931555,-0.6750877862106408,-0.5498664439607376,-0.10352253322788402
-1167.0797975063324,3940.0,-760.0,16208.0,174.0,-233.0,324.0,-0.47853766903406514,-0.6995202639823139,-0.5221569965106353,-0.09500089783022951
-1167.0953586101532,3940.0,-536.0,16036.0,163.0,-253.0,236.0,-0.4779560478775021,-0.7187599721499495,-0.49822056730879166,-0.08196575530566624
-1167.110966205597,3960.0,-500.0,16036.0,125.0,-242.0,260.0,-0.478582882453478,-0.736591829545792,-0.4724197356330167,-0.07218375615977536
-1167.1266272068024,4060.0,-384.0,16068.0,168.0,-182.0,0.0,-0.47523965807033736,-0.7445579525195873,-0.4657370822644348,-0.05356951503271204
-1167.1422545909882,3852.0,-424.0,16012.0,162.0,-162.0,226.0,-0.47011910870854384,-0.7608988437182346,-0.4448819554557341,-0.04583687342326424
-1167.1578509807587,4068.0,-408.0,15936.0,134.0,-204.0,103.0,-0.46866740820854974,-0.7709832188274913,-0.43006321304683703,-0.031326818435840315
-1167.1734499931335,4220.0,-508.0,15976.0,62.0,-293.0,67.0,-0.47520388109977746,-0.7765325398837833,-0.41356199543787586,-0.012040009086023795
-1167.1890358924866,4204.0,-564.0,16104.0,100.0,-279.0,21.0,-0.47837927709080724,-0.7814430940004956,-0.4005097122018054,0.009587936224039854
-1167.2046945095062,4256.0,-488.0,16176.0,71.0,-10.0,-66.0,-0.4738792592079269,-0.7820371983555818,-0.4044951303501407,0.015490564990388202
-1167.220287322998,4252.0,-416.0,16176.0,73.0,-155.0,-127.0,-0.4741804336572357,-0.7802016560559221,-0.4065591951117459,0.03388086619792729
-1167.2359235286713,4048.0,-500.0,16140.0,81.0,-115.0,-152.0,-0.4722843251551202,-0.7776663425211111,-0.41182026694174756,0.050859056800519165
-1167.2515106201172,3996.0,-268.0,16052.0,93.0,-177.0,-167.0,-0.4715371718300804,-0.7744844003599516,-0.41531522910361235,0.07307441177450097
-1167.2671265602112,4008.0,-572.0,15988.0,76.0,-196.0,-199.0,-0.47215003934368804,-0.7688758597464681,-0.4200588448885601,0.09723589603521865
-1167.2827382087708,4088.0,-536.0,16008.0,46.0,-264.0,-176.0,-0.4771276333180904,-0.7617517249699077,-0.4204114124687959,0.1238457722154453
-1167.2983484268188,4064.0,-476.0,15988.0,-19.0,-334.0,-214.0,-0.4881079883724318,-0.7490164770629927,-0.4206577829903278,0.1541815111640291
-1167.313993692398,4000.0,-768.0,15932.0,-17.0,-384.0,-287.0,-0.49908694413664695,-0.7319108911819151,-0.42289322480577846,0.19073539255997513
-1167.3295922279358,3976.0,-484.0,15944.0,-12.0,-433.0,-230.0,-0.5116093214313499,-0.7149963301467303,-0.4185103909400201,0.22778323638163797
-1167.345216035843,4020.0,-432.0,16364.0,-64.0,-459.0,-505.0,-0.5214698491265125,-0.6832981360555992,-0.4300015028109132,0.27617306402919184
-1167.3608083724976,4164.0,-564.0,16152.0,-79.0,-378.0,-208.0,-0.5350355699364266,-0.6622495241891,-0.4267561921501579,0.3050273087374494
-1167.3764095306396,4168.0,-656.0,16356.0,-81.0,-284.0,-207.0,-0.5445896107861389,-0.6428224301900965,-0.42736329084366015,0.32796660913510256
-1167.3920509815216,4176.0,-600.0,16100.0,-97.0,-248.0,-257.0,-0.5517133565465482,-0.6211433802536025,-0.43250224360342004,0.3503356713971302
-1167.4076435565948,4132.0,-572.0,16044.0,-109.0,-215.0,-262.0,-0.5575341909531918,-0.5990780541319511,-0.4394270293630884,0.3703579307113267
-1167.4232676029205,4136.0,-500.0,16104.0,-105.0,-162.0,-341.0,-0.5579645325509572,-0.5752509412009429,-0.45245340212519886,0.39121331005981164
-1167.438873052597,4144.0,-524.0,16180.0,-85.0,-126.0,-386.0,-0.5537397842900392,-0.5511366681738842,-0.4682399156950485,0.41276143913706903
-1167.454484462738,4348.0,-624.0,16264.0,-58.0,-30.0,-339.0,-0.5453680698105885,-0.5330887819035384,-0.4849110356920129,0.42807862187193413
-1167.4700934886932,4132.0,-660.0,16104.0,-47.0,19.0,-290.0,-0.5358094826879938,-0.5190493940503509,-0.5008422722483281,0.4389224796324742
-1167.4857025146484,4108.0,-700.0,16048.0,-46.0,22.0,-247.0,-0.5274103709865017,-0.5067551368343206,-0.514640375613591,0.4474179429305576
-1167.5013716220856,4012.0,-724.0,16200.0,-19.0,16.0,-200.0,-0.5197088118514412,-0.4973801473217863,-0.5248241691295452,0.45505530590424276
-1167.5169696807861,4044.0,-636.0,16072.0,71.0,9.0,-167.0,-0.5095830638676819,-0.493183798003583,-0.5295346703437906,0.4654974493054499
-1167.5325727462769,4120.0,-620.0,16148.0,54.0,27.0,-170.0,-0.49910574317665185,-0.48870263484333226,-0.5357323004462942,0.47439866576940143
-1167.548174381256,4108.0,-608.0,16324.0,38.0,89.0,-103.0,-0.4890838182444815,-0.4891290243566767,-0.5423279257898765,0.47689646378614997
-1167.5638127326965,4140.0,-708.0,15984.0,61.0,101.0,-81.0,-0.47835007931434953,-0.49200532791613105,-0.5474573048957353,0.47895976682639413
-1167.579428911209,4032.0,-692.0,16004.0,46.0,73.0,-96.0,-0.46890242225809814,-0.4923007565216003,-0.5526124097059539,0.48206846834005546
-1167.5950033664703,4064.0,-640.0,16024.0,103.0,4.0,-105.0,-0.45988496349377794,-0.4915218024272485,-0.5528510962871429,0.49119019068493164
-1167.6105635166168,3904.0,-624.0,16084.0,86.0,27.0,-118.0,-0.44985198351902506,-0.4903380063859381,-0.5552062523555398,0.49894674040700904
-1167.6261632442474,4140.0,-604.0,15872.0,90.0,124.0,-100.0,-0.4356343241058223,-0.4943063629711345,-0.5603084474570347,0.5019346560015553
-1167.6418206691742,4188.0,-616.0,16320.0,142.0,189.0,-150.0,-0.41362053004669813,-0.5004459154368834,-0.5675228497433252,0.5063494424462648
-1167.6574184894562,4176.0,-604.0,16176.0,170.0,209.0,-109.0,-0.39094614665705124,-0.5102045294832169,-0.5720814346204486,0.5094853095737127
-1167.6730043888092,4132.0,-696.0,15912.0,167.0,214.0,-122.0,-0.3673173952556252,-0.5191018354054143,-0.5771485019455442,0.5123580996952884
-1167.6886546611786,4264.0,-660.0,16192.0,220.0,2.0,17.0,-0.3579827766118688,-0.5269534722089234,-0.5664516820877387,0.5227818489926631
-1167.7042589187622,4248.0,-548.0,16196.0,265.0,216.0,0.0,-0.33500411510078776,-0.5447984486598858,-0.5608135490053091,0.525789935673354
-1167.7199220657349,4256.0,-260.0,15996.0,244.0,9.0,-24.0,-0.32182224666039866,-0.5509959162423514,-0.5508492714578068,0.5379581972357225
-1167.7355298995972,4564.0,-500.0,16000.0,268.0,374.0,88.0,-0.29486902898604356,-0.5797850420311967,-0.5440433685598693,0.5300173335917814
-1167.751136302948,4352.0,-456.0,16076.0,380.0,426.0,176.0,-0.26322267817036044,-0.6167499582330107,-0.5277670188447182,0.5213398934823243
-1167.7667694091797,4248.0,-412.0,16012.0,414.0,425.0,150.0,-0.22788294938337503,-0.6515423410028739,-0.5098584907248593,0.5134260011886789
-1167.7823884487152,4160.0,-340.0,16000.0,376.0,381.0,74.0,-0.19266594515167468,-0.6785963180852356,-0.49579986677862914,0.5065267641124871
-1167.7980082035065,4208.0,-204.0,16008.0,293.0,376.0,40.0,-0.16068304829293897,-0.7012321529056986,-0.4863528265179543,0.49589853181928695
-1167.8136060237885,4316.0,-84.0,16196.0,291.0,484.0,-46.0,-0.12019703636291547,-0.7233945282111446,-0.48275184310365016,0.47875221877687035
-1167.8291935920715,4260.0,-16.0,16248.0,259.0,575.0,-103.0,-0.07519667833118253,-0.7446147515405264,-0.48369835364601615,0.4537953658162791
-1167.8447864055634,4208.0,-252.0,15996.0,273.0,689.0,243.0,-0.037896876406996786,-0.782124992402143,-0.46053460716051225,0.418033729053115
-1167.8603842258453,4120.0,-328.0,16124.0,357.0,574.0,204.0,0.002111144495508745,-0.8108930771453542,-0.4346455738461692,0.39183055731092786
-1167.8760061264038,4312.0,-392.0,15820.0,319.0,457.0,244.0,0.03365127915552496,-0.8345283543153826,-0.4058018100429001,0.37115348337414533
-1167.891610622406,4096.0,-344.0,15664.0,156.0,317.0,278.0,0.0472187304935851,-0.8535141025978533,-0.37926900559912397,0.354173812624546
-1167.9072823524475,3984.0,-200.0,15736.0,52.0,197.0,282.0,0.048891546792743316,-0.8683106049740815,-0.3556719565151181,0.34226271969127114
-1167.9229481220245,4012.0,-164.0,15776.0,-63.0,105.0,239.0,0.040241376314076684,-0.8788810405838507,-0.33889549240917916,0.3333145561767988
-1167.938669681549,4076.0,-84.0,16012.0,-79.0,20.0,100.0,0.03187501779525528,-0.8826292679815227,-0.3334291736442823,0.32980986144420327
-1167.95427942276,3864.0,-156.0,16036.0,-80.0,10.0,136.0,0.022097620651459718,-0.8870004139190781,-0.32519345585007314,0.32709505826474167
-1167.969874382019,4216.0,-196.0,16064.0,-115.0,45.0,225.0,0.008055964785548637,-0.8946575370021449,-0.3108894266809393,0.32073471482617316
-1167.9856266975403,4172.0,-356.0,15968.0,19.0,-8.0,466.0,-0.003711420513506384,-0.9063041138817955,-0.2737411894226011,0.32197024665674473
-1168.001383304596,4272.0,-616.0,16036.0,-29.0,-120.0,694.0,-0.028316950226824383,-0.9177581931984744,-0.21919600073239104,0.32995630378862123
-1168.0170176029205,4264.0,-728.0,16052.0,-82.0,-159.0,944.0,-0.06488770312990468,-0.9277688682227981,-0.14502585832064796,0.3376418421307896
-1168.0326602458954,4308.0,-692.0,16048.0,-106.0,-229.0,1246.0,-0.1124108464037248,-0.9304672087814326,-0.04565853637834472,0.3457020003544603
-1168.0482850074768,4284.0,-684.0,15948.0,-114.0,-246.0,1383.0,-0.1631712705866211,-0.9204808028437882,0.06515987834600477,0.3490621983331007
-1168.0639214515686,4252.0,-544.0,16004.0,-186.0,-297.0,1519.0,-0.22070512380175428,-0.8918997861459389,0.18408438531716673,0.34916609068304666
-1168.079511165619,4236.0,-724.0,15972.0,-281.0,-139.0,1690.0,-0.2886669788103497,-0.8455995551379178,0.30634860802199176,0.32830366744532175
-1168.0951142311096,4240.0,-980.0,16020.0,-393.0,130.0,1845.0,-0.3690843303151673,-0.7795020130633062,0.42228339480165533,0.2789804710384704
-1168.1106925010681,3992.0,-1088.0,15832.0,-345.0,332.0,1863.0,-0.44401578677021514,-0.6979853686092075,0.5226285254792009,0.2062179203215174
-1168.1262781620026,3664.0,-972.0,15676.0,-305.0,386.0,1764.0,-0.505619052498026,-0.6049082242536616,0.6019938227194265,0.12664458689155167
-1168.141891002655,3528.0,-864.0,15536.0,-297.0,582.0,1457.0,-0.5626375623470259,-0.5166230355134978,0.6437026870927552,0.04675963261812913
-1168.1575150489807,3228.0,-668.0,15460.0,-123.0,865.0,958.0,-0.6168515001659409,-0.457308427974019,0.6397865363237152,-0.03219342146872868
-1168.173138141632,2816.0,-504.0,15220.0,349.0,951.0,237.0,-0.6527750587302623,-0.45824833630975426,0.5945482486567233,-0.10200767122264809
-1168.188729763031,2596.0,-428.0,15100.0,857.0,729.0,-663.0,-0.6580713460816549,-0.5314920623959505,0.5154486248487928,-0.13700732176736488
-1168.2043402194977,3336.0,-84.0,15324.0,1174.0,371.0,-1446.0,-0.6291110315700934,-0.6506022663932367,0.40739128413333053,-0.12234517780849812
-1168.2199671268463,4376.0,104.0,16120.0,1156.0,498.0,-1803.0,-0.5897634174340963,-0.7589547673778481,0.26051377068080817,-0.09110075639949193
-1168.235565662384,5576.0,-184.0,16836.0,984.0,227.0,-2036.0,-0.5355863325789705,-0.8377179959646974,0.10408386550774923,-0.023289236407924938
-1168.2512595653534,6284.0,-544.0,17244.0,1018.0,275.0,-1377.0,-0.46127079234385837,-0.8871108776597557,-0.011395503977166647,0.011562411396997888
-1168.2668571472168,6104.0,-1252.0,16956.0,1199.0,290.0,-707.0,-0.3646898229217041,-0.9278348468668571,-0.07601363158728945,0.01859456398530959
-1168.282442331314,5288.0,-1644.0,16180.0,1134.0,239.0,54.0,-0.270011808910811,-0.9597599992366556,-0.07700279474404426,0.004993647521949365
-1168.2980399131775,4380.0,-1860.0,15564.0,856.0,2.0,700.0,-0.19769989413036862,-0.9800805979298532,-0.01793899221320288,-0.0059132039265594955
-1168.3136341571808,4284.0,-1840.0,15736.0,601.0,-278.0,1132.0,-0.14520552066094244,-0.9859253291753951,0.08286164290932069,-0.0007417508623101259
-1168.3291971683502,4460.0,-1428.0,16140.0,388.0,-391.0,1773.0,-0.10748439905063129,-0.965443718445606,0.23729549397381064,0.007508596031975948
-1168.3448660373688,4488.0,-1016.0,16624.0,112.0,-307.0,1829.0,-0.09170403775511894,-0.9164282559866075,0.3893095383811768,0.01370052605514651
-1168.3604974746704,4244.0,-828.0,16088.0,-18.0,-415.0,1956.0,-0.0801865499466404,-0.8366604661400691,0.5409121054004239,0.03136041832020027
-1168.376085281372,4120.0,-1240.0,15448.0,5.0,-844.0,2102.0,-0.04487341747313675,-0.7211662134656294,0.6870553640398523,0.07655452765182451
-1168.3917002677917,4036.0,-1632.0,15148.0,143.0,-1344.0,2212.0,0.029201127219252363,-0.5657709664114582,0.8120024392639535,0.1403657592305162
-1168.407282590866,4408.0,-1952.0,15176.0,172.0,-1615.0,2304.0,0.1203437674570029,-0.3711537575713696,0.8970267257772429,0.20761820516579715
-1168.4228692054749,4812.0,-1924.0,15520.0,195.0,-1598.0,2894.0,0.19150299422824135,-0.109056099614876,0.939081125924544,0.26374231604105436
-1168.4384694099426,5032.0,-1548.0,15660.0,270.0,-1482.0,2964.0,0.23752635108051476,0.16572477578718356,0.911125960722664,0.2931996161830132
-1168.4540882110596,4992.0,-1112.0,15656.0,327.0,-1597.0,2825.0,0.27653162823032895,0.4213294762501781,0.8131726453332255,0.29113910749467886
-1168.469684123993,4820.0,-876.0,15348.0,346.0,-1729.0,2614.0,0.30864575561285346,0.635542069363965,0.6595309849357843,0.2565988221336456
-1168.485347032547,4664.0,-888.0,15292.0,262.0,-1830.0,2521.0,0.3309260432611155,0.7994893571939787,0.45940448876091644,0.20062960233081695
-1168.500939130783,5104.0,-796.0,14880.0,703.0,-2000.0,2484.0,0.306393753562073,0.9178629173651334,0.2313410060121518,0.10065719865660668
-1168.516539812088,5048.0,-1368.0,15088.0,939.0,-2182.0,2521.0,0.24227285216161024,0.9696930766011388,-0.0198874709570108,-0.0245701199881183
-1168.5321462154388,5144.0,-1508.0,15216.0,1064.0,-2451.0,2419.0,0.14610992352776578,0.9374294539990894,-0.2659284685977359,-0.17076287246044622
-1168.547798871994,5324.0,-1560.0,15356.0,1137.0,-2658.0,2470.0,0.026769531071515824,0.8114324038208189,-0.4924884267241793,-0.3135538163992288
-1168.563405752182,5516.0,-1564.0,15524.0,1122.0,-2871.0,2465.0,-0.10272572535049712,0.5951498385119283,-0.666084357105991,-0.43769364204788125
-1168.5789713859558,5592.0,-1300.0,15496.0,1089.0,-2819.0,2618.0,-0.21071826187116152,0.3072487670619165,-0.7726935036361161,-0.5139462605092792
-1168.5946230888367,5752.0,-1280.0,15492.0,1132.0,-3066.0,2869.0,-0.29839687089706396,-0.04176641944059353,-0.7890398651961938,-0.5353792718971528
-1168.6102137565613,5724.0,-1200.0,14896.0,1187.0,-2928.0,3088.0,-0.32789921592386995,-0.39395559840505534,-0.7062202045762161,-0.4883995427210734
-1168.625785112381,5692.0,-1368.0,15040.0,1332.0,-3090.0,3174.0,-0.3127497598915977,-0.7042426471393909,-0.5242232782056098,-0.3625187391366342
-1168.6413776874542,5948.0,-1868.0,15292.0,1446.0,-3156.0,3323.0,-0.24265553778164914,-0.9181350074611935,-0.2577389209695885,-0.17809280354793938
-1168.656975030899,6280.0,-1876.0,15588.0,1505.0,-3040.0,3267.0,-0.12916970884090584,-0.990351327390407,0.04172928462967994,0.02789447003098614
-1168.6725580692291,6464.0,-1344.0,15396.0,1512.0,-2865.0,3303.0,0.0036398432538134583,-0.9164754620588471,0.3368425629474794,0.2158623792421544
-1168.6881761550903,6560.0,-1040.0,15352.0,1334.0,-2850.0,3440.0,0.11979873634721622,-0.7050396205165007,0.5893496848626162,0.37581158207789905
-1168.7038598060608,6464.0,-1364.0,14964.0,1167.0,-2792.0,3332.0,0.21030444578289964,-0.40003010581426046,0.7478405680991764,0.4862946012771273
-1168.7194621562958,6340.0,-1868.0,14604.0,1109.0,-2841.0,3773.0,0.2526181827486015,-0.011724144542046091,0.8052436386104108,0.5363108060229792
-1168.73508810997,6392.0,-1992.0,14616.0,1053.0,-2971.0,3847.0,0.25907262638158535,0.3861972235273362,0.727314293994344,0.5047246740065646
-1168.7507138252258,6244.0,-1992.0,14784.0,769.0,-3021.0,3888.0,0.23259462684422183,0.7184950743659234,0.5151095368006138,0.40537233843981063
-1168.766306400299,6380.0,-1696.0,14364.0,965.0,-3116.0,4018.0,0.1549275488144075,0.9377526399836342,0.21319353885232137,0.2261989297359903
-1168.7819344997406,6884.0,-1644.0,14732.0,833.0,-2976.0,3983.0,0.05810321401113303,0.9902551896442102,-0.1250947550602306,0.01923481636789392
-1168.7975318431854,7388.0,-1464.0,14924.0,810.0,-2785.0,3871.0,-0.04497801263751902,0.881418682963177,-0.4352790724674767,-0.1777926116982676
-1168.8131546974182,7812.0,-1480.0,14628.0,700.0,-2592.0,3524.0,-0.1330295664587419,0.6571107708136577,-0.6595152830104367,-0.33992375733999997
-1168.8287463188171,8488.0,-1796.0,14984.0,807.0,-1881.0,3130.0,-0.18511927784252832,0.3913826226062959,-0.7996235236938072,-0.41611622901345474
-1168.8443777561188,8480.0,-1912.0,15132.0,1095.0,-1256.0,2646.0,-0.20652865762973777,0.13828668028313074,-0.8773881401501256,-0.41038123636179263
-1168.8600084781647,8316.0,-2036.0,14812.0,1419.0,-201.0,2395.0,-0.1488925190746306,-0.07573615660623483,-0.9263910926683255,-0.33748273403377604
-1168.8756155967712,8544.0,-2368.0,14348.0,1859.0,1001.0,2931.0,0.0292968206296463,-0.2932172042705693,-0.9296500194680716,-0.22117009002973206
-1168.8912723064423,7184.0,-2056.0,14084.0,2047.0,1394.0,2689.0,0.235100737536419,-0.45660663931369094,-0.8543134232857337,-0.07991617444735387
-1168.90687251091,7004.0,-1956.0,13164.0,2214.0,971.0,2369.0,0.39546081285368445,-0.5572372964238715,-0.7244178047104723,0.0911931202985033
-1168.9225432872772,6756.0,-1784.0,14000.0,2195.0,702.0,1753.0,0.5165133492648816,-0.5796362268175262,-0.5791912660234573,0.2485423142124099
-1168.9381754398346,4780.0,-172.0,19416.0,741.0,558.0,-820.0,0.596622409911221,-0.5138189463495562,-0.5760501753871861,0.21954039673907602
-1168.9538660049438,6144.0,3472.0,23056.0,-655.0,1829.0,-2142.0,0.6790551491148795,-0.4607448763501116,-0.5714476362138488,-0.006772181575676903
-1168.969521522522,5396.0,4964.0,22280.0,-2353.0,2947.0,-3653.0,0.663031260936958,-0.37832510575461686,-0.49292250496617324,-0.417477023887517
-1168.9851558208466,4480.0,3616.0,20464.0,-2832.0,2627.0,-4395.0,0.4652665616158076,-0.22911623039654305,-0.3408265259824852,-0.7841365052067097
-1169.0007593631744,4984.0,548.0,16660.0,-2475.0,1775.0,-4598.0,0.13869962443360503,-0.06420620362435785,-0.17216852777144745,-0.9731382099389259
-1169.0163526535034,4820.0,-2796.0,15132.0,-1142.0,247.0,-3044.0,-0.11779072000817294,-0.011005705807399603,-0.08556364064862206,-0.9892841270932182
-1169.0319831371307,5620.0,-4208.0,15824.0,-204.0,-1066.0,-430.0,-0.16221218639327248,-0.09739922813876942,-0.05683561083826576,-0.9802909314505195
-1169.047593832016,6832.0,-5012.0,17644.0,-31.0,-1009.0,2044.0,0.007271719176443903,-0.18978780295696965,-0.02178592476189936,-0.9815564606436321
-1169.0632238388062,7096.0,-4768.0,18952.0,-927.0,248.0,2934.0,0.235371675633859,-0.16866519711462963,0.1030158923219166,-0.9515986294235148
-1169.0788168907166,6656.0,-2544.0,18956.0,-1164.0,1752.0,3140.0,0.43992441525475434,-0.017934224258908896,0.26742186570416676,-0.8571058383923752
-1169.0944650173187,5852.0,964.0,17740.0,-942.0,2566.0,2995.0,0.5681257133267261,0.19578291675787765,0.4156094598744964,-0.6827671639919468
-1169.110048532486,4484.0,3232.0,16160.0,-969.0,3262.0,2270.0,0.5666953284840539,0.39972254361767223,0.5614655589876469,-0.4514805852623758
-1169.1256501674652,3260.0,2856.0,14796.0,-1028.0,3388.0,1508.0,0.47022491040658765,0.5273202568775381,0.6795731420135529,-0.1974898097967372
-1169.1412250995636,2200.0,1788.0,14868.0,-877.0,3009.0,527.0,0.32883548717836514,0.5535395506702285,0.7650238798428209,0.01412980842779252
-1169.1568849086761,2148.0,584.0,15664.0,-514.0,2700.0,125.0,0.16846195913761183,0.528761668272492,0.8127321270638016,0.17747719889483646
-1169.1725075244904,2428.0,156.0,16244.0,-225.0,2367.0,65.0,0.00971798380537132,0.4830856319022191,0.823479645142695,0.2973467791587011
-1169.188105583191,2524.0,16.0,16020.0,-203.0,1929.0,69.0,-0.12047181604954744,0.4316429622952029,0.805436533952045,0.38786967452233556
-1169.203735113144,2736.0,380.0,15496.0,-293.0,1430.0,-29.0,-0.20734531053536398,0.38116839887913617,0.775260433777823,0.4590096226807569
-1169.2193291187286,3432.0,584.0,15320.0,-305.0,1442.0,-503.0,-0.2721707997720649,0.2921602554379636,0.7467473851597104,0.5319152034403545
-1169.234923362732,3916.0,244.0,15468.0,-24.0,1718.0,-1018.0,-0.3313385068345116,0.14440365380921028,0.7198368839076675,0.5926189663024002
-1169.2505612373352,4056.0,-712.0,15532.0,343.0,1795.0,-1408.0,-0.3682919292382855,-0.04592273985754284,0.6894644527080372,0.6220055669155421
-1169.2661604881287,3776.0,-972.0,15352.0,561.0,2182.0,-1471.0,-0.4065104070267793,-0.2637510396546617,0.6267150733411613,0.6102564173419155
-1169.2817921638489,3264.0,-1284.0,14844.0,577.0,2185.0,-1410.0,-0.42635600073905716,-0.4652827861345912,0.5331429628671333,0.5634634599562637
-1169.2973763942719,3216.0,-1224.0,14432.0,311.0,1967.0,-1358.0,-0.42915626794357636,-0.6230882455775588,0.4110202035042026,0.5085748010068772
-1169.3129687309265,3032.0,-1256.0,14380.0,159.0,1781.0,-1313.0,-0.418421494166876,-0.7413783798174144,0.27480708991898173,0.4469481116289959
-1169.3285496234894,2736.0,-1208.0,14476.0,21.0,1053.0,-1077.0,-0.3969549083076368,-0.802099320577437,0.16602167434271758,0.4141259281283055
-1169.344138622284,2948.0,-956.0,15256.0,-83.0,633.0,-632.0,-0.3879663806483488,-0.8286680691349804,0.09653519269983935,0.39175537680181055
-1169.3598048686981,3084.0,-644.0,15892.0,-235.0,446.0,-259.0,-0.39944087079055884,-0.8370695654081599,0.05459322287325345,0.36983930757260763
-1169.3754291534424,3372.0,-520.0,15912.0,-399.0,399.0,93.0,-0.43302473873597,-0.8345059366588744,0.03455658087413088,0.33896203333416186
-1169.39102101326,3160.0,-584.0,15892.0,-496.0,329.0,254.0,-0.4769721370307303,-0.8233599402647698,0.025911912417227654,0.30643851268796946
-1169.4066491127014,3224.0,-736.0,16304.0,-725.0,5.0,135.0,-0.5316743908569993,-0.7913039330249754,0.015987037110628825,0.3015042990248518
-1169.4222528934479,3396.0,-820.0,16756.0,-955.0,573.0,-194.0,-0.5905456129193933,-0.7585768740961768,-0.04889516270029126,0.27097281821733216
-1169.4378530979156,3480.0,-536.0,16876.0,-955.0,1194.0,-524.0,-0.6301410936287827,-0.7280628647963042,-0.16607121755494186,0.21276047030578676
-1169.453500509262,3484.0,-540.0,17180.0,-864.0,1784.0,-1378.0,-0.620073643449126,-0.6787110918218657,-0.35989417747045027,0.1591732124465832
-1169.4691352844238,3452.0,-368.0,17120.0,-611.0,2149.0,-1667.0,-0.5496543567821272,-0.6054077076502197,-0.566890870177282,0.09998168281128578
-1169.4847371578217,3428.0,-408.0,16784.0,-268.0,2085.0,-1732.0,-0.43351926454419043,-0.5107696843655727,-0.7401410645411787,0.05802224902577166
-1169.5003287792206,3548.0,-904.0,16332.0,125.0,1845.0,-1462.0,-0.2952066206734909,-0.42154201613730746,-0.8565533990241467,0.03836214751043745
-1169.5159931182861,3704.0,-1176.0,16500.0,456.0,1653.0,-1105.0,-0.14881635504232962,-0.35068526928144916,-0.9237500471523586,0.039489046163817536
-1169.5315821170807,3672.0,-1124.0,16508.0,497.0,1434.0,-999.0,-0.014348037418017049,-0.2780501303797889,-0.9592567206745749,0.04805000165134116
-1169.5472311973572,3688.0,-844.0,16336.0,451.0,1447.0,-940.0,0.12027853526117425,-0.20351715810715207,-0.970302128514749,0.05126031321756199
-1169.5628292560577,3428.0,-524.0,15872.0,474.0,1392.0,-1047.0,0.2482633042766058,-0.1146679786738634,-0.960307273982065,0.05501387055686388
-1169.578426361084,3248.0,-240.0,15876.0,572.0,1150.0,-1161.0,0.35202495577351056,-0.010347345122307401,-0.9336348020092765,0.06555470569438039
-1169.5940160751343,3256.0,-308.0,15804.0,743.0,975.0,-1080.0,0.4340170545825869,0.09397607853616351,-0.8913433892990714,0.09112988174723283
-1169.6096076965332,3316.0,-320.0,15860.0,787.0,801.0,-887.0,0.49318850039946355,0.18499432517743963,-0.8408755543575958,0.12438048403860738
-1169.6252138614655,3592.0,-416.0,15720.0,754.0,873.0,-656.0,0.5486333678177031,0.2544129138073398,-0.779239012990216,0.16450549425200978
-1169.6408169269562,3500.0,-528.0,15856.0,846.0,951.0,-587.0,0.5985894121615759,0.31879683808963905,-0.7031910749072869,0.21349848674602365
-1169.6564342975616,3340.0,-632.0,15776.0,914.0,683.0,-428.0,0.6196535828413167,0.37792280761511343,-0.6348930996763097,0.26479150428145737
-1169.6720640659332,3224.0,-640.0,15688.0,819.0,524.0,-105.0,0.621935478761212,0.4143643864270829,-0.5819526663460486,0.32067040657300067
-1169.687651872635,3156.0,-808.0,15868.0,676.0,400.0,195.0,0.6109152517233393,0.4288208091472798,-0.54691810891263,0.3791778619559871
-1169.7032749652863,3132.0,-728.0,15864.0,470.0,321.0,298.0,0.5979331949168849,0.4282803467230137,-0.5244851464026002,0.42891394268587824
-1169.7188675403595,3036.0,-496.0,16208.0,365.0,526.0,269.0,0.5972863889769102,0.41447598415615255,-0.49242203953555735,0.47851767269386575
-1169.7344613075256,2432.0,-344.0,16280.0,261.0,580.0,291.0,0.5995838593416557,0.3905286908431313,-0.4608453961059185,0.5249838646408999
-1169.7500751018524,2100.0,-296.0,16008.0,70.0,391.0,268.0,0.6002004877139907,0.3650730919891271,-0.4458042299156513,0.5547428238767035
-1169.7656667232513,2172.0,-572.0,15616.0,-72.0,-23.0,253.0,0.5892734230656366,0.3523699701570139,-0.4583151297267463,0.5643930180854545
-1169.7812883853912,2364.0,-928.0,15636.0,117.0,-388.0,422.0,0.5487289214334958,0.36004950075812925,-0.4847372002092451,0.5781788430231224
-1169.796870470047,2488.0,-1028.0,16364.0,251.0,-599.0,657.0,0.48085529461508336,0.3732007751154477,-0.5196095208607276,0.5995876190555937
-1169.8124935626984,2516.0,-1196.0,16836.0,296.0,-680.0,862.0,0.3933927490262341,0.3801692957783762,-0.5578954315008958,0.6240722226404448
-1169.8280773162842,2620.0,-936.0,16828.0,344.0,-767.0,933.0,0.2921120593702988,0.3859515817687781,-0.5928072406064585,0.6436547962884901
-1169.843682050705,2784.0,-592.0,16836.0,443.0,-205.0,989.0,0.21009155498519,0.35588733213788115,-0.6035769898443797,0.6818361699690653
-1169.8592870235443,2976.0,-368.0,16724.0,625.0,-7.0,1015.0,0.1292401901345217,0.31255258840219263,-0.5947220499023415,0.7293240268200679
-1169.874876499176,3248.0,-324.0,16660.0,816.0,208.0,774.0,0.0681951879627918,0.26696365761129687,-0.5586435337066232,0.7823025144413731
-1169.8905158042908,3144.0,-440.0,16532.0,827.0,233.0,513.0,0.025185188880349995,0.23003995806823838,-0.5106487151160005,0.8280611171304941
-1169.9061489105225,3088.0,-276.0,16676.0,728.0,312.0,328.0,0.0007869239375235442,0.193883129810508,-0.4624678353130954,0.8651775621376331
-1169.9218547344208,3160.0,-632.0,16608.0,587.0,476.0,180.0,-0.003496047126771111,0.1503244551284685,-0.41999429730564186,0.8949833105011268
-1169.9375076293945,3192.0,-788.0,16836.0,614.0,761.0,40.0,0.013195232094610784,0.08886987080625046,-0.371216218205525,0.924189672769631
-1169.9532072544098,2964.0,-756.0,16684.0,734.0,837.0,-150.0,0.04652306969964263,0.026929735092097028,-0.30815654904080036,0.9498157372021462
-1169.9688425064087,2672.0,-676.0,16628.0,841.0,799.0,-314.0,0.0915911974495113,-0.02724753761265084,-0.23290998691974843,0.9677921069304372
-1169.9844369888306,2512.0,-596.0,15928.0,885.0,579.0,-349.0,0.13434001466087397,-0.06156069117478192,-0.15337218378160872,0.9770568125779889
-1170.0000500679016,2472.0,-612.0,16000.0,859.0,394.0,-283.0,0.1677674365186159,-0.0807677508818065,-0.07653110550281451,0.979527257176636
-1170.0156502723694,2460.0,-604.0,15928.0,1006.0,281.0,-170.0,0.19047781848725984,-0.08823928960494849,0.012418959563222545,0.9776388893030574
-1170.0312836170197,2496.0,-600.0,15968.0,659.0,190.0,-256.0,0.21675755480508183,-0.09327209146141946,0.06960167973000869,0.9692636821670849
-1170.046870470047,2680.0,-512.0,15972.0,479.0,-30.0,31.0,0.21802986012447845,-0.08114017504947087,0.10954493734248116,0.9663742333018166
-1170.062494277954,2948.0,-248.0,15800.0,279.0,-339.0,19.0,0.22147857904208687,-0.046777501232336476,0.1264686599412772,0.9657974852196572
-1170.0781366825104,2948.0,-176.0,15756.0,118.0,-568.0,-102.0,0.2365054613262284,0.002462830181171069,0.12461854768675558,0.9636022617256615
-1170.0937480926514,2936.0,-148.0,15804.0,-11.0,-725.0,-312.0,0.2699753329782402,0.0598300402943384,0.10826136674494599,0.9548890837852227
-1170.109367132187,3136.0,-152.0,16324.0,-94.0,-962.0,-459.0,0.3164077849417901,0.13293810862748884,0.07949791845798089,0.9358919028732026
-1170.1250531673431,3316.0,-228.0,16436.0,-102.0,-1018.0,-674.0,0.3775355484879457,0.20731019960748603,0.050288736430355335,0.9010884716579436
-1170.140720129013,3336.0,-364.0,16360.0,27.0,-891.0,-748.0,0.4375354721893075,0.27335678329884633,0.03620830490751722,0.8558783431401401
-1170.1563818454742,3224.0,-404.0,16212.0,108.0,-839.0,-569.0,0.47824633826397533,0.33678096047355083,0.025589150878089936,0.8106813307070482
-1170.1720430850983,3080.0,-224.0,16192.0,62.0,-834.0,-444.0,0.5080074855306306,0.39580224250485885,0.008110427284162811,0.7649857517903449
-1170.1876542568207,2992.0,-168.0,16060.0,14.0,-977.0,-411.0,0.5334291348611228,0.45918559883666604,-0.020038843279145416,0.7100706927217602
-1170.2032825946808,3120.0,-428.0,16188.0,-44.0,-1005.0,-365.0,0.5537046081830612,0.5176132326001307,-0.05472083644354714,0.6499949064208151
-1170.21888256073,3316.0,-732.0,16120.0,104.0,-1277.0,-165.0,0.5488563873914558,0.5919574885854529,-0.1024524642763564,0.5812456367930046
-1170.2344799041748,3308.0,-844.0,16092.0,107.0,-1124.0,-15.0,0.5315326042611902,0.6509499286182352,-0.1493771659611289,0.5209834386318368
-1170.250137090683,3352.0,-752.0,15888.0,205.0,-1083.0,17.0,0.5027421283195985,0.7061146537252768,-0.19038407149845105,0.46087563781001223
-1170.2657907009125,3544.0,-940.0,16564.0,316.0,-935.0,613.0,0.44087509229371785,0.7435038396493934,-0.25517162754603473,0.4332650850427747
-1170.281376361847,3576.0,-1188.0,16812.0,450.0,-794.0,855.0,0.35957452083176356,0.7671759367720783,-0.3222752007379326,0.42223919879117944
-1170.2969698905945,3744.0,-880.0,16996.0,271.0,-664.0,933.0,0.2869032530540396,0.769799699777004,-0.39352422211512705,0.4125937859674191
-1170.31254196167,3992.0,-860.0,16728.0,686.0,-419.0,1142.0,0.18396576458935618,0.757187849712213,-0.45268094090242267,0.4334779388284321
-1170.3281393051147,3844.0,-860.0,16528.0,839.0,-215.0,1320.0,0.06944209703590491,0.7197905617717777,-0.5068209538522153,0.4692673684370726
-1170.3437960147858,3828.0,-808.0,16628.0,972.0,-251.0,1467.0,-0.06206948867532544,0.6630869910096848,-0.5540402255407059,0.49950220160887154
-1170.3594574928284,3620.0,-840.0,16296.0,989.0,127.0,1562.0,-0.17895436476128251,0.5692069586881014,-0.5942507110813262,0.5393003485009683
-1170.3750944137573,3520.0,-632.0,16156.0,921.0,215.0,1604.0,-0.2853427443820903,0.45547432788823483,-0.6256792878956391,0.5653742862579297
-1170.3907063007355,3388.0,-432.0,16152.0,782.0,195.0,1787.0,-0.38835793762050624,0.324025046687774,-0.6534166233206489,0.5632340523924083
-1170.406305551529,3540.0,-224.0,16392.0,738.0,176.0,1400.0,-0.4636054898933388,0.20847045091767524,-0.6562912828838126,0.5575766968280311
-1170.4219739437103,3760.0,-172.0,16496.0,769.0,103.0,1211.0,-0.5265526096271155,0.10214657910048455,-0.6399326854785109,0.5502677382231347
-1170.437591791153,3828.0,-264.0,16604.0,750.0,106.0,1114.0,-0.576907305050268,0.0003555433851074429,-0.6143533695197327,0.538282242256132
-1170.4532206058502,3696.0,-424.0,16144.0,699.0,311.0,1216.0,-0.6126520718774285,-0.11375515166689179,-0.5924344692354867,0.5106256984868699
-1170.4688656330109,3464.0,-296.0,15980.0,605.0,396.0,1301.0,-0.638859566295578,-0.2290742466295973,-0.5688157785405412,0.4645772854617695
-1170.4844934940338,3104.0,-28.0,15880.0,350.0,458.0,1292.0,-0.6566120470641562,-0.32876588120191036,-0.550031685126719,0.3977923583534653
-1170.500078678131,3316.0,0.0,16328.0,10.0,447.0,1226.0,-0.6731722508791821,-0.40107080414827195,-0.5365493374062118,0.31320303196978994
-1170.5156586170197,3300.0,32.0,16500.0,291.0,440.0,960.0,-0.6656825631355437,-0.4729466399525789,-0.518386236094083,0.25389744213573356
-1170.5312790870667,3384.0,-76.0,16372.0,352.0,342.0,735.0,-0.6501283537437064,-0.5325995744610408,-0.49855747294229086,0.21239412213103614
-1170.5468645095825,3088.0,-164.0,16244.0,421.0,431.0,610.0,-0.6214650897779554,-0.5893263177211433,-0.4854310568979337,0.17559135066247078
-1170.5624730587006,3040.0,-416.0,16148.0,478.0,488.0,673.0,-0.5845590209059807,-0.6489363989216552,-0.4682679736641658,0.13378118728913982
-1170.5780789852142,2564.0,-556.0,16160.0,475.0,391.0,881.0,-0.5496310802275298,-0.7105894502691377,-0.4308352073482911,0.08572825043868945
-1170.5936782360077,2732.0,-516.0,16348.0,481.0,64.0,868.0,-0.5220011785760575,-0.7638789094168074,-0.37502174063455535,0.05798685510375667
-1170.609340429306,2996.0,-292.0,16616.0,517.0,-99.0,874.0,-0.49331637106588067,-0.8122965778215855,-0.3083657217132452,0.0415187833396037
-1170.624950170517,3164.0,-180.0,16436.0,582.0,-81.0,695.0,-0.45538617239128154,-0.8530536107823975,-0.25266854777552644,0.03288732416811578
-1170.6405539512634,3268.0,-88.0,16616.0,666.0,101.0,535.0,-0.4040318175856814,-0.8890884378984129,-0.2143115382385684,0.018724437283646006
-1170.6561741828918,3232.0,-296.0,16208.0,808.0,273.0,507.0,-0.3358463066366255,-0.9240382571432768,-0.18257403128135558,-0.005223098297728803
-1170.6718423366547,3116.0,-648.0,16288.0,866.0,361.0,533.0,-0.25889816007863076,-0.9535239450255163,-0.14988704163058517,-0.03602365503536673
-1170.687459230423,3348.0,-1012.0,16848.0,879.0,640.0,933.0,-0.17311038791144362,-0.9759732962430734,-0.0887572467313147,-0.09813801388990938
-1170.7030906677246,3468.0,-244.0,17660.0,758.0,1068.0,810.0,-0.09250945717302239,-0.9757691338531588,-0.04199857949936101,-0.19378523440408188
-1170.7186760902405,3332.0,336.0,17344.0,226.0,1447.0,383.0,-0.06096003652397429,-0.9462776954923372,-0.024666880304199834,-0.31659744467819967
-1170.7342722415924,3552.0,632.0,17048.0,278.0,1665.0,-174.0,-0.03880775410106325,-0.891604584644494,-0.054982147758148275,-0.4477858710259314
-1170.7498536109924,3280.0,600.0,16848.0,580.0,1791.0,-595.0,-0.008213905402484303,-0.808727858083402,-0.12813774129853228,-0.5739969534525265
-1170.7655158042908,3040.0,372.0,16524.0,853.0,1825.0,-825.0,0.030533597038005223,-0.6961296095705651,-0.22636259771787834,-0.6806109317998554
-1170.7811336517334,2332.0,116.0,16496.0,892.0,1820.0,-1015.0,0.05925506729356611,-0.5547059907239144,-0.3297517338373358,-0.7616126934907967
-1170.796749830246,2212.0,96.0,16272.0,773.0,1730.0,-930.0,0.08326521479445184,-0.4020398344311687,-0.4102383287532598,-0.814331252720614
-1170.812337398529,1996.0,488.0,16544.0,893.0,1686.0,-1093.0,0.09555866068678999,-0.23221770368388084,-0.49073487761629114,-0.8343397151966675
-1170.827975511551,2080.0,804.0,16556.0,1008.0,1734.0,-1434.0,0.08393316666497576,-0.03523256167174693,-0.5656363569647623,-0.8196153987153167
-1170.8435716629028,1892.0,844.0,16416.0,1088.0,1922.0,-1733.0,0.05654300230334338,0.19017906550592248,-0.6163366239095434,-0.7620787216302555
-1170.8592145442963,1548.0,840.0,16344.0,1342.0,1770.0,-1733.0,0.013816239454711096,0.3959468344261563,-0.648675053358485,-0.64981219670425
-1170.8748126029968,1388.0,1028.0,16152.0,1390.0,1285.0,-1536.0,-0.04751649986847603,0.5452410816980807,-0.6580942058289649,-0.5170748121145528
-1170.8904631137848,1368.0,920.0,16544.0,1074.0,1554.0,-1286.0,-0.06610510110048838,0.6715513295951989,-0.639190823057268,-0.3688956750177307
-1170.9060633182526,1724.0,856.0,16952.0,809.0,1940.0,-1140.0,-0.041109948680226834,0.7762254428342323,-0.5967394528190183,-0.1992136026117886
-1170.921724319458,2016.0,836.0,17044.0,705.0,2339.0,-1178.0,0.012143914681617789,0.852177854606201,-0.5231112597955335,0.00019831819895064256
-1170.9373636245728,1608.0,1192.0,16656.0,742.0,2538.0,-891.0,0.07080021885562064,0.8682211831732737,-0.44122397056160345,0.21564024184054853
-1170.9529626369476,1528.0,1144.0,16560.0,830.0,2707.0,-778.0,0.12285047221470223,0.8256499580581864,-0.33893634267459544,0.43397242291360966
-1170.968629360199,1312.0,1012.0,16328.0,859.0,2764.0,-856.0,0.16938809043277306,0.7304978727732987,-0.20793840375557032,0.6280462984022832
-1170.9842448234558,1272.0,1168.0,16448.0,1015.0,2731.0,-921.0,0.19783953172675287,0.5917107132768129,-0.051353944828287555,0.7798081327032681
-1170.9999186992645,1144.0,1356.0,16348.0,1158.0,2695.0,-989.0,0.2099284452899951,0.4175529478378531,0.12078202140052821,0.8757803873782782
-1171.0155353546143,724.0,1136.0,15684.0,1212.0,2500.0,-1133.0,0.21865694631971316,0.2287738260386993,0.29067345759478647,0.9029732096776985
-1171.0311405658722,352.0,1080.0,15400.0,1166.0,2354.0,-1081.0,0.21438190965177253,0.03680363163387597,0.435704370370396,0.8734114672665764
-1171.046734571457,124.0,1264.0,15444.0,1049.0,2119.0,-1044.0,0.20489390924245687,-0.14128249229685336,0.544791606287053,0.8007870185292129
-1171.0623180866241,156.0,1224.0,15444.0,895.0,2008.0,-913.0,0.1804342793598862,-0.30254993063286445,0.6186542507035862,0.7022634323331325
-1171.077980518341,80.0,1508.0,15356.0,804.0,1942.0,-947.0,0.1518263124282363,-0.45098945951998476,0.6602006928239116,0.5811130040285993
-1171.093578338623,-96.0,1304.0,15432.0,835.0,1938.0,-892.0,0.11598289564861483,-0.5781584756120192,0.6796259031657327,0.43633631150880703
-1171.1091701984406,-384.0,1136.0,15164.0,903.0,1712.0,-727.0,0.08630214726713717,-0.6665693053964123,0.6835991760249913,0.2844810486102347
-1171.1247382164001,-608.0,912.0,14780.0,807.0,1369.0,-376.0,0.060306233864701894,-0.7097424659926537,0.6851422977612838,0.1523444188085372
-1171.1403522491455,-640.0,688.0,14940.0,662.0,921.0,-22.0,0.04631291916448865,-0.7163157561524173,0.6940354738099571,0.055331836221493964
-1171.1559731960297,-516.0,764.0,15160.0,385.0,313.0,136.0,0.05072249621621412,-0.7073178289941161,0.7049539784457661,0.012984815675735242
-1171.1715812683105,-432.0,1068.0,15440.0,253.0,-85.0,197.0,0.07132767354799821,-0.6936866846237509,0.7167277015097827,0.0035423792065228613
-1171.1872420310974,-184.0,1524.0,15752.0,108.0,-405.0,343.0,0.10299303872048365,-0.6706783781080402,0.7341894432018846,0.023426664389025117
-1171.2028467655182,-372.0,1924.0,15932.0,-132.0,-489.0,415.0,0.12556334483753648,-0.6432150181366258,0.7525904657944991,0.06415510635895878
-1171.2184474468231,-356.0,2040.0,15928.0,-452.0,-584.0,746.0,0.13382737736018857,-0.5933980993199476,0.7822652789920854,0.13427569428531053
-1171.2340557575226,-556.0,1936.0,15572.0,-525.0,-702.0,866.0,0.1436081651697841,-0.5291060002942107,0.8081013598475812,0.21539667490869194
-1171.2496438026428,-748.0,1644.0,15696.0,-434.0,-796.0,1474.0,0.15031459741368805,-0.4109261527602811,0.8484038960130738,0.2979195327799653
-1171.265254497528,-804.0,1384.0,16160.0,-506.0,-947.0,1872.0,0.1509824997561673,-0.24988719895275935,0.8745619826720938,0.3871718107398564
-1171.2808921337128,-732.0,832.0,16284.0,-697.0,-1032.0,1841.0,0.14957945821233531,-0.08210352675626756,0.8614588405563277,0.478302898383895
-1171.2965168952942,-168.0,792.0,15812.0,-564.0,-1652.0,1796.0,0.19030630411710006,0.11192775681188052,0.810022509186138,0.5432487666623305
-1171.3120799064636,-20.0,1284.0,15316.0,-206.0,-2102.0,1618.0,0.2573989730232508,0.3142215640468853,0.7300243400805886,0.549613537191731
-1171.327665567398,-220.0,1292.0,15276.0,138.0,-2585.0,1555.0,0.3324274374476095,0.52255696597721,0.6148379288604201,0.4882627749228252
-1171.3432831764221,-184.0,1628.0,15912.0,466.0,-2620.0,1888.0,0.35717259011555125,0.7203882585080531,0.45442569155038975,0.3833611726985834
-1171.3589103221893,-124.0,1480.0,16892.0,857.0,-2442.0,2745.0,0.2928805639998751,0.8906307156314827,0.22256253536214182,0.26732718054482113
-1171.374526500702,-116.0,824.0,17552.0,1000.0,-2183.0,3933.0,0.15383737299760397,0.9681437148245844,-0.10734174214657227,0.1658600630284114
-1171.390156507492,-580.0,268.0,17236.0,944.0,-2268.0,4788.0,-0.014929035875962655,0.8768557192962821,-0.47860670183642984,0.042857862551329055
-1171.405788898468,-476.0,-148.0,16908.0,865.0,-3183.0,4884.0,-0.2066578393071016,0.6078553968064184,-0.7514529662241715,-0.15206180841725508
-1171.4213781356812,-352.0,-352.0,16760.0,1035.0,-4426.0,4418.0,-0.4316264079715092,0.21052838962206408,-0.8047671177772094,-0.34889300258003975
-1171.4369757175446,324.0,-52.0,17104.0,1333.0,-5643.0,3510.0,-0.6417730276671693,-0.22217369236119308,-0.6000166379850781,-0.42278394662355934
-1171.4525754451752,2180.0,552.0,18076.0,1613.0,-6651.0,2759.0,-0.7205407817409417,-0.5905427075153517,-0.19614049932663807,-0.30595620106885807
-1171.4681630134583,4124.0,756.0,19376.0,1438.0,-6105.0,2246.0,-0.5973852214974561,-0.7627761886502629,0.22933222582347237,-0.09332798810360027
-1171.483776807785,5464.0,760.0,20020.0,888.0,-4084.0,1708.0,-0.4118564058720539,-0.7518186001538363,0.5105785147662064,0.06672835727046368
-1171.499353170395,6104.0,1304.0,19184.0,637.0,-1930.0,1140.0,-0.2849192180939927,-0.6983370644597671,0.645274959367229,0.12151794260949307
-1171.5149276256561,6140.0,1996.0,17424.0,42.0,-1103.0,-192.0,-0.2172258975378937,-0.6951615796765518,0.6583032171555188,0.19026340127084723
-1171.530511856079,6356.0,1412.0,16880.0,-700.0,-1273.0,-2551.0,-0.1397256558886714,-0.7820545408185738,0.4998567793908664,0.344979182514715
-1171.5461325645447,8004.0,-1100.0,18676.0,-943.0,-1975.0,-5426.0,0.040468863089562185,-0.8441012587493122,0.11142696665758617,0.5229143019650107
-1171.56174325943,9524.0,-1424.0,22304.0,-853.0,-2628.0,-9115.0,0.322383110421036,-0.6272754535110984,-0.46784982094266137,0.5326454548586929
-1171.5773799419403,10416.0,296.0,24596.0,-412.0,-1032.0,-11082.0,0.5542375281634322,-0.09910355110237823,-0.8050540559952489,0.18678119675113333
-1171.5929777622223,9412.0,2940.0,21824.0,-747.0,1360.0,-12258.0,0.5733539175464375,0.4786655213505749,-0.5829304336344583,-0.31990109947775713
-1171.6085758209229,7264.0,2756.0,16884.0,-1831.0,2205.0,-12426.0,0.2774596637659116,0.7222927108680415,0.0653690223612043,-0.6301081381202307
-1171.624167919159,5468.0,1044.0,13676.0,-2969.0,1891.0,-12109.0,-0.14263794908557337,0.46075337965588004,0.6979307667963561,-0.5293896328559865
-1171.6397745609283,5088.0,-848.0,12392.0,-3630.0,1463.0,-11643.0,-0.4255068133355926,-0.09264634483135195,0.897375291932598,-0.07126143433347404
-1171.6554117202759,4468.0,-2756.0,13556.0,-3951.0,1474.0,-10946.0,-0.447929555781993,-0.5548716392768164,0.5440198262560815,0.4421753109610575
-1171.6710186004639,4784.0,-4020.0,14552.0,-4073.0,2216.0,-9912.0,-0.2660510398362099,-0.6882460860619074,-0.13014127772950929,0.6622668775149997
-1171.6866536140442,5176.0,-5020.0,15036.0,-3803.0,2995.0,-8661.0,0.030375283775747892,-0.5099140155297173,-0.7104683307851619,0.4840452353378222
-1171.702229976654,4868.0,-5004.0,14856.0,-3258.0,3106.0,-7096.0,0.30468377839413746,-0.1690540156685325,-0.9318965288095817,0.10078390031383061
-1171.7178373336792,5512.0,-4588.0,14464.0,-2358.0,3251.0,-5690.0,0.4994289713866392,0.17303621031500496,-0.8118448337449463,-0.24806680225524957
-1171.7334320545197,5580.0,-3184.0,14584.0,-1561.0,3151.0,-4849.0,0.5683934689056065,0.45798467361159867,-0.5027806373864635,-0.46302325418016566
-1171.7490293979645,5176.0,-1912.0,14520.0,-839.0,2500.0,-3851.0,0.5150057120274294,0.6355905662097597,-0.1767170657812023,-0.5473251569094552
-1171.7647151947021,5080.0,-1084.0,14576.0,-379.0,1397.0,-3461.0,0.37283485000714855,0.701905322001489,0.09144276006500235,-0.5999677617987715
-1171.78032040596,4780.0,-452.0,14704.0,-365.0,371.0,-3185.0,0.21703890050846472,0.6583230965792363,0.3058579645361479,-0.6526528339831268
-1171.7959420681,4912.0,-380.0,15100.0,-579.0,-84.0,-2964.0,0.08094426906359593,0.5447264901508793,0.4907740620671761,-0.6751754558896137
-1171.8115122318268,5284.0,-588.0,16052.0,-762.0,-140.0,-2746.0,-0.03753101878054891,0.4011196578153201,0.6455067230614754,-0.6488570822807208
-1171.8270933628082,4972.0,-888.0,16316.0,-813.0,-39.0,-2719.0,-0.1561830734781434,0.24101458277188137,0.7637428786039124,-0.5781138588825097
-1171.8426640033722,4576.0,-1164.0,16104.0,-608.0,-53.0,-2549.0,-0.26178039886942583,0.07471693215079202,0.8273362842173331,-0.49132786979286525
-1171.8582406044006,4344.0,-1312.0,15120.0,-275.0,-195.0,-2302.0,-0.337803962623671,-0.09176218972177262,0.8413606228987671,-0.4118015123923286
-1171.8738312721252,3940.0,-1432.0,14348.0,204.0,-352.0,-1209.0,-0.3516759225501488,-0.19800336633749235,0.829533052303496,-0.3859969268706265
-1171.8894259929657,3340.0,-1632.0,14000.0,629.0,-833.0,-644.0,-0.3005357490933467,-0.2903447451998352,0.8180487370059506,-0.3951891399503697
-1171.9050290584564,2588.0,-1436.0,14896.0,624.0,-1327.0,-284.0,-0.19813625999041767,-0.36963140150487245,0.8171774401629741,-0.3953930712433414
-1171.9207684993744,3184.0,-904.0,15880.0,258.0,-1472.0,-5.0,-0.0843096429706499,-0.4216741626636194,0.826535278984154,-0.363210981715426
-1171.936401128769,3204.0,-668.0,17068.0,-81.0,-1364.0,-111.0,0.007524807840908002,-0.4689820094107896,0.8291187567656729,-0.3042389509831384
-1171.9520664215088,3316.0,-336.0,17224.0,506.0,-1058.0,-152.0,0.10023410952698592,-0.5050612917654386,0.8044700548740329,-0.2961319733810068
-1171.96772813797,2872.0,244.0,18148.0,873.0,-742.0,-314.0,0.18174356444011353,-0.535774789592825,0.7574846586683399,-0.3257785190946065
-1171.9833545684814,2984.0,732.0,18560.0,733.0,-478.0,-345.0,0.23703975382653195,-0.5586611278188086,0.7105035411851682,-0.35622270749267176
-1171.9989817142487,3248.0,1100.0,17496.0,401.0,-385.0,-589.0,0.2615275084163144,-0.5973617368437566,0.6596657090317819,-0.37363547746990183
-1172.0146350860596,2820.0,728.0,15680.0,263.0,-586.0,-693.0,0.2854411234087467,-0.6481567936806653,0.5995025766269155,-0.3728441986814886
-1172.030236005783,2604.0,-304.0,13984.0,654.0,-1199.0,-370.0,0.3703681466871572,-0.6850157858775505,0.523392626675508,-0.3458915543342952
-1172.0458137989044,2884.0,-1100.0,13500.0,907.0,-1600.0,175.0,0.49662124849156686,-0.6870922968833737,0.4488998078457709,-0.28241896824795126
-1172.0614030361176,3404.0,-1596.0,14108.0,847.0,-1645.0,896.0,0.6240696171096293,-0.6454575525892376,0.40394128903724114,-0.175365606140669
-1172.077005147934,3828.0,-1476.0,15276.0,573.0,-1554.0,1458.0,0.7203114589435692,-0.5759709783576263,0.38551022084972747,-0.028119456337912577
-1172.0925924777985,4096.0,-896.0,15892.0,370.0,-1388.0,1926.0,0.773612364504626,-0.48076342216445267,0.3856888754113804,0.14708682054552305
-1172.1081988811493,4368.0,-468.0,16328.0,325.0,-1145.0,2093.0,0.7819401290401357,-0.3655723615146195,0.39171204094358386,0.3185720641756464
-1172.1239051818848,4472.0,408.0,16852.0,507.0,-1097.0,2091.0,0.7608434449362466,-0.2239360121640286,0.3889761640626827,0.4686869515408953
-1172.1395120620728,4520.0,1140.0,16784.0,704.0,-1273.0,1895.0,0.7247726509132512,-0.05936985572921741,0.36230675851124644,0.58302112951071
-1172.15509390831,4268.0,1300.0,16128.0,856.0,-1047.0,1698.0,0.6641367348049587,0.1000705545415631,0.34211741354721165,0.6571635693981507
-1172.1706941127777,4088.0,1104.0,16184.0,882.0,-957.0,1545.0,0.5873650772561352,0.24840758603992666,0.318573525540845,0.7012894167475989
-1172.186278104782,3708.0,792.0,16240.0,865.0,-719.0,1481.0,0.4915553279971804,0.37298909626024124,0.2984278044348153,0.7281437626792997
-1172.2018883228302,3508.0,588.0,16188.0,777.0,-376.0,1403.0,0.38298410239731917,0.4619042173856416,0.28293468242178726,0.7482751076677349
-1172.2174882888794,3152.0,332.0,16272.0,578.0,-130.0,1193.0,0.2830959078785251,0.515581013478367,0.2663320491329558,0.7636099561213789
-1172.2330830097198,3164.0,288.0,16216.0,359.0,148.0,986.0,0.19695938534146337,0.5350958549548072,0.2483900499161567,0.7830592631715344
-1172.248694896698,3348.0,688.0,16312.0,226.0,127.0,672.0,0.1374609872963507,0.5436621606495237,0.23408974128745602,0.7941901063809444
-1172.264304637909,3584.0,1036.0,16192.0,73.0,28.0,491.0,0.09930374936475958,0.5519703815320399,0.2159089977939418,0.799281407230952
-1172.279906988144,3616.0,928.0,16116.0,46.0,-93.0,373.0,0.07278184695955266,0.565422589169035,0.20016004684284164,0.7968287482630206
-1172.295470237732,3728.0,872.0,15756.0,-47.0,-206.0,339.0,0.05509255418467406,0.5848780320198784,0.17868284801368411,0.7892749444646533
-1172.3110961914062,4040.0,744.0,15624.0,-44.0,-328.0,389.0,0.03562106263129633,0.6125836691899817,0.15400993732240956,0.7744374263584527
-1172.3266851902008,4052.0,476.0,15992.0,-49.0,-329.0,417.0,0.014458760157271322,0.6394509064150722,0.12719763184566385,0.7580990997175185
-1172.3422858715057,4056.0,4.0,16296.0,-89.0,-258.0,414.0,-0.005104739075167138,0.660261418295833,0.09774881925408992,0.744630089026344
-1172.357885837555,3816.0,100.0,16376.0,-138.0,-153.0,446.0,-0.024816599050182853,0.6733288526287148,0.06306172178994848,0.7362306784386048
-1172.3735172748566,3596.0,296.0,16104.0,-269.0,-168.0,402.0,-0.0338857812710904,0.6861131612149595,0.022476755025627047,0.7263575423431498
-1172.3891603946686,3500.0,444.0,15768.0,-360.0,-301.0,423.0,-0.03849777297679855,0.7059023135317632,-0.024755435923687227,0.7068288432276653
-1172.4047586917877,3416.0,484.0,15752.0,-374.0,-482.0,458.0,-0.04465435419246773,0.7341755547407502,-0.07425970185133907,0.6734075587292702
-1172.4203555583954,3552.0,528.0,15868.0,-375.0,-728.0,439.0,-0.050979203400216756,0.7729556652220646,-0.1211863818671305,0.6206887474988965
-1172.43598985672,3744.0,412.0,16140.0,-415.0,-821.0,493.0,-0.05813472244353437,0.8106391907676801,-0.17255024793212467,0.5565167278496633
-1172.4515843391418,3768.0,228.0,16236.0,-395.0,-969.0,455.0,-0.06655610492097568,0.8486101801943554,-0.2179238305807841,0.47743088613248474
-1172.4672362804413,3728.0,132.0,16148.0,-351.0,-1018.0,421.0,-0.07707903999025556,0.8805562046231169,-0.2565072511752147,0.39100335316777934
-1172.4828164577484,3924.0,484.0,16232.0,-213.0,-1080.0,429.0,-0.09901058057786354,0.9044257666699362,-0.28794727466848824,0.2988265458892877
-1172.4984514713287,4012.0,264.0,16324.0,-136.0,-1043.0,476.0,-0.12627574878155265,0.9161894597069278,-0.31843917458704846,0.2079610571234557
-1172.5140438079834,4008.0,280.0,16068.0,-285.0,-989.0,410.0,-0.13778663540274289,0.921582044132213,-0.34389122709495046,0.11593188933426642
-1172.5296294689178,4016.0,356.0,15652.0,-436.0,-981.0,329.0,-0.13485701700868863,0.9224561789953516,-0.3612366003212339,0.01990731988919876
-1172.5452098846436,3916.0,428.0,15876.0,-540.0,-895.0,296.0,-0.11958681191095712,0.9169212798508137,-0.37379484407947244,-0.07233101349575015
-1172.5608472824097,3588.0,620.0,15956.0,-765.0,-897.0,169.0,-0.08610242460625152,0.9088307569337576,-0.3711261411451564,-0.16993650310290415
-1172.5765118598938,3956.0,480.0,16312.0,-486.0,-803.0,10.0,-0.07317112005645547,0.8972373602306349,-0.3574751032066358,-0.24864162399616518
-1172.5921030044556,3968.0,464.0,16292.0,-525.0,-618.0,-221.0,-0.0559850136252529,0.8916690236713122,-0.32395010693662385,-0.31120468937691026
-1172.6077284812927,3848.0,472.0,16288.0,-594.0,-461.0,-475.0,-0.03558331725327639,0.8927812109003672,-0.2677784626399489,-0.36051384431490574
-1172.6233296394348,3756.0,256.0,16264.0,-568.0,-450.0,-688.0,-0.023397540798338563,0.8930567816366993,-0.1941450921673711,-0.4052281123572424
-1172.6389229297638,3728.0,104.0,16388.0,-435.0,-464.0,-902.0,-0.029121173231847913,0.8886795076660597,-0.1069914240484046,-0.44491968388025355
-1172.6545240879059,3608.0,-104.0,16188.0,-329.0,-527.0,-938.0,-0.044739315805638905,0.8735747933201516,-0.020006940382481176,-0.4842160637911858
-1172.6701436042786,3812.0,-44.0,15904.0,-231.0,-579.0,-925.0,-0.06692466432500781,0.847572462482052,0.062264574190917764,-0.5227476761764889
-1172.685786485672,3648.0,-152.0,16096.0,-6.0,-748.0,-874.0,-0.10179919973193238,0.8046288776176822,0.13091465317104992,-0.5701496696681941
-1172.7013621330261,3624.0,-128.0,15956.0,-287.0,-813.0,-822.0,-0.11267370726680101,0.753200530284683,0.20902814851069948,-0.6134336394426184
-1172.716962337494,3724.0,-56.0,15952.0,-339.0,-993.0,-821.0,-0.11547454651163179,0.6836996659239284,0.2889679261311487,-0.6600893375831067
-1172.7325417995453,3840.0,-208.0,16220.0,-442.0,-1274.0,-764.0,-0.10009669622651321,0.5900119984324191,0.369484733013825,-0.7108779959880756
-1172.748141527176,3588.0,-460.0,16320.0,-451.0,-1025.0,-586.0,-0.0797180995111426,0.5082641920247047,0.4339323638755644,-0.7396047858803851
-1172.7637903690338,3956.0,-400.0,16176.0,-430.0,-997.0,-763.0,-0.07168559824475347,0.41510900451009913,0.4990867041804775,-0.7572701968843053
-1172.7794320583344,3988.0,-292.0,16588.0,-413.0,-939.0,-462.0,-0.0461601335275733,0.3337914005006786,0.5462968781657171,-0.7668195771698214
-1172.7950460910797,3848.0,-140.0,16236.0,-430.0,-811.0,-313.0,-0.01587968557542964,0.26527541469036875,0.5852804522475146,-0.7660441124137846
-1172.8106608390808,3956.0,-168.0,16040.0,-480.0,-723.0,-236.0,0.01631589926610358,0.2048299554597598,0.6218308741374667,-0.7557147906101385
-1172.8262627124786,3900.0,-272.0,16080.0,-485.0,-636.0,-154.0,0.04920485574137496,0.15337354429975367,0.6539183910990164,-0.7392199779922588
-1172.841864824295,3972.0,-224.0,16252.0,-496.0,-615.0,-151.0,0.08099021714165157,0.10263452691260486,0.6835189407708873,-0.7181285373943986
-1172.857497215271,4056.0,-204.0,16128.0,-425.0,-535.0,-274.0,0.09932476215645375,0.04960007948583229,0.7072749564077216,-0.6981665702223349
-1172.8731825351715,4184.0,-316.0,16276.0,-376.0,-411.0,-508.0,0.0951509494179123,-0.010082669944776199,0.7271563086323232,-0.679770799172683
-1172.8887870311737,4172.0,-276.0,16172.0,-316.0,-294.0,-167.0,0.10352906502427817,-0.04074331208835175,0.7426202486242662,-0.6604066031987438
-1172.9043810367584,3948.0,-380.0,16244.0,-302.0,-296.0,-31.0,0.1197658489494351,-0.06252048414907885,0.7566391860708639,-0.6397221839120529
-1172.920114517212,4032.0,-368.0,16036.0,-322.0,-256.0,34.0,0.1367210193627274,-0.07790110913895247,0.771547390130817,-0.6164036054742563
-1172.9357838630676,3988.0,-412.0,15968.0,-263.0,-210.0,144.0,0.15674179352418677,-0.08261109714635304,0.7836954589867979,-0.5953392682786592
-1172.951426744461,4028.0,-448.0,16216.0,-218.0,-163.0,162.0,0.17467389205337455,-0.08296167240235496,0.793587575153076,-0.5769100041685802
-1172.9670760631561,4044.0,-324.0,15904.0,-256.0,-126.0,79.0,0.1854687943743262,-0.08771964748153332,0.8047946078628551,-0.5569669908656373
-1172.982712507248,3888.0,-180.0,15896.0,-214.0,-223.0,139.0,0.20617124695231662,-0.09223050880727428,0.8122347068074759,-0.5378305785585752
-1172.9983265399933,4044.0,-224.0,15992.0,-271.0,-245.0,79.0,0.2249595518654542,-0.10296374093986471,0.8206881295472134,-0.5150365638442178
-1173.014004945755,4000.0,-276.0,15940.0,-494.0,-313.0,93.0,0.24680847915057574,-0.11992288807352053,0.8364159914945108,-0.4744600770430956
-1173.0296154022217,4028.0,-404.0,15896.0,-246.0,-302.0,49.0,0.2681726546701306,-0.13408169634988606,0.8400676136153586,-0.4520972578391823
-1173.0452017784119,4220.0,-452.0,15960.0,-198.0,-300.0,13.0,0.2882459554002927,-0.1495360708872026,0.840548253372549,-0.4336264134613425
-1173.0608670711517,4212.0,-436.0,16072.0,-155.0,-322.0,85.0,0.3129296507823689,-0.15931155537550357,0.838944155032478,-0.41577345600928406
-1173.0765347480774,4140.0,-464.0,16020.0,-154.0,-344.0,61.0,0.338035178297048,-0.17144568820148387,0.8354735998695388,-0.39789754730563004
-1173.0921423435211,4096.0,-388.0,16020.0,-167.0,-407.0,18.0,0.3656069962422687,-0.18906136893722522,0.828874156751086,-0.37888646761855205
-1173.1077547073364,4196.0,-376.0,16312.0,-169.0,-411.0,-15.0,0.39180210437975305,-0.2089787684543695,0.8204329988258924,-0.36015091250258574
-1173.123369216919,4108.0,-400.0,16056.0,-223.0,-306.0,-17.0,0.40893322374453933,-0.2273200320554117,0.8161726296017249,-0.33905967060862735
-1173.1389741897583,3948.0,-340.0,15952.0,-155.0,-305.0,-66.0,0.4254831318180414,-0.2464676984832541,0.8081403948087426,-0.3242327565515992
-1173.1546442508698,4068.0,-244.0,16364.0,-220.0,-280.0,-82.0,0.4380075526299294,-0.2682098424466857,0.8017465937781636,-0.30563910682204215
-1173.1702601909637,4148.0,-248.0,16192.0,-240.0,-217.0,-165.0,0.44300133771283495,-0.2945725759915592,0.7955417781888853,-0.2899829157284995
-1173.1858713626862,4400.0,-320.0,16204.0,-275.0,-246.0,-298.0,0.4451392460530856,-0.33184113929419595,0.7846077057491111,-0.2759044363078217
-1173.2014999389648,4504.0,-464.0,16568.0,-259.0,142.0,-451.0,0.41663911058077024,-0.3689615615783179,0.7823877141593027,-0.2795508582436031
-1173.2170844078064,4596.0,-344.0,16208.0,-246.0,353.0,-615.0,0.36885429849750795,-0.41041241684211643,0.7797084733763567,-0.2959102078787337
-1173.2327144145966,4428.0,-352.0,16060.0,-179.0,425.0,-797.0,0.31195939401801204,-0.4579617056654738,0.7669514549126908,-0.3236323198248154
-1173.2483041286469,4616.0,-372.0,15924.0,-137.0,533.0,-809.0,0.24707167370958713,-0.4989739110992166,0.7502272639011309,-0.3565665107551706
-1173.2639164924622,4604.0,-384.0,15920.0,-107.0,678.0,-832.0,0.17137174895517995,-0.5323027173903598,0.7286822732429676,-0.3953576676635253
-1173.279529094696,4460.0,-364.0,16120.0,-66.0,728.0,-943.0,0.08897780403067147,-0.5650787303662081,0.6942397644802301,-0.4368067402090177
-1173.2951052188873,4376.0,-384.0,15832.0,-59.0,676.0,-1095.0,0.0033211162734305823,-0.6023048900866363,0.6436286325729919,-0.47218637517048695
-1173.3107085227966,4296.0,-332.0,15744.0,-38.0,759.0,-1247.0,-0.09199276161723868,-0.6359177673377693,0.5751522868331438,-0.50630600623021
-1173.3263127803802,4388.0,-296.0,15896.0,-76.0,455.0,-1485.0,-0.18303850743878305,-0.6834464363470922,0.48790189906891085,-0.5112236402241125
-1173.341989517212,4448.0,-156.0,16004.0,-156.0,454.0,-1644.0,-0.2819524189102628,-0.7226270148372885,0.3852037754696452,-0.4999310775116228
-1173.3575973510742,4432.0,-64.0,16232.0,-19.0,487.0,-1847.0,-0.37500119305252777,-0.7525536106458616,0.2539953523650277,-0.47804134684148714
-1173.3732197284698,4440.0,-4.0,15876.0,-312.0,577.0,-1866.0,-0.47912421679012035,-0.7484767173118538,0.12369475349627584,-0.4414999393939036
-1173.3888642787933,4392.0,-196.0,16240.0,-283.0,544.0,-1936.0,-0.5692895102891096,-0.7251767078974489,-0.014416399153217076,-0.3870663550778588
-1173.404488325119,4304.0,-456.0,16036.0,-235.0,443.0,-1860.0,-0.637575034480125,-0.6864515415745546,-0.14418254307905357,-0.31858083864043296
-1173.420117855072,4180.0,-508.0,15900.0,-116.0,402.0,-1840.0,-0.6815354894899455,-0.6369788556601677,-0.2699009708013334,-0.23858076194039912
-1173.435762643814,4236.0,-416.0,15828.0,-87.0,428.0,-1771.0,-0.7043900102384151,-0.5738515545632312,-0.38708363592666056,-0.15714759177119164
-1173.451367855072,4424.0,-172.0,16264.0,-130.0,549.0,-1720.0,-0.707267262896158,-0.4940116356746628,-0.4989499286704495,-0.08230729817685987
-1173.4669902324677,4628.0,-124.0,16272.0,-209.0,698.0,-1743.0,-0.6891917341744264,-0.39479477433538956,-0.6074231698083764,-0.013745271298156633
-1173.4826335906982,5116.0,-208.0,16080.0,-137.0,831.0,-1745.0,-0.6429084488273819,-0.2888940285174072,-0.7072722703490703,0.05454266503045879
-1173.4982342720032,4980.0,-204.0,15972.0,-149.0,988.0,-1902.0,-0.5668168453119315,-0.16491125572514356,-0.7974332064912473,0.12499289096134224
-1173.5138247013092,4912.0,-212.0,16060.0,-155.0,1092.0,-2146.0,-0.45960755527415603,-0.01933540202309983,-0.8650263854424367,0.20029076327157916
-1173.5294284820557,4916.0,-188.0,16012.0,-167.0,1214.0,-2385.0,-0.31797648615583207,0.14239414549438084,-0.8964181901856779,0.27395125457852687
-1173.5450060367584,4988.0,-272.0,15884.0,-152.0,1274.0,-2683.0,-0.14737195356257984,0.31563992107617356,-0.8730963495454532,0.34110953070323263
-1173.5606973171234,5004.0,-240.0,15964.0,-199.0,1289.0,-2823.0,0.039004505314646505,0.47768830569964116,-0.7892276809164922,0.38394296300120073
-1173.5763366222382,5088.0,-224.0,15980.0,-349.0,1480.0,-3583.0,0.26098293647139603,0.6379143295279959,-0.6120715977555803,0.3877132629592986
-1173.5919666290283,5112.0,272.0,16364.0,-491.0,1874.0,-3943.0,0.48734401826652884,0.7226155887601814,-0.342090096369374,0.35113656133561777
-1173.6075685024261,5328.0,268.0,16580.0,-596.0,2147.0,-3989.0,0.6607691280602968,0.6970799226113009,-0.01613802676819853,0.2778548271790273
-1173.6231756210327,4692.0,-72.0,16344.0,-667.0,2171.0,-3778.0,0.7430211860518129,0.5703888418011346,0.3012353373568127,0.17841905098515884
-1173.6388041973114,3960.0,-452.0,15664.0,-685.0,1952.0,-3306.0,0.7359156261716187,0.3867396588939784,0.5506659680482833,0.07501745815775654
-1173.654422044754,3556.0,-736.0,15184.0,-708.0,1542.0,-2638.0,0.6781170271404895,0.19705234787505901,0.7079993123914852,-0.00804010897038529
-1173.670030593872,3160.0,-884.0,14776.0,-673.0,1078.0,-1839.0,0.6103637436210778,0.04347175077723446,0.7889627765443709,-0.05571395323096604
-1173.685597896576,3196.0,-1248.0,14828.0,-726.0,620.0,-791.0,0.5633661872213808,-0.04641142211093988,0.8236602976707967,-0.045257408610512764
-1173.7011864185333,3084.0,-1500.0,15272.0,-621.0,172.0,208.0,0.5484251684688001,-0.06121437423029835,0.8339086037808383,0.008892441613766962
-1173.7167582511902,3544.0,-1532.0,15676.0,-518.0,-177.0,1181.0,0.5541320616421266,9.206125031799912e-05,0.8259803974915139,0.10341195648827796
-1173.7323489189148,3524.0,-1500.0,15972.0,-495.0,-353.0,1921.0,0.5538180650535357,0.1160596779518339,0.7922072432735525,0.22852436561336834
-1173.7479610443115,3272.0,-1516.0,15840.0,-540.0,-193.0,2335.0,0.5149071092051963,0.24982837405592082,0.7324260654708287,0.3687933174902228
-1173.7635750770569,2708.0,-1724.0,14988.0,-447.0,52.0,2572.0,0.42762600394840466,0.3826725435245554,0.6476004002812409,0.5013097313389625
-1173.7792270183563,1296.0,-1624.0,14464.0,-37.0,-13.0,2011.0,0.3365011405689587,0.48804104439845125,0.5695324358127081,0.5693994432167127
-1173.7948117256165,820.0,-1096.0,13740.0,540.0,-501.0,954.0,0.28943257090126134,0.5730243745473722,0.5379787587624305,0.5463064233527865
-1173.8104429244995,2252.0,32.0,14140.0,1764.0,-1391.0,252.0,0.24972408216619935,0.6825672414979048,0.5634388180620833,0.39278052640245886
-1173.8260374069214,5492.0,1204.0,15820.0,2052.0,-2003.0,467.0,0.20354450669355767,0.7938074704693646,0.5450239381916212,0.17716726678481245
-1173.841634273529,7732.0,1524.0,18684.0,2163.0,-1699.0,875.0,0.11731333577626916,0.8728715557672313,0.4728662080604373,-0.02702550010787692
-1173.8572866916656,8208.0,844.0,19700.0,1784.0,-780.0,1209.0,0.016113788889651343,0.9209605716805938,0.3613832973033615,-0.14482431994497313
-1173.8729288578033,7244.0,-56.0,18120.0,881.0,-282.0,1386.0,-0.02801011209662486,0.9523365182526154,0.23593882461743484,-0.19132030906561864
-1173.8885328769684,6272.0,-1176.0,15720.0,364.0,-875.0,1507.0,-0.014919030955369852,0.9563903588276232,0.10545278444738072,-0.27198274634472114
-1173.9041182994843,5320.0,-1468.0,14948.0,69.0,-1575.0,1424.0,0.02715238118170745,0.9163820086408035,-0.012800419375305244,-0.399177794597127
-1173.919810295105,4988.0,-1452.0,15212.0,40.0,-1965.0,1304.0,0.06581256132102696,0.8291304393099933,-0.12063203825340657,-0.5419034348745284
-1173.935447692871,4872.0,-1232.0,15368.0,127.0,-2101.0,1204.0,0.08947594318487993,0.7021821023193,-0.22094920237913585,-0.6709067004745503
-1173.9510803222656,4776.0,-1248.0,15100.0,158.0,-1901.0,1348.0,0.11962564410945914,0.5545854654828974,-0.3210468879947123,-0.7583228616199208
-1173.9666922092438,4728.0,-1304.0,13860.0,97.0,-1956.0,1576.0,0.16063998959154888,0.37296233578753185,-0.414278246828476,-0.8145350968697788
-1173.98322224617,4508.0,-1308.0,12992.0,-51.0,-2611.0,1788.0,0.1880038885965386,0.11741401933938961,-0.4871234066920502,-0.8447362147960045
-1173.9990239143372,5116.0,-1628.0,13232.0,-188.0,-3483.0,1870.0,0.16992226897555673,-0.20993479409493881,-0.5193036874165141,-0.8107881874880306
-1174.0146865844727,5472.0,-2140.0,14288.0,-142.0,-3708.0,2103.0,0.13883308061599334,-0.5339969424411349,-0.49252079507924496,-0.6730497066374078
-1174.0302965641022,6088.0,-2436.0,15056.0,240.0,-3393.0,2640.0,0.14912666136218108,-0.7899480673272178,-0.3974489543499613,-0.44246764682074236
-1174.0459394454956,6312.0,-2612.0,15300.0,898.0,-2877.0,3162.0,0.21810129238048273,-0.9334988956678665,-0.2350086157841028,-0.16056957543718203
-1174.0615513324738,6616.0,-2652.0,14688.0,1315.0,-2784.0,3338.0,0.2928235112690652,-0.9444522429876886,-0.03200949459278644,0.1457386160888526
-1174.0771744251251,6756.0,-2448.0,14212.0,1470.0,-3275.0,3720.0,0.3259487024986869,-0.7980881129619088,0.19110357650151347,0.4693529911874985
-1174.0927970409393,6432.0,-1708.0,14260.0,1430.0,-3837.0,3710.0,0.30410194143534036,-0.4847993321421054,0.3593372954608196,0.7371352147745548
-1174.1084053516388,7156.0,-1056.0,14364.0,1368.0,-4016.0,3698.0,0.22441595938001302,-0.06638968786952124,0.44621877474880317,0.8637816226233415
-1174.1240742206573,7992.0,-724.0,14724.0,1344.0,-3880.0,3618.0,0.09972056278738331,0.3550648744308346,0.4442390047096477,0.8164780774750569
-1174.1396753787994,8144.0,-524.0,14960.0,985.0,-3836.0,3280.0,-0.01447739797772938,0.6971801609623629,0.3459662029589963,0.6277241547992419
-1174.155305147171,8036.0,-468.0,14980.0,450.0,-3282.0,2903.0,-0.0950656996893435,0.8998507779132207,0.18485154592796815,0.38348532722854883
-1174.1709125041962,7748.0,-836.0,15396.0,317.0,-3044.0,2923.0,-0.15827218084582942,0.981439613444468,-0.008340078887894056,0.1079659437805377
-1174.1865167617798,7344.0,-1692.0,15500.0,545.0,-2825.0,3059.0,-0.22147436669568055,0.9373130772238036,-0.21242453578384854,-0.1651336330339994
-1174.2021250724792,6836.0,-2560.0,14892.0,909.0,-2511.0,3241.0,-0.27766548826181514,0.7731253521668651,-0.4151422778444008,-0.3909423942364793
-1174.2177901268005,6876.0,-3420.0,14520.0,1225.0,-2344.0,3656.0,-0.2982567500144767,0.49398448262487177,-0.6018407908518126,-0.5520959196222197
-1174.2334303855896,7028.0,-2916.0,14092.0,1722.0,-2383.0,4215.0,-0.26878951251745836,0.10293794378113835,-0.7340184575802057,-0.6151202172114928
-1174.249053478241,7420.0,-2068.0,14432.0,1777.0,-2368.0,4496.0,-0.17655025397799098,-0.3204097108414747,-0.7368912476239715,-0.5684706801533179
-1174.2647075653076,7868.0,-1732.0,15288.0,1808.0,-2023.0,4647.0,-0.023072400448815776,-0.6766566752803398,-0.6022533524460271,-0.4229589904513295
-1174.2803354263306,8096.0,-1972.0,15684.0,2131.0,-400.0,4724.0,0.23332938198369826,-0.8596964005396192,-0.36521405841967275,-0.27036676928749975
-1174.295977115631,7488.0,-2032.0,15588.0,2311.0,639.0,4810.0,0.4895129117999909,-0.8608209316663453,-0.04142313928051329,-0.13284786907710208
-1174.311597585678,7208.0,-2272.0,14964.0,2868.0,1141.0,4847.0,0.6841804375571693,-0.6636803190225443,0.30236482835944717,-0.0010361357903977892
-1174.3272640705109,7804.0,-2416.0,14824.0,2968.0,1532.0,4681.0,0.7294654970637389,-0.32412878250278143,0.5940627563168471,0.0995492968536063
-1174.342861175537,8264.0,-2400.0,14576.0,2997.0,1902.0,4213.0,0.6120309835773357,0.06189164057172528,0.7753480895611872,0.14290850213516643
-1174.3584518432617,8888.0,-1872.0,14096.0,3204.0,2253.0,4024.0,0.3520711698253,0.42860407422348146,0.8206173696956586,0.13759204733797697
-1174.3740634918213,9208.0,-1428.0,14112.0,3348.0,2364.0,3752.0,0.011161189083042804,0.694503374044191,0.7135762836614427,0.0913749347217906
-1174.3896548748016,3920.0,-1280.0,21072.0,1946.0,2653.0,880.0,-0.2675354095199552,0.6997772604801241,0.6501980960321384,0.12640817332793225
-1174.4052910804749,6820.0,1060.0,25464.0,-249.0,3584.0,-1671.0,-0.41332879645506565,0.5397946226774343,0.6292249632995721,0.37663910698463776
-1174.4208984375,8456.0,6536.0,24008.0,-1960.0,5863.0,-2741.0,-0.476149947227405,0.23003218690592997,0.4153611930529721,0.7401631577214759
-1174.4365575313568,4484.0,3868.0,16892.0,-1322.0,5734.0,-3501.0,-0.3702324371455175,-0.18241182379043908,0.13884260754827113,0.9002091975512876
-1174.452163219452,4608.0,-1104.0,15980.0,-651.0,3524.0,-3200.0,-0.1585593900950351,-0.4396898595974615,-0.07121373008552512,0.8811698768269155
-1174.4677991867065,7104.0,-4240.0,18628.0,325.0,2147.0,-2576.0,0.06274190261656615,-0.569033872092635,-0.1677105876606219,0.8025815004433161
-1174.483457326889,9140.0,-5092.0,20952.0,725.0,2316.0,-1110.0,0.20498304394069364,-0.692405570485019,-0.15522602244173483,0.6741374931088175
-1174.4990968704224,7964.0,-5408.0,22100.0,-237.0,3616.0,433.0,0.20413479176822347,-0.8720561298341327,-0.07462107256540039,0.4384960532748816
-1174.5147030353546,5072.0,-4352.0,21092.0,-1109.0,4296.0,1776.0,0.07361839765104221,-0.9854978728372671,0.08737412042061986,0.1254593051201779
-1174.5302872657776,2904.0,-1956.0,19188.0,-552.0,4495.0,2680.0,-0.034064489214941394,-0.9249128820504066,0.30966295383929865,-0.21790967443244924
-1174.5459308624268,1216.0,608.0,18036.0,165.0,4482.0,2855.0,-0.07945893644187993,-0.6920474050170904,0.4750307420793348,-0.5376824906096468
-1174.5615413188934,-228.0,3132.0,16984.0,231.0,3896.0,1992.0,-0.1247697383941709,-0.39987978155698617,0.5206646368072718,-0.743933470588156
-1174.5772063732147,-588.0,4588.0,15492.0,-44.0,2682.0,622.0,-0.20208412948691568,-0.191453754989407,0.5016219919444462,-0.8190743809372002
-1174.5928020477295,-624.0,4244.0,14988.0,-74.0,1546.0,-331.0,-0.29194051609676314,-0.09318242546615735,0.469485188458622,-0.8280527932827542
-1174.6084053516388,-192.0,2592.0,15920.0,-235.0,768.0,-983.0,-0.39400481702103385,-0.07150703287497646,0.4559219194468276,-0.7948472505969679
-1174.6240463256836,400.0,824.0,16780.0,247.0,624.0,-1114.0,-0.49147492136333176,-0.08050368887799071,0.4075477086198616,-0.7654256482158427
-1174.6396446228027,376.0,360.0,16716.0,825.0,1118.0,-677.0,-0.5655973373812886,-0.06466206094228406,0.2967941931712924,-0.7667018173460232
-1174.6552934646606,384.0,640.0,16300.0,1219.0,1588.0,-230.0,-0.6059708058539239,-0.024122289899391972,0.13321386766316287,-0.7838823655657634
-1174.670904159546,-240.0,668.0,15528.0,1635.0,1780.0,765.0,-0.5574001030371709,0.019636387986177405,-0.06978774786994403,-0.8270726737404933
-1174.6866118907928,-464.0,904.0,14656.0,1686.0,1751.0,1163.0,-0.4533483321563792,0.055238989927691884,-0.27100405467536837,-0.8473374452202072
-1174.7022132873535,-644.0,848.0,14204.0,1488.0,1370.0,1376.0,-0.31921100888392495,0.06364550929004358,-0.431910137344463,-0.8411344804569628
-1174.7177786827087,-416.0,1008.0,14336.0,1539.0,1143.0,1433.0,-0.17570878592988923,0.04955747075549775,-0.5721679164691109,-0.799558850243532
-1174.7333886623383,140.0,828.0,14448.0,1997.0,787.0,1735.0,-0.02330468429270209,-0.012460017444837662,-0.7106548467989661,-0.7030443288843385
-1174.7490074634552,568.0,924.0,15248.0,2415.0,402.0,2073.0,0.12661397095819596,-0.11681171795778636,-0.8255864640391912,-0.5373368732008
-1174.7646412849426,1060.0,1068.0,15992.0,2547.0,321.0,2547.0,0.281525008906756,-0.24523202591837487,-0.8730268063348802,-0.3137341521810151
-1174.7802319526672,1376.0,1244.0,16340.0,2360.0,434.0,3001.0,0.4241393579401542,-0.3830724357255477,-0.8179380424196828,-0.06586860250579837
-1174.7959082126617,1280.0,1208.0,16068.0,2230.0,403.0,3193.0,0.5165728197137521,-0.4978753109776754,-0.6709254262887151,0.1874347059943066
-1174.8115084171295,1700.0,816.0,15916.0,2355.0,176.0,3572.0,0.5347292234204725,-0.565499616425781,-0.4394662786903208,0.4484910604867331
-1174.827100276947,1976.0,692.0,15848.0,2382.0,-50.0,3796.0,0.4673645792187524,-0.5567874726302018,-0.15003278992498276,0.6701106045729143
-1174.8426966667175,2024.0,832.0,15952.0,2189.0,29.0,3644.0,0.3384883574347347,-0.48446584621247335,0.14656180929452678,0.7932453036678392
-1174.8582918643951,1828.0,1744.0,15628.0,1839.0,106.0,3155.0,0.18718618279700464,-0.3781632171099218,0.3910103066497489,0.8179638465657452
-1174.873943567276,1816.0,2448.0,15500.0,1462.0,237.0,2656.0,0.03645943764673108,-0.27101939969316785,0.5672071730383209,0.776849546083613
-1174.8895497322083,1644.0,2888.0,15552.0,854.0,-392.0,1758.0,-0.04251850759161118,-0.15230645124043538,0.6555002251651378,0.7384540447659425
-1174.9051792621613,2108.0,3132.0,14620.0,367.0,-522.0,482.0,-0.038773405143532974,-0.09216642624183208,0.6857205630647578,0.7209641338634925
-1174.9208958148956,3284.0,3088.0,13840.0,-175.0,-801.0,-730.0,0.05342705649963755,-0.08442822732424532,0.6683718479219569,0.737086492190746
-1174.9365670681,3588.0,2872.0,13524.0,-898.0,-586.0,-1341.0,0.16540486477922256,-0.12767149716173987,0.5912542946156851,0.7789477380533021
-1174.9521765708923,4288.0,2236.0,14312.0,-1559.0,-95.0,-1833.0,0.27161358511971334,-0.23314761485093127,0.45341000538687964,0.8162644284071235
-1174.9678452014923,4248.0,1796.0,15476.0,-2018.0,562.0,-2494.0,0.37129076224001034,-0.4036198398910455,0.26169234727113466,0.7941985331774939
-1174.9836139678955,3608.0,1980.0,15988.0,-2374.0,659.0,-3117.0,0.4617384132207794,-0.5643078067221738,0.00810846039103674,0.684316147623928
-1174.9992609024048,3720.0,1968.0,15528.0,-2564.0,374.0,-4016.0,0.5307990221717058,-0.6392943837193,-0.3025390960396867,0.4669316699197114
-1175.014909029007,2992.0,1824.0,14780.0,-3299.0,-60.0,-4494.0,0.47510289558639546,-0.6032929471397861,-0.6209342723229675,0.15733876824089152
-1175.0305750370026,2904.0,1144.0,15124.0,-3619.0,-434.0,-4746.0,0.28918035446378515,-0.4344371528502135,-0.8319036528946124,-0.18861440855936767
-1175.0461766719818,2876.0,580.0,15780.0,-3738.0,-543.0,-5087.0,0.021252932443621315,-0.14727893697257688,-0.8549083964955358,-0.4969797392129848
-1175.061815738678,2216.0,-96.0,17224.0,-3773.0,-454.0,-5605.0,-0.2619362618401583,0.21031573474899182,-0.6577389929942282,-0.6741929275401326
-1175.0774302482605,2404.0,-1216.0,19064.0,-3399.0,-322.0,-6228.0,-0.49682910246238404,0.5325647590882818,-0.2854780511984292,-0.6229268838375894
-1175.093022108078,2968.0,-1988.0,19940.0,-2524.0,-401.0,-6647.0,-0.6378033219202865,0.6673160992647464,0.1513782383010117,-0.3535262015444011
-1175.1086921691895,2876.0,-1312.0,17992.0,-1064.0,-732.0,-6574.0,-0.6639214582441237,0.5325870335646555,0.5247526833266732,-0.013927322185293505
-1175.1242887973785,2112.0,-216.0,15804.0,-811.0,-1475.0,-6014.0,-0.49701711703182916,0.26537199002327905,0.7821011101150278,0.26621334648228073
-1175.139925956726,2088.0,692.0,14508.0,-1265.0,-1909.0,-5565.0,-0.18426715391934947,-0.013580001174635084,0.8537616719289266,0.4867773691326288
-1175.1555228233337,2440.0,1032.0,13840.0,-1748.0,-2077.0,-5066.0,0.16417414433465227,-0.2455795515468753,0.7211565616900295,0.626634461010113
-1175.1711118221283,2992.0,932.0,14800.0,-1834.0,-1711.0,-4579.0,0.4395453973546373,-0.42447356903830696,0.45322463681161373,0.6490065187956255
-1175.1867806911469,3204.0,620.0,16124.0,-1375.0,-774.0,-3885.0,0.6004031420927237,-0.5512143990124794,0.18930677511353142,0.5475780293096234
-1175.202376127243,3092.0,20.0,17512.0,-606.0,163.0,-3146.0,0.6923769364386263,-0.6188145474916461,0.016805529508128095,0.3706754751511401
-1175.2180008888245,2796.0,-1152.0,18592.0,139.0,787.0,-2510.0,0.7602102336491553,-0.6231616043184222,-0.06504319253327484,0.1718121027851821
-1175.233597278595,2800.0,-2800.0,18684.0,487.0,1401.0,-1809.0,0.8052750461351972,-0.5892784873113724,-0.06190462048521472,-0.0212316373970159
-1175.249172449112,2660.0,-3544.0,17476.0,384.0,1117.0,-1299.0,0.8191966163846349,-0.5466505398800466,-0.050334967159295,-0.16600145190296262
-1175.2647414207458,2356.0,-2712.0,16368.0,142.0,476.0,-897.0,0.8119246138626017,-0.5233886885833146,-0.060915846698240926,-0.2512607444232778
-1175.2803308963776,2076.0,-684.0,15600.0,-165.0,-133.0,-892.0,0.7817195247188958,-0.5313789599093327,-0.10713339890521427,-0.30833978088783104
-1175.2959415912628,2532.0,564.0,15700.0,-364.0,-211.0,-1117.0,0.7289514496022883,-0.5483115462024162,-0.16266025709718737,-0.3761992466564962
-1175.31152677536,2760.0,1040.0,15840.0,-306.0,-67.0,-1499.0,0.6583627891413361,-0.5437022789884961,-0.2265879190411975,-0.46861944543663153
-1175.3271169662476,2980.0,972.0,16048.0,-77.0,119.0,-1684.0,0.581956817473557,-0.5043394811440892,-0.2933098280497081,-0.5665132788600906
-1175.3427102565765,3016.0,356.0,16160.0,142.0,221.0,-1674.0,0.5056567559042464,-0.4384216245987226,-0.35882564357624824,-0.6506472791034336
-1175.3582994937897,2848.0,-368.0,16280.0,257.0,236.0,-1432.0,0.4380153658103874,-0.3656816117811109,-0.41428209928852494,-0.7090767520714906
-1175.3739385604858,2776.0,-996.0,16208.0,320.0,74.0,-1028.0,0.3856430221313332,-0.31022280915949835,-0.4618878559713981,-0.7360033129441378
-1175.3895518779755,2532.0,-1340.0,16060.0,501.0,-158.0,-668.0,0.34903583119849096,-0.27575160660156606,-0.5159158588034426,-0.7320968970234338
-1175.4051764011383,2656.0,-1652.0,16312.0,3.0,-502.0,-212.0,0.3126685299938674,-0.29781214902636033,-0.5357539123942202,-0.7256128854961583
-1175.42076253891,3044.0,-1348.0,16556.0,323.0,-635.0,76.0,0.2956711541782489,-0.3320795628414178,-0.570321240294033,-0.6906775046281954
-1175.4363589286804,3260.0,-648.0,16516.0,398.0,-537.0,155.0,0.28936301288382543,-0.3612086294519998,-0.6024896539391872,-0.6502334885873237
-1175.4519937038422,3400.0,-232.0,16592.0,404.0,-487.0,17.0,0.2770915370541293,-0.3789202880693006,-0.6361174273543672,-0.6123677930774278
-1175.4675965309143,3400.0,256.0,16404.0,397.0,-483.0,-202.0,0.2522476857147918,-0.38325142534145695,-0.6745103847521481,-0.5783815270967619
-1175.4832513332367,3428.0,356.0,16624.0,317.0,-368.0,-283.0,0.2266775465679648,-0.37770149607361564,-0.7071609368614825,-0.5530662520194763
-1175.4988434314728,3404.0,156.0,16220.0,164.0,-110.0,-414.0,0.20519305601367005,-0.3539009694569823,-0.7302511447607707,-0.5471591899591587
-1175.5144672393799,3368.0,-132.0,16184.0,90.0,74.0,-458.0,0.1907011916331301,-0.31926617713187333,-0.7466707071447124,-0.5515297079408492
-1175.530036687851,3312.0,-492.0,16228.0,41.0,136.0,-466.0,0.17815897327391658,-0.28139197652483344,-0.7586141362974566,-0.5599843997819008
-1175.5456233024597,3076.0,-876.0,16300.0,171.0,249.0,-367.0,0.18079845894889007,-0.24203723995231774,-0.7713833216455774,-0.5600871921451216
-1175.5612261295319,3388.0,-1188.0,16424.0,325.0,295.0,-212.0,0.19703424630673572,-0.20801515490246608,-0.7863166228148222,-0.5473695002448823
-1175.576854467392,3480.0,-1176.0,16368.0,434.0,262.0,-171.0,0.21454545477281728,-0.17609992109503353,-0.8047093662367921,-0.5247874822415529
-1175.592515707016,3576.0,-592.0,16508.0,402.0,296.0,-10.0,0.24088413584422394,-0.15416171066598258,-0.816895573434012,-0.5008898303689506
-1175.608107805252,3596.0,-196.0,16276.0,393.0,367.0,-449.0,0.252296617960372,-0.09765078870154359,-0.8307903299414218,-0.4864135768125187
-1175.623722076416,3552.0,64.0,16220.0,507.0,343.0,-631.0,0.25401253451391526,-0.026086299219320316,-0.8475913102242937,-0.46517320229686754
-1175.6393089294434,3420.0,-32.0,16224.0,164.0,413.0,-797.0,0.25184016483463867,0.053113041062917,-0.8441783557649692,-0.4702323254552628
-1175.6548991203308,3356.0,-260.0,16068.0,97.0,452.0,-902.0,0.2467668936578844,0.1397083035981558,-0.830741828050729,-0.4790153496779585
