programtime,ax,ay,az,gx,gy,gz,q0,q1,q2,q3
-383.96272802352905,2272.0,13104.0,9532.0,119.0,276.0,-148.0,0.9995708211980706,0.010705261579401057,0.02401885583191547,-0.0129098934332097
-383.9705204963684,2216.0,13168.0,9500.0,138.0,337.0,-97.0,0.9980831918799377,0.02322873313375883,0.0532503026931181,-0.021325414576221485
-383.97831559181213,2260.0,13300.0,9428.0,114.0,332.0,-93.0,0.9956336215788819,0.033644118983512154,0.08201391590844906,-0.029248631368060236
-383.98610401153564,2500.0,13408.0,9556.0,82.0,330.0,-46.0,0.9924690254721329,0.041573041234937685,0.1104527089817773,-0.03281942716532114
-383.99388337135315,2140.0,13476.0,9616.0,18.0,365.0,-75.0,0.9881517751094925,0.04373796211084839,0.14209515594485164,-0.038105467788196706
-384.00166392326355,2252.0,13460.0,9484.0,255.0,363.0,-78.0,0.9816649592660593,0.06621469527540921,0.17258347118970865,-0.046523836373004016
-384.00943517684937,2168.0,13392.0,9384.0,-43.0,303.0,-39.0,0.9768515204913926,0.06343923041920059,0.1987229789885249,-0.0473893298053501
-384.0172321796417,2132.0,13336.0,9220.0,-77.0,276.0,-25.0,0.9721025695371226,0.057847125705321134,0.22248810564883859,-0.046576251370714764
-384.0250120162964,2264.0,13352.0,9376.0,-40.0,300.0,-249.0,0.9649336516774258,0.051082702877339646,0.24905705218918367,-0.06530076632052782
-384.03280305862427,2060.0,13340.0,9324.0,-46.0,0.0,0.0,0.9651643295694669,0.047474063174572555,0.24915677778550593,-0.06422562055723736
-384.04057931900024,2068.0,13408.0,9264.0,-35.0,271.0,47.0,0.9594351226884975,0.047319891889763044,0.27174837167746413,-0.058291471708094574
-384.0483727455139,2284.0,13444.0,9352.0,-51.0,267.0,115.0,0.9536229345490997,0.047376828291774496,0.29363091343016867,-0.046256043076984506
-384.05614852905273,2344.0,13388.0,9340.0,-82.0,232.0,91.0,0.9481801847923412,0.04405949991139678,0.3126511871819632,-0.03552932293793913
-384.0639250278473,2240.0,13408.0,9340.0,-135.0,194.0,-250.0,0.9422580960877006,0.026901577429358652,0.3297807312345481,-0.05167837841303274
-384.0717406272888,2248.0,13408.0,9464.0,-251.0,167.0,-91.0,0.9373363306148598,0.004629232026907792,0.3445764130506735,-0.05144190013445347
-384.0795819759369,2108.0,13440.0,9224.0,-310.0,106.0,-15.0,0.9338872019667737,-0.020463360678680226,0.3543579655566246,-0.04320158699601964
-384.0873553752899,2300.0,13472.0,9260.0,-361.0,66.0,-387.0,0.928808540053844,-0.06131233078040744,0.35988475940638226,-0.06354883133725683
-384.0951392650604,2276.0,13404.0,9388.0,-491.0,-110.0,-517.0,0.9250184575967552,-0.11751237532146651,0.3501070208180783,-0.08920072155266669
-384.1029498577118,1904.0,13420.0,9280.0,-565.0,-182.0,-600.0,0.9177164488519037,-0.18217009792364489,0.33264935018786396,-0.1181312183494803
-384.1107292175293,1856.0,13484.0,9128.0,-542.0,-296.0,-599.0,0.9090512145863636,-0.24513155426112035,0.3040541699579335,-0.14521526123578257
-384.11851143836975,1752.0,13360.0,9032.0,-516.0,-417.0,-569.0,0.8993485391073462,-0.3053768229916497,0.2644814887328793,-0.16723260239154467
-384.12629675865173,1844.0,13372.0,8668.0,-434.0,-489.0,-190.0,0.8948105591304036,-0.3501668436552595,0.2268907467269013,-0.15880124030673168
-384.1340699195862,1648.0,13292.0,8760.0,-286.0,-714.0,98.0,0.8995998750800337,-0.3794119274343329,0.177612498056989,-0.12337120656988204
-384.14185404777527,1816.0,12768.0,8968.0,-118.0,-515.0,242.0,0.905206427705705,-0.3897879507596474,0.14621255738755407,-0.0853730914577994
-384.1496613025665,2192.0,12708.0,9124.0,86.0,-849.0,441.0,0.9191124895785997,-0.3821632108515615,0.09311285340531192,-0.022660721589882322
-384.1574559211731,2288.0,12656.0,9304.0,217.0,-806.0,633.0,0.9303534048509856,-0.3595006886819383,0.04888923501222613,0.05302489622157798
-384.1652479171753,2300.0,12620.0,9404.0,349.0,-1009.0,753.0,0.9361335707136551,-0.32097309212805536,-0.0077819587932102235,0.14342124330097675
-384.17302775382996,2312.0,12644.0,9544.0,452.0,-1013.0,804.0,0.9314772109948098,-0.26973773928468026,-0.061933475320239004,0.23612708874179972
-384.180850982666,2536.0,12972.0,9712.0,463.0,-733.0,1021.0,0.9112316400639379,-0.22073874899462467,-0.08732848340192548,0.3366081383825908
-384.1886341571808,2164.0,13252.0,9676.0,459.0,-693.0,780.0,0.8875516341554052,-0.16871018034917415,-0.1133084468859001,0.41346120449072865
-384.19642448425293,2140.0,13528.0,9672.0,459.0,-627.0,1019.0,0.8461134300422866,-0.11957995241784664,-0.12940626632356497,0.5030374903702675
-384.2042474746704,2180.0,13800.0,9596.0,429.0,-649.0,669.0,0.8106908384878209,-0.06642132995739485,-0.1507789596457431,0.5618133824026907
-384.21203994750977,2092.0,13920.0,9692.0,404.0,-677.0,608.0,0.7714512615516124,-0.012332819459979449,-0.17452104766872104,0.6117624183743271
-384.21981954574585,2300.0,14068.0,9472.0,409.0,-601.0,582.0,0.7293094355244898,0.03854897882438705,-0.1916971984993848,0.6556477008074036
-384.22760558128357,2324.0,14036.0,9696.0,370.0,-565.0,521.0,0.6869567973288989,0.08570098975775085,-0.20744795586211187,0.6911664376738756
-384.2353823184967,2728.0,14060.0,9532.0,373.0,-536.0,572.0,0.6381971075310392,0.12987434021249505,-0.22049651463159217,0.7260980613723632
-384.24317026138306,2780.0,13908.0,9456.0,396.0,-434.0,761.0,0.5751896336773505,0.1643914606578055,-0.22715409112768273,0.7684616788473351
-384.250940322876,2764.0,13708.0,9352.0,440.0,-394.0,479.0,0.5278639470264904,0.20311116207387117,-0.22354170601204798,0.7938101882338366
-384.25872707366943,2772.0,13532.0,9432.0,452.0,-371.0,401.0,0.48399772881074915,0.2414751696686536,-0.2157430273374422,0.8129519586634913
-384.2665157318115,2612.0,13364.0,9220.0,471.0,-308.0,357.0,0.4422929155477972,0.2761313510237017,-0.20223981750518794,0.8289918636835484
-384.2742991447449,2424.0,13336.0,9176.0,492.0,-340.0,411.0,0.3940128798933152,0.3119137500403085,-0.18901302494047476,0.8436455057764604
-384.28209400177,2284.0,13072.0,9044.0,508.0,-343.0,481.0,0.3384379101897832,0.3459476964668031,-0.17581234579877944,0.8572455840191977
-384.289883852005,2256.0,13252.0,9276.0,755.0,-300.0,430.0,0.27808682248648803,0.3828800346747763,-0.14044278153757975,0.8696817942907615
-384.2976562976837,2208.0,13136.0,9340.0,470.0,-269.0,362.0,0.2313517272416188,0.4095903350025827,-0.1229265391771672,0.8738427786167923
-384.30543208122253,2232.0,13148.0,9416.0,483.0,-270.0,326.0,0.1861539636305701,0.43571757544293677,-0.10277478897547292,0.8746051903720924
-384.31322598457336,2188.0,13308.0,9432.0,517.0,-197.0,385.0,0.1352253861948679,0.45486243184545155,-0.080764209284672,0.8765223360090216
-384.3210201263428,2296.0,13088.0,9384.0,598.0,-123.0,362.0,0.08288610020088556,0.4678120711239192,-0.050504169083559515,0.8784822647096623
-384.32879185676575,2252.0,13384.0,9600.0,632.0,-89.0,347.0,0.030141736349073245,0.4766350043610663,-0.016596581131777467,0.8784276303955414
-384.3365669250488,2288.0,13460.0,9632.0,627.0,-41.0,312.0,-0.019767693079644193,0.4799748614323432,0.018572749270875186,0.8768628305999937
-384.3443567752838,2420.0,13416.0,9600.0,593.0,55.0,288.0,-0.06651374720673559,0.4743022170129253,0.05192267897540716,0.87630894311148
-384.3521378040314,2584.0,13564.0,9720.0,545.0,39.0,0.0,-0.08903586126548031,0.46749132808365373,0.09348144886610918,0.874520264083794
-384.35991954803467,2484.0,13800.0,9660.0,491.0,53.0,318.0,-0.13348340142804332,0.4614750612964498,0.11761972366031655,0.8691309164623638
-384.3677337169647,2436.0,13636.0,9540.0,481.0,54.0,265.0,-0.1732000645364287,0.4538146609216439,0.14283421142304026,0.8623528159774909
-384.37554383277893,2492.0,13712.0,9232.0,408.0,61.0,178.0,-0.20324960231515254,0.44477046121059194,0.16563471370219224,0.8564076001589679
-384.38333892822266,2572.0,13600.0,9720.0,364.0,92.0,161.0,-0.2304899210320418,0.4333131099711221,0.18502261469302778,0.8513993053097666
-384.3911306858063,2560.0,13808.0,9352.0,233.0,85.0,120.0,-0.24941053559921939,0.4239446502770895,0.1962122662403787,0.8482724001229568
-384.3989360332489,2664.0,13740.0,9340.0,148.0,148.0,3.0,-0.2574917939535677,0.40956218128977406,0.20398122494668527,0.8510866322372743
-384.40671133995056,2708.0,13644.0,9280.0,67.0,134.0,-67.0,-0.2571596111849241,0.39667779090517313,0.2085013182148549,0.856179224742389
-384.41448497772217,2664.0,13580.0,9044.0,44.0,82.0,-157.0,-0.24829959813020705,0.38646288346100843,0.21554413715824042,0.8617044007152861
-384.4223051071167,2692.0,13508.0,9092.0,-14.0,41.0,-243.0,-0.23015546669290973,0.3788258720163083,0.22193639619677097,0.8684835380625487
-384.43008637428284,2644.0,13504.0,9056.0,-16.0,-6.0,-249.0,-0.21046868630243276,0.3744908393522903,0.22921442453668214,0.8734530845510039
-384.43786883354187,2564.0,13428.0,9056.0,-35.0,-131.0,-333.0,-0.18110902505538906,0.3780706910275334,0.23991016207389915,0.875617032590804
-384.44567608833313,2612.0,13396.0,8924.0,-67.0,-256.0,-352.0,-0.1464039747785883,0.39083313936087305,0.25045738817701774,0.8735481841626719
-384.45346665382385,2480.0,13368.0,8712.0,-57.0,-314.0,-348.0,-0.11083901333971494,0.4073478861638376,0.26195745394273373,0.8678483191684895
-384.46124744415283,2500.0,13520.0,9016.0,-50.0,-436.0,-353.0,-0.0721345269079611,0.43206180708553127,0.2747774890289482,0.8559302170204626
-384.46904373168945,2428.0,13436.0,9052.0,-39.0,-472.0,-358.0,-0.032420160973709186,0.45816715862164753,0.2881015245709904,0.8402554965383302
-384.47682189941406,2516.0,13324.0,9192.0,-20.0,-465.0,-388.0,0.008651733746874049,0.4816978402959762,0.3031719827839742,0.8221794737234682
-384.4846556186676,2616.0,13316.0,9196.0,-10.0,-416.0,-412.0,0.049717465208853256,0.49979370890086944,0.3191541136250651,0.8036635327999636
-384.49243092536926,2768.0,13260.0,9404.0,13.0,-359.0,-464.0,0.09171189050828,0.5112448889879202,0.3383897080098402,0.7846719047704853
-384.50024342536926,2728.0,13248.0,9496.0,0.0,-281.0,-570.0,0.13896687623517254,0.5126772662388511,0.36108091546229737,0.7664664379346336
-384.5080280303955,2828.0,13292.0,9620.0,-42.0,-200.0,-602.0,0.18726159917456675,0.5056095774613543,0.3822303936040694,0.7504611747846871
-384.51580834388733,2668.0,13428.0,9512.0,-109.0,-106.0,-581.0,0.23346981249094192,0.490527599107772,0.39846587729948446,0.7389854300302283
-384.5235879421234,2724.0,13480.0,9744.0,-136.0,-29.0,-608.0,0.27922258495199825,0.46760369636811006,0.41450906571010937,0.7290841965368176
-384.5313754081726,2528.0,13512.0,9968.0,-252.0,111.0,-545.0,0.3198301635833849,0.4338832641515739,0.4227824463171843,0.7284977574690661
-384.53915309906006,2544.0,13408.0,9768.0,-316.0,173.0,-466.0,0.35467784752072096,0.3961635196892168,0.42453959086115434,0.7328193678778989
-384.54693150520325,2268.0,13292.0,9816.0,-322.0,247.0,-429.0,0.38368409041900453,0.3538555911776886,0.4257673670747919,0.7391176418445368
-384.5547115802765,2240.0,13248.0,9836.0,-340.0,268.0,-437.0,0.41189948294761886,0.308343188442965,0.42555963770529565,0.7444207740548672
-384.5624899864197,2348.0,13120.0,9476.0,-332.0,367.0,-406.0,0.43293422552464955,0.2570072851406008,0.427244195084484,0.7509844269494813
-384.57029938697815,2456.0,13128.0,9556.0,-291.0,441.0,-353.0,0.44541558360157435,0.2037257118412893,0.43186045491700925,0.7573620928581669
-384.5780804157257,2272.0,13128.0,9524.0,-268.0,508.0,-493.0,0.46251567604370225,0.14105311598807244,0.4415203625320567,0.7558062167999505
-384.5858852863312,2336.0,13172.0,9548.0,-225.0,563.0,-227.0,0.4577273915675971,0.08620776942381288,0.4513563332982124,0.761138171353459
-384.5936760902405,2340.0,13072.0,9616.0,-135.0,612.0,-125.0,0.4421469803576643,0.035448860349965826,0.4669542580416629,0.7649857168321825
-384.6014711856842,2252.0,13000.0,9596.0,-40.0,702.0,-87.0,0.4185704165325834,-0.016213841564183522,0.4906238176999479,0.7640838875745248
-384.609251499176,2168.0,12904.0,9632.0,43.0,668.0,27.0,0.3874704307519993,-0.05768565381895454,0.5169735723973754,0.7611027237364453
-384.6170449256897,2140.0,12964.0,9648.0,162.0,676.0,110.0,0.3497276444568325,-0.09174420032530671,0.5500395995985315,0.752814728391277
-384.6248137950897,2088.0,13068.0,9328.0,216.0,690.0,159.0,0.3071548821008161,-0.12238661468700086,0.5852762638918488,0.7403574068461045
-384.632600069046,2176.0,13212.0,9408.0,303.0,663.0,295.0,0.2567714067065486,-0.1415155143753631,0.6242394634137587,0.7241318223955632
-384.640376329422,2196.0,13364.0,9676.0,322.0,656.0,338.0,0.20306560593830822,-0.15679925994045465,0.6617562386783656,0.7044551315288258
-384.6482038497925,2280.0,13428.0,9408.0,339.0,741.0,439.0,0.13738869882245683,-0.17030452031992857,0.6993826647995328,0.6804297200831072
-384.6559772491455,2428.0,13552.0,9344.0,353.0,781.0,384.0,0.07184028533925806,-0.18827029446167035,0.7328815868285377,0.6498290923876633
-384.663761138916,2488.0,13592.0,9496.0,335.0,786.0,332.0,0.008139831077662522,-0.20875656305377016,0.759758514364206,0.6157283819860012
-384.67157316207886,2560.0,13592.0,9320.0,323.0,815.0,239.0,-0.052769647009120034,-0.23566495868204218,0.779525607248268,0.5779422282963438
-384.67936086654663,2468.0,13636.0,9372.0,291.0,839.0,279.0,-0.1176257937175087,-0.2594303903776519,0.7933895640548729,0.5379526418279252
-384.6871566772461,2404.0,13768.0,9332.0,278.0,810.0,207.0,-0.1766921223724214,-0.2850930084373857,0.8003760188641432,0.49689042942970313
-384.6949439048767,2480.0,13656.0,8972.0,277.0,841.0,156.0,-0.23467096537959592,-0.31393621218690654,0.8007651961782488,0.45293343139489806
-384.70273327827454,2516.0,13708.0,9148.0,219.0,845.0,139.0,-0.29243511072159334,-0.34106609925814924,0.7934910337777153,0.4105211337659149
-384.71050930023193,2432.0,13620.0,9212.0,165.0,524.0,124.0,-0.32794227702430423,-0.3550088026676755,0.7886918679629071,0.37998388173415765
-384.7182846069336,2392.0,13348.0,9304.0,116.0,738.0,93.0,-0.37750542569287054,-0.37557016482255906,0.7725520295536842,0.3458324254607772
-384.726056098938,2392.0,13480.0,9320.0,80.0,750.0,56.0,-0.4263057448609407,-0.396186042122043,0.7503734380829638,0.3134321861994742
-384.73382592201233,2276.0,13392.0,9400.0,95.0,708.0,66.0,-0.4703658121539695,-0.41393811071528475,0.7273976513788357,0.2798283402780197
-384.7416322231293,2136.0,13296.0,9316.0,116.0,668.0,141.0,-0.5111900190518645,-0.42527142607272433,0.7065178663501079,0.24220132765102012
-384.7493944168091,2128.0,13168.0,9232.0,157.0,625.0,198.0,-0.5472400169110317,-0.4325176538185878,0.6880119502411021,0.20024085335393774
-384.7571713924408,2280.0,13128.0,9244.0,192.0,597.0,248.0,-0.5792747813169385,-0.436464497837012,0.6709502990001925,0.15415954764350479
-384.76494431495667,2280.0,13128.0,9228.0,189.0,484.0,510.0,-0.6061623571582325,-0.42181025192126836,0.6669999039863781,0.09876454941249925
-384.77273750305176,2132.0,12840.0,9352.0,169.0,486.0,236.0,-0.6296033790286034,-0.4206942414529779,0.6505269847982127,0.05857117357040216
-384.7805449962616,2104.0,13212.0,9328.0,194.0,446.0,263.0,-0.6484975819791208,-0.4182284616447745,0.6358093025581331,0.016803892942396627
-384.7883713245392,2116.0,13200.0,9328.0,201.0,423.0,289.0,-0.6643989933752653,-0.41372947186750375,0.6218718766608897,-0.02602442561198238
-384.7961323261261,2124.0,13348.0,9268.0,154.0,441.0,282.0,-0.6814695177779445,-0.405916960634357,0.6053178342899955,-0.06649087831673545
-384.80392146110535,2148.0,13436.0,9512.0,175.0,395.0,200.0,-0.6944877661675886,-0.4031501465262822,0.5872523742712957,-0.10144629570425824
-384.8117642402649,2264.0,13504.0,9592.0,120.0,395.0,139.0,-0.7088792273441696,-0.39954800836782084,0.5665865513435747,-0.12973553825315454
-384.8196291923523,2048.0,13656.0,9624.0,100.0,450.0,64.0,-0.72643151968346,-0.3971870608977961,0.5392485654874267,-0.1541125254010904
-384.8274185657501,2344.0,13724.0,9636.0,62.0,549.0,-21.0,-0.7496408173019844,-0.39430638184830713,0.5021300031515358,-0.1744321707815062
-384.8352098464966,2456.0,13728.0,9624.0,-27.0,605.0,-52.0,-0.7768909985822737,-0.38511496155465835,0.46033997056070647,-0.19029964322814574
-384.8429870605469,2432.0,13640.0,9688.0,-53.0,663.0,-105.0,-0.8057657740009945,-0.37413967899253164,0.4118263063762834,-0.20287954906399835
-384.85076355934143,2440.0,13600.0,9596.0,-65.0,683.0,-74.0,-0.8323324745371976,-0.35955692885907464,0.36165504434342666,-0.2171338196623682
-384.8585271835327,2420.0,13572.0,9640.0,-126.0,518.0,-93.0,-0.853529303524043,-0.3432369306066811,0.32290058301825014,-0.22228664147883623
-384.8663101196289,2452.0,13472.0,9724.0,-160.0,765.0,-79.0,-0.8794142572770192,-0.3180759429186593,0.26578206097288515,-0.23413277151932502
-384.87408447265625,2300.0,13468.0,9624.0,-132.0,853.0,-126.0,-0.902862299826282,-0.29275466188482147,0.19869453267259685,-0.24424344040960222
-384.88186836242676,2272.0,13168.0,9524.0,-103.0,849.0,-68.0,-0.9190958076688478,-0.26718600660513053,0.13166850921016127,-0.2579494870751344
-384.88968658447266,2108.0,13164.0,9676.0,-140.0,855.0,-132.0,-0.9324087083619417,-0.2377816149725349,0.06280340368495307,-0.26482000800063
-384.89747428894043,1804.0,13060.0,9404.0,-71.0,822.0,-59.0,-0.9372672551854785,-0.21305520679475096,-0.003774321155991348,-0.2759045590680524
-384.90524673461914,1956.0,13284.0,9288.0,-65.0,781.0,12.0,-0.9356890291351724,-0.18879506726366457,-0.06576890433949092,-0.29071792953818654
-384.913024187088,2040.0,13176.0,9460.0,-47.0,683.0,31.0,-0.9300387104588095,-0.1678156071563451,-0.11963057645708733,-0.30422761909367646
-384.9207875728607,1992.0,13180.0,9432.0,-43.0,634.0,53.0,-0.9211631388957802,-0.14813036581307534,-0.1688843463609953,-0.3177954433562222
-384.9285764694214,1812.0,13204.0,9680.0,-78.0,637.0,48.0,-0.9099693999039145,-0.12501905476713898,-0.21691839340466207,-0.3305636667669042
-384.9363679885864,2292.0,13232.0,9480.0,-41.0,661.0,37.0,-0.8952983720160932,-0.10353299123083645,-0.2672993224143746,-0.3409880012976187
-384.9441442489624,1796.0,13096.0,9520.0,24.0,641.0,89.0,-0.876047914596254,-0.08857306494201184,-0.3167002285078994,-0.3526979284903398
-384.95192790031433,2088.0,13116.0,9704.0,61.0,653.0,134.0,-0.8519262213333783,-0.07699832585794529,-0.3667336891463294,-0.3657859653743277
-384.95974469184875,2132.0,13216.0,9616.0,58.0,643.0,131.0,-0.8253930230105165,-0.06514082640780257,-0.4147128439305722,-0.37748680424550796
-384.96756625175476,2160.0,13284.0,9608.0,79.0,588.0,126.0,-0.7983799680735254,-0.05619295134026509,-0.45819683511531295,-0.3866360550813879
-384.97534680366516,2224.0,13332.0,9520.0,43.0,628.0,12.0,-0.771480846288356,-0.03865017251203628,-0.5024739449459569,-0.3883856364818854
-384.9831430912018,2240.0,13332.0,9644.0,60.0,624.0,-243.0,-0.750864035371116,-0.011068985304519554,-0.5462944397888836,-0.3710027803214979
-384.9909541606903,2172.0,13360.0,9504.0,69.0,639.0,-21.0,-0.7198866340752996,0.005905835036606385,-0.5893986976740773,-0.36652084575417737
-384.99872946739197,2072.0,13064.0,9556.0,73.0,651.0,75.0,-0.6829200341114775,0.0180929118640035,-0.6315377587117629,-0.366678241610793
-385.0065052509308,2096.0,13352.0,9604.0,106.0,655.0,107.0,-0.6424679817343614,0.026647819844970295,-0.6728995628828341,-0.3656924451171731
-385.01429319381714,2196.0,13384.0,9776.0,114.0,680.0,36.0,-0.6005725954201308,0.03964756448025093,-0.7133826789907368,-0.3589230858792888
-385.0220687389374,2252.0,13572.0,9792.0,57.0,800.0,15.0,-0.5491572078934767,0.06053043761301795,-0.7552408123909998,-0.35266661656584397
-385.02987027168274,2200.0,13648.0,9652.0,40.0,848.0,-190.0,-0.4978960713308256,0.09686933818237425,-0.7937761553843721,-0.33561175279874134
-385.03765082359314,2136.0,14048.0,9860.0,18.0,948.0,-506.0,-0.44524548746775405,0.15814457022176767,-0.8275516106320315,-0.30315851058366317
-385.0454294681549,2092.0,13892.0,9824.0,33.0,1015.0,-369.0,-0.38046538227344434,0.20938133869099496,-0.8589409326615218,-0.2713411544496035
-385.0532109737396,2176.0,13948.0,9860.0,7.0,1058.0,-506.0,-0.31162462833540416,0.27067975957037405,-0.8803794610953539,-0.23356918301693785
-385.06102752685547,2124.0,13980.0,9660.0,-61.0,1100.0,-539.0,-0.23528515305413983,0.3342380461348715,-0.8912232236783791,-0.19658837922052036
-385.0688054561615,1928.0,13732.0,9632.0,-125.0,1044.0,-563.0,-0.15920105226522333,0.39634902105587017,-0.8892854494102529,-0.16350494773218166
-385.07657980918884,1768.0,13460.0,9484.0,-151.0,1015.0,-539.0,-0.08242721148073383,0.45244500729613163,-0.8781034429159423,-0.13203641058239246
-385.0844175815582,1744.0,13228.0,9340.0,-124.0,896.0,-510.0,-0.014626610019063842,0.5006903225884635,-0.8594537078193133,-0.10214982751451368
-385.0922541618347,1640.0,13080.0,9300.0,-100.0,786.0,-543.0,0.04376876338400556,0.5466378155435989,-0.8329061246663368,-0.07442299014996566
-385.100035905838,1716.0,12944.0,9244.0,-61.0,700.0,-481.0,0.09425075159323253,0.5843066589183867,-0.8046560215324192,-0.047235698146231776
-385.1078155040741,1792.0,13240.0,9236.0,-40.0,643.0,-456.0,0.13931585820972747,0.617191560515684,-0.7740955353366171,-0.02101835986507635
-385.1155948638916,1812.0,13020.0,9452.0,-40.0,555.0,-394.0,0.17801338213105544,0.6432059392248781,-0.7447117568051395,0.0013246902686508456
-385.1233787536621,2040.0,13080.0,9160.0,19.0,419.0,-337.0,0.20408478162119179,0.6646248806545376,-0.7184649291572978,0.020768136569545383
-385.1311502456665,1660.0,13000.0,9216.0,26.0,369.0,-264.0,0.22610819401268126,0.6804384648938008,-0.6959570359727859,0.039017741775578894
-385.1389350891113,1768.0,13040.0,9292.0,134.0,283.0,-268.0,0.23619474883143954,0.6979468633244073,-0.6735351286097431,0.05858879695582925
-385.14672350883484,1664.0,12988.0,9312.0,93.0,235.0,-177.0,0.24525682781286554,0.7088094052442466,-0.6571649263627568,0.07464968189550669
-385.1544990539551,1652.0,13044.0,9416.0,138.0,221.0,-111.0,0.2501399830090575,0.7164699707368039,-0.6444409822710812,0.09379013968491474
-385.16228723526,1652.0,13028.0,9336.0,171.0,175.0,-251.0,0.2513257526852624,0.7325461932184596,-0.6231999708599012,0.1087806837565738
-385.17005920410156,1676.0,13108.0,9412.0,137.0,125.0,25.0,0.24919496841783634,0.7329049677115447,-0.6206424922313203,0.12471997777368588
-385.1778438091278,1668.0,13148.0,9480.0,167.0,111.0,62.0,0.24390873926973017,0.7318466457774765,-0.6202421056444787,0.14215746325047818
-385.185688495636,1684.0,13188.0,9688.0,206.0,102.0,54.0,0.23565007302219043,0.7318884816861906,-0.6188024785516665,0.16090924770824447
-385.1934766769409,1648.0,13064.0,9640.0,193.0,103.0,13.0,0.2287570499013997,0.733577356977194,-0.6146609145071148,0.1781191557021319
-385.2012474536896,1684.0,13308.0,9696.0,162.0,85.0,11.0,0.2228424190668426,0.7348094272694056,-0.6110405675359157,0.19242085824003535
-385.2090275287628,1552.0,13356.0,9768.0,171.0,102.0,5.0,0.21729463299731713,0.7360485343424772,-0.6063828462779645,0.20812362024212155
-385.21680092811584,1596.0,13424.0,9664.0,165.0,55.0,94.0,0.20796296075384396,0.7330994176890653,-0.6082604852871927,0.2221167098095899
-385.22457575798035,1612.0,13464.0,9756.0,136.0,35.0,95.0,0.19935022115583756,0.7297718348013554,-0.6109705083617109,0.2332543598049446
-385.2323830127716,1604.0,13332.0,9672.0,106.0,12.0,43.0,0.19244701246985854,0.729049098873027,-0.6112817827552574,0.2403874807376781
-385.24019408226013,1644.0,13468.0,9776.0,71.0,59.0,-29.0,0.1917722783775582,0.730532329441801,-0.6069033074676741,0.2474152062243027
-385.2479660511017,1664.0,13376.0,9916.0,78.0,97.0,225.0,0.18712413607843922,0.7176497144324867,-0.6177578059295926,0.2614167903653549
-385.25574469566345,1656.0,13232.0,9656.0,101.0,194.0,-11.0,0.19156721088362055,0.7153433216916434,-0.6114522085364956,0.27876895899880677
-385.263551235199,1708.0,13164.0,9656.0,126.0,145.0,-254.0,0.19763677606647587,0.7272062187433248,-0.5898386521897253,0.29017440367836284
-385.27133321762085,1832.0,13060.0,9720.0,95.0,489.0,14.0,0.21632070522550426,0.7150673337206126,-0.5793001764023311,0.3260297016479675
-385.2791085243225,1948.0,13072.0,9648.0,103.0,510.0,7.0,0.23533882692655816,0.701425998707983,-0.5665480115756412,0.3628230360065737
-385.2869505882263,1940.0,13144.0,9580.0,68.0,251.0,10.0,0.24331181261283408,0.6942061198471874,-0.5596563384688609,0.3816569242413892
-385.29472851753235,1796.0,13456.0,9736.0,61.0,287.0,-17.0,0.2542225942911322,0.6865511567689947,-0.5502640463982411,0.4015318927961713
-385.30250215530396,2112.0,13656.0,9736.0,16.0,340.0,-37.0,0.2708779035127215,0.6764698065099995,-0.5396408571635058,0.4216651604635048
-385.3103172779083,2176.0,13792.0,9712.0,-96.0,372.0,-14.0,0.2945295875469536,0.6607997068173935,-0.5331863081861807,0.4385298510845747
-385.3181004524231,2056.0,13860.0,9712.0,-122.0,402.0,-77.0,0.32311225359474943,0.6454144707082253,-0.5226443102794693,0.4537417299630282
-385.3258798122406,1956.0,13640.0,9572.0,-93.0,422.0,-112.0,0.35188868834807957,0.6307117845471146,-0.5076498676271775,0.46975377352840036
-385.33365297317505,1864.0,13368.0,9640.0,-46.0,345.0,-158.0,0.37609691000907697,0.6218095728621682,-0.48987869164582093,0.48158367585495565
-385.34141874313354,1720.0,13172.0,9244.0,-24.0,360.0,-216.0,0.40172471866047266,0.614712021044562,-0.4669326395176456,0.49266651170295545
-385.34919452667236,1688.0,13300.0,9416.0,89.0,286.0,-501.0,0.4297174854436284,0.6251399250456552,-0.42553320202530787,0.49342116978500855
-385.35700702667236,1676.0,12924.0,9520.0,187.0,175.0,-499.0,0.447097587632201,0.6423710381412553,-0.38311043602581446,0.49060125387008807
-385.3647918701172,1544.0,12556.0,9272.0,281.0,71.0,-329.0,0.447608956355587,0.6607966173132547,-0.34948302605884946,0.49077048325502615
-385.3725788593292,1804.0,12932.0,9240.0,380.0,-51.0,-340.0,0.4383971019130872,0.6874885786715352,-0.31514975275052265,0.4856419139362695
-385.38039350509644,1940.0,13128.0,9436.0,402.0,-152.0,-348.0,0.4244866366750594,0.7180200466117254,-0.2825970047525313,0.47370585900207085
-385.3882441520691,2056.0,13388.0,9384.0,401.0,-274.0,-464.0,0.4112130291018592,0.7543194012575882,-0.24655543922155276,0.44846014424197644
-385.3960280418396,2128.0,13724.0,9240.0,322.0,-376.0,-476.0,0.39997392136475035,0.7893788914595011,-0.21562057429634007,0.4128069717027439
-385.4038202762604,2192.0,13876.0,9272.0,267.0,-427.0,-397.0,0.387377709123664,0.8202268733361769,-0.1931665726310032,0.37396933289943995
-385.4115993976593,2188.0,13884.0,9192.0,212.0,-500.0,-373.0,0.3754617876532205,0.8485551364225304,-0.17608559841654936,0.3285977609380114
-385.41938376426697,2172.0,13716.0,9084.0,160.0,-520.0,-507.0,0.36951789054415074,0.8746162103861576,-0.150609328583732,0.2753540325492169
-385.42715334892273,2088.0,13440.0,9060.0,139.0,-598.0,-145.0,0.3541265550433084,0.8939767488034781,-0.1552069545976899,0.22651877815411336
-385.43492436408997,1896.0,13180.0,9140.0,228.0,-663.0,-57.0,0.32799168689676855,0.9131443704456782,-0.16639614155238097,0.17578718988156766
-385.4427058696747,1896.0,12884.0,9124.0,302.0,-1023.0,26.0,0.2875435369424564,0.9330385086865063,-0.19226492734575018,0.09895480475154288
-385.4504942893982,1916.0,12716.0,9004.0,410.0,-821.0,37.0,0.23940480061804334,0.9467358702049131,-0.21164783215939686,0.039770952347264014
-385.4583010673523,1964.0,12344.0,9192.0,545.0,-720.0,38.0,0.1804827712630672,0.9569302090313336,-0.2272274757600759,-0.008844126873561769
-385.4660995006561,2016.0,11852.0,8728.0,846.0,-652.0,114.0,0.09665134352252368,0.9632585714506349,-0.2465914992137762,-0.04454295497242334
-385.47387075424194,2284.0,11212.0,8676.0,1275.0,-513.0,112.0,-0.020922280346710263,0.9626618913556872,-0.263397508881799,-0.05887353761620893
-385.4816474914551,2028.0,10632.0,8608.0,1764.0,-476.0,170.0,-0.1769038575850863,0.9410979571373188,-0.28228915122529413,-0.05790073698998902
-385.4894585609436,1860.0,10188.0,8600.0,2277.0,-384.0,61.0,-0.36571647374809296,0.8846969753925797,-0.287110627974962,-0.03361859402629694
-385.4972231388092,1996.0,9636.0,8684.0,2801.0,-397.0,-138.0,-0.5750679050508561,0.7742558224378672,-0.2640540204420839,0.010015003237779683
-385.50500774383545,2128.0,9832.0,8760.0,3080.0,-279.0,-348.0,-0.7617820277655403,0.6059117311686184,-0.216000046399667,0.07683160912678655
-385.51278471946716,2232.0,10612.0,9080.0,3535.0,-872.0,-350.0,-0.9172678659478987,0.3650360885076269,-0.11027722771988757,0.11492279683707492
-385.52055764198303,2228.0,12476.0,8984.0,3460.0,-1226.0,-467.0,-0.9845650573316514,0.09953082903222905,0.03571482275568456,0.13946222925655863
-385.5283660888672,2464.0,14528.0,8752.0,3321.0,-1294.0,304.0,-0.9669908370995508,-0.16172850153192012,0.1763508407483916,0.08759562617554065
-385.5361466407776,2212.0,16680.0,8856.0,2588.0,-1736.0,1949.0,-0.8746725790935915,-0.3210289282405611,0.3524095794273314,-0.08772568006195747
-385.54392647743225,2244.0,19704.0,9392.0,1878.0,-2274.0,3453.0,-0.6747019767182802,-0.3493893640166462,0.5654195856177452,-0.32094393143405275
-385.55173230171204,2968.0,20220.0,9256.0,939.0,-1878.0,3250.0,-0.4381600011255769,-0.2814003147126043,0.7093755187161528,-0.47499057857969235
-385.5595428943634,3800.0,18852.0,9552.0,-126.0,-1274.0,2253.0,-0.26243524513092614,-0.18528344693572413,0.7984544291876347,-0.509183965689549
-385.56731820106506,3012.0,16792.0,10024.0,-548.0,-573.0,1405.0,-0.16733468219557215,-0.0993321281589436,0.8502533467704467,-0.48908228219347333
-385.57510018348694,2108.0,14776.0,9624.0,-544.0,-577.0,1091.0,-0.08212642510857965,-0.03482893804305401,0.8852463910402114,-0.4564877024892992
-385.5829265117645,2112.0,12840.0,9628.0,-201.0,-590.0,900.0,-0.0013020131293955011,0.012579276296974976,0.8961383629129037,-0.443594523281607
-385.5907402038574,1852.0,11876.0,9836.0,280.0,-727.0,1102.0,0.09725362874055576,0.07011342462642296,0.878094871837774,-0.46322266291293657
-385.5985367298126,1868.0,11792.0,9908.0,640.0,-828.0,1191.0,0.20304132094245958,0.132104172027795,0.8299769341072911,-0.5024549716866711
-385.60631799697876,2172.0,12428.0,9880.0,515.0,-701.0,963.0,0.2883188231300741,0.17912513344752257,0.7788546362712936,-0.52742003977381
-385.61411023139954,2416.0,12956.0,10056.0,777.0,-538.0,730.0,0.3445405735396142,0.2223596707950883,0.7142161200897926,-0.5672242094558172
-385.62188696861267,2488.0,13472.0,10348.0,637.0,-363.0,599.0,0.383226017745554,0.26002889165438636,0.6578264202214752,-0.5939589175073261
-385.62967705726624,2328.0,13748.0,10352.0,472.0,-198.0,764.0,0.4222130861406876,0.30846054674164314,0.6073524967649423,-0.5980895799700859
-385.6374554634094,2632.0,13608.0,10176.0,206.0,-48.0,321.0,0.43581371555115456,0.3304089785835172,0.5857591203785113,-0.598149283291627
-385.64524102211,2580.0,13848.0,9860.0,-38.0,78.0,165.0,0.441573541636599,0.34146015075714586,0.58577288842581,-0.587612028430921
-385.65302181243896,2440.0,13768.0,9596.0,-154.0,63.0,194.0,0.45287794749168797,0.3486227142264403,0.5900703981763986,-0.5702461687701655
-385.6608097553253,2480.0,13596.0,9216.0,-233.0,108.0,52.0,0.45697381210448,0.3474118008179031,0.6041000021924317,-0.5527595888397279
-385.66858673095703,2552.0,13388.0,9148.0,-241.0,226.0,27.0,0.4535760950501902,0.3500176423426419,0.6235718920609249,-0.5318970496999184
-385.6763777732849,2344.0,13252.0,8868.0,-205.0,261.0,138.0,0.4519145784375459,0.36139182215786847,0.6388074860437577,-0.5070445349744784
-385.68416810035706,2436.0,13124.0,8812.0,-71.0,325.0,126.0,0.4414909851591402,0.37985690070827477,0.650403028348431,-0.4876170072123266
-385.6919844150543,2504.0,12944.0,8676.0,0.0,400.0,204.0,0.4272296343730223,0.4081882399768851,0.6584749510915316,-0.46612009079535643
-385.69976329803467,2336.0,12908.0,8476.0,171.0,373.0,386.0,0.4149933543592669,0.4514190529580944,0.6508176192772612,-0.4477027818791602
-385.70757508277893,2284.0,12700.0,8272.0,415.0,302.0,651.0,0.40595569221027955,0.5139266701025109,0.6182000379427488,-0.43463555630781275
-385.71534729003906,2376.0,12972.0,8112.0,575.0,151.0,513.0,0.3906548988784938,0.5664141012679066,0.5772953511575226,-0.4396520139826677
-385.72312927246094,2336.0,13228.0,8372.0,683.0,40.0,1003.0,0.3912699593148452,0.6382290501422772,0.4999781230289346,-0.4354232136493294
-385.73092913627625,2392.0,13468.0,8588.0,731.0,8.0,984.0,0.3855017027886547,0.7024434640083488,0.4151921956643913,-0.43078655698429263
-385.7386929988861,2440.0,13588.0,8768.0,666.0,19.0,622.0,0.36632211489588246,0.7457529915897148,0.3514521273579375,-0.4314417525562159
-385.74645590782166,2556.0,13996.0,8956.0,575.0,66.0,473.0,0.3440662260604313,0.7794688522727756,0.30039460833986026,-0.4287304744258748
-385.75425696372986,2644.0,14044.0,9064.0,422.0,134.0,330.0,0.32393251708110954,0.8048614628442023,0.26578592368110454,-0.4202660975843392
-385.7620325088501,2620.0,13916.0,9156.0,294.0,237.0,229.0,0.306070976180055,0.8265500011093362,0.24535841215811735,-0.403651957495058
-385.76981568336487,2812.0,14056.0,8972.0,207.0,165.0,265.0,0.29689877786913804,0.8431004559750578,0.22316634000513705,-0.38888240063439933
-385.777615070343,2672.0,13660.0,9460.0,170.0,160.0,276.0,0.2906112107931245,0.8578648104650812,0.20106800946851527,-0.3730747199897539
-385.78538846969604,2660.0,13640.0,9352.0,200.0,145.0,350.0,0.28440519628321187,0.8731690964529354,0.17184488368655731,-0.35659325467179825
-385.79318356513977,2612.0,13652.0,9540.0,234.0,170.0,303.0,0.2733849952254037,0.8881959920039406,0.14553533729972357,-0.3393935617698098
-385.8010001182556,2548.0,13692.0,9476.0,240.0,156.0,504.0,0.26750116560327336,0.9037641449072981,0.10288973550035042,-0.3179106778790834
-385.80877590179443,2412.0,13756.0,9408.0,230.0,267.0,123.0,0.25035678644586357,0.9171345376930647,0.0929439167924492,-0.2958836723820818
-385.81895565986633,2312.0,13720.0,9576.0,166.0,352.0,14.0,0.23455292968594205,0.9294050026751239,0.09513391014648577,-0.2685904006446153
-385.82683801651,2048.0,13716.0,9428.0,150.0,362.0,-40.0,0.21842458608326284,0.940052950986907,0.10217865323426632,-0.24114450513829835
-385.8346290588379,1952.0,13712.0,9388.0,128.0,395.0,232.0,0.2092129613135312,0.9520359624344314,0.08787070876042549,-0.20527104421205958
-385.84245777130127,1872.0,13772.0,9404.0,79.0,406.0,-32.0,0.19894064427041053,0.9598590984150716,0.09643981819256359,-0.17260501937679873
-385.8502757549286,1768.0,13772.0,9280.0,71.0,438.0,-58.0,0.18839667521108833,0.9664480330846997,0.1077314205422858,-0.13740026617173623
-385.85810589790344,1780.0,13768.0,9240.0,48.0,415.0,-8.0,0.1803367622046352,0.9714769005232511,0.11456037717756658,-0.10289413942601376
-385.8658969402313,1724.0,13744.0,9208.0,93.0,371.0,67.0,0.1693515100082876,0.9763667013136805,0.11380265684643286,-0.07125367301724311
-385.8736834526062,1720.0,13632.0,9228.0,77.0,285.0,39.0,0.16025123249486725,0.9793192515055379,0.1141623200166666,-0.04712017405444201
-385.88144993782043,1772.0,13592.0,9248.0,110.0,343.0,115.0,0.14792567489923636,0.9828654119165948,0.10860818111929411,-0.01725803458063571
-385.88928985595703,1804.0,13536.0,9108.0,108.0,271.0,148.0,0.13636053546236643,0.9856559185782342,0.09919996464671964,0.006897938402414535
-385.89708137512207,1792.0,13600.0,9148.0,98.0,504.0,103.0,0.12347491381741386,0.9863673518426804,0.09629182840888113,0.05060905707790653
-385.90488266944885,2036.0,13548.0,9148.0,100.0,240.0,77.0,0.11257561817463847,0.9867423438191819,0.09266496702985341,0.07127047770417676
-385.91264724731445,1816.0,13504.0,9184.0,143.0,299.0,89.0,0.0973410600229742,0.9865520487824618,0.08878980779213266,0.09672715807345302
-385.92043685913086,2132.0,13568.0,9168.0,181.0,286.0,67.0,0.07903239599383108,0.9857353261836538,0.08694420918856764,0.12050083645209464
-385.9282500743866,2152.0,13684.0,9132.0,174.0,284.0,48.0,0.06146881962572929,0.9838766364204579,0.08657412627871568,0.14392105189603924
-385.93602776527405,2220.0,13740.0,9192.0,176.0,357.0,42.0,0.043194438298247595,0.9800437798495514,0.08705094606470182,0.173408658571431
-385.94379210472107,2244.0,13680.0,9184.0,191.0,372.0,97.0,0.022634474938112863,0.9751738234470092,0.08300148074262025,0.20404521264305514
-385.9515998363495,2348.0,13720.0,9116.0,214.0,371.0,24.0,0.0013905714168215458,0.9684713909028271,0.08546006207556905,0.23400386557473393
-385.95938181877136,2388.0,13824.0,9100.0,209.0,429.0,85.0,-0.021108563491448257,0.9594960374769139,0.0825415200698655,0.26853059430534953
-385.9671676158905,2356.0,13708.0,9124.0,204.0,498.0,92.0,-0.043805184052577995,0.9470197568235503,0.07863455242170991,0.3083038974801013
-385.9749491214752,2452.0,13640.0,9092.0,165.0,477.0,157.0,-0.06479316728165788,0.9336185737926767,0.06822779719878459,0.34569230803178314
-385.98271918296814,2368.0,13336.0,9036.0,156.0,538.0,275.0,-0.08879768211275908,0.9167607354774642,0.04744243670854227,0.3865409948988284
-385.9905242919922,2436.0,13464.0,8884.0,190.0,530.0,226.0,-0.11358453552430961,0.8970619660519494,0.03165343130885195,0.42588313260695565
-385.99830770492554,2368.0,13424.0,9060.0,180.0,528.0,272.0,-0.13897063199056126,0.8750921989219798,0.011836974758287344,0.4634228014012799
-386.006085395813,2404.0,13400.0,8852.0,168.0,553.0,287.0,-0.16365107430097095,0.8496064198975228,-0.009932779072187174,0.5012869408322496
-386.01388239860535,2376.0,13428.0,8948.0,179.0,593.0,282.0,-0.18834802053276853,0.8193809398266578,-0.03137321554985973,0.5405142180888793
-386.02168226242065,2396.0,13416.0,8900.0,207.0,525.0,322.0,-0.2164913404823113,0.7890232599687753,-0.053118814141102526,0.5724964509135941
-386.02946949005127,2340.0,13496.0,9064.0,166.0,565.0,270.0,-0.23835195947816393,0.7551543636347389,-0.0739066381515208,0.606191421362487
-386.03726291656494,2336.0,13336.0,8732.0,200.0,598.0,243.0,-0.26002051781214897,0.7164946346158817,-0.09154301142933287,0.6408156099392438
-386.045049905777,2268.0,13656.0,9084.0,176.0,571.0,221.0,-0.278338113563994,0.6776982751630058,-0.10822217453574635,0.6719679332508947
-386.0528383255005,2240.0,13680.0,9036.0,199.0,585.0,203.0,-0.29595782349896677,0.6355541533411747,-0.12247257171982451,0.7024815684819563
-386.0606129169464,2208.0,13676.0,9004.0,184.0,534.0,218.0,-0.31333389877443324,0.5948353773166347,-0.13677445938213872,0.7275200952771779
-386.06840109825134,2184.0,13572.0,9060.0,167.0,538.0,237.0,-0.3301143028791691,0.5524207879603356,-0.15284698283363043,0.7499957465896312
-386.0762176513672,2300.0,13572.0,8992.0,171.0,543.0,203.0,-0.343881614132435,0.5084585863109989,-0.1667171542264621,0.7716350769339878
-386.08401107788086,2176.0,13800.0,9064.0,128.0,529.0,197.0,-0.3546410736507309,0.46544912493019697,-0.18233441087779712,0.7901525065399827
-386.0918056964874,2212.0,13804.0,9052.0,78.0,545.0,160.0,-0.3596865348604062,0.4222913253971171,-0.1999120065426641,0.8076699962079475
-386.0995924472809,2188.0,13776.0,9068.0,75.0,473.0,215.0,-0.36893879936803775,0.3823569229886293,-0.21699646478015955,0.8189016302563155
-386.1073546409607,2088.0,13676.0,9036.0,104.0,467.0,244.0,-0.38056594639451713,0.3405489681002141,-0.2323052607568887,0.8277863411505403
-386.11515164375305,2168.0,13648.0,8744.0,96.0,762.0,223.0,-0.38313392683973235,0.27702473672880196,-0.25649047692538873,0.8430173928165962
-386.12293815612793,2188.0,13544.0,9144.0,126.0,444.0,242.0,-0.39363715273971617,0.23439958174866218,-0.2674342021200945,0.8476942701206667
-386.1307189464569,2156.0,13588.0,9104.0,152.0,478.0,229.0,-0.402072787049318,0.18816584656395421,-0.27675991987686654,0.8522529171853943
-386.13849568367004,2088.0,13512.0,9184.0,201.0,498.0,261.0,-0.412214114215172,0.13749479739277426,-0.2829634057949331,0.8550476102022933
-386.1463050842285,2188.0,13448.0,9124.0,221.0,473.0,284.0,-0.423833319410708,0.08703446849099225,-0.2862778436875129,0.8548890658239929
-386.1540813446045,2136.0,13312.0,9168.0,224.0,528.0,343.0,-0.4372264044459865,0.030652290728191936,-0.29096582679653893,0.8504307120306485
-386.16186475753784,2156.0,13512.0,9144.0,3.0,767.0,321.0,-0.4404730319701793,-0.03452783343662177,-0.3197866236657762,0.838169345746797
-386.16967153549194,2144.0,13600.0,9108.0,286.0,556.0,354.0,-0.4491682780414486,-0.09595323492633515,-0.3183073709565728,0.8292896070150442
-386.17744994163513,2212.0,13680.0,9140.0,325.0,261.0,368.0,-0.46535485941907234,-0.13770225442759976,-0.30133521387881734,0.8207801367097155
-386.1852309703827,2204.0,13768.0,9056.0,328.0,558.0,379.0,-0.47295469186087946,-0.2005902750376608,-0.2950651341090911,0.8056140314320999
-386.19304966926575,2280.0,13716.0,9104.0,327.0,605.0,402.0,-0.47884951935400355,-0.2663806345442505,-0.28906186367588116,0.7849762635407956
-386.20082807540894,2368.0,13888.0,9100.0,351.0,672.0,352.0,-0.4766857741900886,-0.3351125709829803,-0.2839183258489013,0.7614857987521041
-386.2086124420166,2292.0,13828.0,9096.0,375.0,766.0,371.0,-0.4699591128696871,-0.4094908385945314,-0.2788646697475037,0.7305410195906182
-386.2163796424866,2336.0,13852.0,9092.0,357.0,796.0,326.0,-0.4572246758108354,-0.48124300407348475,-0.2759779791941612,0.6951164807857109
-386.2242045402527,2540.0,13912.0,8932.0,384.0,880.0,325.0,-0.4380313976725747,-0.5556137163750978,-0.2728922527844861,0.6518832036485305
-386.23199915885925,2340.0,13848.0,9204.0,354.0,947.0,342.0,-0.4160947820621957,-0.6284438557561574,-0.27103516780563464,0.5987181225881839
-386.23977756500244,2444.0,13844.0,9088.0,415.0,1032.0,342.0,-0.38493764657597584,-0.7019115109763044,-0.2665617939458269,0.5367383431579048
-386.24758434295654,2416.0,13896.0,9024.0,421.0,1090.0,347.0,-0.3482018514731176,-0.7708305689285604,-0.2606221663845042,0.46545868884898106
-386.2553653717041,2400.0,13768.0,9008.0,428.0,1142.0,356.0,-0.3061347408760545,-0.8332128135485657,-0.2523581621632136,0.38516656884630973
-386.2631616592407,2452.0,13784.0,8944.0,452.0,1217.0,399.0,-0.2581765249240369,-0.8887603700111709,-0.23892628214258696,0.29387772691593267
-386.27094745635986,2420.0,13784.0,8852.0,411.0,1210.0,441.0,-0.21101605710869617,-0.9317838960758039,-0.2198680850533437,0.19725369408725998
-386.2787404060364,2396.0,13864.0,8748.0,438.0,1265.0,428.0,-0.1574087012050198,-0.9626213806531685,-0.19929099412179666,0.09415772913724459
-386.28652691841125,2788.0,13600.0,8688.0,453.0,1312.0,411.0,-0.09920858522366097,-0.9789869285658385,-0.17763016081268945,-0.013775931358848907
-386.29433584213257,2500.0,13924.0,8740.0,481.0,1392.0,468.0,-0.03572850132209225,-0.9798527250245536,-0.14891634394456318,-0.12820309653599893
-386.30212235450745,2472.0,13896.0,8672.0,527.0,1441.0,439.0,0.032587930971504205,-0.961779219806522,-0.12060284539655361,-0.24366721729771007
-386.30991888046265,2632.0,14000.0,8604.0,548.0,1451.0,474.0,0.10284349214712493,-0.9251083492647145,-0.08748513197284384,-0.35488605203275214
-386.31770610809326,2800.0,13972.0,8640.0,554.0,1487.0,456.0,0.1712159510821197,-0.8685556454451079,-0.05395157999395493,-0.4619365929179383
-386.3255000114441,2804.0,13904.0,8644.0,582.0,1545.0,762.0,0.25014018853855385,-0.7912103279880485,0.003351116000355817,-0.5580366233362227
-386.3332853317261,2800.0,13808.0,8536.0,594.0,1524.0,531.0,0.3130123355491339,-0.6960057804342383,0.043802968344738485,-0.6447329147487298
-386.3410816192627,2476.0,13816.0,8480.0,600.0,1788.0,591.0,0.37035931454854576,-0.5682686957209974,0.09331757503306054,-0.7288322837118545
-386.34886741638184,2508.0,13776.0,8452.0,577.0,1511.0,680.0,0.42493046960660785,-0.44270494473424044,0.13744666278244141,-0.7775312487596435
-386.356650352478,2428.0,13772.0,8308.0,605.0,1447.0,757.0,0.47681626785059567,-0.3093268104087817,0.17709782361772214,-0.8034920858012385
-386.3644096851349,2328.0,13824.0,8444.0,614.0,1381.0,871.0,0.5270508150139862,-0.17136999320259858,0.2123688770894711,-0.8048286922486
-386.3722290992737,2232.0,13800.0,8128.0,597.0,1291.0,958.0,0.5729856001686501,-0.0349537022434317,0.24122242890124707,-0.782481616713027
-386.3800060749054,2204.0,13780.0,8032.0,609.0,1222.0,1128.0,0.6188516174837333,0.10161657136693955,0.2608306492168835,-0.7339374090414615
-386.38778805732727,2128.0,13856.0,7984.0,582.0,1150.0,1141.0,0.6533401005313116,0.23021665385895862,0.27222701418022643,-0.6678618555316951
-386.3956050872803,2116.0,13972.0,8000.0,563.0,1001.0,1231.0,0.6827576513931799,0.346287012003826,0.2686102197068677,-0.5846159804953671
-386.4034016132355,2152.0,14068.0,8176.0,539.0,935.0,1239.0,0.7006980893539434,0.4506119160837087,0.2565004830769208,-0.49008018817373994
-386.41117763519287,2312.0,14176.0,8080.0,428.0,898.0,1252.0,0.7105348855608167,0.5380407274085812,0.24129488042122735,-0.38396501498603697
-386.4189624786377,2072.0,14372.0,8216.0,406.0,834.0,1198.0,0.708001513564273,0.6110733166187442,0.221011078947428,-0.27654540583737836
-386.42674350738525,2428.0,14444.0,8100.0,307.0,788.0,1120.0,0.6983567458430309,0.6656564471176225,0.20087204065641423,-0.1698522099614961
-386.43452548980713,2432.0,14524.0,8100.0,204.0,1023.0,769.0,0.6757824478846346,0.7021991944112503,0.2140089365048873,-0.0665924139470055
-386.4423015117645,2492.0,14536.0,8180.0,130.0,836.0,972.0,0.653846149853555,0.728211541464964,0.20159608446525126,0.0393977401278614
-386.45008873939514,2392.0,14476.0,7964.0,65.0,789.0,887.0,0.6295242615016367,0.7407405546134108,0.18935937071632336,0.13836785628806197
-386.45787024497986,2440.0,14432.0,8184.0,65.0,820.0,948.0,0.5968746732538033,0.7455063988427784,0.17281058056211265,0.24103389172152417
-386.4656662940979,2776.0,14340.0,8200.0,2.0,900.0,951.0,0.5596474684216687,0.7361068787677061,0.15680218127969037,0.34692138888516827
-386.4734628200531,2596.0,14216.0,8256.0,-65.0,868.0,964.0,0.5195611408100931,0.7151293398767898,0.13443667891087124,0.44785380155907667
-386.48124647140503,2684.0,14188.0,8288.0,-119.0,819.0,997.0,0.47551802349416866,0.6849133564149597,0.10407067336834652,0.5421675003919476
-386.4890491962433,2712.0,13984.0,8384.0,-183.0,831.0,1041.0,0.42686954750419787,0.6429020200203625,0.06729199363999025,0.63240111453037
-386.49687027931213,2680.0,13980.0,8192.0,-217.0,753.0,1088.0,0.3721897999718933,0.5954597369572928,0.02230655044841835,0.7116212983509739
-386.50466752052307,2684.0,13828.0,8276.0,-298.0,648.0,1122.0,0.31477691077829495,0.543970220063928,-0.03305692648223214,0.7771223428367139
-386.51244950294495,2544.0,14016.0,8264.0,-401.0,570.0,1175.0,0.25411901994302727,0.4873877575554585,-0.09945735995277154,0.8294485704608103
-386.5202851295471,2440.0,13816.0,8164.0,-481.0,457.0,1140.0,0.19487410668299396,0.4308628357007425,-0.17127044182003326,0.8643192321794018
-386.52807426452637,2364.0,14044.0,8248.0,-634.0,181.0,1089.0,0.13854380883083,0.3877541791259138,-0.25516806969508593,0.874838022615112
-386.53586769104004,2320.0,13736.0,8188.0,-1010.0,26.0,998.0,0.0964709486354325,0.348670441723991,-0.3627647627704822,0.8587921786028634
-386.5436511039734,2172.0,13668.0,8252.0,-928.0,-215.0,889.0,0.051025605830700316,0.3267379610676896,-0.4580688647206056,0.8251130877161716
-386.55144596099854,1880.0,13604.0,8608.0,-1005.0,-506.0,705.0,0.008690511310056014,0.3283393779243008,-0.5490070765003318,0.7685759285002439
-386.55922865867615,1816.0,13684.0,8664.0,-1122.0,-632.0,400.0,-0.016109706906894717,0.3483359142923472,-0.63177392974754,0.6922891519075242
-386.56701922416687,1692.0,13808.0,8700.0,-1212.0,-947.0,160.0,-0.04073630022197336,0.39488542473371546,-0.7021263805444804,0.5911214772960005
-386.5748174190521,1324.0,13348.0,8648.0,-1222.0,-1228.0,-15.0,-0.07224360801541599,0.4583245124292076,-0.751721949715559,0.46865084308393484
-386.58259654045105,1148.0,13100.0,8688.0,-1203.0,-1585.0,-663.0,-0.09931208115455628,0.5648880128370838,-0.7519047275895021,0.32508141152375686
-386.5903890132904,904.0,12816.0,8788.0,-1106.0,-1905.0,-1147.0,-0.1341107911294241,0.6878553986358785,-0.6940879051719091,0.16465486984656003
-386.5982196331024,832.0,12460.0,8660.0,-931.0,-2157.0,-1682.0,-0.17907550542339287,0.8064215934573459,-0.5635722965783543,-0.0015631674482298578
-386.60600113868713,816.0,12360.0,8472.0,-699.0,-2512.0,-2127.0,-0.24341169528770581,0.8842870729740095,-0.35930498568577834,-0.1722992931777918
-386.61382269859314,992.0,12128.0,8492.0,-542.0,-2570.0,-2703.0,-0.30662493127201773,0.8947434475132177,-0.08350605572259077,-0.31375476619845627
-386.6216390132904,1172.0,12124.0,8624.0,-102.0,-3175.0,-2566.0,-0.3692887046336815,0.7810695996652435,0.19278378270105842,-0.4651779726472706
-386.62942385673523,1568.0,12124.0,8656.0,255.0,-3341.0,-3102.0,-0.4239653464766973,0.5433832675228812,0.46595160368002553,-0.55486675210456
-386.63720417022705,1820.0,12616.0,8812.0,544.0,-3549.0,-3128.0,-0.421945960850617,0.2069145053952797,0.6641850930703503,-0.5813829682077092
-386.6450171470642,2180.0,13232.0,9176.0,676.0,-3552.0,-3004.0,-0.3522283239276618,-0.1595643306379979,0.7539089777588212,-0.531126807331175
-386.6527943611145,2756.0,13816.0,9380.0,625.0,-3521.0,-3053.0,-0.23445371652029937,-0.5023290623969433,0.7313969563374665,-0.3971844157837984
-386.6605851650238,3152.0,14148.0,9632.0,551.0,-3161.0,-2614.0,-0.09329767073857441,-0.7431144947329175,0.6229153262129266,-0.22594886306782047
-386.668399810791,3716.0,14268.0,9784.0,451.0,-3048.0,-2214.0,0.05500284778017313,-0.8802855690701931,0.47009197089200006,-0.032947572379653886
-386.676221370697,4176.0,14212.0,10104.0,289.0,-2386.0,-1812.0,0.16426348609494243,-0.9286085522381855,0.3081071841786125,0.12559310054124892
-386.684024810791,4592.0,13832.0,10744.0,87.0,-2017.0,-1205.0,0.23384797311827416,-0.918516995838842,0.17874421046655542,0.26399272915811783
-386.69181299209595,4676.0,13816.0,11112.0,-132.0,-2046.0,-702.0,0.266597300732347,-0.8695884624633758,0.07631307679307292,0.4085561154886598
-386.6996295452118,5060.0,13664.0,11520.0,-284.0,-1363.0,-468.0,0.26858022734514525,-0.8239427316700975,-0.001027321454856706,0.4989809425397688
-386.70745277404785,5016.0,13408.0,11752.0,-472.0,-798.0,-258.0,0.24490908252789143,-0.797390532208498,-0.05861308873672623,0.548408958960679
-386.7152831554413,4456.0,13392.0,11916.0,-520.0,-537.0,204.0,0.19572357151966552,-0.782023353625095,-0.08056287433063931,0.5862093322492673
-386.72309947013855,4536.0,13264.0,11552.0,-546.0,-225.0,537.0,0.12903789247043304,-0.7816830397832154,-0.07545819536002353,0.6054972406007061
-386.7309262752533,4220.0,13364.0,11420.0,-610.0,43.0,973.0,0.03603527796430461,-0.793214338195622,-0.04056456074290841,0.606520394409497
-386.7387194633484,3768.0,13460.0,11464.0,-695.0,219.0,1379.0,-0.08362328642257474,-0.8044088300447476,0.018699401093628974,0.5878638554228932
-386.74651741981506,3892.0,13448.0,11216.0,-905.0,568.0,1508.0,-0.22269535274248312,-0.8139057316970535,0.07311831473014399,0.5316182388035692
-386.75432300567627,4044.0,13276.0,11060.0,-1168.0,982.0,1405.0,-0.3712196490441908,-0.814488149145772,0.0981110198690533,0.4349474161836775
-386.76211977005005,4136.0,13248.0,10856.0,-1436.0,1420.0,1132.0,-0.5181027937130275,-0.7959955887943103,0.07656380839066422,0.3034773484322558
-386.7699272632599,3996.0,12596.0,10672.0,-1640.0,1829.0,917.0,-0.651836555426191,-0.744781971605567,0.013809446485337029,0.14219078369996777
-386.7776997089386,3180.0,12508.0,10048.0,-1738.0,2092.0,787.0,-0.7545328058845282,-0.6511834139331684,-0.07336653005172837,-0.03546489152011524
-386.7855041027069,2804.0,12084.0,9920.0,-1740.0,2110.0,680.0,-0.8136631569807947,-0.5187852222146763,-0.16334121500262186,-0.2052652129932948
-386.79328894615173,2600.0,11532.0,9428.0,-1590.0,2162.0,394.0,-0.8250389724351271,-0.3625972038739079,-0.26310031283050583,-0.34440120077389874
-386.8011031150818,2456.0,11612.0,9260.0,-1357.0,1882.0,541.0,-0.7915628903615526,-0.216243896176948,-0.333319912931167,-0.4642893533263896
-386.80890798568726,2016.0,11572.0,8860.0,-1109.0,1556.0,471.0,-0.7373049028275143,-0.08923943553049137,-0.38124784117153987,-0.5505160188539016
-386.8167209625244,2248.0,12048.0,8652.0,-858.0,1291.0,381.0,-0.6761472058173716,0.014890112693363093,-0.4160269779743876,-0.6078855107722492
-386.82457160949707,2372.0,12568.0,8560.0,-653.0,1268.0,378.0,-0.6041620527153633,0.10581719156847398,-0.45291836464560004,-0.6470362362295291
-386.83239126205444,2536.0,13368.0,8544.0,-521.0,819.0,559.0,-0.5328013769080817,0.15643536697561627,-0.46958715204528184,-0.6863953491669781
-386.84022545814514,2876.0,13940.0,8212.0,-447.0,647.0,413.0,-0.4739369034492588,0.1982092556657435,-0.4771050576804065,-0.7130691877042056
-386.8480415344238,3028.0,13868.0,8268.0,-454.0,564.0,14.0,-0.4407636922193017,0.2507691232188663,-0.47149451981362717,-0.721481207133607
-386.8558452129364,2928.0,13576.0,8240.0,-409.0,336.0,-108.0,-0.4242325699629582,0.2915574920503789,-0.4558185915307321,-0.7261200775538827
-386.8636453151703,3008.0,13448.0,8164.0,-279.0,69.0,83.0,-0.40890478814621994,0.30263697396059525,-0.44268471034614637,-0.7384023181496775
-386.87143206596375,2992.0,12932.0,7980.0,-38.0,-183.0,221.0,-0.4005139826016734,0.2833478742691092,-0.4394368566306737,-0.7524611491115514
-386.8800404071808,3280.0,12820.0,8264.0,184.0,-418.0,404.0,-0.39391516125029424,0.23340671285623815,-0.446295738722511,-0.7688772761168902
-386.8880226612091,3404.0,12532.0,8428.0,428.0,-498.0,414.0,-0.3932512848146302,0.16851413754539593,-0.46527600122453877,-0.7749029972348003
-386.8958899974823,3728.0,12452.0,8848.0,561.0,-556.0,485.0,-0.3899036531222502,0.09140844900335746,-0.48965109483242325,-0.7745072253130593
-386.90372920036316,3712.0,12144.0,9012.0,734.0,-616.0,481.0,-0.38777159642814213,0.003966250557445351,-0.5198143623717687,-0.7611901776377025
-386.9115650653839,3772.0,12228.0,9032.0,848.0,-624.0,458.0,-0.38392211105640006,-0.0867631239002266,-0.5523218537757597,-0.7348581787085039
-386.9193561077118,3940.0,12124.0,9276.0,892.0,-748.0,546.0,-0.3757664498806148,-0.1899285698352824,-0.5765617466635431,-0.7002165849140737
-386.92715215682983,3972.0,12412.0,9168.0,950.0,-557.0,702.0,-0.3428759002015537,-0.288681871420201,-0.6006531825970749,-0.6620533576761843
-386.9349639415741,4084.0,12700.0,9076.0,1020.0,-387.0,1048.0,-0.27451177282199557,-0.3931235566698979,-0.6161002567271339,-0.6249140976439039
-386.9427652359009,3980.0,12748.0,9020.0,1082.0,-261.0,1222.0,-0.18289985869797398,-0.4938505203051737,-0.6203939579711828,-0.5811803869672659
-386.9505777359009,4268.0,12416.0,9164.0,1057.0,-254.0,1403.0,-0.07901939821787879,-0.5924615734201945,-0.6022238882148867,-0.5292179203211996
-386.9583683013916,4300.0,12776.0,9256.0,1248.0,168.0,1545.0,0.06469862069022983,-0.6644812145611926,-0.572500361380318,-0.4759434212125105
-386.9661672115326,4496.0,12524.0,9156.0,1299.0,429.0,1833.0,0.23299198765391557,-0.7167212310428773,-0.5077017482971187,-0.4174498118786371
-386.9739520549774,4684.0,12476.0,9268.0,1278.0,688.0,1901.0,0.403970979709196,-0.7340258374815373,-0.4124712680937636,-0.3576044888692571
-386.98174238204956,4596.0,12424.0,9348.0,1456.0,526.0,2374.0,0.5730289578372012,-0.7296905342384661,-0.27888912649823944,-0.24781120403210607
-386.98954224586487,4436.0,12556.0,9248.0,1595.0,903.0,2671.0,0.7259477716426715,-0.6691092845758583,-0.09443030226162398,-0.12796685569396946
-386.99733805656433,4616.0,12444.0,9444.0,1694.0,1065.0,2765.0,0.82861810652176,-0.5487430818995661,0.11077928945311359,-0.001006300115570514
-387.0051758289337,4368.0,12408.0,9424.0,1791.0,1131.0,2923.0,0.8620140635010797,-0.3726497870275124,0.31703357615628497,0.13249000771478295
-387.0130000114441,4572.0,12476.0,9352.0,1852.0,1168.0,2883.0,0.8168316222607767,-0.1591018027030078,0.4958891940900196,0.24812622682060873
-387.02077865600586,4432.0,12360.0,9420.0,1937.0,1258.0,2863.0,0.6924735215207635,0.07222394272750164,0.6352591799059356,0.3342303074748986
-387.02856969833374,4420.0,12688.0,9388.0,1965.0,1224.0,2986.0,0.49868425717774745,0.30483319874387443,0.710004340426281,0.39279074475157544
-387.036376953125,4348.0,12932.0,9288.0,1873.0,1179.0,3126.0,0.25475508851917733,0.5118646133259047,0.7039480119932265,0.4213687920445609
-387.04420280456543,4364.0,13024.0,9296.0,1801.0,1142.0,3109.0,-0.00969057084966482,0.6658031360137375,0.6237024273232089,0.40939902181370386
-387.05199933052063,4180.0,12992.0,9020.0,1729.0,1119.0,3239.0,-0.2719501480184711,0.7591768621437768,0.47057755475545276,0.35812061367455456
-387.05977988243103,3984.0,13464.0,8760.0,1700.0,1032.0,3525.0,-0.5064914033839126,0.7838455429490663,0.2504778622344873,0.25751400666278196
-387.0675916671753,4220.0,13300.0,8520.0,1546.0,962.0,3525.0,-0.6733213816981207,0.7284625086003973,0.0014599209907406408,0.12640632556343992
-387.07538199424744,4344.0,13276.0,8580.0,1534.0,935.0,3783.0,-0.7633650810260961,0.5902194095766464,-0.2602512915945924,-0.03441027248312673
-387.08316445350647,4156.0,13064.0,8464.0,1440.0,880.0,4146.0,-0.749943238792465,0.37502069572462843,-0.4999900068099333,-0.21669012312028954
-387.09094762802124,4520.0,13292.0,8488.0,1336.0,951.0,4217.0,-0.6254134045241941,0.11288788641253325,-0.6748004682128588,-0.375178259821214
-387.09875750541687,4768.0,12908.0,8916.0,1535.0,1099.0,4149.0,-0.4087467119928273,-0.1667171396307912,-0.7673526933196154,-0.46508210548623813
-387.10655403137207,5000.0,12760.0,8964.0,1325.0,1215.0,4150.0,-0.12983891807371103,-0.41176837896883595,-0.7478205751206009,-0.5043342590595241
-387.1143569946289,5308.0,12796.0,9360.0,1532.0,1283.0,3919.0,0.1694319580058966,-0.586680684755102,-0.6430848039442685,-0.4621044478010729
-387.1221442222595,5536.0,12628.0,9724.0,1566.0,1309.0,3479.0,0.43712724585383433,-0.6658871391715957,-0.47984155745990703,-0.3677854925803359
-387.1299259662628,5620.0,12960.0,9608.0,1614.0,1772.0,3099.0,0.6667484785297577,-0.6407160640645808,-0.2686642796446717,-0.26972003349928403
-387.13773131370544,5428.0,12756.0,9556.0,1705.0,1967.0,3093.0,0.8308813593042367,-0.5352677677613598,-0.020171399932022386,-0.15072391376718455
-387.14553117752075,5188.0,12584.0,9292.0,1749.0,2237.0,2884.0,0.9000347042237141,-0.36200469414893216,0.2392533158713415,-0.04059536244003137
-387.1533169746399,4968.0,12764.0,8948.0,1697.0,2460.0,2666.0,0.8607283655153469,-0.15492724784697934,0.4820588641288742,0.05256881382169234
-387.16115641593933,4476.0,12292.0,8708.0,1672.0,2646.0,2331.0,0.7206983499749721,0.05376092676344562,0.6815026189788074,0.11514265683018744
-387.1689507961273,4236.0,12160.0,8552.0,1744.0,2848.0,2652.0,0.4840349779496893,0.27432656976844266,0.8112805181426843,0.1796635581370383
-387.17675137519836,3984.0,12092.0,8604.0,1553.0,3147.0,2637.0,0.1705701663584467,0.4457725337581983,0.8454512178657831,0.23959320671611636
-387.18453907966614,4276.0,12176.0,8160.0,1876.0,3560.0,2782.0,-0.20538071480736844,0.5559900157873578,0.7627648063070158,0.2586188596939687
-387.19236636161804,4264.0,12192.0,8376.0,2207.0,3208.0,3038.0,-0.5460890187939247,0.5934467851297566,0.5579815192473685,0.1956126809545939
-387.20019340515137,4276.0,12500.0,8112.0,2377.0,3178.0,3022.0,-0.8028367247745923,0.5253513415336687,0.2663937490577086,0.09216035896717555
-387.20799803733826,4764.0,12944.0,8336.0,2289.0,3227.0,2442.0,-0.9289563302683814,0.36658807287850925,-0.04936874936507096,0.014698566720987368
-387.21578907966614,4612.0,13616.0,8612.0,2260.0,3313.0,1819.0,-0.9235186223893189,0.1596489812079635,-0.34838610448034074,-0.01589588325344598
-387.223601102829,5048.0,14084.0,8908.0,2327.0,2936.0,1288.0,-0.817449172580426,-0.059756505427571764,-0.5728414286294252,-0.00766211148838254
-387.23136377334595,4556.0,14704.0,8756.0,2270.0,2896.0,973.0,-0.6265460175622125,-0.2548885821023978,-0.7362520098256831,0.020121546123576375
-387.23915576934814,4252.0,15044.0,9068.0,2126.0,2742.0,817.0,-0.3862584456017646,-0.409208467004608,-0.8252182817727716,0.04865831029785058
-387.2469370365143,3964.0,14636.0,8960.0,2202.0,2540.0,994.0,-0.1232679852340744,-0.5411155873510658,-0.8280749428971675,0.07931465115535603
-387.2547152042389,3868.0,14128.0,8400.0,2115.0,2718.0,1190.0,0.15707679556626145,-0.6372708176800443,-0.7494693154738499,0.08665177661883951
-387.262503862381,4240.0,13612.0,8368.0,2166.0,2745.0,1340.0,0.4248901660799501,-0.680567717305171,-0.59018590215707,0.08931142046584312
-387.2703218460083,4132.0,13200.0,8524.0,2530.0,2718.0,1736.0,0.6606894942429891,-0.656570947556922,-0.345106485558616,0.11534945447001294
-387.27810072898865,4404.0,13300.0,8652.0,2742.0,2906.0,1969.0,0.8254113614715511,-0.5470469259342344,-0.03454324516245857,0.1350648340362163
-387.28589034080505,5268.0,13360.0,8564.0,2825.0,3205.0,2013.0,0.8748774573616065,-0.3580006502011014,0.30119296880822877,0.12533062114489224
-387.293669462204,5764.0,13504.0,8828.0,3018.0,3461.0,2005.0,0.7845624149496345,-0.10307956567011625,0.605711617262199,0.08336580176108849
-387.30148577690125,6072.0,13692.0,9048.0,3069.0,3590.0,1602.0,0.559998299308719,0.15202058494334253,0.814426178759492,-0.001282917003675117
-387.3092751502991,6628.0,14000.0,9292.0,3061.0,3886.0,782.0,0.22287484983210196,0.3277910433113634,0.9104425698537982,-0.11821235229525588
-387.3170690536499,6236.0,14176.0,9196.0,2852.0,4148.0,410.0,-0.16850189312993577,0.4197120757716871,0.8692571080593117,-0.19960201790415702
-387.324880361557,5592.0,14120.0,8908.0,2487.0,4380.0,-252.0,-0.5458355976262186,0.4029926893656485,0.7054088935219821,-0.20508214359608062
-387.3326675891876,5168.0,14064.0,8316.0,2209.0,4359.0,129.0,-0.8183051550148807,0.35286362815404665,0.4172256141821814,-0.1782883060448336
-387.34045791625977,4652.0,13812.0,8052.0,2073.0,4321.0,497.0,-0.9511481297943846,0.26728879085478136,0.05623230638167199,-0.14391617418147076
-387.3482754230499,4532.0,13336.0,7932.0,1816.0,4169.0,579.0,-0.9347213490421105,0.1592005393292429,-0.302812858929766,-0.09620582305119028
-387.3560755252838,4548.0,12868.0,7704.0,1832.0,3918.0,526.0,-0.7966162381663633,0.026638041253758876,-0.6029430286623249,-0.033951259701783025
-387.3638617992401,4788.0,12744.0,8028.0,1915.0,4076.0,208.0,-0.545302798903138,-0.09819324552287177,-0.8304821452825156,0.0574660805087616
-387.3716661930084,4832.0,12976.0,8388.0,1983.0,3995.0,-306.0,-0.22097277832360673,-0.17746680399029657,-0.9439799061543351,0.1690517716507833
-387.3794512748718,4828.0,14040.0,9224.0,1913.0,4206.0,-1076.0,0.15809778184200743,-0.17349967103173658,-0.9364350077668451,0.2607535843612222
-387.3872365951538,2708.0,15520.0,10048.0,1549.0,3675.0,-2736.0,0.5014145618763302,-0.011151922393476139,-0.8216711067775346,0.2707686541169029
-387.39506316185,1392.0,17884.0,10364.0,693.0,3452.0,-3673.0,0.7645289604207636,0.18377961742830828,-0.6010992889250872,0.14282914880935735
-387.4029061794281,-160.0,19944.0,9332.0,-31.0,2852.0,-3774.0,0.8889235085403572,0.3182168599317872,-0.3239475794933137,-0.06009152818723839
-387.41070008277893,-780.0,20628.0,8760.0,-776.0,1954.0,-4092.0,0.8761669850676084,0.3564878484819354,-0.0505546198660311,-0.32045601659581796
-387.41848516464233,-1084.0,19740.0,8140.0,-1288.0,1340.0,-4565.0,0.729830242612468,0.29018364998613716,0.21108762282742558,-0.5818790954640112
-387.42629528045654,-388.0,18300.0,7864.0,-1651.0,1429.0,-4946.0,0.447020789810982,0.15071775477017418,0.462143065757119,-0.7509196752292583
-387.4340920448303,168.0,17136.0,8268.0,-1435.0,1563.0,-4895.0,0.07442449962041132,-0.00018988905882100183,0.6177686330003641,-0.7828300415027889
-387.4418740272522,-140.0,16152.0,8536.0,-1158.0,1342.0,-4303.0,-0.27053309060365605,-0.13715995436070227,0.6536015418556343,-0.6934003304672859
-387.44965291023254,572.0,15344.0,8604.0,-915.0,1293.0,-3147.0,-0.5216903356806001,-0.2072963151680664,0.6123786191011344,-0.5566505710434441
-387.45744490623474,2008.0,13920.0,8892.0,-737.0,1457.0,-2126.0,-0.6974645202064255,-0.21095582153181663,0.5289561687818474,-0.43502443140895763
-387.46522760391235,3188.0,13176.0,9036.0,170.0,1614.0,-1103.0,-0.7991906448638031,-0.20802502304382953,0.3979687614235705,-0.3995507075213132
-387.47301268577576,5040.0,12904.0,9552.0,445.0,1852.0,-635.0,-0.8644763077880584,-0.19376012737170314,0.2379113465767517,-0.39816569099316457
-387.480740070343,6304.0,13336.0,10508.0,287.0,2270.0,-823.0,-0.9149833504970579,-0.1505359430199091,0.041682101926176475,-0.3720309134350273
-387.4885284900665,6572.0,13908.0,11808.0,-94.0,2779.0,-1076.0,-0.9302747051312196,-0.0552074630264141,-0.18512764933367176,-0.311879564049007
-387.4963526725769,5740.0,14972.0,12560.0,-558.0,3188.0,-2521.0,-0.8945352207940951,0.11043341985030745,-0.41502478910783785,-0.12395815005484778
-387.50414276123047,4796.0,15828.0,12072.0,-1040.0,3572.0,-3792.0,-0.7223935870249206,0.33338568739319824,-0.5861310781394363,0.1531399624713781
-387.51193141937256,4076.0,15856.0,11240.0,-1656.0,3592.0,-5097.0,-0.3680152278174829,0.5668256502758972,-0.5981105750286934,0.4307403096096283
-387.5197489261627,3088.0,15384.0,10192.0,-1903.0,3648.0,-6110.0,0.12310727024790885,0.681131534764967,-0.4075251586161794,0.5956741369706147
-387.52756333351135,2476.0,14984.0,8876.0,-1959.0,3460.0,-6746.0,0.5890461445063007,0.5944920905034262,-0.0586272471804016,0.5442119438777292
-387.53536105155945,1024.0,14616.0,7636.0,-1937.0,3096.0,-6777.0,0.8527095322760657,0.3174108612874698,0.2991057574537887,0.28752833696920266
-387.5431592464447,-124.0,14836.0,7180.0,-1807.0,2482.0,-6619.0,0.8469874895995912,-0.04370421239846234,0.5244701910264854,-0.0750543336860344
-387.55096340179443,-480.0,14632.0,6828.0,-1928.0,2141.0,-6457.0,0.595227163330166,-0.3979732510921244,0.5707951702982781,-0.4018890257437351
-387.5587525367737,-616.0,14796.0,6716.0,-2077.0,1918.0,-6343.0,0.17533460462130726,-0.645310096604214,0.4472039169555693,-0.5940044716183088
-387.5665533542633,-1016.0,13868.0,6864.0,-2289.0,1635.0,-6477.0,-0.3007712069499753,-0.7222105777970886,0.19239122243645818,-0.5923969783154331
-387.5743429660797,-884.0,13076.0,7148.0,-2332.0,1400.0,-6495.0,-0.6877069633670587,-0.5942946037138604,-0.11359730178761354,-0.4012090596679221
-387.58214044570923,-1024.0,12336.0,7452.0,-2147.0,1047.0,-6244.0,-0.8700972149158461,-0.31667475243990484,-0.36728161485992084,-0.08804631252188597
-387.58993005752563,-996.0,11884.0,7592.0,-1914.0,909.0,-6021.0,-0.8214027749941445,0.024887907309115182,-0.5135535857858123,0.24686188006297352
-387.59772872924805,-912.0,11620.0,7916.0,-1752.0,895.0,-5984.0,-0.5684301884262695,0.34992374586778024,-0.5278848908355899,0.5251457273852987
-387.6055347919464,-460.0,11412.0,8112.0,-1736.0,924.0,-6199.0,-0.16411814776053862,0.5907516471278748,-0.4034372174798073,0.6792025740112471
-387.613338470459,-136.0,11468.0,8252.0,-1731.0,790.0,-6553.0,0.2934165727493577,0.6868365251549784,-0.15410767366861028,0.6468486124786115
-387.62117099761963,-224.0,11376.0,8520.0,-1783.0,1116.0,-6796.0,0.6788755000353507,0.5687337579011902,0.154067191657237,0.43810189286305895
-387.6290023326874,-280.0,11508.0,8528.0,-1917.0,1418.0,-7145.0,0.859182051543081,0.25453467206938246,0.434092930845082,0.09263708982411575
-387.6367983818054,-428.0,11956.0,8204.0,-1988.0,1614.0,-7535.0,0.7418694068435516,-0.15846222682552344,0.5801267351910355,-0.2966015458079801
-387.64460849761963,-640.0,11960.0,8484.0,-1821.0,1710.0,-7590.0,0.3557195201051679,-0.5055641777146674,0.519182303971477,-0.5901849036282697
-387.6523950099945,-940.0,11948.0,8228.0,-2136.0,1789.0,-7703.0,-0.17608533723384612,-0.6741825190837257,0.28045789506927415,-0.6601630511218244
-387.66021966934204,-1608.0,12036.0,8264.0,-2033.0,1619.0,-7530.0,-0.6316521101407117,-0.6025584714035285,-0.05789389534971091,-0.4843420249945963
-387.6680107116699,-1592.0,12440.0,8396.0,-1843.0,1653.0,-7368.0,-0.8537966828123253,-0.32576126181501375,-0.37961272536274865,-0.14423939635905977
-387.6757938861847,-1776.0,12816.0,8068.0,-1727.0,1613.0,-7403.0,-0.7802631753813266,0.05656151943197249,-0.5697414436156941,0.2517634983274989
-387.68363904953003,-1216.0,12452.0,8084.0,-1762.0,1742.0,-7404.0,-0.4316494080967375,0.41846307858240256,-0.570612310340509,0.559436351733547
-387.69142961502075,-1096.0,12452.0,8444.0,-1550.0,1564.0,-6494.0,0.01714000021954795,0.6211540947710058,-0.4015437130726398,0.6727826227196447
-387.69924330711365,-1680.0,12096.0,7748.0,-1476.0,1422.0,-6414.0,0.45153060021591185,0.6553875779357213,-0.11917204233086189,0.5936204714149421
-387.70706725120544,-984.0,11924.0,8532.0,-1306.0,1644.0,-6398.0,0.7542847399574968,0.5044731102116837,0.210431188107894,0.363703350564855
-387.7148551940918,-1712.0,12072.0,8784.0,-1093.0,1359.0,-5727.0,0.8502408607483073,0.2516631715492386,0.4585612962001769,0.05897172565704585
-387.72262048721313,-1196.0,11648.0,8696.0,-1229.0,1673.0,-5965.0,0.7366168084827553,-0.07598526145716093,0.6194143356133395,-0.2606679848747289
-387.7304241657257,-2224.0,11136.0,9492.0,-1056.0,1329.0,-5339.0,0.4818748571004153,-0.36133475823459,0.62294640351739,-0.49917090553311905
-387.7382092475891,-1980.0,11920.0,8840.0,-1028.0,1424.0,-5452.0,0.12030492065279924,-0.5715075096637952,0.4969903664366475,-0.6417993986704708
-387.74599266052246,-1832.0,11288.0,8564.0,-957.0,1598.0,-5428.0,-0.26902667285173176,-0.6504430138341568,0.2651248454246876,-0.6589820569539065
-387.75381112098694,-2348.0,11688.0,8908.0,-654.0,1431.0,-4990.0,-0.5697804530198953,-0.607792704791757,-0.013002419545177198,-0.5529640136973965
-387.76164650917053,-3044.0,12504.0,9132.0,-443.0,1046.0,-5106.0,-0.7628617766958847,-0.48151086072173005,-0.2862345822256324,-0.3228915678699805
-387.76943492889404,-2724.0,12124.0,8012.0,-635.0,1637.0,-5291.0,-0.8073626897298036,-0.2344130974417574,-0.5392104668444612,-0.049679567483989384
-387.777236700058,-3176.0,13104.0,8584.0,-603.0,1479.0,-4479.0,-0.7108502942730781,0.023240926364275404,-0.676411470171761,0.19136154653870638
-387.7850286960602,-3852.0,13580.0,8868.0,-743.0,1159.0,-4043.0,-0.537375594950076,0.2704144130123465,-0.7051043545533042,0.3754082635973911
-387.7928190231323,-4008.0,13120.0,8788.0,-853.0,1254.0,-3845.0,-0.29549361387937995,0.4759144790889279,-0.6595095957304757,0.5012345018945153
-387.8006401062012,-4084.0,13648.0,9572.0,-982.0,1043.0,-3689.0,-0.03143862727977249,0.6313644532125207,-0.5445406944883675,0.5512403940029654
-387.80843591690063,-4084.0,13972.0,9932.0,-996.0,1091.0,-3733.0,0.2406350140980063,0.7163263383989209,-0.3677533986260301,0.5419675310431898
-387.8162910938263,-4188.0,14012.0,9892.0,-1064.0,1037.0,-3772.0,0.48925542229043545,0.7220904012662949,-0.1511784577250305,0.4651447710964514
-387.8241288661957,-4536.0,14072.0,9896.0,-1043.0,778.0,-3413.0,0.6706738131316027,0.6582617536154197,0.05234075318793087,0.3378587658510411
-387.83193254470825,-4488.0,13544.0,9840.0,-1138.0,640.0,-3336.0,0.7937091195234833,0.531966338867912,0.2367255049344823,0.1760644291452459
-387.83974146842957,-3852.0,13456.0,9852.0,-1075.0,677.0,-3796.0,0.838377403907019,0.34783183721628774,0.41850871817259555,-0.03141328461654563
-387.847576379776,-4564.0,13020.0,9596.0,-722.0,568.0,-3668.0,0.7878330669512648,0.15447809652812458,0.5443501438313272,-0.2431840809387507
-387.8553750514984,-4392.0,13220.0,10388.0,-468.0,476.0,-3472.0,0.6669398242001309,-0.030991934167048714,0.6055423086637283,-0.4330696056417329
-387.86314582824707,-4892.0,12188.0,10360.0,-464.0,706.0,-3858.0,0.45630773380227463,-0.22229153552116013,0.6179934795762888,-0.6003780346657166
-387.8709819316864,-4540.0,12560.0,10376.0,-386.0,870.0,-4027.0,0.17956320084461116,-0.38490590378942746,0.5593248547722776,-0.7118709215612423
-387.87878012657166,-5352.0,12912.0,10960.0,-436.0,1134.0,-3925.0,-0.12645659610543714,-0.48275852322355234,0.44453136461278664,-0.74387149658522
-387.8865895271301,-4912.0,13000.0,10784.0,-518.0,1674.0,-4028.0,-0.4433680304612491,-0.48983049763919434,0.2706279574100182,-0.7001795354161198
-387.89436411857605,-5108.0,13860.0,11280.0,-754.0,1545.0,-3374.0,-0.6820968578098806,-0.42334076459860037,0.10679772776763923,-0.5866180349585486
-387.90220046043396,-5064.0,14508.0,10772.0,-518.0,2166.0,-3264.0,-0.8400287951505145,-0.29492201022819975,-0.11011927715924652,-0.44186692114126136
-387.9100263118744,-4800.0,15368.0,11112.0,-1206.0,2654.0,-3288.0,-0.9078222083468973,-0.06786573699534482,-0.32029998880543015,-0.2620324349111815
-387.9178578853607,-4812.0,15716.0,10776.0,-1648.0,3046.0,-3502.0,-0.8383990571513615,0.21125009141866843,-0.5004498651040652,-0.04483695307037979
-387.9256317615509,-4796.0,15684.0,10564.0,-1921.0,3115.0,-3681.0,-0.6206959131937688,0.47790112454178973,-0.5948362952152138,0.18032437550393865
-387.93341422080994,-5120.0,15216.0,10500.0,-2090.0,3016.0,-3807.0,-0.28786609100449656,0.673070248786396,-0.5741544063630395,0.36668279411818006
-387.94120812416077,-5268.0,15328.0,10340.0,-2006.0,2778.0,-3580.0,0.07693242088488683,0.7470817638935199,-0.45691489553795367,0.4766330023299671
-387.9490303993225,-5480.0,14376.0,10004.0,-2086.0,2792.0,-3693.0,0.4370300998575135,0.6986335152984406,-0.25970296683803024,0.5034583122124414
-387.9568078517914,-5776.0,14188.0,10040.0,-1914.0,2518.0,-3611.0,0.7098120759990096,0.5503920479678733,-0.02530374708000836,0.4388566174542859
-387.96459555625916,-5572.0,13288.0,9016.0,-1546.0,2046.0,-3651.0,0.8652012041825099,0.3580002991307675,0.20297603818854482,0.2864670836670388
-387.97236013412476,-5372.0,13200.0,9532.0,-1374.0,1803.0,-3421.0,0.9053098202491384,0.13994680715248833,0.38774893813663786,0.10237080395409016
-387.98014783859253,-5760.0,12752.0,9588.0,-937.0,1379.0,-3345.0,0.855675353793038,-0.056392411324409614,0.5030419702404222,-0.10764925003367258
-387.98794651031494,-5812.0,13144.0,9820.0,-737.0,1108.0,-3006.0,0.7452115835328171,-0.22378219409523753,0.5554658560792497,-0.293323896238576
-387.99574279785156,-5820.0,14216.0,10052.0,-276.0,900.0,-2695.0,0.6086883919990389,-0.33886790430103114,0.55154699264265,-0.45876235654977243
-388.0035889148712,-5472.0,14288.0,10336.0,-303.0,1075.0,-2680.0,0.4272330772522388,-0.4273492693757344,0.5249087328896594,-0.5994291632893587
-388.0113821029663,-5336.0,14536.0,10428.0,-416.0,1237.0,-2536.0,0.21580032215977044,-0.47964090542737664,0.483416714344692,-0.699773608453997
-388.01917910575867,-5180.0,14680.0,10556.0,-559.0,1447.0,-2462.0,-0.018468501210398253,-0.4900721878751064,0.42808770534188234,-0.7590975442388611
-388.02696919441223,-4796.0,14500.0,10820.0,-607.0,1614.0,-2526.0,-0.2629613100868329,-0.4603773341738257,0.34545013046537915,-0.7743179365983139
-388.03476428985596,-4728.0,14548.0,11028.0,-675.0,1824.0,-2634.0,-0.5030514449141108,-0.3855457734174798,0.23383801124627487,-0.7373014884469784
-388.04254841804504,-4560.0,13884.0,11000.0,-722.0,1941.0,-2802.0,-0.71502648963239,-0.2736996412337438,0.0962011746896314,-0.6360589276952541
-388.05034160614014,-4880.0,14000.0,11044.0,-872.0,2000.0,-2789.0,-0.8670345577932012,-0.12582096747291874,-0.04502140961537459,-0.4799929503782027
-388.0581245422363,-4800.0,13412.0,10356.0,-1077.0,2290.0,-2906.0,-0.9398391306742656,0.059540624923843995,-0.19463039826133924,-0.27436532308174694
-388.06591868400574,-4364.0,13016.0,10404.0,-1080.0,2250.0,-2960.0,-0.9160444986794837,0.23871327031214817,-0.320251452902903,-0.03629680329605215
-388.0737085342407,-4416.0,12792.0,10008.0,-987.0,2169.0,-2930.0,-0.8018068661186715,0.3857580513527774,-0.4079322350627075,0.20466501131900056
-388.08150148391724,-5076.0,11932.0,9820.0,-874.0,2261.0,-2942.0,-0.6067190883425297,0.48501766027215837,-0.45804375114838974,0.4322565662877116
-388.0892872810364,-5148.0,12148.0,9180.0,-674.0,2138.0,-2667.0,-0.37517797492284044,0.5229554994829956,-0.46285401877966686,0.609528662158556
-388.09707379341125,-5344.0,12392.0,9724.0,-517.0,1891.0,-2298.0,-0.14788165810137416,0.5144864575410123,-0.4325720274426045,0.7254764925745584
-388.10488748550415,-5496.0,12184.0,9336.0,-604.0,1940.0,-1963.0,0.07458830279561285,0.45973058762151264,-0.3957827330133337,0.791479879807279
-388.11267852783203,-4928.0,12384.0,9492.0,-693.0,1965.0,-1702.0,0.2802981788991559,0.3681978537236413,-0.35285137254553534,0.8132399278883524
-388.1204586029053,-5188.0,12476.0,9452.0,-688.0,1952.0,-1518.0,0.45898075155454193,0.2532348279763227,-0.2975945082955233,0.7979011845050588
-388.12828183174133,-5052.0,12280.0,9380.0,-675.0,2019.0,-1427.0,0.6107066033058202,0.1196729044402629,-0.22634777489414665,0.749321376594828
-388.13607001304626,-4928.0,12268.0,9632.0,-563.0,1914.0,-1448.0,0.7323923381845853,-0.006712007631805909,-0.14247734004142742,0.6657752019238822
-388.14384841918945,-5168.0,11980.0,9384.0,-532.0,1792.0,-1225.0,0.8103036485706532,-0.1270984241000576,-0.05817485635582768,0.5690954874116892
-388.1516308784485,-5432.0,12020.0,9516.0,-354.0,1551.0,-1101.0,0.8568254660456754,-0.2202755476275838,0.021665128149069256,0.4656816789130358
-388.1594169139862,-5488.0,11812.0,9524.0,-265.0,1419.0,-1264.0,0.8880804346559111,-0.29581412803140894,0.09163630131337558,0.3397203725418741
-388.16719102859497,-5384.0,11752.0,9660.0,-183.0,1196.0,-1235.0,0.9002637758742181,-0.35113132918660733,0.14552286288649158,0.21226167786404915
-388.1749761104584,-5908.0,11572.0,9600.0,-13.0,1006.0,-1274.0,0.901748096540236,-0.3829283585642714,0.1835556929993561,0.08076849732946777
-388.1827566623688,-5836.0,11412.0,9480.0,80.0,964.0,-1026.0,0.8895757247117008,-0.3966653254343517,0.22408000768104266,-0.03316322902517667
-388.1905484199524,-5788.0,11372.0,9732.0,295.0,885.0,-1199.0,0.8714691246213414,-0.3910291747785155,0.24829754650528693,-0.16120197797546032
-388.198349237442,-6008.0,11808.0,9756.0,504.0,763.0,-972.0,0.8527824644323058,-0.36039042114751235,0.26430022088964067,-0.27023361363747683
-388.20617389678955,-5860.0,12184.0,9956.0,540.0,805.0,-891.0,0.824844610083319,-0.31945948214748104,0.2815956643970786,-0.37186138583527123
-388.2139718532562,-5252.0,12644.0,10460.0,477.0,897.0,-677.0,0.789743971928249,-0.2709045338393904,0.3100224132444822,-0.45475410458216114
-388.2217366695404,-4960.0,13040.0,10888.0,398.0,1117.0,-712.0,0.7354197674603562,-0.21662289987607747,0.3517647105182478,-0.537116256793488
-388.2295331954956,-4760.0,12864.0,11260.0,278.0,1476.0,-731.0,0.6542645036037136,-0.1502435015851798,0.41517098635897215,-0.6140015485659044
-388.2373118400574,-4968.0,12688.0,11452.0,253.0,1826.0,-733.0,0.5441293170095272,-0.06338431834624496,0.4888879916157386,-0.6788919252815258
-388.2451055049896,-5232.0,12468.0,11504.0,382.0,2154.0,-641.0,0.40843436291154256,0.0541212740695333,0.554023295836157,-0.7234019951292469
-388.25289607048035,-5136.0,12356.0,11136.0,547.0,2476.0,-382.0,0.25576022129026793,0.20648160961838388,0.594719703197104,-0.7336624078717017
-388.2607035636902,-5388.0,12376.0,10728.0,730.0,2685.0,-224.0,0.08643550033860278,0.37227194047891154,0.594444729410663,-0.7075153498611637
-388.26848125457764,-5632.0,12592.0,10464.0,807.0,2768.0,-41.0,-0.08327370412224742,0.5306691974553146,0.5495853403221387,-0.6398528321238343
-388.27633690834045,-5508.0,12936.0,9944.0,753.0,2836.0,72.0,-0.24230057888172582,0.6655749108554024,0.4683754117395202,-0.5281334501726231
-388.28412103652954,-5356.0,13012.0,9404.0,665.0,2651.0,321.0,-0.3641259696457159,0.7650971261255607,0.3529024716690098,-0.39686082108703913
-388.2919125556946,-5280.0,13104.0,9188.0,581.0,2357.0,548.0,-0.4461252944938622,0.8259067607297246,0.21617228289837512,-0.2685512768545387
-388.2997190952301,-4784.0,13324.0,8660.0,444.0,1997.0,733.0,-0.4898885381974758,0.8540328706577597,0.0737968828067213,-0.15871703143272806
-388.30753350257874,-4676.0,13524.0,8776.0,325.0,1584.0,956.0,-0.5043387481268967,0.8567915341075216,-0.06882554540302781,-0.08254537248961796
-388.3153147697449,-4448.0,13444.0,8964.0,182.0,1295.0,960.0,-0.49828615993614306,0.8439120468783797,-0.1970120447721777,-0.026638584127568005
-388.32310009002686,-4256.0,13376.0,9112.0,59.0,1085.0,787.0,-0.4788783853446588,0.8246840675179433,-0.3002931235341869,0.019892732085717502
-388.33090567588806,-4220.0,13072.0,8856.0,49.0,943.0,1205.0,-0.4557362267101561,0.7824391982704758,-0.4226419643738049,0.03830355889595017
-388.3386836051941,-4284.0,13152.0,8472.0,39.0,832.0,1363.0,-0.42812774252139524,0.7208261524538881,-0.5434721045404495,0.04188514782631726
-388.34646487236023,-4200.0,12936.0,8296.0,94.0,703.0,1615.0,-0.40186942452085206,0.6306672534916519,-0.6632279449695538,0.029807281325852534
-388.35427618026733,-4052.0,12780.0,8112.0,170.0,654.0,1737.0,-0.3729923326071784,0.5156262604269243,-0.7712310628064087,0.014454312052078273
-388.3620524406433,-3764.0,12484.0,7940.0,249.0,619.0,1905.0,-0.339714617113114,0.3727099123164589,-0.8635232435259962,-0.002984639189386397
-388.3698332309723,-3732.0,12528.0,8112.0,193.0,585.0,2157.0,-0.295742953768722,0.20069626031894666,-0.9333696642401279,-0.03283574677712928
-388.37763690948486,-4232.0,11856.0,7756.0,185.0,427.0,2250.0,-0.2527500256523042,0.013519629159938134,-0.9651053782973091,-0.06712862982174614
-388.3854172229767,-4460.0,11452.0,7656.0,202.0,270.0,2395.0,-0.21159757694380824,-0.18702524788531374,-0.9540151163458408,-0.10051457540365893
-388.39319682121277,-4756.0,11132.0,7244.0,4.0,232.0,2772.0,-0.16321897753752518,-0.4041735918950873,-0.8872650453968676,-0.15087747414084984
-388.401004076004,-4836.0,10648.0,6872.0,302.0,-292.0,3142.0,-0.12903883539275118,-0.631919114757564,-0.7480912704463534,-0.15616229521385744
-388.4087746143341,-4656.0,10252.0,6600.0,399.0,-1103.0,3474.0,-0.1255300301100823,-0.836492518069331,-0.5233106051655556,-0.10328837919074929
-388.41656827926636,-4612.0,10268.0,6636.0,499.0,-1692.0,3816.0,-0.12400148444968848,-0.9683740849284782,-0.21650393291458125,0.0011447819549507588
-388.4243710041046,-4516.0,10828.0,6680.0,577.0,-2349.0,3990.0,-0.11125248875367094,-0.9722266981377501,0.13546209287917893,0.15507466771550754
-388.4321587085724,-4356.0,11292.0,7016.0,468.0,-2897.0,4035.0,-0.08434244595391502,-0.8157939176986855,0.46975750261201266,0.32664127785089575
-388.43993377685547,-4628.0,11724.0,7524.0,338.0,-3274.0,3976.0,-0.035976795745956545,-0.5122363898150547,0.7171809450468596,0.47113802985832764
-388.447731256485,-5228.0,12208.0,8092.0,177.0,-3540.0,3866.0,0.03139704894844805,-0.11376714534713431,0.8259207716475065,0.5512949672526316
-388.4555575847626,-5136.0,12348.0,8576.0,-53.0,-3345.0,3758.0,0.08351961846297472,0.2911454202023036,0.779555249053071,0.5482266240350131
-388.4633433818817,-5416.0,12632.0,8916.0,-214.0,-3643.0,3615.0,0.14960581326303266,0.6477223500700519,0.5938697246277397,0.4532026125566891
-388.4711287021637,-5572.0,13064.0,9392.0,-340.0,-3570.0,3670.0,0.19058278069034146,0.8895590457037365,0.29778898402317927,0.2892829564724435
-388.4789457321167,-5688.0,13232.0,9576.0,-376.0,-3539.0,3645.0,0.20087985404120604,0.9753100264101799,-0.04898116460803268,0.07757887687894739
-388.48674035072327,-5704.0,13268.0,9920.0,-378.0,-3407.0,3629.0,0.17786512744578617,0.8949378681997923,-0.38524632541735837,-0.13796911702670392
-388.4945285320282,-5812.0,13304.0,10072.0,-295.0,-3298.0,3679.0,0.1233656546142596,0.6672635635230609,-0.6612104360285276,-0.3199078169458595
-388.50231170654297,-6024.0,13172.0,10192.0,-168.0,-3147.0,3776.0,0.052377376897225755,0.3304223660993213,-0.8364711152428801,-0.43404348138755
-388.5101044178009,-5940.0,13244.0,10020.0,-51.0,-3011.0,3592.0,-0.027685898186331114,-0.04274670438832703,-0.8809490479441787,-0.47046252266444993
-388.5179214477539,-5820.0,13296.0,9804.0,28.0,-2751.0,3746.0,-0.07908699879117727,-0.41127346520456215,-0.7982190620448097,-0.43295001146684386
-388.5257029533386,-5872.0,13428.0,9508.0,101.0,-2688.0,3672.0,-0.11530460936353477,-0.71499985159946,-0.6055770953172204,-0.32978241447874523
-388.53348207473755,-5868.0,13508.0,9132.0,90.0,-2598.0,3458.0,-0.1380688160075309,-0.9106893261445106,-0.34258236867219977,-0.1849845235896259
-388.5412652492523,-6044.0,13492.0,8976.0,81.0,-2608.0,3423.0,-0.1445892445837898,-0.988649912220051,-0.03777214532538996,-0.015445596637619399
-388.5490462779999,-6288.0,13408.0,8744.0,52.0,-2750.0,3342.0,-0.1354206228356226,-0.9392105924054203,0.2668703701297706,0.16830009973577228
-388.5568211078644,-6460.0,13128.0,8564.0,47.0,-2861.0,3355.0,-0.10666327875709074,-0.7648350366967561,0.5379589239962627,0.33800962663604994
-388.56460666656494,-6240.0,13232.0,8508.0,107.0,-2983.0,3351.0,-0.05435192615653915,-0.48454565311331793,0.7379776661532333,0.4665301088151642
-388.57238698005676,-6244.0,13368.0,8564.0,214.0,-3120.0,3405.0,0.01576607840697245,-0.12899991958910204,0.8396433596502768,0.52736086327378
-388.5802125930786,-6104.0,12824.0,8452.0,237.0,-3265.0,3751.0,0.07805394382173259,0.2719689688711387,0.8146102484109287,0.506310779076378
-388.5880014896393,-5620.0,13320.0,8588.0,273.0,-3391.0,3924.0,0.1269320841058078,0.6399870973271325,0.6469930137622023,0.39459447718163815
-388.5957808494568,-4956.0,13620.0,8704.0,287.0,-3491.0,3990.0,0.1549096170957065,0.8970601034866531,0.3586472343476373,0.2065389613573377
-388.60359954833984,-4472.0,13776.0,8812.0,153.0,-3580.0,3861.0,0.16854672474062093,0.985355132725271,0.009685485355465248,-0.023946928082783342
-388.6114287376404,-4244.0,13856.0,9052.0,2.0,-3509.0,4216.0,0.16258351397835302,0.8853303833136517,-0.3649069918449082,-0.2379067058047197
-388.61921429634094,-3956.0,13788.0,9392.0,-200.0,-3254.0,4413.0,0.14982594704220548,0.6081426530627098,-0.6745879096192368,-0.39069918263838643
-388.62701439857483,-3820.0,13760.0,9548.0,-374.0,-2905.0,4379.0,0.13447818463391656,0.2237390696294338,-0.8469641219086367,-0.4631503241696517
-388.6348292827606,-3488.0,13044.0,9828.0,-534.0,-2483.0,4522.0,0.1313262729993838,-0.19790517201075383,-0.8588492203086431,-0.453833636574815
-388.64261841773987,-3484.0,12516.0,9796.0,-436.0,-1983.0,4577.0,0.14332077765545337,-0.5722891914366801,-0.7194852736691573,-0.3664494194704163
-388.6504430770874,-3632.0,11608.0,10136.0,-321.0,-1430.0,4577.0,0.16952143933371883,-0.8386762125534012,-0.459653944781605,-0.23791373047812028
-388.6582329273224,-3612.0,10728.0,9832.0,-145.0,-958.0,4556.0,0.1992046191021304,-0.9666759623895321,-0.12717294437283366,-0.09839789472438489
-388.66603231430054,-4020.0,10312.0,9600.0,-242.0,-292.0,4994.0,0.20011071839556063,-0.9426833345155116,0.266857631156902,0.009530787126762757
-388.67382192611694,-4112.0,10116.0,9448.0,179.0,-202.0,5774.0,0.19169224059009243,-0.7185800893801705,0.6594385808826235,0.10971553257150132
-388.6816532611847,-3892.0,10068.0,8716.0,558.0,174.0,6051.0,0.1401935654367297,-0.32025922131967177,0.9250693412775558,0.14841330532726527
-388.6894326210022,-3668.0,9952.0,8452.0,864.0,268.0,6433.0,0.051652021287108996,0.1794892946461212,0.9737022612267155,0.13045906747472516
-388.6972289085388,-3696.0,10036.0,8004.0,1061.0,484.0,7033.0,-0.07314882859311166,0.6593114340308142,0.745240690773967,0.06763131409655915
-388.70501947402954,-4184.0,10580.0,7904.0,978.0,19.0,7242.0,-0.14615825482924732,0.9476826900332219,0.28166431970740813,-0.03464815378094422
-388.7128050327301,-3404.0,10872.0,7792.0,924.0,453.0,7354.0,-0.17741904081825483,0.9382202295391255,-0.2813508770253029,-0.09543043977564908
-388.7205696105957,-4112.0,11136.0,8296.0,848.0,582.0,7364.0,-0.1435908678133321,0.6283121377734989,-0.755386067508755,-0.11831064711499409
-388.72839188575745,-3876.0,11484.0,8680.0,699.0,605.0,7552.0,-0.05333293129847733,0.1064553858013063,-0.9866116035276183,-0.11144681717154893
-388.736209154129,-4352.0,11572.0,8408.0,732.0,553.0,7601.0,0.051058263761135536,-0.45412824164992643,-0.8870591012144711,-0.06547323720589313
-388.7439959049225,-4264.0,11432.0,8436.0,716.0,1164.0,7563.0,0.1766721631391465,-0.8552807002539579,-0.4867564527778455,-0.018708987785641985
-388.7517807483673,-4452.0,11728.0,8644.0,624.0,1401.0,7504.0,0.245230701232253,-0.9661765807218918,0.07821324137550228,0.01572917388894067
-388.7595901489258,-4700.0,10972.0,8760.0,758.0,1553.0,7429.0,0.23999274044409874,-0.7502693953823025,0.6151948261420871,0.03216589459059021
-388.76736879348755,-4716.0,10700.0,8736.0,915.0,1646.0,8121.0,0.15258721053765945,-0.24223112880971742,0.9574401781714544,0.03673593116990175
-388.77515292167664,-4212.0,10328.0,8612.0,1178.0,1691.0,8563.0,0.006923377032043374,0.38349255018190676,0.9234234941524345,0.013212919917967126
-388.7829689979553,-3620.0,10480.0,8892.0,1451.0,1681.0,9171.0,-0.14486567473674528,0.8658050855870384,0.4778606222658858,-0.0323220627799225
-388.7907371520996,-3604.0,10344.0,8716.0,1621.0,1487.0,9837.0,-0.22642648299104937,0.9458301910291851,-0.21696373291719234,-0.08404187132993016
-388.7985210418701,-3208.0,10416.0,9300.0,1746.0,1163.0,10352.0,-0.2003962479902823,0.5321096893606505,-0.8142058531945457,-0.11734330361665846
-388.8063554763794,-2520.0,11056.0,9892.0,1956.0,785.0,10856.0,-0.08939489329035319,-0.19114520558223114,-0.9728687716813194,-0.0948599837856498
-388.8141553401947,-1828.0,11660.0,10192.0,1922.0,708.0,11154.0,0.06760529990286131,-0.8155237279220495,-0.574350533346592,-0.021726423213503973
-388.8220102787018,-1332.0,12572.0,9612.0,1902.0,864.0,10758.0,0.1926980082973786,-0.9697598923135532,0.1394665568097087,0.054610515378208595
-388.8298144340515,-576.0,13796.0,10176.0,2105.0,889.0,11634.0,0.2116237395172978,-0.5537595925184622,0.7986127572736411,0.1038430088464994
-388.83765482902527,-1052.0,14204.0,10636.0,2056.0,1018.0,11795.0,0.0918448208719689,0.20513701899569817,0.9703226153367858,0.08920400485703878
-388.84544587135315,-268.0,14276.0,11140.0,2357.0,1488.0,12103.0,-0.11567888650157102,0.8391004625417948,0.5314575539175121,0.009037552982822212
-388.853227853775,76.0,13916.0,11268.0,2337.0,1921.0,12592.0,-0.2556629907364953,0.9263755440870998,-0.27061797905285606,-0.056839210922995556
-388.8610382080078,616.0,13612.0,12132.0,2244.0,2218.0,13127.0,-0.2067564176319705,0.37343324101117165,-0.9011240484962441,-0.07599241736926886
-388.86882758140564,564.0,13092.0,12504.0,2391.0,2241.0,13392.0,-0.012509591152067056,-0.4526693929475307,-0.8908556980068411,-0.036194697767302
-388.87660694122314,440.0,13536.0,12380.0,2214.0,2084.0,13607.0,0.177755429673841,-0.956483071385218,-0.2300858613652526,0.024569040982053075
-388.88438749313354,308.0,13428.0,12212.0,1690.0,2328.0,13415.0,0.2158674696376481,-0.7721138538807776,0.5958986587962172,0.04632732069180859
-388.8921866416931,124.0,13604.0,12176.0,1492.0,2418.0,13016.0,0.08996262002197146,-0.05000272118205012,0.9941318645529961,0.03329100108972254
-388.8999764919281,-832.0,13924.0,12076.0,856.0,2351.0,12784.0,-0.09738210617178074,0.6995421536393542,0.7071782750898018,0.03250212177958064
-388.9077694416046,-1200.0,14668.0,11576.0,431.0,2474.0,12229.0,-0.2103217943226139,0.9761477032549154,-0.04016223221983445,0.0358803479106569
-388.9155821800232,-1292.0,14748.0,11008.0,40.0,2352.0,11633.0,-0.16797696958526262,0.6439682367496827,-0.7462149404977017,0.015871683101301805
-388.92336344718933,-1284.0,15432.0,10708.0,-359.0,2116.0,11444.0,-0.01808573452546396,-0.06955138851537698,-0.9966288152214703,-0.03957922728535512
-388.93113565444946,-736.0,16780.0,10992.0,-558.0,1552.0,11048.0,0.10861758154479623,-0.7334867543112628,-0.6658908962101303,-0.08239366828681843
-388.938937664032,32.0,17240.0,10964.0,-700.0,1131.0,10661.0,0.15038121434923754,-0.9859384973695906,0.023686971170878434,-0.06891804678161118
-388.9467170238495,1068.0,17664.0,10332.0,-1105.0,773.0,9588.0,0.08499977443484212,-0.7453932350220708,0.6611601967818359,-0.005581910135619246
-388.95448112487793,1824.0,17816.0,10152.0,-1530.0,857.0,7994.0,-0.048971054194077206,-0.2399934725269128,0.9669907668313817,0.07024119772933013
-388.9622895717621,3452.0,17436.0,9672.0,-1836.0,1072.0,6608.0,-0.18685738733009752,0.2728846518097007,0.9318360207048286,0.1493315576958146
-388.9700779914856,3776.0,17136.0,8744.0,-1687.0,1129.0,5100.0,-0.2750502591981803,0.6317290254444875,0.6943349759060071,0.2077612441230962
-388.9778628349304,3912.0,16396.0,8452.0,-1492.0,658.0,3148.0,-0.2767716575725177,0.8085515863684387,0.45653169576896485,0.24742795416839114
-388.98566198349,3260.0,15980.0,8672.0,-1162.0,195.0,1700.0,-0.23539522752142078,0.8858142096957675,0.3018822177348437,0.2622773329449073
-388.9934446811676,2324.0,15708.0,9172.0,-888.0,-1379.0,108.0,-0.13146122296652318,0.9289500123240939,0.2985093176835972,0.1751057072607437
-389.0012357234955,932.0,15536.0,9628.0,-433.0,-2447.0,-283.0,-0.02754281647444915,0.9417599852469231,0.335047095677392,-0.008542079753476478
-389.0090389251709,332.0,15480.0,9260.0,81.0,-3814.0,-1070.0,0.07242181660302399,0.8575843186954825,0.4083866904415223,-0.30417844742476957
-389.0168128013611,984.0,15384.0,9436.0,587.0,-5177.0,-940.0,0.17080343127860198,0.6266387914490918,0.39070441296940067,-0.6523036674746765
-389.0246033668518,2780.0,15248.0,9444.0,1266.0,-5501.0,-878.0,0.21411447101448428,0.27055324810686615,0.2546255305731028,-0.9033945829046011
-389.03240060806274,5024.0,15056.0,10108.0,1999.0,-5844.0,-694.0,0.2128174733223701,-0.14799203567695157,0.00346466620218975,-0.9658131685336361
-389.0402193069458,6320.0,15088.0,10560.0,2764.0,-5863.0,-462.0,0.18378735949115796,-0.5140037793377473,-0.2997973245079845,-0.7823962458598804
-389.0480134487152,7368.0,15032.0,11860.0,3189.0,-4908.0,-522.0,0.14475336789251345,-0.6977768758171253,-0.5515308925424799,-0.4335522674718265
-389.05579686164856,8476.0,15152.0,13356.0,3186.0,-3954.0,-914.0,0.10379501290023202,-0.6958111213800436,-0.7091623292276729,-0.04650020930349251
-389.06358766555786,8556.0,15468.0,14188.0,3087.0,-2644.0,-960.0,0.11623566850785175,-0.5816980083724015,-0.755351220193395,0.27849816978656033
-389.0713641643524,8732.0,15276.0,14376.0,2611.0,-1164.0,-983.0,0.18948868561732254,-0.44679529565777504,-0.7286689679557108,0.483228245179708
-389.0791485309601,8004.0,15236.0,14952.0,2282.0,-216.0,-353.0,0.2741097058027321,-0.369955823223987,-0.6368181339048801,0.6184328762099472
-389.08694791793823,7520.0,14892.0,15052.0,1407.0,1274.0,312.0,0.36841261345914783,-0.4165304354946457,-0.5130785687563101,0.653853901750091
-389.0947217941284,7480.0,13656.0,14288.0,824.0,2351.0,806.0,0.44621464569971486,-0.5461617003699726,-0.3520070867783784,0.6153786621827713
-389.1025049686432,7792.0,13320.0,13728.0,43.0,3316.0,1148.0,0.467120112997016,-0.7245863729831287,-0.15849744300946855,0.4813023464312943
-389.11033940315247,7684.0,12288.0,13432.0,-581.0,4494.0,970.0,0.41886546357287946,-0.8811172512346677,0.05720835736619021,0.21192290308034828
-389.1181161403656,7696.0,10500.0,12824.0,-1638.0,5263.0,954.0,0.22371275056791481,-0.9287831248938666,0.2630366801595474,-0.13463364006208167
-389.1259036064148,6836.0,8536.0,12108.0,-2432.0,4918.0,286.0,-0.07488820248599447,-0.822228379553539,0.3704333119652097,-0.42557186275841097
-389.13368558883667,6848.0,8292.0,11416.0,-2590.0,5296.0,525.0,-0.36656462589348426,-0.5255318330683296,0.4172480445641108,-0.6444771033813671
-389.14145851135254,5640.0,7952.0,10180.0,-3263.0,4876.0,268.0,-0.6041020824374559,-0.12193871735468007,0.40660577632787415,-0.674435590595152
-389.14924454689026,5204.0,7516.0,9312.0,-3573.0,4862.0,722.0,-0.6822923631539922,0.33407331888392705,0.325166043386017,-0.5631511280467276
-389.1570222377777,5116.0,8376.0,8688.0,-3946.0,4371.0,574.0,-0.5892639184658943,0.7109069040745972,0.21505214293807381,-0.31801255313435883
-389.1647918224335,4760.0,8272.0,7976.0,-4244.0,3955.0,333.0,-0.3486674298736905,0.9321702386824875,0.09700297848886154,-0.008949392392732737
-389.1725707054138,4556.0,9076.0,7792.0,-4431.0,3439.0,252.0,-0.015277705663341306,0.9624596880457982,-0.022178550158495517,0.2700852689602234
-389.1804099082947,4184.0,9976.0,7288.0,-4376.0,2738.0,-153.0,0.32942998314292077,0.8241201903205104,-0.10585916070189513,0.4484368809632311
-389.18821930885315,4016.0,10844.0,7168.0,-4289.0,2089.0,-341.0,0.618950268368712,0.5740420746210435,-0.1744753514331506,0.5068871803403066
-389.19602131843567,3988.0,11860.0,6780.0,-4068.0,1347.0,-364.0,0.8046947440228504,0.28103443762735864,-0.24643227307896678,0.4612560553473603
-389.20380330085754,3332.0,12216.0,6484.0,-3884.0,1009.0,-210.0,0.8778053470520246,-0.026049557767368885,-0.3081720444301519,0.36579937706171595
-389.2116129398346,3576.0,12820.0,6712.0,-3675.0,354.0,-113.0,0.8401363197001032,-0.30038878913653855,-0.37933837836485146,0.2450304764338
-389.2193944454193,3780.0,12976.0,7536.0,-3217.0,-220.0,70.0,0.7191715071854192,-0.5137835610772356,-0.44513590703265105,0.14378045725920482
-389.2271864414215,4268.0,13020.0,8000.0,-2919.0,-268.0,-75.0,0.5607838231283669,-0.6691038870895623,-0.48630616910509034,0.03643901603367377
-389.23496985435486,4628.0,13008.0,8444.0,-2765.0,-649.0,-646.0,0.36229419803445106,-0.7510322619311313,-0.5472193289431196,-0.07241865533289372
-389.24276089668274,5260.0,12800.0,8976.0,-2468.0,-723.0,-1215.0,0.15360729680163906,-0.7527298961106037,-0.6154679375712455,-0.17607305214714356
-389.25054144859314,4920.0,12584.0,9556.0,-2246.0,-612.0,-1595.0,-0.049904299827642856,-0.6860179584974136,-0.6738120071335638,-0.2699375863424574
-389.25832962989807,4940.0,12628.0,9804.0,-2074.0,-523.0,-2476.0,-0.2531271776139455,-0.5227289015762395,-0.7412619137490963,-0.33646976481568647
-389.2661118507385,4980.0,12504.0,9612.0,-1934.0,-417.0,-2918.0,-0.43401083810073376,-0.2899876087796258,-0.7725685003166427,-0.36149646123284124
-389.2739055156708,4720.0,12648.0,9504.0,-1689.0,-483.0,-3107.0,-0.5799125428895644,-0.030304550270695983,-0.744252309926172,-0.3299569305254964
-389.281690120697,4736.0,12788.0,9296.0,-1633.0,-538.0,-3278.0,-0.6790618240852597,0.23763995004585606,-0.6457294495506876,-0.2558041657111333
-389.2894711494446,4688.0,12824.0,9188.0,-1529.0,-594.0,-3446.0,-0.7189777698296171,0.48305320196579876,-0.4789953139017724,-0.14245722102288078
-389.2972502708435,4548.0,13020.0,9272.0,-1341.0,-717.0,-3482.0,-0.6983662622166928,0.668038663048807,-0.2567364317284949,-0.0097628424532886
-389.30502915382385,4612.0,12860.0,9372.0,-1198.0,-662.0,-3630.0,-0.6123286120516492,0.7783948167227087,-0.003461341416088359,0.13835895084064054
-389.31282687187195,4280.0,12816.0,8924.0,-1143.0,-846.0,-3689.0,-0.46355380690217407,0.8042356202326539,0.26340579435592276,0.2625648924651307
-389.32061314582825,4212.0,12852.0,8816.0,-1062.0,-1139.0,-3641.0,-0.26401062649545975,0.7462149620129075,0.5111226400356789,0.33498547193648265
-389.3283882141113,3912.0,12736.0,8648.0,-1097.0,-1409.0,-3831.0,-0.016535414104194627,0.6020340828477149,0.714018580871716,0.3570140184083171
-389.33622193336487,4076.0,13032.0,8720.0,-1217.0,-1776.0,-3488.0,0.25125804678785385,0.4158690514361184,0.8115408652439792,0.3245362075655495
-389.3440172672272,4092.0,12572.0,9196.0,-1142.0,-2010.0,-3368.0,0.499730571803641,0.19701527718173883,0.8075068259339506,0.24369460854086436
-389.3517940044403,4244.0,12460.0,9004.0,-1176.0,-2313.0,-3506.0,0.708032034437823,-0.048750267984139374,0.6932764557948836,0.12522701554296078
-389.35960054397583,4256.0,12376.0,8980.0,-1252.0,-2568.0,-3666.0,0.8323568532921886,-0.29635685069592693,0.468159027484341,-0.013483723819271046
-389.36738634109497,4380.0,12320.0,9360.0,-1304.0,-2681.0,-3974.0,0.8290047309840063,-0.5105971069879516,0.15783383223826256,-0.16471257311648646
-389.37515902519226,4496.0,12036.0,9444.0,-1396.0,-2801.0,-4188.0,0.6779703204632015,-0.6454366052051418,-0.1924279123506035,-0.2945154185788486
-389.38294649124146,4832.0,12500.0,9724.0,-1507.0,-2901.0,-4517.0,0.38504437940068165,-0.6592783391206964,-0.5214303629509949,-0.38105547371871396
-389.3907344341278,4508.0,11952.0,10008.0,-1288.0,-2800.0,-4697.0,0.024443254773078908,-0.5223946382525673,-0.756898178057139,-0.3919330520316594
-389.39851927757263,4356.0,12272.0,10212.0,-1462.0,-2712.0,-4682.0,-0.3427898195074656,-0.27747858976154166,-0.831898292476592,-0.3368174621965373
-389.40632033348083,4272.0,11692.0,10160.0,-1533.0,-2653.0,-4550.0,-0.637107664622127,0.018746910154483095,-0.7374064099875832,-0.22354901822334963
-389.4141311645508,4368.0,11448.0,10296.0,-990.0,-2479.0,-4508.0,-0.8030893949202249,0.2869468636922601,-0.5208999635866753,-0.037042531220786386
-389.4219310283661,4300.0,11008.0,10260.0,-701.0,-2406.0,-4515.0,-0.8292650756287899,0.4863722485987508,-0.21589544851296388,0.17073554242382669
-389.42970967292786,4164.0,11340.0,10224.0,-407.0,-2447.0,-4501.0,-0.7217895151862602,0.5811983289914979,0.13351560513698207,0.35128618152381036
-389.4375114440918,4116.0,11428.0,10028.0,-252.0,-2539.0,-4371.0,-0.49888849484301584,0.5706416024148481,0.46428036281253715,0.4581726486962569
-389.4453010559082,3908.0,11768.0,9864.0,-154.0,-2620.0,-4686.0,-0.17892209261604974,0.4455575326800968,0.7294515036032813,0.48720208716386915
-389.4531011581421,3664.0,11628.0,9748.0,-22.0,-2733.0,-4369.0,0.16577990255300892,0.2588775973250384,0.8582404801723893,0.4110020580315832
-389.4608631134033,3368.0,11720.0,9412.0,79.0,-2970.0,-4705.0,0.499511874170375,0.01267270171382725,0.8314676299193022,0.24287624542233402
-389.46864461898804,3556.0,11924.0,9156.0,166.0,-3224.0,-4747.0,0.7456298633718773,-0.22906805893814244,0.6254850586626596,0.018231089164298664
-389.47642850875854,3248.0,12168.0,9368.0,272.0,-3556.0,-4862.0,0.8433508468082588,-0.41685670939318703,0.2629983914699937,-0.214059989502646
-389.4842565059662,3260.0,12484.0,9244.0,378.0,-3838.0,-5095.0,0.7424037142634956,-0.5044087902085654,-0.18520963456097936,-0.40013233895036016
-389.4920425415039,3204.0,12676.0,9448.0,471.0,-4154.0,-5291.0,0.4405451791262153,-0.45956023609618946,-0.6065859800344542,-0.4762119101550342
-389.49983382225037,2872.0,12972.0,9284.0,511.0,-4508.0,-5436.0,-0.0030952964340816166,-0.2886634971614949,-0.8670006303582192,-0.4061695600422702
-389.5076253414154,2872.0,13052.0,9328.0,575.0,-4818.0,-5587.0,-0.46313339197180375,-0.03089716161611722,-0.8625279186165871,-0.20149048675234593
-389.51544713974,2936.0,13248.0,9600.0,612.0,-5202.0,-5775.0,-0.7893151022327292,0.2377849484258922,-0.5609438822224596,0.07603912602488114
-389.52322363853455,2960.0,13128.0,9756.0,614.0,-5484.0,-5976.0,-0.8406462585668709,0.42756865101030817,-0.04477991397736079,0.32938378213707936
-389.53098464012146,2944.0,13112.0,9820.0,641.0,-5871.0,-6240.0,-0.5665368115532585,0.45883849707777946,0.5099455049649037,0.4565729478632762
-389.53876972198486,2896.0,13212.0,9944.0,656.0,-6189.0,-6379.0,-0.04979068819538243,0.3070028843526517,0.8663589329623685,0.3907586411641958
-389.5465478897095,2900.0,13388.0,9756.0,701.0,-6563.0,-6416.0,0.5040690321085778,0.03318697146006389,0.8502376791219504,0.14801663688839095
-389.55432868003845,2848.0,13564.0,9484.0,742.0,-6876.0,-6617.0,0.8424466922423184,-0.25813518122866275,0.4423310535474158,-0.1673112010884357
-389.56211590766907,3304.0,13100.0,9204.0,766.0,-7099.0,-6745.0,0.7860199668214118,-0.4295155644728775,-0.184445151116132,-0.40456022773297834
-389.5698962211609,3228.0,12888.0,8948.0,876.0,-7398.0,-6833.0,0.3437815350108485,-0.39024487721888684,-0.7342215462829282,-0.4363965088814374
-389.57768034935,3348.0,12756.0,8792.0,1119.0,-7695.0,-6699.0,-0.2729576182345423,-0.16412681260020237,-0.9205355540518502,-0.22620968538035083
-389.5854513645172,3216.0,12324.0,8912.0,1434.0,-7698.0,-6525.0,-0.7469989076826372,0.12999468636439737,-0.6416706074453163,0.1155545108540874
-389.5932261943817,3304.0,12220.0,8984.0,1703.0,-8173.0,-6721.0,-0.8444424127340633,0.34887296215977387,-0.011119443456184885,0.4063016438890738
-389.60101222991943,3264.0,12320.0,9588.0,1813.0,-8263.0,-6849.0,-0.48196639472656133,0.3731467510011835,0.6313587505524421,0.479433024177935
-389.60880064964294,2628.0,12332.0,10212.0,2246.0,-8221.0,-6856.0,0.13371702384749368,0.17701333377991485,0.9362952433546221,0.2722815720334343
-389.61663699150085,2280.0,12380.0,10920.0,2421.0,-8481.0,-6823.0,0.681951528427261,-0.10806315916872439,0.7167583764001882,-0.09758020478746514
-389.6244239807129,1732.0,11948.0,11432.0,2323.0,-8492.0,-6817.0,0.8441425763878813,-0.33599371195154976,0.09112975795497119,-0.40770933699550893
-389.6322572231293,1276.0,10968.0,11252.0,2574.0,-8610.0,-6704.0,0.5357341099086411,-0.3615286708540341,-0.5943183786428433,-0.4786143002859957
-389.6400375366211,480.0,10724.0,11084.0,3225.0,-8648.0,-6226.0,-0.051088345657240755,-0.17849308137018252,-0.9537472470959487,-0.23642417282901307
-389.64782762527466,128.0,10492.0,11008.0,3654.0,-8819.0,-6112.0,-0.6074560363121698,0.09387995566580318,-0.7712977048902611,0.16517738435727342
-389.65561032295227,128.0,10988.0,10788.0,3873.0,-8998.0,-5212.0,-0.840339924064535,0.2651178642959557,-0.140464535788086,0.4514543656231497
-389.6634032726288,848.0,11236.0,10344.0,4383.0,-8986.0,-4900.0,-0.6159276547974808,0.2564196335261132,0.5771670817667135,0.47091427598120755
-389.67118668556213,880.0,11428.0,10624.0,4520.0,-9023.0,-4516.0,-0.055331745469901876,0.11270802184112834,0.9707846124115841,0.2044811386431627
-389.6789758205414,840.0,11316.0,10892.0,4515.0,-8993.0,-4501.0,0.5351650735095902,-0.09368527038658427,0.820798842689994,-0.1763821817725193
-389.686758518219,868.0,11800.0,11380.0,4604.0,-8757.0,-3971.0,0.8339277086046126,-0.21808315604274314,0.2256919328160133,-0.4539465445772984
-389.6945493221283,520.0,12160.0,11588.0,4566.0,-8592.0,-3474.0,0.7073378958307525,-0.21861522626780175,-0.48037556353537375,-0.47023377369524777
-389.70233058929443,828.0,12984.0,11560.0,4458.0,-8299.0,-3077.0,0.24061585917240044,-0.11706322260111318,-0.933606634582708,-0.23828315528404403
-389.7101106643677,1668.0,12900.0,11496.0,4183.0,-7880.0,-2636.0,-0.32111695789477673,0.016878583199602386,-0.9416876688164626,0.09911280028631253
-389.7179124355316,2584.0,13688.0,11568.0,3990.0,-7268.0,-2121.0,-0.7259264438166181,0.11395704707801478,-0.5610287445765574,0.3811710080106692
-389.7257068157196,3240.0,14024.0,12444.0,3693.0,-6702.0,-1487.0,-0.8610092669081583,0.14522891382750075,0.0011810455947665363,0.4874117458761776
-389.7334952354431,3304.0,13940.0,12916.0,3235.0,-6028.0,-1211.0,-0.7266827002756391,0.1352453761783966,0.5192465934574596,0.4289800887282453
-389.7412703037262,3788.0,13688.0,13036.0,2914.0,-5275.0,-1089.0,-0.42443243640359,0.08675748115600411,0.8605323829311666,0.2679818358000894
-389.74905467033386,4068.0,13380.0,12856.0,2682.0,-4724.0,-855.0,-0.06305317350248596,0.03031670169949,0.9959554685602924,0.05637286185903648
-389.75684666633606,3820.0,13196.0,12456.0,2613.0,-4318.0,-774.0,0.28244673832788536,-0.02750502812398702,0.9450211949823094,-0.16248770559659487
-389.7646200656891,3920.0,13248.0,12124.0,2615.0,-3771.0,-730.0,0.5462554181434406,-0.0710978230070347,0.7535673606747504,-0.35872879817249936
-389.77240467071533,3636.0,13720.0,11772.0,2698.0,-3582.0,-612.0,0.7249854494087937,-0.088194493121115,0.45983384753976964,-0.5051441993979647
-389.7802152633667,3500.0,14200.0,10992.0,2671.0,-2826.0,-749.0,0.7806802046995139,-0.06968470887535574,0.1486706479134638,-0.6029755366416394
-389.7879948616028,2900.0,14824.0,10792.0,2533.0,-2410.0,-1086.0,0.733653801787118,-0.03602826729524962,-0.14828104247823826,-0.662168253180849
-389.79577565193176,2416.0,15200.0,10456.0,2261.0,-2083.0,-1465.0,0.6030065348663314,0.0072558730605073885,-0.39978699854464894,-0.6902903932471396
-389.8035817146301,1776.0,15544.0,9744.0,1922.0,-1917.0,-1828.0,0.4083362730285696,0.05479525543758349,-0.5916523117791351,-0.6929693428118395
-389.8113684654236,1160.0,15724.0,9272.0,1629.0,-1944.0,-2180.0,0.1615010373328495,0.10367673501140837,-0.7188914444003923,-0.6681045133253519
-389.81924533843994,524.0,15856.0,8492.0,1351.0,-1959.0,-2548.0,-0.11693815417880549,0.16107144513242488,-0.7673661957371376,-0.6095330830234886
-389.8270857334137,604.0,16196.0,7716.0,1042.0,-2148.0,-2932.0,-0.40968774996438284,0.22075284763460234,-0.721320459094467,-0.5129531392652574
-389.83491826057434,480.0,16436.0,7236.0,737.0,-2412.0,-3106.0,-0.6748263328375893,0.2660795582166996,-0.5741898877136422,-0.37962753068708305
-389.8427152633667,192.0,16744.0,6684.0,448.0,-2884.0,-3194.0,-0.8752821899826343,0.28443155521210867,-0.3227488247646283,-0.22093658459358032
-389.8505072593689,104.0,16628.0,6344.0,106.0,-3310.0,-3412.0,-0.9578044644715158,0.2848452300404561,0.011790388219764546,-0.03653477120853445
-389.8583061695099,8.0,16440.0,6144.0,-159.0,-3711.0,-3706.0,-0.8745723642836961,0.2566067624493447,0.3770136171050955,0.1647327581685679
-389.866090297699,128.0,16124.0,5748.0,-388.0,-4024.0,-4076.0,-0.6033601136380118,0.18750289703201561,0.6883257351012827,0.35638030146545085
-389.8738806247711,180.0,15752.0,5652.0,-568.0,-4303.0,-4405.0,-0.1746444755698005,0.07607838013537048,0.8529843473980012,0.48593115800793574
-389.88166761398315,452.0,15532.0,5468.0,-840.0,-4392.0,-4800.0,0.31376452430454066,-0.07138883113331751,0.7949700528671212,0.5142743169961053
-389.88946866989136,468.0,14692.0,5420.0,-965.0,-4334.0,-5029.0,0.7198801211949448,-0.21758369755168508,0.5190977275242635,0.4061619073069676
-389.8972496986389,420.0,14064.0,5168.0,-1101.0,-4368.0,-5149.0,0.9267893142317731,-0.31339359861100236,0.09259200175662381,0.18512898364693398
-389.90504574775696,296.0,12960.0,5456.0,-1127.0,-4440.0,-4966.0,0.8718779365862191,-0.32105669417042854,-0.3623061365728799,-0.07406568857538925
-389.9128084182739,360.0,12072.0,5616.0,-1190.0,-4552.0,-4647.0,0.5755739119690676,-0.25453242480189475,-0.7199314307666318,-0.2926203198334019
-389.9206192493439,496.0,11260.0,6340.0,-1216.0,-4781.0,-4233.0,0.12174988926090922,-0.14926307548307072,-0.8898219801530104,-0.4136596939500716
-389.92840242385864,920.0,11328.0,6424.0,-1110.0,-4619.0,-3615.0,-0.33879051551881784,-0.041700840195737075,-0.8388112497924184,-0.4241199284909215
-389.93623399734497,1060.0,11144.0,6768.0,-1059.0,-5161.0,-3574.0,-0.7454747606529231,0.05260832037166817,-0.5768218232570407,-0.32981256809218545
-389.94401025772095,1560.0,11408.0,7096.0,-1118.0,-5052.0,-3201.0,-0.9598952611001058,0.12444175333951225,-0.1776345975950876,-0.17765496750887314
-389.951801776886,1652.0,11752.0,7428.0,-1032.0,-4919.0,-2416.0,-0.955305276716744,0.15446052808293667,0.24882905584602336,-0.04022281079514302
-389.9595699310303,1636.0,12040.0,7776.0,-1125.0,-4723.0,-2111.0,-0.7671150399557404,0.16844351684165107,0.6127552908807735,0.08770547648429791
-389.9673523902893,1960.0,12408.0,8484.0,-1298.0,-4295.0,-1835.0,-0.46445432771779954,0.17492860913317443,0.844839571921105,0.19982056172252144
-389.97511553764343,1916.0,12640.0,9224.0,-1409.0,-4023.0,-1184.0,-0.11719888377052026,0.20042228871928086,0.9341822052931398,0.27092237844282174
-389.9829285144806,2264.0,12904.0,9692.0,-1315.0,-3654.0,-622.0,0.206647518459902,0.23602655806108355,0.8997661528434295,0.30333007961878217
-389.99071884155273,2500.0,13484.0,10212.0,-1878.0,-3106.0,-69.0,0.46818934888884717,0.2659406326175675,0.7582084779684221,0.36768766289721266
-389.99850153923035,2656.0,13352.0,10988.0,-2172.0,-2621.0,231.0,0.656198504869221,0.26509629692062,0.5519410672258191,0.4410085417267984
-390.00630283355713,2816.0,13904.0,10944.0,-2303.0,-2263.0,472.0,0.7697072963439037,0.23380683601313465,0.31022180794498805,0.506603860293058
-390.0141100883484,2856.0,14368.0,11148.0,-2313.0,-1459.0,810.0,0.7962000496182382,0.16024239662602185,0.09051873319264266,0.576362918873745
-390.0218858718872,2680.0,14436.0,10916.0,-2102.0,-1053.0,1017.0,0.7638986656655541,0.07366544056787358,-0.09998702817586215,0.6332731051109675
-390.0296745300293,2568.0,14380.0,10988.0,-1990.0,-678.0,1315.0,0.6823803988133048,-0.03201180834564489,-0.2574590065368969,0.6834084396573332
-390.0374538898468,2912.0,14204.0,11012.0,-1196.0,-281.0,1465.0,0.577456127165288,-0.1175750729846159,-0.336600251709603,0.7344527173079018
-390.0452263355255,2944.0,13972.0,11136.0,-667.0,139.0,1641.0,0.46403737503108283,-0.20570401811415612,-0.3511521400504378,0.7867956189786207
-390.05303478240967,2960.0,13676.0,10980.0,-137.0,259.0,1862.0,0.33716551080638935,-0.2821921586103203,-0.3122875777658313,0.8421184434001339
-390.06082129478455,3172.0,13692.0,10904.0,333.0,912.0,2035.0,0.2165111989210642,-0.3873565771425203,-0.2067210057179686,0.8719771835783008
-390.0686192512512,3172.0,13692.0,10392.0,755.0,1245.0,2195.0,0.09493430225759734,-0.4944389232915577,-0.05004219935100937,0.8625621181533898
-390.0764000415802,3284.0,13764.0,9796.0,992.0,1679.0,2367.0,-0.03207629089476206,-0.6016586471214221,0.1360780793438093,0.7864227490533031
-390.0842273235321,3140.0,13980.0,9460.0,1093.0,2087.0,2482.0,-0.16284461059712668,-0.6883179020700488,0.32168322850978703,0.6294600852992007
-390.09201169013977,2820.0,14072.0,8544.0,1139.0,2510.0,2587.0,-0.29169506366814385,-0.730900818467508,0.47868944682614023,0.3892998804166887
-390.0998041629791,2596.0,14008.0,7976.0,1027.0,2759.0,2683.0,-0.40875897187758714,-0.6976525107084133,0.5804280825806465,0.09643815719713617
-390.10759115219116,2336.0,13948.0,7636.0,952.0,3044.0,2811.0,-0.49576416526856165,-0.5763803627428318,0.6102978201551192,-0.22257614560845804
-390.11541533470154,2224.0,13892.0,7264.0,771.0,3033.0,2927.0,-0.5262091206546444,-0.3698793187213221,0.5725096188500782,-0.508454508531741
-390.1231994628906,1848.0,13804.0,7060.0,670.0,2974.0,3108.0,-0.48177701218651237,-0.10601463063098587,0.47337608732513137,-0.7297718058198482
-390.1309926509857,1864.0,13692.0,6940.0,545.0,2911.0,3024.0,-0.3794273163667521,0.1701063233223314,0.3227514426811017,-0.8502530544536437
-390.13877844810486,1740.0,13800.0,7248.0,508.0,3042.0,3035.0,-0.23150001335081064,0.43448149757013715,0.13008415523704947,-0.8606460855915449
-390.1465666294098,1692.0,13736.0,7540.0,505.0,2793.0,3119.0,-0.045049691429618684,0.6281941158499125,-0.07765865920594948,-0.7728595026031426
-390.1543550491333,2044.0,13896.0,7460.0,590.0,2265.0,3154.0,0.1426820864613697,0.716258045359449,-0.2832538304268126,-0.6215975403823846
-390.16214394569397,1804.0,13964.0,7604.0,707.0,2057.0,3312.0,0.31109102996397425,0.7132107339530487,-0.4754866881189106,-0.4104451601271688
-390.1699187755585,2036.0,14180.0,7792.0,784.0,1873.0,2926.0,0.4249231952130223,0.6494122823718143,-0.6062438644280654,-0.1737018782797468
-390.17770504951477,2120.0,14292.0,7924.0,911.0,1630.0,2674.0,0.4810914288826971,0.5447292452890716,-0.6839515643656517,0.06349286561639002
-390.1854887008667,2500.0,14532.0,8040.0,979.0,1787.0,2387.0,0.5093528787689856,0.4180363385659209,-0.6914399770414712,0.29616890903171417
-390.19326615333557,2656.0,14692.0,8044.0,1070.0,1456.0,2271.0,0.4843002514908945,0.2820405281355827,-0.6609609611457454,0.49903608560518964
-390.201052904129,2740.0,14616.0,8004.0,1117.0,1396.0,2101.0,0.4335470685688018,0.14320926437389903,-0.5881186126991625,0.667566134049427
-390.20881152153015,2960.0,14844.0,8028.0,1163.0,1336.0,1887.0,0.36845627706787953,0.012274112594197466,-0.48114537836303417,0.7953542876788907
-390.21662306785583,3000.0,14416.0,8188.0,1214.0,1241.0,1816.0,0.28647134079612907,-0.10843647590589724,-0.35042033551703683,0.8850882950597104
-390.2244052886963,3096.0,14416.0,8188.0,1189.0,1188.0,1731.0,0.1960695225697579,-0.21853141477038904,-0.20772246975683867,0.9330874228258779
-390.2322177886963,3088.0,14252.0,8280.0,1098.0,1203.0,1630.0,0.1039770444205239,-0.3207247783296716,-0.06508868562540664,0.9391953224982077
-390.239999294281,2884.0,14316.0,8276.0,946.0,1119.0,1560.0,0.008720935447774872,-0.4055766922184312,0.06538681875751653,0.911677605267807
-390.2477798461914,3028.0,14736.0,8460.0,823.0,1070.0,1630.0,-0.09642746562895334,-0.4726362560637487,0.18644846796016618,0.8558934992869888
-390.25558519363403,2880.0,14224.0,8396.0,642.0,1097.0,1550.0,-0.2006716836945886,-0.5265936085016856,0.2849600938327478,0.7753888003906066
-390.2633767127991,2820.0,13852.0,8356.0,273.0,1071.0,1503.0,-0.31251423723861893,-0.5589365564011531,0.3492740439630634,0.6840558600401525
-390.27116990089417,2624.0,13904.0,8424.0,444.0,1017.0,1283.0,-0.39431600365670233,-0.5860964237203025,0.406273017894833,0.5796103055442544
-390.278968334198,2812.0,13788.0,8524.0,487.0,1031.0,1491.0,-0.47520660732371495,-0.594070839409211,0.4655108062369417,0.45228111545382077
-390.28675174713135,2756.0,13728.0,8488.0,572.0,1254.0,1743.0,-0.5551031226995184,-0.5854446556724751,0.5167929874596581,0.2864264066497748
-390.2945439815521,2852.0,13652.0,8620.0,607.0,981.0,1712.0,-0.6015809300495921,-0.5531653691506474,0.5627828320437782,0.12403202380788662
-390.3023262023926,2584.0,13744.0,8596.0,681.0,1046.0,1713.0,-0.6280957220967026,-0.5074570170845292,0.5878653709557893,-0.04896371438632488
-390.31011843681335,2916.0,13864.0,8616.0,692.0,1048.0,1689.0,-0.6335264427341762,-0.44677811869909567,0.5922420685779822,-0.21973368247665134
-390.3179268836975,2700.0,13932.0,8244.0,708.0,1034.0,1678.0,-0.6170883742713752,-0.37321232467230864,0.5772387854960527,-0.3830272621770471
-390.325722694397,2568.0,13860.0,8372.0,709.0,1247.0,1707.0,-0.5888342931804903,-0.2785431201916994,0.5318690678256746,-0.5411129272700412
-390.3335134983063,2460.0,13960.0,8232.0,778.0,872.0,1635.0,-0.5252856392409404,-0.19850074117410957,0.4825467830483769,-0.6721763571639726
-390.34131050109863,2532.0,13948.0,8112.0,799.0,801.0,1537.0,-0.44893421645585224,-0.12182563168151418,0.4196303371285325,-0.779440161219554
-390.34909534454346,2472.0,13840.0,8200.0,779.0,698.0,1501.0,-0.35964235708131653,-0.04936627174312563,0.35061294060824205,-0.8633023294797829
-390.35689544677734,2532.0,13772.0,8180.0,842.0,649.0,1429.0,-0.26508682776369147,0.01653218578495739,0.26949692267382114,-0.9256495391068343
-390.3646810054779,2532.0,13648.0,7944.0,881.0,615.0,1495.0,-0.15805391162237087,0.07986937787329891,0.17938209135405075,-0.9677096200826191
-390.3724799156189,2580.0,13612.0,8328.0,947.0,550.0,1559.0,-0.041034632932459486,0.13569706292599226,0.0795731601655936,-0.9866968015528471
-390.38030099868774,2620.0,13612.0,8240.0,957.0,501.0,1599.0,0.08073892437884224,0.18382108695929425,-0.023533319134791775,-0.9793555110223005
-390.3880832195282,2624.0,13752.0,8356.0,942.0,439.0,1603.0,0.2008158828164459,0.22151942307644135,-0.12523904086628262,-0.9460006918873927
-390.39587235450745,2736.0,13956.0,8512.0,900.0,393.0,1603.0,0.31589031470707346,0.24877247991728743,-0.22097593131849388,-0.8885354242167238
-390.40365290641785,2796.0,13840.0,8216.0,803.0,401.0,1589.0,0.42412016256255675,0.2678580260744388,-0.3031333649469361,-0.8102372051636257
-390.4114315509796,2912.0,14200.0,8616.0,696.0,389.0,1522.0,0.520006452038752,0.2776125584257309,-0.36963904918736573,-0.7182558948997562
-390.41924476623535,2900.0,14260.0,8536.0,601.0,377.0,1442.0,0.6021575930881045,0.2791047562653871,-0.42123503045936095,-0.6181163460306489
-390.42705607414246,2988.0,14352.0,8604.0,515.0,402.0,1354.0,0.6718146640783381,0.2754916090484082,-0.4568852788664706,-0.5138338957565334
-390.4348382949829,3068.0,14424.0,8480.0,421.0,383.0,1396.0,0.7332490352297331,0.2595772878427791,-0.48251019203763845,-0.4026777850225338
-390.44262194633484,2892.0,14292.0,8488.0,379.0,393.0,1385.0,0.7833107011130612,0.23748079089413032,-0.49769003845462423,-0.2869352629097673
-390.4504199028015,2892.0,14132.0,8392.0,316.0,277.0,1505.0,0.8189291045305856,0.19898223785983246,-0.5129485771611938,-0.16323280294515832
-390.4581654071808,2588.0,13964.0,8424.0,281.0,81.0,1679.0,0.8324905850585071,0.1436550973068362,-0.5343007986802657,-0.02907396320315027
-390.4659688472748,2392.0,13716.0,8164.0,236.0,-218.0,1747.0,0.8141532312107964,0.07803024819774994,-0.565767954682706,0.10474930992309506
-390.47378492355347,2076.0,13604.0,7860.0,287.0,-264.0,2038.0,0.768136571935547,0.0003586319717942353,-0.5861581694933056,0.2576522434881413
-390.4815776348114,2056.0,13428.0,7720.0,403.0,-781.0,1824.0,0.676770787352635,-0.04749666666890128,-0.6198405780244638,0.39436407782116306
-390.48936200141907,2472.0,13540.0,7832.0,604.0,-952.0,1707.0,0.5602546179484392,-0.07017353513679055,-0.6380594017591645,0.5235175621319603
-390.4971787929535,2680.0,13540.0,8084.0,651.0,-996.0,1344.0,0.4420554616312894,-0.06676888275327256,-0.6409087253200869,0.623991098451259
-390.5050175189972,2972.0,13096.0,8220.0,518.0,-914.0,1261.0,0.32205188070486324,-0.0667846824051097,-0.634075541706791,0.6998361234887414
-390.5128037929535,2872.0,13552.0,8540.0,1010.0,-835.0,955.0,0.22124127508896374,-0.03978248315482797,-0.5843814409368118,0.7797230173078521
-390.52061438560486,3188.0,13612.0,8584.0,828.0,-1008.0,849.0,0.11391722955591595,0.0015496021752121336,-0.5394872793174318,0.8342505253208288
-390.5284004211426,3440.0,13424.0,8716.0,786.0,-664.0,951.0,0.013229537517068768,0.012887443317084505,-0.48523745638087984,0.8741873392281811
-390.5362288951874,3356.0,13764.0,8560.0,773.0,-683.0,811.0,-0.07792169687355738,0.031378799442307106,-0.4250177928998275,0.9012787891770584
-390.5440185070038,3480.0,13724.0,8656.0,711.0,-698.0,617.0,-0.15349109225203897,0.05828592375400836,-0.36393630156594453,0.9168389193821997
-390.55179142951965,3468.0,14500.0,8472.0,770.0,-719.0,673.0,-0.2327196790792127,0.08364236362590532,-0.29413956282391224,0.9232158055179179
-390.5596089363098,3580.0,14616.0,8952.0,739.0,-679.0,845.0,-0.32153372423601984,0.10097940783173633,-0.22524142035639047,0.9141583702667184
-390.56741309165955,3832.0,14748.0,8768.0,616.0,-589.0,556.0,-0.3814005523239633,0.11924976943643453,-0.1635412065676852,0.901979703170043
-390.5751962661743,3752.0,14576.0,8716.0,498.0,-459.0,373.0,-0.42153350829859865,0.13311531515532446,-0.11239308827940475,0.8899200008762539
