programtime,ax,ay,az,gx,gy,gz,q0,q1,q2,q3
-372.306875705719,5912.0,10376.0,11640.0,216.0,51.0,-292.0,0.9994834505269237,0.019126395162519037,0.004285006416809762,-0.02546864446509746
-372.3147008419037,5852.0,10380.0,11680.0,162.0,52.0,-332.0,0.9979196015187802,0.0335080049525486,0.008832868268476169,-0.054366009112775775
-372.32248520851135,5896.0,10456.0,11536.0,20.0,37.0,-348.0,0.9957096144329758,0.03540852790283105,0.012780145811005448,-0.08452968561717482
-372.3302855491638,5808.0,10408.0,11612.0,-95.0,79.0,-376.0,0.9925480299313805,0.027561900244071184,0.021293276915566154,-0.11677048553666365
-372.3381006717682,5812.0,10268.0,11780.0,-119.0,24.0,-306.0,0.9892659925798174,0.01717560509716777,0.025097762326763928,-0.14292619368332754
-372.3458962440491,5700.0,10332.0,11636.0,-173.0,27.0,-314.0,0.9850725539283279,0.0021392663085896676,0.02982827075261533,-0.16952215578115776
-372.3536891937256,5740.0,10216.0,11760.0,-151.0,-1.0,-312.0,0.9800506381510469,-0.011417348730323743,0.03180041816057017,-0.19585485496282368
-372.36148715019226,5768.0,10072.0,11788.0,-169.0,-29.0,-297.0,0.9744646234873029,-0.026938060365059115,0.03167476582533358,-0.22065753484852418
-372.369282245636,5740.0,9932.0,11772.0,-157.0,-253.0,-303.0,0.9683087522816219,-0.04572834798184882,0.01223676576141505,-0.2452291581548972
-372.3770661354065,5720.0,9940.0,12004.0,-76.0,-20.0,-302.0,0.9612203422010586,-0.05263639339239186,0.010745624492508056,-0.2704984202981366
-372.3848457336426,5676.0,9916.0,11796.0,-71.0,-23.0,-324.0,0.9528793828450606,-0.0591718490436314,0.008779150289045448,-0.29739283876680067
-372.392635345459,5640.0,9888.0,11888.0,-67.0,-21.0,-298.0,0.9444912171212534,-0.06525434980161733,0.007006267596325993,-0.3219147757204538
-372.40818881988525,5508.0,9936.0,11868.0,-49.0,-165.0,-300.0,0.9354697523731785,-0.07384004657250454,-0.007147029806462276,-0.3455327913266407
-372.4160706996918,5424.0,10020.0,11936.0,-38.0,-203.0,-326.0,0.9247506220862448,-0.0825714844920309,-0.02488083377012071,-0.3706739551287483
-372.4238440990448,5408.0,10096.0,11864.0,-61.0,-490.0,-306.0,0.9121779598971427,-0.10230406146136778,-0.06479047030428148,-0.39149386131093444
-372.4316420555115,5408.0,10132.0,11604.0,-82.0,-290.0,-266.0,0.900160389826136,-0.11690736160187096,-0.08759713464156832,-0.4103299689200573
-372.439492225647,5320.0,10136.0,11800.0,-102.0,-273.0,-213.0,0.8889582097155644,-0.1327382900169313,-0.10769975708306201,-0.42489364559490544
-372.4472782611847,5556.0,10044.0,11736.0,-84.0,-285.0,-165.0,0.8787920269427673,-0.14794223095467715,-0.1287347745512833,-0.4350460061915358
-372.45506954193115,5380.0,9956.0,11748.0,-170.0,-497.0,-127.0,0.8652216379674296,-0.1779532070881053,-0.1620255827400253,-0.4398543893355748
-372.46287727355957,5756.0,9820.0,11840.0,-131.0,-173.0,-38.0,0.8591149545622787,-0.19363807645744774,-0.17077026827867894,-0.44188607770028393
-372.4707233905792,5804.0,9772.0,11988.0,-36.0,-225.0,56.0,0.8571262854319195,-0.20553057056898888,-0.18540898744366963,-0.43441365397323656
-372.4785900115967,5828.0,9772.0,12132.0,-239.0,-256.0,127.0,0.8530623163456892,-0.23476987165075114,-0.1932467811895935,-0.4240559790356439
-372.48639392852783,5864.0,9868.0,12280.0,9.0,-1.0,202.0,0.8605764957111138,-0.23723414555548578,-0.1896003118568101,-0.40887623672199214
-372.49423241615295,5928.0,9816.0,11792.0,71.0,-281.0,232.0,0.865227230032678,-0.24536880377796894,-0.20844595112895511,-0.3843517607615361
-372.5020549297333,5924.0,10212.0,11788.0,116.0,-260.0,253.0,0.870997094461697,-0.24952496963866524,-0.226531685880262,-0.3574699235716917
-372.5098478794098,5848.0,10080.0,11868.0,149.0,-267.0,270.0,0.8768472298425396,-0.251436021566554,-0.24552752645505382,-0.32807788149936395
-372.5176248550415,5752.0,10216.0,11528.0,123.0,-196.0,292.0,0.8832615418180497,-0.2534886921632264,-0.25757849392526294,-0.29874044111531306
-372.5254521369934,5776.0,10212.0,11752.0,149.0,-240.0,275.0,0.8878343264058197,-0.2540235461704549,-0.27377851298389,-0.2688262871722946
-372.5332405567169,5748.0,10296.0,11560.0,64.0,-212.0,310.0,0.8910022525922987,-0.2610363607281224,-0.2847269410502793,-0.23854889078219982
-372.541056394577,5808.0,10248.0,11488.0,89.0,-209.0,282.0,0.8933005268789169,-0.26508145886212997,-0.29630142020262346,-0.20964602841762303
-372.54885149002075,5856.0,10140.0,11548.0,53.0,-268.0,490.0,0.8955378495214139,-0.27793689900791085,-0.30649524263145106,-0.1637794446464983
-372.5566589832306,5892.0,10156.0,11640.0,76.0,-335.0,276.0,0.8917615158498684,-0.283711410941317,-0.32685170037191064,-0.13204999096865797
-372.564462184906,5920.0,10068.0,11612.0,76.0,-401.0,251.0,0.8843856862042381,-0.2890865252060219,-0.3524276683025816,-0.10042747430943505
-372.5722575187683,5896.0,9996.0,11696.0,87.0,-419.0,194.0,0.8747258527979102,-0.2915377607755458,-0.3803178818666995,-0.07224074488386932
-372.5800709724426,5960.0,10048.0,11776.0,141.0,-450.0,220.0,0.863946360828601,-0.290396134087587,-0.40953259393349556,-0.0393678221915258
-372.5878701210022,5996.0,10084.0,11624.0,188.0,-409.0,165.0,0.8539889564636616,-0.28306783614809006,-0.4364366905167847,-0.00992358540552565
-372.5956642627716,6080.0,10168.0,11492.0,222.0,-405.0,137.0,0.8435001873230082,-0.27165059920467066,-0.462996579215746,0.01864278874822083
-372.6034812927246,5992.0,10224.0,11568.0,153.0,-325.0,137.0,0.8333877396565217,-0.26505532821865524,-0.48311886077515237,0.04250546713557331
-372.6112630367279,6056.0,10164.0,11772.0,142.0,-294.0,80.0,0.8237131682383305,-0.25671721887415067,-0.5018680579177346,0.06100277408589341
-372.6190547943115,5900.0,10240.0,11296.0,113.0,-307.0,51.0,0.8122767359213746,-0.24891320288525326,-0.5219334630120993,0.07638181654372643
-372.62687253952026,5836.0,10272.0,11512.0,94.0,-300.0,69.0,0.7999698109042997,-0.24313007555287097,-0.5408142836668977,0.09195639502097859
-372.6346905231476,5852.0,10284.0,11536.0,74.0,-317.0,58.0,0.7858791108076416,-0.2378993394558163,-0.5608386202160429,0.1061035793780865
-372.6424996852875,5760.0,10252.0,11540.0,49.0,-293.0,117.0,0.7712683707413636,-0.23731116986975792,-0.5777758554566317,0.12248905992114975
-372.6502902507782,5792.0,10224.0,11292.0,15.0,-318.0,92.0,0.7543417546483283,-0.23729991644558876,-0.5968162593986155,0.13589561937914857
-372.658079624176,5872.0,10212.0,11688.0,7.0,-316.0,39.0,0.7373780230095783,-0.23489907038640767,-0.6164405831965315,0.14524835731397182
-372.66586422920227,5948.0,10156.0,11660.0,250.0,-273.0,19.0,0.7272927821976359,-0.21613013633200362,-0.6300687733752718,0.16536720941502292
-372.6736545562744,6056.0,10104.0,11740.0,-41.0,-299.0,-34.0,0.7104191891969633,-0.21235156961147886,-0.6499988001345021,0.16647205870048526
-372.6814453601837,6032.0,10024.0,11792.0,-64.0,-2.0,-95.0,0.7105655969329335,-0.21077699757867838,-0.6527227287757391,0.1569159937247145
-372.6892423629761,5952.0,10064.0,11904.0,-41.0,-207.0,-100.0,0.6993434053629768,-0.20463242225253442,-0.6677669393020521,0.15209105139206958
-372.69703698158264,6140.0,10036.0,12028.0,-15.0,-175.0,-52.0,0.6895789787681855,-0.20006074789083664,-0.679433360910724,0.15108552967092298
-372.70483446121216,5780.0,10092.0,11820.0,-2.0,-142.0,-73.0,0.6821191783947854,-0.19385711465639724,-0.6891583499637235,0.14897521350344659
-372.712628364563,5700.0,10060.0,11836.0,70.0,-124.0,-61.0,0.6766755768332228,-0.18429065696942212,-0.6965427210163442,0.1515762358364639
-372.72042751312256,5680.0,10136.0,11900.0,132.0,-120.0,-37.0,0.6720075200426661,-0.17253736418097876,-0.7023327796169927,0.15926524304773784
-372.7282147407532,5880.0,10104.0,11812.0,172.0,-119.0,32.0,0.6668453753691505,-0.1626312998382483,-0.7062610581387153,0.17338864847065613
-372.7360632419586,5556.0,9964.0,11624.0,213.0,-173.0,253.0,0.6551304112992146,-0.16303194832838608,-0.7090819131041154,0.20353763417063728
-372.74385476112366,5444.0,10204.0,11716.0,210.0,-180.0,119.0,0.644743376430245,-0.1550456852573931,-0.7136480675479696,0.22577256192336811
-372.7516541481018,5472.0,9936.0,11764.0,274.0,-203.0,108.0,0.63347255040742,-0.1421944554230674,-0.7178037506931392,0.2514975948555329
-372.7594449520111,5484.0,10212.0,11716.0,324.0,-234.0,185.0,0.6184186247699576,-0.13054978659967614,-0.7207445915233751,0.2846794540289421
-372.76724433898926,5664.0,9916.0,11696.0,285.0,-145.0,247.0,0.6061353409035181,-0.1269379052640073,-0.7181699208537856,0.3173620668823377
-372.7750368118286,5752.0,9888.0,11724.0,272.0,-158.0,294.0,0.5907897001361605,-0.12642681489819127,-0.7151732384252041,0.3514413602980307
-372.78287076950073,5832.0,9880.0,11944.0,276.0,-177.0,364.0,0.5712045357228617,-0.12928650659993626,-0.7111083734282138,0.3890183271018152
-372.79068970680237,5916.0,9848.0,11820.0,305.0,-220.0,389.0,0.5472776178308421,-0.13052695865670338,-0.7064850967504044,0.4293352188614414
-372.798481464386,6016.0,9928.0,11832.0,287.0,-231.0,386.0,0.5213758069401616,-0.13173933628218915,-0.7015481762019358,0.46759188581621186
-372.8062720298767,6044.0,9732.0,11564.0,277.0,-226.0,269.0,0.4994640047122263,-0.12620408098433647,-0.6968442309009624,0.49901538633570247
-372.81410026550293,6020.0,10124.0,11880.0,287.0,-174.0,496.0,0.46989563450933564,-0.13601817359544544,-0.6854691840581405,0.53928577473126
-372.8218939304352,6056.0,10160.0,12028.0,506.0,-153.0,206.0,0.4565873483240304,-0.12016067832169042,-0.6646007079250692,0.5791332348960804
-372.82968640327454,5956.0,10292.0,12008.0,206.0,-140.0,159.0,0.4425368190998008,-0.11397773536237875,-0.6578095449521161,0.5987126540775495
-372.83749628067017,5904.0,10288.0,11756.0,150.0,-91.0,66.0,0.4353908166996777,-0.10712085418704144,-0.6526683806598729,0.6107241146529632
-372.8452925682068,5872.0,10304.0,11700.0,65.0,-107.0,14.0,0.4292245434622906,-0.09965539082065215,-0.6530241206187597,0.615950154038512
-372.8530993461609,5772.0,10268.0,11872.0,253.0,-72.0,-115.0,0.43346063614703845,-0.07964339551398845,-0.642837989280556,0.6265206508964722
-372.86092019081116,5708.0,10104.0,11984.0,-4.0,-24.0,-155.0,0.44061671127204144,-0.06969536388366125,-0.6448965816894277,0.6205705994697347
-372.86870789527893,5748.0,10036.0,11852.0,30.0,-32.0,-165.0,0.447982993155984,-0.05742977247887164,-0.6453479953709975,0.616067385881338
-372.8765027523041,5640.0,10064.0,11948.0,23.0,-16.0,-146.0,0.4551081792513788,-0.047358501217489885,-0.6453257763490167,0.6117093753740143
-372.88430976867676,5600.0,9996.0,11960.0,114.0,-34.0,-134.0,0.4608621204921456,-0.033378786625524355,-0.6409737394318724,0.6128985461376237
-372.8921265602112,5664.0,10036.0,12068.0,119.0,-33.0,-87.0,0.4640776516939788,-0.021872535212533187,-0.6360382629691135,0.6161240568593402
-372.8999128341675,5880.0,10032.0,11764.0,137.0,-4.0,-78.0,0.46837099557913187,-0.011688732315682328,-0.6288243298782561,0.6205416554835198
-372.9077162742615,5692.0,10048.0,11852.0,164.0,-12.0,-50.0,0.4706386115971877,-0.0015020180779963086,-0.6203110437034056,0.6274641426210398
-372.91550517082214,5772.0,10136.0,11892.0,147.0,-75.0,-5.0,0.4669273195589542,0.00900355917536417,-0.6151722247444026,0.6351857587152661
-372.9233012199402,5740.0,10184.0,12028.0,180.0,-112.0,-37.0,0.4628463202262536,0.0246204781443921,-0.6095110796465213,0.6431666655674014
-372.93109250068665,5864.0,10264.0,11712.0,171.0,-72.0,-27.0,0.46020870975585254,0.037092881623148805,-0.602568748120566,0.6509554250378119
-372.93889570236206,5772.0,10328.0,11720.0,147.0,-45.0,-67.0,0.4612299556465063,0.049163230249464555,-0.5956263336753639,0.6558042203571155
-372.946729183197,5824.0,10320.0,11624.0,107.0,-21.0,-53.0,0.4627949884988183,0.05751610667095154,-0.589965889737681,0.6591304461484242
-372.9545211791992,5676.0,10252.0,11772.0,126.0,-255.0,-107.0,0.45513476420863413,0.08284778898972067,-0.5921484081906863,0.659809709647791
-372.9623181819916,5616.0,10176.0,11576.0,61.0,-15.0,-100.0,0.4597624110703867,0.09138412131396546,-0.5883506257082183,0.6588710108717543
-372.97011065483093,5568.0,10136.0,11608.0,53.0,-38.0,-126.0,0.46470890702438505,0.10224409678607665,-0.5856487686271199,0.6562067480681213
-372.9779167175293,5608.0,10128.0,11628.0,52.0,-133.0,-135.0,0.46522153273455225,0.11893946062555397,-0.5866433163271614,0.6521287829829983
-372.98571014404297,5388.0,9988.0,11580.0,40.0,-13.0,-137.0,0.4720137865927912,0.12838865503584307,-0.5832936524261502,0.648450347801421
-372.9935119152069,5720.0,9892.0,11748.0,63.0,-355.0,-113.0,0.4594939549837939,0.15682702182235486,-0.5926314658564282,0.6426963017137588
-373.00130558013916,5796.0,9896.0,11648.0,101.0,-465.0,-99.0,0.43933156023056397,0.1919876540725087,-0.603586203055358,0.637033920878888
-373.0091073513031,5884.0,9804.0,11700.0,148.0,-448.0,-88.0,0.41789059538827167,0.22707697166220903,-0.6103981428141861,0.6334174030414293
-373.0169358253479,5880.0,9788.0,12012.0,145.0,-459.0,-25.0,0.3917113476969453,0.25890219273220977,-0.6179570556373041,0.6306036410234012
-373.0247313976288,5932.0,9840.0,11784.0,212.0,-495.0,49.0,0.3572391035307144,0.2904806828924821,-0.6235066688454093,0.6318549118905303
-373.03251910209656,5964.0,9844.0,11520.0,198.0,-522.0,88.0,0.3186801463719568,0.32031008780626474,-0.6302153441455375,0.631405600198013
-373.04033946990967,6012.0,9920.0,11800.0,276.0,-493.0,91.0,0.27858814416697203,0.3497534523746903,-0.6303687137387238,0.6345836849628066
-373.04816007614136,5968.0,10092.0,11676.0,297.0,-536.0,86.0,0.23502564709889914,0.3814101432602487,-0.6285590536295175,0.6357694266983162
-373.0559718608856,5924.0,10216.0,11656.0,265.0,-468.0,58.0,0.19718656019758346,0.4092075380491007,-0.6245922499186728,0.6352567769199858
-373.0637700557709,6104.0,10300.0,11688.0,270.0,-443.0,131.0,0.15605159137285748,0.43083143769213583,-0.6211552149328199,0.6357659727351631
-373.07155776023865,5876.0,10300.0,11724.0,233.0,-460.0,64.0,0.11876363516611,0.45561448965195456,-0.6161763274654232,0.6313773588374418
-373.0793721675873,5900.0,10472.0,11608.0,178.0,-443.0,107.0,0.08197124010125023,0.47570377647929213,-0.6145711265703979,0.6239302550971503
-373.087167263031,5892.0,10172.0,11644.0,184.0,-469.0,74.0,0.04517586865408019,0.4981164434669067,-0.6102975403980971,0.6143094186346667
-373.09494853019714,6016.0,10120.0,11760.0,161.0,-449.0,85.0,0.009763885341009082,0.5178492264613862,-0.6065144224562583,0.6032222646329817
-373.1027364730835,6076.0,10232.0,11648.0,129.0,-422.0,97.0,-0.02342837934381513,0.5346400741223511,-0.6039272472883176,0.5906631715000729
-373.11052441596985,6104.0,9960.0,11644.0,150.0,-384.0,101.0,-0.0557766675548954,0.5484407117032856,-0.5996444133518666,0.5801106158645607
-373.1183099746704,6144.0,9916.0,11540.0,119.0,-292.0,108.0,-0.08213192466845229,0.5567672941004134,-0.5970517505034946,0.5716587569442739
-373.12610054016113,6128.0,9884.0,12024.0,159.0,-215.0,121.0,-0.10701359646609297,0.5598716789783966,-0.5932017056093339,0.5685099205040143
-373.13389587402344,6144.0,9936.0,11800.0,169.0,-88.0,137.0,-0.12655091475952487,0.5554546892927559,-0.5905046501705556,0.5716285614305545
-373.1417145729065,6200.0,10076.0,11800.0,220.0,-49.0,147.0,-0.14699006016196103,0.5477458952884602,-0.5858911168854443,0.5788781871542171
-373.14950609207153,6132.0,10156.0,11928.0,235.0,36.0,119.0,-0.1623104044709684,0.5366841429177865,-0.5799495307896465,0.5910025423616556
-373.15730142593384,6116.0,10216.0,11952.0,218.0,98.0,158.0,-0.17561669514024916,0.5203804294180404,-0.5772477188366432,0.6042748184101373
-373.16506791114807,6072.0,9984.0,11912.0,185.0,148.0,138.0,-0.18375052809508835,0.5026410555732335,-0.5757928405075817,0.6181021901734473
-373.17283868789673,5908.0,10320.0,11884.0,132.0,144.0,138.0,-0.18967214534764032,0.48571334808981537,-0.5768383895817745,0.6287801627526989
-373.18062353134155,5892.0,10312.0,12016.0,117.0,216.0,133.0,-0.19096488028312372,0.46508569800514055,-0.5793854652243073,0.6415139832430283
-373.18841910362244,6140.0,10332.0,12004.0,42.0,120.0,116.0,-0.19303996302395154,0.4517502226523736,-0.5835998511632301,0.6465821855970809
-373.19620180130005,6116.0,10300.0,11688.0,45.0,149.0,157.0,-0.19601383764072824,0.4345068672404775,-0.5895738468987779,0.6520621418447758
-373.204030752182,5752.0,10164.0,11656.0,62.0,194.0,98.0,-0.1938899169865982,0.41728136146960854,-0.592886930735667,0.6608842960941352
-373.21181440353394,5728.0,10132.0,11596.0,16.0,106.0,43.0,-0.19142645007708123,0.4086528260799915,-0.5952131284703054,0.6648910539662227
-373.21960496902466,5612.0,10120.0,11624.0,90.0,24.0,63.0,-0.19700652514174746,0.40246670903502385,-0.5925277755210778,0.66941751725372
-373.227392911911,5528.0,10140.0,11684.0,70.0,12.0,106.0,-0.20499794429311607,0.3950572166508436,-0.5922481699501636,0.6716753260306403
-373.23519349098206,5544.0,10060.0,11628.0,86.0,-19.0,94.0,-0.21441691701992813,0.38975044915587775,-0.5899861439313686,0.6738221746480706
-373.24301290512085,5664.0,10052.0,11568.0,142.0,-43.0,110.0,-0.227877329151365,0.3839093652914324,-0.5844097537684895,0.677606642382307
-373.25083565711975,5688.0,10068.0,11656.0,127.0,-6.0,88.0,-0.2375998243241891,0.3772155239976247,-0.5795865424957585,0.6821540967363051
-373.258624792099,5648.0,10128.0,11628.0,85.0,-48.0,92.0,-0.24826743041984534,0.3736310915758108,-0.576429427536044,0.6830023466072895
-373.26640701293945,5700.0,10000.0,11720.0,29.0,-34.0,50.0,-0.2538818647748865,0.3725069657053624,-0.5754929446652339,0.6823418717035825
-373.27421951293945,5716.0,10476.0,11756.0,31.0,-55.0,-3.0,-0.25745222763772363,0.37524035926346727,-0.5722305049701414,0.6822501538628004
-373.28200674057007,5700.0,10232.0,11676.0,-36.0,-8.0,-2.0,-0.2565345610409993,0.37662279942905114,-0.5740347180275638,0.6803156829301688
-373.2897958755493,5756.0,10172.0,11680.0,-33.0,-105.0,-40.0,-0.2583040879355586,0.3855809949108878,-0.572207192515773,0.6761547332915199
-373.29758977890015,5824.0,10204.0,11880.0,-44.0,-193.0,-1.0,-0.26634674122044444,0.39795400545632903,-0.5702436887880176,0.6674684699519133
-373.30540657043457,5760.0,10048.0,11852.0,-35.0,-289.0,42.0,-0.28185459200503976,0.4133771679597371,-0.5667480093824128,0.6545792540528095
-373.3131756782532,5644.0,10032.0,11788.0,-34.0,-339.0,43.0,-0.2997077629728973,0.43125900594776295,-0.5615645555094679,0.6394029845083479
-373.32096767425537,5824.0,9916.0,11780.0,49.0,-327.0,66.0,-0.3211147859524969,0.4447953254607033,-0.5524367619507383,0.6275795063068684
-373.3287935256958,5900.0,9856.0,11692.0,114.0,-305.0,143.0,-0.3479063769681928,0.45118819009601013,-0.5428503595346642,0.6170120397008783
-373.33658051490784,5892.0,9908.0,11700.0,176.0,-277.0,151.0,-0.37590565794436576,0.4533716681988517,-0.5305592167854626,0.6096359440551388
-373.3444221019745,5880.0,10024.0,11676.0,181.0,-205.0,180.0,-0.4019781604288865,0.44980845687141635,-0.5210270437573752,0.6038350191390143
-373.3522071838379,5820.0,10040.0,11652.0,163.0,-201.0,133.0,-0.4243988428044756,0.4484734183227292,-0.5103538442341837,0.5985784568120864
-373.3600449562073,5732.0,10176.0,11756.0,178.0,-197.0,109.0,-0.4457087593454085,0.4471560327325972,-0.49777799387888766,0.5946530526647713
-373.3678376674652,5720.0,10208.0,11652.0,193.0,-206.0,114.0,-0.46795868537571117,0.4452060010745926,-0.4839331337127197,0.5904362857104845
-373.3756172657013,5776.0,10348.0,11680.0,174.0,-224.0,30.0,-0.4855954951565115,0.44821008440969645,-0.4667422434850538,0.5877554027515985
-373.383394241333,5732.0,10340.0,11580.0,177.0,-237.0,253.0,-0.5148794694808688,0.4422733252579055,-0.45715323500970906,0.5747211127082175
-373.39118099212646,5800.0,10288.0,11612.0,242.0,-222.0,-7.0,-0.5325351284110288,0.4425960907937987,-0.434485807991575,0.5759662490773264
-373.3989577293396,5748.0,10268.0,11656.0,223.0,-282.0,-34.0,-0.5498896668788494,0.44743397718233985,-0.408542879659714,0.5749059973613162
-373.4067406654358,5884.0,10104.0,11692.0,2.0,-271.0,-56.0,-0.5566879580080275,0.4627547231783752,-0.39302181238784156,0.5670012685808861
-373.41451358795166,6012.0,9996.0,11368.0,275.0,-233.0,-13.0,-0.5748872027839669,0.4610936446521016,-0.3672693549403403,0.5674597570386593
-373.42230343818665,6020.0,10056.0,11672.0,331.0,-275.0,-14.0,-0.5959391983984245,0.45817488515606464,-0.33615426342622,0.5673910094501374
-373.4300842285156,6068.0,10096.0,11688.0,384.0,-235.0,53.0,-0.6203607363598287,0.4478684533248185,-0.3066647933454398,0.5661476042711163
-373.43787360191345,6008.0,10152.0,11708.0,390.0,-199.0,72.0,-0.6440408861391688,0.434256367188036,-0.27908700783579465,0.5645734554466645
-373.4456834793091,6080.0,10132.0,11708.0,339.0,-139.0,86.0,-0.6641902966690305,0.41964310736929383,-0.25754443957261525,0.5625137988470825
-373.4534795284271,5888.0,10148.0,11580.0,322.0,-123.0,44.0,-0.6806330058192659,0.4057444318606975,-0.23595635080194283,0.5625253486907958
-373.46128726005554,6020.0,10140.0,11728.0,278.0,-131.0,102.0,-0.6979427490838791,0.3933004189350618,-0.21789067471418327,0.5574175753771496
-373.46910333633423,5980.0,10332.0,11524.0,216.0,-121.0,39.0,-0.7094245900434348,0.38508500726460354,-0.2011367972381234,0.5549506978268561
-373.47694969177246,5892.0,10308.0,11644.0,212.0,-175.0,69.0,-0.7227821288628805,0.37898892339922063,-0.18212720846600258,0.5484369335425208
-373.4847958087921,6088.0,10260.0,11464.0,221.0,-175.0,-233.0,-0.7213883857992051,0.3768113317529216,-0.15254833088542635,0.5606612380401177
-373.4926087856293,6028.0,10256.0,11448.0,204.0,-226.0,22.0,-0.7319555740229134,0.374467676204086,-0.12883439541524597,0.5544517072686198
-373.50040435791016,6300.0,10248.0,11424.0,506.0,-267.0,-38.0,-0.7487445059114546,0.35490334871932605,-0.08575583629019091,0.5532370328144984
-373.5082063674927,6232.0,10168.0,11480.0,240.0,-265.0,-41.0,-0.7558329500355982,0.3519903484498165,-0.05536104705561285,0.549321855297573
-373.5160319805145,6304.0,10152.0,11572.0,197.0,-215.0,-81.0,-0.7587954433093596,0.3494035960235961,-0.02904353177910339,0.5489108083837743
-373.5238356590271,6344.0,10184.0,11672.0,155.0,-205.0,-103.0,-0.7589020073642347,0.34894165270978084,-0.004709420347388637,0.5498047722443788
-373.53162121772766,6320.0,10172.0,12012.0,122.0,-89.0,-131.0,-0.7562664715130389,0.344946454545828,0.011212168130508392,0.5558302392343314
-373.5394010543823,6356.0,10128.0,11764.0,83.0,-16.0,-128.0,-0.752482278469744,0.3398985563494839,0.020332815510656365,0.5637605596296437
-373.5472033023834,6252.0,10248.0,11692.0,56.0,11.0,-90.0,-0.7497097864563306,0.3353123578837581,0.025221550161265663,0.5699690624494459
-373.55500745773315,6220.0,10328.0,11828.0,-3.0,35.0,-115.0,-0.743943760833647,0.3333009197232233,0.026333605470826593,0.5785885574838564
-373.56280183792114,6136.0,10332.0,11660.0,-81.0,65.0,-119.0,-0.7356632659919774,0.3347784340684381,0.02167186737482203,0.5884329097842759
-373.57057929039,5984.0,10460.0,11740.0,-123.0,98.0,-138.0,-0.7250523464964458,0.3371330501540036,0.013281455926692979,0.6003865457039518
-373.57837653160095,5920.0,10100.0,11764.0,-196.0,66.0,-112.0,-0.7133491393886758,0.34568673716361087,0.0023201191185281246,0.6096132397921553
-373.58616304397583,5836.0,10064.0,11312.0,-182.0,27.0,-132.0,-0.7007087192075013,0.35530463059900097,-0.004867957295499823,0.6186616306942427
-373.59394884109497,5832.0,10048.0,11744.0,-181.0,-17.0,-138.0,-0.6875209783140805,0.36709992253590334,-0.00913101104557014,0.6264736035057413
-373.60175108909607,5792.0,9952.0,11536.0,-142.0,-109.0,-138.0,-0.6753850144865534,0.38144359737501105,-0.005743945399055021,0.631128252671247
-373.60957074165344,5884.0,9832.0,11436.0,-60.0,-224.0,-118.0,-0.6668285907047944,0.39710623975905224,0.00826686360588166,0.6305378053132149
-373.61736488342285,5892.0,9832.0,11528.0,-2.0,-13.0,-89.0,-0.661829971273397,0.3976892861380794,0.01217439722463306,0.6353551013940598
-373.6251528263092,5956.0,9928.0,11604.0,81.0,-306.0,-63.0,-0.6605571896411733,0.40957731357550675,0.03669205872605486,0.6281435474826353
-373.63296699523926,6068.0,10016.0,11648.0,101.0,-308.0,-69.0,-0.6591171350815318,0.42006687841242824,0.0625963230973924,0.6206368666438041
-373.6408202648163,6108.0,10104.0,11640.0,81.0,-285.0,-52.0,-0.6574796279687474,0.4302325545366812,0.08541632274627886,0.6126373638878244
-373.6486186981201,6200.0,10224.0,11640.0,85.0,-208.0,4.0,-0.6592003326957913,0.43624016266485355,0.10187863136966686,0.6039620735792471
-373.65640354156494,6216.0,10260.0,11608.0,3.0,-164.0,-18.0,-0.656832423739696,0.444322713605115,0.11229020872732176,0.5987815981831756
-373.66419076919556,6384.0,10276.0,11744.0,-12.0,-166.0,-24.0,-0.6534087755844337,0.45321888314867226,0.12223587227882686,0.5938922524119639
-373.6720187664032,6116.0,10324.0,11624.0,-27.0,-141.0,-47.0,-0.6483381431190309,0.4613436132282741,0.13085617119064255,0.5913513212733804
-373.67981576919556,6100.0,10172.0,11636.0,-70.0,-159.0,243.0,-0.6560213868424671,0.47594620323423625,0.12653781367114417,0.5719259858963638
-373.6876184940338,6068.0,10164.0,11596.0,-71.0,-180.0,-39.0,-0.6490414523252042,0.48831907367746674,0.13502005812466222,0.5675026514038357
-373.6954047679901,6152.0,9996.0,11304.0,-25.0,-190.0,-66.0,-0.6423660641173697,0.49811945575651584,0.14745176355890632,0.5634721154507649
-373.7032024860382,6124.0,10024.0,11612.0,-16.0,-247.0,-59.0,-0.6354341452487193,0.5101094422458847,0.1631462717782446,0.5562329529868588
-373.71098709106445,6064.0,10048.0,11528.0,1.0,-243.0,-117.0,-0.6261652628193236,0.5198743842104318,0.18193144629042984,0.551859254820379
-373.71878361701965,6008.0,10160.0,11640.0,63.0,-14.0,-128.0,-0.6225869417947092,0.5148658673946376,0.19161520960966952,0.5572990668796435
-373.7265737056732,6012.0,10132.0,11428.0,110.0,-281.0,-136.0,-0.6159557476041905,0.5198974874694334,0.21834875453339256,0.5501172065206192
-373.7343671321869,6008.0,10192.0,11628.0,123.0,-307.0,-161.0,-0.6076415083307473,0.5245197280213054,0.24801956706891878,0.542344121956656
-373.74215936660767,6100.0,10136.0,11712.0,144.0,-368.0,-100.0,-0.601154162700918,0.5316365990443093,0.27882690888508216,0.5274767806316678
-373.74996185302734,5932.0,10164.0,11312.0,199.0,-395.0,-69.0,-0.5971443976982418,0.5371317857731159,0.311741743236986,0.5076663259793311
-373.7577497959137,6272.0,10224.0,11412.0,221.0,-403.0,-122.0,-0.5906291703650228,0.5395303858867051,0.3480123620395515,0.48882669903199827
-373.7655785083771,6388.0,10208.0,11448.0,192.0,-380.0,-163.0,-0.5807206518760155,0.5403159303443822,0.3832087014909869,0.473258186408193
-373.77340388298035,6364.0,10216.0,11552.0,176.0,-406.0,-214.0,-0.5660904744072085,0.5403661832603333,0.42079419824093145,0.45877903777401746
-373.7812030315399,6352.0,10132.0,11288.0,196.0,-325.0,-211.0,-0.5545620673450746,0.5354233032677075,0.45434838416659235,0.4464866689891872
-373.78900051116943,6388.0,10064.0,11632.0,219.0,-281.0,-164.0,-0.5469580973140173,0.5288279327802906,0.4838761148104626,0.4324832514790443
-373.796790599823,6288.0,9952.0,11592.0,214.0,-190.0,-155.0,-0.5427612472892095,0.5189009505502581,0.5079772349313452,0.42203217975719015
-373.8045756816864,6328.0,9900.0,11532.0,274.0,-154.0,-93.0,-0.5447173812864697,0.5071385287366998,0.52935870726265,0.4072749025417626
-373.8123710155487,6356.0,9856.0,11564.0,338.0,-179.0,21.0,-0.5518744506610488,0.49800375675031,0.5486413349177063,0.3826480557769251
-373.82014536857605,6252.0,9860.0,11464.0,307.0,-171.0,19.0,-0.5574337030667029,0.48948991795155133,0.566029119645791,0.3595529482873661
-373.82791113853455,6236.0,9892.0,11048.0,1.0,-209.0,33.0,-0.5481257844667885,0.4974341197967013,0.5747109234829056,0.3490340603639915
-373.8357048034668,6236.0,9888.0,11508.0,196.0,-227.0,39.0,-0.5462829732230429,0.49664981721532925,0.5896321005020888,0.32748718796934156
-373.84353971481323,6360.0,10008.0,11340.0,126.0,-272.0,-26.0,-0.5368553734682472,0.4968054128982568,0.6071100335086793,0.31046432469182655
-373.85136222839355,6344.0,10088.0,11224.0,110.0,-300.0,-35.0,-0.5246111473861726,0.4976335713002334,0.6254093544921987,0.29326969169484646
-373.8591616153717,6392.0,10160.0,11380.0,102.0,-367.0,-89.0,-0.5064736988138548,0.497119299900915,0.6483022545743402,0.2757915531514052
-373.8669476509094,6432.0,10128.0,11344.0,127.0,-393.0,-196.0,-0.4846818797191205,0.4894011364471517,0.6766872270972493,0.26012381628680603
-373.87473249435425,6448.0,10148.0,11376.0,178.0,-395.0,-170.0,-0.46475345675920243,0.48032575261824473,0.7041073375907062,0.23984214173705243
-373.8825194835663,6520.0,10084.0,11536.0,179.0,-391.0,-189.0,-0.4439421297648857,0.4691709999502025,0.7310111204852725,0.2200379511639097
-373.8903069496155,6552.0,10216.0,11480.0,219.0,-394.0,-170.0,-0.42417535289481756,0.45693833661155664,0.756763367788554,0.19644803817942952
-373.8981103897095,6632.0,9948.0,11328.0,202.0,-390.0,-196.0,-0.40280173581407697,0.4427533898127432,0.7817806959471904,0.17475451604699233
-373.90589332580566,6584.0,9864.0,11540.0,208.0,-337.0,-84.0,-0.3863700146463171,0.43452798355573924,0.7995345184095545,0.1504931797816421
-373.9136996269226,6580.0,9896.0,11412.0,227.0,-308.0,-63.0,-0.372493149631395,0.42623235311496205,0.8148134080195369,0.12511572541992183
-373.92148661613464,6556.0,9960.0,11432.0,305.0,-280.0,-227.0,-0.3611898893080909,0.4028438672779208,0.8349732254137393,0.10039121127048388
-373.92928528785706,6516.0,9972.0,11432.0,306.0,-266.0,60.0,-0.3529147382155856,0.399607305101263,0.8433809103996857,0.06688668950791377
-373.93708062171936,6612.0,10232.0,11348.0,375.0,-226.0,77.0,-0.34959615675169287,0.3947109259640127,0.849199549414637,0.029085002717120483
-373.9449510574341,6700.0,10144.0,11412.0,351.0,-143.0,111.0,-0.35121692571269203,0.3923242974803786,0.8501185845048237,-0.005168073042022381
-373.9527487754822,6652.0,10144.0,11456.0,397.0,-104.0,188.0,-0.3567891412447958,0.3937191973596586,0.8460283740420301,-0.043848519200377585
-373.9605643749237,6436.0,10168.0,11572.0,395.0,-106.0,210.0,-0.36149813711897105,0.3961692610588702,0.8399215033988912,-0.08307154494608163
-373.96835803985596,6716.0,10132.0,11744.0,358.0,-55.0,215.0,-0.3680974542952336,0.3999342740060404,0.8310619956511006,-0.11786772247328718
-373.97616243362427,6684.0,10020.0,11820.0,392.0,13.0,311.0,-0.3792249521240717,0.4096102907848224,0.814974155220328,-0.15564373322617772
-373.9839780330658,6676.0,9916.0,11656.0,438.0,147.0,272.0,-0.4012715899237244,0.4159684773384119,0.7935607678885587,-0.19029620240291284
-373.99178075790405,6616.0,9860.0,11612.0,468.0,211.0,300.0,-0.42738823131979264,0.4232539885355214,0.7664675307004158,-0.22521741784355645
-373.9995663166046,6508.0,9856.0,11544.0,542.0,305.0,339.0,-0.46034474387432156,0.4308453076198338,0.7305080874948885,-0.2623222670567953
-374.0073540210724,6624.0,9776.0,11468.0,630.0,325.0,322.0,-0.49631798032631896,0.432456606793746,0.689313797396685,-0.3024834447764127
-374.0151336193085,6164.0,9796.0,11192.0,730.0,367.0,428.0,-0.5330089076440913,0.43480878211943114,0.6359120253125697,-0.34994102849871045
-374.02291464805603,6304.0,9860.0,11248.0,776.0,325.0,478.0,-0.563974659930036,0.43355202893050054,0.5768730713854371,-0.4014756289955582
-374.0307250022888,6212.0,9824.0,11264.0,801.0,274.0,597.0,-0.5848632717063807,0.4319392566209723,0.5106126070025414,-0.4589533718894528
-374.03850531578064,6188.0,9828.0,11216.0,827.0,228.0,655.0,-0.5974073622776891,0.4260631077769386,0.43916892037351907,-0.5183679494971002
-374.04629588127136,6160.0,9844.0,11472.0,860.0,201.0,685.0,-0.6033228016233761,0.4144875262419031,0.36253505664491176,-0.5768622195417713
-374.05408453941345,6272.0,9912.0,11224.0,888.0,79.0,776.0,-0.5957953416561864,0.39402888886736304,0.28402692173035776,-0.6396075776060791
-374.0618648529053,6160.0,9800.0,11024.0,878.0,1.0,747.0,-0.5814493959042042,0.36493903820328066,0.20815024465190674,-0.6967134088341144
-374.0696556568146,6356.0,9760.0,11284.0,913.0,-76.0,1023.0,-0.5431120383597565,0.3300138581171985,0.12294458351646416,-0.7622367064260781
-374.07743668556213,5888.0,9500.0,11384.0,997.0,-176.0,839.0,-0.5108065923831993,0.2779995152481963,0.0404346023957397,-0.8125010385400936
-374.0852084159851,6160.0,9724.0,11252.0,1153.0,-22.0,835.0,-0.4758447228712431,0.2259888219820115,-0.060241897582058175,-0.8478630584183305
-374.09300327301025,6172.0,9768.0,11504.0,1255.0,-413.0,811.0,-0.4387394354744301,0.1375046029884973,-0.15066329978894918,-0.8751575641067495
-374.10079288482666,6140.0,9836.0,11016.0,1336.0,-475.0,841.0,-0.3926885828995063,0.03830908903615576,-0.24217573890457217,-0.8863853575300201
-374.10858607292175,6240.0,9836.0,11000.0,1435.0,-444.0,862.0,-0.33628817803335254,-0.06303046994457673,-0.33702608939799256,-0.8771264653621338
-374.11638021469116,6372.0,9960.0,10708.0,1596.0,-492.0,846.0,-0.27348377584723377,-0.17044838246300686,-0.43426230061036536,-0.8411719369621629
-374.12418150901794,6600.0,9528.0,10580.0,1536.0,-554.0,895.0,-0.20315971796494864,-0.278228031678881,-0.5135536039078746,-0.7858613028376775
-374.13200402259827,6300.0,9200.0,10532.0,1997.0,-602.0,854.0,-0.12071872617226373,-0.3858385192327095,-0.6073101663961994,-0.683907879775834
-374.1398026943207,6116.0,8804.0,10508.0,2245.0,-642.0,839.0,-0.028392402050123642,-0.4811147357923396,-0.6902088158112177,-0.5397539004822175
-374.14759159088135,5864.0,8400.0,10944.0,2467.0,-748.0,716.0,0.06220986139659474,-0.5507625672181798,-0.7541798621054033,-0.35214097076445294
-374.15537667274475,5472.0,8036.0,11352.0,2376.0,-860.0,339.0,0.12714231687942135,-0.5725896797115212,-0.7961006633976037,-0.14899538141931123
-374.1631689071655,5512.0,7952.0,12252.0,2014.0,-674.0,190.0,0.18036142382003384,-0.5625378405697035,-0.8064320168361484,0.026236176290896945
-374.1709666252136,5936.0,8612.0,11956.0,2005.0,-558.0,567.0,0.23415204373997137,-0.5597639016562613,-0.7692735744607329,0.20013835827087548
-374.1787459850311,6664.0,10556.0,11156.0,2183.0,-675.0,1074.0,0.2702761127920164,-0.5619768898500955,-0.6762363043555359,0.3922209311090088
-374.18653559684753,7180.0,12592.0,10800.0,2084.0,-933.0,1422.0,0.26166260799226687,-0.5498362027436825,-0.5423907175799119,0.5788135617055303
-374.19432401657104,7060.0,14032.0,11560.0,1613.0,-1144.0,1404.0,0.20935791500862874,-0.5103227857336579,-0.41051121593144024,0.7260994831142419
-374.2021219730377,6948.0,14160.0,11868.0,1135.0,-1129.0,1234.0,0.13910257583669464,-0.4551499186193531,-0.2995401936494419,0.8269006574945069
-374.20990681648254,7032.0,13788.0,11976.0,1006.0,-916.0,1089.0,0.07563125837825194,-0.4005888506310241,-0.19245910179392467,0.892618608165275
-374.21771478652954,7244.0,13248.0,11904.0,606.0,-768.0,1018.0,0.004535846656660207,-0.3510642084045944,-0.113708463154562,0.9294104222997451
-374.2255039215088,7364.0,12488.0,11796.0,644.0,-697.0,924.0,-0.05727056531629075,-0.3012677826639645,-0.0330299470671666,0.9512448833364788
-374.23328590393066,7388.0,11456.0,11688.0,631.0,-597.0,745.0,-0.1037937533458389,-0.25553687411366716,0.04191962626973647,0.9602970934393192
-374.2410800457001,7244.0,10328.0,11664.0,541.0,-459.0,529.0,-0.13405015197874195,-0.21915481852045987,0.10310726209668471,0.9609217526815936
-374.24887704849243,7220.0,9788.0,11720.0,452.0,-276.0,361.0,-0.15302748895967241,-0.19749279659402932,0.15109909669972804,0.9564247204525262
-374.256662607193,7136.0,9168.0,11620.0,504.0,-117.0,134.0,-0.15389293469774445,-0.19221816860705018,0.19699437717423862,0.9489796392279454
-374.2644534111023,7072.0,9208.0,11696.0,579.0,159.0,245.0,-0.1670246938517339,-0.20834237150202375,0.24667144588639475,0.9315843524152616
-374.272225856781,6684.0,9440.0,11888.0,628.0,495.0,-177.0,-0.1515885484669573,-0.2606109034967619,0.2866810997194938,0.9093496665287253
-374.28004479408264,6488.0,9852.0,11940.0,582.0,761.0,-218.0,-0.13969228187367988,-0.33268130622596814,0.3167684792066584,0.8771926501366781
-374.2878317832947,6232.0,10012.0,11692.0,487.0,968.0,-103.0,-0.14389986692118162,-0.41348749076718955,0.33780463372501013,0.833192026313881
-374.29561853408813,6116.0,10496.0,11264.0,372.0,1090.0,-8.0,-0.16133994742550883,-0.49497534805664206,0.34917723050878746,0.7791303407486793
-374.30339074134827,5936.0,10648.0,11176.0,313.0,1044.0,199.0,-0.1923929838317654,-0.5615347676322253,0.36271557370128454,0.7184017379621799
-374.3111755847931,5744.0,10728.0,10864.0,246.0,920.0,294.0,-0.22716236865434888,-0.6115994331047709,0.3757240368270349,0.6581601931472806
-374.31895875930786,5556.0,10784.0,10612.0,272.0,998.0,445.0,-0.26976029215380387,-0.6564481436684242,0.39345606274596584,0.5843779138022047
-374.3267467021942,5456.0,10772.0,10304.0,314.0,594.0,551.0,-0.29953835116426997,-0.6731760996156231,0.4258606860388161,0.52512226307274
-374.3345482349396,5560.0,10672.0,10356.0,404.0,442.0,568.0,-0.31756591901327635,-0.681021832944079,0.465007965527225,0.4681118906105371
-374.34233045578003,5644.0,10556.0,10540.0,433.0,351.0,570.0,-0.32869128898000793,-0.6824918554533784,0.5056364628795755,0.4129148473899886
-374.35019755363464,5992.0,10540.0,10516.0,485.0,225.0,629.0,-0.33166172183945275,-0.6749259631933809,0.5526978581078333,0.3591664295518025
-374.35799074172974,6260.0,10576.0,10788.0,439.0,290.0,518.0,-0.33545368688986926,-0.6702774397933646,0.5873530615670093,0.3053119039996751
-374.36578822135925,6536.0,10560.0,11036.0,477.0,230.0,440.0,-0.3305856685024296,-0.6665544682554476,0.6179434810462147,0.2540946887716972
-374.3736524581909,6588.0,10472.0,11256.0,425.0,1.0,436.0,-0.3152527456761848,-0.6543499837979503,0.6517704790258735,0.21825912974634581
-374.3814539909363,6692.0,10612.0,11436.0,398.0,277.0,329.0,-0.3142492692673079,-0.6509689977910815,0.6696253549252514,0.1705539349328208
-374.3892409801483,6760.0,10656.0,11384.0,331.0,321.0,298.0,-0.3183872702981741,-0.6466306464350183,0.6818743964276439,0.12468223890973505
-374.39703369140625,6800.0,10640.0,11608.0,266.0,329.0,210.0,-0.3250761723017245,-0.6445256751419718,0.6868686171626959,0.084401653072974
-374.40479612350464,6896.0,10624.0,11388.0,287.0,377.0,219.0,-0.332913845148923,-0.6416224772340612,0.6898612443026366,0.03975464784655589
-374.412593126297,6468.0,10628.0,11420.0,318.0,342.0,191.0,-0.336146971368004,-0.6399046806598457,0.6910214486459544,-0.004070727328827716
-374.42038106918335,6424.0,10684.0,11164.0,318.0,384.0,212.0,-0.34120317246609044,-0.6355804344206143,0.6906756533713496,-0.050843370470867066
-374.4281678199768,6340.0,10980.0,10920.0,320.0,361.0,177.0,-0.3441966457353701,-0.6321854946190404,0.6875931311120688,-0.09531975401405914
-374.4359884262085,6292.0,10680.0,10908.0,286.0,373.0,152.0,-0.3493264964556776,-0.6279537185635542,0.6817190317624392,-0.137492865084295
-374.44377875328064,6300.0,10512.0,10948.0,510.0,287.0,95.0,-0.33697350941950227,-0.633548332719281,0.6711116035224626,-0.18621111587559122
-374.4516017436981,6244.0,10572.0,10924.0,152.0,294.0,104.0,-0.34405630701712886,-0.6268505214553379,0.6653919196774901,-0.21432982662431932
-374.4593839645386,6200.0,10504.0,10868.0,93.0,258.0,27.0,-0.3534602999385763,-0.623058812085277,0.657139206509591,-0.23458814189587754
-374.4671754837036,6324.0,10420.0,10892.0,53.0,247.0,25.0,-0.3642612058664941,-0.6180403971093126,0.6495779976930552,-0.25177026503289074
-374.4750277996063,6288.0,10336.0,10920.0,86.0,194.0,104.0,-0.36837541476816604,-0.6104746672254998,0.646934524763065,-0.27036263636065566
-374.48285841941833,6172.0,10256.0,10928.0,119.0,235.0,142.0,-0.37194449579946776,-0.600522487695661,0.6438563064649405,-0.2940732739329077
-374.4906487464905,6444.0,10292.0,10916.0,202.0,280.0,118.0,-0.37399291165621246,-0.5929528026873271,0.6353787489078374,-0.3237748002122206
-374.4984414577484,6476.0,10376.0,11212.0,300.0,11.0,235.0,-0.35235849127394747,-0.589070933685385,0.6382847984482808,-0.34847014905729556
-374.5062246322632,6508.0,10448.0,11036.0,349.0,199.0,232.0,-0.3382844447780522,-0.5803476240095724,0.6328916231549189,-0.38497852286586237
-374.51400995254517,6560.0,10492.0,11112.0,363.0,224.0,234.0,-0.32423187091504757,-0.5700973576101226,0.6252985847086798,-0.4229236062106322
-374.5218012332916,6604.0,10568.0,11260.0,383.0,187.0,238.0,-0.3064312092732415,-0.5605361096705771,0.6170766062400845,-0.45947322639075855
-374.5295910835266,6564.0,10500.0,11304.0,373.0,195.0,160.0,-0.2921559806323362,-0.5536495334050606,0.6041846086472206,-0.4930294472087055
-374.53751969337463,6580.0,10844.0,11448.0,364.0,267.0,104.0,-0.2840517633730306,-0.5455150095470006,0.5861738858391349,-0.5273785600911899
-374.54546427726746,6496.0,10692.0,11176.0,349.0,277.0,102.0,-0.27680490268285945,-0.5357761267179307,0.5675546495736621,-0.5605396575062124
-374.55328345298767,6404.0,10724.0,11100.0,338.0,288.0,36.0,-0.2734117823139836,-0.5276739441002354,0.5452311772442963,-0.5912099198849687
-374.5610613822937,6296.0,10616.0,10776.0,511.0,284.0,252.0,-0.25011669956234406,-0.5124354968325048,0.522777114948601,-0.6336841376206931
-374.56885600090027,6216.0,10524.0,10928.0,231.0,238.0,-76.0,-0.25484978401441466,-0.50756308932857,0.5010669335939579,-0.6529649500530579
-374.57665276527405,6092.0,10420.0,10960.0,176.0,228.0,-53.0,-0.26007491501558494,-0.5006402158742624,0.4833337444331026,-0.6694093697591068
-374.5844337940216,6200.0,10336.0,10880.0,191.0,233.0,-46.0,-0.2642694937673701,-0.4931299306989704,0.46457712262188594,-0.6864055676122797
-374.5922005176544,6132.0,10340.0,11000.0,160.0,174.0,-114.0,-0.2713150698311167,-0.49089010421487494,0.4458128927337583,-0.6976144373067433
-374.60003995895386,6140.0,10004.0,10848.0,213.0,177.0,-148.0,-0.27810276060757716,-0.49072877291892264,0.42200285271314897,-0.7097589156001474
-374.60783076286316,6188.0,10408.0,10820.0,230.0,153.0,-124.0,-0.2815925138714626,-0.49122640886281815,0.3984327114277895,-0.7215633345948154
-374.61562275886536,6220.0,10472.0,11212.0,298.0,126.0,-158.0,-0.2831304367584562,-0.4958563197347221,0.36944638757549614,-0.7331255231319663
-374.6234085559845,6156.0,10564.0,11252.0,324.0,80.0,-113.0,-0.2789096552548851,-0.5021364843161773,0.3415134867151808,-0.7439333933329185
-374.6311902999878,6264.0,10740.0,11128.0,343.0,47.0,-122.0,-0.27318477575624583,-0.5107912693303901,0.3124119915040166,-0.7529017897676648
-374.63898229599,6264.0,10968.0,11244.0,287.0,32.0,-205.0,-0.27472900993602634,-0.5208473155814554,0.2833311894503817,-0.7569448342090688
-374.6467921733856,6304.0,10840.0,11512.0,248.0,23.0,-150.0,-0.2739724059774652,-0.5287768512637867,0.2593085985112015,-0.760324413042637
-374.65457248687744,6328.0,10784.0,11172.0,190.0,20.0,-179.0,-0.2775920173863346,-0.5358621692408814,0.23771125487999326,-0.761109562916681
-374.6623725891113,6316.0,10808.0,11228.0,201.0,22.0,-231.0,-0.2840213653320743,-0.5438176981646916,0.21275749451637146,-0.7604790751393999
-374.6701605319977,6240.0,10688.0,11108.0,120.0,68.0,-244.0,-0.2958270920221575,-0.5465863086975646,0.19128055502423522,-0.7596982875061026
-374.67795753479004,6256.0,10608.0,11052.0,129.0,47.0,-512.0,-0.32419279630633213,-0.5546855137631839,0.15672985891269348,-0.7501058345124113
-374.6857442855835,6204.0,10612.0,10920.0,101.0,33.0,-280.0,-0.33810651272596975,-0.5589412711714328,0.13539421881904445,-0.744940968764591
-374.6935775279999,6368.0,10528.0,10756.0,77.0,-243.0,-299.0,-0.35085190116589066,-0.5801192303948864,0.12271447173907186,-0.724779815116374
-374.7013680934906,6156.0,10460.0,10844.0,68.0,-11.0,-308.0,-0.366772122700537,-0.5858743959505689,0.10294626843627147,-0.7152841868756399
-374.70916724205017,6152.0,10580.0,10992.0,68.0,-92.0,-494.0,-0.3930604161071507,-0.5975391875660767,0.07614783412182372,-0.6947315567693048
-374.7169544696808,6204.0,10432.0,10880.0,46.0,-111.0,-275.0,-0.40659531908604096,-0.6073464286759321,0.06265637615314051,-0.6796210271903509
-374.7247943878174,6224.0,10516.0,10792.0,53.0,-144.0,-295.0,-0.4204561114149061,-0.6189956997464632,0.048827770137022,-0.6615714858824318
-374.7325849533081,6296.0,10556.0,11024.0,57.0,-211.0,-304.0,-0.4339331720337861,-0.6340965097352346,0.03671576878149878,-0.6389644519635451
-374.7403872013092,6332.0,10616.0,11092.0,38.0,-181.0,-339.0,-0.4500315941368883,-0.6462133942855899,0.022572963376140325,-0.6159304138041304
-374.74820613861084,6424.0,10696.0,11100.0,44.0,-201.0,-365.0,-0.4665933113153178,-0.6588866696072638,0.007422230934996793,-0.5900033465477996
-374.7560496330261,6432.0,10656.0,11080.0,85.0,-125.0,-417.0,-0.48286207837015593,-0.6684123915234766,-0.015905236517082567,-0.5655228656573095
-374.7638466358185,6404.0,10660.0,11168.0,21.0,-146.0,-433.0,-0.5029336402946023,-0.6752199632679664,-0.036072947792026896,-0.5383627931999193
-374.77163529396057,6624.0,10652.0,11228.0,-25.0,-104.0,-455.0,-0.5257942155487731,-0.6768667133996966,-0.057131788070129585,-0.511984232158426
-374.77942633628845,6332.0,10668.0,11140.0,-254.0,-88.0,-465.0,-0.5615160705712323,-0.6659419153138489,-0.0691535145473279,-0.486249791099305
-374.78721714019775,6264.0,10524.0,11192.0,-51.0,-69.0,-468.0,-0.5843669924421647,-0.6628235201344044,-0.09073127756685731,-0.4592907952178248
-374.7950060367584,6224.0,10748.0,10960.0,-92.0,-13.0,-433.0,-0.6068056711881773,-0.6545830314623489,-0.11132921520731903,-0.43693676679440646
-374.80279874801636,6276.0,10764.0,11044.0,-139.0,-11.0,-495.0,-0.6331977044324509,-0.6420346365588302,-0.1335539918250773,-0.411114976409073
-374.81059765815735,6328.0,11004.0,10996.0,-172.0,-41.0,-484.0,-0.6601125616646263,-0.6275778294697443,-0.15202338082509667,-0.38377905827848063
-374.8183798789978,6272.0,10672.0,11008.0,-169.0,-49.0,-512.0,-0.6864968236393062,-0.6118675029408709,-0.17130878479057685,-0.35354429741069593
-374.8262062072754,6324.0,10644.0,11192.0,-187.0,-48.0,-709.0,-0.7176934615715922,-0.5902026318284105,-0.20000901492990428,-0.31076251792481757
-374.83400321006775,6288.0,10660.0,11044.0,-211.0,-26.0,-587.0,-0.7439158445829145,-0.5664937772781763,-0.22242959891029038,-0.27604182656293313
-374.8417875766754,6260.0,10680.0,10972.0,-270.0,-24.0,-609.0,-0.7711760229024851,-0.5367198250951865,-0.24390566360802593,-0.24026942857972358
-374.8496162891388,6276.0,10672.0,10892.0,-200.0,14.0,-711.0,-0.7935818788639383,-0.5067114046125157,-0.27321256435610525,-0.19704377344223295
-374.85743856430054,6276.0,10620.0,10960.0,-243.0,-250.0,-682.0,-0.8202576952796172,-0.47681130972334634,-0.28105530539872703,-0.14434750971771615
-374.86524653434753,6244.0,10584.0,11056.0,-218.0,23.0,-690.0,-0.8358645635410785,-0.44308296722708423,-0.30784932585002994,-0.10117661855985707
-374.8730525970459,6248.0,10572.0,11044.0,-213.0,-22.0,-667.0,-0.8490714449563511,-0.4090533108267062,-0.3293297044193844,-0.057402230344167936
-374.8808481693268,6272.0,10624.0,11136.0,-229.0,-24.0,-617.0,-0.8596860883530199,-0.37386983419903463,-0.3476424400241751,-0.017490296232712886
-374.8886423110962,6300.0,10696.0,11092.0,-230.0,-6.0,-660.0,-0.8668499290195474,-0.33600754413176137,-0.36747854838133986,0.025092774356204453
-374.8964350223541,6264.0,10684.0,11164.0,-233.0,8.0,-635.0,-0.8706050124165664,-0.2975615140133355,-0.3863303621060855,0.06521433161677516
-374.9042344093323,6384.0,10600.0,11092.0,-248.0,5.0,-701.0,-0.8711449635998532,-0.2546333501765236,-0.40526690388479575,0.10966788950336372
-374.91206073760986,6392.0,10728.0,11112.0,-11.0,19.0,-643.0,-0.8632963174873888,-0.23094292463773422,-0.4202426651978848,0.1574196179637783
-374.9198627471924,6372.0,10616.0,11136.0,-290.0,61.0,-662.0,-0.8561951504950599,-0.1853468756550275,-0.441089929420509,0.19497711177846525
-374.9276559352875,6448.0,10676.0,11052.0,-281.0,80.0,-713.0,-0.8437248612014242,-0.13802303211054953,-0.4621569107761745,0.23556101336908666
-374.9355032444,6468.0,10664.0,11132.0,-305.0,113.0,-750.0,-0.825428194084212,-0.08748530201658794,-0.4843811334597214,0.27638656966324915
-374.94329142570496,6384.0,10844.0,11004.0,-279.0,175.0,-778.0,-0.7993275533206705,-0.03868559995320281,-0.5081234933614681,0.3184170258525594
-374.951114654541,6464.0,10932.0,11076.0,-257.0,4.0,-797.0,-0.7758997247975576,0.014372227025889868,-0.5167130566776545,0.3616361060627459
-374.9589078426361,6332.0,10936.0,11172.0,-310.0,320.0,-873.0,-0.7309527701525294,0.06433720969260585,-0.5449517290945534,0.4057047993457437
-374.96674132347107,6380.0,10904.0,11116.0,-325.0,423.0,-842.0,-0.6767255344691288,0.10967466094934267,-0.57642792613427,0.44468513098108364
-374.9745259284973,6332.0,10772.0,11052.0,-319.0,475.0,-890.0,-0.6126992456188256,0.15416180930112627,-0.60567186279241,0.4837306746451965
-374.98231387138367,6336.0,10628.0,11024.0,-344.0,487.0,-884.0,-0.542716745739361,0.19784689810264258,-0.6315327227101386,0.517186193697743
-374.9901170730591,6332.0,10620.0,11212.0,-385.0,549.0,-822.0,-0.46674649522612915,0.23558830602868294,-0.657838386957803,0.5421203887527352
-374.9979109764099,6288.0,10488.0,11272.0,-334.0,503.0,-881.0,-0.3876535535174407,0.27478274065381975,-0.6730369199961473,0.5667807973160136
-375.0056941509247,6308.0,10444.0,11232.0,-279.0,557.0,-847.0,-0.30506249159774523,0.3051445367412037,-0.6824444079808125,0.5899943372040873
-375.0134871006012,6184.0,10444.0,11220.0,-267.0,575.0,-876.0,-0.21760875359832996,0.33334994125837425,-0.6850701421271834,0.6100845411795487
-375.0212800502777,6044.0,10436.0,11140.0,-194.0,498.0,-856.0,-0.13604578581816737,0.36031905445060536,-0.6772701046381744,0.6268707430757439
-375.0290701389313,5904.0,10588.0,11116.0,-115.0,412.0,-813.0,-0.06334019296962014,0.3859795785439199,-0.6606987988643905,0.6406909411571082
-375.0368621349335,5880.0,10644.0,11076.0,-97.0,408.0,-721.0,0.0038267502099891848,0.4042264694285423,-0.6423148312952416,0.6511666260599753
-375.04465413093567,5828.0,10568.0,10932.0,-81.0,333.0,-666.0,0.06314509192079708,0.42173011401771,-0.6218995992440935,0.6568084170874788
-375.0524525642395,5812.0,10668.0,10968.0,-135.0,7.0,-563.0,0.10072416330590461,0.4505916013204984,-0.6080122960830688,0.6458660074330812
-375.06024837493896,5728.0,10736.0,10788.0,-200.0,182.0,-549.0,0.14907616673023874,0.4670608515406952,-0.5951557700332571,0.6367260532342143
-375.0680766105652,5788.0,10616.0,10876.0,-233.0,107.0,-503.0,0.19195326498589815,0.4836416637949773,-0.5854014794793543,0.6217312867519721
-375.07586765289307,5736.0,10676.0,10764.0,-313.0,89.0,-481.0,0.2356190634993271,0.4975211660427148,-0.5797492808668999,0.6007055165299465
-375.0836637020111,5852.0,10572.0,10928.0,-336.0,4.0,-758.0,0.2895097958794138,0.5273909843470197,-0.562793815139571,0.5668385566984555
-375.09149289131165,5924.0,10624.0,10964.0,-368.0,-62.0,-562.0,0.3307546107798257,0.5478236922205408,-0.5556327125818804,0.5308134120372636
-375.0993332862854,6000.0,10652.0,10872.0,-330.0,-3.0,-687.0,0.3775062212711769,0.57049342187739,-0.5368680616527362,0.49376005597194406
-375.10710525512695,6052.0,10516.0,11064.0,-316.0,-253.0,-519.0,0.4032145781423594,0.594318953747774,-0.532000255289508,0.4485295013279825
-375.1149094104767,5992.0,10844.0,11060.0,-208.0,-17.0,-520.0,0.4331826479010358,0.6110669686009348,-0.5130532599185958,0.41919721603227894
-375.1227250099182,6012.0,10808.0,11088.0,-76.0,-256.0,-850.0,0.4556265966169961,0.6536321582766749,-0.47863049933484625,0.36889327891446383
-375.13052892684937,6040.0,10860.0,10812.0,-35.0,1.0,-828.0,0.4831941749833618,0.6849761130260251,-0.43125459226901947,0.3336923590566443
-375.13832092285156,6052.0,10840.0,11088.0,-18.0,-46.0,-795.0,0.5046079801713249,0.7137113725508663,-0.38516727389807154,0.29602877251527804
-375.1461157798767,5956.0,10840.0,11060.0,-61.0,-119.0,-718.0,0.5220328762120537,0.7366827862705122,-0.34647204183956914,0.2544352035194917
-375.15392684936523,6084.0,10512.0,11012.0,-120.0,-234.0,-640.0,0.5360419077256261,0.7543214358806616,-0.3179999410669299,0.20623841061799647
-375.1617362499237,6040.0,10520.0,11044.0,-127.0,-286.0,-553.0,0.5457141544388039,0.7676206233784587,-0.2967467147706656,0.15778475047362683
-375.1695280075073,6080.0,10716.0,11176.0,-157.0,-10.0,-557.0,0.563059218300385,0.7736369767294041,-0.2616855793855921,0.12637564031716642
-375.17733120918274,5924.0,10672.0,10784.0,-190.0,-269.0,-492.0,0.5745386072043825,0.7773773906313999,-0.24341862751830426,0.07960623809645516
-375.1851239204407,6088.0,10792.0,10612.0,-157.0,-206.0,-267.0,0.5824964989464818,0.7761048050956552,-0.23657501088742516,0.0489021926516734
-375.19293880462646,5968.0,10724.0,10648.0,-130.0,-208.0,-465.0,0.5885071609526398,0.7790693130480495,-0.21595851423623047,0.008499829597340086
-375.20076966285706,5936.0,10748.0,10272.0,-137.0,-218.0,-514.0,0.5934832168244103,0.7808012641096451,-0.19205519025756054,-0.035240051187004615
-375.2085723876953,5940.0,10840.0,10524.0,-159.0,-222.0,-450.0,0.5987161142097325,0.7785033161975341,-0.1722185963846714,-0.07623881107634267
-375.21635937690735,5868.0,10972.0,10680.0,-78.0,-253.0,-414.0,0.5970435880068549,0.7781497916448148,-0.1566575604311538,-0.11610454143913589
-375.22417402267456,5788.0,10776.0,10540.0,2.0,-392.0,-432.0,0.5865442889108748,0.7790793714085694,-0.14759540103138213,-0.16497493078055828
-375.2319960594177,5900.0,10792.0,11000.0,4.0,-447.0,-407.0,0.5739877408000207,0.7769122438130471,-0.14269207113916482,-0.21583422263088928
-375.23977971076965,6184.0,10896.0,10952.0,-16.0,-267.0,-363.0,0.5646052677351207,0.7749054818937607,-0.13108759761298355,-0.25210796799944224
-375.24757623672485,6188.0,10860.0,11072.0,-16.0,-512.0,-314.0,0.5522932139394864,0.7652955499382113,-0.1345888471087949,-0.3019615361516914
-375.2554075717926,6548.0,10724.0,11100.0,44.0,-458.0,-299.0,0.5356115651034217,0.7578938577138444,-0.13774740711095168,-0.346038731360089
-375.26319098472595,6508.0,10872.0,10992.0,129.0,-341.0,-342.0,0.512294409354761,0.7569229323552763,-0.13488829842382052,-0.38265814974579143
-375.27098536491394,6484.0,10980.0,10884.0,169.0,-115.0,-321.0,0.4889176473498257,0.7639062914225037,-0.12445719470041314,-0.4023892626827061
-375.27877402305603,6416.0,11260.0,10584.0,91.0,26.0,-371.0,0.46997378507368653,0.7722163463488404,-0.10181061049126167,-0.41526034648947274
-375.2865641117096,6268.0,11116.0,10552.0,51.0,240.0,-416.0,0.45332047525165026,0.7859274168624082,-0.06577761517369067,-0.4153214989422798
-375.2943539619446,6164.0,11112.0,10716.0,40.0,282.0,-336.0,0.43981919251165635,0.7990005070364145,-0.033057912069306056,-0.4087351735580939
-375.3021445274353,5952.0,11100.0,10736.0,3.0,286.0,-503.0,0.4220784334921859,0.8096751412436777,0.012817130053381759,-0.4075680100425053
-375.30994868278503,5852.0,11052.0,10492.0,-17.0,26.0,-216.0,0.4156138767413556,0.809527400154476,0.029575163673707827,-0.4135889306459126
-375.31774044036865,6072.0,11044.0,10508.0,-43.0,271.0,-75.0,0.4152384078953331,0.8172510118167435,0.04617794784621036,-0.3969199483847728
-375.32558012008667,5800.0,11176.0,10648.0,9.0,510.0,75.0,0.41483987203974604,0.8346529237561063,0.0588769630834176,-0.35748549711772115
-375.33335518836975,5768.0,11200.0,10592.0,46.0,173.0,121.0,0.41442010998375867,0.8421400128213723,0.05482001148688245,-0.34066249806347376
-375.3411591053009,5776.0,11220.0,10608.0,49.0,137.0,201.0,0.41616013204272767,0.848699929843805,0.04347469603880396,-0.32346425519001837
-375.34894585609436,5868.0,11224.0,10672.0,10.0,120.0,275.0,0.422701395734572,0.8531514445716887,0.027113562800078535,-0.30450122722506695
-375.35676527023315,6096.0,10964.0,10572.0,12.0,103.0,270.0,0.4287217820007813,0.8566461900426308,0.010430898162070691,-0.28678586974788656
-375.3645398616791,5916.0,10820.0,10652.0,20.0,119.0,311.0,0.43483739015954387,0.8602378044125627,-0.008918308437981028,-0.2661349803263289
-375.37233328819275,5652.0,10640.0,10636.0,47.0,149.0,422.0,0.44100652149152353,0.864430709369317,-0.036061012190177946,-0.23868891909978923
-375.3801507949829,5892.0,10976.0,10300.0,113.0,173.0,355.0,0.4402599584958507,0.8706494382336853,-0.05854838770589752,-0.2114540397950346
-375.38793778419495,5892.0,10748.0,10440.0,139.0,206.0,430.0,0.4383950319767913,0.8767131020845329,-0.08583394976624024,-0.1783717063855982
-375.39570450782776,5804.0,10708.0,10256.0,199.0,214.0,487.0,0.43194324723523,0.8828673305621657,-0.11789916899623787,-0.14166895829332968
-375.4035131931305,5848.0,10892.0,10004.0,267.0,198.0,570.0,0.41988045467089263,0.8879853998362869,-0.1574268657494154,-0.10197605308732868
-375.4113404750824,5824.0,10932.0,10272.0,326.0,215.0,630.0,0.4024548190909885,0.8912693676707971,-0.20087721909340744,-0.057596663891554024
-375.4191460609436,6020.0,11080.0,10304.0,309.0,316.0,785.0,0.3868301583957556,0.8871548678740341,-0.2516320109032766,7.189803421217983e-06
-375.42693543434143,6056.0,11208.0,10556.0,322.0,409.0,795.0,0.3697290464640518,0.8775002962527977,-0.2983573663070967,0.06539529224132556
-375.4347331523895,6132.0,11256.0,10992.0,301.0,484.0,810.0,0.3534553973742334,0.8601011958789491,-0.3417729244360646,0.1359650066636437
-375.4425206184387,6324.0,10880.0,10856.0,140.0,532.0,835.0,0.34770169230075293,0.829995720340287,-0.3848997607834255,0.2050922025257484
-375.4503345489502,6208.0,10648.0,11096.0,-28.0,521.0,923.0,0.3493350366340845,0.7854097019210007,-0.43456706920651433,0.26879005686499685
-375.45812368392944,5984.0,10152.0,11172.0,-54.0,485.0,985.0,0.3468479354869354,0.7316222084203795,-0.48629467008111565,0.3285467206429492
-375.46592688560486,5648.0,9880.0,11124.0,-58.0,362.0,1196.0,0.32977540630292324,0.6647371387128728,-0.5500534059609511,0.3831631093990152
-375.4737648963928,5200.0,9764.0,10928.0,80.0,143.0,1338.0,0.2853942904154635,0.5939049281119063,-0.6165847427917237,0.4308715473538596
-375.48162055015564,4948.0,9760.0,10632.0,221.0,-135.0,1435.0,0.21110426971764412,0.5230383768948018,-0.6804822580267227,0.46777103385426116
-375.4894664287567,5184.0,9644.0,10012.0,396.0,-218.0,1533.0,0.11644874318678654,0.4438953105658095,-0.7311909465905799,0.5047340320325873
-375.49727725982666,5096.0,9752.0,9796.0,561.0,-328.0,1791.0,-0.004987440084702892,0.345020020398518,-0.7686114002930552,0.5386769220090618
-375.5050723552704,5112.0,9684.0,10020.0,625.0,-567.0,1462.0,-0.1291538475414443,0.2704204241647024,-0.7746108529141283,0.556929173600621
-375.5128757953644,5156.0,9708.0,10168.0,454.0,-956.0,1101.0,-0.2557522740251952,0.23526643125882338,-0.7609863133314919,0.5478506288905975
-375.5206754207611,5720.0,9532.0,10500.0,203.0,-1401.0,748.0,-0.3850155644297311,0.24566818263512116,-0.7282454565516215,0.5109488371642826
-375.5284786224365,5948.0,9668.0,11212.0,-332.0,-1753.0,317.0,-0.49731185580767817,0.3109944343133294,-0.6824035160109628,0.43622106922423076
-375.53630018234253,6160.0,9120.0,12028.0,-819.0,-2020.0,220.0,-0.5930761380330412,0.4030471147923766,-0.6205718006286155,0.3173394996181717
-375.54412293434143,6204.0,9188.0,11832.0,-785.0,-2134.0,-387.0,-0.6572004951384102,0.5134379768773187,-0.5079751081895103,0.21547677960701367
-375.5519528388977,6060.0,9556.0,12160.0,-928.0,-2219.0,-762.0,-0.683352288261191,0.6271341756487059,-0.35540740180530733,0.11583589514314258
-375.55975222587585,5808.0,9804.0,12044.0,-721.0,-2329.0,-997.0,-0.6881599243542333,0.7061492586258115,-0.1648435762165483,0.02481407735806149
-375.5675573348999,5740.0,9968.0,11780.0,-330.0,-2241.0,-1129.0,-0.6812516905716486,0.7294265526858734,0.037780217114582355,-0.04904786972793558
-375.57537364959717,5808.0,9928.0,11524.0,61.0,-2208.0,-1094.0,-0.6673265017644098,0.6967273875809941,0.23317644858891226,-0.12196323733363698
-375.5831446647644,6112.0,9784.0,11396.0,384.0,-2256.0,-973.0,-0.6402758619119681,0.616113761094947,0.41015186448171426,-0.20548990754900479
-375.5909307003021,6516.0,10048.0,11200.0,615.0,-2435.0,-1006.0,-0.5881112570848569,0.4885268889897329,0.5735514407532174,-0.2941179573470328
-375.59872364997864,6788.0,10280.0,10828.0,818.0,-2693.0,-359.0,-0.48287436855189597,0.3488015531185085,0.6854005428771274,-0.41880295672483425
-375.6065146923065,7236.0,10676.0,10752.0,946.0,-2884.0,120.0,-0.3236406846009385,0.2035674830137058,0.7430378545545527,-0.5492829269415426
-375.61429357528687,7640.0,10712.0,10908.0,881.0,-2940.0,489.0,-0.12086310352260064,0.0669467798973671,0.7480984162598119,-0.6490446814032297
-375.6221125125885,7964.0,10952.0,11220.0,754.0,-2934.0,892.0,0.11261334688250901,-0.04727514330956426,0.7047908742229649,-0.6988226660183603
-375.62991309165955,8600.0,10868.0,11824.0,562.0,-2703.0,1155.0,0.3402414194959241,-0.13121336353433188,0.6275744505100009,-0.6878729088694192
-375.63771629333496,8828.0,10804.0,12432.0,365.0,-2379.0,1321.0,0.5388166132030117,-0.1856146246671732,0.5348851035489062,-0.6237962763976526
-375.64549684524536,9000.0,10808.0,12780.0,504.0,-1913.0,1502.0,0.7018131010509324,-0.19148503887969803,0.43163970254327205,-0.5333657453069796
-375.6532850265503,9156.0,10964.0,12976.0,278.0,-1481.0,1703.0,0.8254952329091092,-0.17576366465669546,0.34944795763921416,-0.4068794410296082
-375.66109347343445,9308.0,10836.0,12944.0,488.0,-1122.0,2002.0,0.9192865261557596,-0.11686970425162381,0.2760579146106764,-0.2550407474060146
-375.6689224243164,9308.0,10720.0,12708.0,721.0,-798.0,2306.0,0.9735342419939056,-0.020585255538806,0.2140600749270816,-0.07736673213963526
-375.6767272949219,9376.0,10464.0,12604.0,868.0,-527.0,2522.0,0.9749211262903263,0.09427475913882502,0.16317241670380878,0.1183884695785716
-375.68451404571533,8936.0,10144.0,12140.0,909.0,-305.0,2597.0,0.9185040339775093,0.20600853445305237,0.12149449560432875,0.3148807882951855
-375.69231033325195,8500.0,9496.0,11940.0,889.0,-385.0,2779.0,0.8040710464935624,0.3075063643365253,0.06280673216235894,0.5049404939974265
-375.70012736320496,7780.0,9224.0,11400.0,955.0,-564.0,2913.0,0.6301699462706059,0.4009379853479858,-0.012617746413728412,0.6648122766599898
-375.7079255580902,7672.0,9132.0,10772.0,864.0,-757.0,3054.0,0.4059080902097501,0.4703622333045042,-0.10644937506737294,0.7763159938651517
-375.71571469306946,7808.0,9060.0,9996.0,750.0,-333.0,2498.0,0.1977818118517546,0.48368065774520413,-0.165431768312235,0.8364016417110207
-375.7235071659088,7812.0,9000.0,9948.0,621.0,-416.0,2558.0,-0.020500688194639946,0.4751283328489335,-0.22893311819093998,0.84936589082863
-375.7313039302826,7352.0,9020.0,9580.0,590.0,-576.0,2220.0,-0.21638624539580517,0.4626208196081338,-0.2703106950200825,0.8161440425723665
-375.73911356925964,7216.0,9272.0,9256.0,466.0,-493.0,2160.0,-0.3930459951095131,0.4296522973082913,-0.30886693864634185,0.7520072894309715
-375.74690198898315,7176.0,9256.0,9100.0,362.0,-341.0,1953.0,-0.535762806033193,0.3810902054270079,-0.34124025956404286,0.6717764183504097
-375.7547299861908,7264.0,9528.0,9044.0,509.0,-220.0,1730.0,-0.6525482160533319,0.31469135474449944,-0.3540657135163712,0.5914284804495205
-375.76252579689026,7400.0,9664.0,9076.0,333.0,-137.0,1665.0,-0.7437477586875205,0.24855666821862696,-0.3705665451188307,0.49773415571973645
-375.7703104019165,7576.0,9720.0,9492.0,459.0,-32.0,1594.0,-0.8155482903994834,0.1667822114795051,-0.3790074343240194,0.4042499779685953
-375.7780919075012,7596.0,9700.0,9876.0,566.0,25.0,1514.0,-0.8678608634343257,0.07469626470084667,-0.37892204398694324,0.31249971894311335
-375.7858798503876,7548.0,9500.0,10240.0,623.0,79.0,1460.0,-0.9005880405636921,-0.02282001480218543,-0.3736568355615136,0.22090947774197803
-375.793657541275,7596.0,9352.0,10640.0,551.0,33.0,1444.0,-0.9180133956932993,-0.11294063121848406,-0.35927990511238556,0.12415220066540843
-375.80144691467285,7764.0,9028.0,10812.0,580.0,-80.0,1443.0,-0.9220273260410498,-0.20203303007166437,-0.32910241513654426,0.02720046221937641
-375.8092381954193,7912.0,8888.0,10672.0,647.0,-223.0,1393.0,-0.9120466715647653,-0.2910066903021525,-0.282230919789888,-0.06190058967065098
-375.8170199394226,8152.0,8672.0,10640.0,853.0,-404.0,1421.0,-0.8829483191873028,-0.3918261484502969,-0.21594468819072005,-0.14227588227502017
-375.8248088359833,8068.0,8584.0,10436.0,1080.0,-488.0,1427.0,-0.8267413896212509,-0.5014793715063358,-0.14084909366160622,-0.21255269336199356
-375.8325970172882,8012.0,8688.0,10204.0,1024.0,-472.0,1425.0,-0.751918879269684,-0.5941425104701685,-0.062408171796575346,-0.2787792968336012
-375.8403766155243,7936.0,8764.0,10020.0,1454.0,-487.0,1491.0,-0.6320396935645748,-0.6973660498821628,0.011437692222864207,-0.3377507918971657
-375.84816789627075,7852.0,9064.0,9964.0,1625.0,-507.0,1565.0,-0.47696962420594613,-0.7844602054291115,0.0850853915095229,-0.3871467936514851
-375.8560576438904,7384.0,9312.0,9548.0,1561.0,-569.0,1731.0,-0.30094923050876465,-0.8375683013005516,0.17082888109148447,-0.4227604459948001
-375.86385011672974,7260.0,9408.0,9668.0,1842.0,-516.0,1964.0,-0.08384967697208377,-0.8516214748799291,0.25282369848385533,-0.4514313598765112
-375.8716275691986,7384.0,9336.0,9724.0,1874.0,-610.0,2158.0,0.1491012010859427,-0.8156143044602056,0.3331529602078728,-0.4489445882281642
-375.87941575050354,7600.0,9216.0,9568.0,1915.0,-711.0,2335.0,0.3837524878286258,-0.7245507421183818,0.400620700198736,-0.40897836709698554
-375.88721919059753,7968.0,9128.0,9636.0,1936.0,-828.0,2428.0,0.5987137615215831,-0.5818830286771315,0.4402860754771422,-0.3303061374590875
-375.8949954509735,7940.0,8980.0,9856.0,1959.0,-988.0,2516.0,0.7764713212797337,-0.39484081447368014,0.44153444420917287,-0.2150357017631314
-375.9028000831604,8352.0,9016.0,10000.0,2092.0,-1101.0,2548.0,0.8984490936710928,-0.16788480938574157,0.3974678234740765,-0.08138332852547554
-375.91059017181396,8460.0,9020.0,10084.0,2243.0,-1134.0,2673.0,0.9425370100289232,0.08839284778477127,0.3158046065243976,0.0638603138436255
-375.9183859825134,8664.0,9160.0,10080.0,2386.0,-1058.0,2743.0,0.8906238954201072,0.34780377993044825,0.20951755275563064,0.2047535168442725
-375.9262025356293,9024.0,9172.0,10144.0,2515.0,-836.0,2795.0,0.7389492597585279,0.5776122728786175,0.0989151615748209,0.332466305861133
-375.93400144577026,9312.0,9264.0,9868.0,2679.0,-548.0,2791.0,0.4994168956615994,0.7479901258471839,0.00040026781178128265,0.43714228318537646
-375.9417886734009,9632.0,9112.0,9964.0,2835.0,-467.0,2825.0,0.19492876395043904,0.8390164321442466,-0.09079423021920432,0.4998105754539363
-375.94959020614624,9836.0,9276.0,9660.0,2973.0,-331.0,2965.0,-0.1451978194698769,0.8264153900256487,-0.17253945967919576,0.5159315179396964
-375.95745515823364,9468.0,8764.0,9212.0,2725.0,-44.0,2728.0,-0.44093190326787407,0.7134178225993257,-0.23313583211079236,0.4922009252980083
-375.9652416706085,9432.0,9556.0,9512.0,2926.0,-245.0,2840.0,-0.7065656659029388,0.5213508314701295,-0.2588036809647042,0.4024660544836808
-375.97315073013306,9780.0,9896.0,9528.0,2774.0,244.0,2868.0,-0.8762664752917679,0.26138373666309395,-0.28966196944956546,0.28272168283026833
-375.9809546470642,9956.0,9936.0,9584.0,2686.0,421.0,2890.0,-0.9433014357284629,-0.02610095259903583,-0.30363077216649764,0.13156555711742965
-375.98877596855164,10032.0,9728.0,10048.0,2529.0,671.0,2901.0,-0.9021130431977086,-0.3019487545537414,-0.3056991853161651,-0.03958554045414124
-375.9965617656708,10236.0,9932.0,10056.0,2455.0,942.0,2835.0,-0.7603748370187758,-0.5378897323057343,-0.29693080667762073,-0.2105631476648106
-376.0043303966522,10404.0,9852.0,10116.0,2448.0,1148.0,3070.0,-0.5267237749125624,-0.7146137383943726,-0.2578397511025149,-0.3813239208222752
-376.01215076446533,10484.0,9772.0,10204.0,2513.0,1234.0,2765.0,-0.23664375101166496,-0.8050723038140504,-0.21341257451056403,-0.5003132956252903
-376.0199337005615,10516.0,9644.0,10148.0,2634.0,1323.0,2697.0,0.08576515298282754,-0.8043520773797872,-0.15695303502873928,-0.5665931688115557
-376.0277171134949,10320.0,9468.0,10132.0,2781.0,1346.0,2773.0,0.41044214129743345,-0.70970825595071,-0.08438936910371111,-0.5663301814885526
-376.0355124473572,10120.0,9352.0,10084.0,2962.0,1342.0,3045.0,0.7030390077637644,-0.5215428623376857,0.0054140978546444035,-0.48342515848016837
-376.0433282852173,10104.0,9456.0,10028.0,3053.0,1492.0,2819.0,0.896033806480328,-0.25173901230600815,0.0898711635796729,-0.35450537553668354
-376.0511169433594,9744.0,9612.0,9972.0,2829.0,1679.0,2567.0,0.9626196401324143,0.039222211329513645,0.17834783177265198,-0.200042739112815
-376.0589256286621,10012.0,9712.0,9780.0,2840.0,1871.0,2947.0,0.907758226441572,0.3318074896719606,0.25650757023987436,0.009091673931645181
-376.06672263145447,9968.0,9616.0,9556.0,3322.0,1958.0,2958.0,0.7046359096257505,0.6073472462810326,0.30227788637666453,0.20795585278706194
-376.0745165348053,10188.0,9612.0,9500.0,3121.0,2002.0,3047.0,0.39761669576088,0.7778358926780604,0.2954921914388619,0.3867255514089853
-376.0823087692261,10052.0,9560.0,9524.0,3119.0,2046.0,3172.0,0.023950090948137187,0.8264492024452679,0.23573071145628594,0.5107241335569233
-376.09010076522827,10036.0,9660.0,9548.0,3125.0,2151.0,3241.0,-0.35773137758562246,0.736844651317273,0.1336201376165302,0.5578833929587428
-376.0978944301605,10104.0,9784.0,9724.0,3135.0,2217.0,3309.0,-0.6825123978242109,0.5207944943084074,0.003937790711372186,0.512771308985409
-376.10567712783813,10152.0,9912.0,9924.0,3130.0,2210.0,3330.0,-0.891043162559841,0.2161712398134729,-0.1269346829792444,0.37841731433672754
-376.11347675323486,10044.0,10096.0,10156.0,3283.0,2086.0,3326.0,-0.9493510963386003,-0.13241939782904943,-0.2220853691170435,0.17853763688207658
-376.121262550354,10156.0,10008.0,10080.0,3522.0,1895.0,3243.0,-0.8414242617876144,-0.4713137026991352,-0.261282911757054,-0.03999806679022074
-376.1290395259857,10016.0,10088.0,10012.0,3770.0,1906.0,3140.0,-0.5742519451755355,-0.7388954449301497,-0.2590033425213026,-0.23913488554868464
-376.1368272304535,9592.0,9728.0,9992.0,3875.0,1901.0,3084.0,-0.19694923898854225,-0.8739763465777538,-0.21431593304276492,-0.3891593808819787
-376.14461517333984,9644.0,9824.0,9912.0,4091.0,1954.0,2987.0,0.2287327849585563,-0.8437974647608074,-0.1436739877892244,-0.46372937882031845
-376.15240716934204,9388.0,9792.0,9828.0,3591.0,1975.0,2956.0,0.5833927077576667,-0.6671481985320107,-0.02920435018363819,-0.4622913969143511
-376.16019797325134,9252.0,9864.0,9528.0,3817.0,1862.0,3048.0,0.8491851165433029,-0.3687406952523258,0.08095221864619875,-0.3692718183160296
-376.16802620887756,9332.0,9472.0,9324.0,3808.0,1832.0,3144.0,0.9632418198191133,-0.004623736015649769,0.17716586234841344,-0.2018813385015149
-376.17582726478577,9528.0,9660.0,9224.0,3789.0,1860.0,3220.0,0.900772723679656,0.35985416117729846,0.24297997474356187,0.008614803058395633
-376.1836259365082,9904.0,9696.0,9440.0,3655.0,1999.0,3268.0,0.6727911532203756,0.649087584825499,0.2723112464350582,0.2277805005675041
-376.1914119720459,9988.0,9660.0,9424.0,3548.0,2181.0,3174.0,0.3245789012996253,0.8089852611845525,0.2646315441554356,0.4125063997748387
-376.199179649353,10644.0,9792.0,9444.0,3450.0,2349.0,2998.0,-0.07409354688748859,0.8132593949688397,0.22231625925425935,0.5326300626849194
-376.20697236061096,10764.0,9776.0,9712.0,3500.0,2530.0,2925.0,-0.4619698427813948,0.6640790723256614,0.1465809369818494,0.5692950719733533
-376.21475887298584,10900.0,9848.0,9856.0,3487.0,2713.0,2602.0,-0.7558226894902754,0.3850241933492288,0.0545234122593233,0.5267975228710381
-376.222544670105,10768.0,9948.0,9844.0,3484.0,3003.0,2697.0,-0.916759611021741,0.027019839760468727,-0.06690428319054247,0.39286837585805284
-376.23033261299133,10728.0,9872.0,10144.0,3358.0,3230.0,2464.0,-0.8997059630821957,-0.3333112956735704,-0.19595992362585068,0.20256472670061587
-376.23811292648315,10156.0,9836.0,10280.0,3138.0,3392.0,2300.0,-0.7213322343844474,-0.6191336235849317,-0.30969053648092126,-0.021098232122434165
-376.24588918685913,10004.0,9840.0,10276.0,2934.0,3408.0,2095.0,-0.4284230672070438,-0.7838704011905946,-0.3820361756171657,-0.23674718613325751
-376.2536897659302,9736.0,10072.0,10268.0,2681.0,3274.0,1883.0,-0.08987076098237058,-0.8151307825088283,-0.3995542439198634,-0.4096845858616372
-376.2614743709564,9272.0,10008.0,10612.0,2473.0,3018.0,1549.0,0.23164536645063416,-0.7329061913059577,-0.37691976520836007,-0.5168369467662128
-376.2692563533783,8756.0,10540.0,10992.0,1965.0,2791.0,975.0,0.4710434333866949,-0.5723843652472665,-0.3312300799605221,-0.5837643843307881
-376.27704668045044,8396.0,11268.0,11596.0,1148.0,2577.0,91.0,0.5898614232543069,-0.38482939049958015,-0.27115803874348254,-0.6560816714319285
-376.28484058380127,7400.0,12360.0,12916.0,116.0,2502.0,-749.0,0.5947303684925185,-0.21217088752232152,-0.16987775110119505,-0.756584993878113
-376.2926323413849,6276.0,14548.0,13304.0,-683.0,2549.0,-1242.0,0.5211811706695199,-0.05880716053404402,-0.015219476266627426,-0.8512815472871719
-376.3004183769226,5608.0,17216.0,13136.0,-1452.0,2568.0,-1303.0,0.4046270401259349,0.06523055989367033,0.19488444581793393,-0.8910903350576305
-376.30821108818054,4584.0,20140.0,13152.0,-2024.0,3036.0,-1973.0,0.19851934376546593,0.18463491881407254,0.44238653622439716,-0.8548650007298403
-376.3160409927368,3604.0,21356.0,12308.0,-2176.0,3146.0,-2215.0,-0.049569078431330675,0.276317968310249,0.6482690859540143,-0.7077700749881358
-376.32384181022644,3976.0,20304.0,11296.0,-1882.0,2947.0,-2259.0,-0.29184040017769114,0.3183331891099361,0.7577664553520428,-0.4891657803632866
-376.33163046836853,5188.0,17420.0,9988.0,-1200.0,2616.0,-2383.0,-0.5070401050418727,0.2880138367588648,0.7687137374958519,-0.26274997906702685
-376.33942580223083,6560.0,13992.0,8760.0,-722.0,2220.0,-2957.0,-0.6704071463081243,0.16376314463221986,0.7232228067647352,-0.026166054622398134
-376.34721064567566,7504.0,10780.0,7688.0,72.0,1716.0,-3490.0,-0.7459505331028297,-0.053947037562022314,0.636741867289938,0.18763612056853313
-376.35504126548767,8432.0,8704.0,7976.0,1023.0,1501.0,-3747.0,-0.7173098219738837,-0.3322203392427823,0.5055822584086919,0.3456629072891284
-376.3629240989685,9500.0,7528.0,8892.0,721.0,774.0,-3905.0,-0.5779338824886062,-0.5401987879118864,0.34472904390688086,0.5053113726181337
-376.3707318305969,10676.0,6436.0,9544.0,61.0,577.0,-4267.0,-0.3785174613324973,-0.6524377756726777,0.1096851809058849,0.6473164924759244
-376.3785209655762,12048.0,6160.0,10984.0,-306.0,541.0,-4132.0,-0.15760007851668328,-0.6692613005747173,-0.15100852186882907,0.7102449951443265
-376.3862895965576,12344.0,6808.0,12748.0,-668.0,1310.0,-3589.0,0.04083574775428881,-0.6572841099922545,-0.39789587047392744,0.6387401010715028
-376.39408802986145,12136.0,7960.0,14988.0,-829.0,2676.0,-2940.0,0.2357800682092597,-0.6666511251713492,-0.5685856291738435,0.42035035272971466
-376.4018828868866,10860.0,9724.0,15780.0,-850.0,4079.0,-2589.0,0.44474934267298244,-0.6483490130374033,-0.6126754674397649,0.08043849254455802
-376.4096736907959,8688.0,12688.0,14076.0,-208.0,5550.0,-2565.0,0.6596701091548446,-0.4923479124531983,-0.4797090921927854,-0.3038224268519147
-376.4174630641937,6608.0,16336.0,12372.0,279.0,6766.0,-3508.0,0.7174638081205057,-0.1247009580564539,-0.20666743690120207,-0.6534400704132801
-376.42524552345276,5504.0,18004.0,11772.0,-64.0,7488.0,-4205.0,0.4896850643006191,0.2995603798203753,0.17591592777893997,-0.7997035094311178
-376.43302822113037,4396.0,17940.0,10888.0,-430.0,7762.0,-4711.0,0.041553164411778525,0.5881014518649086,0.5175432244811835,-0.6201282348316143
-376.4408173561096,3440.0,16944.0,10440.0,-524.0,7259.0,-4923.0,-0.41733337166537426,0.6004837651951853,0.6545794819824194,-0.19177540613710464
-376.4486150741577,2736.0,14908.0,10372.0,-1112.0,6325.0,-4840.0,-0.6559956330802366,0.38491448746260537,0.570040376671988,0.31074834783907895
-376.4564325809479,3160.0,12568.0,10396.0,-1399.0,4766.0,-4343.0,-0.631121004517057,0.10355187705124995,0.35100789794546006,0.683927439131121
-376.4642267227173,3436.0,11028.0,10128.0,-1387.0,3732.0,-3585.0,-0.4699764869286034,-0.13851561987726607,0.08617180552149159,0.86747331066577
-376.4720754623413,3516.0,9704.0,9956.0,-1250.0,2958.0,-3114.0,-0.2530649953087303,-0.3116550304465499,-0.155662057457807,0.9025511475892958
-376.47990918159485,3664.0,8760.0,10096.0,-1046.0,2809.0,-3038.0,-0.0038448981191763626,-0.43901336518657647,-0.3584884691101868,0.8238558729905646
-376.4877016544342,3808.0,8352.0,10196.0,-802.0,2472.0,-2545.0,0.21519426773097947,-0.5116542841922521,-0.4903080015258399,0.6719370388981235
-376.4955232143402,3696.0,8264.0,10356.0,-568.0,2594.0,-2463.0,0.424626091207639,-0.5425499687423198,-0.5576536727736696,0.46298444393463883
-376.5033550262451,3884.0,8308.0,10264.0,-426.0,2875.0,-2459.0,0.6109832761781474,-0.5264722100144428,-0.5549017557292145,0.20398649416508208
-376.5111508369446,4060.0,8592.0,10472.0,-260.0,2996.0,-2446.0,0.7462090182960149,-0.45005591723534794,-0.485110293895779,-0.07273084030518466
-376.51895356178284,4140.0,8772.0,10492.0,-160.0,2999.0,-2455.0,0.8063994128572829,-0.3195179613392851,-0.36481953474056983,-0.3384301499522328
-376.5267412662506,4100.0,9604.0,10420.0,-100.0,2941.0,-2477.0,0.7812234627763904,-0.15222300462039168,-0.21229102795404872,-0.566966116732049
-376.53452801704407,3960.0,10092.0,10764.0,2.0,2705.0,-2383.0,0.6805046969099641,0.02498286363924082,-0.057000268910578446,-0.7300960096809067
-376.5422987937927,3948.0,10540.0,10940.0,-42.0,2644.0,-2331.0,0.5211405275513158,0.19370518617846605,0.10271605277725938,-0.8248274146104514
-376.5501112937927,3600.0,11088.0,11028.0,-80.0,2478.0,-2186.0,0.3295682632235991,0.33518066654833273,0.24773927753568295,-0.8471504771964031
-376.55794644355774,3672.0,11972.0,11276.0,-70.0,2524.0,-1917.0,0.13047954109855495,0.4609941465623486,0.36759486386503704,-0.797078102979882
-376.56576013565063,3844.0,11856.0,11172.0,-56.0,2705.0,-1726.0,-0.07134914526136249,0.571170388288453,0.4541647474117226,-0.6800059332250984
-376.5735893249512,3972.0,11596.0,11128.0,-74.0,2954.0,-1547.0,-0.26555752753660383,0.6583025505844072,0.496622436282606,-0.49948283978875446
-376.58142280578613,3904.0,11344.0,11040.0,-43.0,3312.0,-1478.0,-0.44915092528955974,0.7051234262737787,0.4830070824846163,-0.2603239487660674
-376.5892162322998,3696.0,11076.0,10956.0,-37.0,3180.0,-1410.0,-0.5865785345485731,0.6883215077492638,0.42671350724178675,-0.00739645280133212
-376.5970208644867,3456.0,11072.0,10292.0,34.0,3266.0,-1439.0,-0.6790457837709866,0.6062804105997706,0.33027092153925525,0.2494834777123154
-376.60481357574463,3204.0,11004.0,9736.0,-13.0,3259.0,-1382.0,-0.7091505850089529,0.4740009507286283,0.20061607062510228,0.48185240343569974
-376.6126024723053,3304.0,10988.0,9676.0,34.0,3222.0,-1408.0,-0.6765939817466978,0.29782307594722585,0.058255778145983546,0.6709159884889374
-376.62040162086487,2928.0,10908.0,9460.0,24.0,3322.0,-1392.0,-0.5843739083648529,0.09023034159128134,-0.09553204475801294,0.8007741561158553
-376.62818813323975,2808.0,10876.0,9600.0,-63.0,3069.0,-1445.0,-0.4385035168846385,-0.10463600828328445,-0.23472036577261743,0.8612039951962094
-376.63599133491516,2800.0,11016.0,9792.0,-125.0,2523.0,-1414.0,-0.2731599392122662,-0.2526180219196149,-0.3425587124578955,0.8626826247990397
-376.643762588501,2472.0,11232.0,9820.0,-225.0,2215.0,-1368.0,-0.1062265869754076,-0.36378864055633325,-0.43121377886178175,0.8187969309550893
-376.6515591144562,2448.0,11432.0,9968.0,-326.0,1875.0,-1406.0,0.05331289945102434,-0.432704975472701,-0.505753546529121,0.7444041168119037
-376.6593964099884,2676.0,11464.0,10412.0,-472.0,1587.0,-1470.0,0.19739871607135662,-0.46451250301728414,-0.5738730468608864,0.6449275986656182
-376.6671848297119,2904.0,11768.0,10588.0,-478.0,1327.0,-1312.0,0.31395823311210597,-0.47504128968294423,-0.622340487796409,0.5370831576272125
-376.6749801635742,3080.0,11600.0,10764.0,-280.0,1100.0,-1644.0,0.432685104080809,-0.4383314197936245,-0.6634578173235626,0.4248210114395695
-376.68276143074036,3168.0,11652.0,11020.0,-523.0,904.0,-1631.0,0.5182118880818127,-0.3915515335565918,-0.7011482845667876,0.29416818092583524
-376.6905472278595,3252.0,11684.0,11464.0,-446.0,1021.0,-1659.0,0.5990748601700273,-0.33134584605890954,-0.7123397444020695,0.15456820745859012
-376.69833636283875,3388.0,11648.0,11316.0,-371.0,652.0,-1626.0,0.6430837052567253,-0.2552624930607682,-0.7214868000422464,0.027225080982102745
-376.7061321735382,3436.0,11536.0,11136.0,-193.0,681.0,-1613.0,0.6776059696542649,-0.16411057326752793,-0.7112497622572563,-0.08967522132508632
-376.71391582489014,3336.0,11272.0,10896.0,-95.0,668.0,-1671.0,0.6961340803511685,-0.05991687478624824,-0.6864152258886451,-0.2015972419397696
-376.7217094898224,3268.0,10920.0,10668.0,-238.0,690.0,-1772.0,0.6954323952091058,0.043438431055746254,-0.6405541454950381,-0.3227650431664849
-376.72951316833496,3208.0,10728.0,10536.0,182.0,812.0,-1749.0,0.681235992950257,0.17279862811018987,-0.5813579186462802,-0.4099769828412061
-376.7373077869415,3000.0,10620.0,10684.0,264.0,855.0,-1603.0,0.6549650283253325,0.2966960185598576,-0.5091046655887317,-0.4730800394408021
-376.7451071739197,2904.0,10672.0,10696.0,293.0,936.0,-1425.0,0.6231424366944984,0.4107122220788886,-0.4257843289074571,-0.5115825246060417
-376.7529339790344,2824.0,10996.0,10948.0,273.0,997.0,-1531.0,0.5747416649475019,0.5201215298931021,-0.32457034605994256,-0.5420329355062857
-376.76081371307373,3264.0,11216.0,11052.0,112.0,1017.0,-1076.0,0.5431652606667382,0.5991628019838101,-0.22810006284220807,-0.5421676840748855
-376.76860880851746,3404.0,11544.0,11320.0,10.0,1093.0,-894.0,0.5183233295699757,0.6639914734740424,-0.12907552139157566,-0.5232549655328242
-376.77641129493713,3328.0,12248.0,11436.0,-67.0,1024.0,-848.0,0.4918511492416452,0.7123737446008712,-0.030410897366534625,-0.4996811706622211
-376.78420662879944,3424.0,12592.0,11572.0,-83.0,999.0,-894.0,0.45767995487042135,0.7495346767138584,0.0711176114568292,-0.4729366899003885
-376.7920491695404,3092.0,12764.0,11428.0,-60.0,991.0,-931.0,0.41424411452321697,0.776746044057448,0.17279896981680212,-0.4418233953224219
-376.79985427856445,3264.0,12700.0,11456.0,71.0,1006.0,-920.0,0.3563801254310704,0.7985500571994899,0.2668536728044139,-0.4050927420421413
-376.8076608181,3104.0,12380.0,11436.0,191.0,900.0,-958.0,0.2864204990362213,0.80856765303437,0.35245627768518895,-0.3741072313102669
-376.8154921531677,3016.0,11808.0,11220.0,367.0,782.0,-974.0,0.20343850707850644,0.8081097436797343,0.42598343978001574,-0.3522918180155882
-376.82329416275024,2996.0,11608.0,11248.0,569.0,702.0,-1258.0,0.09770097876640317,0.7858800413115962,0.5050688892300673,-0.34315083643796734
-376.83108401298523,3112.0,11448.0,11092.0,580.0,524.0,-978.0,0.005539533167620778,0.7588967834319023,0.5559292599344725,-0.3390982801750948
-376.8388829231262,3200.0,11368.0,11088.0,592.0,360.0,-929.0,-0.07820875742954242,0.7210867696130023,0.59706612154258,-0.3426795988332445
-376.84670758247375,3432.0,11332.0,11168.0,524.0,306.0,-896.0,-0.15323966063918465,0.6769575714958879,0.632881260511246,-0.34308506655824267
-376.8544952869415,3560.0,11568.0,11088.0,466.0,188.0,-841.0,-0.2155573937487231,0.627604034858286,0.6636860741773893,-0.3452086041408329
-376.8623237609863,3744.0,11752.0,11136.0,460.0,81.0,-528.0,-0.2608763735360499,0.5896803325446831,0.6759503703258792,-0.3568076792853236
-376.87011337280273,4092.0,11572.0,11272.0,470.0,45.0,-795.0,-0.3114933282651302,0.5317284513401691,0.6989376347386189,-0.3629365553752912
-376.87790036201477,3928.0,11872.0,11368.0,432.0,33.0,-843.0,-0.35906995041813994,0.46797553036634054,0.7210182187199922,-0.36359373201267653
-376.88567996025085,3968.0,11776.0,11256.0,463.0,95.0,-860.0,-0.4098006523119024,0.40085320917430256,0.7357779393581232,-0.3605703177097582
-376.8934693336487,3864.0,11916.0,11236.0,263.0,156.0,-901.0,-0.4558661649249223,0.3372855066988142,0.750851371093388,-0.3385952527351012
-376.9012441635132,3872.0,11912.0,11460.0,536.0,255.0,-882.0,-0.5122922365937373,0.2644984720634004,0.7475991787945296,-0.32968574501736864
-376.9090383052826,3680.0,11808.0,11072.0,588.0,311.0,-841.0,-0.5679580446107256,0.19137346163997673,0.73295350402523,-0.3218369442420034
-376.9168255329132,3428.0,11644.0,10968.0,648.0,280.0,-878.0,-0.6184626019788692,0.1103331181335985,0.7120532085627116,-0.3135455966394554
-376.92461252212524,3448.0,11684.0,10920.0,688.0,271.0,-896.0,-0.6631448387329297,0.02470498858601891,0.6836497454555505,-0.30372950455858333
-376.93240451812744,3388.0,11664.0,11248.0,688.0,185.0,-856.0,-0.6951824783963961,-0.061101510017811986,0.6533758835717194,-0.29340736522974736
-376.94020104408264,3428.0,11664.0,11064.0,650.0,174.0,-850.0,-0.7202914691126182,-0.14401670855844717,0.6187586964992181,-0.27852659242191935
-376.94803380966187,3412.0,11788.0,11072.0,557.0,61.0,-839.0,-0.7342440628407921,-0.22209891975025495,0.5884216297222435,-0.2555733000605417
-376.9558389186859,3576.0,11928.0,11332.0,499.0,31.0,-740.0,-0.7405317117101876,-0.29059071661045716,0.5591078213492456,-0.23359850915085248
-376.96364641189575,3656.0,11788.0,11300.0,487.0,57.0,-686.0,-0.7430493235524844,-0.35348658413613326,0.5265041491202894,-0.21381842428351142
-376.9714877605438,3660.0,12028.0,11256.0,409.0,84.0,-656.0,-0.7449327484794828,-0.4076911536348049,0.4918782178126255,-0.1921430257183453
-376.97927832603455,3628.0,12152.0,11268.0,369.0,121.0,-650.0,-0.7463855494992646,-0.45657823045334367,0.4535265854248042,-0.16958351124944912
-376.98707604408264,3548.0,12212.0,11220.0,365.0,189.0,-650.0,-0.747378821538397,-0.5021476062796585,0.4088124230415798,-0.14881223535166282
-376.99486923217773,3432.0,12160.0,11260.0,385.0,225.0,-590.0,-0.7447688667677554,-0.5442196566410417,0.3623537229692951,-0.133581734789122
-377.0026960372925,3424.0,12068.0,11200.0,380.0,271.0,-544.0,-0.7403115877493555,-0.5817620224072358,0.31370017418684926,-0.12281654222380511
-377.0104863643646,3504.0,11980.0,11072.0,308.0,356.0,-486.0,-0.7384733310711068,-0.6099982620249311,0.26212795007650513,-0.11767836424762285
-377.0182821750641,3540.0,12024.0,11156.0,272.0,369.0,-444.0,-0.7359868490753594,-0.6328037339642679,0.21147282119205152,-0.11472592630298835
-377.0260581970215,3444.0,11680.0,11180.0,228.0,389.0,-369.0,-0.7334557426086075,-0.6493976369252703,0.16352487152174655,-0.11655470468465473
-377.0338649749756,3244.0,11676.0,11100.0,235.0,412.0,-355.0,-0.7287891291100693,-0.6642925035380889,0.11442038461739766,-0.12037379539622203
-377.04165267944336,3144.0,11544.0,11052.0,180.0,411.0,-386.0,-0.7256796824295142,-0.6742369887989063,0.06387829974085303,-0.12129733825027089
-377.04945635795593,3312.0,11408.0,11056.0,141.0,446.0,-336.0,-0.7226463825401614,-0.6793155241522654,0.014330994330070925,-0.1269143295647228
-377.0572431087494,3024.0,11268.0,11212.0,95.0,446.0,-388.0,-0.7210166881533582,-0.6797796473667453,-0.037802555359452636,-0.1288624586084005
-377.06503105163574,3060.0,11272.0,10860.0,113.0,377.0,-372.0,-0.7165814050760615,-0.6805223000275835,-0.08474788282747966,-0.12735103227161051
-377.0728259086609,3300.0,11080.0,10968.0,63.0,346.0,-432.0,-0.7143634155559234,-0.6764892208312862,-0.13254210272574635,-0.12033218862545396
-377.080619096756,3040.0,11416.0,10752.0,246.0,243.0,-372.0,-0.7003713861906592,-0.684178585064737,-0.17200668597284066,-0.10859689279546342
-377.0883958339691,3036.0,11492.0,11116.0,-62.0,187.0,-391.0,-0.7045798901821672,-0.6721411888682429,-0.20597435593680846,-0.0967882496695096
-377.09618735313416,2976.0,11712.0,11228.0,-103.0,123.0,-419.0,-0.7115252708373331,-0.656625192393205,-0.23698001382696737,-0.08009755752216685
-377.104017496109,2960.0,11964.0,11032.0,-103.0,75.0,-432.0,-0.7184600070381104,-0.6401775620604367,-0.26536844838320717,-0.05972850177128968
-377.1117994785309,2964.0,12236.0,11232.0,-52.0,114.0,-446.0,-0.7205778422511967,-0.6253960360381522,-0.2968102206635553,-0.039383553344351015
-377.11958742141724,2804.0,12272.0,11252.0,-50.0,164.0,-450.0,-0.7200852477419505,-0.6094182582607615,-0.33110263999220824,-0.021393089375404073
-377.1273686885834,2768.0,12172.0,11424.0,21.0,228.0,-400.0,-0.7126641525086981,-0.5982083801299449,-0.36632621790395664,-0.007851225862861461
-377.13513565063477,2776.0,12096.0,11168.0,85.0,206.0,-372.0,-0.7015049110267914,-0.5909902596663968,-0.39820863621404795,0.007159247815688956
-377.1429238319397,2804.0,11976.0,10764.0,52.0,276.0,-325.0,-0.6886539553548027,-0.582606066814886,-0.43141018114247065,0.01453121781869685
-377.15070128440857,2792.0,11576.0,11068.0,22.0,221.0,-511.0,-0.6778756087549563,-0.5642705855345037,-0.46997693845271626,0.03471372463820996
-377.1585154533386,2688.0,11432.0,11052.0,-22.0,177.0,-160.0,-0.6711748005714103,-0.5567993617163057,-0.4881706022125206,0.03447203222478939
-377.1663374900818,2324.0,11284.0,11000.0,-97.0,88.0,-81.0,-0.6719423103530752,-0.547860882210609,-0.4973911489306965,0.030725075527761783
-377.17413687705994,2400.0,11268.0,11056.0,-139.0,-22.0,234.0,-0.6800825516214131,-0.54963362206948,-0.48502391226890473,0.011933524134050248
-377.18193531036377,2448.0,11044.0,10920.0,-243.0,-140.0,-42.0,-0.6975140223425559,-0.5330987490341808,-0.47871068951466594,0.010769779853510856
-377.1897249221802,2396.0,11448.0,10968.0,-326.0,-229.0,-59.0,-0.7218531942717028,-0.5102344999036638,-0.4673980942542638,0.01130232344606016
-377.19756293296814,2484.0,11648.0,11012.0,-341.0,-296.0,-19.0,-0.748614633213107,-0.4872864811644987,-0.4494350047664177,0.011670162986702887
-377.20533871650696,2352.0,11984.0,11164.0,-377.0,-454.0,-20.0,-0.7814983849605639,-0.46078063516198875,-0.4202849572496231,0.017379162046171903
-377.2131447792053,2052.0,12140.0,11284.0,-346.0,-543.0,-10.0,-0.8141264576673325,-0.43529319212113504,-0.3833867822578921,0.027065162275024437
-377.22096133232117,2372.0,12200.0,11396.0,-364.0,-656.0,-47.0,-0.8480594913405158,-0.40543377387192614,-0.3384874580978611,0.042951075209852675
-377.22879552841187,2400.0,12260.0,11388.0,-289.0,-702.0,247.0,-0.8778949953242718,-0.38778133668438064,-0.2779649702249461,0.040761347275530324
-377.23658442497253,2360.0,12528.0,11344.0,-209.0,-768.0,-42.0,-0.9013310590192953,-0.36716107624849564,-0.22049622063226768,0.06462571331976431
-377.2443826198578,2296.0,12160.0,11236.0,-215.0,-1023.0,-31.0,-0.9239294595654727,-0.342504612177495,-0.14136381900833206,0.095190414746322
-377.25216794013977,2252.0,12016.0,11108.0,-178.0,-788.0,55.0,-0.9371013702376788,-0.32156602255691524,-0.07717651890510355,0.11171436776565705
-377.2600314617157,2232.0,11784.0,11052.0,-176.0,-791.0,96.0,-0.9458876381966969,-0.2994719261392728,-0.011201207023565913,0.12444948502233395
-377.26782870292664,2216.0,11592.0,11124.0,-214.0,-857.0,88.0,-0.9503742744521584,-0.2719465758559597,0.059575947234413715,0.1388686604345083
-377.27562260627747,2072.0,11488.0,11180.0,-262.0,-872.0,128.0,-0.9504797974838474,-0.23846795655362657,0.1314701435297041,0.14978915058334988
-377.28341031074524,1960.0,11536.0,10820.0,-317.0,-915.0,185.0,-0.9454376059746035,-0.19765872270353305,0.20631176980201035,0.15657016379048963
-377.2912006378174,1952.0,11660.0,11224.0,-329.0,-1022.0,14.0,-0.9287991251817619,-0.1559159386912122,0.28503458861160874,0.1782629754566073
-377.2989845275879,2052.0,11968.0,11040.0,-373.0,-1123.0,263.0,-0.9049796778266946,-0.10139034430705265,0.37163653903502375,0.18060471659416458
-377.30678057670593,1900.0,12136.0,11160.0,-391.0,-1190.0,501.0,-0.8717566387992672,-0.03550580861000334,0.460576350469222,0.16324559918358
-377.31457257270813,2108.0,12176.0,11168.0,-437.0,-1187.0,260.0,-0.8239438354556345,0.024742867153352718,0.5419168761895293,0.16380001782866824
-377.32235836982727,2172.0,12184.0,11248.0,-768.0,-1170.0,284.0,-0.7651569662254987,0.10912295786310829,0.6096491141464684,0.17594020212624442
-377.3301465511322,2136.0,12256.0,11280.0,-542.0,-1155.0,218.0,-0.6975145576321977,0.17341721114185676,0.6720430784249989,0.17820778185026334
-377.3379352092743,2104.0,11884.0,11180.0,-531.0,-1120.0,187.0,-0.6230339711348166,0.2326399289916986,0.7247667848912841,0.18005677373836515
-377.3457088470459,1892.0,11700.0,11076.0,-584.0,-1113.0,165.0,-0.5401165734579392,0.2904724742200181,0.7680446696625468,0.18441045035329423
-377.3535268306732,1972.0,11536.0,11160.0,-595.0,-1140.0,146.0,-0.44814881322455585,0.3444062052889904,0.8033800503592715,0.18742332205089687
-377.3613464832306,1820.0,11448.0,11068.0,-638.0,-1125.0,161.0,-0.3504814390886696,0.3964521591229193,0.8267651871274054,0.19091299519754215
-377.36915373802185,1696.0,11324.0,11056.0,-639.0,-1203.0,183.0,-0.24287427884016605,0.44602078125253675,0.840553033227943,0.18854215894608428
-377.3769516944885,1620.0,11404.0,11180.0,-671.0,-1325.0,199.0,-0.12176953477612683,0.4924334873593158,0.842670009628959,0.1805233940504062
-377.3847744464874,1668.0,11424.0,11228.0,-614.0,-1436.0,368.0,0.004426725917763417,0.5433374551539986,0.8243871039375952,0.15858977516161063
-377.3925585746765,1664.0,11408.0,10872.0,-560.0,-1489.0,431.0,0.13085973059438583,0.5886772996877182,0.7874978502779187,0.12720811117533998
-377.4003527164459,1888.0,11360.0,10760.0,-538.0,-1628.0,477.0,0.2620296760780768,0.6258833671631835,0.7296425510011253,0.08504238549960905
-377.4081346988678,1988.0,11284.0,11044.0,-544.0,-1637.0,548.0,0.3872105323929167,0.6523935198372265,0.6501217469287682,0.04233689937483698
-377.4159278869629,1952.0,11308.0,11160.0,-529.0,-1694.0,574.0,0.5047850703429074,0.664579872929539,0.5509125387847623,-0.004582561029770377
-377.42372941970825,1876.0,11444.0,11172.0,-610.0,-1704.0,666.0,0.6138399083909476,0.6597322637225339,0.431290986046457,-0.04406804312888242
-377.4315218925476,1988.0,11280.0,11296.0,-633.0,-1686.0,675.0,0.7065753978389284,0.6357890043366633,0.30021148110687973,-0.07997884560912433
-377.4393403530121,1952.0,11612.0,11328.0,-635.0,-1654.0,699.0,0.7794424469941658,0.5951404569278447,0.16149682012087882,-0.11043588838012816
-377.4471278190613,1892.0,11636.0,11400.0,-657.0,-1657.0,739.0,0.8324259636679547,0.537191072444713,0.016336213180109617,-0.13500331416713396
-377.45491099357605,1900.0,11524.0,11348.0,-629.0,-1684.0,767.0,0.8610113173916961,0.4658263120207792,-0.13277764227130082,-0.15503372557417916
-377.4627649784088,1896.0,11492.0,11320.0,-565.0,-1725.0,864.0,0.8626111386176998,0.3839199104699786,-0.28552182050642516,-0.1642705569847985
-377.47058844566345,1956.0,11356.0,11244.0,-461.0,-1787.0,869.0,0.8329899921684274,0.2972242274115808,-0.4355074534919208,-0.1676862830997653
-377.4784290790558,1976.0,11240.0,11200.0,-407.0,-1891.0,918.0,0.7718427286518993,0.20162873575519938,-0.5806100317846481,-0.16277790432359246
-377.48624539375305,1988.0,11064.0,11168.0,-314.0,-1920.0,971.0,0.6817935843665578,0.1022343776049383,-0.7097858257611052,-0.1446019429363196
-377.4940962791443,2040.0,11052.0,11172.0,-270.0,-1944.0,1052.0,0.5665314319918127,-0.003418845665225904,-0.8161031607162971,-0.1140441981360448
-377.50190830230713,2148.0,10924.0,11020.0,-229.0,-2000.0,1232.0,0.42735749308361237,-0.11985114424251056,-0.8935565346989652,-0.06751292932341446
-377.50970673561096,2204.0,11128.0,11192.0,-165.0,-2025.0,1309.0,0.2695201814240503,-0.23484055972936393,-0.9338652367142677,-0.010222669306533084
-377.5175120830536,2324.0,11124.0,11212.0,-194.0,-1994.0,1442.0,0.10197027771302834,-0.35067218330415023,-0.9297123022001563,0.047603754657729695
-377.5253086090088,2440.0,11252.0,11052.0,-176.0,-1983.0,1285.0,-0.06824719126014894,-0.43899198159820585,-0.8899296080590445,0.10321653780987065
-377.5331139564514,2472.0,11028.0,11296.0,-127.0,-2011.0,1666.0,-0.23825019185565807,-0.5357693242441705,-0.794809063571316,0.15641812473167765
-377.5409371852875,2340.0,11280.0,11292.0,-108.0,-2001.0,1710.0,-0.3952234432334595,-0.6089561392838359,-0.6575047496655699,0.20163916909774748
-377.54877281188965,2408.0,11080.0,11092.0,-144.0,-1992.0,1814.0,-0.5345910370455512,-0.6551108869770497,-0.481650885739186,0.23033578345833025
-377.55656480789185,2472.0,11244.0,11072.0,-120.0,-1793.0,1830.0,-0.6379353925270514,-0.6736897119222389,-0.2885077469749342,0.23652460114528184
-377.56440782546997,2508.0,10780.0,11148.0,-26.0,-2067.0,1929.0,-0.7101386646646024,-0.658311742859504,-0.058634457532693314,0.24267411594874358
-377.5722017288208,2484.0,10644.0,11156.0,-78.0,-2101.0,1964.0,-0.7439812728295392,-0.6002418378449762,0.17738888748187986,0.23395466308104415
-377.58003878593445,2508.0,10532.0,11276.0,52.0,-2099.0,2024.0,-0.7270262021892292,-0.5128846236144976,0.40779873941458933,0.20514007975525622
-377.5878264904022,2508.0,10688.0,11388.0,75.0,-2090.0,1984.0,-0.6642269752348527,-0.3971248363730632,0.6114355669554792,0.1650482873823832
-377.59562945365906,2392.0,10980.0,11588.0,225.0,-2089.0,2040.0,-0.5565507213716753,-0.26273788911610885,0.7812939997467035,0.10392200018897524
-377.60342383384705,2368.0,11124.0,11640.0,420.0,-2049.0,2062.0,-0.4126393495476088,-0.12006587012704314,0.902691164021021,0.02148526085335069
-377.6112198829651,2560.0,11288.0,11792.0,583.0,-2133.0,2120.0,-0.23427475306449286,0.02894590704766012,0.9687839306698659,-0.07573090662076683
-377.6190011501312,2736.0,11308.0,11924.0,747.0,-2178.0,2155.0,-0.036414914800267685,0.17499362719347558,0.9669785820005992,-0.18166894719205792
-377.6267795562744,2996.0,11272.0,12052.0,960.0,-2337.0,2273.0,0.1747036938440447,0.3132548554409783,0.8862928309473675,-0.2929761640666337
-377.6345522403717,3112.0,11348.0,11920.0,1237.0,-2467.0,2460.0,0.3756147099141096,0.43716023800092735,0.7135146062990411,-0.39837347126162415
-377.64234232902527,3096.0,11332.0,11820.0,1462.0,-2718.0,2804.0,0.5513005267899093,0.5311351248734533,0.438350377150654,-0.4709693781327075
-377.6501269340515,3492.0,11596.0,11924.0,1705.0,-2829.0,2676.0,0.6474566029497175,0.5618036987643107,0.10117715388772941,-0.5049155720343056
-377.6579189300537,3544.0,11660.0,11988.0,1883.0,-2961.0,2807.0,0.6563820269329286,0.5235457890823423,-0.26713492537574735,-0.4729707951851378
-377.6657021045685,3996.0,11692.0,12232.0,2086.0,-3054.0,2875.0,0.5633863713219877,0.4162916392273045,-0.6105592262675446,-0.369478685363127
-377.67350220680237,4264.0,11708.0,12756.0,2249.0,-3117.0,2912.0,0.37750318507993863,0.24987859985554242,-0.8683463540194436,-0.20255033954519663
-377.6812996864319,4684.0,11892.0,13048.0,2437.0,-3143.0,2947.0,0.12695627843474994,0.04703002918833938,-0.990744532621916,0.0097750089679584
-377.68908071517944,4968.0,11392.0,13188.0,2313.0,-3211.0,2881.0,-0.14958083060680077,-0.15978422705562004,-0.9528582688814463,0.2101325660707335
-377.6968688964844,5476.0,12008.0,13320.0,2755.0,-3185.0,3152.0,-0.39432282483243736,-0.3630765577586242,-0.7422607568790949,0.40216152453906984
-377.7046616077423,5872.0,12040.0,13236.0,2771.0,-3466.0,3108.0,-0.5787741699609549,-0.48650295504717844,-0.3861115310827825,0.5284441507683476
-377.71246314048767,6104.0,12416.0,13172.0,2756.0,-3610.0,3581.0,-0.66831220911941,-0.5176264904392117,0.0674970072126116,0.5299676985957344
-377.7202594280243,6060.0,12840.0,12864.0,2680.0,-3657.0,3790.0,-0.6230783854623165,-0.4286229341613585,0.5120486184370175,0.4072614863172336
-377.7281267642975,6160.0,13232.0,13040.0,2465.0,-3367.0,3956.0,-0.4657630381030854,-0.2377966629019398,0.831848843908118,0.18586296117950066
-377.7359211444855,6260.0,13748.0,13020.0,1978.0,-2947.0,3980.0,-0.24966701179069273,0.016856129607794083,0.9667400608361407,-0.052876354759818965
-377.74372482299805,6352.0,13944.0,12868.0,1549.0,-2592.0,4054.0,-0.013315707934863011,0.2865800814428535,0.924158174300092,-0.2522423789071169
-377.7515170574188,6168.0,14408.0,12364.0,958.0,-2215.0,4203.0,0.21546186839408826,0.5302663250626958,0.7372394556977141,-0.3589871762823432
-377.75934767723083,6316.0,14448.0,12192.0,266.0,-1963.0,4280.0,0.4287352980925541,0.6927909839931994,0.45665141924994934,-0.35734601993618226
-377.76716923713684,6312.0,14664.0,11684.0,-332.0,-1817.0,4200.0,0.6055665453851333,0.7343660368285712,0.1345400467772405,-0.2754898525829777
-377.7749719619751,6608.0,14948.0,11248.0,-516.0,-1702.0,3867.0,0.7046484572372997,0.666928062391751,-0.17904470294914973,-0.1631579163060409
-377.7827570438385,6148.0,14784.0,11004.0,-1021.0,-1778.0,3526.0,0.7410564360434679,0.493203294501037,-0.4513919003169756,-0.061896859533471744
-377.79055666923523,5792.0,14764.0,10280.0,-1180.0,-2001.0,3050.0,0.6919218630985561,0.2710662944523149,-0.6691492731301587,0.002539615619408992
-377.7983455657959,5820.0,14524.0,9916.0,-1041.0,-2286.0,2563.0,0.5559539711548497,0.056361248278682836,-0.8283154267737879,0.04039981953151417
-377.8061399459839,5996.0,14160.0,9620.0,-1414.0,-2492.0,2084.0,0.35871512449638004,-0.1472155220223259,-0.9214057923851902,0.025737429791269483
-377.813924074173,6464.0,13508.0,9148.0,-1677.0,-2571.0,1576.0,0.1215029028495185,-0.30705279894292103,-0.9435542872049923,-0.025708565839761714
-377.8217146396637,7084.0,12504.0,8960.0,-1712.0,-2689.0,1094.0,-0.13755444366118644,-0.40421434993158706,-0.9007380146584406,-0.07975313967247176
-377.829496383667,7784.0,11140.0,8824.0,-1822.0,-2807.0,560.0,-0.4014155446639299,-0.42755771257484093,-0.8002086712375792,-0.12540353023786077
-377.8372805118561,8328.0,9820.0,8932.0,-1913.0,-2404.0,48.0,-0.6183738072690861,-0.3768921949553421,-0.6695213452984204,-0.16524913329598134
-377.84507727622986,8236.0,8840.0,9332.0,-1806.0,-2432.0,-360.0,-0.7973625397668743,-0.28359842492683784,-0.5062931831724891,-0.16568683178999133
-377.8528666496277,8608.0,7732.0,9760.0,-2322.0,-2409.0,-606.0,-0.9300008666432787,-0.12472340839166432,-0.306652433320848,-0.15970831093064405
-377.8606448173523,8548.0,7432.0,10196.0,-2493.0,-2690.0,-852.0,-0.9889898677638634,0.05967074775605676,-0.0594557704909851,-0.12166944841648755
-377.8684685230255,8688.0,7936.0,10584.0,-2809.0,-2839.0,-934.0,-0.9405893747959121,0.2603933680274044,0.2075842115877616,-0.06630020367892842
-377.8762261867523,8904.0,8912.0,10556.0,-2629.0,-3336.0,-1075.0,-0.7721663523728733,0.40834251686725626,0.48680841891582044,-0.005751213295060192
-377.8840651512146,8992.0,10008.0,10860.0,-2676.0,-3920.0,-1255.0,-0.46962742693633447,0.4901609143342767,0.732683934668165,0.048647814003507296
-377.8918631076813,9424.0,10764.0,11188.0,-2759.0,-3958.0,-1289.0,-0.0852679268314245,0.49279283012289704,0.860207489767867,0.09963775278779204
-377.8996493816376,9872.0,11916.0,11100.0,-2796.0,-3905.0,-2037.0,0.314825649226339,0.35911417056869627,0.8669150398186526,0.1427590166055912
-377.9074475765228,10196.0,12256.0,11100.0,-2780.0,-3859.0,-2000.0,0.6555188944382242,0.16364241701981258,0.7192926956395322,0.16166062101209844
-377.9152421951294,10336.0,12176.0,10944.0,-2678.0,-3906.0,-2109.0,0.882641644523188,-0.060883940043779325,0.4446308197259822,0.13978664939095103
-377.92302203178406,10452.0,11848.0,10888.0,-2684.0,-3906.0,-2279.0,0.9522976857505044,-0.28019713672046986,0.08969992339166595,0.08107161051448822
-377.93085622787476,10704.0,11084.0,10976.0,-2773.0,-3766.0,-2405.0,0.8461685297059435,-0.45682507931261507,-0.2743879274736932,-0.004575095954861172
-377.9386885166168,10892.0,10256.0,10732.0,-2790.0,-3590.0,-2443.0,0.5908388377974529,-0.5521875350445409,-0.5797942531926208,-0.09918174154752425
-377.94648146629333,11244.0,9620.0,10400.0,-2804.0,-3228.0,-2406.0,0.2496126683869895,-0.5542038781586376,-0.7703187770599685,-0.19277074187616608
-377.9542808532715,10968.0,8904.0,9948.0,-2619.0,-3023.0,-2279.0,-0.1101142683214587,-0.4721634936746009,-0.8372868929767703,-0.2527590591894407
-377.9620747566223,10724.0,8188.0,9568.0,-2437.0,-2970.0,-2128.0,-0.44311623094047636,-0.3349676844027343,-0.786809667842416,-0.2690263980963275
-377.969895362854,10716.0,7500.0,9704.0,-2552.0,-3007.0,-2069.0,-0.7203346781241847,-0.15360118190810973,-0.6254056735531923,-0.25766717271634915
-377.9776849746704,10676.0,7404.0,9296.0,-2177.0,-3024.0,-1979.0,-0.90005128464286,0.021798323173156466,-0.3872895148710419,-0.19859342836692512
-377.9854848384857,10544.0,7812.0,9496.0,-2170.0,-2995.0,-2038.0,-0.9688195224706171,0.1962032717483918,-0.10351627983915644,-0.1103512068048799
-377.9932737350464,10384.0,8428.0,9320.0,-2289.0,-2842.0,-2218.0,-0.9152075404003982,0.35813526590711464,0.18460788940691053,0.007363183864321035
-378.00107073783875,10276.0,8944.0,9640.0,-2443.0,-2597.0,-2412.0,-0.7446774411924337,0.4829061295988357,0.436227754244056,0.14819758770691652
-378.0088620185852,10196.0,9272.0,9508.0,-2589.0,-2250.0,-2788.0,-0.47940735571789994,0.535505506075561,0.6218641426980722,0.3109460214775544
-378.01665806770325,9968.0,9324.0,9612.0,-2713.0,-1907.0,-3042.0,-0.15500610730914732,0.49849053272512855,0.7168813944463867,0.4621269974551225
-378.0244424343109,9788.0,9300.0,9808.0,-2781.0,-1610.0,-3280.0,0.18475218630112827,0.3673473969651797,0.7139273166246305,0.5667718290255914
-378.0322468280792,9536.0,9208.0,10172.0,-2772.0,-1406.0,-3435.0,0.4924326470711255,0.16515227355376588,0.6157178005505288,0.5925591993411001
-378.0400810241699,9352.0,8884.0,9928.0,-2671.0,-1201.0,-3466.0,0.720295540370928,-0.06853281109979684,0.442349559853086,0.5299098557512337
-378.0478472709656,9168.0,8632.0,9912.0,-2497.0,-1087.0,-3473.0,0.8473050373992759,-0.28849387849652613,0.22174153192717816,0.3868800184636467
-378.05564188957214,8848.0,8488.0,10020.0,-2242.0,-1063.0,-3365.0,0.8690807392831632,-0.4540564492318309,-0.016362961852694993,0.19561099917289754
-378.0634329319,8932.0,8596.0,9820.0,-2002.0,-908.0,-3183.0,0.7985824173366346,-0.5549289937746613,-0.23275309518406842,-0.012080201623109596
-378.0712172985077,9028.0,8676.0,9684.0,-1772.0,-806.0,-3032.0,0.6613020521552752,-0.5891058925303829,-0.41400371734117697,-0.21032062483001893
-378.0790090560913,9076.0,8800.0,9724.0,-1642.0,-759.0,-2885.0,0.47592524512465834,-0.5688384123764683,-0.5521764613798996,-0.3808138353001701
-378.0867931842804,9036.0,8964.0,9968.0,-1496.0,-742.0,-2757.0,0.2639997216535137,-0.5031167447406082,-0.6451031649612916,-0.5109007679436443
-378.09458446502686,8828.0,9224.0,10020.0,-1411.0,-764.0,-2664.0,0.03881691456784514,-0.4049477929306937,-0.691684362919513,-0.5967271354954626
-378.1023759841919,9204.0,9444.0,10112.0,-1329.0,-636.0,-2595.0,-0.1758310458490681,-0.27663082094765334,-0.6931134355828878,-0.6419911195896221
-378.1101634502411,9064.0,9424.0,10200.0,-1250.0,-484.0,-2815.0,-0.37921148518014,-0.11027524361273165,-0.6595049715268977,-0.6396023863971514
-378.1179437637329,9180.0,9304.0,10156.0,-1097.0,-352.0,-2416.0,-0.5305921006253775,0.04417412088670784,-0.5937690526807059,-0.6032901307633773
-378.1257162094116,9396.0,9532.0,10092.0,-964.0,-265.0,-2292.0,-0.6460836224384617,0.18906428125986152,-0.5098130052285674,-0.5356503991114953
-378.1335098743439,9512.0,9636.0,10216.0,-802.0,-349.0,-2118.0,-0.7329141929501161,0.30601588894680976,-0.40950697652808427,-0.44888205317120977
-378.1412937641144,9612.0,9676.0,10052.0,-659.0,-347.0,-2009.0,-0.7927416190092026,0.39932250452277407,-0.3025216168357735,-0.34725053523270033
-378.149099111557,9668.0,9848.0,9900.0,-651.0,-171.0,-1940.0,-0.8203726304470561,0.4825915359666793,-0.20008681162806277,-0.23250682665077832
-378.15693759918213,9612.0,9904.0,9932.0,-697.0,73.0,-1942.0,-0.8160908791997055,0.5587843556206146,-0.10756263285730151,-0.10092571928657021
-378.1647810935974,9572.0,10192.0,9848.0,-544.0,379.0,-2044.0,-0.7903019568373826,0.6093389305917069,-0.02948413630712125,0.05709264743013676
-378.17257261276245,9484.0,10096.0,9956.0,-1103.0,670.0,-2057.0,-0.7040788103432586,0.6723537127446416,0.02767555316049232,0.2268205844745538
-378.18034291267395,9236.0,10344.0,10220.0,-1309.0,1012.0,-2501.0,-0.5612982313702037,0.7029523193370154,0.08360937838654403,0.4287327886285437
-378.18815517425537,8772.0,9924.0,10456.0,-1607.0,1097.0,-2794.0,-0.35095254199368636,0.6902976941133462,0.13539031955567904,0.6180540980695607
-378.1959879398346,8784.0,9868.0,10784.0,-1781.0,1140.0,-3097.0,-0.08551402761195091,0.6145318926267755,0.18158953770733532,0.7629306284462382
-378.2037842273712,8448.0,9316.0,10980.0,-1822.0,1135.0,-3135.0,0.192749103991917,0.4771186872340195,0.20882091190108487,0.8316245354456531
-378.2115521430969,7812.0,9368.0,11292.0,-1906.0,1045.0,-3124.0,0.45543717050683846,0.2961143491248087,0.20704129153045048,0.8136505266786958
-378.2193651199341,7696.0,9540.0,11488.0,-1712.0,966.0,-2956.0,0.6610381715412291,0.10158181591833809,0.19114665707962977,0.7184515473763305
-378.22715878486633,7612.0,9552.0,11120.0,-1582.0,904.0,-2898.0,0.8064572205325141,-0.090442595511575,0.16261707574465414,0.5612509020432476
-378.23494005203247,7460.0,9368.0,11048.0,-1468.0,820.0,-2784.0,0.8847118729546002,-0.2627783811373395,0.12156844910506215,0.36531292947580174
-378.242728471756,7212.0,9444.0,10888.0,-1184.0,564.0,-2648.0,0.9064386536724701,-0.3873760486756583,0.06444860616008036,0.15541924335453564
-378.2505180835724,7208.0,9076.0,10588.0,-911.0,295.0,-2466.0,0.8842607772521539,-0.4649058091299213,-0.007831178944122382,-0.043406670996685555
-378.2583167552948,7552.0,9224.0,10248.0,-599.0,-36.0,-2206.0,0.8351786114694463,-0.49974765755252964,-0.09606268282702982,-0.20856875768628572
-378.2661335468292,7640.0,9428.0,10040.0,-546.0,-353.0,-2127.0,0.755616236650824,-0.5183005946337192,-0.2009863567686043,-0.34642904165912847
-378.27392768859863,7588.0,9132.0,10248.0,-710.0,-554.0,-2334.0,0.628409047625452,-0.5283132723070524,-0.3143260805450042,-0.47664060911330475
-378.28172874450684,7840.0,9120.0,9984.0,-830.0,-711.0,-2312.0,0.4630309848440562,-0.5268472378283762,-0.4152495216232097,-0.5793117725876537
-378.2895188331604,7488.0,9204.0,10124.0,-977.0,-643.0,-2955.0,0.23641822046756786,-0.4736840705346749,-0.5085270533813558,-0.6790655802880349
-378.29731488227844,6656.0,9148.0,10292.0,-1214.0,-444.0,-3214.0,-0.022986381570848372,-0.3658823864410646,-0.5537907496877036,-0.7476078591847478
-378.30510425567627,6888.0,9312.0,10096.0,-1178.0,-243.0,-3451.0,-0.2834727320028226,-0.2024332430304338,-0.5587616726799296,-0.7526283182760031
-378.3129413127899,6528.0,9624.0,10432.0,-1096.0,-161.0,-3490.0,-0.5142957838732325,-0.015003978512148002,-0.5184462725616101,-0.6829994068708969
-378.32076358795166,6564.0,9188.0,10572.0,-968.0,-326.0,-3520.0,-0.7049572939854394,0.16014154463580801,-0.4291732860776703,-0.5414796301391939
-378.32856583595276,6632.0,9012.0,10676.0,-1024.0,-579.0,-3486.0,-0.8351321773739822,0.31056838050576924,-0.2821459331530151,-0.35566163660117955
-378.33634901046753,6644.0,9040.0,10860.0,-529.0,-924.0,-3435.0,-0.9066444810020646,0.3862723986134325,-0.10034546026100133,-0.13682181018730222
-378.34417033195496,6776.0,9116.0,11072.0,-205.0,-1280.0,-3301.0,-0.9079365047444589,0.3973238994614177,0.1096492083248261,0.07590832222442494
-378.35199093818665,6712.0,9552.0,11172.0,165.0,-1662.0,-3114.0,-0.8382018440762438,0.3490112420152892,0.3349513084955761,0.25182621482131506
-378.3597936630249,7156.0,9536.0,11156.0,233.0,-1914.0,-3022.0,-0.689949703388529,0.27242714053230627,0.5460782099464772,0.3892960936319848
-378.3676245212555,7028.0,9744.0,11084.0,270.0,-2046.0,-2944.0,-0.4759482574127058,0.1766897174082302,0.7140777302265185,0.48202385337507087
-378.37539744377136,6912.0,9860.0,11056.0,294.0,-2219.0,-2971.0,-0.20659772463450163,0.06903209385097674,0.8221137063142933,0.5260047567128766
-378.38318395614624,7260.0,9820.0,10892.0,335.0,-2271.0,-3001.0,0.0874532553446231,-0.045672341459067976,0.8513547817104035,0.5152290762506574
-378.39098167419434,7560.0,10000.0,10656.0,214.0,-2094.0,-2941.0,0.35869907951729624,-0.16056803912563547,0.794570094135106,0.462829602198176
-378.398766040802,7704.0,10068.0,10676.0,138.0,-2006.0,-2880.0,0.5890449808536544,-0.26281466888179095,0.6663231283681202,0.37412290621317706
-378.4065463542938,7740.0,10080.0,10872.0,137.0,-1995.0,-2690.0,0.7640678308840326,-0.3330317782470675,0.48609040585305524,0.26269050577319564
-378.4143328666687,7824.0,10056.0,10668.0,119.0,-1976.0,-2638.0,0.8763246567995043,-0.37631816397477014,0.2693406759559878,0.13377344887331064
-378.4221234321594,7676.0,10076.0,10696.0,2.0,-1902.0,-2476.0,0.9166581780411771,-0.3975133465117191,0.040957750583070336,0.0065868537602292105
-378.4298963546753,7584.0,10096.0,10528.0,-162.0,-1772.0,-2438.0,0.8885198977384592,-0.4041847822268919,-0.17948448957407007,-0.12227988854007749
-378.43767261505127,7332.0,9940.0,10908.0,-362.0,-1665.0,-2482.0,0.7961900334775176,-0.3974377480553575,-0.3795004992758857,-0.2531877525890794
-378.4454584121704,7408.0,9776.0,10832.0,-514.0,-1758.0,-2583.0,0.6391102336630743,-0.3722872276304958,-0.5589855874435431,-0.3748005368202227
-378.4532458782196,7124.0,9556.0,10788.0,-588.0,-1414.0,-2708.0,0.4462808695443517,-0.3079129204686632,-0.6818960925915224,-0.49095899807989024
-378.46103596687317,6948.0,9488.0,10540.0,-590.0,-1366.0,-2742.0,0.22349962663767842,-0.2181839557905645,-0.7559151310562924,-0.5753572741945197
-378.4689302444458,6808.0,9352.0,10552.0,-565.0,-1507.0,-2783.0,-0.02544261607342941,-0.11671879612340615,-0.7797252504068812,-0.614620150822253
-378.4767997264862,6728.0,9244.0,10520.0,-428.0,-1705.0,-2865.0,-0.287398688117273,-0.011774804576172174,-0.7504402089162051,-0.5950654089152432
-378.4846000671387,6628.0,9728.0,10504.0,-298.0,-1737.0,-2937.0,-0.5308039865957104,0.09369389630908084,-0.6652307382596675,-0.5166591201972748
-378.4923987388611,6616.0,10428.0,10700.0,-265.0,-1545.0,-2979.0,-0.7221773174387341,0.20068185685361556,-0.5346613494521549,-0.3902870173459261
-378.5002100467682,6432.0,11160.0,10536.0,-299.0,-1950.0,-2989.0,-0.8683727499957478,0.27912855395755287,-0.3332259510392253,-0.23869747167574235
-378.50805020332336,6500.0,11880.0,10788.0,-431.0,-2046.0,-2935.0,-0.9335105016157459,0.3380245640447714,-0.09308156704954762,-0.07505570831763128
-378.51585364341736,6792.0,12760.0,10732.0,-448.0,-1879.0,-2853.0,-0.9138907656673928,0.3688631124946737,0.14098158570963354,0.09416934299126195
-378.5236654281616,6504.0,13120.0,10572.0,-574.0,-1664.0,-2896.0,-0.8162201176626115,0.3763452524475177,0.34742854997020545,0.26728706131918706
-378.53149795532227,6584.0,13192.0,10468.0,-670.0,-1355.0,-2862.0,-0.6605096315016528,0.3547976346795272,0.5027107446510446,0.43026453761814487
-378.53934597969055,6604.0,12828.0,10400.0,-631.0,-1128.0,-2686.0,-0.4747754659618632,0.30532000862861536,0.6070083914127319,0.5593824827488306
-378.54714727401733,6548.0,12196.0,10404.0,-472.0,-940.0,-2405.0,-0.28749966958431883,0.23705449515575613,0.6695908039023246,0.6424930051329707
-378.5549581050873,6580.0,11412.0,9992.0,-400.0,-597.0,-2304.0,-0.11265767221647355,0.14269253059848727,0.6944524025220334,0.6961917488979175
-378.56275701522827,6560.0,10592.0,10212.0,-215.0,-460.0,-1657.0,0.018339992481293664,0.0715064927338445,0.6984676652208455,0.7118239858375326
-378.5706059932709,6540.0,10188.0,10296.0,37.0,-363.0,-1337.0,0.12235770961661784,0.012571395949144023,0.7032808157904815,0.7001904348406511
-378.57841396331787,6588.0,9768.0,10204.0,327.0,-281.0,-1144.0,0.20792498679456659,-0.03669624705048488,0.7173462100920993,0.6639540648157756
-378.586256980896,6824.0,9924.0,10288.0,470.0,128.0,-1033.0,0.2599404578876209,-0.09967880555427737,0.7398526282664347,0.6124648418674292
-378.5940673351288,6936.0,10024.0,10072.0,676.0,470.0,-881.0,0.28096939769964097,-0.1653578373063214,0.7746570486368987,0.5418666258359586
-378.601859331131,6828.0,10640.0,10240.0,850.0,629.0,-851.0,0.2888981262846025,-0.2301186702669642,0.8122902958091247,0.45140640841500523
-378.60964488983154,7004.0,11020.0,10432.0,881.0,817.0,-931.0,0.28283923771414576,-0.30338835729704744,0.8415184697553337,0.3461273397559364
-378.617431640625,7080.0,11444.0,10296.0,907.0,1022.0,-972.0,0.2583702536024266,-0.3791917293624874,0.8592596869795686,0.2261221677949281
-378.6252164840698,6964.0,11868.0,10608.0,1022.0,1240.0,-880.0,0.21381317066978694,-0.4409960080662189,0.867262431412331,0.08753470156780102
-378.6330018043518,6708.0,12104.0,10640.0,1139.0,1404.0,-781.0,0.15502741588834495,-0.48250536335446126,0.8595114784634019,-0.06629549793778232
-378.64079785346985,6508.0,12444.0,10740.0,1052.0,1590.0,-581.0,0.07550054074531866,-0.49522335583481963,0.8378917451741239,-0.21677389038333297
-378.64859437942505,6404.0,12452.0,10540.0,1075.0,1645.0,-551.0,-0.008691895463004586,-0.4896135266107993,0.7920960524458921,-0.3643993540233447
-378.65636587142944,6416.0,12428.0,10432.0,1049.0,1750.0,-475.0,-0.09840783903947822,-0.45997481767226184,0.7250500370045313,-0.5030323132390976
-378.6641731262207,6220.0,12364.0,10372.0,1150.0,1831.0,-449.0,-0.18452138260320816,-0.4103356274985504,0.6291560655961608,-0.6338289811069944
-378.67203545570374,6112.0,12164.0,10176.0,1333.0,1866.0,-348.0,-0.25346341889608787,-0.3407875460756606,0.5025848566035126,-0.7530130182367781
-378.6798355579376,6132.0,11928.0,10064.0,1445.0,1882.0,-252.0,-0.3032057272036496,-0.2546849045690163,0.3507811723773664,-0.8486191463083645
-378.68761014938354,5992.0,11912.0,10108.0,1517.0,1943.0,-507.0,-0.35808674402711593,-0.16263400596657987,0.1714040402357333,-0.903296584099701
-378.6954140663147,5908.0,11844.0,10184.0,1618.0,2116.0,-136.0,-0.36772762208293486,-0.04730534519235545,-0.02384298397517059,-0.9284234553201585
-378.70322728157043,5552.0,11988.0,10320.0,1724.0,2312.0,-51.0,-0.3490376680720774,0.08200096157526614,-0.23094279222269926,-0.9044965313852349
-378.71102643013,5432.0,11924.0,10048.0,1719.0,2473.0,-254.0,-0.32051690982004977,0.22207144276479676,-0.42569752452830784,-0.8165383043300778
-378.71886825561523,5332.0,11856.0,10108.0,1756.0,2465.0,-29.0,-0.25616523404583563,0.3378809279957722,-0.5987259090498085,-0.6795168409947163
-378.72668266296387,5236.0,11632.0,9920.0,1724.0,2349.0,-61.0,-0.18200454134735095,0.42808704728822816,-0.728506814420937,-0.5028853231257056
-378.7344844341278,5152.0,11496.0,9660.0,1756.0,2202.0,-51.0,-0.1065977434663819,0.48556707276959676,-0.8144158382033309,-0.29931318282596037
-378.7422709465027,5176.0,11412.0,9660.0,1765.0,1950.0,-26.0,-0.04229989795313024,0.5086789927862777,-0.8553284610077917,-0.08871090531121406
-378.75007796287537,4976.0,11380.0,9656.0,1743.0,1738.0,-18.0,0.009767958847707583,0.505503987680035,-0.8549393413072175,0.11596994483362462
-378.7578649520874,4856.0,11416.0,9480.0,1833.0,1466.0,-2.0,0.03759498414462684,0.4823645574817156,-0.818052162577124,0.31096898584187566
-378.76566195487976,4788.0,11468.0,9404.0,1897.0,1169.0,92.0,0.0380523206384874,0.44200731459456244,-0.7524551779611903,0.48681902170963115
-378.77346873283386,5008.0,11500.0,9448.0,1886.0,934.0,189.0,0.01835958327874836,0.38961588084102383,-0.6652380772298598,0.6366480124070307
-378.7812647819519,5036.0,11468.0,9152.0,1804.0,689.0,5.0,-0.0031487935385115557,0.3490251246171536,-0.5561293267468356,0.7542491096563148
-378.7890467643738,5372.0,11372.0,9252.0,1768.0,466.0,368.0,-0.05778806200912215,0.29611847846658945,-0.4450873898422567,0.8431320193203843
-378.7968473434448,5608.0,11476.0,9060.0,1738.0,184.0,425.0,-0.12523842271602062,0.2542066415753709,-0.3249385560573476,0.9022800317207182
-378.8046703338623,5512.0,11472.0,9332.0,1604.0,-24.0,261.0,-0.18019876282510683,0.22887745972684542,-0.20189113832233618,0.935084746198011
-378.8124887943268,5492.0,11464.0,9216.0,1470.0,-230.0,637.0,-0.26293303797057155,0.21120189161726727,-0.08985338440573618,0.9371159735228555
-378.8203465938568,5532.0,11464.0,9216.0,1416.0,-395.0,521.0,-0.33162051308338963,0.20500339786004476,0.025488877078715885,0.9205171151659329
-378.8281669616699,5588.0,11556.0,9416.0,1446.0,-541.0,854.0,-0.4198687367563307,0.20601291186547346,0.1406801891776446,0.872627072931097
-378.83601450920105,5720.0,11668.0,9296.0,1397.0,-585.0,992.0,-0.5069636468918617,0.20882932222453174,0.2478743339875452,0.798709264663668
-378.8438196182251,5760.0,11708.0,9380.0,1323.0,-548.0,1072.0,-0.5867294593601758,0.2089431324928491,0.34089713004974775,0.7041877985501003
-378.8516192436218,5744.0,11852.0,9372.0,1201.0,-544.0,1207.0,-0.6585665483435972,0.21393685695696907,0.41566677046983275,0.5896967513606917
-378.85941314697266,5788.0,11900.0,9500.0,1142.0,-532.0,1422.0,-0.7238478305510055,0.2239460005246239,0.4720836389352606,0.4505879990692942
-378.8671932220459,5864.0,11816.0,9612.0,953.0,-539.0,1296.0,-0.7629182153388784,0.2355346024426556,0.5127046631647413,0.3156155511464067
-378.87497901916504,5836.0,11816.0,9688.0,806.0,-600.0,1600.0,-0.7861394936930037,0.2661968169586629,0.5347413497081794,0.15866833335438438
-378.8827679157257,5656.0,11824.0,9820.0,714.0,-609.0,1822.0,-0.7871172449333054,0.3056563228010746,0.5355730801373593,-0.013495587890502321
-378.89055943489075,5976.0,11852.0,9928.0,654.0,-596.0,1976.0,-0.761001359742635,0.3461203499628918,0.5139279460399528,-0.19223865399700776
-378.8983459472656,6080.0,11936.0,9884.0,576.0,-495.0,2187.0,-0.7053470658019112,0.38965266784943325,0.46172786237975566,-0.3707609692304129
-378.9061396121979,6040.0,11924.0,9772.0,479.0,-319.0,2078.0,-0.630560542309337,0.42598851517710395,0.38835197058349313,-0.5197210158957194
-378.91393089294434,6072.0,12120.0,10060.0,406.0,-146.0,2498.0,-0.515011362764936,0.4702099618501831,0.2783155459213022,-0.6604591924550528
-378.92170906066895,6396.0,12208.0,9792.0,239.0,167.0,2811.0,-0.3561949911858435,0.5216339805174613,0.1374756104764572,-0.7629702321504757
-378.9295017719269,5892.0,12372.0,9844.0,109.0,361.0,2621.0,-0.18602727153262089,0.5588890545069879,-0.00042469932700145397,-0.8081068608970569
