programtime,ax,ay,az,gx,gy,gz,q0,q1,q2,q3
-4814.571076393127,804.0,120.0,-16728.0,801.0,95.0,-1054.0,0.9933585456774585,0.06948458657885476,0.007911037233119731,-0.0913679782386921
-4814.586665630341,904.0,-808.0,-17148.0,770.0,-187.0,-1923.0,0.9577982976576008,0.13157209834457156,-0.0028459712948074325,-0.2555447209174896
-4814.602263689041,1496.0,-1152.0,-16612.0,1039.0,-406.0,-1680.0,0.8944967178264156,0.20689517019916454,-0.040173241014371024,-0.39427924248231727
-4814.617858886719,2056.0,-1184.0,-16816.0,603.0,-725.0,-2098.0,0.7929985182917595,0.23202600790265565,-0.0782285637868927,-0.5578508523357032
-4814.633515357971,3080.0,-2004.0,-17392.0,-242.0,-1237.0,-851.0,0.741484078901333,0.15970117611782172,-0.13385587201708385,-0.6377926783908485
-4814.649147510529,3716.0,-2412.0,-17920.0,1453.0,127.0,1882.0,0.8101147466002933,0.23387963064710163,-0.22816808758325446,-0.48677894317412523
-4814.664746284485,1460.0,1148.0,-15176.0,537.0,210.0,1520.0,0.8592015509130951,0.2482065280527209,-0.26474056037709615,-0.36066417902498565
-4814.680328607559,856.0,-320.0,-15436.0,-990.0,-402.0,-526.0,0.8501348093301964,0.17273978047264646,-0.25122367532686257,-0.42932323389566934
-4814.695942163467,972.0,-1472.0,-16628.0,-256.0,-1.0,-371.0,0.8393480517442541,0.16185041843326442,-0.2362179493983123,-0.4620610029727225
-4814.711529970169,-480.0,-664.0,-16268.0,-389.0,-331.0,-1983.0,0.7461585787627564,0.1585595331139055,-0.21364310251278973,-0.610297365671976
-4814.727112293243,-280.0,-1248.0,-16140.0,-719.0,-1474.0,-1649.0,0.6279354566463801,0.062886013733485,-0.24379990840988994,-0.7364129386576145
-4814.742683649063,812.0,-724.0,-15596.0,-904.0,-1252.0,-657.0,0.5580421831792791,-0.05253700788731299,-0.248375091863019,-0.790024428949377
-4814.7582676410675,1132.0,-372.0,-15936.0,-1138.0,-816.0,1596.0,0.6343322221550439,-0.19557934937564542,-0.19924928943300166,-0.7208821475762088
-4814.773844242096,984.0,-572.0,-16460.0,-1007.0,-705.0,3956.0,0.8028282005039149,-0.342963184498034,-0.10120671251583009,-0.47707476971262197
-4814.789446353912,468.0,-492.0,-16008.0,-444.0,-435.0,4172.0,0.900221644253293,-0.4028876756485757,0.010866179287746297,-0.1648163771476372
-4814.805054664612,160.0,312.0,-15952.0,-623.0,-709.0,4531.0,0.8753133729167728,-0.42469346271686925,0.1144505493258024,0.2009055342135703
-4814.820736169815,156.0,532.0,-16420.0,-669.0,-318.0,4682.0,0.7128709462135783,-0.3915583997220545,0.23289117094551046,0.5331592033785879
-4814.836372613907,148.0,704.0,-16432.0,-621.0,-339.0,4652.0,0.44584484670444524,-0.29612260372328303,0.31639237537437215,0.7832174928052844
-4814.852010250092,328.0,328.0,-16212.0,-973.0,-725.0,3538.0,0.1890159001020605,-0.17771359695412506,0.29787373161849573,0.9186741027034053
-4814.867605686188,836.0,-368.0,-15960.0,-636.0,-730.0,4224.0,-0.13145718708266593,-0.01873124381979618,0.28119369065565447,0.9504200422995764
-4814.883225679398,948.0,-48.0,-16108.0,-598.0,-71.0,5434.0,-0.524725049169454,0.1149611258665697,0.21806276183912326,0.8147982536878062
-4814.898807525635,352.0,-88.0,-16356.0,-327.0,579.0,7437.0,-0.8891401589633343,0.19307748792783253,0.07873024727020034,0.40737256846639486
-4814.914449453354,-296.0,-236.0,-16168.0,-398.0,291.0,8957.0,-0.9470996494814868,0.21690066629911028,-0.085680155922657,-0.22048869765163914
-4814.930164575577,484.0,-288.0,-16780.0,362.0,1145.0,10979.0,-0.5285393461695017,0.09160671408722526,-0.28454116706481947,-0.794538037937925
-4814.945780754089,8.0,380.0,-16700.0,493.0,1068.0,9618.0,0.12291573046244675,-0.0731641594058717,-0.33992881883412635,-0.9295090785513347
-4814.961394071579,408.0,252.0,-17128.0,411.0,1023.0,7469.0,0.6360706855616312,-0.17319752005317562,-0.2629622432851161,-0.7044626041338503
-4814.97697353363,460.0,44.0,-16576.0,670.0,853.0,6638.0,0.9260559018065946,-0.20359305758675394,-0.13517311936008522,-0.2875735756882325
-4814.992566108704,-248.0,108.0,-16104.0,583.0,311.0,6456.0,0.9589319207113978,-0.19587019670798372,-0.008824829278156412,0.20495501913965547
-4815.008146047592,288.0,-120.0,-16424.0,79.0,371.0,7880.0,0.6750581951471379,-0.1666180195002947,0.13038505504708123,0.7067776214360906
-4815.023782014847,12.0,-1028.0,-16352.0,1439.0,457.0,8147.0,0.15255183435992775,-0.01427513683014443,0.29552154110935513,0.9429693404571825
-4815.039359331131,-804.0,444.0,-16036.0,651.0,-81.0,2965.0,-0.08558736247721457,0.07489639234305066,0.3402698610502872,0.9334247454717536
-4815.054960727692,-424.0,-548.0,-16148.0,-595.0,-1164.0,-1516.0,0.07523046304206492,0.12727302062753212,0.3060749746147165,0.9404573704136838
-4815.070663452148,2048.0,-296.0,-16520.0,-217.0,-433.0,2072.0,-0.07951225650918035,0.21325242188428828,0.2582535377199595,0.9388856777480575
-4815.08624792099,1224.0,-464.0,-16456.0,580.0,48.0,4709.0,-0.44090147295018817,0.2879318917299534,0.2014364362978184,0.8259082751775767
-4815.101814508438,-448.0,124.0,-16132.0,479.0,-7.0,3212.0,-0.6583341551156942,0.3143394256230177,0.14980307208306443,0.6673424198277619
-4815.117398738861,-1040.0,-92.0,-16264.0,189.0,-189.0,695.0,-0.6999673987276809,0.32317513526255487,0.15240190473199416,0.6183665030550193
-4815.133013725281,-312.0,-36.0,-16332.0,-63.0,-291.0,-816.0,-0.6483341660703872,0.33120187488576047,0.18937345262033445,0.6588670750770802
-4815.14857840538,436.0,-352.0,-16380.0,-30.0,-291.0,-1205.0,-0.5699567092848048,0.32806692726183856,0.23769687188281133,0.7148577745785091
-4815.16414642334,900.0,-596.0,-16412.0,-200.0,-311.0,-666.0,-0.5150137930600409,0.3430917929814602,0.2593468735265456,0.741476913827182
-4815.179754972458,1228.0,-608.0,-16476.0,76.0,-120.0,1137.0,-0.5851468141516023,0.3715639571826481,0.2346125368481614,0.6815426539584087
-4815.195326328278,568.0,-164.0,-16264.0,200.0,-75.0,1034.0,-0.6487509183242308,0.38559923617708713,0.21605136537622036,0.6194814626380558
-4815.210892915726,8.0,-416.0,-16504.0,300.0,-117.0,1021.0,-0.7086458073930824,0.39274165885597884,0.20378591447254965,0.5495874908746077
-4815.226478338242,-16.0,-152.0,-16108.0,-176.0,-208.0,-871.0,-0.654948134158271,0.3971157475973336,0.2374394427242923,0.5974650915422488
-4815.242087125778,-4.0,-952.0,-16548.0,-265.0,-300.0,-1221.0,-0.5721908519272739,0.4003516017721371,0.2814493908684961,0.6581052076294315
-4815.257667303085,736.0,-296.0,-16292.0,-197.0,50.0,-557.0,-0.5337305845163457,0.3933483455084894,0.28687714159578664,0.6914551669250906
-4815.2732536792755,400.0,-568.0,-16464.0,-102.0,-61.0,-739.0,-0.4829878020234306,0.38270265826680133,0.3084333055712011,0.7246587848543076
-4815.288887262344,864.0,-804.0,-16356.0,-426.0,-218.0,-1326.0,-0.3761222206688861,0.3761507308228043,0.3326239012377235,0.7787194893836759
-4815.304502248764,1124.0,-652.0,-16468.0,-233.0,-38.0,374.0,-0.39243154665947944,0.3971657378986012,0.3057084986411515,0.7712322423787022
-4815.320099830627,176.0,-36.0,-16312.0,-245.0,-127.0,-114.0,-0.3726778054715406,0.41114872222453497,0.2975911604634801,0.7768574404200863
-4815.3357491493225,-100.0,-464.0,-16592.0,-155.0,-270.0,-443.0,-0.32963415234889104,0.42275020623440845,0.31156877031878516,0.7845689836439071
-4815.351335287094,20.0,-140.0,-16384.0,-74.0,-247.0,-509.0,-0.2849184694117293,0.4276458096552578,0.332136278687604,0.7909652455398574
-4815.366897344589,-256.0,-472.0,-16380.0,-394.0,-202.0,-1960.0,-0.12707480930248208,0.3888651197799651,0.3775130814459634,0.830734485137354
-4815.382459402084,584.0,-432.0,-16200.0,-166.0,-137.0,-1260.0,-0.02540830766309937,0.35712130613317444,0.407413132588517,0.8401388754258692
-4815.398026943207,732.0,-628.0,-16280.0,-123.0,255.0,-691.0,0.019971738637343046,0.31366442379232184,0.4186766000603076,0.8520127132060726
-4815.413578748703,432.0,-404.0,-16364.0,-101.0,42.0,-386.0,0.049860426489570446,0.29625954720862135,0.4217671033550064,0.8554862530079301
-4815.4291450977325,320.0,-416.0,-16608.0,-225.0,-243.0,-690.0,0.11586025403742575,0.28755570333115693,0.4210399194113735,0.8524162746441267
-4815.444758653641,60.0,-628.0,-16496.0,-298.0,-32.0,-889.0,0.1899844348526405,0.2535775118382328,0.4196869559325429,0.8505687620784869
-4815.460335493088,448.0,-404.0,-16288.0,-421.0,102.0,-990.0,0.2678229668603257,0.20203275685143957,0.4104606775033644,0.8479243219796322
-4815.475962877274,312.0,-520.0,-16420.0,-559.0,116.0,-1319.0,0.36819613039909344,0.13224124641327775,0.39225574776437716,0.8325138381144218
-4815.491548299789,644.0,-396.0,-16600.0,-348.0,537.0,-75.0,0.35865438661536286,0.07946357438331708,0.38476851329929745,0.8467619278647531
-4815.507124662399,128.0,8.0,-16272.0,-429.0,626.0,-464.0,0.3737238136350308,0.00425082972194493,0.37505006317599376,0.8483218090326613
-4815.5226900577545,-20.0,-344.0,-16144.0,-776.0,424.0,-1401.0,0.45903692636440535,-0.09729111530197594,0.3288420146927505,0.8195623640029048
-4815.538265943527,600.0,-380.0,-16452.0,-622.0,621.0,-356.0,0.4597681565046614,-0.17631969326357022,0.3054638829354632,0.8149947387889906
-4815.553851604462,128.0,-456.0,-16492.0,-473.0,429.0,-1086.0,0.5151326657175939,-0.25339304758098297,0.2709540975553533,0.7726669251147428
-4815.569422006607,556.0,-208.0,-16336.0,-460.0,399.0,-706.0,0.5412705672307606,-0.316830979442948,0.24168345948615544,0.7404278553145585
-4815.5849776268005,528.0,-520.0,-16352.0,-419.0,306.0,-435.0,0.5503016447462354,-0.3651774873605781,0.2168288764558298,0.718887154461328
-4815.60053396225,448.0,-580.0,-16504.0,-261.0,2.0,-150.0,0.5510861825162325,-0.38080759407133424,0.19584233219536554,0.7161950688587345
-4815.616103887558,236.0,-420.0,-16600.0,-10.0,314.0,-184.0,0.5565194393477867,-0.40412045829373,0.20422531450322742,0.6966094958673393
-4815.631725072861,168.0,176.0,-16360.0,-195.0,150.0,-701.0,0.5882510909542281,-0.43454930432260674,0.17470203855439456,0.6592471113541857
-4815.647328615189,192.0,-276.0,-16272.0,44.0,165.0,-212.0,0.5993288546068154,-0.44516077235564167,0.17771550234805808,0.6411349397877086
-4815.662883520126,308.0,40.0,-16376.0,64.0,291.0,-112.0,0.6032240937638303,-0.4599206753619359,0.1921954824756403,0.6226191143816435
-4815.678471088409,164.0,-156.0,-16528.0,-247.0,320.0,-357.0,0.6065496134847732,-0.4960084667238761,0.18119565324568168,0.5943410658574522
-4815.694046735764,260.0,-144.0,-16372.0,-59.0,171.0,-739.0,0.6380902098216178,-0.5188055526815594,0.1549489745430454,0.5474235087431342
-4815.709623336792,784.0,-756.0,-16308.0,-174.0,59.0,-3.0,0.6293474441959666,-0.5315539069002976,0.14982641099631586,0.5467396867897901
-4815.725199222565,952.0,-1092.0,-15908.0,-326.0,91.0,-387.0,0.6307349755026644,-0.5585641091199542,0.12124354842033258,0.5248614375691283
-4815.740794181824,1168.0,-996.0,-16824.0,48.0,447.0,1763.0,0.5406863080534356,-0.5511055989920443,0.23111798705562678,0.592051865213277
-4815.75637793541,88.0,-28.0,-16248.0,743.0,610.0,1890.0,0.45854600585289895,-0.5011769473617155,0.38278390634517967,0.6261259529780491
-4815.7719786167145,-524.0,-152.0,-15940.0,-203.0,35.0,-113.0,0.45445568337767206,-0.5150833105727917,0.368226072777461,0.626553089803246
-4815.78755903244,696.0,-424.0,-16520.0,-194.0,80.0,445.0,0.4183286803879467,-0.5125898707972265,0.3805855114051219,0.6460707453750428
-4815.80313539505,792.0,-756.0,-16560.0,45.0,306.0,865.0,0.3601438948758089,-0.4980787583710135,0.43174116483675246,0.6601617165730501
-4815.818690061569,852.0,-284.0,-16328.0,108.0,198.0,1182.0,0.28759592223522895,-0.4592172766217892,0.49301068027088085,0.6806971040812342
-4815.834290266037,704.0,-232.0,-16244.0,215.0,200.0,1847.0,0.17547944788951306,-0.38135308008646374,0.5773556908721734,0.7003122145832346
-4815.849855422974,304.0,-140.0,-16288.0,141.0,305.0,1714.0,0.059312543529631515,-0.308044613154119,0.6404807529704757,0.7009814145618606
-4815.8654227256775,4.0,-220.0,-16384.0,174.0,140.0,673.0,0.014949099657392835,-0.27766149360420433,0.668865997450883,0.6894192460636354
-4815.88099360466,268.0,-244.0,-16400.0,-16.0,131.0,-191.0,0.018395074087163316,-0.2967365821354464,0.6635202214614517,0.686549297416906
-4815.896580696106,700.0,-856.0,-16460.0,93.0,141.0,745.0,-0.03193626969668479,-0.2614040617972336,0.6872900929353845,0.6769640458005428
-4815.912149190903,756.0,-172.0,-16516.0,347.0,305.0,1647.0,-0.13807959754067436,-0.17968351579893774,0.7365514770814734,0.6372909700460521
-4815.927886247635,192.0,-344.0,-16424.0,212.0,191.0,760.0,-0.18877465580350172,-0.1436977094660529,0.7562666035292985,0.6097343044365621
-4815.9435131549835,604.0,-92.0,-16132.0,283.0,224.0,539.0,-0.22825597119090973,-0.12453736707349913,0.7733577677320937,0.5781932366488974
-4815.959100484848,524.0,-440.0,-16252.0,-252.0,114.0,299.0,-0.2535312195008498,-0.10505004189361003,0.7613496957420192,0.5873951397739837
-4815.974678993225,804.0,-1264.0,-16444.0,-58.0,11.0,419.0,-0.27599997714144275,-0.07645409091161529,0.7616660762586304,0.5812431271658907
-4815.990997314453,808.0,-632.0,-16508.0,212.0,323.0,1357.0,-0.3620559517519894,-0.007696748030776536,0.7681013299638325,0.5280876771697136
-4816.006666660309,4.0,-480.0,-16408.0,315.0,511.0,820.0,-0.43205077796541,0.013713562980355856,0.7642353488415541,0.47863179483909757
-4816.022265195847,48.0,-88.0,-16300.0,79.0,133.0,41.0,-0.44251722522923154,0.007918457281752708,0.7626104555154322,0.47174261684550367
-4816.037902832031,8.0,-216.0,-16372.0,-93.0,-20.0,-520.0,-0.41909944181269654,-0.02224519582128024,0.759320643214034,0.4972856019675061
-4816.05352139473,780.0,-496.0,-16240.0,-219.0,-12.0,-631.0,-0.3905352258793859,-0.05542713790469014,0.7479796749763895,0.5337944131903649
-4816.069150209427,956.0,-972.0,-16556.0,-16.0,74.0,83.0,-0.39916096570332954,-0.05290735427852762,0.7452971544916772,0.5314164909265057
-4816.084732055664,892.0,-464.0,-16160.0,218.0,292.0,983.0,-0.46067177820567695,-0.010068553668253656,0.746872337096782,0.479439098396699
-4816.100328922272,24.0,-52.0,-16416.0,194.0,198.0,446.0,-0.4913805136193436,0.0029119067198005114,0.7468565349194852,0.4480424398229535
-4816.115934848785,-192.0,40.0,-16292.0,-55.0,73.0,-711.0,-0.46722888695643294,-0.04383947809987716,0.740530035131619,0.4810307000819661
-4816.131527662277,220.0,-272.0,-16140.0,-226.0,-40.0,-1514.0,-0.39824916029813817,-0.12964216088133834,0.7207001817802912,0.5524325881279093
-4816.147138834,760.0,-656.0,-16456.0,-12.0,118.0,-1291.0,-0.34126306290290287,-0.21476649033845088,0.6971930289392266,0.59273666743705
-4816.162707328796,852.0,-1012.0,-16620.0,1.0,136.0,-991.0,-0.2970222553373563,-0.28111044149363207,0.6722852851291024,0.617079569355887
-4816.178296089172,964.0,-344.0,-16132.0,474.0,343.0,495.0,-0.33133781165287923,-0.28226641077597253,0.699703486564787,0.5665297510332641
-4816.19387793541,136.0,-120.0,-16220.0,523.0,297.0,515.0,-0.36106166248010924,-0.2800334667309756,0.7281135658583954,0.5109465418326103
-4816.209507465363,-184.0,-64.0,-16324.0,300.0,176.0,-759.0,-0.3300427168359584,-0.344720322982707,0.7156860921232177,0.5099344286549345
-4816.225087404251,196.0,-36.0,-16484.0,518.0,286.0,-846.0,-0.2933433209049989,-0.4235673816511641,0.7023774980946393,0.49112749816307255
-4816.240734577179,272.0,-116.0,-16200.0,465.0,506.0,-853.0,-0.2692459416898583,-0.5072173950258266,0.6749021464080935,0.4634050386438458
-4816.256315946579,604.0,-324.0,-16248.0,550.0,2.0,-803.0,-0.2116495124212631,-0.5655713478727707,0.6593150872631355,0.4479253844832001
-4816.271931886673,856.0,-484.0,-16620.0,512.0,487.0,155.0,-0.2199067977290523,-0.584073257492898,0.6767533038289433,0.39051811219301796
-4816.287510871887,148.0,-472.0,-16868.0,1197.0,623.0,103.0,-0.19767379956004136,-0.6179712953153863,0.7060198069449498,0.28385309463723674
-4816.303079366684,-196.0,708.0,-16264.0,1081.0,730.0,974.0,-0.20622377568458117,-0.5888368109913577,0.7651075562507814,0.1592274842226712
-4816.318665742874,-1020.0,52.0,-15172.0,181.0,10.0,-2583.0,-0.15745296594623082,-0.7459434276069464,0.6191571795131434,0.18820561464011717
-4816.334247350693,840.0,-1064.0,-16616.0,118.0,-50.0,-1575.0,-0.1198797200035224,-0.8241035953395137,0.514440362975434,0.20453173304420905
-4816.349858999252,800.0,-1692.0,-16740.0,972.0,279.0,-746.0,-0.04872738623918321,-0.8675844021660113,0.4724142892683368,0.14747096746015734
-4816.36549282074,540.0,-592.0,-16456.0,1054.0,459.0,329.0,0.007975435080907818,-0.8597598471793961,0.5061963321207505,0.06719130122888492
-4816.381072998047,-520.0,-1420.0,-16020.0,1305.0,129.0,-763.0,0.10390333754206446,-0.8855763138282463,0.45272263472981966,-0.0009512293547511483
-4816.396745443344,744.0,1060.0,-16064.0,778.0,966.0,2131.0,0.12290201392000205,-0.7765116417632306,0.6121153953549534,-0.08508529808391446
-4816.4123611450195,-1164.0,1416.0,-15620.0,888.0,571.0,3201.0,0.16896665266073335,-0.5677443535712333,0.7949405913331742,-0.13109567318364393
-4816.427974939346,-2196.0,228.0,-14124.0,-1009.0,-1217.0,-4153.0,0.14518837219974634,-0.8248091675735489,0.5434098918909281,-0.057583531150033306
-4816.443595170975,728.0,-3776.0,-16296.0,-932.0,-1668.0,-6786.0,0.10459071615776612,-0.9938193662580098,0.03281214818036621,0.017527472034581784
-4816.459206581116,3532.0,-3396.0,-18732.0,1131.0,605.0,405.0,0.1989140190271183,-0.9765583845650326,0.07464504138703289,-0.03456952945212428
-4816.474820613861,1628.0,632.0,-17436.0,3956.0,2762.0,10388.0,0.3883693638162302,-0.5884504769057461,0.7044365491729083,-0.08163590918058909
-4816.490416765213,-3460.0,4684.0,-14204.0,2889.0,1307.0,8900.0,0.4008586251376695,0.05085151317820904,0.9145317586346747,-0.018924817272376656
-4816.506033420563,-2996.0,3148.0,-11012.0,-5666.0,-2744.0,-18293.0,0.31320332304715864,-0.8214321042991578,0.4633917415626428,-0.11144985558723514
-4816.521632194519,5200.0,-4936.0,-17660.0,-8614.0,-2833.0,-21811.0,-0.17551412131110294,-0.8582896981823063,-0.4773699610283181,-0.06820196127927007
-4816.537254333496,8288.0,-13168.0,-24888.0,-1296.0,-2627.0,-5583.0,-0.36361506209861066,-0.544536835130841,-0.7426815605901229,0.14031329716078364
-4816.552881002426,7808.0,-3004.0,-19404.0,7628.0,5510.0,12906.0,0.11556983219266523,-0.9854342893071205,-0.1228956995979965,-0.021436472775360295
-4816.56849360466,-224.0,4736.0,-11976.0,-2130.0,5068.0,6667.0,-0.0008743817159278977,-0.853454527331095,0.40365926349261644,-0.3296571009871779
-4816.584084749222,-6944.0,-8224.0,-16336.0,-870.0,-3032.0,-4998.0,-0.0910751086948388,-0.9924746716492103,0.05040760842593383,-0.06448584126607457
-4816.599692583084,2684.0,840.0,-16452.0,-2492.0,-1632.0,-4291.0,-0.29443324489280914,-0.9106785903770016,-0.2677288851049234,0.11088197965099178
-4816.615314006805,3220.0,-608.0,-18148.0,-1293.0,2158.0,3449.0,-0.3559707688560318,-0.9174011605524903,-0.0577151236930846,-0.16831187371686296
-4816.630881071091,-760.0,220.0,-16548.0,640.0,1607.0,2270.0,-0.25523701963283774,-0.8978193731356059,0.06276343929770621,-0.35332023395052986
-4816.646485090256,-1072.0,952.0,-15124.0,-916.0,-852.0,-3325.0,-0.40566032875559804,-0.8806752563920828,-0.14378350803784548,-0.19793204204718942
-4816.662036418915,2340.0,-856.0,-16324.0,-281.0,-442.0,153.0,-0.42939138946232724,-0.8794387265878052,-0.11139466619024015,-0.1726319471523063
-4816.677603960037,3240.0,272.0,-16728.0,900.0,2667.0,5421.0,-0.22276078076922493,-0.8169842559568501,0.1686860965030812,-0.5044396504204148
-4816.693172454834,-272.0,764.0,-16544.0,507.0,2338.0,3733.0,-0.052792863667223376,-0.624098896209339,0.34237803232672886,-0.7003504581823131
-4816.7087433338165,-2080.0,-688.0,-16552.0,633.0,755.0,-1573.0,-0.1352193751667991,-0.6199996221075037,0.21191099620797418,-0.7432428397584445
-4816.724328279495,504.0,-212.0,-16188.0,-10.0,125.0,-4152.0,-0.3829463749819724,-0.6475608183180459,-0.01266856503116348,-0.6586778939113416
-4816.7399725914,1820.0,-1548.0,-16924.0,-27.0,673.0,-1554.0,-0.4678488060847229,-0.6000017176941619,-0.12009236300344897,-0.6377250643948398
-4816.755562067032,1996.0,-1212.0,-16488.0,693.0,1311.0,753.0,-0.3718844933498226,-0.5576501262941902,-0.17098138455124212,-0.7221451560364853
-4816.7711527347565,1036.0,-932.0,-15936.0,-248.0,1012.0,-447.0,-0.3950013153902393,-0.4771026692244174,-0.20898800482956578,-0.7567503007573066
-4816.786723613739,1452.0,-1340.0,-16060.0,50.0,445.0,737.0,-0.3350872444594708,-0.46184726837724743,-0.19646607982305547,-0.7973799086834297
-4816.802307367325,1600.0,-864.0,-16324.0,-486.0,672.0,785.0,-0.28703238648191987,-0.4125734152841405,-0.1499999385617869,-0.8514080129660128
-4816.817892789841,1244.0,-1196.0,-16524.0,-139.0,658.0,1160.0,-0.1958398878928617,-0.3731361835985587,-0.11368041815814854,-0.8997182277396645
-4816.833522319794,528.0,-696.0,-16184.0,-205.0,744.0,573.0,-0.14958642123452287,-0.31609484719773706,-0.09138967128018838,-0.9323925558157286
-4816.849173784256,460.0,-584.0,-16020.0,-426.0,489.0,-674.0,-0.2115538799844157,-0.26479947107971014,-0.08149815649601407,-0.9372749044262288
-4816.864744901657,628.0,-644.0,-16260.0,-289.0,451.0,-1073.0,-0.30111943390624485,-0.21408960653555853,-0.09055129796377501,-0.9248206254915102
-4816.880319356918,928.0,-76.0,-16452.0,-439.0,403.0,-1716.0,-0.43912149215880825,-0.15484411750258,-0.09666584635143075,-0.8796881996186096
-4816.895920276642,1284.0,-1112.0,-16788.0,-606.0,354.0,-1723.0,-0.5691154952816642,-0.08905934343057313,-0.0859573946373844,-0.8128882535042405
-4816.911498069763,1248.0,-776.0,-16392.0,-15.0,32.0,-1422.0,-0.664733984094098,-0.07510340268888853,-0.09691708231700538,-0.7369499904675332
-4816.927159309387,1740.0,-192.0,-16076.0,-588.0,206.0,-1244.0,-0.7413828217926304,-0.017389631483500444,-0.07877534192725734,-0.6662158492349971
-4816.94273352623,1496.0,-972.0,-16112.0,-215.0,464.0,119.0,-0.7308114558713518,0.022424558293093373,-0.09623495264963582,-0.6753892130031965
-4816.958337545395,1036.0,-276.0,-15972.0,-99.0,444.0,-185.0,-0.7370836532176386,0.05644270432805672,-0.11857031160862258,-0.6629200483410572
-4816.974002838135,904.0,-668.0,-16416.0,-404.0,502.0,-566.0,-0.7604783384193414,0.11717270073012993,-0.12462667314723812,-0.6264275276030072
-4816.989592790604,708.0,-1060.0,-16600.0,88.0,294.0,-1006.0,-0.8097293751677443,0.13803257619328468,-0.13826255233410437,-0.553325233042881
-4817.005174875259,1116.0,-300.0,-16140.0,-63.0,121.0,-1481.0,-0.8716595662071576,0.1650603256479599,-0.12508646835738682,-0.44420498080325
-4817.020763397217,1600.0,-368.0,-15952.0,-5.0,435.0,-975.0,-0.9006696041332656,0.19239965519091906,-0.14345668267848113,-0.3622110117979959
-4817.036341905594,1280.0,-724.0,-16176.0,-66.0,623.0,-393.0,-0.9022264719571955,0.22202167420117705,-0.1834958352609212,-0.3209720360506117
-4817.051980257034,1064.0,-716.0,-16260.0,15.0,260.0,-679.0,-0.9154401241851626,0.2387826138577147,-0.19101212496364028,-0.26166125136902835
-4817.067550897598,1212.0,-696.0,-16420.0,-179.0,603.0,-542.0,-0.91153694113573,0.27542953460793895,-0.22337392636151873,-0.20818997438015532
-4817.083141326904,1052.0,-904.0,-16880.0,-138.0,753.0,-647.0,-0.9017254395364995,0.3117647617637448,-0.2643631964826114,-0.14073402346482622
-4817.098727464676,1176.0,-1000.0,-16196.0,52.0,320.0,-693.0,-0.9021241734450847,0.3271123895412876,-0.2708875776065334,-0.0760879792942101
-4817.114315271378,1572.0,-452.0,-15936.0,-124.0,391.0,-467.0,-0.8909853509239241,0.3502429215755219,-0.2872505820611917,-0.03101779216387379
-4817.130006313324,1720.0,-628.0,-16420.0,-205.0,622.0,-36.0,-0.8676439854620042,0.3684097018540139,-0.3335622583805707,-0.014297757009390457
-4817.145580768585,1520.0,-700.0,-16576.0,-82.0,561.0,34.0,-0.8474219446471575,0.3740974132888916,-0.37673031806374574,-0.001200230219189253
-4817.161165475845,1112.0,-420.0,-16036.0,23.0,509.0,-543.0,-0.8295626493023984,0.3896870360542731,-0.39599084300085596,0.05622345660925438
-4817.176751375198,1540.0,-152.0,-16292.0,-313.0,369.0,-506.0,-0.8019935965560312,0.4274266461005828,-0.40644670534489175,0.09441297051047426
-4817.192319869995,1608.0,-936.0,-17408.0,-424.0,693.0,481.0,-0.7627667326100975,0.43306717422565616,-0.47492518277652734,0.07131483012812333
-4817.207928657532,860.0,-1420.0,-16544.0,155.0,85.0,-101.0,-0.7641415591877845,0.4265276177086813,-0.4758964269349552,0.0876610499843672
-4817.2234988212585,1348.0,-124.0,-15768.0,-227.0,-322.0,-820.0,-0.7601891953639435,0.4768648708712225,-0.42447856775872345,0.12054139411171291
-4817.239085197449,2460.0,-312.0,-15940.0,-438.0,670.0,905.0,-0.722435667455645,0.4629865927667273,-0.5085084591231208,0.0717584023400927
-4817.254655122757,1456.0,-724.0,-16496.0,-152.0,685.0,839.0,-0.6877882870202034,0.4292685768166958,-0.5840432691808907,0.03961339319069452
-4817.270235538483,528.0,-700.0,-16332.0,6.0,-166.0,-636.0,-0.692898684312309,0.4612847807397548,-0.5495079114889094,0.07175527539661646
-4817.285817623138,1420.0,-64.0,-16088.0,107.0,202.0,-177.0,-0.6859548750887152,0.4620484700812981,-0.5539153225536827,0.09568143016179405
-4817.301406621933,1668.0,-112.0,-16692.0,-274.0,803.0,28.0,-0.6343350003580634,0.4692555506544752,-0.6038969466077977,0.11281317909925027
-4817.31698012352,828.0,-1692.0,-16976.0,67.0,427.0,169.0,-0.6154796374090663,0.45221044167529445,-0.6334245448488399,0.1243538433570894
-4817.332560062408,652.0,-536.0,-15640.0,160.0,-512.0,-1680.0,-0.6242670289264716,0.5358642985640202,-0.5317971360634552,0.2008281260045846
-4817.34817814827,1824.0,-344.0,-16128.0,-494.0,-80.0,-1048.0,-0.5832710711960467,0.609851260456769,-0.4847325834975042,0.23002308606081626
-4817.363840341568,2120.0,-808.0,-16480.0,-164.0,650.0,357.0,-0.5527459182876375,0.5889306774932315,-0.5390264097782085,0.2389207744950921
-4817.379457950592,952.0,-632.0,-16372.0,-156.0,163.0,-503.0,-0.5257136300639672,0.6161562885625079,-0.5238045130957929,0.26382842775243365
-4817.39506149292,1196.0,-448.0,-16148.0,-85.0,-217.0,-1086.0,-0.5034503549002626,0.6717010829499397,-0.45538966967211764,0.296606884732296
-4817.410655975342,1548.0,-484.0,-16708.0,-170.0,409.0,-63.0,-0.47499327917224443,0.6707415137941922,-0.47379395784461575,0.31623803048369786
-4817.42621922493,1048.0,-624.0,-16872.0,-94.0,283.0,-608.0,-0.4400068603732742,0.6909187220841757,-0.45183836910282665,0.3533657743819018
-4817.441781282425,1080.0,-708.0,-15900.0,238.0,-320.0,-1391.0,-0.42051911098831085,0.7407768165220167,-0.34569124077779145,0.3935872856770379
-4817.457395553589,2008.0,-404.0,-16112.0,-140.0,65.0,-590.0,-0.38847470892446684,0.7605802006033612,-0.31435776958287587,0.41446875838726494
-4817.47296833992,1712.0,-824.0,-16432.0,-189.0,482.0,300.0,-0.37285046161865176,0.7404943665125301,-0.3570156965482303,0.43033756384046606
-4817.488547563553,1044.0,-696.0,-16252.0,10.0,128.0,-16.0,-0.36869855478559255,0.7359874128826726,-0.3598221939422898,0.4392173636411055
-4817.504138708115,1304.0,-260.0,-16440.0,-254.0,183.0,-375.0,-0.331774655085747,0.748412170757692,-0.35111066223974735,0.4544514316910653
-4817.519763946533,1420.0,-72.0,-16600.0,-113.0,342.0,-631.0,-0.2881354200888668,0.7561100772955435,-0.323698110948418,0.4904029605036715
-4817.535342931747,1388.0,-1080.0,-16624.0,31.0,248.0,-709.0,-0.252149229475558,0.7632813480029512,-0.28129121852988054,0.5241160179231837
-4817.550944328308,1648.0,-696.0,-16012.0,135.0,-501.0,-628.0,-0.24397176740829962,0.7968051696370378,-0.22176011381596497,0.5063612843293732
-4817.566534042358,2032.0,-692.0,-16084.0,-260.0,178.0,330.0,-0.23671125937006512,0.7876446157007255,-0.2598167203333356,0.5060424990851295
-4817.582154512405,1540.0,-756.0,-16484.0,-179.0,312.0,612.0,-0.24376929536376715,0.7624061221602364,-0.3156778434170236,0.5095693620166152
-4817.5977392196655,1048.0,-672.0,-16492.0,-109.0,91.0,-96.0,-0.2295932921732354,0.7634102309383729,-0.3161053265668703,0.5143628699699536
-4817.613340377808,1196.0,-484.0,-16256.0,-4.0,-277.0,-545.0,-0.2120824165802209,0.7900028987947583,-0.2741011430463481,0.5057519469602249
-4817.628896951675,1780.0,-296.0,-16600.0,-139.0,201.0,151.0,-0.20416975400503,0.7800227999956708,-0.2943212020970499,0.5130830079359349
-4817.644531488419,1316.0,-1020.0,-16896.0,-30.0,155.0,25.0,-0.19914372749464904,0.7730724464690454,-0.30016179387879327,0.5221146098371188
-4817.66010427475,1256.0,-568.0,-15924.0,323.0,-186.0,202.0,-0.23474458091978498,0.7702909688774834,-0.29570010043967176,0.513914638431861
-4817.675708770752,1756.0,-220.0,-16156.0,-229.0,160.0,165.0,-0.2224020023732613,0.7634199459479732,-0.3202631492668913,0.5149357733648054
-4817.69132232666,1496.0,-856.0,-16444.0,98.0,283.0,440.0,-0.24041974244043743,0.7358891679799174,-0.35035484333038674,0.5271783034701246
-4817.706893444061,964.0,-800.0,-16276.0,106.0,-124.0,-130.0,-0.24488183075345274,0.7433945072288868,-0.33455265941339396,0.524854278508029
-4817.722485542297,1448.0,-748.0,-16220.0,145.0,-267.0,-427.0,-0.24214934863137494,0.7643668226672359,-0.2942685033302428,0.520108739890779
-4817.738066911697,1852.0,-172.0,-16444.0,121.0,298.0,528.0,-0.26601472275613286,0.7338468230114306,-0.3298690367996911,0.5309344838997104
-4817.7536444664,1124.0,-808.0,-16800.0,140.0,292.0,52.0,-0.2687521174237748,0.7154642530796896,-0.3334332177585233,0.5520013507597211
-4817.769223451614,828.0,-992.0,-16092.0,556.0,-506.0,-859.0,-0.2753348729855017,0.7482750551930551,-0.24005040963813484,0.5537607338250443
-4817.784807682037,1652.0,-20.0,-15840.0,137.0,-498.0,-811.0,-0.2544934672194861,0.7834751532449422,-0.16796387046072664,0.5414682794128117
-4817.800388813019,1836.0,-820.0,-16536.0,160.0,358.0,102.0,-0.26472335711058953,0.7612368908185332,-0.17525561143335053,0.5654426681089377
-4817.816012144089,928.0,-844.0,-16600.0,477.0,-109.0,-316.0,-0.28201449954500113,0.7596527398357003,-0.12809215398204293,0.5718285905712804
-4817.831599473953,1168.0,-760.0,-16420.0,619.0,-372.0,-1046.0,-0.27322267295174296,0.7701590489516734,-0.01862914000256598,0.5760706253973756
-4817.8472220897675,1704.0,-232.0,-16344.0,849.0,326.0,449.0,-0.3508416507815334,0.7301684565530638,-0.013842185800919357,0.5861506248602468
-4817.862801074982,1272.0,84.0,-16140.0,480.0,403.0,-839.0,-0.33649451667661784,0.6932197976624372,0.051622885966951165,0.6352580814282193
-4817.878371477127,784.0,-1720.0,-17012.0,910.0,-59.0,-917.0,-0.3382083498605942,0.6616817863198617,0.15827103365195053,0.6501865929438054
-4817.893997430801,1356.0,-344.0,-16300.0,1181.0,-48.0,-997.0,-0.3459338252047213,0.6104856386983236,0.2817673163863469,0.6544037384816545
-4817.909572839737,1680.0,-792.0,-16260.0,594.0,108.0,-753.0,-0.33595056240375565,0.5660955234601476,0.3513925180255083,0.6657299574261883
-4817.925238132477,1812.0,-1080.0,-16432.0,1352.0,219.0,122.0,-0.41349299937673245,0.5140097762990338,0.4146289316161485,0.626817627705461
-4817.9408984184265,1400.0,-300.0,-16468.0,1262.0,293.0,-188.0,-0.4672659022293635,0.44296122307267705,0.4785588070305258,0.5970170849157141
-4817.956544876099,1320.0,-600.0,-16408.0,1510.0,215.0,-484.0,-0.5043800996882503,0.3467899493697329,0.5618924836972389,0.5564299442150441
-4817.972128868103,1284.0,-520.0,-16592.0,1985.0,294.0,-413.0,-0.5499520809339046,0.22152135319517183,0.6477641854310059,0.47841672089084997
-4817.987748861313,1768.0,-916.0,-16676.0,2380.0,638.0,431.0,-0.6349052964656745,0.10270782880436609,0.6920919477024869,0.3276508848568933
-4818.003337621689,1020.0,-920.0,-16672.0,3128.0,732.0,447.0,-0.6925225257885435,-0.06204358107898514,0.7093241397055339,0.11585512571032847
-4818.018918991089,952.0,-504.0,-16708.0,3395.0,1246.0,45.0,-0.7166537064797733,-0.2641923527540566,0.6378165062176249,-0.09899479850689874
-4818.0344960689545,984.0,-352.0,-17276.0,4382.0,2194.0,564.0,-0.6729597682885236,-0.448222742359955,0.4372014919535349,-0.39379738309183987
-4818.050087928772,-216.0,-760.0,-17200.0,5162.0,1799.0,-1813.0,-0.5377191469461262,-0.678080386402798,0.07454265196848756,-0.4954881447833718
-4818.065683364868,572.0,-2004.0,-17796.0,6564.0,2322.0,-1094.0,-0.1801639114699562,-0.7606423181672446,-0.32615869299473393,-0.5315869973964495
-4818.0813047885895,-156.0,1100.0,-17244.0,7049.0,3713.0,-1736.0,0.2549803745896275,-0.5295709267910027,-0.6736742028293099,-0.4479985608393687
-4818.096886634827,988.0,264.0,-17444.0,5051.0,2361.0,-5510.0,0.3397664144401315,-0.0008780267683171143,-0.8859321111907026,-0.31572504976430926
-4818.112458229065,4528.0,-4840.0,-19692.0,6358.0,3336.0,60.0,0.5081456887623855,0.2328991818264033,-0.8154096524936071,0.15050923133498365
-4818.1280698776245,4144.0,-2192.0,-20168.0,7276.0,5155.0,5101.0,0.49133175410051344,0.09300359436407059,-0.44315339371727674,0.7440151265160784
-4818.143661499023,720.0,-1688.0,-19664.0,6045.0,4300.0,1981.0,0.3986973342653493,-0.0029528762435414185,0.0974798247007069,0.9118823388726827
-4818.159277439117,2272.0,-2652.0,-21680.0,5726.0,4285.0,2094.0,0.16515551173289275,-0.10621827677777579,0.589325217668396,0.783669013323038
-4818.174837112427,3064.0,-1460.0,-21928.0,7795.0,6740.0,9761.0,-0.4879224224501042,0.029628257112902186,0.8229791895795154,0.289411695634295
-4818.190437555313,-2784.0,-1104.0,-20644.0,7517.0,6167.0,2512.0,-0.7622304059535835,-0.1999000176388223,0.5594925994363047,-0.25692960585312213
-4818.206029891968,-792.0,-1348.0,-21376.0,7248.0,5927.0,-1094.0,-0.733361246653679,-0.4654314546186851,-0.012435884975605738,-0.4953788365715378
-4818.221596240997,280.0,-2364.0,-20972.0,8282.0,7518.0,273.0,-0.2696363671437448,-0.48011366504409486,-0.6013630440969958,-0.5789210545021186
-4818.237167596817,-1040.0,-1628.0,-18336.0,7457.0,6307.0,-3734.0,0.13683034116245357,-0.10422245818780838,-0.947752999083377,-0.26866222227012426
-4818.252789735794,1328.0,-2700.0,-16424.0,6376.0,5565.0,-4893.0,0.41102968981967003,0.38573438893939693,-0.8180769680608003,0.11407738428253165
-4818.268386602402,3148.0,-2220.0,-14748.0,5461.0,5019.0,-4948.0,0.5007879677844949,0.6984525854760381,-0.3293631759431507,0.3910182802590623
-4818.284017562866,3808.0,-1280.0,-13964.0,4076.0,4700.0,-5378.0,0.46371368549546016,0.7076409117631608,0.27849234902481707,0.45459429100887233
-4818.299602508545,4080.0,-152.0,-15188.0,3315.0,4703.0,662.0,0.10551522516417973,0.599295550312208,0.4992865216392922,0.6167854975142305
-4818.315222978592,1908.0,2488.0,-16116.0,468.0,5098.0,2493.0,-0.24654859374998953,0.39226759939324224,0.39511623374986093,0.7932358307675536
-4818.330811023712,-1556.0,-1352.0,-13356.0,-919.0,681.0,-931.0,-0.17265435548171504,0.3302783404948436,0.34605539986063816,0.8610182062886125
-4818.34645819664,1836.0,464.0,-14516.0,209.0,399.0,5379.0,-0.5381454173283681,0.4159593588753772,0.18176133479706238,0.710169091657228
-4818.362051010132,-632.0,2484.0,-12924.0,-2083.0,1898.0,6596.0,-0.7640298644111514,0.42470147172548395,-0.23373607357686574,0.4257399136925683
-4818.377634048462,-3388.0,492.0,-12748.0,-3873.0,-1111.0,5536.0,-0.7284885733066216,0.5248644327486532,-0.43684679563000794,-0.05464982108764178
-4818.39318728447,-2812.0,1620.0,-11480.0,-5077.0,-3129.0,4561.0,-0.49620981789494817,0.5511648039176779,-0.35365312670811355,-0.5700198606334915
-4818.408765792847,-1484.0,1780.0,-11572.0,-6614.0,-3166.0,6255.0,0.02716928517560025,0.3728813783948038,-0.14432373671231266,-0.9161833695340869
-4818.424342393875,-844.0,1176.0,-12496.0,-6625.0,-1823.0,11443.0,0.7391544105313778,0.04402513720587052,0.005567718763124053,-0.6720725743502636
-4818.439944267273,-1068.0,392.0,-13068.0,-6972.0,-1930.0,14198.0,0.9339422781548632,-0.29874868444677627,0.13751842241827178,0.13996330987731886
-4818.455527544022,-3424.0,-1448.0,-13692.0,-5764.0,-4828.0,11483.0,0.4494268116778671,-0.366577329870763,-0.01718666444047785,0.8144576236584069
-4818.471105098724,-1116.0,924.0,-13960.0,-8634.0,-5919.0,9060.0,-0.30584432935557376,-0.19027371111681451,-0.36544712123200274,0.858314372850715
-4818.486700296402,-548.0,-1388.0,-14672.0,-8633.0,-7073.0,12166.0,-0.9043071354791347,0.10366335007537457,-0.35441405808398646,0.21418027454719793
-4818.502282619476,664.0,2192.0,-14244.0,-13056.0,-13617.0,32644.0,-0.5284857620131254,0.11018366599570151,0.0525069571019691,-0.8401222402442671
-4818.517864942551,-2036.0,-5780.0,-16616.0,-14651.0,-10177.0,11096.0,0.22624922103155698,0.043511424531276294,0.7131995712928361,-0.6620154208366958
-4818.533457279205,816.0,-4140.0,-15436.0,-13490.0,-10868.0,15020.0,0.8142941175625823,0.037598508415927726,0.5459274007959104,0.193583871559833
-4818.549064159393,2604.0,-2460.0,-16876.0,-16982.0,-7995.0,11083.0,0.4948946383759786,-0.23552047429222864,-0.1606535552923079,0.8208531161345581
-4818.564718961716,-2296.0,-5152.0,-17372.0,-11518.0,-10418.0,9967.0,-0.31748600457431475,-0.06682831778199463,-0.6493419135434191,0.6878166123013006
-4818.580308675766,260.0,-3180.0,-17044.0,-14685.0,-9695.0,5478.0,-0.6764726271701245,0.3228900484786525,-0.6496987973690548,-0.1265633200426055
-4818.5959322452545,1268.0,-3652.0,-16748.0,-14771.0,-9016.0,3564.0,-0.3982519597305746,0.4861430169492113,-0.029876838486315144,-0.7772822641514073
-4818.611500501633,1628.0,-4704.0,-16908.0,-14648.0,-8343.0,1363.0,0.1648552135940388,0.23897265317464392,0.670816819646671,-0.6824365348255184
-4818.627094984055,1904.0,-4940.0,-17372.0,-14211.0,-7857.0,-426.0,0.5162713542095476,-0.26415606994116225,0.8145846461300906,-0.011718098181639058
-4818.642626523972,2808.0,-4868.0,-17796.0,-13082.0,-6821.0,1246.0,0.4288135271511469,-0.47255751232566257,0.3363326997145328,0.6925956046492843
-4818.658227920532,1476.0,-3676.0,-17488.0,-11968.0,-6006.0,956.0,0.03486165910749665,-0.3438498139469795,-0.3715598273400454,0.8616816493809856
-4818.673788547516,432.0,-2520.0,-16956.0,-11746.0,-5675.0,-195.0,-0.3213053177374587,0.03517122840937273,-0.8434157057335228,0.4291571097020651
-4818.689373254776,-8.0,-1592.0,-16536.0,-11011.0,-5103.0,-634.0,-0.43846907691080433,0.3990400038599587,-0.7620958057946977,-0.26023436879582484
-4818.7049679756165,-564.0,-1944.0,-17032.0,-11022.0,-4758.0,-2153.0,-0.28744228029214197,0.5861817898068563,-0.17454942062078302,-0.7370891021852333
-4818.720553398132,-360.0,-1544.0,-16612.0,-10058.0,-3994.0,-1420.0,0.054266771842550625,0.43698148073709364,0.4671945116220969,-0.766701761623642
-4818.736130237579,-1532.0,-1336.0,-16076.0,-8337.0,-4001.0,-2300.0,0.29324288508978197,0.02784835902619961,0.8410765767482852,-0.45367749700547694
-4818.75174498558,-996.0,336.0,-15876.0,-7386.0,-3115.0,-3391.0,0.32284195803942106,-0.42469990806191915,0.8458029874831515,-0.004512713822733443
-4818.7673263549805,-1940.0,960.0,-16600.0,-5518.0,-2577.0,-4741.0,0.2541077932462969,-0.7722910551781013,0.4974568947880811,0.30254320903168863
-4818.782909631729,-1856.0,1508.0,-16068.0,-6536.0,-2575.0,-10337.0,0.13387344731913328,-0.8772791155108042,-0.28976900259328064,0.35845945199920115
-4818.798497676849,368.0,556.0,-16424.0,-5923.0,-1638.0,-8052.0,-0.08183702741809215,-0.5182647560950102,-0.832132579305116,0.17960989391502022
-4818.814073801041,-148.0,436.0,-16512.0,-4836.0,-635.0,-2450.0,-0.2781895542199622,-0.26712782684482633,-0.915633905924145,-0.11343653013978067
-4818.829638004303,-2580.0,1088.0,-15204.0,-4897.0,-1150.0,-6028.0,-0.44850087315919407,0.26564555939294415,-0.8084035005158448,-0.27342857185008823
-4818.845198631287,-2136.0,12.0,-16328.0,-6776.0,-1587.0,-7495.0,-0.43421535569860886,0.7623371357449136,-0.3066742919276092,-0.3691205697471647
-4818.860771417618,-804.0,-1552.0,-17320.0,-3460.0,-1022.0,-3549.0,-0.31605689515263075,0.8742036808364053,0.07275769153285168,-0.3613617048905011
-4818.876341342926,-1148.0,-668.0,-16396.0,-291.0,318.0,-4244.0,-0.40252214427552074,0.811087016558639,0.3719917175694981,-0.20429375173396208
-4818.8919422626495,-1844.0,-1356.0,-15492.0,-97.0,1475.0,-18783.0,-0.4043519955687989,0.12014804623247603,0.8581573069076864,0.29262595111677253
-4818.907521486282,1368.0,-1892.0,-15300.0,-873.0,1257.0,-20369.0,0.01517602269586639,-0.688171227417639,0.49184086360192697,0.5331815966262766
-4818.923175811768,3344.0,-4212.0,-16384.0,1424.0,3989.0,-7923.0,0.2346278493068847,-0.9538134258111631,0.06893891648537452,0.17446245116305462
-4818.938816785812,-1464.0,-5548.0,-16984.0,6661.0,3664.0,-2351.0,0.6592706883650606,-0.7289369080075069,0.040782210127933455,-0.1798609322343117
-4818.9544942379,-1816.0,-2844.0,-15924.0,6997.0,4061.0,-4648.0,0.788554201371401,-0.21671614558362112,-0.1016154337475612,-0.5664721417397204
-4818.970097541809,-1620.0,-4368.0,-15832.0,7924.0,3367.0,-9541.0,0.330537912517815,0.3855854474824942,-0.2942299224603682,-0.8096278798355795
-4818.98571395874,5356.0,-2636.0,-12500.0,6230.0,2866.0,-30375.0,-0.6740289253701893,0.5345411559984029,0.12784589718818834,-0.4935647747564102
-4819.001366615295,9756.0,2016.0,-22712.0,11638.0,14116.0,20543.0,-0.188216821586045,0.2643278217909807,-0.8313794698511605,-0.45112460341826366
-4819.016966342926,-1812.0,8400.0,-18800.0,24080.0,19652.0,32767.0,0.48501072319886734,-0.426617352517141,-0.7028833664427107,0.2978543370366445
-4819.03254032135,-8000.0,11024.0,-17276.0,9759.0,8015.0,322.0,0.8946556677050854,-0.16238460632162724,-0.06582569743078977,0.4109616203864884
-4819.048132419586,-3216.0,13472.0,-29392.0,-6251.0,3781.0,-9914.0,0.8060780229499145,-0.49667077528983655,-0.09202045927277461,-0.30836438991131526
-4819.06374835968,-18056.0,-21360.0,-32768.0,7298.0,3483.0,-8689.0,0.6366348149874379,0.12499617468743963,-0.2916676082360217,-0.7028528117360678
-4819.079332828522,2076.0,-1160.0,-15996.0,7608.0,6463.0,2892.0,0.6632640721426707,0.6447821236183748,-0.3193057283141928,-0.20586557636633682
-4819.094902276993,-2816.0,616.0,-7692.0,11987.0,8802.0,14183.0,0.2379480062400909,0.5365481519347147,-0.40092472226236003,0.7033890772969519
-4819.110472202301,-6212.0,4844.0,-8124.0,6015.0,6608.0,-5800.0,0.3981097198904454,0.3360625354154431,0.27626930181219295,0.8076174193856264
-4819.126037359238,680.0,1628.0,-17540.0,4448.0,903.0,-243.0,0.24441270050240957,0.3916015513535448,0.5841059411087363,0.6676308159245603
-4819.14164352417,7060.0,3912.0,-15916.0,462.0,-1622.0,13754.0,-0.3123412407928317,0.7629134992223584,0.06791266391880257,0.5619553470550332
-4819.1573574543,1544.0,-7744.0,-18968.0,2691.0,2600.0,-519.0,-0.45724652641159036,0.5311317538789856,0.15530003685573598,0.6962087134319525
-4819.172960281372,2576.0,-1420.0,-17396.0,6501.0,3230.0,10305.0,-0.9608532007666876,0.14492161500861853,-0.037788063040415286,0.23308992764887768
-4819.188529491425,-5084.0,-580.0,-16708.0,6922.0,2386.0,5570.0,-0.8997671809579662,-0.3916380826073387,-0.13083221525610264,-0.14114376987236307
-4819.20413517952,-4776.0,2056.0,-15364.0,4561.0,2471.0,-5780.0,-0.6511952661357266,-0.5409577940865271,-0.4790178770223625,0.23205875090684983
-4819.219752073288,-1732.0,968.0,-15608.0,4191.0,1481.0,-11052.0,-0.11606492833285689,-0.24075977820765146,-0.6933678315433178,0.6691821215404733
-4819.235344409943,-80.0,-2080.0,-15780.0,2297.0,1228.0,-11899.0,0.4806108055377158,0.26323695732173147,-0.5631702040992094,0.6185134429543465
-4819.2509598731995,56.0,-4412.0,-16200.0,-654.0,1234.0,-10287.0,0.823669641054525,0.5001278410857226,-0.23024718928182986,0.13574496971844377
-4819.266636610031,1288.0,-3060.0,-15768.0,-296.0,1872.0,-3225.0,0.8672348800638658,0.4959649859064095,0.03936503084333664,-0.019307767923052634
-4819.28222155571,-996.0,-1392.0,-15592.0,-63.0,1877.0,-4104.0,0.7968425492645977,0.44710493344521257,0.3342117525084329,-0.2311744680013155
-4819.297794818878,-1444.0,-664.0,-15140.0,-2156.0,1239.0,-11010.0,0.4435105430574739,0.0009075573767538339,0.6366373371818571,-0.6308648630590126
-4819.31337594986,-508.0,-1564.0,-16440.0,-2836.0,1347.0,-11383.0,-0.17958635516899235,-0.4645652513107958,0.5891923322904077,-0.636223438645452
-4819.328952550888,392.0,-1868.0,-16472.0,-3029.0,1808.0,-10414.0,-0.7024086002557832,-0.6149839508685397,0.22154229631939176,-0.281666308603574
-4819.344534635544,680.0,-1808.0,-16576.0,-2935.0,1925.0,-9923.0,-0.8402551522275069,-0.4270542633779316,-0.262757771004831,0.20628690957604218
-4819.3601541519165,1012.0,-1484.0,-16476.0,-2194.0,2257.0,-7354.0,-0.6048975878061219,-0.11348800152633526,-0.6084012991491001,0.5010661043910081
-4819.375801324844,484.0,-608.0,-16672.0,-1842.0,1702.0,-7501.0,-0.1683940539599703,0.2530926816070432,-0.7022571874793501,0.6437564599609666
-4819.391375541687,616.0,-536.0,-16476.0,-1933.0,1333.0,-6460.0,0.2735221486853231,0.5167284816748796,-0.5899456819891351,0.5569034051852366
-4819.406971693039,368.0,-1276.0,-16360.0,-2123.0,945.0,-6714.0,0.632388046780091,0.6509490056927737,-0.31274703807418763,0.28024996066560554
-4819.422624349594,1216.0,-1012.0,-16764.0,-1135.0,1201.0,-4309.0,0.774397085830455,0.6277746718789593,-0.027428489476421333,0.07386333846778013
-4819.438220500946,1764.0,1164.0,-16360.0,-685.0,1433.0,-2298.0,0.8063700703994247,0.561574164820552,0.18542409225971362,-0.004435423292961192
-4819.453851938248,-716.0,-1096.0,-17280.0,-754.0,957.0,-2791.0,0.7988368394813269,0.4484070530943564,0.3768598287741736,-0.13699448192909175
-4819.469429731369,764.0,236.0,-16876.0,156.0,1233.0,-817.0,0.7360309094978256,0.44363163498947084,0.4889680121572529,-0.14953178855132182
-4819.485013961792,916.0,32.0,-16232.0,1014.0,1562.0,1469.0,0.6355721836090832,0.5796823272576255,0.5085642487962154,-0.03713224655075411
-4819.500604629517,776.0,1184.0,-15684.0,1121.0,1636.0,-4161.0,0.45692339405413746,0.42921994613453024,0.7480063287222259,-0.21789396962241916
-4819.516177415848,368.0,676.0,-16292.0,1242.0,-343.0,-3270.0,0.3540853247461881,0.2474817396249339,0.7967127734093792,-0.42264066065386835
-4819.531786203384,964.0,624.0,-16260.0,1291.0,63.0,-4405.0,0.14776161045484948,-0.01533430606965355,0.7856620888188939,-0.6005551163098052
-4819.5473709106445,596.0,612.0,-16224.0,1038.0,-412.0,-4725.0,-0.06473414430999247,-0.3199829177771656,0.6628065197022475,-0.6738753151225076
-4819.5629851818085,1336.0,1372.0,-15276.0,1024.0,-427.0,-5188.0,-0.28724852881194085,-0.5908307805775456,0.41772012973722594,-0.6276282057315611
-4819.578639745712,1304.0,496.0,-16680.0,1702.0,-72.0,-662.0,-0.23013222895387492,-0.6535048805559003,0.2886518336563704,-0.6607954654907636
-4819.594232082367,-192.0,-2772.0,-17608.0,1670.0,-589.0,-1930.0,-0.22542475324237687,-0.7504599651160714,0.09186811427509207,-0.6144540430033292
-4819.609822511673,-176.0,-3840.0,-16936.0,2465.0,-302.0,416.0,-0.03821267902909352,-0.7930704059676505,-0.006890537070703573,-0.6078911439053891
-4819.625412464142,-252.0,-1752.0,-16032.0,1623.0,448.0,275.0,0.08804697134139429,-0.7666377376372566,-0.07460838557222309,-0.6316232254044677
-4819.640968799591,-508.0,-1180.0,-15884.0,1172.0,669.0,-603.0,0.13643182474786159,-0.7111646181247739,-0.1729858720441708,-0.6676130100563733
-4819.656559944153,1072.0,-1500.0,-16520.0,899.0,1034.0,333.0,0.22551198368289266,-0.6406560812547616,-0.19098178530996499,-0.7086819374349239
-4819.67215013504,2028.0,-1724.0,-16420.0,774.0,1182.0,3038.0,0.4571839621094503,-0.5789731029481655,-0.043951951673127966,-0.6736773684758904
-4819.68776512146,2020.0,-1036.0,-16420.0,694.0,1434.0,5267.0,0.7277495564911057,-0.43943506355610223,0.21504385959679062,-0.48065949111003636
-4819.703314304352,928.0,168.0,-16096.0,615.0,1945.0,5713.0,0.8434572411908314,-0.1872372392981956,0.4701600424416316,-0.1801988706791058
-4819.718889713287,-400.0,152.0,-14960.0,229.0,1029.0,788.0,0.8118544696763592,-0.12116861202269853,0.5518016277522615,-0.14739556009922755
-4819.734478473663,-316.0,-2032.0,-16168.0,208.0,751.0,-335.0,0.7712725493094766,-0.11268163541709617,0.5974017488719118,-0.1885541146890487
-4819.750080108643,320.0,-1864.0,-16748.0,355.0,960.0,516.0,0.7293541552395227,-0.04593833687714472,0.6582013958891658,-0.18084000632978864
-4819.765664815903,-196.0,-1560.0,-16588.0,-118.0,845.0,-907.0,0.6619036631652205,-0.09170633733215902,0.7062782488239848,-0.23376168124760774
-4819.781257152557,1448.0,-1180.0,-16176.0,-240.0,1344.0,838.0,0.5882707827212218,-0.026298470422429124,0.7880487271739665,-0.17951345422974016
-4819.796894311905,2028.0,-776.0,-15644.0,93.0,1687.0,1853.0,0.48963393199502026,0.1292521811727415,0.8573291781122769,-0.09240761147498912
-4819.812525987625,2068.0,-1272.0,-16280.0,-326.0,1173.0,1903.0,0.4126571444509596,0.2621195116848517,0.8719681868442853,0.026056167392090435
-4819.828116893768,1632.0,-1236.0,-17092.0,1615.0,1338.0,5943.0,0.22788395979989545,0.6742368143368398,0.6904438362954783,0.12946400264325264
-4819.84373998642,596.0,-184.0,-15944.0,1779.0,1417.0,4723.0,-0.014380825145260524,0.8895334260856851,0.4190898622537338,0.18134818196097532
-4819.859335660934,-504.0,-1416.0,-16124.0,685.0,256.0,1202.0,-0.09525532037668744,0.9217142393941002,0.3338075476763943,0.173037007464766
-4819.874940156937,884.0,-1400.0,-16756.0,582.0,736.0,2127.0,-0.19163479936095995,0.9484788302318731,0.16210402029547472,0.19335536941059245
-4819.890521526337,516.0,-2004.0,-16828.0,1164.0,1044.0,2930.0,-0.33810201316750593,0.9153005786913025,-0.0751368963847611,0.20558775776079596
-4819.906159877777,652.0,-1184.0,-16256.0,636.0,1043.0,2147.0,-0.4108956788466369,0.8445032831577154,-0.26003157313525754,0.22441596826831303
-4819.921848297119,1076.0,-1188.0,-16100.0,64.0,1168.0,1290.0,-0.40941129895920136,0.7812511408362528,-0.3912723261691003,0.26255477523902376
-4819.937428236008,1592.0,-1064.0,-16052.0,-461.0,1734.0,1485.0,-0.34547652484754937,0.6932601947176539,-0.5537559449084037,0.3055988001905474
-4819.953055858612,1080.0,-1588.0,-16564.0,43.0,1952.0,2079.0,-0.2998161644673372,0.5236003514607727,-0.7154912809116865,0.3521720693263512
-4819.9686987400055,480.0,-1076.0,-16620.0,-164.0,1789.0,1230.0,-0.2143876005076407,0.38924223940552954,-0.8091754261790208,0.38440026727246795
-4819.984295845032,644.0,-1356.0,-16240.0,-281.0,1350.0,-136.0,-0.10403636096622448,0.3562887295138524,-0.8332853040983329,0.40971987844386937
-4819.99996304512,1336.0,-1340.0,-15900.0,-198.0,1460.0,-148.0,0.013564951795307574,0.3141025314678846,-0.8421360987341114,0.4381351195888644
-4820.015569448471,1604.0,-1092.0,-16172.0,1.0,1314.0,-450.0,0.12639990677756965,0.2948426745496955,-0.822329089092412,0.4699635412066008
-4820.031172275543,608.0,-2188.0,-17068.0,1221.0,-165.0,-127.0,0.08775447827864112,0.32236637495611287,-0.7665154584436361,0.5484825647243865
-4820.04679775238,1384.0,-120.0,-15740.0,962.0,111.0,-1068.0,0.11828328134401839,0.39285523019260504,-0.684360538439033,0.6027640391498514
-4820.06245803833,1736.0,-1572.0,-15784.0,410.0,95.0,-1202.0,0.17202263319369887,0.46114138553876133,-0.616988011332584,0.6140705416190886
-4820.0780377388,2056.0,-1508.0,-16028.0,71.0,315.0,-1341.0,0.2560697764836531,0.5139468962104259,-0.550688873352392,0.6058288720531194
-4820.093609333038,852.0,-2456.0,-17388.0,485.0,456.0,-766.0,0.2954557147653597,0.5355311738657772,-0.47881332524814196,0.6298016211437141
-4820.10918879509,512.0,-1752.0,-16444.0,-180.0,479.0,-1571.0,0.405912404905643,0.5645337154503598,-0.39898679062392817,0.59778453022067
-4820.1247889995575,1432.0,-1372.0,-15648.0,-583.0,531.0,-2523.0,0.569643139452546,0.5887600234204797,-0.27912749225779754,0.500955259042598
-4820.140392780304,1440.0,-1920.0,-16508.0,-209.0,-115.0,-1823.0,0.6488015844409488,0.6200855189686599,-0.19792568199006425,0.39417746967711115
-4820.156016111374,1588.0,-1160.0,-16500.0,-117.0,41.0,-1467.0,0.7003569371567268,0.6324241578235422,-0.11936937896141579,0.3086920739895956
-4820.17161655426,1204.0,-2032.0,-16028.0,-543.0,-295.0,-2443.0,0.7743701238212405,0.6181120059182039,-0.016873559478834843,0.134178025262579
-4820.18729019165,1608.0,-1612.0,-16004.0,-616.0,-137.0,-1322.0,0.8160491272489094,0.575617222806568,0.03762218152103454,0.036238186797154924
-4820.202887773514,1824.0,-1064.0,-15852.0,-799.0,-78.0,-1807.0,0.8494374353232463,0.5058368811289781,0.11854808637043791,-0.0923658182396553
-4820.218477010727,1428.0,-1648.0,-16160.0,-768.0,-14.0,-1772.0,0.8569668843313731,0.42475301001895654,0.19916807426090977,-0.21336522170779348
-4820.234063386917,1324.0,-1088.0,-16440.0,-547.0,-209.0,-1654.0,0.8401513867796905,0.3474258878976936,0.2522138698783784,-0.33140468245279053
-4820.249631881714,492.0,-2044.0,-16604.0,158.0,-1051.0,-1706.0,0.7968666377039184,0.28690607627666004,0.2191708890758897,-0.4844095235352703
-4820.265229940414,920.0,-656.0,-16280.0,670.0,-1870.0,-1753.0,0.7226174099902027,0.21548132388957655,0.10219772158555801,-0.6488046728689364
-4820.280891895294,1304.0,-112.0,-15612.0,676.0,-1143.0,-2718.0,0.5474080360658551,0.16384008528998156,0.04164551647728651,-0.8196136403574767
-4820.296523332596,1220.0,-1120.0,-16248.0,1483.0,-656.0,-1879.0,0.38521912297641797,0.17712490615864138,-0.06721521963744945,-0.9031694797548581
-4820.312134027481,860.0,-64.0,-16064.0,1202.0,-385.0,-2864.0,0.1337286292493298,0.1970558232820529,-0.1261493885802374,-0.9630015513957181
-4820.327753067017,1012.0,-1548.0,-16320.0,1325.0,-430.0,-2574.0,-0.10670442061270416,0.19862104452624155,-0.19223003418744408,-0.9550976187015159
-4820.343330144882,1380.0,-1136.0,-16384.0,1675.0,720.0,-1650.0,-0.2553556740917705,0.26490168169827766,-0.30324765995010694,-0.8790116241992175
-4820.358952045441,444.0,-1524.0,-16000.0,1248.0,739.0,-3886.0,-0.5291024631151544,0.3731291739221776,-0.30635663332485236,-0.6978329429824104
-4820.374563217163,1672.0,-2216.0,-16268.0,666.0,739.0,-2412.0,-0.6609134216854582,0.440821449691111,-0.2950789016856663,-0.5308468143525285
-4820.3901908397675,1784.0,-1916.0,-15616.0,-403.0,131.0,-5093.0,-0.8017174959892346,0.54936330441939,-0.08050447005713575,-0.221287249255306
-4820.405817985535,1924.0,-2824.0,-16328.0,-870.0,-171.0,-3648.0,-0.7901412404424,0.6013574782547603,0.11702794509986095,0.018720672128024883
-4820.42139673233,2172.0,-1492.0,-16284.0,-1311.0,108.0,-5029.0,-0.6502312745521472,0.5832382732315644,0.33823414456196366,0.35018576453732375
-4820.436958789825,1392.0,-2348.0,-16828.0,-2427.0,-3.0,-5988.0,-0.29917056712462564,0.4743147898722297,0.4957287761824245,0.6631556622237861
-4820.45254945755,1836.0,-2396.0,-16704.0,-2994.0,-74.0,-4988.0,0.10403545248016746,0.30422414475619947,0.4734894625979593,0.8200195260988005
-4820.468132019043,2188.0,-1572.0,-15744.0,-3461.0,-219.0,-4340.0,0.46389188803160436,0.09838668512846811,0.30529230839385124,0.8257850706106635
-4820.483757734299,1732.0,-2416.0,-16632.0,-3176.0,-1060.0,-2002.0,0.6282651704729928,-0.00663172656099335,0.04823835020125794,0.7764740545203185
-4820.499329805374,2308.0,-1140.0,-16064.0,-3262.0,-1451.0,-1620.0,0.7022664206508059,-0.0886900861334157,-0.23986104531402602,0.6643964343588964
-4820.51491856575,1724.0,-2384.0,-16996.0,-2731.0,-2792.0,-222.0,0.6013699362124424,-0.0848140697839199,-0.5406284585555218,0.5821354165367468
-4820.530496835709,2076.0,-952.0,-16352.0,-3116.0,-3422.0,66.0,0.38326639676473145,-0.07197888101030572,-0.8142708799042738,0.4299870276408388
-4820.546089410782,2256.0,-1520.0,-16172.0,-3224.0,-3865.0,1493.0,0.029274311385314094,-0.12805920156450748,-0.9593199247055803,0.2498982545966588
-4820.561703681946,2288.0,-608.0,-16336.0,-2822.0,-4223.0,2365.0,-0.36590914138324027,-0.21663595454095597,-0.9031073512710482,0.059803641465216203
-4820.577356815338,1124.0,-604.0,-16712.0,-2925.0,-4544.0,2369.0,-0.7036712262787753,-0.2545204114477208,-0.647842416372553,-0.1427107880027957
-4820.592937469482,256.0,-328.0,-16360.0,-2901.0,-5179.0,1903.0,-0.9110356254689443,-0.21836166572740165,-0.22107590938539992,-0.27103083654186333
-4820.60852766037,840.0,-324.0,-16176.0,-2591.0,-5588.0,2729.0,-0.8652179713810678,-0.17020323269892104,0.2899125455336404,-0.37199386758422714
-4820.6240775585175,336.0,-1428.0,-16372.0,-1961.0,-5233.0,4816.0,-0.5090655099825763,-0.05909621467681765,0.6898213021640772,-0.5113770771531592
-4820.639652967453,-488.0,-548.0,-16464.0,-1898.0,-5201.0,5187.0,0.02157809329871996,0.08784130544872465,0.8608737959809107,-0.5007140884178047
-4820.655269622803,-676.0,-272.0,-16160.0,-2222.0,-5098.0,5174.0,0.5398275988490053,0.20805320310731737,0.7575243640932875,-0.30241836254229515
-4820.6708335876465,-444.0,-636.0,-16516.0,-1999.0,-4762.0,6723.0,0.8587401999069268,0.347872359411797,0.37311601002914985,0.048317012335286534
-4820.686443567276,324.0,624.0,-16852.0,-1436.0,-4182.0,8242.0,0.7775255735722234,0.4078743993521153,-0.15211525831450717,0.45382089526843866
-4820.702024936676,564.0,628.0,-15844.0,-1780.0,-4032.0,10099.0,0.27915931868892785,0.22561147592797848,-0.6168204363466818,0.7005013105082829
-4820.717599868774,468.0,472.0,-15504.0,-1323.0,-3976.0,11987.0,-0.42986109202288986,-0.13981558810453917,-0.6905546679977331,0.5646284560615159
-4820.733171224594,-272.0,200.0,-16396.0,-1549.0,-3941.0,12767.0,-0.8529138152674716,-0.4260347519213438,-0.3005840599903927,0.026108174216065014
-4820.748754262924,-1976.0,88.0,-17204.0,-1919.0,-4876.0,12090.0,-0.708462769030371,-0.3868273947958703,0.33289652835398065,-0.4874679199117891
-4820.764354228973,-2060.0,-504.0,-17840.0,-3566.0,-5454.0,10451.0,-0.15370126428817288,-0.06468123330664763,0.800184405375764,-0.5761051785981299
-4820.779972553253,-1524.0,-776.0,-17020.0,-2967.0,-4795.0,13177.0,0.5163610589756457,0.4084904559058893,0.6795181744955886,-0.3236693602081164
-4820.7955577373505,-1920.0,-640.0,-16288.0,-1904.0,-3779.0,17262.0,0.7021299262060327,0.6717812692561848,-0.028251836313659646,0.2343615300073082
-4820.811137914658,-3304.0,2224.0,-16816.0,-1777.0,-3131.0,17480.0,0.23822661164591766,0.315589995145911,-0.6922195805841389,0.6037243482943419
-4820.826710224152,-4368.0,2068.0,-19152.0,-1277.0,-4311.0,17238.0,-0.4843519019298352,-0.2840634411578539,-0.7162510923125845,0.41436164066614484
-4820.842309713364,-3640.0,4972.0,-18880.0,-1527.0,-5070.0,16377.0,-0.7931244744966809,-0.5874127323644603,-0.08388470773260306,-0.137343385785768
-4820.8578951358795,-4600.0,4216.0,-17468.0,-4447.0,-5737.0,10396.0,-0.629210178130713,-0.2848219695097867,0.6030251005159298,-0.3991637828874701
-4820.87344789505,-1012.0,1692.0,-18076.0,-6304.0,-5672.0,12200.0,-0.03801944938482476,0.3087907447905438,0.8778629797026181,-0.3640870586382006
-4820.88902592659,-856.0,1360.0,-17236.0,-3802.0,-3696.0,16689.0,0.48069256740529814,0.8117649055388346,0.30733937357130847,-0.12455883441019167
-4820.904608011246,-3428.0,3640.0,-15644.0,-4857.0,-3546.0,15795.0,0.6124561743127183,0.5574552055741459,-0.5092565578240941,0.23409162017823593
-4820.920264959335,-5152.0,3204.0,-18204.0,-7868.0,-4064.0,10091.0,0.3948818832612647,-0.1482536541449749,-0.89475098419278,0.14666229437299289
-4820.93593454361,-3308.0,2528.0,-20948.0,-7860.0,-3474.0,9691.0,-0.06784383793837186,-0.7496057747387579,-0.6557947363835417,-0.05849495588287519
-4820.95153927803,-2932.0,2112.0,-19028.0,-7968.0,-3285.0,5787.0,-0.5540869820707837,-0.7784492092152404,-0.1609153603616237,-0.24720576807903724
-4820.967195034027,-1412.0,-244.0,-18156.0,-9229.0,-2200.0,-653.0,-0.9433984905186861,-0.2852804220745981,0.07707364223175381,-0.15057895782988912
-4820.982820987701,448.0,-4920.0,-19252.0,-7405.0,-565.0,2094.0,-0.909461292409424,0.2744292488293348,0.22663600889998892,-0.21495316807581966
-4820.99844956398,-1184.0,-4324.0,-19620.0,-1241.0,85.0,7097.0,-0.6333661293496393,0.43608126631556704,0.06210199627236961,-0.6362576659029375
-4821.014045000076,-2544.0,-1000.0,-17160.0,-1454.0,-940.0,-2356.0,-0.6817931569474585,0.43775179698719685,0.27562069154281066,-0.5172665558177535
-4821.029630422592,468.0,-1700.0,-17904.0,-2833.0,409.0,-3536.0,-0.6904176439930586,0.5018136839809403,0.4780660458062725,-0.20726639688986231
-4821.045218706131,-2072.0,-2344.0,-17780.0,3289.0,591.0,5574.0,-0.6594277238613176,0.4758987032919386,0.12092742932542691,-0.5692557053248364
-4821.060863494873,-2616.0,5840.0,-14344.0,1952.0,2042.0,724.0,-0.703506692781637,0.4583011201020868,-0.11987857775471408,-0.5297806556681011
-4821.07645201683,-4488.0,2688.0,-14900.0,-2304.0,937.0,-8066.0,-0.7844797434373794,0.5859038479869947,0.2025272046486062,-0.01705709317784392
-4821.092076301575,-2532.0,-652.0,-17372.0,-810.0,-203.0,-9635.0,-0.575925721631397,0.3599613441549352,0.5428340868478041,0.49403294225551175
-4821.107649803162,88.0,-1144.0,-16448.0,1142.0,2019.0,-5572.0,-0.4132700801630183,-0.042718332859170406,0.589137179059876,0.693037061872709
-4821.123260498047,-2244.0,184.0,-15264.0,3327.0,1844.0,-2894.0,-0.29579947956521285,-0.39044868807205807,0.6583042557364759,0.5715662662815244
-4821.1388421058655,-3508.0,1100.0,-13268.0,1097.0,2251.0,-8619.0,0.03332371372789058,-0.8079437104670489,0.28449512382056474,0.5149553527660824
-4821.154479503632,-1500.0,-772.0,-13396.0,1678.0,768.0,-12808.0,0.4694562088607885,-0.766185005646023,-0.3585573227377745,0.2529981252823409
-4821.170062303543,-600.0,-3760.0,-13800.0,1833.0,1316.0,-11821.0,0.6164654244295488,-0.24168678579846625,-0.7272632593550928,-0.18068212320401095
-4821.185658216476,676.0,-3728.0,-14340.0,1490.0,1664.0,-11687.0,0.3947365588896961,0.42061494011231815,-0.6298413685438429,-0.5201595636927686
-4821.201259613037,1960.0,-4816.0,-15176.0,1635.0,2483.0,-11463.0,-0.03427986662383284,0.8482378190677164,-0.13761290315443653,-0.5102746142352211
-4821.216880321503,2044.0,-4092.0,-14464.0,3065.0,3987.0,-7829.0,-0.43621865996018744,0.8622027151067786,0.22785047051140123,-0.12001633994073796
-4821.23249912262,324.0,-5628.0,-15816.0,6372.0,4963.0,-3391.0,-0.8339293340946361,0.48020537487981413,0.18066418616992577,0.20328579760665116
-4821.2480936050415,-1008.0,-4260.0,-16020.0,8192.0,5577.0,-5488.0,-0.8305104209359994,-0.21417096823964712,0.1068013597853555,0.5029678982082261
-4821.263745546341,-1280.0,-3868.0,-15900.0,8184.0,5145.0,-13153.0,-0.08503839254682906,-0.6641555827142416,-0.08772409265447857,0.7375434341857475
-4821.279347658157,2096.0,-4216.0,-16028.0,7699.0,5787.0,-19075.0,0.7718444236725588,-0.4479583146462011,-0.35007376250810046,0.28467155598747956
-4821.294914960861,4036.0,-1908.0,-16208.0,10237.0,8636.0,-11882.0,0.9331482721639687,0.21015721349831534,0.011437425548207824,-0.29144027358766456
-4821.310487747192,-156.0,-864.0,-15708.0,10451.0,8453.0,-11565.0,0.23815466230389737,0.6865065970874695,0.3506581624240618,-0.5907875270380034
-4821.326048135757,-1180.0,-2720.0,-14140.0,6458.0,6082.0,-24055.0,-0.6427057612725837,0.16254441723812701,0.6468672827694434,-0.37692351390464285
-4821.341618061066,3932.0,-3776.0,-16032.0,5983.0,6761.0,-20262.0,-0.8149568070605062,-0.5022855132770263,0.16457460456561793,0.2376338892284715
-4821.357187509537,4776.0,-2764.0,-17324.0,11443.0,10256.0,-5211.0,-0.20329089606251918,-0.9251390806034568,-0.32059228101375153,-0.003329034798295944
-4821.372751712799,-628.0,148.0,-16088.0,11467.0,10575.0,-5460.0,0.5794510123962824,-0.5542337335347769,-0.5425855697692463,-0.25032457394991703
-4821.388340950012,-2256.0,764.0,-15212.0,8473.0,7776.0,-15153.0,0.5295506601450602,0.39294532027866447,-0.5508671060114023,-0.5115813768362285
-4821.403968334198,2104.0,-36.0,-14900.0,8182.0,8417.0,-12171.0,0.06176881721731711,0.9716181816206845,-0.061729416502047524,-0.21984585850546512
-4821.41956114769,1688.0,540.0,-14908.0,7850.0,8715.0,-7651.0,-0.4456070723333703,0.7740402934410798,0.3060715926888569,0.32956963052598776
-4821.435135602951,984.0,996.0,-15668.0,7115.0,9009.0,-5518.0,-0.6742086950609409,0.06089996226122422,0.35665912421415746,0.6438385661138937
-4821.450714588165,1124.0,444.0,-16160.0,5706.0,8704.0,-3978.0,-0.5390852689451575,-0.6364138065002327,0.13378978016017978,0.5352240973899645
-4821.466289520264,784.0,68.0,-16408.0,6553.0,9488.0,1651.0,-0.25445012233732694,-0.9597878771009839,0.05978353444651246,-0.10241237826351154
-4821.481860637665,-920.0,1024.0,-16224.0,6642.0,10212.0,4476.0,0.1911903869078673,-0.6570765375286785,0.09832496101462058,-0.7225156481522157
-4821.4974319934845,-3144.0,1068.0,-15904.0,6212.0,8464.0,3952.0,0.5173663326101768,0.009975151800403743,0.05325351057142234,-0.8540472105451046
-4821.513009309769,-3284.0,1552.0,-15832.0,5253.0,7007.0,3020.0,0.5484352203084873,0.609378824810744,-0.018949090294982807,-0.5722911749926344
-4821.528579711914,-2024.0,972.0,-16376.0,4244.0,5962.0,3715.0,0.4210753146405754,0.8977171009842664,-0.11633286713604445,-0.05715111569035139
-4821.5441427230835,-444.0,-216.0,-17820.0,3965.0,5239.0,5846.0,0.15269871192000384,0.8014416859848573,-0.31855932941615994,0.4825912151973422
-4821.559775590897,504.0,-264.0,-18144.0,4312.0,5473.0,9047.0,-0.267650884034113,0.2671161208248554,-0.493639252890614,0.7831553295974149
-4821.5753445625305,-704.0,232.0,-17504.0,4939.0,6098.0,13050.0,-0.6084878052627299,-0.49732607727411876,-0.36257646406543587,0.5009467750325269
-4821.59090256691,-2968.0,192.0,-17300.0,4149.0,5113.0,8611.0,-0.4670252810516091,-0.8817109040844496,-0.05750161473493272,-0.03415893411866689
-4821.606485366821,-2220.0,448.0,-16912.0,2949.0,3553.0,7434.0,-0.1588225190599144,-0.8175819057499809,0.28678993294669014,-0.4733780404603974
-4821.622051239014,-924.0,1188.0,-16136.0,2729.0,2234.0,14159.0,0.34894963714813604,-0.2525619919390145,0.7123693763838069,-0.5540545664034612
-4821.637629508972,-2336.0,456.0,-16120.0,2537.0,1968.0,11306.0,0.5787761965917513,0.43467659520421376,0.6276144323217892,-0.2866609428957091
-4821.653204202652,-2084.0,2076.0,-16240.0,9.0,-367.0,10948.0,0.6304695945281202,0.7414260725364941,0.14004954460381266,0.1821581576403369
-4821.668801546097,-1856.0,-96.0,-17904.0,363.0,-18.0,10614.0,0.32143295031005154,0.6539542210236786,-0.3974250276211973,0.5577437428430552
-4821.684369564056,-1584.0,1764.0,-16964.0,-569.0,-698.0,12560.0,-0.18962967447399434,0.1592000289298169,-0.7817985215916574,0.5722648066976784
-4821.699984788895,-3276.0,1748.0,-15736.0,-1549.0,-1355.0,9362.0,-0.5584181899711474,-0.2962376458867474,-0.741661953915956,0.22438789713884316
-4821.715554714203,-1612.0,1176.0,-14964.0,-4906.0,-3115.0,6172.0,-0.8099701022660761,-0.31814403532652297,-0.4233370057736922,-0.25202893834598245
-4821.731127023697,156.0,-756.0,-16356.0,-6456.0,-3920.0,7631.0,-0.7050224406820892,-0.16793247877317768,0.15134614433687565,-0.6721877604524854
-4821.746680259705,1464.0,-2552.0,-17240.0,-7930.0,-3593.0,6456.0,-0.28695811139468236,0.14114207213069113,0.6773736403578552,-0.6624944596959275
-4821.762281656265,936.0,-5164.0,-18412.0,-5879.0,-3022.0,3140.0,0.12276592559610934,0.2522215117107943,0.8886007591686684,-0.36290705056214906
-4821.777841329575,1304.0,-3420.0,-17816.0,-4751.0,-1627.0,3911.0,0.4171409474661494,0.3960609726754103,0.8179376349551394,0.010351869128049902
-4821.793404340744,-776.0,-2240.0,-17456.0,-3603.0,-1875.0,3876.0,0.6032609965809939,0.48793352873759166,0.550164820292785,0.3087324279210004
-4821.808968544006,-1048.0,-48.0,-15556.0,-4502.0,-2129.0,1925.0,0.7661246010626943,0.36338748495569373,0.21304235178692466,0.48540250078589336
-4821.824560403824,-156.0,2392.0,-14716.0,-5825.0,-2074.0,3716.0,0.7040854105980265,0.11100122381881865,-0.24547171365565923,0.6570282343162178
-4821.840140581131,-1752.0,1368.0,-15080.0,-8061.0,-3773.0,-1159.0,0.6043428986415004,-0.11255323199230335,-0.7309344160379548,0.2963719120985148
-4821.855781555176,1524.0,-2504.0,-17412.0,-10919.0,-4460.0,-3520.0,0.20673985666997596,-0.23748866877661576,-0.8743535718942459,-0.3692744171785562
-4821.871412992477,5872.0,-6744.0,-20160.0,-9168.0,-2302.0,3883.0,-0.025224934499790335,-0.5773128602257431,-0.40307818673059426,-0.7096488846460826
-4821.886998414993,3388.0,-7700.0,-19500.0,-1823.0,99.0,14070.0,0.47616180812733105,-0.667438294141698,0.26289761759650543,-0.5086068212836045
-4821.902630805969,-48.0,1100.0,-15828.0,344.0,2092.0,16696.0,0.669226420656803,-0.09987235477268909,0.7356509286991473,0.03129251909201534
-4821.918252468109,-5188.0,2864.0,-13676.0,-3733.0,133.0,-187.0,0.5974174681555001,-0.31391027602067584,0.6956876865101888,0.2461124746724489
-4821.933948993683,-1008.0,-668.0,-16216.0,-8067.0,-1295.0,-10814.0,0.4436142704147112,-0.880195019558786,0.10258136026819145,0.13394092411902844
-4821.949544429779,3660.0,-4344.0,-21476.0,-3147.0,90.0,862.0,0.18346064202212198,-0.9573624315791662,0.13027343209423803,0.181185541145106
-4821.965198278427,768.0,480.0,-22584.0,349.0,1303.0,4199.0,0.1224294535136296,-0.8629934296939927,0.4735992023467337,0.1263216717506992
-4821.981056690216,-3468.0,256.0,-19348.0,-3003.0,-555.0,-5391.0,-0.019034357803191557,-0.9779883919407414,0.025183849501598278,0.2062575384718432
-4821.996890306473,-492.0,-4116.0,-17496.0,-4181.0,-1155.0,-3032.0,-0.2892377255922081,-0.8688461809297117,-0.27869663797269045,0.2894409023631945
-4822.012535810471,3068.0,-3364.0,-15524.0,-1093.0,533.0,6322.0,-0.45215170232258156,-0.8793290174329288,0.1391184361882019,0.05463861180319949
-4822.0281183719635,-260.0,-692.0,-14648.0,-1234.0,724.0,3508.0,-0.5431727921789287,-0.7516602898560482,0.3549952323834716,-0.11810381651357794
-4822.043736219406,-348.0,32.0,-16596.0,-2217.0,186.0,-639.0,-0.6868410865500859,-0.6514936294126858,0.3207269114150474,-0.030653237276791114
-4822.059327125549,32.0,-1448.0,-17244.0,-1754.0,54.0,-1594.0,-0.7757093910374886,-0.5787978501176784,0.2268696756110965,0.10861924158968224
-4822.074888944626,860.0,-1504.0,-16364.0,-1778.0,167.0,-2113.0,-0.8249365459652993,-0.4880871953708265,0.08952531197341741,0.27062114359736333
-4822.090481042862,720.0,-1576.0,-15868.0,-2011.0,46.0,-2150.0,-0.8330146117992563,-0.3501200842776121,-0.051139503469744545,0.4253085166079324
-4822.106073856354,552.0,-1840.0,-15916.0,-2515.0,-112.0,-2776.0,-0.7672665611327052,-0.14356355632797568,-0.21028208332391338,0.5886195502147473
-4822.121644258499,1040.0,-1592.0,-16560.0,-2882.0,-191.0,-2502.0,-0.6434319719960044,0.09962184798348761,-0.3577991011972513,0.6693658103011588
-4822.1372282505035,584.0,-1264.0,-16620.0,-3389.0,-761.0,-3244.0,-0.41392752713548775,0.4024855805232511,-0.4480694603175096,0.6825709622311349
-4822.152803659439,4.0,-468.0,-16604.0,-4024.0,-736.0,-5050.0,-0.0004042441659885418,0.6865213916990823,-0.4209668099637721,0.5928534053500367
-4822.168412685394,200.0,-132.0,-16544.0,-4220.0,-721.0,-6514.0,0.4654322643714852,0.7965626847353546,-0.20596693304381225,0.32624886062906283
-4822.184067964554,-180.0,-12.0,-16860.0,-4008.0,-925.0,-8795.0,0.7458817115860984,0.624397222974816,0.19354954263679033,-0.12777775552818066
-4822.199651479721,4.0,484.0,-16600.0,-4126.0,-853.0,-11243.0,0.5934778937568544,0.10817366256463073,0.5501095165053695,-0.5774616595060748
-4822.21528673172,384.0,388.0,-16212.0,-3270.0,-838.0,-11766.0,0.048872895236504794,-0.45665476209038636,0.5349930755099216,-0.709126418579797
-4822.230866909027,728.0,1200.0,-16472.0,-2891.0,-182.0,-11865.0,-0.5419648141826648,-0.7077016100612854,0.16451735996763847,-0.422334712726639
-4822.246449708939,932.0,-268.0,-17148.0,-1654.0,144.0,-11395.0,-0.7519178285352682,-0.5558396059130575,-0.34212114314948533,0.09281721305508704
-4822.2620050907135,1224.0,324.0,-16896.0,-434.0,331.0,-9574.0,-0.525578848360522,-0.18744790447640913,-0.6379663146844348,0.5306874207962643
-4822.277597904205,712.0,816.0,-15908.0,-761.0,42.0,-6449.0,-0.20607824849382209,0.17789772294353715,-0.6793534538687186,0.6814418833516663
-4822.29318189621,-32.0,-440.0,-16184.0,-1401.0,-256.0,-8292.0,0.23670269311549955,0.5722634183805713,-0.50745785515257,0.59914350559712
-4822.308769464493,84.0,-908.0,-16756.0,-298.0,679.0,-12090.0,0.6279211388580939,0.7327110707094474,0.06501460920828334,0.25420981653835456
-4822.32438325882,664.0,60.0,-16380.0,336.0,-141.0,-9530.0,0.6290625709677026,0.5383516119402706,0.5181401923897216,-0.21444944569561994
-4822.340021133423,476.0,184.0,-16344.0,159.0,452.0,-8249.0,0.3622020090362243,0.1481979345074536,0.7524443776693699,-0.529787254821784
-4822.355617523193,548.0,452.0,-16348.0,-466.0,-413.0,-8341.0,0.007731696223374255,-0.349974900359674,0.7019167885314542,-0.6202988086151991
-4822.371205568314,1224.0,-136.0,-16260.0,-885.0,-1240.0,-6867.0,-0.2685164956752854,-0.7145208881498795,0.45972164543394634,-0.45388853330666645
-4822.386829614639,1944.0,-684.0,-16508.0,-391.0,-69.0,-6140.0,-0.469743018960256,-0.8409992782474458,0.08289494496561678,-0.25532359511907127
-4822.402440547943,1688.0,-100.0,-16480.0,-88.0,179.0,-3097.0,-0.5272563881148453,-0.8262267880190539,-0.14453126845876435,-0.13587018948064108
-4822.418025493622,912.0,-44.0,-16384.0,-284.0,288.0,-1903.0,-0.5584084537835341,-0.7748421283659583,-0.2875340669199778,-0.07158096962777183
-4822.433593273163,364.0,88.0,-16212.0,-113.0,9.0,-1595.0,-0.5699951663429552,-0.7224365448592619,-0.3913868286328082,0.0027017346707390415
-4822.449159860611,496.0,536.0,-16400.0,370.0,659.0,-948.0,-0.5207509696436148,-0.7048404941265112,-0.48123272790226235,0.020817469838520074
-4822.4647443294525,232.0,1220.0,-16232.0,231.0,921.0,-636.0,-0.4641183584350864,-0.6870279092015265,-0.559087969154813,0.0027283856117532863
-4822.480310678482,12.0,392.0,-16632.0,-315.0,552.0,-467.0,-0.45459201084117057,-0.6501970981371625,-0.6081722585691637,-0.02676455044039808
-4822.495884895325,976.0,-500.0,-16724.0,54.0,577.0,-49.0,-0.42017963569705474,-0.6476622166646352,-0.6332455292081609,-0.05461525966630459
-4822.511467695236,1440.0,-76.0,-16472.0,406.0,869.0,1230.0,-0.339905410416281,-0.7198303782732052,-0.5921378233991326,-0.12522514358119813
-4822.527087211609,1304.0,452.0,-16256.0,144.0,1225.0,2186.0,-0.23772946179821253,-0.8046796256733773,-0.48137000844344835,-0.2534922444384442
-4822.542688131332,948.0,180.0,-16216.0,-246.0,1095.0,2437.0,-0.15079031398345136,-0.8547210523277505,-0.31894401313524623,-0.38077410678996876
-4822.558275461197,804.0,-440.0,-16352.0,496.0,908.0,2360.0,-0.009729121456522492,-0.8750446296555542,-0.16720908286106873,-0.4541402458662065
-4822.573892593384,672.0,500.0,-16280.0,384.0,1008.0,1686.0,0.0996118335508736,-0.8473650294514726,-0.05375828779677777,-0.5188063569121885
-4822.589516878128,416.0,20.0,-16808.0,-102.0,921.0,1217.0,0.15010683192704619,-0.805315403903567,0.04841779995068698,-0.5714811946970745
-4822.605140209198,436.0,-332.0,-16680.0,560.0,656.0,823.0,0.22645161798766686,-0.7579083273368518,0.08646987315796464,-0.6056546813987892
-4822.620738983154,684.0,184.0,-16280.0,444.0,317.0,-219.0,0.24144140784958346,-0.7332907502104264,0.05472975170109629,-0.6332419573197734
-4822.636325120926,980.0,216.0,-16428.0,353.0,213.0,36.0,0.2647374297433066,-0.713675953807366,0.0419957432102123,-0.6471607866691831
-4822.651934623718,1336.0,16.0,-16144.0,-14.0,183.0,255.0,0.2773958341084008,-0.7026995176248141,0.06287684805198628,-0.6521590612175879
-4822.667545795441,1376.0,-708.0,-16876.0,131.0,460.0,1210.0,0.349434374555606,-0.6626938748343449,0.13987788892709957,-0.6474307857410492
-4822.6831130981445,656.0,-80.0,-16196.0,359.0,210.0,849.0,0.4140867618409213,-0.6276322063989542,0.1745503628657302,-0.6357217457208167
-4822.69869017601,708.0,-248.0,-15892.0,-403.0,-179.0,167.0,0.403537649404965,-0.6492665655442125,0.1994760265254795,-0.6130412769306359
-4822.714247465134,1232.0,-936.0,-16744.0,54.0,-81.0,1133.0,0.46620224145576644,-0.6291182840452495,0.2567330281476975,-0.5665278519187682
-4822.729821920395,1072.0,-12.0,-16500.0,127.0,202.0,1309.0,0.5296575626324027,-0.5809684356378848,0.32841177429554097,-0.5235305622815404
-4822.745407342911,740.0,-116.0,-16264.0,-221.0,-54.0,781.0,0.5541212728075431,-0.5700486591215346,0.37477484192635807,-0.4770093910133867
-4822.761013507843,900.0,-200.0,-16248.0,227.0,-271.0,1000.0,0.613108713930054,-0.5355704261267104,0.4003799385220293,-0.4206636761007366
-4822.776669025421,1224.0,460.0,-16228.0,42.0,105.0,1363.0,0.656590807731657,-0.47865668890999546,0.46499306866305956,-0.35150779715295244
-4822.79227232933,1016.0,136.0,-16500.0,-246.0,489.0,2113.0,0.6788778167793884,-0.3852652606852454,0.5785743527163838,-0.236531831204171
-4822.8079154491425,600.0,28.0,-16264.0,299.0,474.0,1755.0,0.6921173021539871,-0.26587914161246595,0.651318631040757,-0.16144956789567005
-4822.823502063751,260.0,188.0,-16216.0,181.0,203.0,582.0,0.6916652940112396,-0.21875141189732464,0.6736913843747477,-0.14102077674055105
-4822.839096069336,952.0,84.0,-16464.0,255.0,432.0,891.0,0.6791676079804669,-0.14515907533057176,0.7110276243838114,-0.10999963855566926
-4822.854674816132,820.0,-104.0,-16436.0,137.0,676.0,898.0,0.6441928518259391,-0.07451570015560034,0.7576729696863617,-0.07344828856640521
-4822.87028670311,764.0,-344.0,-16328.0,331.0,402.0,561.0,0.6217195426358048,-0.01622870276585192,0.7802650293944053,-0.06624140257732371
-4822.885872125626,1116.0,36.0,-16220.0,536.0,548.0,1108.0,0.5872601084766133,0.09083462951708392,0.8031308052275605,-0.04307603471840154
-4822.901443004608,1320.0,120.0,-16640.0,326.0,769.0,1486.0,0.5302520389629289,0.21226700968451712,0.8206789669882845,0.016171732074581082
-4822.917973995209,1324.0,-416.0,-16484.0,532.0,1169.0,2277.0,0.42231532555575135,0.38836424764376837,0.8126054248659712,0.10244706160365956
-4822.933687448502,1152.0,-280.0,-16344.0,846.0,963.0,2354.0,0.29601400424929225,0.562722840878394,0.7555812130747357,0.1575301370867187
-4822.9493770599365,1524.0,-116.0,-16216.0,589.0,1048.0,2573.0,0.1575525740958997,0.7117088256441761,0.6449417885990054,0.2295600645030827
-4822.96497631073,1292.0,-28.0,-16476.0,574.0,1154.0,3171.0,-0.006502254969200582,0.8384078213823972,0.45551669652543125,0.299223302755143
-4822.980937957764,972.0,-760.0,-16620.0,830.0,1229.0,3244.0,-0.19174905652484642,0.8926535347126059,0.22837762424262698,0.33800240684382
-4822.996588468552,720.0,-476.0,-16416.0,591.0,867.0,2774.0,-0.32600995481421347,0.8835126113345757,0.0147574698958469,0.33601367837792906
-4823.012243270874,944.0,-820.0,-16320.0,513.0,479.0,1992.0,-0.4173637593754109,0.8434042485099273,-0.1351324711896015,0.31018701002076265
-4823.027885913849,1396.0,-352.0,-16300.0,515.0,503.0,2362.0,-0.5015339787239023,0.7657904500262105,-0.3063443125706822,0.26111648165066553
-4823.043495893478,1544.0,-316.0,-16460.0,242.0,784.0,2348.0,-0.5374899700487376,0.6593990999222127,-0.48091462480517183,0.21217559418388343
-4823.0591423511505,1144.0,-784.0,-16264.0,221.0,441.0,1873.0,-0.5582075642776654,0.5545639680827776,-0.596921765609505,0.15667650184093102
-4823.074819326401,920.0,-624.0,-15928.0,258.0,146.0,881.0,-0.572991325040178,0.49263233600103085,-0.641169965786997,0.13377368174483933
-4823.090445518494,1008.0,-504.0,-16236.0,-70.0,38.0,114.0,-0.5688801101580035,0.48940211569216596,-0.6488842742003208,0.1257385705269968
-4823.106018304825,988.0,-352.0,-16456.0,-94.0,72.0,-357.0,-0.5563043395614229,0.5133407838720894,-0.6380428576588387,0.14109582980818694
-4823.12161397934,824.0,-516.0,-16496.0,-85.0,-97.0,-1027.0,-0.5427757052000183,0.5736360237300194,-0.5861258409893619,0.1810876711660639
-4823.137197732925,912.0,-260.0,-16300.0,41.0,-307.0,-1550.0,-0.5307509411276315,0.6498158633107728,-0.4888437013062321,0.23890294676925153
-4823.152788162231,1256.0,-8.0,-16304.0,-288.0,-317.0,-2408.0,-0.46696403974267264,0.7556235277887777,-0.33614192649165564,0.31302759477995634
-4823.168377637863,1488.0,-1060.0,-16432.0,-97.0,-768.0,-1917.0,-0.42364891889188117,0.8236566354393586,-0.17827154590657288,0.3321604978599
-4823.184027433395,1416.0,-280.0,-16112.0,-255.0,-472.0,-1859.0,-0.35353691641812407,0.8636237108890942,-0.03413469606297543,0.35777165517184695
-4823.199623823166,1276.0,-592.0,-16404.0,-717.0,-417.0,-1964.0,-0.2351771958229232,0.8894938044969622,0.10259577068616157,0.3781091987292808
-4823.215281248093,1048.0,-596.0,-16476.0,-233.0,-422.0,-1749.0,-0.15353614225229176,0.8816937973507667,0.2363961202138099,0.378364341717513
-4823.230866909027,1004.0,-104.0,-16132.0,-763.0,-668.0,-3006.0,0.017650756943883465,0.8211864558286178,0.4350976980545367,0.3688241433130222
-4823.246467590332,860.0,-736.0,-16436.0,-738.0,-1135.0,-3494.0,0.21484858101589357,0.6881660883746242,0.6273358463407909,0.2944779413513167
-4823.262063026428,1124.0,-184.0,-16208.0,-622.0,-1060.0,-3489.0,0.3803672679435922,0.48804498040883837,0.7623550771317623,0.18959845713056034
-4823.277683496475,1220.0,116.0,-16312.0,-641.0,-729.0,-3198.0,0.48846734772908856,0.2555181338510941,0.8293395559815848,0.09113744762737151
-4823.293356657028,1072.0,-68.0,-16520.0,-424.0,-752.0,-2566.0,0.5571493157013307,0.05621729306554591,0.8284963254555113,-0.00425378427247748
-4823.308939218521,924.0,-40.0,-16380.0,-400.0,-276.0,-2775.0,0.5610601322411396,-0.15921727122762935,0.8050556443287705,-0.10838264661268755
-4823.324523448944,896.0,-464.0,-16508.0,-561.0,-697.0,-3159.0,0.5499618200985745,-0.39920000258713983,0.704195400015248,-0.20564579491362142
-4823.340099573135,804.0,-528.0,-16440.0,-225.0,-707.0,-2784.0,0.5191958275068194,-0.575952704242466,0.5600494660013571,-0.2916483684283082
-4823.3557024002075,1116.0,-252.0,-16476.0,-253.0,-518.0,-2551.0,0.4549287721583558,-0.7072351229219146,0.40452323874184004,-0.35947078112960396
-4823.371348619461,1148.0,-424.0,-16280.0,-271.0,-461.0,-1705.0,0.39597996370588,-0.7833391119680426,0.2861167243535269,-0.3843395946943486
-4823.386939764023,1104.0,-420.0,-16244.0,-41.0,-495.0,-1057.0,0.36796832427847587,-0.8236499531896797,0.19716208029711738,-0.38383223031845803
-4823.402562856674,1268.0,-52.0,-16372.0,-112.0,-187.0,-953.0,0.32980702552694885,-0.8469968733656643,0.1259808651404048,-0.39743231378478805
-4823.4181587696075,1080.0,-428.0,-16504.0,-100.0,-134.0,-170.0,0.31773466753267204,-0.8563707126869025,0.11302106704451133,-0.39102445179828477
-4823.433753490448,1036.0,-376.0,-16484.0,200.0,-30.0,234.0,0.34065149190848737,-0.8494002586474663,0.12282335901340057,-0.3839142927149297
-4823.449388504028,956.0,-144.0,-16624.0,109.0,-54.0,488.0,0.36511105896139456,-0.8420980569067414,0.15360759726151546,-0.3660184192653747
-4823.464996814728,972.0,-312.0,-16612.0,135.0,-84.0,757.0,0.3992215449625849,-0.828617921223036,0.201812570921677,-0.3365801314452244
-4823.480635166168,992.0,-32.0,-16552.0,568.0,37.0,1365.0,0.47557289695865174,-0.7774384815256106,0.2828113340370467,-0.29906115839689806
-4823.49623298645,576.0,-60.0,-16232.0,213.0,41.0,736.0,0.5068521448879202,-0.7478711805502727,0.32821154134742075,-0.2758020751394128
-4823.511819601059,564.0,-312.0,-16220.0,395.0,-59.0,551.0,0.5463853249533598,-0.7149640760907247,0.3515103858750161,-0.2583213022523403
-4823.527447462082,848.0,-232.0,-16272.0,275.0,206.0,441.0,0.5662532602320681,-0.6830571561048725,0.3822749877193838,-0.2581782340450537
-4823.543058633804,868.0,-152.0,-16396.0,203.0,477.0,557.0,0.5734899796277657,-0.6424706281499525,0.43361155470998036,-0.26518249348918965
-4823.558658838272,724.0,-424.0,-16528.0,310.0,291.0,197.0,0.5836974590784223,-0.6124388044683259,0.4517800690365554,-0.2830384360261456
-4823.574251174927,896.0,-436.0,-16300.0,264.0,193.0,49.0,0.5909339179741416,-0.592229386313331,0.4576379901627941,-0.30104638933962385
-4823.589833974838,1028.0,-448.0,-16440.0,205.0,187.0,0.0,0.5936622441465202,-0.5767605104319519,0.46188440049126617,-0.31870872919331134
-4823.605396270752,1088.0,-468.0,-16640.0,389.0,419.0,924.0,0.6190587471462751,-0.5056308774045043,0.5170912841837936,-0.3061376932329479
-4823.620987176895,744.0,-196.0,-16240.0,179.0,422.0,607.0,0.622543075671234,-0.45645906941882713,0.5608126354126594,-0.2992898675876055
-4823.636573553085,708.0,-752.0,-16612.0,301.0,54.0,471.0,0.6432041788776981,-0.4153044365464814,0.5741299715808523,-0.29014717815557867
-4823.652155637741,772.0,-628.0,-16136.0,405.0,125.0,421.0,0.661168650998148,-0.3679650530466346,0.5855396147432604,-0.2908626724761891
-4823.667801856995,1188.0,-504.0,-16412.0,108.0,252.0,997.0,0.6741127337071405,-0.30330212210952656,0.626997505654319,-0.24587389629850115
-4823.683416366577,1272.0,-608.0,-16456.0,95.0,386.0,1461.0,0.6807153055971017,-0.2078037952175628,0.6806236135814943,-0.17376924944963795
-4823.699010848999,964.0,-592.0,-16356.0,301.0,427.0,1560.0,0.6772907665966992,-0.08994828909959837,0.7225209914005453,-0.10559327514801245
-4823.714628696442,940.0,-76.0,-15904.0,366.0,558.0,1528.0,0.6519497025679862,0.03279316056447202,0.7563731435255553,-0.04225945687035154
-4823.730217218399,912.0,-224.0,-16480.0,-41.0,668.0,1309.0,0.6075612723337279,0.1183612527064893,0.7845535928045368,0.03654550910119175
-4823.745815038681,768.0,-884.0,-16556.0,177.0,379.0,1256.0,0.5717101037160907,0.2111459326660905,0.7871950837274703,0.0942807116159223
-4823.761384963989,956.0,-688.0,-16612.0,218.0,108.0,1096.0,0.5483638492438393,0.29505865863085806,0.7706728091972078,0.13528081154961605
-4823.776969671249,1192.0,-752.0,-16236.0,-32.0,358.0,1567.0,0.5014316581168639,0.3909258124385789,0.7399971088049717,0.2194255690836697
-4823.7925391197205,1204.0,-424.0,-16204.0,-31.0,583.0,1849.0,0.42315621606746506,0.49091763241493347,0.6921436351370386,0.3176096398519214
-4823.808102607727,1072.0,-536.0,-16440.0,5.0,781.0,1889.0,0.31815204187754564,0.5745871460866874,0.630374493831828,0.41383195542076123
-4823.823724269867,724.0,-560.0,-16388.0,168.0,601.0,1479.0,0.22091255140707908,0.6328478143844908,0.573484879918693,0.4709738644173686
-4823.839312314987,700.0,-396.0,-16264.0,-31.0,302.0,632.0,0.18106364406060976,0.6503860790581971,0.5422253800712818,0.5002054999431247
-4823.85488152504,1032.0,-576.0,-16216.0,-159.0,244.0,277.0,0.16623388494269134,0.6500780496418943,0.523201500599377,0.5253808282010403
-4823.870423793793,1184.0,-656.0,-16484.0,-120.0,372.0,860.0,0.11612810374664011,0.6684356463945291,0.4728085648729144,0.5622811673283684
-4823.886014223099,1112.0,-568.0,-16532.0,-148.0,556.0,1117.0,0.046657496988119274,0.6818255099979051,0.40370660839904904,0.6082417498214315
-4823.901592493057,968.0,-568.0,-16444.0,-69.0,496.0,852.0,-0.01192661375289171,0.6828854334639053,0.3501649075200015,0.6410224474920612
-4823.917186021805,800.0,-284.0,-16216.0,-189.0,263.0,94.0,-0.013957572438288154,0.6711497407464416,0.333664782085782,0.6618391230980998
-4823.932867050171,1012.0,-460.0,-16308.0,-224.0,144.0,-177.0,0.00518174011363179,0.6579006396907111,0.3308788817276702,0.6765050358205728
-4823.948456287384,1120.0,-476.0,-16416.0,-341.0,508.0,-188.0,0.021141377995495304,0.621574938230866,0.3213643660076793,0.7140886377476042
-4823.964047193527,1084.0,-720.0,-16440.0,-358.0,134.0,-202.0,0.04933217502105954,0.6066893065847071,0.31013491484262207,0.7302812857926858
-4823.979814052582,1104.0,-832.0,-16420.0,-134.0,13.0,-225.0,0.0703628508230437,0.5992622031936674,0.3135750858024848,0.7332152116612763
-4823.995373249054,1136.0,-448.0,-16368.0,-53.0,22.0,-57.0,0.07614303150825869,0.5961769720013818,0.3133917709058804,0.7352284371108562
-4824.010957956314,996.0,-80.0,-16200.0,-295.0,113.0,-596.0,0.12639038887068335,0.5699051129431322,0.32576640502444637,0.7437135747045642
-4824.026576042175,912.0,-428.0,-16512.0,-503.0,30.0,-803.0,0.2019329565234509,0.5379729769987037,0.3323675546930598,0.747890343350017
-4824.0421714782715,852.0,-560.0,-16436.0,-189.0,-49.0,-1187.0,0.28804913223535594,0.5008876619072015,0.3729677912396535,0.7259712626994331
-4824.057809352875,996.0,-536.0,-16232.0,-215.0,-163.0,-1359.0,0.3859504912227948,0.4584581954745626,0.4117942927750316,0.6865011010661257
-4824.073414802551,1200.0,-516.0,-16204.0,-213.0,-152.0,-1115.0,0.4643085848206092,0.4184468470310979,0.4365086317030757,0.6471321261692429
-4824.088991880417,1376.0,-460.0,-16424.0,-354.0,136.0,-455.0,0.4969621012082819,0.37878758264812923,0.4382353106933592,0.6461411994724766
-4824.1045553684235,980.0,-652.0,-16672.0,-173.0,195.0,-329.0,0.5133073049661521,0.3476646686278034,0.4477064576514186,0.6443631093052453
-4824.120129108429,1000.0,-560.0,-16260.0,-224.0,-147.0,-968.0,0.5779422282171564,0.30708224657063665,0.4563516767829176,0.6028485894334815
-4824.135758638382,1036.0,-664.0,-16264.0,-346.0,-497.0,-1161.0,0.6636438105420831,0.26796881573470305,0.44154604996087476,0.541116154154423
-4824.15133523941,1160.0,-260.0,-16356.0,-121.0,-80.0,-932.0,0.7110268961628542,0.22821909892894907,0.45169914769355585,0.48818508353901113
-4824.166927814484,1196.0,-144.0,-16440.0,-280.0,307.0,-460.0,0.7229012791886739,0.17951732659019454,0.4675435416123195,0.47601502780678845
-4824.182532310486,796.0,-480.0,-16572.0,-89.0,172.0,-637.0,0.7423468180466412,0.14063898310051753,0.4841233737844286,0.44132350619932076
-4824.198168039322,796.0,-360.0,-16228.0,-9.0,10.0,-1200.0,0.7838198194913043,0.08857434801039009,0.4967076346246646,0.36202569128823425
-4824.2137887477875,1120.0,-508.0,-16172.0,-1.0,-62.0,-1367.0,0.8237006600651292,0.03104330841249268,0.49973069038927825,0.2661254829852507
-4824.229378938675,1504.0,-636.0,-16548.0,65.0,72.0,-683.0,0.8345774988684364,0.004266096769410415,0.5076293420935121,0.21395011064864441
-4824.244943141937,956.0,-268.0,-16372.0,-116.0,84.0,-739.0,0.8427178412721095,-0.038403532137332407,0.511038006742634,0.16489986169056733
-4824.26055264473,952.0,-648.0,-16496.0,-162.0,5.0,-1074.0,0.8534171854749986,-0.09788007689690638,0.5034988020991128,0.09266905830613552
-4824.276161193848,1208.0,-604.0,-16264.0,57.0,45.0,-772.0,0.8560438322620573,-0.1276959089682689,0.499846892090841,0.03218379321934529
-4824.291777610779,1156.0,-292.0,-16228.0,-134.0,196.0,-487.0,0.8462481173542703,-0.15940134148707796,0.5083847309965263,-0.0005490865713842275
-4824.307337999344,1060.0,-560.0,-16532.0,0.0,504.0,-263.0,0.8226764939955591,-0.17093158603916822,0.5415339087184987,-0.026959318043568284
-4824.322906732559,968.0,-276.0,-16336.0,57.0,285.0,-419.0,0.8080792590587998,-0.1858764464674088,0.5553122453145328,-0.06392314081271155
-4824.3384745121,860.0,-336.0,-16416.0,-129.0,248.0,-638.0,0.7887536656191516,-0.22418758058283794,0.5623782998232124,-0.10648113247293266
-4824.3540296554565,1264.0,-844.0,-16596.0,88.0,272.0,-108.0,0.7756430968834551,-0.2209409577787228,0.5781957839848949,-0.12350107212067708
-4824.369597673416,1204.0,-440.0,-16556.0,185.0,271.0,112.0,0.7661864805551236,-0.19986137523477354,0.596665344902481,-0.13040005328304585
-4824.3851952552795,1144.0,-272.0,-16196.0,-56.0,293.0,103.0,0.7506288845528128,-0.19492610306580158,0.6186890227871726,-0.1256343309021616
-4824.400784730911,1144.0,-628.0,-16628.0,-118.0,309.0,129.0,0.7327813733050241,-0.19230000919799636,0.6423380456009518,-0.11599138146087755
-4824.416366100311,1096.0,-264.0,-16316.0,138.0,415.0,359.0,0.7143720876714362,-0.15903563487802608,0.6729096210762958,-0.10757708425986048
-4824.4319977760315,1256.0,-120.0,-16360.0,-227.0,233.0,-335.0,0.6935859143344139,-0.19057536027687397,0.684572050029539,-0.11824009392160251
-4824.447586774826,1240.0,-532.0,-16404.0,-219.0,216.0,-41.0,0.6761301714336979,-0.20405079633218626,0.6991808374700055,-0.11116393438512645
-4824.463214635849,1252.0,-460.0,-16456.0,40.0,287.0,484.0,0.6629805158257561,-0.16924421266941483,0.7236775702649391,-0.09002225507483377
-4824.47883939743,1096.0,-260.0,-16272.0,-191.0,355.0,131.0,0.6380816304993827,-0.16917371135172526,0.7473450492078495,-0.07554777052467852
-4824.494465351105,1072.0,-620.0,-16108.0,-486.0,66.0,-444.0,0.6223819487893746,-0.22444187940761123,0.7466241677518511,-0.06941833128198391
-4824.510033130646,1368.0,-1096.0,-16284.0,-136.0,56.0,-233.0,0.6142212910396784,-0.24667663280270466,0.7458986652662134,-0.07428341414307685
-4824.525605201721,1412.0,-124.0,-16296.0,-230.0,414.0,475.0,0.5841353024409063,-0.22508605240258306,0.7786536511228516,-0.04266976739033663
-4824.541179656982,900.0,-496.0,-16728.0,-458.0,748.0,346.0,0.5235506632203686,-0.22144546480909855,0.8226683472619893,-0.00856735491393942
-4824.556750059128,656.0,-568.0,-16560.0,-229.0,23.0,-216.0,0.5168342754148911,-0.24735655733227382,0.819567612233747,-0.002448321581132595
-4824.572339296341,1028.0,-156.0,-16204.0,-173.0,-4.0,-682.0,0.5119930544320793,-0.30342050088432365,0.8033491822832998,-0.02071721943624458
-4824.5879538059235,1444.0,-404.0,-16140.0,-504.0,58.0,-723.0,0.49152983049890586,-0.3754750633429328,0.7855248616280877,-0.01917274892943945
-4824.603540420532,1480.0,-440.0,-16356.0,-79.0,344.0,264.0,0.4651664104513902,-0.36000137661898396,0.8085984207023222,-0.01370450502265246
-4824.619124650955,1200.0,-460.0,-16520.0,-87.0,430.0,374.0,0.4316950886134365,-0.33626979116117117,0.8369750423557445,-0.005895463769657861
-4824.634707212448,900.0,-492.0,-16584.0,16.0,136.0,-152.0,0.42178696469402494,-0.3467036084371342,0.8376218584074392,-0.016792457501489794
-4824.650290250778,1132.0,-376.0,-16284.0,44.0,64.0,-183.0,0.4178096925445918,-0.3583737618823311,0.8343743534331265,-0.028683548301282603
-4824.665876626968,1348.0,-16.0,-16176.0,-33.0,364.0,135.0,0.3900830121223272,-0.348691353928695,0.8515745294358743,-0.03271703172683482
-4824.681514501572,1260.0,-536.0,-16320.0,-391.0,181.0,-212.0,0.3635029529264816,-0.37696407434626567,0.8517603580056238,-0.01637016787094799
-4824.69713973999,1320.0,-952.0,-16488.0,125.0,14.0,42.0,0.366304253381236,-0.36989399014850805,0.8534541596508636,-0.02481183954221768
-4824.7127277851105,1412.0,-212.0,-16624.0,-193.0,123.0,101.0,0.35074026816993875,-0.3682405939866139,0.8609617955210181,-0.011176577190256963
-4824.728294610977,1284.0,-812.0,-16588.0,-500.0,175.0,630.0,0.3210010308249449,-0.3352297378848588,0.8848646960705592,0.03992280920637457
-4824.743933439255,1124.0,-644.0,-16412.0,60.0,100.0,679.0,0.31180003218439284,-0.28100252582226326,0.9061975198116768,0.051228658956538296
-4824.759486436844,804.0,-124.0,-16216.0,-299.0,112.0,121.0,0.29463030348633984,-0.27997778028621256,0.9105663180257885,0.07532866181282498
-4824.775117397308,1100.0,-740.0,-16564.0,-232.0,116.0,45.0,0.2790764946116033,-0.2830905926377853,0.9129726216719636,0.09196204974177616
-4824.790675878525,1048.0,-348.0,-16460.0,-136.0,86.0,-289.0,0.2707749786460623,-0.31002040127084224,0.9065475180451137,0.09348721442708104
-4824.806256771088,1136.0,-196.0,-16372.0,-4.0,63.0,-517.0,0.26932588727170376,-0.3511992743451791,0.893180795347232,0.0796912979415902
-4824.821835756302,1372.0,-124.0,-16304.0,-18.0,206.0,-470.0,0.2554275486364396,-0.3893328184545066,0.8826863654617013,0.06357282516816012
-4824.837429523468,1408.0,-480.0,-16300.0,109.0,327.0,331.0,0.23160096873707717,-0.3629422032426269,0.9011117000342939,0.05129963398251626
-4824.853028297424,1120.0,-336.0,-16100.0,-83.0,220.0,-215.0,0.2122432058725668,-0.38239516144458063,0.8980942033872432,0.04640650716161832
-4824.868658065796,988.0,-652.0,-16340.0,-17.0,86.0,-480.0,0.20638680224039846,-0.4203309706963708,0.8828598799606944,0.035844041209351904
-4824.884254455566,1136.0,-356.0,-16392.0,-1.0,44.0,-568.0,0.20417281980751992,-0.4637097886163473,0.8618076067809177,0.02396540189055064
-4824.899867773056,1236.0,-332.0,-16400.0,-132.0,100.0,-517.0,0.19186088471040075,-0.5046233841249795,0.8415002567364305,0.020541641242050216
-4824.91548204422,1240.0,-568.0,-16236.0,-159.0,2.0,-679.0,0.18527321061620777,-0.5561623520157981,0.8098957944664794,0.020641650460365882
-4824.931134939194,1304.0,-896.0,-16496.0,-218.0,-14.0,-999.0,0.17647210766707144,-0.6278164281636144,0.7578180423457457,0.020394666917713643
-4824.94672203064,1036.0,-732.0,-16364.0,-96.0,-62.0,-419.0,0.17562269710374642,-0.6564679032191617,0.7332467872706104,0.023573486427998763
-4824.962301015854,1224.0,-564.0,-16152.0,-385.0,-85.0,-556.0,0.15955853919622673,-0.6965841073138545,0.6980990037574163,0.04437831632937034
-4824.977912187576,1276.0,-720.0,-16248.0,-323.0,-225.0,-673.0,0.155589196825045,-0.7395478071209631,0.6513289222382537,0.06805643150993944
-4824.993544101715,1360.0,-364.0,-16316.0,-186.0,-44.0,-298.0,0.14750891788572268,-0.7584345969905801,0.6301236772200847,0.07721549480873605
-4825.009167909622,1136.0,-152.0,-16544.0,-433.0,127.0,-92.0,0.11212178591878226,-0.7693418152564696,0.6222756962826267,0.09118571289535983
-4825.024756669998,936.0,-728.0,-16504.0,-170.0,135.0,77.0,0.09252937001122502,-0.7677812285496777,0.6273077416039451,0.09184387892413545
-4825.040356636047,776.0,-260.0,-16168.0,-101.0,244.0,-596.0,0.07684126134929141,-0.8019122672091629,0.5876053065880029,0.07584286336452054
-4825.055967569351,1008.0,-232.0,-16240.0,-133.0,32.0,-904.0,0.07143691651621728,-0.8467104452624886,0.5220348351787597,0.07387705802167947
-4825.071547269821,1192.0,240.0,-16388.0,-34.0,177.0,-922.0,0.06635581634399722,-0.8871151926606238,0.4532857853505785,0.056174170106334693
-4825.087141752243,1256.0,-148.0,-16636.0,-149.0,204.0,-988.0,0.051177159202900814,-0.9244276437402014,0.3757694252223164,0.04014684212923816
-4825.102731704712,1052.0,-436.0,-16196.0,118.0,7.0,-959.0,0.0634179147470364,-0.9520154839791986,0.297793181169708,0.031046861384289755
-4825.118318080902,1640.0,-388.0,-16404.0,-130.0,134.0,-352.0,0.049851466248662095,-0.9616822538276569,0.2687709853394027,0.0210767982744824
-4825.133948564529,1676.0,-836.0,-16524.0,-164.0,400.0,679.0,0.02524537912742295,-0.9448827874753485,0.32637944764561067,-0.005970336680164368
-4825.1495316028595,976.0,-608.0,-16404.0,75.0,279.0,682.0,0.02361560745230188,-0.9232198954547768,0.38238416406321857,-0.0298274838832095
-4825.1651446819305,888.0,-140.0,-16312.0,-26.0,82.0,-318.0,0.01762147589757798,-0.9332956303858643,0.3568476418085562,-0.036173338600626694
-4825.180762290955,1048.0,-660.0,-16428.0,-82.0,96.0,-483.0,0.00609404686888357,-0.9472660275414314,0.3176037329155512,-0.042164018982344294
-4825.196329593658,1152.0,-96.0,-16328.0,5.0,18.0,-413.0,0.004196185501970675,-0.9580314880849145,0.28326215360080154,-0.04382478981664918
-4825.211945295334,1432.0,-436.0,-16484.0,-346.0,-140.0,-156.0,-0.022161443837826346,-0.9619452535782071,0.27130665824373873,-0.02372544452684896
-4825.227531194687,1760.0,-692.0,-16576.0,231.0,177.0,1251.0,-0.004132099176628028,-0.9265894509287423,0.37317412912154596,-0.046432580569492586
-4825.243111371994,1392.0,-68.0,-16132.0,-157.0,397.0,1238.0,-0.024863162115889327,-0.878899083337643,0.4706974246858369,-0.07322676335856305
-4825.2587032318115,988.0,-732.0,-16472.0,-217.0,195.0,721.0,-0.044596282701723805,-0.8456424818337709,0.5257721483603454,-0.08039659505075558
-4825.274297714233,868.0,-700.0,-16248.0,134.0,-32.0,197.0,-0.03161238931562792,-0.8371835153909527,0.5393973416978441,-0.08470493591699772
-4825.289934873581,1116.0,-80.0,-15876.0,-127.0,0.0,-42.0,-0.04111165935076887,-0.8387783708639152,0.5372442979979823,-0.07828946484015407
-4825.305525064468,1312.0,-432.0,-16640.0,-263.0,147.0,110.0,-0.06627088291871913,-0.8313729227743658,0.5463740054241615,-0.07682889789356646
-4825.321176528931,1252.0,-444.0,-16460.0,-252.0,158.0,304.0,-0.08971452944640526,-0.8138287088974373,0.5688420668346688,-0.07779999215811678
-4825.336763381958,1188.0,-452.0,-16284.0,-196.0,35.0,252.0,-0.1033275909820341,-0.7992614165683999,0.587596255728545,-0.07235493888269423
-4825.352361679077,1196.0,-728.0,-16312.0,6.0,-35.0,227.0,-0.09934732364733878,-0.7877611442075385,0.6036185403326392,-0.07216056213496617
-4825.367979764938,1212.0,-60.0,-16332.0,-193.0,112.0,-74.0,-0.11866750231972288,-0.78914701543545,0.5986818288002611,-0.068884539534607
-4825.383557319641,1068.0,-496.0,-16600.0,-511.0,61.0,-212.0,-0.15782222516272004,-0.7936658387069339,0.5858725582589474,-0.04404573978744383
-4825.399128675461,1024.0,-436.0,-16456.0,115.0,-83.0,-432.0,-0.14683364934806323,-0.8170460623161713,0.5562539080914773,-0.038173304883484666
-4825.414715528488,1120.0,-284.0,-16068.0,-178.0,-221.0,-781.0,-0.15067772434211965,-0.851213249718921,0.5027108298686558,-0.0037481225701693904
-4825.4302842617035,1576.0,-572.0,-16248.0,-34.0,-151.0,-158.0,-0.1462942244434036,-0.8576192251923231,0.49291759898131393,0.010931838341247944
-4825.445853710175,1560.0,-276.0,-16416.0,-168.0,191.0,433.0,-0.16703778466853214,-0.8362635251903808,0.5222628453952514,-0.0017931114973723091
-4825.461431026459,1464.0,-260.0,-16504.0,-125.0,243.0,605.0,-0.18651406618914879,-0.8055197482044736,0.5619923231902315,-0.022695088487112533
-4825.477037906647,904.0,-300.0,-16412.0,-102.0,129.0,137.0,-0.19938143632966673,-0.7967944758529867,0.5696708339891484,-0.02899563759242708
-4825.492709159851,992.0,-616.0,-16520.0,-129.0,-182.0,-269.0,-0.19956842159522248,-0.8080544423124041,0.5542497969920638,-0.0052560341929184596
-4825.508303403854,1356.0,-544.0,-16228.0,-43.0,-1.0,316.0,-0.2020125344947536,-0.7917599157584171,0.576395677880332,-0.008671460436562162
-4825.523921489716,1164.0,-104.0,-16364.0,-293.0,109.0,229.0,-0.22711766819414134,-0.7746040953166992,0.5902333376797438,-0.0055378158224766855
-4825.53951883316,1204.0,-624.0,-16492.0,-328.0,63.0,157.0,-0.2520129108937105,-0.7596490025495034,0.599505980407768,0.003932572153737479
-4825.555106163025,1020.0,-348.0,-16604.0,-55.0,-75.0,-334.0,-0.25118991538593005,-0.7755911730641893,0.5787903012962251,0.019072120981914357
-4825.5707058906555,1208.0,-404.0,-16320.0,-242.0,-125.0,-213.0,-0.26047333526383976,-0.7805435175838922,0.566515915075764,0.04433031400932814
-4825.586290836334,1320.0,-412.0,-16156.0,-141.0,39.0,0.0,-0.2716842455831008,-0.77749024000553,0.5651025459837328,0.04853565617963507
-4825.601870775223,1196.0,-456.0,-16464.0,-366.0,186.0,10.0,-0.30523864055100336,-0.7686879178348321,0.5595319663462707,0.053593245152738715
-4825.617440223694,1012.0,-668.0,-16484.0,-154.0,100.0,65.0,-0.3204111747946395,-0.7618480924675479,0.5604998379705763,0.052574658393898466
-4825.633011579514,1008.0,-304.0,-16352.0,116.0,-132.0,-158.0,-0.3051504359801316,-0.7721259295542818,0.5541704293925421,0.05999912930999502
-4825.648588895798,1276.0,64.0,-16364.0,-182.0,-224.0,-88.0,-0.30571724649391957,-0.7701730321872486,0.5531324890336621,0.08610990223604277
-4825.664153814316,1428.0,-324.0,-16320.0,-96.0,229.0,497.0,-0.3262903426368826,-0.7445451986812001,0.5790996639658277,0.061892153116074045
-4825.679804325104,1144.0,-412.0,-16328.0,-100.0,162.0,316.0,-0.34220846160496116,-0.7263076916594506,0.5942498115134002,0.04730398882308538
-4825.695441246033,1152.0,-548.0,-16368.0,33.0,0.0,8.0,-0.3398485903820498,-0.7269534012079522,0.5949721781042837,0.04527466586699942
-4825.711062669754,1160.0,-316.0,-16324.0,-33.0,160.0,535.0,-0.3516442845599644,-0.6980781567702229,0.6233759428292446,0.02087146564928578
-4825.726654052734,916.0,-576.0,-16560.0,-86.0,254.0,421.0,-0.3708129962101127,-0.6724439557406202,0.6405532797856839,-0.002888595746942903
-4825.742234706879,1012.0,-232.0,-16292.0,189.0,192.0,-136.0,-0.37005504375800974,-0.6859568943446049,0.6261859903330647,-0.020334925644342052
-4825.757823467255,800.0,-100.0,-16228.0,-77.0,83.0,-1093.0,-0.37909573549249026,-0.7397448348507791,0.5557555311505025,0.01413478824122897
-4825.773404836655,1068.0,-292.0,-16440.0,223.0,249.0,-1069.0,-0.373375672617532,-0.7955758704607608,0.476597331094805,0.022463869464479543
-4825.788995027542,1280.0,-64.0,-16268.0,-157.0,-160.0,-1247.0,-0.372606182718745,-0.8370123155189781,0.392611750120257,0.08019370260084555
-4825.804578065872,1864.0,-976.0,-16564.0,-125.0,-190.0,92.0,-0.37550257285039734,-0.8283815040451923,0.4046150551415261,0.09522898031259602
-4825.820136785507,1780.0,-720.0,-16596.0,353.0,39.0,1131.0,-0.35856199111444476,-0.7961827230060616,0.48550697268894527,0.04253645007653466
-4825.8357474803925,1216.0,-252.0,-16200.0,-246.0,203.0,1067.0,-0.38609931500906,-0.7406411790602828,0.5498628028346393,0.005372233107695798
-4825.851305961609,824.0,-696.0,-16444.0,95.0,20.0,801.0,-0.3800493472052654,-0.7037657134987374,0.5996030589205579,-0.027431476912023946
-4825.8668892383575,632.0,-12.0,-16156.0,4.0,-142.0,-24.0,-0.372095677449725,-0.705528516958335,0.6028650215187925,-0.018113100533826962
-4825.882484674454,936.0,-332.0,-16352.0,89.0,-63.0,-424.0,-0.36339985008345616,-0.7303764011801582,0.5783288726498893,-0.005155251492430462
-4825.898066520691,1096.0,-468.0,-16348.0,116.0,-29.0,-520.0,-0.35408615962887735,-0.7595727468105623,0.5455447193589884,0.007293355980163462
-4825.913688659668,1160.0,-612.0,-16152.0,4.0,-73.0,-236.0,-0.34980847368211887,-0.7707915843623613,0.5321149089720407,0.019185642184308536
-4825.929398775101,1328.0,-488.0,-16548.0,149.0,33.0,72.0,-0.3410969755895,-0.7720512385519274,0.5362173342335411,0.007791582740722008
-4825.9449961185455,1184.0,-352.0,-16328.0,108.0,165.0,-262.0,-0.3409166348717277,-0.7874002341599998,0.5135916001535821,-0.0006225465426856195
-4825.9605939388275,960.0,-460.0,-16352.0,453.0,80.0,-316.0,-0.31270970822122746,-0.8141503803233666,0.4889598197814604,-0.01703206513590874
-4825.976186752319,952.0,-380.0,-15876.0,193.0,-51.0,-487.0,-0.29691778947243547,-0.839466501564311,0.4550449394350873,-0.008361945987416793
-4825.9919176101685,1012.0,-788.0,-16524.0,455.0,50.0,-277.0,-0.2651681005518712,-0.8613509197770018,0.43270658797378014,-0.02292335431639665
-4826.007529973984,1024.0,112.0,-16712.0,580.0,324.0,-138.0,-0.23335301507526665,-0.8778620970288405,0.41299539039253025,-0.0658734883692268
-4826.0231330394745,912.0,-200.0,-16604.0,440.0,283.0,-725.0,-0.2130487349707139,-0.9086274336043795,0.34814499416760913,-0.0883260237129052
-4826.038702964783,1140.0,-452.0,-16292.0,801.0,42.0,-1091.0,-0.1578078141089778,-0.9497840900632094,0.2529567117403331,-0.09497251209937409
-4826.054287195206,1580.0,-432.0,-16308.0,562.0,134.0,-431.0,-0.1172122189598025,-0.9640639855753664,0.21034349606028507,-0.1122387682941855
-4826.069859027863,1552.0,-956.0,-16536.0,910.0,354.0,386.0,-0.042892827289810184,-0.9588330700194304,0.22934787769801238,-0.16186074323200866
-4826.08549952507,1104.0,-604.0,-16696.0,1350.0,651.0,907.0,0.06917012551751356,-0.9258436184687506,0.28049809915562873,-0.24361835777843383
-4826.101066827774,600.0,16.0,-16584.0,1503.0,694.0,305.0,0.17809593211439734,-0.8851688241356657,0.27446278778242883,-0.3307992893965832
-4826.1167368888855,408.0,-356.0,-16524.0,1503.0,553.0,-1201.0,0.24247231693217935,-0.8617161982089057,0.14474897653253588,-0.421544900406486
-4826.132324934006,764.0,-636.0,-16696.0,2497.0,642.0,-640.0,0.3881737125063669,-0.7730525056918258,0.017905010635478474,-0.5013884750936719
-4826.147933721542,908.0,96.0,-16352.0,1781.0,678.0,-2244.0,0.39606935350299033,-0.6652001027635558,-0.18252023077418894,-0.6060728139895528
-4826.163509845734,1572.0,-1752.0,-17136.0,2540.0,845.0,-681.0,0.5063632046487202,-0.5075941197925115,-0.3181314409567559,-0.6202716346929965
-4826.179101705551,1608.0,-308.0,-16408.0,2935.0,1493.0,-234.0,0.6390697072644104,-0.27946946630275,-0.4050741217313953,-0.59110209149095
-4826.194669485092,1240.0,-984.0,-17104.0,2863.0,1874.0,159.0,0.7504478340114114,-0.027728947669611453,-0.4259835803104018,-0.5045762015738049
-4826.210236549377,536.0,-1112.0,-17836.0,4359.0,2219.0,23.0,0.7765981703397847,0.32608133603027023,-0.43487966471573425,-0.31850576342405973
-4826.225807189941,540.0,100.0,-17932.0,5839.0,2865.0,150.0,0.6288454911047082,0.6920765299852074,-0.35434920776387985,-0.004479276506712448
-4826.241398096085,428.0,1104.0,-17504.0,6672.0,4035.0,-70.0,0.28965909956410335,0.8780530199443276,-0.1086252137282555,0.3651315696414783
-4826.256990909576,128.0,1688.0,-17616.0,6810.0,4101.0,-346.0,-0.1498283921260162,0.7581176418732278,0.19593187592628936,0.6036719257920764
-4826.272577762604,1632.0,-328.0,-19180.0,5557.0,3882.0,227.0,-0.5127101667754883,0.41744485825834143,0.36399949420842465,0.656027776404883
-4826.28825879097,2820.0,-3120.0,-22336.0,7388.0,5251.0,2463.0,-0.8427280917237094,-0.10460552067554262,0.35767871188085765,0.38850094920239786
-4826.30388379097,2060.0,-1400.0,-22236.0,9117.0,7332.0,4493.0,-0.7696658064220651,-0.5961583859167006,0.1139629532745278,-0.1980458800551384
-4826.319475889206,-700.0,-692.0,-20628.0,9681.0,8186.0,2766.0,-0.19818185756432122,-0.7132915264678951,-0.3039598680759785,-0.5996228382914455
-4826.335076332092,-1880.0,212.0,-19728.0,9213.0,7875.0,-1300.0,0.3535869975716217,-0.29195052227071894,-0.6871749607911206,-0.5634995128266416
-4826.35066819191,-1468.0,828.0,-20188.0,8907.0,8484.0,-1757.0,0.6798047365630853,0.34262522863059397,-0.6158219483286335,-0.2030684633539961
-4826.366224527359,-2820.0,796.0,-18408.0,8608.0,7996.0,-2977.0,0.5490185193539098,0.7935744706025647,-0.14095249250846978,0.2212478697523427
-4826.381801366806,-3600.0,2780.0,-15628.0,7328.0,6275.0,-2767.0,0.12933402560632154,0.7956583207825609,0.3707141615020183,0.4612716735848779
-4826.397373914719,-4472.0,3956.0,-14144.0,8035.0,5734.0,12255.0,-0.6519030953358118,0.6193509670950063,-0.054132828585173,0.4341616873002916
-4826.4129474163055,-8648.0,11028.0,-10152.0,6197.0,6599.0,12199.0,-0.8538187107802401,-0.02466340363577722,-0.51442551480834,0.07584006432514347
-4826.4285209178925,-12044.0,15492.0,-7816.0,-2708.0,-1885.0,9277.0,-0.7626513509900456,-0.17223850779263655,-0.2822083846987826,-0.5559273701412157
-4826.444097995758,-9992.0,8792.0,-11932.0,-9611.0,-7198.0,2976.0,-0.6388666061608043,0.03047247871605499,0.48085378146586844,-0.5997503884312627
-4826.459739923477,-3784.0,5204.0,-15920.0,-11701.0,-9489.0,10366.0,0.17690034107045144,0.3298148641697368,0.8468341107340078,-0.37788941980319896
-4826.4753403663635,-2712.0,2316.0,-17896.0,-12695.0,-10948.0,17477.0,0.8244520717756345,0.4552618284045296,0.2538646395315222,0.22038192697714323
-4826.490935087204,-1836.0,2552.0,-19060.0,-15509.0,-12289.0,21826.0,0.46874747224666646,0.02159324030917471,-0.6509379038560117,0.5967322553363881
-4826.506533384323,-1644.0,-2216.0,-21024.0,-14124.0,-9866.0,18430.0,-0.42383232398362564,-0.450450204281424,-0.7546563764675044,0.2189852233973756
-4826.522146224976,-168.0,-528.0,-20704.0,-13564.0,-8997.0,23199.0,-0.7469953131298712,-0.4891145984197523,0.08648416238265383,-0.4419110786477986
-4826.537729501724,-1420.0,-2784.0,-20272.0,-12793.0,-7802.0,19220.0,-0.20968573565614418,0.08032239717965774,0.8122575513773784,-0.5383473553423295
-4826.553364753723,-1400.0,-1356.0,-19088.0,-14181.0,-8475.0,16198.0,0.5554140877581677,0.48366179737995296,0.6746466333719167,0.049379924614103454
-4826.568951129913,-1276.0,-1036.0,-20584.0,-13842.0,-9147.0,16414.0,0.7084074850427932,0.3608323279417923,-0.22963738274975226,0.5614494978992282
-4826.584537267685,-4068.0,-3748.0,-20128.0,-12593.0,-8697.0,7250.0,0.3223728769949406,-0.07659140829456262,-0.9037974604141115,0.2708498382913737
-4826.600107431412,364.0,-1140.0,-18828.0,-14501.0,-8312.0,7192.0,-0.319878475450486,-0.45574082408981265,-0.7632472075493616,-0.32776784828520467
-4826.615707159042,320.0,-3220.0,-18836.0,-13166.0,-8294.0,7661.0,-0.6486779956038515,-0.4607752924186054,0.0824032455913869,-0.600093903511712
-4826.631311893463,544.0,-1572.0,-18092.0,-14276.0,-7699.0,4352.0,-0.5294470926905543,-0.013980370511971109,0.8121684819234016,-0.24468895000000496
-4826.646884202957,1544.0,-1400.0,-17560.0,-14627.0,-6967.0,3390.0,0.010875705053328901,0.4287473054318079,0.8256715657888227,0.36650229545309915
-4826.662469148636,756.0,-1392.0,-17216.0,-14771.0,-6813.0,1257.0,0.582985712439021,0.41574963568417805,0.1723520222458729,0.6764426656769948
-4826.678059339523,428.0,-2428.0,-17160.0,-14490.0,-6097.0,-15.0,0.7076117499874045,0.02269118411381912,-0.5847354116878323,0.3960495168050797
-4826.6936802864075,1312.0,-1788.0,-17028.0,-14340.0,-5254.0,-1609.0,0.3129598972484061,-0.35826143695460494,-0.838290855867307,-0.2664081201366557
-4826.709347486496,44.0,-2420.0,-16820.0,-12484.0,-4557.0,-3764.0,-0.31824347233641437,-0.3383274125002422,-0.5046095114109801,-0.727753320335761
-4826.724935531616,-8.0,-2248.0,-15760.0,-11624.0,-4482.0,-5944.0,-0.7897287905453896,-0.0246187301119594,0.11652789172129185,-0.601783687019166
-4826.740528821945,-232.0,-2340.0,-14664.0,-11160.0,-4320.0,-7358.0,-0.7307015459492223,0.27991129392619707,0.6224227989500773,0.017741973597383238
-4826.7561111450195,-96.0,-3144.0,-14160.0,-10768.0,-4279.0,-8242.0,-0.13946966006080688,0.32980124723050325,0.6777155157613481,0.6422468613734579
-4826.771730661392,1288.0,-4032.0,-13768.0,-9811.0,-3207.0,-5149.0,0.43782971897377754,0.22876181423683192,0.2221618073423764,0.8406053181421023
-4826.787312984467,260.0,-4744.0,-12888.0,-7553.0,-2648.0,-591.0,0.5596782358659732,0.10091159162148368,-0.3450812097847941,0.7466566022127131
-4826.802872419357,-1340.0,-3612.0,-13416.0,-6604.0,-2705.0,1060.0,0.39531760934298205,-0.06542517771645547,-0.7760061414685782,0.4870913695264665
-4826.818481683731,-520.0,-1220.0,-15064.0,-5582.0,-1849.0,417.0,0.1959046518371736,-0.18464186648228506,-0.9557024084755074,0.1190027519203163
-4826.834029912949,-1648.0,-56.0,-17096.0,-5461.0,-2037.0,-3278.0,-0.024382128190714975,0.014267139888010776,-0.950077888358612,-0.3107313415095882
-4826.849621295929,-2108.0,236.0,-17364.0,-4535.0,-1546.0,-3880.0,-0.222085060139598,0.26747790126431803,-0.7213758965159057,-0.5989579403630109
-4826.865193605423,-2688.0,220.0,-15816.0,-1363.0,-945.0,-1246.0,-0.30980364098052604,0.3178792641961222,-0.5933069737523549,-0.6715365308947563
-4826.880788087845,-2788.0,1648.0,-14484.0,-106.0,914.0,-7284.0,-0.5778605561660392,0.6327948502610304,-0.34519312557845716,-0.38273954742614635
-4826.896387338638,-3408.0,2656.0,-14052.0,-270.0,372.0,-8151.0,-0.6709337387487777,0.7367206757275825,0.0773819950850044,0.03320528573503991
-4826.912035942078,-2416.0,2176.0,-14640.0,-1133.0,-1170.0,-17685.0,-0.29205563696051606,0.37258476940500307,0.6937633563105158,0.5427490211578243
-4826.927734375,452.0,-3360.0,-16540.0,-1390.0,-591.0,-28685.0,0.4252501245923499,-0.48190612322613974,0.5838989961944249,0.4959745781534437
-4826.943331956863,5344.0,-6936.0,-16664.0,3759.0,76.0,-24394.0,0.6885459282095598,-0.6690289845721913,-0.11640582684639185,-0.25446887044301947
-4826.958922386169,9588.0,-6292.0,-17192.0,8594.0,6092.0,-14550.0,0.49960726236679803,0.07000439813196027,-0.4253073739761957,-0.7514024256508678
-4826.974514961243,7020.0,-4888.0,-16352.0,13969.0,9460.0,-991.0,0.3930613190635467,0.7497790982659004,-0.5180163525349607,-0.1224465669832081
-4826.990178823471,2576.0,-4368.0,-15080.0,13231.0,8421.0,-24588.0,-0.12981865051252042,0.8795513715326148,0.4528098241573708,0.0670802948769245
-4827.005810260773,9176.0,4224.0,-22760.0,13597.0,17274.0,23102.0,-0.6733427500403644,0.5198429437539575,-0.4857935180868582,0.20094156509316952
-4827.021392822266,-9756.0,9560.0,-23684.0,32257.0,17140.0,32767.0,-0.45126732310998124,-0.6970503542186004,-0.5489432854629999,0.09560269934454248
-4827.036961555481,-19356.0,19512.0,-8112.0,3962.0,2499.0,-26495.0,0.05110058743274125,0.15499462404482228,-0.8721982452481556,0.46112429719899956
-4827.052553653717,-1872.0,8336.0,-20084.0,-7251.0,-896.0,-25624.0,0.4393514980202838,0.8332322162663867,-0.3245170668750829,-0.08592443348623768
-4827.068115234375,2344.0,300.0,-32768.0,9904.0,8931.0,15222.0,0.04236112183767035,0.4182866658004954,-0.5731316516523005,0.7033931407431159
-4827.083731174469,-17276.0,-5080.0,-28488.0,19517.0,7254.0,-13534.0,0.2193170886615501,0.30256566708162824,0.4800359758784482,0.793674677425768
-4827.099358320236,-6052.0,-4800.0,-13736.0,5956.0,4870.0,-16509.0,0.5332879638893441,-0.3260764724349398,0.7571260498467296,0.1898373681302792
-4827.114958524704,2452.0,-1452.0,-10756.0,12014.0,10861.0,8000.0,0.013252661484261777,0.31153912019735763,0.90489872179249,-0.28969992552390794
-4827.1305911540985,-10472.0,-3580.0,-11456.0,9411.0,5457.0,-8352.0,-0.5671582357636669,-0.12769244902782795,0.5772912753421305,-0.5733768023565105
-4827.146193027496,964.0,-3628.0,-12884.0,-181.0,687.0,3984.0,-0.3812153817566562,0.10968774979339947,0.5629285345284563,-0.7250895774116685
-4827.161821603775,7064.0,-6660.0,-15212.0,4035.0,6214.0,19731.0,0.2500182146731026,0.6391055839693329,-0.04187619210145589,-0.7261413976671307
-4827.177411079407,-1496.0,-2112.0,-13924.0,8142.0,6177.0,15097.0,0.4124334759940542,0.6136898050468421,-0.6731585745772513,-0.01187369083958961
-4827.193030834198,-3468.0,-160.0,-16140.0,1316.0,3457.0,611.0,0.518368288619827,0.5977018405918422,-0.5540262455531878,0.2590400477623389
-4827.208701133728,1508.0,960.0,-19752.0,2803.0,4134.0,6136.0,0.3564219423996835,0.27531100414973264,-0.5133924657081352,0.7304761639671918
-4827.224285840988,-2952.0,-768.0,-18508.0,4271.0,4154.0,1356.0,0.3118481195688645,0.07297112497178877,-0.1277346550993645,0.9386745032908698
-4827.239911556244,-976.0,340.0,-16088.0,1162.0,2831.0,-3319.0,0.5655993573518613,-0.08391251694398484,0.06079152222579997,0.8181445149169901
-4827.255474090576,2328.0,-808.0,-15416.0,1014.0,2685.0,-517.0,0.5772716483879473,-0.2215537438998648,0.253825864259897,0.7438036119595894
-4827.2710916996,1304.0,-2600.0,-15948.0,-183.0,2407.0,613.0,0.4695866778043007,-0.36514340489902924,0.36664959563950233,0.7153507670400954
-4827.286701202393,1008.0,-1764.0,-13768.0,-1699.0,1998.0,2008.0,0.21723144242000592,-0.47606860145978575,0.39069660892357,0.7573145627174156
-4827.302284240723,-3116.0,-3860.0,-14392.0,-2345.0,931.0,-1029.0,0.15184554882952014,-0.6006214417562742,0.20499629176981116,0.7577422605107247
-4827.317844629288,-3256.0,-2556.0,-15484.0,-3630.0,673.0,-3652.0,0.17399343617611548,-0.6911317311912935,-0.19808678350944078,0.6729226110832044
-4827.33344912529,-3064.0,-1096.0,-17404.0,-3847.0,820.0,-6203.0,0.2696795878140585,-0.5814718557226795,-0.6614479992893617,0.3894225791540128
-4827.349019050598,-2024.0,-852.0,-17428.0,-4403.0,872.0,-8932.0,0.3013626302758896,-0.15015956067564834,-0.9373043736143718,-0.08996211766218035
-4827.364720821381,760.0,-744.0,-16520.0,-4843.0,1228.0,-9238.0,0.1957602002529051,0.3595587210660824,-0.7285009231943977,-0.549255746448934
-4827.380272626877,3428.0,484.0,-17212.0,-4358.0,1716.0,-5229.0,0.1628215290665717,0.5968219820218906,-0.2783636756212507,-0.7347151390454076
-4827.395867824554,2624.0,-300.0,-16988.0,-3424.0,369.0,-2787.0,0.15987132583586003,0.5967305229793064,0.0853126081618051,-0.7817132473029723
-4827.411453962326,2384.0,1192.0,-16892.0,-3518.0,-468.0,-4290.0,0.04845719772763413,0.4353768657075225,0.4876986726643626,-0.7551482566201804
-4827.4270632267,980.0,1080.0,-16896.0,-2220.0,-620.0,-1139.0,0.08207660239035551,0.3286389713554566,0.6584473936148595,-0.672091428072313
-4827.442657232285,-1956.0,1100.0,-16272.0,-1083.0,-59.0,-2277.0,-0.016620245877521877,0.18234321377818188,0.7686217609508189,-0.612939889719112
-4827.458235740662,-3552.0,916.0,-17020.0,-2306.0,-141.0,-6815.0,-0.28364222149962365,-0.23617601914585123,0.8475288059179518,-0.38139599014995934
-4827.4738121032715,-660.0,1596.0,-17120.0,-1928.0,420.0,-11948.0,-0.5168235148874811,-0.7273225727752708,0.4503135605326083,0.0333620561619846
-4827.489405632019,808.0,616.0,-16236.0,-1635.0,232.0,-8460.0,-0.4833485722774784,-0.7886743125201056,-0.08133243350435322,0.3711495947842621
-4827.504989385605,1768.0,312.0,-15944.0,-1296.0,1239.0,-6468.0,-0.3055188955733283,-0.628552865290854,-0.5356299185321731,0.4740043147013841
-4827.520570516586,1236.0,-1336.0,-16268.0,-2458.0,979.0,-4159.0,-0.2042706994210121,-0.37591570963120213,-0.8190733081148929,0.38220384161366816
-4827.5361495018005,1616.0,-364.0,-16624.0,-1401.0,1916.0,-2060.0,-0.042819309372790756,-0.25809814044403173,-0.933145775085099,0.2465579426524325
-4827.551778554916,196.0,424.0,-16524.0,-858.0,2811.0,-3113.0,0.2190020165169692,-0.05797821666176834,-0.9669716845520425,0.11680070388832062
-4827.567326068878,-1716.0,792.0,-16584.0,13.0,2130.0,-6532.0,0.3989178673049586,0.4046294435663232,-0.8227422460005305,-0.015321396479230873
-4827.582893848419,-1508.0,1832.0,-15656.0,550.0,3066.0,-21015.0,0.2711808519775417,0.9194568414737759,0.011971898372992493,-0.28445867158015914
-4827.598500967026,-768.0,2604.0,-14548.0,-2242.0,-531.0,-13761.0,0.06973379795878304,0.5325118582565516,0.7357291062897087,-0.41263906794745503
-4827.614063024521,-776.0,-1048.0,-17232.0,-2594.0,-1457.0,-13460.0,-0.12843464731464513,-0.25559403064709657,0.9242739940224952,-0.2527722627988252
-4827.629635810852,-292.0,-1588.0,-18192.0,-1161.0,-1492.0,-11249.0,-0.1998176259111801,-0.8382845121483575,0.5072986052291277,0.00034380225634654646
-4827.645215988159,1736.0,88.0,-17000.0,736.0,2742.0,-17158.0,-0.14665246071086702,-0.8863023001955387,-0.4377570354444014,0.03647007478020754
-4827.6608057022095,2632.0,2528.0,-16220.0,-290.0,1331.0,-2987.0,-0.10433016603465874,-0.7428619375023188,-0.6601691209243365,-0.038053778307419746
-4827.6763916015625,504.0,-752.0,-17176.0,1096.0,3676.0,-5783.0,0.13651820928227903,-0.348540831775981,-0.9170844188507742,-0.1372524528757324
-4827.692057132721,-168.0,1856.0,-16916.0,2500.0,840.0,-6038.0,0.17960475924206692,0.15129607528878103,-0.9715744352726454,-0.02991228484169613
-4827.707654476166,916.0,2264.0,-16564.0,2601.0,-3.0,-4787.0,0.11939117927778072,0.5400198270338266,-0.8265888817090472,0.10428400335623705
-4827.723269701004,1884.0,2536.0,-16036.0,2286.0,906.0,-415.0,0.07888675338572063,0.5722182135822219,-0.7590832721220624,0.30022621832460655
-4827.738841056824,1760.0,-1560.0,-14804.0,875.0,3623.0,5014.0,0.12620994459868973,0.13281663952224312,-0.8444032424444595,0.503402378122807
-4827.754452705383,-1644.0,-1880.0,-16392.0,2406.0,2611.0,2028.0,0.18981455873292266,-0.09873273745201845,-0.6910130660167844,0.6904514627708017
