programtime,ax,ay,az,gx,gy,gz,q0,q1,q2,q3
-4008.154739379883,292.0,5140.0,-15596.0,-150.0,-123.0,187.0,0.999727735922176,-0.012757026383224268,-0.010749564286000832,0.016314385475352588
-4008.170377969742,284.0,4864.0,-15636.0,-163.0,-34.0,5.0,0.9994099370311148,-0.026603865753407164,-0.013980650430107794,0.01662989789473067
-4008.1859941482544,248.0,5068.0,-15576.0,-102.0,-89.0,102.0,0.9988179117998349,-0.03516556556598697,-0.021698215210599447,0.025599795368634833
-4008.201600790024,288.0,5208.0,-15812.0,-175.0,58.0,-112.0,0.9984791172951424,-0.05000681197323126,-0.017440953130986626,0.015316142976279985
-4008.2172133922577,128.0,4980.0,-15656.0,-123.0,-106.0,-62.0,0.9977670104858063,-0.06016089597570843,-0.027166806450834587,0.010179587854120145
-4008.2327995300293,360.0,5124.0,-15484.0,-168.0,8.0,-100.0,0.9968671858325644,-0.07424414569435557,-0.027250448764062164,0.0010167017930140599
-4008.2640001773834,112.0,4968.0,-15624.0,-188.0,-7.0,84.0,0.9954881222641088,-0.09048753392419223,-0.02743921758982645,0.00790531298905439
-4008.27960562706,340.0,5264.0,-15520.0,-138.0,113.0,83.0,0.9944915801533885,-0.10246167359354127,-0.017195220954938216,0.013871799621466795
-4008.2952785491943,60.0,5368.0,-15580.0,-286.0,84.0,-129.0,0.991852915661657,-0.12686206762355115,-0.011472312647126953,0.0014817335368235852
-4008.3108797073364,172.0,4976.0,-15660.0,-146.0,-3.0,133.0,0.9900925428276747,-0.13943959115011165,-0.010383780845453567,0.012866007627557819
-4008.326517343521,452.0,5288.0,-15564.0,-131.0,109.0,235.0,0.9880380953385233,-0.15090770388188893,0.0016210651147519814,0.03170109172904207
-4008.3421444892883,268.0,5020.0,-15572.0,-191.0,19.0,-135.0,0.9856915125934351,-0.16738636923149747,0.0009411293873019063,0.01982825439213042
-4008.357755422592,468.0,4868.0,-15688.0,-46.0,-60.0,38.0,0.9849134545550459,-0.1713376262851344,-0.0038077764448310046,0.023966762275441995
-4008.3733797073364,184.0,5224.0,-15796.0,-75.0,91.0,-67.0,0.9838803666422954,-0.17801333296606492,0.002825248667576849,0.016813547873711813
-4008.3889989852905,116.0,5296.0,-15556.0,-57.0,-67.0,-250.0,0.9831001505448986,-0.1829035996114279,-0.0068849857242515395,-0.0036005859741125457
-4008.4045860767365,368.0,4884.0,-15860.0,-168.0,76.0,-8.0,0.980300086479899,-0.197433334987881,-0.0005274839181119775,-0.0056160879428495845
-4008.4202358722687,152.0,5064.0,-15552.0,114.0,-61.0,151.0,0.982153750566868,-0.18786640624888773,-0.0032266387298947445,0.008355384675102042
-4008.4358003139496,176.0,5168.0,-15652.0,-168.0,68.0,-301.0,0.9791473327856574,-0.20228184436612692,-0.002489154201707481,-0.01861075629660286
-4008.451420068741,284.0,4996.0,-15588.0,-41.0,50.0,-153.0,0.9780413168669682,-0.20584581972026927,-0.0009070863319376124,-0.032586165764075074
-4008.4670045375824,260.0,5020.0,-15548.0,-149.0,70.0,-489.0,0.9729468632466993,-0.21830619439729312,-0.0033444896487637914,-0.0755355623211273
-4008.482647895813,252.0,5016.0,-15796.0,-55.0,-31.0,18.0,0.9719400225503969,-0.2234057228393601,-0.005346667424351143,-0.07344309848318281
-4008.4982335567474,508.0,5116.0,-15660.0,-38.0,-27.0,53.0,0.9714555986862369,-0.22703786820517646,-0.006461556969863061,-0.06845490825017012
-4008.5138375759125,292.0,4900.0,-15564.0,-65.0,-25.0,-46.0,0.9697951515504052,-0.23289988059059138,-0.009182886452675223,-0.07190747003345521
-4008.5294275283813,184.0,5188.0,-15404.0,-46.0,21.0,243.0,0.9701203310605448,-0.2370189774194843,-0.0022553275623499467,-0.05180213416055056
-4008.5450253486633,128.0,4996.0,-15860.0,-82.0,-255.0,-107.0,0.9675199606603554,-0.24526124916202663,-0.025722437483021603,-0.05559138056568326
-4008.5606713294983,0.0,4984.0,-15696.0,5.0,-96.0,68.0,0.9676256686603505,-0.24568516907384585,-0.03248473237114118,-0.04779231328928161
-4008.5762746334076,148.0,5068.0,-15772.0,-198.0,26.0,-510.0,0.9601603473938682,-0.2607866872704551,-0.04046491128314395,-0.0918966919417418
-4008.5919444561005,140.0,4872.0,-15656.0,-44.0,-157.0,92.0,0.95913904914576,-0.266264123405913,-0.051294671770434064,-0.08077473391235472
-4008.607553958893,488.0,5164.0,-15520.0,-136.0,89.0,-34.0,0.9559634985487739,-0.2770599764652516,-0.04383092812035156,-0.08631574956849607
-4008.6231620311737,48.0,5060.0,-15612.0,-21.0,-108.0,87.0,0.9555478221148026,-0.2801801859351533,-0.05069307102283418,-0.07653519197907797
-4008.638736486435,260.0,5132.0,-15816.0,-159.0,49.0,-59.0,0.9512879112226988,-0.2930551126271848,-0.047115053231168325,-0.08336775565916867
-4008.654327392578,68.0,5064.0,-15428.0,-144.0,-26.0,-8.0,0.9472759751203427,-0.3053877651465744,-0.04853912565139716,-0.0839672146708621
-4008.669882297516,180.0,5020.0,-15628.0,-511.0,19.0,-209.0,0.9310233527690179,-0.3464571286683109,-0.048847985801500834,-0.10381160280422691
-4008.685488462448,268.0,4948.0,-15820.0,-171.0,71.0,-134.0,0.9246498120160419,-0.35932703430182,-0.045669312343558616,-0.11756326581302393
-4008.7010595798492,240.0,4716.0,-15684.0,-282.0,153.0,-428.0,0.910916540592272,-0.37866188807138534,-0.04389129248524316,-0.1578600172355116
-4008.7167689800262,344.0,5452.0,-15540.0,46.0,772.0,-1255.0,0.8906531981243458,-0.3568733931592916,-0.024519818191194954,-0.28067247895317227
-4008.7323820590973,-1436.0,4156.0,-15920.0,620.0,-1085.0,676.0,0.9170776394036297,-0.3344267111919697,-0.10223752769896355,-0.19150683036694127
-4008.7480165958405,784.0,5088.0,-16204.0,-136.0,758.0,-2690.0,0.8498258444479103,-0.3000459424294377,-0.11462598579748401,-0.41788676686392145
-4008.763618707657,-1492.0,3252.0,-16812.0,2100.0,-877.0,1365.0,0.9213551251780973,-0.18529072479089193,-0.2149841104488973,-0.2656198653508712
-4008.7792863845825,-216.0,5892.0,-15104.0,813.0,-1277.0,-2266.0,0.8346027905829236,-0.10409343351221942,-0.36331033607871993,-0.4007597020025859
-4008.794886112213,972.0,3988.0,-16200.0,903.0,178.0,-1706.0,0.777605565174887,0.02168091792153247,-0.3921508454605922,-0.49099616822503506
-4008.8104915618896,-1024.0,2328.0,-17016.0,1366.0,463.0,-1849.0,0.6970577364603531,0.19354811647796297,-0.40760040570590456,-0.5572356305163766
-4008.8261613845825,-1956.0,4504.0,-16128.0,4858.0,-3084.0,2626.0,0.554018820238144,0.21523213300090602,-0.7668434514387921,-0.2422589456165785
-4008.8417727947235,2772.0,6480.0,-14852.0,-752.0,1306.0,-6844.0,0.4356145350183205,0.5669361085556147,-0.4772763924686831,-0.5109116077059398
-4008.8573744297028,1512.0,2176.0,-17484.0,2710.0,282.0,2144.0,0.39119534949982687,0.5679137776180847,-0.6638382945071726,-0.2894112272650693
-4008.872969388962,28.0,5164.0,-14656.0,-26.0,128.0,-4831.0,0.2558387348893443,0.7833939870845493,-0.3865478155386747,-0.4140304204189245
-4008.888569355011,1596.0,2196.0,-17432.0,2557.0,-1188.0,3239.0,0.14783393486108798,0.6446220207533216,-0.6807199980788514,-0.31500454326710947
-4008.904138326645,676.0,7136.0,-14540.0,1662.0,308.0,-946.0,0.046024366153280614,0.7205013926745798,-0.6599493824266339,-0.20790938773630344
-4008.9198219776154,-244.0,4884.0,-15576.0,948.0,634.0,-1721.0,-0.007996559684948753,0.8216919433693832,-0.5574859672005719,-0.1181854543059092
-4008.9354622364044,-108.0,6628.0,-14860.0,2034.0,1267.0,-1655.0,-0.10562381511187822,0.8857158407033809,-0.4465140117148581,0.07054287030323182
-4008.9511172771454,-260.0,5284.0,-15136.0,-614.0,1661.0,-3539.0,0.02705287300383482,0.9632538358643263,-0.1815273743337221,0.19610711899980687
-4008.9667274951935,-504.0,3264.0,-16732.0,1111.0,1197.0,-1606.0,-0.019417458976408078,0.9520954832231504,-0.024189400940218875,0.30422364470094787
-4008.9823281764984,-740.0,5064.0,-14968.0,293.0,139.0,-2749.0,0.028844967997548064,0.9271191535170625,0.20589051597975852,0.3118126656064737
-4008.9980103969574,360.0,4048.0,-16360.0,245.0,565.0,-1292.0,0.033864681741970916,0.882381270148149,0.3161175665767155,0.3468806156646266
-4009.0136210918427,-24.0,4804.0,-15624.0,551.0,486.0,-923.0,0.006048963792589607,0.8394816884055624,0.4032597302741447,0.36416410422775963
-4009.0292341709137,-380.0,4524.0,-15708.0,-232.0,391.0,-704.0,0.03169429419193862,0.8001046177217613,0.44656912000700516,0.39925442198197125
-4009.044873714447,-120.0,4724.0,-15816.0,41.0,688.0,-490.0,0.019131223050991426,0.7551919929753549,0.48290889057947917,0.44285218013438915
-4009.0604684352875,-208.0,4556.0,-15740.0,-398.0,690.0,-289.0,0.02746197345244764,0.7138389413441812,0.48652145445956974,0.5029678719215177
-4009.0760877132416,-16.0,4804.0,-15540.0,-302.0,-170.0,643.0,0.025289271201070922,0.7464660848762389,0.4320604479223193,0.5054429801993725
-4009.0917167663574,328.0,4716.0,-15856.0,-628.0,493.0,-1247.0,0.10183299428289222,0.6708633963662586,0.4827907405278377,0.5536112765758033
-4009.107296705246,0.0,4468.0,-15964.0,-588.0,777.0,-1333.0,0.16621447939919454,0.5662287182819212,0.5339580280249675,0.6055135091296934
-4009.1228930950165,-368.0,4516.0,-15624.0,-73.0,106.0,-152.0,0.17286638738534932,0.552525238969473,0.539232605608819,0.611605485147402
-4009.1384692192078,184.0,5440.0,-15512.0,-447.0,479.0,-298.0,0.18739232365724529,0.505328031067408,0.5360875605943929,0.6497213444453153
-4009.1540808677673,296.0,4916.0,-15388.0,-436.0,737.0,35.0,0.16965202968320514,0.45691212912648155,0.5206095350216277,0.7010101333975416
-4009.169676542282,-364.0,4248.0,-15904.0,-535.0,739.0,-684.0,0.19825533524741593,0.37101636234760604,0.52371499448541,0.7407862616621825
-4009.185345172882,-104.0,4304.0,-15808.0,-284.0,35.0,-949.0,0.2661688672177674,0.3194036948002239,0.5349069551507274,0.7355337947391362
-4009.200940132141,300.0,4776.0,-15920.0,-371.0,630.0,-830.0,0.2989283169982,0.23066260264748334,0.5465472989505089,0.7474775414996868
-4009.216570854187,-188.0,4704.0,-15872.0,-235.0,393.0,-686.0,0.3287437304659997,0.16585154821911827,0.5540880359505224,0.7465971283423961
-4009.2321672439575,-256.0,4756.0,-15648.0,-396.0,6.0,-295.0,0.3530013574359424,0.1397897697686832,0.5324915089723621,0.7565062159617312
-4009.247801065445,324.0,4712.0,-15652.0,-193.0,5.0,-22.0,0.35644009802417065,0.13256068173452884,0.5203553346590523,0.7645969185593557
-4009.2633848190308,312.0,4452.0,-15772.0,-646.0,857.0,-1124.0,0.39628658488699386,0.004299382256097562,0.5124873358948613,0.7617710866777545
-4009.2789914608,-32.0,3900.0,-16188.0,-200.0,301.0,-129.0,0.39116490052772085,-0.028345565037291895,0.509642321566257,0.765801053542244
-4009.2946412563324,-52.0,4616.0,-15596.0,-362.0,310.0,-924.0,0.4363451157215092,-0.10206618195837258,0.49200837832692207,0.7464001541683492
-4009.3102300167084,68.0,3912.0,-15892.0,-591.0,561.0,-287.0,0.42438035403586893,-0.1729495939054106,0.47126695698442905,0.7535895489794032
-4009.325861930847,-168.0,4624.0,-15580.0,-96.0,231.0,-71.0,0.4178826171587245,-0.1946008882745664,0.47259401756008373,0.7511055232959907
-4009.34144449234,144.0,4308.0,-16012.0,-680.0,342.0,41.0,0.3885760376528742,-0.23964166106732757,0.44049864859650906,0.7730080709976666
-4009.3570256233215,-136.0,4120.0,-15652.0,221.0,-488.0,680.0,0.364943667290905,-0.17267758543582917,0.45206457145319506,0.7953843061245026
-4009.372659921646,420.0,4440.0,-16168.0,-301.0,244.0,480.0,0.3169119451084104,-0.1800427907177897,0.4458139391754458,0.8175581595183463
-4009.3882558345795,148.0,4784.0,-15840.0,-458.0,349.0,-149.0,0.3062716524802995,-0.2231507814300277,0.420168298230378,0.8245362361936209
-4009.4039137363434,-240.0,3944.0,-16052.0,-352.0,162.0,285.0,0.27265229802589025,-0.23364593027414898,0.4046400044040986,0.8410331565897861
-4009.4195096492767,276.0,4808.0,-15644.0,-134.0,212.0,197.0,0.24779845696915986,-0.24541896266090588,0.4039870391819702,0.8456712893690632
-4009.435090303421,292.0,4616.0,-16060.0,-216.0,444.0,344.0,0.20177866622430748,-0.2704415434676856,0.4047297120946408,0.8499062310463106
-4009.450684785843,-12.0,4708.0,-15752.0,-263.0,93.0,455.0,0.15830121109153159,-0.26571415854209174,0.39743548333740036,0.8639338800519341
-4009.466267347336,356.0,4916.0,-15840.0,-185.0,50.0,-184.0,0.16604158080752038,-0.2784450284926356,0.38008144409682143,0.8662774702160676
-4009.4818699359894,564.0,4524.0,-15856.0,-526.0,982.0,-401.0,0.1501391134989339,-0.371727892368399,0.34324330371649486,0.8493884006076893
-4009.497446537018,68.0,4384.0,-15820.0,79.0,249.0,155.0,0.13363932979920817,-0.3845233639205486,0.3574972139525748,0.840522488780753
-4009.513014793396,328.0,4820.0,-15880.0,-284.0,122.0,-174.0,0.132931975123256,-0.402167628301459,0.33233033779155136,0.8427021035452343
-4009.528655767441,144.0,4564.0,-15824.0,-96.0,172.0,384.0,0.09619876943053442,-0.4046676487155263,0.34072690792541904,0.8431459334294872
-4009.5442485809326,40.0,4684.0,-15620.0,-240.0,176.0,-328.0,0.1064821254219293,-0.42922561369747975,0.31295755020647714,0.840526323966365
-4009.5598583221436,496.0,4588.0,-15948.0,-25.0,398.0,2.0,0.0944035942645533,-0.4584865739264328,0.3149227280065125,0.8256522865614019
-4009.5754492282867,204.0,4216.0,-15908.0,-424.0,469.0,-657.0,0.11147124099867319,-0.5123879672459329,0.2613295009341238,0.8103947343074969
-4009.59108710289,136.0,4580.0,-15704.0,529.0,-253.0,908.0,0.07626586290863145,-0.4667655751890085,0.3355708687838193,0.8146812922836442
-4009.606682777405,420.0,5068.0,-15720.0,-601.0,591.0,-968.0,0.1025857313211896,-0.5379301027871892,0.2559621128666759,0.796612056788929
-4009.622257709503,104.0,4652.0,-15496.0,320.0,-69.0,388.0,0.09200676823197003,-0.5212859482426356,0.2956882181299982,0.7952132999537866
-4009.637852668762,276.0,4244.0,-16124.0,-649.0,719.0,-541.0,0.08102411639106707,-0.5877892876656597,0.23091556716851952,0.7711140296400943
-4009.65341258049,28.0,4572.0,-15604.0,336.0,-21.0,94.0,0.09223576721934078,-0.5820370037960071,0.2582327100648829,0.7655333806635558
-4009.668984413147,428.0,4320.0,-16140.0,-298.0,126.0,-389.0,0.10007234945577467,-0.601232931949131,0.21952702512777197,0.7617823650182534
-4009.684549331665,356.0,4640.0,-15704.0,91.0,197.0,-219.0,0.11550346744590707,-0.6177074036227993,0.2158784916434816,0.7473238851818451
-4009.700154066086,76.0,4632.0,-15832.0,-140.0,-102.0,270.0,0.0921430129365675,-0.6073463041541541,0.22033304923899305,0.7576895666500291
-4009.7157742977142,180.0,5476.0,-15260.0,-113.0,92.0,-238.0,0.09999737862911655,-0.6189257395717555,0.20108735745339307,0.752658838940507
-4009.7313849925995,200.0,3648.0,-16144.0,-583.0,298.0,-85.0,0.06867364754215484,-0.6442222115653257,0.16066535969760287,0.7446128621319782
-4009.7469885349274,200.0,4692.0,-15296.0,357.0,-356.0,-52.0,0.09693712439475743,-0.6192900265715546,0.17876016682799115,0.7583718478811747
-4009.762643098831,600.0,3868.0,-16328.0,-970.0,260.0,-168.0,0.051298994209421495,-0.6450007082323039,0.10738684382619768,0.7548579769373681
-4009.7782323360443,0.0,4756.0,-15520.0,393.0,-511.0,371.0,0.053579909282036146,-0.6050587942143799,0.15166396422096323,0.7797634838987729
-4009.7938289642334,300.0,4768.0,-15632.0,-702.0,305.0,-185.0,0.024932411699748767,-0.6302770334999962,0.09546111125169894,0.7700755885806729
-4009.8094177246094,56.0,5116.0,-15564.0,55.0,151.0,-64.0,0.030924454838173722,-0.6409892738876739,0.09606934783635149,0.7608857399506267
-4009.8250114917755,136.0,4296.0,-16068.0,-437.0,165.0,222.0,-0.009698176134772321,-0.65082831830192,0.0799347123663288,0.7549429695247623
-4009.8406059741974,332.0,4432.0,-15744.0,-61.0,54.0,-397.0,0.012551337392071567,-0.6569237013609122,0.05338577250826776,0.7519598884339806
-4009.8561832904816,372.0,4380.0,-15888.0,-72.0,-95.0,198.0,-0.004187884949514712,-0.649947375690397,0.059981629843282175,0.757596907685188
-4009.871823310852,160.0,4688.0,-15676.0,-200.0,34.0,-137.0,-0.0067115612644311805,-0.6529226036501979,0.03906095504535245,0.7563869845383283
-4009.8874275684357,12.0,4784.0,-15804.0,-4.0,136.0,46.0,-0.010499549312138375,-0.6619197569781131,0.041421657766455774,0.7483556915358875
-4009.903012752533,160.0,4968.0,-15852.0,-116.0,120.0,53.0,-0.021155460382934525,-0.6696086391359245,0.036881899092534046,0.7414960838803192
-4009.918703556061,212.0,4544.0,-15824.0,-338.0,183.0,-621.0,-0.001364063481096187,-0.6816735825986401,-0.021491161921275155,0.7313394533848343
-4009.934332370758,308.0,4128.0,-15976.0,24.0,-139.0,425.0,-0.0273566751775207,-0.6733238444971563,0.005388558870734881,0.7388217485889932
-4009.950001478195,324.0,5008.0,-15612.0,-213.0,-249.0,-241.0,-0.02426208780367344,-0.6566980767486057,-0.021821015451337748,0.7534472976756648
-4009.96560049057,188.0,4376.0,-16124.0,-182.0,23.0,152.0,-0.04468352497003798,-0.6582128795629069,-0.025062376648163024,0.7510865895823889
-4009.9811975955963,220.0,4796.0,-15444.0,183.0,-126.0,283.0,-0.05302337283975514,-0.6512054926430518,0.003742927664176415,0.7570375940313118
-4009.996807575226,492.0,5264.0,-15812.0,-615.0,808.0,-1185.0,-0.00991307883117488,-0.6959336964193809,-0.10689938907522599,0.7100355918343019
-4010.012413263321,76.0,3892.0,-15620.0,-173.0,385.0,-479.0,0.01278015163035536,-0.7142908441676497,-0.14679366672333657,0.684161440796315
-4010.0281019210815,192.0,4272.0,-15940.0,95.0,-298.0,470.0,-0.013225694124756219,-0.7017901053157535,-0.11200961214376812,0.7033985896227151
-4010.043712377548,544.0,4736.0,-15728.0,-315.0,124.0,-526.0,0.0009202652472441855,-0.7030783138000497,-0.16343147478536527,0.6920767232218074
-4010.0593206882477,308.0,4660.0,-15700.0,263.0,-215.0,285.0,-0.00328482496402386,-0.6938471941267619,-0.12996973599404227,0.7082888879920497
-4010.0749084949493,336.0,5096.0,-15624.0,-406.0,293.0,-607.0,0.012875280134590515,-0.7035271762250742,-0.19142480438631396,0.6842808515075449
-4010.0904908180237,12.0,4520.0,-15720.0,284.0,-169.0,662.0,-0.01208652262392861,-0.7029365490769709,-0.13373153993434692,0.6984625968292137
-4010.106064081192,112.0,4852.0,-15692.0,-278.0,130.0,-453.0,-7.501785070032853e-05,-0.7047048422064608,-0.1783754147719367,0.686711941899971
-4010.1216671466827,296.0,4636.0,-15596.0,133.0,187.0,-231.0,0.02478446506746633,-0.7122520795589657,-0.1845313917792763,0.6767797802115924
-4010.1373403072357,196.0,4204.0,-16136.0,-260.0,231.0,-328.0,0.03162219511155413,-0.7207662487281237,-0.2195863710176071,0.6567175017722865
-4010.1529433727264,160.0,4676.0,-15508.0,5.0,-56.0,-744.0,0.07327194106821763,-0.7020179836755781,-0.2656976692593587,0.6566633245418203
-4010.1685168743134,452.0,4072.0,-16124.0,110.0,111.0,374.0,0.061037125457040375,-0.7161100249196413,-0.2356554676342237,0.6541616024344653
-4010.1841218471527,48.0,5628.0,-15200.0,443.0,-126.0,-59.0,0.08932925641749156,-0.7049831419878543,-0.2145477307774419,0.6700659106976576
-4010.1997423171997,404.0,4780.0,-15880.0,-215.0,337.0,-58.0,0.08565855744015023,-0.7250414126585093,-0.22792653452115724,0.6442259357776599
-4010.2153351306915,-28.0,4576.0,-15756.0,-162.0,313.0,-686.0,0.1198369271440299,-0.7287636312256726,-0.2774824741487187,0.6144478474498498
-4010.230973005295,-224.0,4260.0,-15900.0,92.0,-154.0,73.0,0.11792388781531646,-0.7214134270816795,-0.2695068265705689,0.6269152210152885
-4010.2466497421265,392.0,4332.0,-15916.0,-446.0,387.0,-667.0,0.13493356927765643,-0.7294835507240148,-0.33094639692478456,0.5831990770462333
-4010.2622363567352,92.0,4440.0,-15720.0,405.0,-313.0,402.0,0.13089623648939339,-0.7194318048308973,-0.28800551225776405,0.6183339537659349
-4010.277830839157,452.0,4940.0,-15832.0,-313.0,504.0,-523.0,0.15166569338116623,-0.7355008654790262,-0.331213580385946,0.5712561233796414
-4010.293417930603,292.0,4388.0,-16064.0,321.0,28.0,576.0,0.1440105097129725,-0.7482449426564809,-0.27745026720688354,0.5851596603560761
-4010.3090052604675,-4.0,5056.0,-15372.0,-85.0,117.0,-248.0,0.15378544733964786,-0.7492392690325214,-0.2964395784864018,0.5719389217678424
-4010.324643611908,316.0,4660.0,-15856.0,-83.0,388.0,-679.0,0.19171642935871278,-0.7505717282708917,-0.33900436900345854,0.5338191915161533
-4010.3402347564697,212.0,3696.0,-16132.0,-161.0,128.0,-277.0,0.19764353072755736,-0.7508669128994382,-0.3623908269836442,0.5155664868787759
-4010.355881690979,284.0,4856.0,-15788.0,272.0,-176.0,-236.0,0.2202473096571931,-0.7305222999434985,-0.3684761806974224,0.5310871831749195
-4010.3714892864227,232.0,4512.0,-15912.0,-471.0,-121.0,434.0,0.16580231414452495,-0.7468847492997395,-0.36442407706835167,0.5309122864849388
-4010.387088060379,96.0,4964.0,-15480.0,37.0,168.0,-338.0,0.18898195314665317,-0.7431489328690964,-0.3821419114699554,0.5157354403747022
-4010.4026815891266,164.0,4332.0,-16004.0,-79.0,169.0,42.0,0.18744247226982091,-0.7535191897578484,-0.3801838568250113,0.5025279945094724
-4010.418265581131,-84.0,4928.0,-15652.0,124.0,-147.0,463.0,0.17010576309800074,-0.7598465082256519,-0.34641449004194264,0.5231580204748009
-4010.433873653412,72.0,4972.0,-15600.0,-125.0,-344.0,985.0,0.10586148119588999,-0.772703379504924,-0.29072329452740037,0.5542587844317997
-4010.4495108127594,20.0,6080.0,-15336.0,-68.0,-352.0,839.0,0.05146851659724921,-0.7753167207695855,-0.23993193722482778,0.5819515785646745
-4010.4651534557343,312.0,7212.0,-14736.0,-324.0,-92.0,1734.0,-0.05986589324213645,-0.79913587752026,-0.1378169123548561,0.5820690876135057
-4010.480744123459,80.0,9012.0,-13800.0,-108.0,133.0,1435.0,-0.13772314394464083,-0.8162709341064024,-0.04349376267356946,0.5593231537881839
-4010.496345758438,-668.0,11032.0,-11324.0,-3031.0,1090.0,-777.0,-0.2994537395164585,-0.7975402010605827,-0.24954422841991095,0.46041803140642273
-4010.511958360672,-1636.0,1116.0,-16004.0,-13031.0,396.0,2929.0,-0.8562770149955953,-0.3495280814486182,-0.3773633629941935,0.04708169643071176
-4010.5275983810425,-636.0,-6640.0,-22232.0,4857.0,-3238.0,6822.0,-0.6632829789650989,-0.7273168555596687,0.07274617626693707,-0.16054244072057636
-4010.5432159900665,872.0,8776.0,-11748.0,5657.0,2739.0,-15538.0,-0.3042850492535874,-0.6294085584218236,-0.6496834413300625,0.29860827424509007
-4010.5588052272797,-212.0,12924.0,-12224.0,-5716.0,-3512.0,4735.0,-0.7647096908282589,-0.5321000784455107,-0.36187854022685934,0.03365289578783955
-4010.5744681358337,1792.0,5680.0,-14076.0,-5309.0,-3841.0,2892.0,-0.9674984994962211,-0.21890293660755755,0.011071711994431858,-0.12611730654696215
-4010.590071439743,5236.0,1916.0,-21032.0,-8459.0,-905.0,-5970.0,-0.8844285295539354,0.35504242157442367,0.049391747376771974,0.2988168507375416
-4010.605676174164,5300.0,-2288.0,-24344.0,1131.0,4313.0,15460.0,-0.778023408849878,0.12891747969276413,-0.42517290256330775,-0.4441709824348876
-4010.62131023407,-7820.0,5328.0,-10532.0,7305.0,-6942.0,6643.0,-0.5922819478978761,-0.6076616503177307,-0.214850156903207,-0.4835171382754669
-4010.636920928955,-156.0,7080.0,-13324.0,-3105.0,-1164.0,-16749.0,-0.8277471392329735,-0.1017165115346563,-0.5082049751638189,0.21497936643220159
-4010.652569770813,3160.0,3236.0,-17196.0,-296.0,-922.0,3911.0,-0.8910211249532582,-0.22321268706690814,-0.38932045314187974,-0.0684619309164016
-4010.6681623458862,-252.0,2872.0,-16860.0,838.0,2771.0,6874.0,-0.6196058632583501,-0.4236614502461666,-0.39901034054509316,-0.5266785527523203
-4010.6837787628174,-7088.0,4996.0,-15504.0,1798.0,-3076.0,2082.0,-0.5310765397879044,-0.6913754336962,-0.22448974092131938,-0.43538726989816384
-4010.6993777751923,1432.0,6340.0,-15536.0,-1502.0,793.0,-2621.0,-0.6807624376363464,-0.5215059476229053,-0.3496364882765329,-0.3772908376345878
-4010.7149477005005,1672.0,3484.0,-16220.0,-348.0,2828.0,2043.0,-0.519114058969273,-0.4497070557718142,-0.3952340883932089,-0.6099788300764886
-4010.730580806732,-2764.0,4344.0,-15860.0,289.0,-868.0,2184.0,-0.4126512779970084,-0.5723894087248873,-0.2798889277836094,-0.6509619617544109
-4010.7461738586426,828.0,5164.0,-16084.0,-1761.0,-745.0,-298.0,-0.5281797829889094,-0.5366460503337012,-0.16571074851497988,-0.6368493395848286
-4010.7618012428284,1380.0,3736.0,-16136.0,-149.0,-46.0,4509.0,-0.26532095763005303,-0.5562365537258455,0.05187045006459957,-0.785821316936339
-4010.7773871421814,-436.0,6028.0,-15300.0,289.0,-548.0,3688.0,0.0038814770912207926,-0.5552655722988165,0.21264512195994972,-0.8040193595069065
-4010.792991876602,304.0,6416.0,-15264.0,-993.0,462.0,481.0,-0.019035737178776893,-0.5117428911690537,0.30412630533081136,-0.8032832902867012
-4010.808597803116,1000.0,5156.0,-15808.0,-478.0,857.0,1115.0,0.01485347608257213,-0.4180472302493458,0.38286865973757434,-0.8236670910749491
-4010.824244260788,104.0,5540.0,-15336.0,-100.0,436.0,873.0,0.05911980425135505,-0.35660025901928566,0.4210496649043483,-0.8319004049143118
-4010.839876651764,216.0,5672.0,-15408.0,-618.0,461.0,-411.0,-0.0069334864171285504,-0.3406447003762821,0.4543292331236095,-0.8231027048922689
-4010.85547375679,472.0,5336.0,-15460.0,-510.0,285.0,-9.0,-0.03404475963434976,-0.3200072523158845,0.49004490258287636,-0.8101186988702438
-4010.8711047172546,716.0,5756.0,-15212.0,69.0,377.0,26.0,-0.04642264115249735,-0.29247597774694967,0.4846667394150044,-0.8230436759578562
-4010.8867037296295,712.0,5792.0,-15512.0,-159.0,815.0,-1003.0,-0.15604012116165392,-0.2741415343658777,0.4643682388176471,-0.827562709708923
-4010.902277469635,328.0,4948.0,-15792.0,-73.0,551.0,-375.0,-0.20686274988110973,-0.24831857414525818,0.452580992933234,-0.8310933360830536
-4010.9179213047028,336.0,4800.0,-15656.0,337.0,116.0,672.0,-0.1550655075612642,-0.21915868090867002,0.4398388154260655,-0.8570099050721263
-4010.933567047119,116.0,5268.0,-15716.0,175.0,-250.0,392.0,-0.11271100038709193,-0.22515096850227306,0.4374210481297002,-0.8632879579997302
-4010.9492070674896,40.0,5264.0,-15576.0,-18.0,-47.0,28.0,-0.10918000714577779,-0.22762576606061802,0.4399834259486531,-0.8617893139018672
-4010.9647998809814,336.0,5320.0,-15380.0,71.0,75.0,95.0,-0.10352177141832183,-0.2191852132790949,0.43597971080428377,-0.8666964733337869
-4010.980405807495,356.0,5500.0,-15588.0,42.0,382.0,-342.0,-0.14300643331564186,-0.20366515858243806,0.4225815496938234,-0.8714898146669848
-4010.9960610866547,128.0,5208.0,-15652.0,-93.0,147.0,-753.0,-0.2069010232800686,-0.21878135146329447,0.4136989176770539,-0.8591739592948503
-4011.011689186096,264.0,4976.0,-15680.0,91.0,106.0,-12.0,-0.20988611184883796,-0.21309445659868143,0.40489988803954235,-0.8640570891355824
-4011.0273716449738,288.0,5256.0,-15840.0,27.0,-67.0,13.0,-0.20604514113905953,-0.21838224729081251,0.404516611877363,-0.8638407866015927
-4011.0429861545563,412.0,5356.0,-15496.0,-54.0,93.0,-493.0,-0.24730258530909377,-0.22779361417070984,0.39731829864740853,-0.853867478126678
-4011.0586631298065,364.0,5176.0,-15616.0,-106.0,193.0,-636.0,-0.30298474658357877,-0.23299226889651753,0.3879204372097911,-0.8387088770050679
-4011.074268579483,216.0,5132.0,-15644.0,-35.0,126.0,-576.0,-0.34966107200262936,-0.24224718152115407,0.37511605945862103,-0.823614824846703
-4011.089865922928,240.0,5236.0,-15628.0,47.0,-71.0,-284.0,-0.3666310538717757,-0.2582319851454349,0.3679401231639476,-0.8145661286542781
-4011.1054894924164,372.0,5392.0,-15640.0,16.0,41.0,-287.0,-0.38786248647060523,-0.26520655289442335,0.3590582121824256,-0.8064151388429271
-4011.121085166931,312.0,5176.0,-15584.0,-70.0,10.0,-308.0,-0.4113074740373087,-0.2719310529311026,0.35652915980864824,-0.7935783656696859
-4011.1367151737213,328.0,5108.0,-15816.0,42.0,251.0,-364.0,-0.4429859278898247,-0.26743326691090225,0.33586860506301436,-0.7870420545142286
-4011.152284145355,300.0,4864.0,-15568.0,29.0,40.0,-348.0,-0.46714683443711935,-0.2761359803673528,0.3241981431947786,-0.77486664618565
-4011.167927980423,268.0,5108.0,-15532.0,25.0,-16.0,-318.0,-0.4873873520375312,-0.28738919968481935,0.3155014104632617,-0.7617872911607643
-4011.183516263962,348.0,5172.0,-15484.0,-26.0,-256.0,-652.0,-0.5233306326033272,-0.3209228626692889,0.3112987896545935,-0.7254147977224723
-4011.19909119606,32.0,5060.0,-15840.0,-189.0,-27.0,-1131.0,-0.5964679620969785,-0.34328022548558085,0.2914716884908386,-0.6644011678125993
-4011.2146768569946,-284.0,4608.0,-15896.0,-240.0,-388.0,-685.0,-0.6318131263080993,-0.3700254453101405,0.30437662418444006,-0.609301414652799
-4011.2302956581116,-148.0,4800.0,-15764.0,274.0,-1157.0,733.0,-0.5491091882451709,-0.42430294839689126,0.3745852859247933,-0.6149243619625714
-4011.245935201645,792.0,5412.0,-15352.0,-82.0,-187.0,-207.0,-0.5568893669416328,-0.43728501604406456,0.38025490164597264,-0.5950313080039581
-4011.261521577835,80.0,5344.0,-15444.0,-244.0,-298.0,-205.0,-0.566466157260878,-0.44762650468398896,0.3993878242578567,-0.5650097086042541
-4011.2771549224854,296.0,5332.0,-15540.0,-199.0,-39.0,-580.0,-0.6005263056967175,-0.459508571432616,0.3880122091389123,-0.526940750469491
-4011.2927525043488,172.0,5168.0,-15516.0,-24.0,-244.0,-20.0,-0.5939059191251753,-0.4702817120560672,0.4011029752357726,-0.5150022075590607
-4011.3083481788635,252.0,4976.0,-15736.0,-478.0,-204.0,-320.0,-0.6197751396899246,-0.46545363754033914,0.41953000907091187,-0.47246826243861256
-4011.3239736557007,172.0,4816.0,-15684.0,350.0,-787.0,1272.0,-0.519526177834439,-0.46631807315942175,0.4950055660367103,-0.5173098634109918
-4011.3396079540253,432.0,5428.0,-15460.0,230.0,-502.0,460.0,-0.466696107732747,-0.4788068218096916,0.5251755130304789,-0.5264308605399003
-4011.3552198410034,64.0,5552.0,-15676.0,84.0,-110.0,-305.0,-0.47186449649848283,-0.5012469570187273,0.5129395147162978,-0.512823984683154
-4011.3708157539368,72.0,5016.0,-15636.0,43.0,-370.0,-506.0,-0.4752462225666894,-0.5416080360558322,0.5034611233146891,-0.4767899543054031
-4011.3864328861237,280.0,5012.0,-15848.0,129.0,-187.0,-39.0,-0.4623479305946368,-0.5565374537698102,0.5039959936556861,-0.4716868579951011
-4011.4019939899445,-192.0,4840.0,-15728.0,-20.0,-553.0,204.0,-0.4299117259835612,-0.5689579134543087,0.5364140844878661,-0.4513565448097539
-4011.417587995529,84.0,4876.0,-15644.0,230.0,-540.0,586.0,-0.36905029361731745,-0.5701138676726757,0.575288296441421,-0.4558677819782864
-4011.433212995529,156.0,5368.0,-15604.0,187.0,-219.0,401.0,-0.3324017657484905,-0.5643664354677276,0.5943843341498432,-0.46659067281931904
-4011.448860168457,124.0,5264.0,-15592.0,248.0,81.0,-8.0,-0.32455630875428276,-0.5686987111061131,0.5814798346229868,-0.482831420229529
-4011.464470386505,-148.0,4636.0,-15752.0,224.0,-460.0,521.0,-0.2675186802948265,-0.5670003656417525,0.6097797960273131,-0.48488446192090123
-4011.4800930023193,360.0,5088.0,-15536.0,283.0,-236.0,1271.0,-0.18588910563860142,-0.5127116849042254,0.6618987707761678,-0.5142586759720729
-4011.4957225322723,-176.0,5104.0,-15568.0,107.0,-332.0,507.0,-0.1389464068763571,-0.49948026196755835,0.6842868137595443,-0.512801053465942
-4011.5113203525543,104.0,5160.0,-15668.0,329.0,-497.0,705.0,-0.06316616913398619,-0.48218004416280014,0.7041477947020687,-0.5173860486177707
-4011.5269203186035,208.0,5220.0,-15556.0,283.0,11.0,396.0,-0.03404998637863926,-0.45861951863533496,0.7074524051865821,-0.5366747897470384
-4011.54252076149,-8.0,5200.0,-15412.0,468.0,-216.0,557.0,0.02402061669148473,-0.4349059750626334,0.7070483135223392,-0.5571018624756131
-4011.558153152466,228.0,5140.0,-15616.0,392.0,-35.0,454.0,0.06299327474511439,-0.4073307685855014,0.7043199143837227,-0.5779679493734379
-4011.5737347602844,-136.0,4732.0,-15460.0,412.0,-560.0,712.0,0.14736813147466618,-0.38819687286999827,0.7032751262967591,-0.5770527865385432
-4011.589355945587,264.0,5032.0,-15468.0,465.0,-202.0,343.0,0.19243885912343758,-0.3709165475292874,0.688059789470415,-0.5932637915650606
-4011.6049361228943,-416.0,4756.0,-15864.0,292.0,-368.0,246.0,0.23639405407095426,-0.36999749789570374,0.6741755908889787,-0.5938913835040155
-4011.6205344200134,-148.0,4852.0,-15768.0,772.0,-734.0,911.0,0.3490403629876801,-0.33611395224278534,0.6438203868784805,-0.5921938411979706
-4011.6361136436462,272.0,5232.0,-15428.0,667.0,-201.0,613.0,0.41013518057399073,-0.2908894234832446,0.61937636017571,-0.602947262550063
-4011.6517441272736,-204.0,5020.0,-15836.0,664.0,-544.0,61.0,0.4582202190046668,-0.2917179752133388,0.5651407861312915,-0.6209273272160365
-4011.6673398017883,92.0,4872.0,-15792.0,996.0,-693.0,888.0,0.5609789766668287,-0.2436597056774247,0.5019873077738625,-0.6115073821312198
-4011.682925462723,-52.0,5152.0,-15644.0,1153.0,-776.0,609.0,0.6462786537193326,-0.20028305051957837,0.4120650637082201,-0.6102564909056187
-4011.6984860897064,36.0,5192.0,-15564.0,736.0,-595.0,-291.0,0.6625089029817142,-0.20025563714678532,0.33324197083597507,-0.6402573093173213
-4011.7140653133392,24.0,4672.0,-15764.0,1035.0,-603.0,86.0,0.6990617984853693,-0.1707821987693609,0.24098838466904768,-0.6512070645628059
-4011.7296843528748,-24.0,4764.0,-15672.0,959.0,-593.0,-29.0,0.7206673406393321,-0.1459958316919059,0.14940270347152296,-0.6610617470855665
-4011.7453079223633,-140.0,4744.0,-15876.0,1139.0,-889.0,481.0,0.7677665492333282,-0.11846692325851144,0.03379130579152553,-0.6287752075463163
-4011.760893344879,-196.0,5024.0,-15900.0,1232.0,-535.0,447.0,0.8004948101345956,-0.06344727481850826,-0.06483531852488897,-0.5924347084172724
-4011.776519060135,-612.0,5112.0,-16240.0,1044.0,-1137.0,164.0,0.8009491705857472,-0.049621728742084835,-0.1958258224525805,-0.5636225309863161
-4011.792112350464,-248.0,4432.0,-16288.0,1446.0,-1184.0,374.0,0.794354525759114,-0.01292004490047275,-0.34365658195251375,-0.5007335753936396
-4011.8077387809753,-436.0,5056.0,-16396.0,1765.0,-1122.0,227.0,0.759767248720777,0.05280486221049479,-0.49037044976318817,-0.42367699524194113
-4011.82333278656,-900.0,4768.0,-16456.0,1868.0,-1986.0,156.0,0.6534384039342506,0.09402146146206382,-0.6731882101725717,-0.33316039790624324
-4011.838961839676,-248.0,5212.0,-16136.0,2603.0,-2355.0,452.0,0.4840593276153207,0.14094203833462018,-0.8475056839558127,-0.1660000748231042
-4011.854628801346,152.0,5764.0,-16224.0,2299.0,-1615.0,-557.0,0.31818307371779814,0.24828538732418837,-0.9141415659944487,-0.03819810678540154
-4011.870224714279,-268.0,4856.0,-16912.0,1797.0,-1580.0,-440.0,0.14813440548416174,0.32091933013017815,-0.9336925232881068,0.05731713021898009
-4011.8858263492584,-8.0,4776.0,-16564.0,2250.0,-1917.0,-180.0,-0.06809754249974037,0.3624016210553356,-0.9122325087717272,0.1784926880911413
-4011.9014251232147,-532.0,4752.0,-16848.0,2747.0,-1513.0,-124.0,-0.2637120485432589,0.36607811303735993,-0.826207681465613,0.33737758920138755
-4011.9170291423798,-1564.0,5032.0,-16444.0,3349.0,-2521.0,443.0,-0.530681329787259,0.31097194850582416,-0.641864711182887,0.4579120723412155
-4011.9327442646027,-936.0,7040.0,-15388.0,4906.0,-3822.0,4778.0,-0.8820336556409004,-0.025694536952411886,-0.32899402859409604,0.33633220220041066
-4011.948349714279,968.0,9952.0,-12988.0,4136.0,-2012.0,-964.0,-0.8347333919910633,-0.23834496059065474,-0.050880530525603186,0.4937843817594542
-4011.9639749526978,3200.0,11656.0,-10576.0,2970.0,-1156.0,-6555.0,-0.41820088601558814,-0.31729093523356683,0.021203474703703148,0.8508730187371527
-4011.979734659195,3308.0,14972.0,-11820.0,-1149.0,1193.0,1597.0,-0.5596787707820635,-0.3540872074615336,-0.0619314482635793,0.7466903098098614
-4011.9958250522614,412.0,13172.0,-12736.0,-6515.0,1892.0,-708.0,-0.6055555284804459,-0.1337277540666667,-0.5161022726212916,0.5908111660371617
-4012.011493206024,-532.0,10656.0,-14232.0,-6982.0,667.0,-1455.0,-0.49345770682093343,0.2257311709658061,-0.7872981050966972,0.29275693628773597
-4012.027114868164,988.0,9260.0,-14864.0,-6991.0,2011.0,-1839.0,-0.14252827809691684,0.5033992789585237,-0.8502614839955909,-0.057708445832321896
-4012.0428278446198,-164.0,7760.0,-15616.0,-6444.0,2138.0,-1248.0,0.2511281588648261,0.5883121161181105,-0.676262140809034,-0.36536696451947576
-4012.0584948062897,-2304.0,7540.0,-15064.0,-6079.0,807.0,-2432.0,0.46205381411991614,0.5412531318616648,-0.29471819486990536,-0.6377244747693172
-4012.0741741657257,-1392.0,7960.0,-14704.0,-5785.0,-134.0,-4075.0,0.42969906895281207,0.3450965253011007,0.18218337778085258,-0.8142949804748597
-4012.0898463726044,-412.0,8940.0,-14388.0,-5784.0,406.0,-3133.0,0.32494491485323784,0.09322976927070115,0.6092007919479772,-0.7173516623823432
-4012.1055192947388,-304.0,8932.0,-14112.0,-6524.0,616.0,-569.0,0.2685156901213194,-0.07230235809237387,0.9018201115447803,-0.3307448859564028
-4012.1211767196655,-408.0,9200.0,-14552.0,-7385.0,647.0,2218.0,0.19465981230701976,-0.043160728314401674,0.948153114283791,0.24748814290368473
-4012.1369235515594,-584.0,8648.0,-15352.0,-8129.0,1290.0,1865.0,0.013457106278975213,-0.04405443439899764,0.6454135954265834,0.7624430496364376
-4012.1527268886566,-1156.0,7468.0,-15972.0,-7769.0,723.0,2972.0,-0.20600534055577066,0.05341074513927735,0.11403033174279122,0.9704154653594494
-4012.168519258499,-888.0,7120.0,-16004.0,-9210.0,-5451.0,-3537.0,0.1359762385961465,0.4601470087514456,-0.3929308257542021,0.7844619551300508
-4012.1843111515045,-1688.0,5632.0,-15844.0,-8292.0,1217.0,3219.0,0.2285402297558855,0.13243977830406026,-0.846612544895744,0.4620349200342439
-4012.2001435756683,-2752.0,4396.0,-15848.0,-6387.0,-674.0,2397.0,0.13367706994444783,-0.12429721570497132,-0.982864742306639,0.025642571430395455
-4012.215795993805,-212.0,6008.0,-15980.0,-4799.0,627.0,4846.0,0.10674434712668657,-0.512707539281429,-0.8014409245197446,-0.28884090434946413
-4012.2314891815186,-1172.0,6152.0,-15284.0,-4720.0,259.0,5084.0,0.035539018114300415,-0.774682837491823,-0.38718966775844377,-0.49868591384577465
-4012.2471170425415,-1056.0,7096.0,-15296.0,-5820.0,200.0,2646.0,-0.20622655562759734,-0.7627749369379724,0.03969702135376638,-0.611611927474349
-4012.262737751007,-332.0,6788.0,-15600.0,-6496.0,183.0,923.0,-0.512000688441973,-0.5493823835693274,0.38570393094630656,-0.5359727318728044
-4012.278339624405,-664.0,6736.0,-15700.0,-6197.0,-92.0,2631.0,-0.5887864069763126,-0.16250815514976194,0.6948265330580429,-0.3796547845454937
-4012.2940199375153,-1492.0,6996.0,-15124.0,-5439.0,-44.0,2714.0,-0.5063491377599175,0.24732569385251624,0.8091465922627477,-0.16650028252150853
-4012.3096323013306,-812.0,7548.0,-14364.0,-5566.0,34.0,940.0,-0.3361352799574117,0.5024608386155328,0.7789307592951331,0.16677245410929073
-4012.3252623081207,-388.0,7176.0,-14372.0,-4877.0,1030.0,-888.0,-0.16378721698332382,0.521504225837029,0.6556054502642582,0.5209496938964242
-4012.3409264087677,-312.0,7544.0,-14668.0,-4886.0,873.0,2109.0,-0.07877417365018194,0.6083895139310557,0.2942753278179621,0.7328429984260584
-4012.356544971466,-1396.0,7288.0,-14448.0,-6234.0,642.0,-1495.0,0.2889265363602144,0.4985653183058423,-0.025502752479981974,0.8168865830612158
-4012.37216591835,-344.0,7040.0,-15180.0,-6421.0,533.0,-321.0,0.5162369947757588,0.26113816621579067,-0.3971387832232575,0.7124514090310283
-4012.387820482254,-276.0,5880.0,-15324.0,-4320.0,224.0,2991.0,0.39667523708504093,-0.04620714336033693,-0.6579841932169292,0.6384124510554838
-4012.403451681137,-1620.0,6756.0,-14136.0,-2449.0,-766.0,4200.0,0.09987015177580498,-0.3027414611157508,-0.7389118370802144,0.5936184443971738
-4012.419106721878,-968.0,7364.0,-14376.0,-1942.0,-68.0,2142.0,-0.06484621909270774,-0.44053809605529165,-0.7597974827562399,0.4737393154369189
-4012.4347784519196,-752.0,7840.0,-13644.0,-1384.0,-71.0,3203.0,-0.24417386207884229,-0.614382875532744,-0.6634263168313,0.35039738792587344
-4012.4504013061523,-364.0,7816.0,-13780.0,-1239.0,-492.0,2222.0,-0.39700400293214005,-0.6844131748011865,-0.5576177519970601,0.2510555127300794
-4012.4660251140594,-268.0,7292.0,-14256.0,-1012.0,-541.0,2780.0,-0.52671022578966,-0.7475962111214755,-0.38207125242113077,0.13303308324912286
-4012.481637954712,-164.0,7536.0,-14328.0,531.0,-446.0,6783.0,-0.5031217169472343,-0.8534545904734636,0.07482734632556337,-0.11351065226538712
-4012.497252702713,-740.0,8284.0,-14360.0,741.0,137.0,3902.0,-0.38734018351722965,-0.811889846117471,0.33258992327743303,-0.2831720377058779
-4012.512872695923,-1280.0,7640.0,-14372.0,1380.0,723.0,988.0,-0.2824078223686508,-0.8018437583550574,0.3396520481367171,-0.40240389566773077
-4012.528517961502,1076.0,8196.0,-12596.0,1174.0,-338.0,7628.0,0.06436296620972211,-0.5113853680794016,0.6969605242766352,-0.4985864433526236
-4012.5441479682922,140.0,7700.0,-14420.0,1953.0,157.0,1429.0,0.19966428772615089,-0.39797123493948716,0.6620969806873445,-0.6028106307392485
-4012.5598015785217,-740.0,7952.0,-13796.0,2071.0,-1315.0,8907.0,0.635352827702989,0.06505282306338554,0.6537187436658388,-0.4058900327936831
-4012.5754523277283,-680.0,9076.0,-14708.0,746.0,-1235.0,1019.0,0.7289868594149713,0.11953795543213286,0.5467650428919046,-0.39412792832126986
-4012.5910964012146,2188.0,9056.0,-14784.0,1348.0,1348.0,6372.0,0.752095964260556,0.48075168605821744,0.44955766500294314,-0.03357652055033623
-4012.6067023277283,-852.0,10892.0,-15004.0,538.0,214.0,2578.0,0.709847561814841,0.6022171079287199,0.34489407934016786,0.12041207555553476
-4012.6223192214966,504.0,11740.0,-13340.0,-4105.0,1848.0,-1966.0,0.8184452037199043,0.2478131329489027,0.4775940469438292,0.201593715104785
-4012.6380252838135,2180.0,8144.0,-14688.0,-3867.0,1847.0,711.0,0.759693294255604,-0.02899145034185897,0.49211429811433155,0.42408620828975613
-4012.6536514759064,1000.0,8712.0,-13696.0,-3524.0,1718.0,442.0,0.6245189502952795,-0.29035258628868355,0.45099256988830794,0.5676945994662047
-4012.6693091392517,1204.0,8580.0,-13752.0,-4560.0,2442.0,-1695.0,0.44862500374137915,-0.6562881182315694,0.2849856047578007,0.5355415175006919
-4012.68492603302,1056.0,7492.0,-13864.0,-3798.0,2922.0,-1955.0,0.2274378130102475,-0.9024827954064945,0.10030150739860404,0.3517619263393395
-4012.700548171997,720.0,8136.0,-14008.0,-2909.0,2584.0,-2414.0,0.04601719608035652,-0.9849840340638653,-0.11865641833451426,0.11665986753036081
-4012.7161712646484,1624.0,7856.0,-13832.0,-3884.0,3772.0,-5543.0,-0.15955302570648977,-0.8130669932577398,-0.5131808282370588,-0.2238533761028614
-4012.7318036556244,528.0,6976.0,-14528.0,-4067.0,2955.0,-2561.0,-0.3282626113897797,-0.5240312994680832,-0.5891812916336318,-0.5200963956136209
-4012.7474451065063,112.0,7636.0,-13728.0,-3437.0,2192.0,-3340.0,-0.4762906183862656,-0.14039390293220963,-0.5895653589158566,-0.6370631730237648
-4012.76308965683,168.0,5588.0,-14220.0,-4416.0,4774.0,-9132.0,-0.5663918504770673,0.5563291336672489,-0.46795616754726665,-0.3882205455674472
-4012.7787261009216,-2264.0,1776.0,-14652.0,-1471.0,945.0,-5210.0,-0.5704626820081072,0.7880114652380616,-0.19121493763970965,-0.13056456913313919
-4012.794322013855,2896.0,2364.0,-16596.0,2418.0,2139.0,-2554.0,-0.6869437873853074,0.6915534651660937,-0.14083430939526811,0.1732851265592515
-4012.8100006580353,-1692.0,5148.0,-13660.0,4192.0,1639.0,-5979.0,-0.6942830533822052,0.40954730062956585,0.15499551115429716,0.5711553570223569
-4012.825623035431,-1812.0,5836.0,-14432.0,1635.0,3152.0,-17439.0,0.04010198516643237,-0.044587948022488076,0.3621612188265709,0.9301843888471296
-4012.841367483139,-1264.0,964.0,-14856.0,792.0,1922.0,-17884.0,0.770031865567175,-0.4097334101475267,0.1953841536784073,0.44832409160270137
-4012.8571531772614,1256.0,-168.0,-15500.0,1862.0,3583.0,-20416.0,0.7592428200273932,-0.37291455587516203,-0.10654033696883536,-0.5226224553651031
-4012.8727807998657,128.0,-1024.0,-17300.0,1924.0,-7920.0,-16419.0,-0.00037054687836082345,-0.24080537889139783,-0.6643981880312716,-0.7075222116179425
-4012.888378381729,7080.0,5728.0,-9004.0,18138.0,7992.0,-1110.0,0.3877621797520801,0.1580720844521185,-0.9038176819454106,0.08813232025597889
-4012.9040699005127,2360.0,8868.0,-22720.0,14239.0,-1020.0,-10822.0,0.10448402224079587,0.8090553883258879,-0.3662228192669686,0.44765311834654403
-4012.9197869300842,3580.0,12196.0,-16516.0,10157.0,-1001.0,2631.0,-0.5500833746248636,0.6306650182792142,-0.12089762916905701,0.5339041851694942
-4012.9355053901672,-4352.0,12304.0,-14124.0,4304.0,654.0,1289.0,-0.7810331489619231,0.35335162924675806,-0.021071780929284478,0.5144762641558427
-4012.9511213302612,-7608.0,9916.0,-16744.0,2936.0,-1153.0,-8242.0,-0.39892107954590084,0.1744240501628617,0.3514016800333463,0.8288275347069848
-4012.966796398163,-2560.0,11284.0,-16196.0,3677.0,741.0,-7617.0,0.058975881663539516,-0.19344699424523557,0.5686387827908835,0.7973393509075006
-4012.9824619293213,-3032.0,8188.0,-14740.0,-813.0,61.0,-10123.0,0.5587008647091226,-0.5270648538826236,0.25578154071175346,0.5870534788297305
-4012.9980957508087,-4900.0,5420.0,-14220.0,-794.0,468.0,-10822.0,0.7737127999772931,-0.6035172214356279,-0.1884383493749641,0.04032933258504954
-4013.0137186050415,-3580.0,5260.0,-15292.0,1260.0,675.0,-8359.0,0.7076972374806929,-0.3083080429879264,-0.4652177395585092,-0.433224220803987
-4013.0293731689453,-356.0,6376.0,-13872.0,3969.0,1833.0,-3890.0,0.6604970083040639,0.14607012485966406,-0.5405809490296486,-0.5001794259973795
-4013.045027732849,1828.0,7984.0,-15728.0,3201.0,3315.0,3000.0,0.8175957226301267,0.30098776222564866,-0.475769704681112,-0.1207757816574368
-4013.060718536377,720.0,6440.0,-16396.0,3290.0,3565.0,6479.0,0.7737864036496065,0.24872286594901968,-0.3483429212906553,0.46695690022507047
-4013.0763363838196,-428.0,6848.0,-15708.0,6040.0,2900.0,6665.0,0.35425784602855237,0.2592796970877086,-0.039485290961105264,0.8976170280264482
-4013.0919921398163,440.0,9388.0,-14672.0,4551.0,2919.0,5679.0,-0.15140837321598663,0.12545965817808505,0.23019284721416108,0.9530722070133849
-4013.10760641098,-904.0,7820.0,-15420.0,1801.0,2284.0,4489.0,-0.5348918408543456,0.0017320290233669045,0.27272012184129724,0.7996946003355153
-4013.123293876648,-2560.0,7380.0,-15036.0,2744.0,1724.0,2249.0,-0.6932456300995742,-0.1827426401336589,0.36276706937772396,0.5953282096456727
-4013.1389236450195,-1268.0,8224.0,-15532.0,2106.0,1863.0,-68.0,-0.6943510610777316,-0.397450568095354,0.3482555501162405,0.4884953650897249
-4013.1545515060425,-1236.0,7984.0,-15508.0,1193.0,665.0,-2881.0,-0.5300856070494211,-0.5643866526041319,0.24956438436755884,0.5815449884717357
-4013.1701748371124,-536.0,7736.0,-15996.0,-48.0,-72.0,-4541.0,-0.27922222159292204,-0.6113588981075968,0.025064970013185056,0.7400317533400956
-4013.1858253479004,528.0,7276.0,-15168.0,1368.0,904.0,-1748.0,-0.09332506586458462,-0.6921387477015328,-0.0017202312380428422,0.7157034489339927
-4013.2014503479004,1008.0,6960.0,-15096.0,2350.0,2198.0,1802.0,-0.060602555163967224,-0.8081565690222762,0.22473047880969915,0.5410235689391957
-4013.2170748710632,-588.0,6304.0,-15588.0,2144.0,2107.0,2330.0,-0.05770533082165196,-0.828885340404581,0.4548083718956567,0.32057531425667807
-4013.232726573944,-1656.0,5748.0,-15588.0,2055.0,705.0,-185.0,0.06681936209812842,-0.8510576332877023,0.48670953244368803,0.18533728362091767
-4013.248343229294,-84.0,6616.0,-15020.0,1106.0,898.0,-672.0,0.12026284132355872,-0.8794199487425441,0.45570291186497386,0.06702431549989499
-4013.263995409012,164.0,5780.0,-14924.0,1471.0,1366.0,1349.0,0.16696129026696468,-0.8007075152470633,0.5696766645359624,-0.08037350597332929
-4013.279601097107,56.0,5296.0,-15020.0,2699.0,1695.0,3808.0,0.2732101916387645,-0.514034623159303,0.7722352953566062,-0.25451374419405703
-4013.2952950000763,120.0,5764.0,-15568.0,3365.0,1803.0,5864.0,0.369321473039741,0.0012126347383972624,0.8566090892352579,-0.36030687935187794
-4013.3109090328217,-536.0,5240.0,-15200.0,3370.0,1299.0,6214.0,0.39571213888526235,0.5212301143224886,0.6709408815311564,-0.3486680434918167
-4013.326521873474,276.0,5940.0,-15760.0,5586.0,184.0,2590.0,0.18455270524441655,0.7676487178240957,0.34315360568542774,-0.5088234938709879
-4013.342167377472,3492.0,10116.0,-15452.0,5530.0,1693.0,5265.0,-0.0023049039360370557,0.9000189222837988,-0.1882478613159245,-0.39309460649942224
-4013.3578186035156,476.0,8300.0,-14528.0,1849.0,1755.0,3972.0,0.016413337639956897,0.8271924567270792,-0.521571908304303,-0.20843700810830948
-4013.3734436035156,-2856.0,5464.0,-15164.0,1364.0,-182.0,-2151.0,-0.1260853264535503,0.901653546873681,-0.382083559781095,-0.1585418720976223
-4013.3890357017517,884.0,6124.0,-15672.0,1512.0,228.0,-3503.0,-0.27097453193824805,0.9534121197570086,-0.12323836042050093,-0.048892120655189615
-4013.4047346115112,1648.0,5304.0,-15232.0,412.0,784.0,-1090.0,-0.2989469057288592,0.9517031918949427,-0.05245711085148734,0.046260497330154665
-4013.4203600883484,604.0,3548.0,-15592.0,648.0,324.0,347.0,-0.35152428336878344,0.9297329544747941,-0.0869011126954114,0.06689923899367908
-4013.435997724533,196.0,4532.0,-15792.0,1818.0,474.0,2742.0,-0.49094737366658153,0.8168722213143784,-0.30093426881173413,0.03360083614355461
-4013.4516217708588,608.0,5440.0,-16164.0,3018.0,1218.0,5231.0,-0.6070401297864526,0.4815643163397781,-0.6317701904700184,-0.021552644629504385
-4013.467289686203,-236.0,6960.0,-15336.0,2517.0,1176.0,2225.0,-0.6145910803517182,0.21754510305118552,-0.75682833585898,0.04650593651872375
-4013.482903957367,-864.0,5848.0,-15152.0,812.0,596.0,-834.0,-0.5832411476278115,0.22518013156824154,-0.7649033697201822,0.1550693620655375
-4013.498514890671,1244.0,4620.0,-15396.0,534.0,468.0,-41.0,-0.5606313709918528,0.19404342697824067,-0.7793830145648697,0.20149871194156999
-4013.5141735076904,1100.0,5440.0,-16056.0,1162.0,507.0,7.0,-0.5424277172067682,0.12702396930733537,-0.7793129413560935,0.2868944444602883
-4013.5298137664795,288.0,5312.0,-15180.0,60.0,-167.0,-1886.0,-0.5002613442348552,0.25318837526867155,-0.7391700352890465,0.37317809826400017
-4013.5454211235046,996.0,4608.0,-15528.0,39.0,176.0,214.0,-0.4964099974640789,0.23192122742277999,-0.7502790510655177,0.36996081443938156
-4013.5612423419952,120.0,4312.0,-15656.0,1160.0,454.0,1921.0,-0.5413154474048897,0.04045115113954478,-0.7566237767083126,0.3645020593796135
-4013.577023267746,900.0,5784.0,-15748.0,682.0,698.0,698.0,-0.5168470127990833,-0.05977785613370528,-0.766373427922357,0.3767858042061278
-4013.5927951335907,100.0,5112.0,-15640.0,462.0,37.0,510.0,-0.5276254286214913,-0.11580457462851933,-0.7490321716177839,0.3836033282554285
-4013.6086010932922,1020.0,5184.0,-15544.0,103.0,334.0,-19.0,-0.5037227790185942,-0.1305084115680555,-0.7609872332821468,0.38746528514094136
-4013.624406337738,616.0,5760.0,-15576.0,213.0,-496.0,-1185.0,-0.4908751415756767,-0.044205878261750195,-0.7409062037382176,0.45622958362253274
-4013.640097141266,632.0,5808.0,-15460.0,-284.0,-429.0,-2584.0,-0.4061071223716306,0.14820255520566833,-0.7250968655523641,0.5360480793321447
-4013.6557314395905,928.0,5824.0,-15248.0,-1079.0,-479.0,-5155.0,-0.16449333307782515,0.4858509195909724,-0.6284112176724624,0.5847992551371517
-4013.6713461875916,484.0,5032.0,-15984.0,-650.0,-1126.0,-4193.0,0.014396955935041677,0.7309136937952725,-0.43678208170184957,0.5241939650420957
-4013.6869678497314,1540.0,5408.0,-15576.0,-412.0,-688.0,-3290.0,0.15827569091293728,0.8510212478994597,-0.23653822847760791,0.4413176948167312
-4013.702635526657,-236.0,5024.0,-15376.0,-314.0,-207.0,-2585.0,0.26995590870209457,0.8854291543009559,-0.058002520671542004,0.37386458466464534
-4013.718249320984,-544.0,4792.0,-15684.0,-441.0,-652.0,-3484.0,0.3955356445037304,0.872649429520683,0.1732640466401567,0.22806599313822074
-4013.7338528633118,172.0,5332.0,-15476.0,-729.0,-502.0,-3940.0,0.5063116836875762,0.7526847825939342,0.41640183484063387,0.061021381124381345
-4013.7495064735413,-104.0,5304.0,-15516.0,-775.0,-358.0,-4119.0,0.5556502864619165,0.535900717520408,0.6262133053414425,-0.10917910207199659
-4013.76513838768,200.0,5580.0,-15968.0,-1275.0,-262.0,-4565.0,0.5412934926402092,0.20537235614432753,0.7753824446763447,-0.25220153577015864
-4013.78071141243,544.0,5636.0,-15236.0,-1473.0,-838.0,-5380.0,0.45382107057379817,-0.22125927707104923,0.7759268937115248,-0.37819072414382754
-4013.7963166236877,624.0,5180.0,-15500.0,-1545.0,-747.0,-5358.0,0.26709161977987156,-0.6013850076395351,0.6229983508899448,-0.4229316658967145
-4013.811917066574,688.0,5028.0,-15448.0,-927.0,-538.0,-2678.0,0.14416863454673054,-0.764697140884279,0.4889442856867082,-0.39419179726454867
-4013.8275220394135,-376.0,4400.0,-15444.0,-248.0,-204.0,-1702.0,0.07675351415763082,-0.8380538354450657,0.3770843242925385,-0.38675842503183894
-4013.843147277832,-404.0,5480.0,-15712.0,355.0,54.0,-1657.0,0.04438926822202495,-0.8789371233907084,0.2416533907358335,-0.40878205041104054
-4013.8588049411774,-768.0,5632.0,-15164.0,-664.0,-344.0,-3281.0,-0.11174967549438375,-0.9240448996737148,0.011818158213459575,-0.36539480640854194
-4013.8744525909424,-424.0,5312.0,-15880.0,-1828.0,-1415.0,-5289.0,-0.38079012145661345,-0.8545461241614224,-0.3059974898221795,-0.17639541180051593
-4013.8900425434113,448.0,5088.0,-16016.0,-2330.0,-1227.0,-4549.0,-0.5972586839251582,-0.613281436935695,-0.5168691048720242,0.0037778320330349438
-4013.9056532382965,176.0,4504.0,-15796.0,-1552.0,-460.0,-1781.0,-0.6853045314807436,-0.44245582743392486,-0.5762668173459146,0.0500709010077688
-4013.9213869571686,-736.0,4736.0,-15720.0,32.0,-251.0,744.0,-0.698076123224271,-0.4797320601094459,-0.5312867771908963,0.016770124311710103
-4013.9370245933533,-864.0,5652.0,-15232.0,592.0,454.0,1352.0,-0.6481257742007713,-0.5741186701301931,-0.49709824393013646,-0.056692762379018234
-4013.952718734741,-976.0,6036.0,-15344.0,113.0,156.0,271.0,-0.6338464971397823,-0.5914189921206109,-0.4927964997027578,-0.07492532084268148
-4013.968341588974,-1012.0,5948.0,-15356.0,-599.0,-380.0,-1225.0,-0.68368504954179,-0.5044515945842116,-0.527189022445926,-0.013231642641612295
-4013.9839854240417,-468.0,5680.0,-15280.0,-996.0,-589.0,-1730.0,-0.7442471641606183,-0.36043204437482534,-0.5580648245728853,0.06890973516924942
-4013.999597787857,-144.0,5424.0,-15312.0,-657.0,-111.0,-976.0,-0.7602295590697888,-0.26833516508534533,-0.5825840962746862,0.10316504961944187
-4014.01523065567,-416.0,5340.0,-15252.0,109.0,201.0,300.0,-0.7495565891426433,-0.29263770154921964,-0.5877744920100489,0.08395976326291772
-4014.0308203697205,-24.0,5768.0,-15388.0,572.0,491.0,526.0,-0.7111234051750875,-0.35964319687521806,-0.6004981327012067,0.0660474539700449
-4014.0464482307434,-396.0,5812.0,-15468.0,196.0,459.0,577.0,-0.6825112820964676,-0.4039620574248686,-0.6085385566152709,0.025958256580635015
-4014.0620517730713,-732.0,5296.0,-15596.0,-358.0,180.0,-73.0,-0.6847481630561862,-0.37910019309058535,-0.6223979580331332,0.0048763332582727895
-4014.0776607990265,-376.0,5320.0,-15568.0,355.0,336.0,1155.0,-0.6511160809919635,-0.46059022227647173,-0.6006674156426507,-0.05570594225176072
-4014.0933134555817,-124.0,5576.0,-15332.0,1111.0,1146.0,2563.0,-0.5160521372166875,-0.6310777587993533,-0.5495105632601477,-0.18294587967043505
-4014.1089351177216,-560.0,5672.0,-15536.0,1827.0,1145.0,2824.0,-0.3010476249414386,-0.793318911130505,-0.4534983559874264,-0.2726805344657559
-4014.1245505809784,-188.0,6376.0,-15584.0,1808.0,1155.0,2090.0,-0.07768014445463678,-0.8669877839840606,-0.3698342233656554,-0.3248393830917625
-4014.140134334564,-168.0,5968.0,-15332.0,410.0,428.0,47.0,-0.03158652725019279,-0.8580642053041154,-0.3803878312275181,-0.34355961451561023
-4014.1558055877686,328.0,5352.0,-15684.0,-1123.0,10.0,-405.0,-0.12692693043154882,-0.8367636898827652,-0.3751339952930877,-0.3781409356317435
-4014.1714453697205,136.0,3656.0,-16072.0,-360.0,-100.0,1476.0,-0.10682386717472911,-0.8767999069362523,-0.25223952665768,-0.39520349921265197
-4014.1870732307434,200.0,3892.0,-15772.0,1666.0,1177.0,5630.0,0.213343605914336,-0.8648553500141339,0.09752116715119002,-0.44384608968072276
-4014.202677488327,-20.0,4752.0,-15644.0,2608.0,1890.0,7303.0,0.5554008787463829,-0.5589150195292993,0.4783235834634713,-0.3877504536876423
-4014.2182631492615,-920.0,5536.0,-15436.0,1904.0,1297.0,5897.0,0.6945674545038192,-0.1546563871139736,0.6692191592568769,-0.2140167515697228
-4014.2338633537292,-568.0,5864.0,-15380.0,753.0,707.0,3449.0,0.6941928835678159,0.10079388703896482,0.7105205287223357,-0.05565438889709951
-4014.249541282654,-836.0,4592.0,-15808.0,197.0,394.0,4354.0,0.6435923609856249,0.3593714169900725,0.6495611171423258,0.18630999068302856
-4014.2651557922363,-712.0,4104.0,-15508.0,261.0,384.0,5967.0,0.45771424303580327,0.6258985840995375,0.4329205344378169,0.4597047367674503
-4014.2807579040527,-1212.0,4240.0,-15388.0,1079.0,261.0,6913.0,0.09511914370814346,0.7849259831606938,0.09319089421471057,0.6051107391997849
-4014.296525001526,992.0,6660.0,-14348.0,1106.0,661.0,3048.0,-0.14113091516762127,0.7534118224463826,-0.04956829707068203,0.640309046092184
-4014.312164068222,4188.0,7756.0,-15360.0,169.0,915.0,1748.0,-0.24221340635068414,0.6827467675823532,-0.16380715862022288,0.6695944533257542
-4014.327794075012,1576.0,5104.0,-15392.0,-694.0,28.0,1717.0,-0.29680366438689454,0.6628667457998403,-0.3033037890907244,0.6168647125930051
-4014.343466281891,516.0,3888.0,-16096.0,-19.0,-508.0,2167.0,-0.41786318806887185,0.6219369761780477,-0.4089403999309102,0.5209150631569146
-4014.359120607376,708.0,5696.0,-16200.0,616.0,479.0,2854.0,-0.5458977221749295,0.4609141025977413,-0.5358460205536947,0.4499143354100997
-4014.374713897705,-1380.0,5968.0,-15408.0,321.0,82.0,831.0,-0.5856850239163216,0.40242642108731064,-0.5590596747434571,0.4271747984686555
-4014.390319108963,-484.0,5504.0,-15464.0,-872.0,196.0,-1149.0,-0.4984889407617339,0.4918959560334557,-0.5569431724871157,0.44649910077867383
-4014.405997991562,808.0,4716.0,-15700.0,-506.0,311.0,106.0,-0.4649536406694037,0.49608455802510587,-0.594064977437193,0.4298895508149159
-4014.42160320282,732.0,5384.0,-15556.0,-109.0,58.0,-671.0,-0.4311116831172553,0.5323021730255457,-0.5705925761867578,0.4530134934774552
-4014.4372084140778,648.0,5416.0,-15252.0,-1165.0,-68.0,-2876.0,-0.2572145905801597,0.6970407361422207,-0.46388425034767916,0.4824792936804267
-4014.4528155326843,508.0,4512.0,-15436.0,-1505.0,-557.0,-2290.0,-0.08900422687017623,0.8229535872361052,-0.3647906379191341,0.42632549928548646
-4014.4684188365936,1108.0,4692.0,-15844.0,-330.0,230.0,369.0,-0.07148316515089947,0.8044405706331176,-0.4049119119476764,0.4287328643600239
-4014.4840564727783,460.0,5456.0,-15668.0,583.0,652.0,1568.0,-0.14613001423839336,0.7124656053250267,-0.4912908347891263,0.47924116665801364
-4014.499660730362,-480.0,5856.0,-15648.0,-70.0,350.0,-419.0,-0.10899096256085669,0.7160036591542552,-0.47214570845201437,0.5025317503880927
-4014.515327692032,-148.0,5140.0,-15400.0,-730.0,-86.0,-1787.0,0.011410358210334086,0.7893414690049099,-0.3862697941962315,0.4770801768322424
-4014.5309307575226,720.0,5496.0,-15440.0,-632.0,-395.0,-1827.0,0.11608279098290664,0.8542985789192239,-0.282959321458734,0.4202769873474235
-4014.5465433597565,1244.0,5960.0,-14836.0,-1422.0,-288.0,-4080.0,0.34113049528489725,0.8898718486745766,-0.03164053293161907,0.3012589497408751
-4014.5621659755707,624.0,5136.0,-15588.0,-1573.0,-1005.0,-4751.0,0.5345951617389599,0.8063330870199806,0.24302523075288548,0.0705244853907524
-4014.5778107643127,876.0,5240.0,-15648.0,-928.0,-1003.0,-3566.0,0.6098903500504604,0.6582094905832897,0.4188308573931345,-0.139193176257835
-4014.5934166908264,496.0,5252.0,-15964.0,-317.0,-517.0,-2452.0,0.6025432961924657,0.5328656076096457,0.5235132688572602,-0.28094426096773645
-4014.609026670456,156.0,5580.0,-15452.0,-664.0,-405.0,-2038.0,0.5911852031193336,0.38815911957762383,0.60255962803777,-0.36980325601657504
-4014.6246440410614,-1032.0,4896.0,-15356.0,-1177.0,-479.0,-3326.0,0.5240613819040894,0.13108929983912315,0.6958524376646535,-0.4732490342944444
-4014.640249490738,-656.0,5476.0,-15780.0,-1200.0,-625.0,-3749.0,0.3974443639572639,-0.16733986058550362,0.7177589322850056,-0.5466785744319225
-4014.6559360027313,208.0,5808.0,-15700.0,-1194.0,-460.0,-3786.0,0.2153482709147084,-0.441788999621691,0.664419614371502,-0.5630223601827331
-4014.671534061432,40.0,5616.0,-15224.0,-1747.0,-626.0,-3933.0,-0.008489215910774098,-0.6857950355935879,0.5487679304322475,-0.4779820717323167
-4014.6871206760406,24.0,5032.0,-15388.0,-1641.0,-648.0,-3413.0,-0.20678663541391723,-0.8297545734153073,0.3920142181735554,-0.3392218861753305
-4014.7027196884155,292.0,4972.0,-15528.0,-862.0,-226.0,-1618.0,-0.30538589507367264,-0.8651824959838255,0.30056360524047077,-0.2604999480577683
-4014.718320131302,400.0,5440.0,-15268.0,43.0,451.0,136.0,-0.3104970233416534,-0.8519257500827819,0.2975694772281608,-0.29877503420470264
-4014.734001636505,-256.0,5720.0,-15500.0,419.0,446.0,320.0,-0.281976192718044,-0.8419654083241169,0.29779660145794834,-0.3505721924025564
-4014.749623298645,-292.0,5912.0,-15448.0,149.0,197.0,-886.0,-0.3022173743244221,-0.8600080766034958,0.22255601934379,-0.34571604690418184
-4014.7652299404144,-328.0,6036.0,-15596.0,-516.0,-208.0,-2542.0,-0.40323972613313347,-0.8797698327379189,0.051490470550423606,-0.246478185880344
-4014.780850172043,-564.0,5392.0,-15292.0,-1517.0,-520.0,-2976.0,-0.5574372222199938,-0.8163142718430075,-0.12093962579978496,-0.09093052172117852
-4014.796466112137,-460.0,5016.0,-15428.0,-974.0,-747.0,-2590.0,-0.6354358237724255,-0.7253834874151951,-0.2535922828884705,0.07570379192248212
-4014.8121082782745,100.0,5652.0,-15860.0,-251.0,252.0,-1623.0,-0.6282284523943648,-0.6704160119945748,-0.3681413584576818,0.14263002017949758
-4014.827744245529,372.0,6232.0,-15380.0,282.0,625.0,-633.0,-0.5816278496155817,-0.6712934144853767,-0.4345241007440481,0.14920791565025926
-4014.843353033066,16.0,6136.0,-15372.0,-417.0,568.0,-1122.0,-0.5659234076591373,-0.6111023147632516,-0.5310203074657491,0.1558912781827347
-4014.8589882850647,-408.0,5032.0,-15400.0,-728.0,188.0,-1684.0,-0.5656315953193073,-0.49350765950495934,-0.6319696046510936,0.19267980481517166
-4014.8746242523193,-604.0,4652.0,-15680.0,-331.0,520.0,-983.0,-0.5317439455913711,-0.4296630548209533,-0.7020580830300543,0.1993802490243518
-4014.890227794647,-928.0,4828.0,-15696.0,1433.0,1398.0,1551.0,-0.40924282413031654,-0.6011104523387928,-0.6678147669138051,0.15877648465297103
-4014.9058470726013,-276.0,6160.0,-15264.0,2738.0,1676.0,1605.0,-0.18129271769386623,-0.7784497745710336,-0.5778711533836077,0.1649661452194895
-4014.9215455055237,468.0,7280.0,-14952.0,1309.0,1332.0,-432.0,-0.01871133197570805,-0.7857043070176061,-0.6010768801427805,0.1450007315412575
-4014.937197446823,16.0,5816.0,-14920.0,-972.0,233.0,-3261.0,-0.03068639059470931,-0.5904303323785007,-0.8025641963376949,0.07963089096897077
-4014.9528589248657,208.0,4332.0,-15744.0,-521.0,-861.0,-3151.0,-0.09224863147216476,-0.3481571809399529,-0.9283503761515841,0.09188224230323196
-4014.968517303467,1200.0,5092.0,-16148.0,2202.0,399.0,2256.0,-0.010619905170538268,-0.5318445814690156,-0.8146605046234724,0.2309909543312154
-4014.9841089248657,388.0,5912.0,-15912.0,3110.0,1986.0,6355.0,0.12353978297072857,-0.8642164905946452,-0.3862642515861701,0.297771233255324
-4014.999769926071,-2140.0,5940.0,-15652.0,3951.0,1584.0,4474.0,0.3155483908698692,-0.8923875484114268,0.062452854077102334,0.3165016863735548
-4015.015429019928,-1348.0,7056.0,-14900.0,1518.0,214.0,-2128.0,0.4787727923960553,-0.8463651778414701,-0.05400041034414507,0.2269946137716142
-4015.031051158905,-456.0,5260.0,-15264.0,-1434.0,-1182.0,-4410.0,0.41928478843930994,-0.7956328890587024,-0.4221913693414316,0.1136794602604729
-4015.0467257499695,1020.0,3876.0,-15572.0,-578.0,-2005.0,-3380.0,0.31985564261859345,-0.6353500604249628,-0.6954472511061384,0.10186161952354168
-4015.0623366832733,1488.0,5056.0,-15932.0,1286.0,-1588.0,-759.0,0.295977226747465,-0.5298197620472517,-0.7569626905784287,0.24227254500528822
-4015.0779926776886,1264.0,6240.0,-15868.0,1104.0,-506.0,783.0,0.29453568066406527,-0.5381327971785387,-0.7050266890291321,0.3558078036990997
-4015.093593120575,128.0,5708.0,-15240.0,1773.0,555.0,490.0,0.3911305501599896,-0.5326133970909969,-0.6043915690597476,0.44502886785042206
-4015.1091911792755,-208.0,5620.0,-15372.0,-1241.0,220.0,-970.0,0.3789130413091028,-0.52740286241046,-0.6837303069166915,0.33284229786904573
-4015.1247851848602,-1300.0,3668.0,-16104.0,-2266.0,-813.0,-1084.0,0.25078672568135973,-0.500980560866239,-0.8053042651119404,0.19393178297712946
-4015.1403908729553,-916.0,3144.0,-16124.0,-1477.0,-516.0,-442.0,0.15562140717657613,-0.4886468506475064,-0.8524338782594639,0.10179742715896611
-4015.15607881546,-696.0,4476.0,-15672.0,-1189.0,-342.0,248.0,0.07656907472537049,-0.5170855445469512,-0.851941838780438,0.030900157793931668
-4015.1717269420624,-748.0,4852.0,-15712.0,-2656.0,-80.0,659.0,-0.0498503822694519,-0.5676077557975764,-0.8071507378931144,-0.15441522355204942
-4015.187338590622,-864.0,3760.0,-15940.0,-2398.0,-352.0,1741.0,-0.1646246020568543,-0.6624672331953226,-0.6649688519267108,-0.30307149537267325
-4015.2029452323914,40.0,4228.0,-15688.0,-2292.0,289.0,4435.0,-0.14937040481836752,-0.8059722473558139,-0.322847609113033,-0.4731454744014933
-4015.218558549881,-536.0,4260.0,-15236.0,-1920.0,914.0,6191.0,-0.0026379660785994445,-0.7969575787822595,0.15616768294796377,-0.5834923423312006
-4015.2341661453247,-1524.0,5144.0,-15364.0,-2044.0,581.0,5674.0,0.12035318375997288,-0.6097800322794736,0.5788256157889284,-0.527867720076394
-4015.2498257160187,-440.0,6184.0,-15060.0,-2377.0,373.0,2776.0,0.09788385799701277,-0.4546506947011064,0.7999426914588748,-0.3792139060384698
-4015.2654490470886,904.0,6632.0,-15048.0,-4308.0,-247.0,1491.0,-0.00611526094429975,-0.367471980859994,0.9285768915830787,-0.05169045641433893
-4015.2810554504395,516.0,5296.0,-14916.0,-4364.0,-833.0,769.0,-0.06997246169117073,-0.28526723747662963,0.9056818804997754,0.3057233866777622
-4015.296672105789,988.0,5556.0,-15872.0,-3439.0,-560.0,2383.0,-0.16413860382304987,-0.05725275115075144,0.8227987154757392,0.5410941831438993
-4015.3122651576996,608.0,6472.0,-15000.0,-2534.0,172.0,3516.0,-0.3320937524028659,0.2088795875644493,0.6719646840320866,0.6281293823150988
-4015.3279252052307,-132.0,7128.0,-14984.0,-2742.0,92.0,2911.0,-0.4219639384733356,0.42864928584344425,0.44016711281766396,0.6666776861180658
-4015.3435294628143,-88.0,6968.0,-15016.0,-2583.0,-408.0,516.0,-0.3306992873663062,0.5526647640926726,0.27843200007695446,0.7125133410673476
-4015.35915017128,368.0,7196.0,-15484.0,-3983.0,-876.0,-1249.0,-0.03701485848369816,0.6484178626577914,0.10917594728634235,0.7525056731825104
-4015.3747341632843,700.0,6588.0,-14908.0,-4684.0,-1233.0,-1738.0,0.3229273870597565,0.6642462353473219,-0.08752865647988832,0.66845611359946
-4015.390348672867,572.0,6100.0,-15236.0,-3897.0,-1228.0,-545.0,0.5374898826600983,0.5932486377869368,-0.2990515448688766,0.5193542657122553
-4015.406007051468,592.0,6400.0,-15428.0,-2602.0,-682.0,2028.0,0.5395747174889942,0.43120181132835794,-0.5315042332454589,0.4903339394697987
-4015.4216182231903,-244.0,7156.0,-15188.0,-2932.0,-584.0,2253.0,0.5003083050573864,0.20326831371891663,-0.7313244295771817,0.41657912961655064
-4015.4372143745422,-708.0,6540.0,-14544.0,-3397.0,-967.0,1367.0,0.426329389591983,0.0028186248068555043,-0.8748749349786306,0.22984593768536038
-4015.4528799057007,-120.0,6900.0,-15320.0,-3173.0,-1038.0,2444.0,0.2808869183727089,-0.26425984811450426,-0.9197184213455243,0.07339820978251964
-4015.4685292243958,-460.0,6652.0,-15608.0,-3252.0,-774.0,2991.0,0.11580165976057842,-0.5392165101987231,-0.8292985551803728,-0.0899968727320676
-4015.4841363430023,-636.0,6840.0,-14728.0,-3366.0,-867.0,2236.0,-0.08285171038573436,-0.6978106281525773,-0.6644855716763034,-0.25427317270502636
-4015.4997837543488,-280.0,7388.0,-15312.0,-3562.0,-793.0,779.0,-0.3125076170787363,-0.6987015444835064,-0.5062042697717436,-0.39738190480819396
-4015.5153765678406,188.0,7816.0,-15128.0,-3070.0,-1507.0,1865.0,-0.47480434787227555,-0.7098833534438893,-0.23205240043735173,-0.4655943934328508
-4015.530961751938,480.0,7756.0,-14916.0,-3451.0,-1636.0,2608.0,-0.5709196387318523,-0.6365314351396117,0.12739701582183907,-0.5026415209163365
-4015.5465834140778,-612.0,7764.0,-15188.0,-2878.0,-2114.0,3144.0,-0.525789398227185,-0.5090553812553948,0.49277125127217164,-0.4707277572509165
-4015.5622103214264,-1184.0,8048.0,-16268.0,-2914.0,-2224.0,3176.0,-0.39510482140606284,-0.3042121549819068,0.7880024984639806,-0.36110830408268374
-4015.5778045654297,-1876.0,7788.0,-15476.0,-3383.0,-2284.0,2063.0,-0.24398035676615687,-0.1093697462852723,0.9549442241092339,-0.128815266758903
-4015.593405723572,-2420.0,7312.0,-15656.0,-4564.0,-2343.0,450.0,-0.07937592488959617,-0.0009705376416068028,0.9671964852702178,0.24130785210088873
-4015.6090219020844,-1572.0,6656.0,-16100.0,-5319.0,-2267.0,1352.0,0.07399914908037351,0.1754979073864759,0.7734078548088583,0.6046196329580348
-4015.6246128082275,-1820.0,6564.0,-17388.0,-5991.0,-2122.0,2366.0,0.15848491513796525,0.35155627708740084,0.35081752167898494,0.8533567731008955
-4015.640248775482,-1296.0,6072.0,-18264.0,-6575.0,-2098.0,1286.0,0.2802834581715855,0.38919080316328925,-0.17654269235469924,0.8595373055223635
-4015.655909538269,-40.0,5660.0,-17840.0,-5761.0,-2767.0,3150.0,0.1673348744626495,0.34613350966558193,-0.6652242141804788,0.6400526370097386
-4015.67151427269,772.0,4208.0,-17612.0,-6843.0,-1070.0,3035.0,0.11882270249451528,0.10841256076494148,-0.9638484894849578,0.21242403667629767
-4015.6871049404144,-528.0,532.0,-17584.0,-5586.0,-4466.0,-3097.0,-0.12130647444701816,0.32556548464903423,-0.8966139420218351,-0.27454561266671096
-4015.7027027606964,1792.0,2020.0,-14692.0,-4026.0,-5286.0,2139.0,-0.3152333706665253,0.0633551116147734,-0.6876339163896364,-0.6509789926573291
-4015.7183043956757,1792.0,2148.0,-16680.0,576.0,-3433.0,13687.0,0.15955974089476577,-0.6104408536371245,-0.442203955780796,-0.6374624026467676
-4015.7339046001434,108.0,2732.0,-15068.0,6418.0,-1306.0,21389.0,0.7480912038243861,-0.6470908257866549,0.1467335562820146,-0.010113229165740754
-4015.7495396137238,-1684.0,6176.0,-13636.0,8299.0,-1717.0,19009.0,0.6054317342338187,0.06583512147017813,0.530970539452783,0.589226983595336
-4015.7651748657227,-3556.0,9212.0,-14052.0,6648.0,-2093.0,8998.0,0.1429321269157072,0.6680561387970969,0.5042776342906832,0.5281812852279586
-4015.780764102936,-3420.0,9772.0,-13728.0,2716.0,-2624.0,-513.0,0.11748947785622874,0.7593781304777051,0.5947339569478415,0.23628922531173455
-4015.7963433265686,-2024.0,6988.0,-14348.0,137.0,-1459.0,-7461.0,0.2817512668771831,0.33627910804340627,0.8974276863570585,0.04643417778372657
-4015.8119797706604,-1104.0,4728.0,-15536.0,97.0,-1446.0,-8063.0,0.3453769255175707,-0.23336508768901293,0.894048817129359,-0.16411041331226914
-4015.8275604248047,-260.0,3716.0,-14924.0,1929.0,-621.0,-5521.0,0.31479200010755093,-0.5470804903056626,0.6542832068992793,-0.416560222494657
-4015.843145132065,-1360.0,2608.0,-14944.0,4191.0,-160.0,-4297.0,0.3256932356366902,-0.6052223266132198,0.25911487391636373,-0.6785936440497297
-4015.8587214946747,-352.0,3164.0,-15448.0,6346.0,-786.0,-1572.0,0.5076390376819393,-0.43977264283912243,-0.1925075974300952,-0.7154323552673172
-4015.874290704727,896.0,4596.0,-15172.0,6195.0,-756.0,-102.0,0.637710064956528,-0.18531587801036623,-0.5417282212724043,-0.5152809259883628
-4015.8898866176605,492.0,5356.0,-15696.0,5333.0,-1135.0,28.0,0.6062078546948396,0.05335718531964721,-0.7625273610517467,-0.21958385944441502
-4015.9055054187775,-604.0,5572.0,-16052.0,4011.0,-1989.0,-2380.0,0.3742816877622221,0.35285023531449566,-0.8537903284946919,-0.08032437122874968
-4015.921196937561,-440.0,5628.0,-15384.0,3430.0,-2384.0,-1504.0,0.07478489250469336,0.5224391815871631,-0.8479728365239926,0.049057006768158384
-4015.9368681907654,1456.0,6772.0,-15236.0,2032.0,-607.0,-2300.0,-0.050969873752282784,0.6835495315239957,-0.7123039610244256,0.1509475969729752
-4015.952567577362,-744.0,5860.0,-15284.0,1370.0,-373.0,-3052.0,-0.11085342495822367,0.8368024137569515,-0.4898599919933389,0.21796886646917477
-4015.96817946434,-604.0,5108.0,-16396.0,1994.0,449.0,-3016.0,-0.1712793277373286,0.8939219584092761,-0.2249459259146764,0.34780203360239614
-4015.9837975502014,568.0,7280.0,-14880.0,756.0,78.0,3917.0,-0.32810502677025555,0.7588083872235103,-0.48046589498435344,0.2927617574824778
-4015.9994428157806,-1132.0,3200.0,-15276.0,1114.0,788.0,-10334.0,-0.07737075634936656,0.8434519042496161,0.1551253387421953,0.5084670889642143
-4016.015103340149,428.0,3484.0,-15036.0,5215.0,-1861.0,-1133.0,-0.34584966742398526,0.78528035335004,0.4327661464857172,0.27647104123408295
-4016.030703306198,3788.0,5528.0,-15456.0,5159.0,198.0,698.0,-0.6586127426030135,0.5928860783345006,0.4584384741841773,0.06745012072455181
-4016.046298980713,-620.0,6412.0,-14516.0,6273.0,-1479.0,5155.0,-0.7742873987875566,0.3630500480145081,0.25463948547620213,-0.45147803839376055
-4016.0619473457336,-1440.0,6780.0,-15016.0,7335.0,-2101.0,3221.0,-0.6751459572727432,-0.1164458743488719,0.004559464649728669,-0.7284212421446165
-4016.077537536621,92.0,7776.0,-15256.0,6298.0,-861.0,-62.0,-0.5374975868814753,-0.4743547603847862,-0.30239005953215164,-0.6282070974551505
-4016.093155145645,-1588.0,6508.0,-15644.0,6493.0,-1481.0,211.0,-0.25600030489610187,-0.7484057311806818,-0.5016046541470398,-0.3503505050189599
-4016.1087412834167,-1072.0,7656.0,-16092.0,6917.0,-1518.0,1364.0,0.1447403466272527,-0.8539680151734198,-0.4994622404069177,0.018064648535058726
-4016.1243114471436,-1376.0,8448.0,-15604.0,7105.0,-860.0,1747.0,0.53315894844813,-0.7058292912781273,-0.3103632436412435,0.3481683562014027
-4016.139937877655,-2220.0,8892.0,-14692.0,6363.0,-674.0,-1969.0,0.8346161471824661,-0.29019926826297965,-0.23288617862327274,0.4061579734145034
-4016.155567884445,-1380.0,9068.0,-14840.0,5329.0,-129.0,-3663.0,0.9551443289662344,0.15413155461742023,-0.12735764135730207,0.21845550096704786
-4016.171169757843,-1232.0,8432.0,-15452.0,4554.0,765.0,-4558.0,0.860741008289087,0.4960409237376212,0.07353057243543856,-0.08753041496719892
-4016.186812877655,-1100.0,8380.0,-15340.0,4492.0,607.0,-4236.0,0.5539011920992555,0.7132610288325969,0.23582099710979768,-0.35894377200590877
-4016.2024505138397,-1660.0,8312.0,-14604.0,4256.0,-56.0,-3094.0,0.17549888372228367,0.7758541282121965,0.26568807122633853,-0.5446653673186438
-4016.218045949936,-636.0,8492.0,-14660.0,4050.0,149.0,-3427.0,-0.24048271598808726,0.6948143441985267,0.2789996090686796,-0.6177056811674053
-4016.2336390018463,-1352.0,7904.0,-14064.0,4986.0,-262.0,-2351.0,-0.5974209489004217,0.4676252056559902,0.14258937635617042,-0.6356753468559805
-4016.249244451523,-144.0,8844.0,-13688.0,5083.0,-79.0,-913.0,-0.7790017645148781,0.17051695883608364,-0.08944392465797031,-0.5967243936473345
-4016.264878988266,68.0,9008.0,-14076.0,4041.0,781.0,-1022.0,-0.8310588113232455,-0.05218230763269234,-0.3170401729246716,-0.4539865500695095
-4016.2805247306824,-692.0,8952.0,-14736.0,3665.0,547.0,-1173.0,-0.800736026619889,-0.2500099974492626,-0.48056252165494256,-0.255688246951351
-4016.2961101531982,-1004.0,8912.0,-14584.0,2638.0,134.0,-2647.0,-0.7571392031133168,-0.30471424211658105,-0.5767628749847599,0.03512895955708831
-4016.3117382526398,-628.0,8804.0,-13840.0,675.0,-251.0,-4552.0,-0.684447662391673,-0.11101125274748458,-0.6302630309396778,0.3492512148020952
-4016.3273577690125,-140.0,8152.0,-14168.0,-423.0,-373.0,-3846.0,-0.5603872670236828,0.12976160782938623,-0.6234609168574272,0.5295512451524937
-4016.34294962883,992.0,7288.0,-14044.0,-620.0,267.0,-2113.0,-0.43303652724479025,0.2579257829281978,-0.6297663260239794,0.5910567072446662
-4016.358529806137,896.0,6912.0,-14296.0,-540.0,711.0,871.0,-0.4241140630314925,0.1927051288138556,-0.7001507191982669,0.5410923814598614
-4016.3741567134857,168.0,6692.0,-15604.0,-757.0,1128.0,1859.0,-0.42169310295536405,0.052821202556763217,-0.7932385919808078,0.4360703884381965
-4016.389796972275,-1260.0,6288.0,-15888.0,-752.0,685.0,1540.0,-0.4238206613825502,-0.05156383309421237,-0.8434496421061715,0.3260520193663295
-4016.4053993225098,-1840.0,5532.0,-15284.0,-521.0,-459.0,1225.0,-0.4909682525453793,-0.1086576102900198,-0.8296912269395912,0.2423967133813379
-4016.420997619629,-1552.0,5268.0,-15348.0,1285.0,-976.0,401.0,-0.5519877545345544,-0.17041182227537777,-0.7492256992583047,0.32392928432543694
-4016.4366068840027,-396.0,6732.0,-14112.0,1934.0,-668.0,1493.0,-0.5946243274496903,-0.3343766818305106,-0.6252470459984464,0.3790518108692238
-4016.4522354602814,-136.0,7752.0,-13964.0,768.0,303.0,2815.0,-0.6283957336708904,-0.521217227838079,-0.5168525300487342,0.2575167285658037
-4016.4679267406464,-1212.0,7360.0,-14224.0,521.0,-75.0,4588.0,-0.6594486602196115,-0.7004618605985976,-0.2712245552695198,0.030296649982489418
-4016.4835188388824,-1984.0,8036.0,-13916.0,1544.0,-687.0,5523.0,-0.531957941002328,-0.8200959450299732,0.0981339572606684,-0.1866363211765612
-4016.4991087913513,-876.0,10680.0,-12440.0,56.0,188.0,6229.0,-0.3759937022255312,-0.6733810454466916,0.4692965028640845,-0.43005522426706966
-4016.5146853923798,-784.0,10612.0,-12636.0,-1451.0,866.0,9132.0,-0.11964206400568081,-0.17047326110571875,0.8018047862769069,-0.5601193876950571
-4016.530272960663,-2480.0,9096.0,-12936.0,-3444.0,1309.0,7939.0,0.09985528549163061,0.3854430321417495,0.8540516930861589,-0.3347510962930884
-4016.5458631515503,-4040.0,6136.0,-15416.0,-6027.0,812.0,3013.0,0.28404337913730493,0.5000889346001081,0.805144025462785,0.14482235504359217
-4016.5614392757416,-4176.0,3028.0,-15920.0,-5739.0,535.0,518.0,0.4375672826220317,0.3459390330620036,0.6457915380016284,0.521358176332153
-4016.5770378112793,-3200.0,-44.0,-16532.0,-2815.0,449.0,-695.0,0.5122577962580825,0.17334098145629714,0.5387172595751145,0.6460097279116307
-4016.5927155017853,-524.0,84.0,-16324.0,1528.0,264.0,4502.0,0.20575878840408632,0.4049066988601512,0.5252596359800317,0.7195944698389378
-4016.6082904338837,1984.0,3640.0,-14900.0,3962.0,3061.0,3980.0,-0.2833419425177291,0.4072504029130128,0.6012259507924889,0.6264118525627818
-4016.6239247322083,1952.0,7064.0,-16400.0,6512.0,4080.0,8417.0,-0.8428940682987907,0.3296285146596244,0.3952358604113005,0.15704536476745282
-4016.639523267746,3732.0,10232.0,-16856.0,2635.0,4690.0,3537.0,-0.9842267077990225,0.1687437162136508,-0.013184790505864399,-0.05147336391592095
-4016.655126094818,1992.0,7816.0,-18536.0,-4684.0,4867.0,816.0,-0.7790176506842393,0.5090038830330371,-0.36302675591411543,-0.04751969560268769
-4016.670717716217,-3120.0,4716.0,-18696.0,-7818.0,2820.0,8139.0,-0.21642395188160402,0.5574786781789732,-0.6203194014761743,-0.5075254048616828
-4016.686325073242,-4676.0,2984.0,-15384.0,-5489.0,1501.0,7685.0,0.36262997630980176,0.23936498746021995,-0.5985556444272231,-0.6730044900177361
-4016.701987504959,-2092.0,-756.0,-18212.0,2554.0,1349.0,3096.0,0.5266267437522338,0.22306479533361492,-0.7229453983444544,-0.3876291021843816
-4016.717576980591,32.0,5868.0,-14552.0,3786.0,2129.0,3682.0,0.6372208856822651,0.21214228785585468,-0.7388291160436331,0.05546827777907858
-4016.7331867218018,-664.0,5844.0,-15292.0,-1054.0,2093.0,-4599.0,0.7419300694601898,0.40123073736900433,-0.49470068658761396,-0.20934397080132516
-4016.748775243759,2756.0,3056.0,-16940.0,-1441.0,1341.0,3832.0,0.8612711126877053,0.15648337619864533,-0.48294821230621826,0.02204648845923015
-4016.7643926143646,-168.0,3052.0,-16356.0,94.0,1293.0,2494.0,0.8833717669926524,0.05447883174469404,-0.40781966411132314,0.22443150343955653
-4016.7800130844116,-112.0,4560.0,-15752.0,-263.0,336.0,1431.0,0.8611802753872508,-0.022965122677796358,-0.39083756353663396,0.3241714598065048
-4016.795610189438,860.0,4596.0,-16324.0,-239.0,1925.0,2968.0,0.80471466413391,-0.1877496213345156,-0.23623124841991164,0.5112525660439904
-4016.8112897872925,-672.0,4700.0,-15880.0,127.0,991.0,2480.0,0.6977670124414134,-0.26714584380601175,-0.11741420043218148,0.6541927850585255
-4016.8268868923187,800.0,4496.0,-16176.0,-67.0,1052.0,2152.0,0.5716620632578197,-0.3461234375684475,-0.006922808365816331,0.7438770907360596
-4016.8424994945526,284.0,4816.0,-15916.0,-231.0,770.0,1056.0,0.4931835371759145,-0.40582539916395777,0.04819055002168308,0.7679540448104142
-4016.8581371307373,816.0,5336.0,-15924.0,-519.0,742.0,-122.0,0.4782199112728359,-0.4771338194243405,0.04104228877990399,0.736182426682034
-4016.873787164688,712.0,4788.0,-16164.0,-730.0,1017.0,-418.0,0.46780870097913224,-0.5709082018194251,0.019162610065605955,0.6744268965269704
-4016.8894057273865,284.0,4492.0,-15900.0,-648.0,308.0,-238.0,0.44789580534025775,-0.6147999421865176,-0.018146553273307924,0.6489076060968585
-4016.905017852783,1120.0,4388.0,-15428.0,-573.0,737.0,-307.0,0.43395965903041406,-0.6761995001776225,-0.0380769246829555,0.5941240595199194
-4016.920768737793,768.0,4652.0,-15664.0,-579.0,746.0,-546.0,0.42847371410659096,-0.731901435493942,-0.07170787778187278,0.5249652800953893
-4016.936379671097,608.0,4408.0,-15620.0,-382.0,641.0,-152.0,0.41395064499968676,-0.773098292846112,-0.07476701225629125,0.47473549159614997
-4016.9520194530487,760.0,4424.0,-15752.0,-125.0,265.0,293.0,0.394655816336499,-0.7901825845770293,-0.05055849767074695,0.46615674185429773
-4016.967672586441,988.0,5132.0,-15824.0,-335.0,615.0,-553.0,0.3953687678986627,-0.821991198911295,-0.08087267335962978,0.40183779934985203
-4016.9832952022552,728.0,4548.0,-15692.0,-448.0,256.0,-904.0,0.3949006073047687,-0.8367713602157805,-0.1519665596401209,0.34752462621244984
-4016.998935699463,524.0,4700.0,-15680.0,-477.0,556.0,-1115.0,0.39833883494496053,-0.8496991673429557,-0.22717014482878592,0.260252229365759
-4017.014551639557,396.0,4536.0,-16172.0,-550.0,386.0,-928.0,0.3841190077435026,-0.8550585363697298,-0.29362149947345995,0.18738703882168387
-4017.030168771744,592.0,4636.0,-15364.0,-600.0,311.0,-1175.0,0.36373170246095304,-0.8443731231503822,-0.3780936613457622,0.10852861731489336
-4017.0458042621613,812.0,4368.0,-15756.0,-828.0,532.0,-1133.0,0.3279204088481217,-0.8312944432495002,-0.44875744551328317,0.005874451444763445
-4017.061425924301,900.0,4712.0,-15732.0,-582.0,242.0,-848.0,0.2940648203370452,-0.8114846852716259,-0.5015855704937027,-0.058569637887379046
-4017.077032327652,788.0,4756.0,-15788.0,-867.0,664.0,-1164.0,0.25302894137108783,-0.7719809521408719,-0.5572320159368322,-0.17179710351246683
-4017.0927085876465,328.0,4704.0,-15952.0,-675.0,199.0,-1020.0,0.20046154645110278,-0.7300827235589686,-0.6079686243587386,-0.2390994290049519
-4017.108297586441,760.0,4936.0,-15652.0,-606.0,177.0,-1736.0,0.1330067093637674,-0.6366893001375589,-0.6939592963731693,-0.30879838945794974
-4017.1239330768585,1088.0,4704.0,-15820.0,-979.0,988.0,-2521.0,0.06815636717633637,-0.4546644145936782,-0.7722869063948157,-0.4384152300349949
-4017.139533996582,620.0,4416.0,-15804.0,-866.0,540.0,-2792.0,-0.03555363597601808,-0.2430064083069923,-0.8197337879643921,-0.5174169898255848
-4017.1551280021667,568.0,4716.0,-15644.0,-381.0,193.0,-3298.0,-0.17164273429741883,0.0026428947483647367,-0.8386343028050078,-0.5169374169365312
-4017.1708149909973,332.0,5064.0,-15444.0,-348.0,110.0,-3845.0,-0.319195344155898,0.27876276783579373,-0.7807397527406122,-0.45918524587387693
-4017.1864361763,856.0,4576.0,-15656.0,-383.0,333.0,-4860.0,-0.44312883181379153,0.583117809635161,-0.6040245699690492,-0.3142686388670399
-4017.202025413513,956.0,5036.0,-15608.0,-329.0,226.0,-2591.0,-0.47305747877779397,0.7201016958569951,-0.4601610519791978,-0.21429413346537116
-4017.2176117897034,476.0,4680.0,-15804.0,-404.0,130.0,-2384.0,-0.4762463945996118,0.8170268076717483,-0.30160902535514156,-0.12119638196293067
-4017.2331993579865,460.0,5232.0,-15440.0,-464.0,-195.0,-2109.0,-0.46212768344111943,0.8743813757724151,-0.1358755249002302,-0.058592283047938
-4017.248802423477,612.0,5032.0,-15588.0,-548.0,85.0,-2821.0,-0.4204134607707639,0.9025259410368454,0.07637743673652983,0.05353442738895614
-4017.2644412517548,560.0,5028.0,-15372.0,-356.0,-120.0,-1543.0,-0.38043746604220907,0.8974030036328065,0.1987793340694195,0.10208800051484276
-4017.280089855194,848.0,4944.0,-15704.0,-710.0,345.0,-1204.0,-0.3172957496853125,0.8901120498159166,0.27319473319835597,0.17996828541946364
-4017.2957243919373,344.0,4732.0,-15804.0,-216.0,251.0,-661.0,-0.2952134138350994,0.8746667540280527,0.3136101383669906,0.22238657963846042
-4017.3113210201263,476.0,4872.0,-15664.0,136.0,194.0,-1430.0,-0.2806281203543431,0.8218002064279519,0.41715890726084537,0.2680871590999864
-4017.326911211014,700.0,5436.0,-15624.0,-620.0,424.0,-1300.0,-0.21902609698700265,0.7731976798301482,0.48148160544283936,0.3498119214150679
-4017.34250831604,472.0,4488.0,-16004.0,-57.0,-80.0,-375.0,-0.20001558062625463,0.7606154652074606,0.5063898959856258,0.35359179124754553
-4017.358120203018,632.0,5044.0,-15640.0,-177.0,194.0,-1240.0,-0.15737252402028287,0.6987254868763656,0.5764438423487087,0.39335617357698643
-4017.3737227916718,452.0,4580.0,-15676.0,139.0,211.0,-1370.0,-0.1282855896697483,0.6161857058764193,0.6571331638978523,0.4147698015312375
-4017.3893535137177,204.0,4592.0,-15692.0,886.0,34.0,-1683.0,-0.1152034811930688,0.5017074432524369,0.7689121965922396,0.37919893622978196
-4017.4049260616302,696.0,5544.0,-15572.0,210.0,-28.0,-1036.0,-0.08766762427547907,0.42920230331696685,0.8181413577579448,0.37248421336654
-4017.4205219745636,792.0,4384.0,-15820.0,43.0,219.0,294.0,-0.11426846429111447,0.4425444869876934,0.8065597948925595,0.37491117930547485
-4017.436112165451,612.0,5044.0,-15620.0,49.0,260.0,139.0,-0.13877905641311555,0.4432034942528785,0.800061969242061,0.3797523950624139
-4017.4517245292664,172.0,4676.0,-15848.0,-68.0,230.0,264.0,-0.16068728997071474,0.45464163675151276,0.7845702353396543,0.3897821478632034
-4017.4673357009888,296.0,4860.0,-15748.0,250.0,48.0,562.0,-0.19252799919169847,0.4872995097405331,0.7691283425493123,0.365942276897908
-4017.4829285144806,480.0,4616.0,-15680.0,-19.0,213.0,1073.0,-0.23897371559528696,0.5503662039589308,0.7162012176539072,0.3564329118157865
-4017.49853682518,544.0,4788.0,-15660.0,20.0,288.0,1207.0,-0.293519693576358,0.6128933351214728,0.649199254522619,0.3416844701969854
-4017.514170408249,344.0,5148.0,-15408.0,-107.0,138.0,1940.0,-0.3482102138628056,0.7112912484626026,0.5312412067477162,0.30099366617150186
-4017.5298035144806,460.0,4632.0,-15776.0,-115.0,182.0,1907.0,-0.3938522625183263,0.7875454959352842,0.39889122237675895,0.2560044527972464
-4017.5453956127167,672.0,4760.0,-15736.0,133.0,50.0,1668.0,-0.43709031662099446,0.8312205605657104,0.28261299058951306,0.1953313399304797
-4017.5610122680664,608.0,5140.0,-15612.0,253.0,56.0,1726.0,-0.48043876479097325,0.85348297078285,0.1578454479782822,0.12581822770306536
-4017.576604604721,424.0,4616.0,-15544.0,-56.0,-116.0,1536.0,-0.48687768744826415,0.8705739799011721,0.04730768756426776,0.05303815307291033
-4017.5921924114227,680.0,4812.0,-15492.0,66.0,-212.0,1391.0,-0.4934691533748919,0.8681140819263358,-0.048677342725470835,-0.02228568450484401
-4017.6077842712402,656.0,4808.0,-15752.0,-24.0,72.0,1633.0,-0.4830050631868895,0.85385766876008,-0.17370379670229055,-0.08637234190781025
-4017.623387813568,664.0,4480.0,-15768.0,180.0,164.0,1565.0,-0.4773233217871407,0.816170614985035,-0.2958262408736497,-0.13606913288326972
-4017.6389763355255,308.0,5676.0,-15516.0,218.0,-586.0,4311.0,-0.42671587502947755,0.6439846103931548,-0.5432265245374915,-0.3287891826285073
-4017.654590845108,676.0,4904.0,-15812.0,-117.0,196.0,1830.0,-0.3535252713626821,0.5600850898924897,-0.6418913177556391,-0.3863937250758515
-4017.6702225208282,856.0,5160.0,-16072.0,-258.0,63.0,1591.0,-0.28071682474706106,0.4764036790418454,-0.70608821292181,-0.4423539696580182
-4017.68581032753,480.0,4380.0,-15748.0,292.0,-221.0,2185.0,-0.21787570764535155,0.32020142429851894,-0.7883420868049826,-0.47803554059003006
-4017.701403617859,504.0,4864.0,-15620.0,253.0,-142.0,1061.0,-0.18939697148449222,0.23540929626459722,-0.8222275936919942,-0.48234120142921877
-4017.716980934143,832.0,4844.0,-15736.0,101.0,-244.0,1007.0,-0.16573996450470693,0.1505968105832493,-0.8398394653828243,-0.4944901790669084
-4017.7325954437256,680.0,4832.0,-15632.0,63.0,-42.0,787.0,-0.13521812602269895,0.08997362483293823,-0.8504351428815103,-0.500380728027605
-4017.74818444252,684.0,4764.0,-15696.0,26.0,-171.0,573.0,-0.12280338927283146,0.039609617493825446,-0.8530540177479156,-0.5056176901466535
-4017.7638404369354,912.0,4904.0,-15612.0,65.0,-24.0,519.0,-0.10169623412806754,-0.0008015771151788015,-0.8567268731304274,-0.505644438607267
-4017.779449701309,616.0,4912.0,-15804.0,-42.0,-28.0,499.0,-0.08160827421584399,-0.03895286674017992,-0.8539360828085953,-0.5124606621290507
-4017.7950863838196,640.0,4692.0,-15668.0,-166.0,-89.0,-27.0,-0.08993042337703762,-0.03975719612475346,-0.8460227539498404,-0.5240013207107903
-4017.8106813430786,748.0,4756.0,-15632.0,-32.0,-64.0,67.0,-0.09162472174832181,-0.047403354179605325,-0.8439626566179067,-0.5263885129935025
-4017.8262734413147,556.0,4704.0,-15696.0,-152.0,-113.0,-4.0,-0.10067564496429754,-0.05110193255566373,-0.8361525651162527,-0.5367512411253559
-4017.8418667316437,516.0,4660.0,-15660.0,-31.0,-195.0,-10.0,-0.1154208066840379,-0.05925015239162909,-0.8330822795445016,-0.5377186739689366
-4017.8574929237366,824.0,5012.0,-15672.0,-62.0,-112.0,-356.0,-0.14042394114111495,-0.038014677156811706,-0.8306082185631799,-0.5375183609239417
-4017.8731560707092,724.0,5076.0,-15736.0,-95.0,-91.0,-294.0,-0.16095943293837175,-0.01983492577256113,-0.8258643820797136,-0.5400432011236208
-4017.8887691497803,648.0,4760.0,-15912.0,-367.0,-2.0,-787.0,-0.19814908541857412,0.041791420063057645,-0.8077768296823528,-0.5536126900507458
-4017.9043684005737,264.0,4376.0,-15676.0,90.0,-371.0,-52.0,-0.22689094902026444,0.025946819868194686,-0.8052560165450479,-0.5471837055408473
-4017.920075893402,692.0,4976.0,-15652.0,-363.0,-246.0,-970.0,-0.28828969892024175,0.08913380611597785,-0.7777106977894206,-0.5514619521305602
-4017.935743331909,356.0,4380.0,-15624.0,-127.0,-329.0,-449.0,-0.33067111523749515,0.10682143209758446,-0.7590986472612253,-0.5504680180704329
-4017.9513471126556,692.0,4980.0,-15704.0,-302.0,-102.0,-870.0,-0.37500812741089384,0.16769889088188933,-0.7313708328653818,-0.5443736687299972
-4017.9669930934906,460.0,4740.0,-15876.0,-343.0,-168.0,-807.0,-0.41760314250529945,0.2217742388676565,-0.6958879342882383,-0.5405217713065946
-4017.9828984737396,456.0,4836.0,-15772.0,-425.0,-251.0,-943.0,-0.4669076923732768,0.28149057226564117,-0.6459015132545025,-0.5343889030507342
-4017.998687505722,548.0,4756.0,-15588.0,-425.0,-220.0,-847.0,-0.5063583619272086,0.3351187005021426,-0.5944164936560027,-0.5272245232819244
-4018.0142962932587,544.0,4664.0,-15532.0,-489.0,-136.0,-788.0,-0.5333977529645856,0.39010122932841823,-0.5412989239282489,-0.5199070522342506
-4018.0299525260925,424.0,4728.0,-15768.0,-765.0,-215.0,-1160.0,-0.5657136177832721,0.4673351845931825,-0.45392912290881804,-0.5054842027907986
-4018.045540332794,764.0,4716.0,-15664.0,-357.0,-509.0,-931.0,-0.6093047972821796,0.4971512320013688,-0.3735289356877236,-0.492000458061209
-4018.0612177848816,668.0,5048.0,-15884.0,-310.0,-85.0,-1103.0,-0.6425813805680193,0.5433712101690819,-0.30651664552151914,-0.44484204311746595
-4018.0768053531647,508.0,5140.0,-15868.0,-311.0,84.0,-733.0,-0.6522615899341997,0.5824367491487856,-0.26393156008435636,-0.4070164408582808
-4018.092413663864,288.0,4996.0,-15784.0,-265.0,57.0,-1099.0,-0.6730457274606493,0.6220261278609543,-0.20107826658301475,-0.34591975328570496
-4018.108066558838,340.0,4576.0,-15736.0,-93.0,-315.0,-521.0,-0.6880647888113862,0.6264333822390792,-0.15138493719928028,-0.33351261565886864
-4018.123674631119,604.0,4936.0,-15420.0,-74.0,40.0,-1223.0,-0.7148170254428652,0.6447419233106867,-0.08438537112055063,-0.25733942877743715
-4018.1392982006073,596.0,4968.0,-15488.0,-287.0,70.0,-1265.0,-0.721740087889039,0.6694727146467752,-0.011111109566916171,-0.17542540614629365
-4018.1549022197723,544.0,4724.0,-15612.0,-159.0,14.0,-808.0,-0.7227355009263434,0.6789627201410892,0.03754093046250459,-0.12350586585004825
-4018.170507669449,740.0,4820.0,-15732.0,-155.0,27.0,-815.0,-0.7203255267126432,0.6847898655019298,0.08559395516206876,-0.06976854958873428
-4018.186146736145,548.0,4940.0,-15756.0,-57.0,-253.0,-385.0,-0.7165718215213104,0.6836156105020632,0.12479135014000063,-0.06018006820998756
-4018.2017743587494,448.0,4948.0,-15872.0,-89.0,109.0,-311.0,-0.7135501069937332,0.6862777717469383,0.13698912899362478,-0.033212096483919255
-4018.217376470566,8.0,4716.0,-15704.0,18.0,-58.0,-187.0,-0.7141540453499944,0.6828689345466771,0.15178067196295345,-0.025231832271924052
-4018.232964515686,508.0,4980.0,-15508.0,77.0,92.0,-456.0,-0.7201419592045345,0.6718751894543029,0.1729751381719636,0.00767397961876248
-4018.2485518455505,516.0,5020.0,-15768.0,-254.0,190.0,-564.0,-0.7063927818185933,0.6783214856282475,0.19370598420287882,0.05802750738805331
-4018.26415848732,268.0,5100.0,-15776.0,151.0,120.0,-420.0,-0.7144354468009437,0.6609718028106037,0.2118531197889439,0.08841110721695328
-4018.279805660248,304.0,4984.0,-15780.0,170.0,301.0,-308.0,-0.7266248073201254,0.6420369960607867,0.2120928923388618,0.12174354231567258
-4018.295428276062,244.0,4940.0,-15560.0,90.0,187.0,-378.0,-0.7303855607765025,0.6271083217651561,0.2223220559931827,0.15441822690682494
-4018.3110229969025,444.0,4576.0,-15404.0,230.0,145.0,-162.0,-0.743113812603839,0.6073275069549592,0.22507960549839715,0.1681497309006063
-4018.32665848732,536.0,4852.0,-15752.0,188.0,329.0,-230.0,-0.7554014806872494,0.5855602758760685,0.21865877603431158,0.19666241622290362
-4018.34224152565,136.0,4812.0,-15740.0,253.0,221.0,14.0,-0.7722656227610291,0.5653268883797491,0.2077581047263466,0.2021086022338166
-4018.357846260071,432.0,4788.0,-15656.0,365.0,-123.0,379.0,-0.7936620661484285,0.5493751798185379,0.2036988149316888,0.16368942956642696
-4018.3735134601593,404.0,4756.0,-15844.0,267.0,-141.0,721.0,-0.8121898269954078,0.5446688942241241,0.18242386816428327,0.10200496514297651
-4018.389135837555,484.0,5112.0,-15532.0,337.0,124.0,95.0,-0.8304231401053987,0.521141688483406,0.1721569362666796,0.09576397129100524
-4018.404746055603,112.0,4564.0,-15640.0,308.0,22.0,585.0,-0.8480757036370868,0.506819475132383,0.1464073676158173,0.04966390273430779
-4018.420303583145,176.0,5092.0,-15940.0,590.0,-157.0,762.0,-0.8721605431869645,0.47210062163479233,0.1265327389512322,-0.021129503859794403
-4018.4359419345856,480.0,5044.0,-15792.0,217.0,29.0,81.0,-0.880947640111023,0.4566833852937381,0.12067012766990758,-0.02846508857528762
-4018.4515342712402,652.0,4880.0,-15940.0,505.0,3.0,-112.0,-0.90033690818503,0.4165127678332667,0.12363484867249151,-0.024999803707674722
-4018.4671306610107,268.0,4560.0,-15716.0,5.0,-132.0,26.0,-0.8988424089873024,0.4163354293816326,0.13315956830121972,-0.03186947469518974
-4018.4827303886414,600.0,4732.0,-15624.0,206.0,-99.0,343.0,-0.9035122742777655,0.4038701196531743,0.12794075589732334,-0.06469667426670628
-4018.4983348846436,368.0,4448.0,-16052.0,218.0,-138.0,436.0,-0.9061847059728955,0.3906427927578299,0.12222755405322029,-0.10624458648489912
-4018.513993740082,248.0,4676.0,-16112.0,133.0,-216.0,334.0,-0.9045926073923074,0.381684123885652,0.1267211193960661,-0.14131950369229615
-4018.529586791992,156.0,4416.0,-16048.0,51.0,-342.0,917.0,-0.8878378053541858,0.3824433674823891,0.12221467531049379,-0.22482142956431886
-4018.545173883438,184.0,4472.0,-15540.0,51.0,-385.0,721.0,-0.8689533468638222,0.3779250691737171,0.12675704013268485,-0.2933008282310224
-4018.560765028,408.0,4408.0,-15612.0,-240.0,-427.0,555.0,-0.8402355518920728,0.3907802509148284,0.14677282952288534,-0.34605310191560706
-4018.5919420719147,152.0,4560.0,-15776.0,-73.0,-264.0,1128.0,-0.7961011753101735,0.40081705431932946,0.12930154106673647,-0.434568428575182
-4018.607532978058,236.0,5004.0,-15596.0,82.0,-635.0,1156.0,-0.7429211643411042,0.3818151890134206,0.12907994736556178,-0.5344377159228266
-4018.6231174468994,356.0,5084.0,-16104.0,-50.0,-169.0,957.0,-0.6921119628475995,0.3868321437911871,0.110134753828018,-0.5993431900108647
-4018.6387152671814,144.0,4792.0,-15528.0,104.0,-757.0,969.0,-0.6338906172035049,0.3485338351947503,0.11704676402844967,-0.6804461082086273
-4018.6543204784393,588.0,4748.0,-15736.0,32.0,-424.0,507.0,-0.5993348350723412,0.3265017724600494,0.12300410305008284,-0.7204611985958025
-4018.670004606247,448.0,4944.0,-15748.0,231.0,-429.0,744.0,-0.552782867521701,0.294828238101772,0.10940954460451313,-0.7717104139129674
-4018.685611963272,108.0,5108.0,-15792.0,41.0,-526.0,-125.0,-0.5565348873018181,0.25623404559412455,0.13506963551625456,-0.7786971341002399
-4018.7012083530426,292.0,4720.0,-15752.0,333.0,-735.0,198.0,-0.5403799270980105,0.1922224927974411,0.14337654976360695,-0.8065253949071725
-4018.716805458069,744.0,4928.0,-15636.0,82.0,-312.0,-481.0,-0.5709378479589985,0.16040848527118418,0.16026965006258198,-0.789058128967549
-4018.732401371002,36.0,4252.0,-15784.0,224.0,-728.0,121.0,-0.5542614650267562,0.1008052060021599,0.1791766603688822,-0.8065533232268716
-4018.7480170726776,324.0,4460.0,-15848.0,412.0,-694.0,259.0,-0.5273441300514898,0.036023495126189936,0.1812260496703227,-0.8293175478789899
-4018.763649702072,196.0,4492.0,-15408.0,422.0,-604.0,139.0,-0.5079770241361752,-0.025024571349693346,0.17788967815713053,-0.8424300423083642
-4018.779285430908,288.0,4888.0,-15592.0,370.0,-363.0,-213.0,-0.5165947793972553,-0.07161698249771727,0.16624239639503582,-0.836877713503149
-4018.7948803901672,212.0,4496.0,-15792.0,238.0,-287.0,-69.0,-0.5157125777809014,-0.10455452537603446,0.1613781069070107,-0.8349047819680272
-4018.810472011566,132.0,4680.0,-15724.0,390.0,-327.0,-87.0,-0.513375534441262,-0.14732176767244307,0.14679779239711951,-0.8325816870159632
-4018.8260786533356,-120.0,4464.0,-16044.0,35.0,-299.0,-126.0,-0.518043131309627,-0.17247702565035722,0.15600337627054037,-0.8231317855106283
-4018.8416464328766,-188.0,4692.0,-15716.0,664.0,-448.0,-208.0,-0.5155433980423019,-0.23720480183885306,0.12513222050616502,-0.8138125177894378
-4018.8572523593903,196.0,4600.0,-15744.0,644.0,-314.0,-514.0,-0.5336919953217885,-0.2935346216694122,0.08263681423839604,-0.7887847849339971
-4018.8728954792023,172.0,4744.0,-15800.0,987.0,-426.0,-909.0,-0.563632073354542,-0.3728750781937459,0.011131249287469554,-0.73699332238316
-4018.8885459899902,116.0,4392.0,-16084.0,894.0,-816.0,-1290.0,-0.6094239996718993,-0.4653429892562684,-0.04770672738613365,-0.6401424522214183
-4018.9041514396667,-268.0,3596.0,-16260.0,1490.0,-1610.0,1161.0,-0.47953778769651506,-0.6251013986108969,0.001708465776719792,-0.6158642973663291
-4018.9198834896088,-1200.0,5156.0,-16692.0,3521.0,-2798.0,1983.0,-0.16578339917407042,-0.8479738275423117,0.03461362711545422,-0.5022530728422127
-4018.9355022907257,-180.0,6780.0,-16728.0,3043.0,-2054.0,-959.0,0.022344523876315064,-0.9350863811074096,-0.13296866692658182,-0.327770522982096
-4018.9511272907257,-224.0,5276.0,-17824.0,4244.0,-2851.0,912.0,0.32927355223776017,-0.9281283439345014,-0.1690082264639526,-0.03991145662132852
-4018.9668197631836,-572.0,5660.0,-18096.0,6048.0,-3351.0,655.0,0.6600275216737357,-0.6634692230297567,-0.19956742385606518,0.2904222857512335
-4018.9824726581573,-2072.0,5328.0,-18492.0,7514.0,-6410.0,2174.0,0.6959630893241063,-0.07966949806622844,-0.18933410049708027,0.6880703072835529
-4018.9980731010437,-276.0,6696.0,-19164.0,10508.0,-9347.0,-275.0,0.3985238272988268,0.7102266294530309,-0.08094103348356815,0.5746350520021329
-4019.0136663913727,1864.0,8608.0,-18652.0,15252.0,-7460.0,-7675.0,-0.11242285830585935,0.8743193909568208,0.4715060410700548,-0.024672996609219684
-4019.0292961597443,3572.0,12304.0,-15388.0,16578.0,-5096.0,-11304.0,-0.5772130992207354,0.11402941941136052,0.6530087156266785,-0.47686680206562637
-4019.0448956489563,4928.0,15040.0,-13348.0,6173.0,-1898.0,-8631.0,-0.6479422928022351,-0.5593343141772419,0.420752708388114,-0.3004714105636736
-4019.0605268478394,3976.0,7596.0,-15652.0,-83.0,44.0,973.0,-0.6256673573288276,-0.5161083363942187,0.46631833683926766,-0.35315683740374115
-4019.076150417328,716.0,2436.0,-14632.0,7603.0,1346.0,6250.0,-0.10973380551078589,-0.4802703726141429,0.3325742403849765,-0.8041723918100827
-4019.0917439460754,-5464.0,10048.0,-8824.0,10058.0,-3831.0,2632.0,0.4369101744897387,-0.5529537156952699,-0.16278417408877519,-0.6905454368775283
-4019.1073648929596,-5136.0,16604.0,-7696.0,2821.0,-4258.0,-15775.0,-0.2491847288725083,-0.27161446784928167,-0.7143336633790197,-0.5948613024186354
-4019.122983932495,732.0,19312.0,-9740.0,-5797.0,-4934.0,-6416.0,-0.7753831759587344,-0.0014169241549432025,-0.3460920531857046,-0.5282037613343822
-4019.1386637687683,3492.0,16884.0,-13080.0,-14853.0,1015.0,762.0,-0.43358545704552803,0.6260640750673464,0.16441853803600506,-0.6269082625861551
-4019.154274702072,2688.0,9000.0,-15796.0,-19970.0,6008.0,8255.0,0.4654528896319761,0.8320506363085477,0.26321979048785293,-0.14751504346104963
-4019.1698813438416,-2128.0,1888.0,-18348.0,-13757.0,7845.0,1857.0,0.7632580416001902,0.2434259296591108,0.3642937992620824,0.474837873933238
-4019.1855370998383,-10812.0,6112.0,-16164.0,-7880.0,-1251.0,-5798.0,0.9176157707960759,-0.313662298451952,0.05905908674566269,0.2368739833517611
-4019.201166152954,-5932.0,9888.0,-15328.0,-13808.0,-2716.0,-17564.0,0.41589836627759275,-0.6596734226953891,-0.41944181423957944,-0.4646806309546265
-4019.216771841049,-2060.0,5632.0,-17496.0,-14785.0,-1906.0,-21697.0,-0.5528003021792057,-0.19136373156548633,-0.4542802675688485,-0.671878848193249
-4019.232369661331,440.0,6180.0,-17264.0,-11826.0,-3557.0,-6319.0,-0.8036459629753873,0.26810741394613147,0.194201470988418,-0.49452742031803965
-4019.2480182647705,2068.0,6944.0,-16516.0,-12681.0,2085.0,-2368.0,-0.42477224719185125,0.796014243883836,0.42908783049422605,-0.04258515318028196
-4019.2636229991913,1692.0,7332.0,-16348.0,-13828.0,4408.0,11497.0,0.2177453989351575,0.9238011567766129,-0.2534020540484953,0.18699134467874287
-4019.279298067093,-980.0,5444.0,-16784.0,-14588.0,5624.0,20313.0,0.4843045327220559,0.04314636405944798,-0.825319103771774,0.28711650562563673
-4019.294907093048,-6180.0,2244.0,-18008.0,-11420.0,2487.0,13931.0,0.19037951698721173,-0.8024660977010508,-0.5645262665768479,0.03337507898071641
-4019.310542821884,-7372.0,5644.0,-16260.0,-10371.0,-1123.0,3316.0,-0.43470479009603313,-0.8205477619348869,-0.27557110097603404,-0.24858335454746017
-4019.3261802196503,-2044.0,7080.0,-14904.0,-12489.0,-1169.0,782.0,-0.9029259050958246,-0.26356124155962485,0.06439822113525993,-0.33333639310619706
-4019.3418021202087,1044.0,6032.0,-14880.0,-12792.0,1230.0,6856.0,-0.6212355669926024,0.506066557696837,0.30751950604431705,-0.5132199946285343
-4019.3574097156525,-244.0,4880.0,-15444.0,-11692.0,2534.0,10658.0,0.1772229560904836,0.895559690693062,0.12982276152403152,-0.38692494728380084
-4019.3730521202087,-2740.0,5476.0,-14964.0,-11076.0,1147.0,6656.0,0.8305304373424045,0.5551190717179562,0.0008793374186450209,-0.04540083290572006
-4019.3887207508087,-2356.0,6348.0,-14132.0,-12800.0,785.0,2357.0,0.9637722371552334,-0.2436090475675532,-0.003736565014879146,0.10855295902883393
-4019.404332637787,-1008.0,5628.0,-15540.0,-11992.0,1591.0,3177.0,0.4586789718210225,-0.8568791499932017,0.05683583886404436,0.2283449376201676
-4019.419956445694,-312.0,2256.0,-10784.0,-13361.0,-621.0,5908.0,-0.4041999159738963,-0.8327074960340042,0.1280083111574141,0.3561383526806692
-4019.4355635643005,8.0,3416.0,-16048.0,-2706.0,2283.0,13135.0,-0.6663901024697716,-0.4262801489655986,0.5913504738523824,-0.15656973846422897
-4019.4511461257935,-2064.0,8336.0,-14624.0,-4698.0,935.0,6199.0,-0.6642263483093586,0.1481194860661493,0.6867897341189071,-0.25531125546672534
-4019.466815471649,-3164.0,8636.0,-14836.0,-7094.0,1446.0,-4434.0,-0.6088643999979214,0.26174537029731143,0.657636435247155,0.3581728948126995
-4019.482445716858,592.0,8500.0,-15288.0,-9591.0,1244.0,-3691.0,-0.25644096562344537,0.38632601193664384,0.2792331796404833,0.840844263249211
-4019.4980330467224,1700.0,5432.0,-16376.0,-9536.0,1861.0,-1468.0,0.09678877421972568,0.32461948019244413,-0.31309053033998585,0.8872589509698151
-4019.513642311096,-168.0,4948.0,-15752.0,-6803.0,1706.0,2480.0,0.12088834094308354,0.05665277163878755,-0.7513624493192861,0.646243717371856
-4019.5292675495148,404.0,5972.0,-15516.0,-4471.0,1965.0,4346.0,0.023200665163683003,-0.33551271343175715,-0.8724043955372893,0.35468791762454943
-4019.5448842048645,-708.0,6100.0,-14932.0,-3345.0,2295.0,4203.0,-0.026887504773539735,-0.6533366940091526,-0.7557066863397582,0.03654627983291403
-4019.5605285167694,-512.0,5264.0,-15100.0,-1888.0,1144.0,1740.0,-0.06293780517532609,-0.7451909575149783,-0.6460011947907542,-0.15300890773592443
-4019.576147079468,156.0,3108.0,-16124.0,2196.0,59.0,5831.0,0.14146187105969496,-0.9533587215125722,-0.26049836512335905,-0.05688839003049141
-4019.5917456150055,572.0,4908.0,-15016.0,6618.0,875.0,5625.0,0.5883996185245394,-0.7917523743572286,0.14752647776842936,0.07176353514918916
-4019.607353210449,-1028.0,5884.0,-15368.0,9010.0,1485.0,2643.0,0.9044578145619014,-0.2343692350873841,0.3563058056059131,-0.008561320808424307
-4019.622973203659,-2192.0,5556.0,-13600.0,10049.0,2284.0,-2039.0,0.7646401553340497,0.3664325024197776,0.3594724907214004,-0.3896564928698773
-4019.6385939121246,1072.0,5660.0,-15208.0,10600.0,2300.0,-5052.0,0.1256206586833246,0.6872788151155416,0.21727652453088903,-0.6816584132049737
-4019.6541950702667,-252.0,7452.0,-14476.0,10714.0,1405.0,3249.0,-0.2495882983020677,0.6769922190869381,-0.427219181742409,-0.5448586857137986
-4019.669861793518,-436.0,8892.0,-14360.0,7534.0,1048.0,-4974.0,-0.6988272691787891,0.586261779203976,-0.40319076520814917,-0.07331289755269528
-4019.685492038727,440.0,9272.0,-13724.0,1379.0,3025.0,-7910.0,-0.5710119280397546,0.6403379647067503,-0.15362811873501184,0.4902153303656259
-4019.7010774612427,-1452.0,2484.0,-15392.0,553.0,1637.0,-4937.0,-0.33531769422002006,0.5541817955101062,0.058488013178915894,0.7596207828795544
-4019.7167298793793,-688.0,984.0,-16120.0,2773.0,1970.0,-3679.0,-0.21580157489949292,0.29682022499678706,0.33227805412210326,0.868860592415483
-4019.7323451042175,-2964.0,-304.0,-16400.0,2436.0,467.0,-4528.0,0.04645116476743393,0.07693865616213365,0.5704729727830888,0.8163842966420525
-4019.7479894161224,4812.0,-1792.0,-19636.0,1779.0,-4453.0,-2084.0,0.3680870580300444,0.270879443364636,0.6308114574150854,0.6270671017260494
-4019.7635846138,-1132.0,4016.0,-15884.0,16336.0,1484.0,1151.0,-0.09308025804836711,0.44466652687441793,0.8834572723523758,-0.11450324609718271
-4019.7792189121246,1932.0,10696.0,-15144.0,14724.0,-5714.0,-9360.0,-0.1680411971018264,-0.24027837592085313,0.6067976297845976,-0.7387997662622916
-4019.794816970825,10976.0,15360.0,-15148.0,11490.0,5012.0,-13469.0,-0.5608997748253307,-0.4224120603985475,-0.25902007486902373,-0.6632255232163434
-4019.810448408127,3116.0,11772.0,-15768.0,-384.0,6097.0,-12296.0,-0.7361330878231178,0.14539915261214567,-0.6334800604749113,-0.18886549820540124
-4019.8260414600372,-4264.0,5500.0,-20244.0,-3477.0,-295.0,-9428.0,-0.6491510818349248,0.6653550021986783,-0.32916637523827724,0.165997263273336
-4019.8416147232056,-1772.0,900.0,-22172.0,5345.0,-3330.0,1670.0,-0.9382121119406124,0.31561769858088917,-0.13926095241096625,0.027384091805814987
-4019.8572335243225,-2404.0,10344.0,-16124.0,14808.0,-2125.0,-3138.0,-0.8183766432427259,-0.5120919659279413,0.09379087583634739,0.2433613770438426
-4019.8728880882263,-1276.0,15760.0,-12688.0,5233.0,390.0,-11146.0,-0.239017844123544,-0.6712155209220605,-0.21856955287464983,0.6667589858562357
-4019.8885369300842,-2244.0,6456.0,-15600.0,428.0,-1757.0,-9007.0,0.21582854776324645,-0.31707472928846997,-0.5341711391839841,0.7533543973986853
-4019.9041509628296,-1116.0,1872.0,-15980.0,2844.0,-730.0,-6281.0,0.5761519386338456,0.06599821744244248,-0.45772223224256536,0.6739314037895582
-4019.9198875427246,-376.0,4688.0,-14160.0,4032.0,-165.0,-6584.0,0.7741339201128301,0.44911215517354114,-0.15854768243825043,0.4169863045707606
-4019.9355657100677,-1104.0,6548.0,-13832.0,1986.0,356.0,-7752.0,0.8057923666611041,0.555542064258391,0.19799308144552275,-0.05357626685323202
-4019.9513022899628,-1740.0,6604.0,-15544.0,264.0,-110.0,-9074.0,0.5896897253048279,0.32692194978839656,0.4930154893360196,-0.5498397892943315
-4019.9669048786163,-1540.0,10484.0,-12680.0,-932.0,1693.0,-9281.0,0.07556446425843844,-0.02995582542460506,0.6855780775892453,-0.7234468603798765
-4019.982579231262,-3016.0,6776.0,-14424.0,-5064.0,476.0,-15831.0,-0.5479474303072216,-0.5563452935077926,0.5488200031485603,-0.29837917513703077
-4019.998203754425,-1616.0,5652.0,-13896.0,-3112.0,-1745.0,-17856.0,-0.5753222057279582,-0.6968098203928352,-0.08178672471112135,0.42044186930115407
-4020.013827085495,596.0,6352.0,-15148.0,-2380.0,-475.0,-13324.0,-0.1514580138973419,-0.30041016251369357,-0.617165845221008,0.7112809035658187
-4020.0294229984283,184.0,5908.0,-14204.0,-2098.0,2086.0,-8667.0,0.3467628596326443,0.05040514043085091,-0.7829977857468925,0.5139351209180014
-4020.0450160503387,-1964.0,5148.0,-15392.0,533.0,2845.0,-4309.0,0.6667915913081097,0.2126275828849622,-0.5959386224227756,0.393745657832746
-4020.0606229305267,-3320.0,5456.0,-15736.0,2642.0,4198.0,-3261.0,0.84183501374724,0.3479729644803695,-0.1780596608803997,0.3721872953058511
-4020.0762553215027,-2776.0,6980.0,-16032.0,1570.0,3925.0,-4366.0,0.8806729092140917,0.3568839374603982,0.2596027528307108,0.17220770273674643
-4020.0918383598328,-3268.0,5640.0,-16180.0,69.0,2464.0,-8795.0,0.746588467257739,0.098652352415873,0.566200654912146,-0.3350972878099903
-4020.1074500083923,-1780.0,5424.0,-14940.0,-627.0,524.0,-10927.0,0.29375748216574044,-0.3372818215603084,0.5153276136553876,-0.7310163918277405
-4020.123080968857,552.0,5980.0,-15776.0,-471.0,1576.0,-6287.0,-0.16718120328522187,-0.4625043817701604,0.3487011416592423,-0.7978393672394513
-4020.138691663742,1124.0,6032.0,-15572.0,1636.0,3780.0,-282.0,-0.22190676817653102,-0.2183041759333645,0.1583729383764745,-0.9370265126438544
-4020.1542959213257,40.0,5284.0,-15724.0,1430.0,3931.0,2099.0,-0.07164685769215164,0.09643279984984993,0.004897936361023942,-0.9927454120344061
-4020.1699211597443,-1896.0,4532.0,-15828.0,2395.0,2674.0,1364.0,0.023936389168653118,0.29763236107526736,-0.21902033599062826,-0.9289091017623203
-4020.185547351837,-1360.0,5632.0,-16116.0,2806.0,1845.0,315.0,0.011396272846324898,0.42898187664403736,-0.43263817618619066,-0.7928864250209222
-4020.201174259186,-208.0,6644.0,-15116.0,1691.0,1596.0,943.0,0.07193436860358843,0.49387707871774567,-0.570026945645274,-0.6526715552015031
-4020.2167840003967,-44.0,5600.0,-15572.0,1256.0,2169.0,2713.0,0.26669880537134294,0.4667665435620723,-0.709075480742347,-0.4563033022394471
-4020.23237490654,-872.0,4692.0,-15868.0,2500.0,2228.0,4274.0,0.4272078429734958,0.3156562002401078,-0.8412847450654528,-0.10047188597844667
-4020.2480216026306,-1088.0,4620.0,-15792.0,3377.0,1592.0,4363.0,0.43721637550362763,0.12096289849009928,-0.8331170545835208,0.3164265974004457
-4020.2636229991913,-412.0,5980.0,-15132.0,3659.0,1651.0,4932.0,0.3342831423577305,-0.12551768098838428,-0.6307375502965411,0.6889631594945099
-4020.2793250083923,-172.0,6556.0,-15844.0,3948.0,1828.0,5515.0,0.12488240977789948,-0.36139980591654675,-0.23856622513261544,0.8926817575359773
-4020.2949430942535,-104.0,6312.0,-15124.0,4313.0,1862.0,5106.0,-0.08399227983396929,-0.48417768162371944,0.2384528908860977,0.8376499796298182
-4020.310588121414,376.0,6152.0,-14992.0,3475.0,1372.0,3594.0,-0.2081395336689199,-0.4877045128741476,0.5779973064617822,0.6202752263061936
-4020.3261864185333,448.0,5284.0,-15992.0,2994.0,1734.0,5220.0,-0.39543869273373317,-0.32708329205135234,0.8167949599919352,0.26361098930366855
-4020.341817855835,-512.0,4364.0,-15980.0,4212.0,1821.0,6585.0,-0.45558608690181746,-0.036906363736685474,0.8509582429504887,-0.25874564052722154
-4020.357420682907,-708.0,4680.0,-15792.0,6354.0,2180.0,5658.0,-0.37231644134218245,0.1427418714803667,0.5073586297022135,-0.7639322263782748
-4020.3730294704437,-144.0,6416.0,-15608.0,6076.0,1940.0,3588.0,-0.2483338303696261,0.196873509731204,-0.0044438060526909295,-0.9484468263681592
-4020.3887202739716,184.0,6100.0,-14860.0,3015.0,944.0,920.0,-0.21485959838950539,0.2013415029594693,-0.2792198250892208,-0.9139656675406728
-4020.4043023586273,428.0,3936.0,-16236.0,2481.0,260.0,-166.0,-0.2591896120276933,0.17557530016434136,-0.4682975912417119,-0.8262514296667484
-4020.4199295043945,84.0,3184.0,-15912.0,4935.0,25.0,1466.0,-0.20796357388258377,0.005395083442571373,-0.7729189714252719,-0.5994316546725995
-4020.4355204105377,636.0,4340.0,-15124.0,5123.0,863.0,2176.0,-0.034311157029216145,-0.16979701512910864,-0.9491950244506163,-0.26271757405007307
-4020.4511148929596,-156.0,4452.0,-15596.0,4016.0,1569.0,3867.0,0.21758001573248703,-0.41600276847272427,-0.882384796251319,0.03158646421171815
-4020.4666986465454,-184.0,4908.0,-16096.0,1349.0,1399.0,7071.0,0.2986313911905195,-0.7907534969209057,-0.5015623843135678,0.184291546047731
-4020.482323408127,-520.0,2236.0,-16460.0,290.0,2526.0,4540.0,0.32407890715974697,-0.9311390025720041,-0.10727871659876276,0.12823531802229665
-4020.4979541301727,-768.0,1840.0,-17632.0,2135.0,1229.0,390.0,0.49289875259661625,-0.8679971965958527,-0.016551415341749223,0.05794598381791048
-4020.513572216034,-64.0,2812.0,-16276.0,2924.0,-1183.0,-1881.0,0.6875255432423866,-0.6987264682715439,-0.18584387160594185,0.06746855054431193
-4020.529213666916,2176.0,4560.0,-15884.0,2023.0,-1248.0,-4327.0,0.7493309536515792,-0.45920650410738123,-0.47093313001792225,-0.07651467530229186
-4020.5448508262634,3104.0,4884.0,-15660.0,1000.0,-158.0,-1628.0,0.7612485171702155,-0.32356230476138736,-0.5458219190350885,-0.13374065479315095
-4020.5604593753815,800.0,2724.0,-13564.0,-825.0,1679.0,4522.0,0.8005935734605414,-0.52813485013598,-0.27334330322951694,0.07353195757698044
-4020.576076030731,-936.0,2056.0,-18192.0,-2722.0,1270.0,465.0,0.67874210532637,-0.7130913619447805,-0.1747139463212319,-0.01687900878980489
-4020.591683626175,-3448.0,2416.0,-18528.0,-288.0,-814.0,-2497.0,0.6280138520368574,-0.6757615833860433,-0.36825992945774927,-0.11545349031185417
-4020.6073195934296,-808.0,5168.0,-14848.0,-1514.0,-4448.0,-15.0,0.36577495942031424,-0.7431109664013998,-0.5530597406314652,0.09010934450822214
-4020.622918844223,4176.0,4288.0,-15804.0,-3024.0,-388.0,2558.0,0.12334148080909807,-0.9069217196076103,-0.39997275963804063,0.047975672619822156
-4020.6385107040405,2604.0,2872.0,-16412.0,-1295.0,1336.0,3454.0,0.049933794334924696,-0.9905635157039836,-0.11131421556547147,-0.062447441521047996
-4020.654149532318,-1124.0,1988.0,-13508.0,920.0,-377.0,2407.0,0.13521437485043494,-0.9868627669777442,0.08785964229961843,-0.009981745429516305
-4020.6697657108307,-304.0,3812.0,-13404.0,1848.0,-1117.0,547.0,0.29755182788932716,-0.9442443915466879,0.11798306690148204,0.0771066448295205
-4020.6854000091553,1132.0,7192.0,-14344.0,608.0,-709.0,7333.0,0.25656850542386167,-0.7127831490944914,0.5949415079561986,0.26862126963870564
-4020.700984954834,2324.0,5644.0,-15304.0,-3950.0,2529.0,517.0,-0.12283739006879597,-0.7708471148518954,0.5466425371918006,0.3031297373371775
-4020.716586112976,-1716.0,4300.0,-15828.0,-4967.0,1763.0,-1655.0,-0.4478899700361246,-0.7596588154957472,0.2568484438889541,0.3954009808440801
-4020.732229232788,-1048.0,2680.0,-16568.0,-4540.0,734.0,-2544.0,-0.6157194748434798,-0.6042878285340837,-0.08823337875859756,0.4979363608503331
-4020.7478654384613,1212.0,2936.0,-15432.0,-3904.0,1020.0,3067.0,-0.8659874659003882,-0.42319177572694766,-0.13803815699683317,0.22785938004263567
-4020.763468503952,2164.0,4188.0,-16332.0,-3596.0,2980.0,148.0,-0.8942705587245144,-0.19703623617045277,-0.3975271502531979,0.05855812706958355
-4020.779145002365,-1548.0,4396.0,-16144.0,-3531.0,975.0,-549.0,-0.873733540370291,0.08790932033747931,-0.4770340449516426,-0.03605789493125908
-4020.7947895526886,-1844.0,1024.0,-16432.0,-1534.0,-1136.0,-8650.0,-0.7408169123146642,0.4441859547982858,-0.25280759363377164,0.43586403911036786
-4020.810431957245,2184.0,3344.0,-16620.0,271.0,-2526.0,4338.0,-0.8900365678820634,0.39130295785429176,-0.2265974504268098,0.05805599424063481
-4020.826023578644,3088.0,4972.0,-16924.0,-238.0,263.0,1521.0,-0.8761717075558636,0.3751404201544178,-0.29754554471943473,-0.05531232107427862
-4020.841623544693,460.0,4948.0,-15860.0,-1986.0,1508.0,242.0,-0.7528374559865034,0.5159430583632936,-0.40189535632566625,-0.07428760296554512
-4020.8572199344635,-820.0,5684.0,-16040.0,-2441.0,-618.0,7375.0,-0.5098044188943656,0.3421241362762545,-0.5603774526755196,-0.5559025457631047
-4020.8728065490723,-868.0,4208.0,-14868.0,-3157.0,222.0,1107.0,-0.3367038704110024,0.4216109241981173,-0.43227686944354093,-0.7225035919572665
-4020.888434648514,464.0,2876.0,-16152.0,-1530.0,-705.0,6419.0,0.08465439561492973,0.1558683665178354,-0.47723176310228776,-0.8606907283736791
-4020.904086828232,1168.0,3152.0,-16004.0,652.0,453.0,4224.0,0.3856579514007374,0.01765596177450375,-0.5435929042926614,-0.7452938789080942
-4020.9197883605957,140.0,3888.0,-15448.0,1457.0,97.0,2662.0,0.5423151744012966,-0.05146126601614584,-0.6181118280082002,-0.5667307630528519
-4020.9354577064514,28.0,4820.0,-15372.0,505.0,-302.0,240.0,0.5391578712286735,-0.055321141409894206,-0.6555365865226523,-0.5258518279282678
-4020.9511070251465,1224.0,4812.0,-15632.0,-20.0,-124.0,890.0,0.5708783987242493,-0.11249347471919167,-0.6543905688184307,-0.48292448214718897
-4020.9667263031006,1184.0,4200.0,-15660.0,-166.0,449.0,155.0,0.6006614227159827,-0.11058348149266196,-0.6231581033279766,-0.48851932115163305
-4020.982321500778,468.0,4484.0,-15628.0,56.0,-235.0,1791.0,0.6564761667416295,-0.2124204408398456,-0.6132571916648516,-0.3844895521141787
-4020.9980280399323,516.0,4972.0,-15556.0,-167.0,-47.0,287.0,0.6600055503241726,-0.23883084140321356,-0.6050192317479023,-0.3759045516498796
-4021.013638496399,560.0,4092.0,-15708.0,246.0,94.0,-206.0,0.6628491483211135,-0.21064491927554085,-0.6119561392976791,-0.3765227856707411
-4021.0292398929596,652.0,4768.0,-15400.0,566.0,40.0,94.0,0.6774163759729874,-0.1813934382468842,-0.6259735560796105,-0.34111666803843627
-4021.0448842048645,1024.0,5260.0,-15700.0,-198.0,749.0,-1258.0,0.6719825888801215,-0.10124116232338097,-0.5910796063846787,-0.43452793490121394
-4021.0605125427246,460.0,4708.0,-16144.0,-441.0,289.0,299.0,0.6931851409437388,-0.13136191180302842,-0.5542643626130674,-0.44162135912950645
-4021.076106786728,160.0,4048.0,-15980.0,-242.0,-82.0,16.0,0.6867130930293959,-0.14989562359045516,-0.549848812567577,-0.4512457348368566
-4021.091737985611,532.0,4160.0,-15644.0,-189.0,91.0,169.0,0.6948970806217696,-0.16570847452600815,-0.5348679353873874,-0.4511929083086734
-4021.1073348522186,324.0,4332.0,-15856.0,-441.0,355.0,-164.0,0.6975437703877491,-0.1706058258966957,-0.4979693254930813,-0.48616138414246274
-4021.122926712036,480.0,4568.0,-15664.0,-356.0,136.0,-123.0,0.6923532773472714,-0.18106560017837026,-0.47641068466629466,-0.5107788634177526
-4021.1385011672974,524.0,4576.0,-15908.0,-792.0,441.0,-81.0,0.6922392291865,-0.20527324503149944,-0.41472896561470335,-0.5537757935569924
-4021.154156446457,736.0,3964.0,-15808.0,-391.0,-106.0,1062.0,0.7290086647620221,-0.2711786705057734,-0.38162973827433483,-0.4993668373343164
-4021.169796228409,648.0,4792.0,-15416.0,-676.0,188.0,496.0,0.7386727097559556,-0.32168763072617074,-0.32783836153414625,-0.4933575831039622
-4021.1854383945465,604.0,4436.0,-15392.0,-683.0,570.0,2.0,0.7335500623613407,-0.3403353137719887,-0.2611176164151048,-0.5271563056694758
-4021.201035261154,300.0,4660.0,-15520.0,-657.0,474.0,-313.0,0.7082769454482005,-0.3525989424955929,-0.20950188557214097,-0.5745665446571647
-4021.216672182083,708.0,4852.0,-15612.0,-622.0,553.0,-327.0,0.6806596887788948,-0.35643356255110464,-0.1539715936462863,-0.6212489451971478
-4021.2322726249695,956.0,5032.0,-15568.0,-386.0,864.0,-441.0,0.6535360386846362,-0.325449882818172,-0.09527582250676539,-0.6766797895309796
-4021.2479400634766,1012.0,5308.0,-15404.0,-829.0,874.0,-1438.0,0.5449813813247709,-0.30530915397105324,-0.037048120268252244,-0.7800058020908649
-4021.2635481357574,1248.0,4680.0,-16060.0,-886.0,1164.0,-1534.0,0.4136178519317177,-0.2591159558640201,0.03694017295335041,-0.8720175557878656
-4021.279172182083,392.0,4516.0,-16332.0,-492.0,347.0,-388.0,0.37105187955136487,-0.25151734237885587,0.07785511232100938,-0.8905044136047614
-4021.294805765152,880.0,5264.0,-16124.0,-617.0,395.0,-808.0,0.2906423666156276,-0.24547197535275464,0.1202064751367972,-0.916962882225704
-4021.3104226589203,944.0,4732.0,-15916.0,-559.0,761.0,-415.0,0.23645133992615536,-0.20259768642703818,0.17460927421543623,-0.9341073507148393
-4021.326022863388,520.0,4768.0,-15656.0,-431.0,160.0,-243.0,0.20630780758008302,-0.2022409127076799,0.20857996183548477,-0.9343607982355489
-4021.3416154384613,904.0,4544.0,-15824.0,-488.0,223.0,51.0,0.19751552257563923,-0.1919896397203884,0.2531032878031868,-0.9273976074397243
