programtime,ax,ay,az,gx,gy,gz,q0,q1,q2,q3
-4705.18487739563,1056.0,-296.0,17104.0,-12.0,1651.0,-393.0,0.9892536477898464,-0.0011240540109061573,0.14221428989337312,-0.033927165917398895
-4705.200507640839,788.0,-336.0,17000.0,-129.0,1667.0,-279.0,0.9573929009188668,-0.010690936796990137,0.2831100441236205,-0.055975352226505896
-4705.216105222702,964.0,-396.0,16988.0,-183.0,1846.0,-653.0,0.8954411596134083,-0.03262704484552625,0.4310935797083054,-0.10620231235298941
-4705.231732368469,832.0,-268.0,16956.0,-127.0,1796.0,-796.0,0.8084023150472749,-0.05504254905817326,0.5619501801625755,-0.16633703686982543
-4705.247323989868,692.0,-664.0,16400.0,-23.0,2261.0,-944.0,0.6686831701358441,-0.06858671747751179,0.7013001681663047,-0.23735364815534327
-4705.2629199028015,568.0,-736.0,16456.0,125.0,2399.0,-826.0,0.4935749538042287,-0.06067457161292891,0.8139415078279797,-0.3003357840342306
-4705.278504371643,436.0,-816.0,16380.0,270.0,2516.0,-714.0,0.29005676395535923,-0.032952254973778024,0.8883388854783398,-0.3544506272007277
-4705.29408121109,332.0,-752.0,16280.0,335.0,2537.0,-605.0,0.07369254633916623,0.00693195190418721,0.916601340607744,-0.3928910014914245
-4705.309638500214,372.0,-580.0,16272.0,504.0,2316.0,-584.0,-0.129047892258563,0.04193529790720908,0.8944551621371521,-0.42607280506887185
-4705.325223445892,204.0,-464.0,16080.0,153.0,2582.0,-599.0,-0.34438343634538693,0.08716276822408497,0.8395755897763498,-0.4109933450290302
-4705.340789794922,148.0,-424.0,16144.0,151.0,2590.0,-610.0,-0.5427893249949973,0.12742836469942576,0.7410813003830377,-0.37408590826719357
-4705.356365203857,20.0,-556.0,16348.0,232.0,2495.0,-717.0,-0.7120574091512591,0.147735089898342,0.607635153124218,-0.31926182041270323
-4705.372006893158,-120.0,-524.0,16580.0,392.0,2441.0,-678.0,-0.8446620687567177,0.1516516269538967,0.4426356158566454,-0.260041314450351
-4705.38760471344,-144.0,-840.0,16316.0,597.0,2341.0,-649.0,-0.9357546863559502,0.13251527398997934,0.2587755841534015,-0.1995947548617048
-4705.403258085251,-188.0,-1024.0,16388.0,698.0,2557.0,-531.0,-0.9838378006997976,0.10507011874394191,0.042495543740915374,-0.13862748942213146
-4705.418867111206,-248.0,-656.0,16480.0,777.0,2325.0,-519.0,-0.9826365269492288,0.06279345135828807,-0.15818693594544864,-0.07388729029990511
-4705.434465646744,-340.0,-652.0,16428.0,777.0,2357.0,-572.0,-0.9353216823609062,0.01871479831969857,-0.35330123862948404,-0.0011582798839284958
-4705.450052976608,-484.0,-656.0,16380.0,736.0,2335.0,-500.0,-0.8448453104081949,-0.02512512158169354,-0.5304942723914126,0.0646603178672345
-4705.465626716614,-704.0,-732.0,16356.0,518.0,2255.0,-426.0,-0.721956413021391,-0.05516048087441981,-0.680453180038105,0.11278177522551946
-4705.481209993362,-784.0,-568.0,16392.0,803.0,2104.0,-278.0,-0.579248402747994,-0.10786172967548033,-0.7910206289099162,0.16469213649798845
-4705.4967839717865,-912.0,-760.0,16272.0,830.0,1957.0,-146.0,-0.42697860484172795,-0.1650434978672472,-0.8645345684826886,0.20743648357414507
-4705.512360095978,-932.0,-472.0,16372.0,834.0,1893.0,-174.0,-0.26471287178031366,-0.21378796601118752,-0.9076830282725197,0.24562842117443714
-4705.5279796123505,-760.0,-408.0,16024.0,869.0,1724.0,-21.0,-0.10993809408923562,-0.26542357690640983,-0.9163380783151919,0.27890583808851144
-4705.543562412262,-916.0,-468.0,16268.0,802.0,1566.0,-67.0,0.035108559437638916,-0.30233476905825357,-0.9027773341887323,0.303898274670641
-4705.559129238129,-1056.0,-292.0,16388.0,761.0,1421.0,-46.0,0.1667558235213374,-0.33080870588711947,-0.870843890433029,0.3230928874588181
-4705.57470035553,-1156.0,-320.0,16528.0,728.0,1151.0,55.0,0.27182999319865747,-0.3543485436878519,-0.8261145195369786,0.34362823660767966
-4705.590286254883,-1116.0,-352.0,16632.0,697.0,980.0,162.0,0.3572413947120765,-0.3767679289312172,-0.7725812259552293,0.36543503244019515
-4705.60587644577,-1280.0,-188.0,16576.0,632.0,774.0,29.0,0.42772488768829864,-0.38223339181100435,-0.7245263568697639,0.3821133507713581
-4705.621516942978,-888.0,-224.0,16332.0,591.0,677.0,339.0,0.4773390398081758,-0.4027475010411752,-0.6658259921582802,0.40818824045596763
-4705.637143373489,-740.0,-320.0,16176.0,483.0,640.0,440.0,0.5142697867467511,-0.4295929132255119,-0.6044823827748194,0.43078714495762976
-4705.652736663818,-836.0,-268.0,16168.0,383.0,527.0,550.0,0.5343506527806976,-0.45991493802799177,-0.5442106856693827,0.4547332836452717
-4705.668334007263,-784.0,-140.0,16296.0,359.0,385.0,543.0,0.5443865144750968,-0.48313081333988656,-0.4890535901378671,0.48068131441991585
-4705.683949708939,-796.0,-108.0,16364.0,320.0,220.0,580.0,0.5420055867822411,-0.5009096034995006,-0.43981009250780184,0.5117485667269526
-4705.699551105499,-880.0,-96.0,16636.0,360.0,75.0,543.0,0.5355640536887994,-0.5071548858725071,-0.3957030289453051,0.54716010364022
-4705.715128898621,-928.0,-88.0,16396.0,337.0,-108.0,747.0,0.509817724680962,-0.5106161267070138,-0.3505874126276214,0.5970305895470712
-4705.730788469315,-852.0,-28.0,16624.0,281.0,-224.0,434.0,0.4923386253813672,-0.4990021735894649,-0.32608672640983555,0.6342451856891719
-4705.746375799179,-916.0,0.0,16148.0,213.0,-317.0,359.0,0.4722840646999152,-0.4818901991889475,-0.31186431622009225,0.6689321687770274
-4705.76198720932,-544.0,24.0,16376.0,120.0,-415.0,314.0,0.44727238668106606,-0.46062719061919544,-0.30833172729112684,0.7019270256376802
-4705.777557849884,-760.0,-200.0,16208.0,71.0,-484.0,294.0,0.4186215054457782,-0.43543681819783375,-0.31057214594876054,0.7339589598178081
-4705.793160438538,-700.0,-20.0,16436.0,41.0,-447.0,255.0,0.3913764797425872,-0.4116574784575285,-0.31416019858663585,0.7607009538302782
-4705.808749198914,-840.0,-80.0,16444.0,56.0,-512.0,107.0,0.3718949160804114,-0.3781432324018066,-0.3236288956015005,0.7835599562981829
-4705.824369192123,-940.0,-16.0,16424.0,139.0,-542.0,53.0,0.3571556533980993,-0.3375139657985675,-0.3294372552986788,0.806222833314694
-4705.839996099472,-900.0,-76.0,16468.0,99.0,-556.0,106.0,0.3362372786789067,-0.29783796131518075,-0.3361087798709024,0.8278091140594632
-4705.855579614639,-888.0,240.0,16656.0,139.0,-502.0,216.0,0.3091723222501573,-0.26337496511203373,-0.33461082419283017,0.8503421071778551
-4705.871166944504,-848.0,-56.0,16672.0,96.0,-467.0,496.0,0.26048340579299084,-0.24005106579206364,-0.3279137230048602,0.8757833472861141
-4705.886776924133,-884.0,-88.0,16676.0,39.0,-340.0,174.0,0.23815571832625443,-0.21790973167244407,-0.32864071066677364,0.8875767493368599
-4705.902374982834,-872.0,-124.0,16580.0,39.0,-301.0,171.0,0.21693375876954488,-0.19847836734525484,-0.32827069336757536,0.8976549637127009
-4705.918060302734,-892.0,-192.0,16568.0,61.0,-200.0,145.0,0.20086519444342577,-0.1856539691604647,-0.3244761851289553,0.9054838389945621
-4705.9336841106415,-968.0,-64.0,16492.0,89.0,-275.0,210.0,0.17784774369712406,-0.16812270182973937,-0.3184881965966878,0.9157893894449205
-4705.949326515198,-1132.0,48.0,16480.0,18.0,-301.0,147.0,0.15793470780839777,-0.14771425136065292,-0.31920076965896865,0.9226852099516714
-4705.964903116226,-1048.0,116.0,16536.0,0.0,-293.0,44.0,0.14618558062484238,-0.12521940702043202,-0.32233072724748324,0.9268510011835438
-4705.980496883392,-980.0,112.0,16528.0,-239.0,-277.0,-10.0,0.13652614707389105,-0.10545664432303116,-0.3448948143242123,0.9226521957842788
-4705.996085166931,-936.0,8.0,16640.0,0.0,-271.0,-62.0,0.13332772971095505,-0.08169006891817884,-0.34835380294406676,0.9242294504638292
-4706.011675357819,-988.0,-76.0,16448.0,248.0,-296.0,-87.0,0.1330391513063405,-0.052214462484484254,-0.33196988732559657,0.9324002509846165
-4706.02730679512,-912.0,-12.0,16400.0,6.0,-299.0,244.0,0.10449103038817342,-0.03484426734658762,-0.3333996656250455,0.9363290898837893
-4706.042893648148,-952.0,-28.0,16584.0,14.0,-213.0,-60.0,0.10322133502541594,-0.015556697427180983,-0.3340644445126717,0.9367519906961341
-4706.058463811874,-1020.0,-104.0,16420.0,51.0,-154.0,-12.0,0.09977222406690335,-0.002168965650836373,-0.33101102542448624,0.9383349614824011
-4706.07404756546,-1052.0,36.0,16696.0,87.0,-61.0,-236.0,0.11732540986982214,0.010376899359397555,-0.32412430611116494,0.9386535582133161
-4706.089636564255,-1040.0,124.0,16772.0,45.0,46.0,-154.0,0.1311914391527209,0.011391758671366846,-0.31953724950960266,0.9383789108367947
-4706.105217218399,-1108.0,52.0,16528.0,74.0,102.0,-1.0,0.1340390365287683,0.003876023943570048,-0.3120309615488638,0.94056110495795
-4706.120808839798,-1080.0,16.0,16548.0,136.0,95.0,-298.0,0.16097560089751142,0.005750428692019082,-0.2992598779696526,0.9404771735258287
-4706.136412382126,-1200.0,-144.0,16596.0,154.0,98.0,-333.0,0.19069109609702994,0.00852434589095701,-0.28465271811097775,0.9394344423473503
-4706.152042150497,-1168.0,-132.0,16404.0,118.0,51.0,-210.0,0.20904629521379448,0.011478457115087179,-0.2736392731835364,0.9387701740315518
-4706.167612791061,-1108.0,-200.0,16432.0,132.0,22.0,-115.0,0.21884272370808017,0.014782431603245702,-0.2620028689011126,0.9398105333967642
-4706.183214187622,-992.0,-96.0,16484.0,126.0,-17.0,-71.0,0.22410528065239965,0.020157860846109068,-0.2516036200027337,0.9413108425123649
-4706.198880434036,-1056.0,-136.0,16576.0,141.0,63.0,252.0,0.204476070573023,0.012143961382570059,-0.23887252496056943,0.9492007045846084
-4706.2144548892975,-1092.0,-88.0,16540.0,157.0,137.0,250.0,0.18638374061790225,-0.001668949016494371,-0.22331166533893684,0.9567602708965341
-4706.230054140091,-1088.0,-240.0,16384.0,161.0,181.0,-4.0,0.1902278436251695,-0.01412626540684113,-0.2065865018302041,0.9596540175484769
-4706.245669126511,-1108.0,-16.0,16520.0,182.0,134.0,-112.0,0.20220113711768165,-0.020330877029323454,-0.188912810338691,0.9607358147157171
-4706.261324882507,-1068.0,-64.0,16468.0,130.0,47.0,-153.0,0.21600216097804362,-0.019471166119573745,-0.1771229980615214,0.9599955123334992
-4706.276911735535,-1232.0,-128.0,16432.0,150.0,8.0,-118.0,0.22623559031710208,-0.015518472860769903,-0.1642770782165309,0.9599946230300364
-4706.292523145676,-1016.0,-192.0,16468.0,169.0,34.0,-122.0,0.23713428633855393,-0.013308982243746855,-0.14927771512570084,0.959847052921032
-4706.308098554611,-880.0,-264.0,16468.0,198.0,16.0,-11.0,0.23845950540335742,-0.010437815506945395,-0.13204105710095143,0.9620775829058135
-4706.323720932007,-944.0,-276.0,16388.0,217.0,11.0,78.0,0.23218684575769252,-0.007789943397322944,-0.11318423223887354,0.9660320465758145
-4706.339304685593,-840.0,-188.0,16472.0,227.0,-38.0,56.0,0.22719494290871572,-0.0005908698321737918,-0.09444159044372698,0.9692589410389807
-4706.354886054993,-872.0,-144.0,16440.0,191.0,-33.0,65.0,0.22139697823588422,0.0053656632243981595,-0.07861151794611188,0.9719952761883103
-4706.370448350906,-812.0,-68.0,16456.0,147.0,-96.0,104.0,0.2118120023365613,0.015521740950604126,-0.06772912952963689,0.9748371742179288
-4706.386008262634,-772.0,-140.0,16588.0,132.0,-167.0,145.0,0.198258452846475,0.031142136715337075,-0.059484481398067925,0.977847303861154
-4706.401583433151,-892.0,-188.0,16616.0,121.0,-228.0,206.0,0.179090663648783,0.05137217375668972,-0.053409365479786294,0.9810376514876469
-4706.417151212692,-792.0,-180.0,16504.0,119.0,-347.0,128.0,0.1658863256443133,0.08202929616643355,-0.049005940636872566,0.9815046303084685
-4706.432737827301,-764.0,-16.0,16536.0,126.0,-323.0,56.0,0.15873555392111754,0.1109414108148971,-0.04312618941345632,0.9801199717761243
-4706.448303461075,-760.0,-24.0,16480.0,203.0,-15.0,121.0,0.14633676095756315,0.11425554264652944,-0.027031855302952188,0.9822425882468527
-4706.463925361633,-892.0,-72.0,16556.0,221.0,-304.0,149.0,0.13056730531213287,0.1423864540717972,-0.013383252802119945,0.9810704179745829
-4706.479514360428,-1004.0,-96.0,16516.0,243.0,-307.0,182.0,0.11153309513441777,0.17079666935606252,0.0016880145683808875,0.9789719184090164
-4706.495079040527,-1012.0,-56.0,16500.0,212.0,-304.0,236.0,0.08819625291270906,0.19841789847788477,0.013314887818809322,0.9760504455703864
-4706.510660171509,-924.0,-48.0,16472.0,192.0,-351.0,237.0,0.06504324789876752,0.2295861601150895,0.02283013295841017,0.9708441460994084
-4706.526262044907,-960.0,-44.0,16356.0,195.0,-401.0,217.0,0.04351284514790598,0.26457043566463295,0.03267376338794216,0.9628299652926415
-4706.541843414307,-832.0,-84.0,16364.0,151.0,-420.0,260.0,0.01935879276710325,0.3006025790129715,0.037694048112165826,0.9528076854068026
-4706.557425737381,-828.0,-180.0,16508.0,132.0,-467.0,405.0,-0.01622337067334559,0.3402191789314886,0.037165879931959786,0.9394713459707337
-4706.573026180267,-696.0,-196.0,16444.0,215.0,-506.0,415.0,-0.05490078023499059,0.38182010958600526,0.04308146535633558,0.9215982289414791
-4706.5886306762695,-792.0,-128.0,16400.0,190.0,-596.0,378.0,-0.08922498229691053,0.42917595460124974,0.0484980290281714,0.8974936454965041
-4706.604226589203,-764.0,-72.0,16264.0,181.0,-684.0,412.0,-0.1250790136278903,0.481660300225199,0.05241250169888634,0.8658010887048534
-4706.619801998138,-640.0,-100.0,16464.0,154.0,-700.0,377.0,-0.15647031863017372,0.533091261341715,0.05568250056604172,0.829596411274533
-4706.635437250137,-476.0,220.0,16548.0,130.0,-736.0,408.0,-0.1879902868079306,0.584819674277917,0.05599380611921317,0.7870897625554704
-4706.6510400772095,-388.0,-264.0,16472.0,85.0,-858.0,422.0,-0.2164014957666032,0.6420454428253237,0.05416414034044362,0.7334945724941607
-4706.666630268097,-348.0,-364.0,16256.0,143.0,-901.0,433.0,-0.2469586655060934,0.696261711501514,0.055842474440422334,0.6716492125185606
-4706.682224750519,-568.0,-360.0,16296.0,170.0,-1051.0,440.0,-0.27661200477692727,0.752469873779956,0.06140341408722956,0.5945624513920286
-4706.69781088829,-372.0,28.0,16344.0,162.0,-1076.0,478.0,-0.30470413154679543,0.8025818259184783,0.06404466931304452,0.5088379754462683
-4706.7133865356445,-424.0,248.0,16632.0,114.0,-1106.0,386.0,-0.3220072532254639,0.8463206585406785,0.07110449206242123,0.418326216015694
-4706.72896695137,-360.0,16.0,16536.0,58.0,-1139.0,314.0,-0.3289929406899858,0.8834908590533124,0.08160290211919984,0.3233396253339824
-4706.744555234909,-136.0,-104.0,16552.0,248.0,-1246.0,195.0,-0.34265271732619523,0.9072013328698922,0.1086626824760111,0.21855726568838466
-4706.7601318359375,-28.0,-156.0,16420.0,43.0,-1234.0,283.0,-0.3377507627607111,0.9264707259613066,0.12322795901266981,0.11131615475239483
-4706.775764942169,0.0,-488.0,16108.0,170.0,-1316.0,199.0,-0.3370307231712177,0.9300088971532613,0.14658115838700167,-0.0027761232654816624
-4706.791330814362,-208.0,-504.0,16084.0,250.0,-1454.0,167.0,-0.3359283029558774,0.9167495726366269,0.1742793174356268,-0.1278636612095789
-4706.806912183762,-184.0,-156.0,16176.0,203.0,-1581.0,0.0,-0.3250435181111442,0.8846025038784101,0.21628699045708943,-0.25503932878086166
-4706.822472333908,24.0,116.0,16336.0,63.0,-1738.0,246.0,-0.2882982102002308,0.8389281515542742,0.24236222206753655,-0.39286671001697027
-4706.838039636612,72.0,232.0,16388.0,-10.0,-1964.0,122.0,-0.23838116288539782,0.7631796598433486,0.27909575793015795,-0.5318240177804936
-4706.8536105155945,240.0,-48.0,16608.0,12.0,-2107.0,3.0,-0.1846458098743845,0.6541425833376948,0.31684280365670664,-0.6615240308039286
-4706.86917257309,284.0,-216.0,16144.0,123.0,-2182.0,-245.0,-0.1428850153675535,0.5099715382971799,0.35241735019739334,-0.7715665323159565
-4706.884745121002,644.0,-544.0,15840.0,233.0,-2054.0,-55.0,-0.09230637797176632,0.36107292393831886,0.3589099595574794,-0.8557391641819456
-4706.900330066681,20.0,-960.0,15360.0,493.0,-2522.0,-78.0,-0.033834050280765755,0.16209893130859868,0.3363615554598588,-0.9270599212126653
-4706.915981292725,-384.0,-412.0,15924.0,522.0,-2900.0,-217.0,0.02552477413734991,-0.07802013879713604,0.2958496459086715,-0.9517007569940389
-4706.931684732437,12.0,268.0,16632.0,136.0,-3094.0,240.0,0.1218842320788951,-0.31702085459050783,0.26931866978861996,-0.9011711634470614
-4706.947290182114,708.0,624.0,17148.0,-395.0,-3583.0,133.0,0.19616679849240848,-0.5721176006612716,0.25353848097189624,-0.7549293191082804
-4706.96289229393,984.0,244.0,17284.0,-712.0,-3535.0,242.0,0.24301907528093444,-0.7742047349790047,0.2402876544388685,-0.5327387732368986
-4706.978510379791,892.0,-216.0,17084.0,-876.0,-3834.0,-206.0,0.2408653251996247,-0.9223901797474375,0.17566284336637583,-0.2456070375262261
-4706.994156837463,756.0,60.0,16476.0,-966.0,-4006.0,-259.0,0.20602669848576352,-0.971385531749926,0.08587635685636415,0.08116895681877559
-4707.009795188904,724.0,-4.0,16396.0,-1126.0,-3972.0,-362.0,0.13439502028013978,-0.9085657889832931,-0.02279130791324918,0.3948756030659156
-4707.025372743607,680.0,260.0,16472.0,-1216.0,-3827.0,-455.0,0.043417843230095864,-0.7449673145780309,-0.13739103812849845,0.6513541999109373
-4707.040930271149,892.0,256.0,16752.0,-1081.0,-3473.0,-620.0,-0.0316707913328995,-0.5178598954988811,-0.24016355057645228,0.8204508264270002
-4707.0565412044525,952.0,524.0,16696.0,-921.0,-2989.0,-517.0,-0.09535640093279031,-0.2797469593161512,-0.3095197849680912,0.9037954958218255
-4707.0721271038055,924.0,272.0,17048.0,-756.0,-2522.0,-865.0,-0.11053031312219806,-0.04954489664735293,-0.3587733315111455,0.9255323061318312
-4707.087757825851,736.0,20.0,16824.0,-646.0,-2102.0,-910.0,-0.10343215987660895,0.15180011794550596,-0.3861347962265514,0.903968158531079
-4707.103325128555,884.0,-12.0,16844.0,-635.0,-2045.0,-972.0,-0.08547344755340516,0.3444107468664193,-0.39642827950907594,0.8467113713726329
-4707.118924379349,952.0,-8.0,16964.0,-570.0,-1444.0,-953.0,-0.04728295371402537,0.48220783876447776,-0.3940506022488266,0.7810019496707458
-4707.134519338608,1192.0,244.0,17192.0,-509.0,-1262.0,-900.0,-0.007831385593481626,0.5952050878488908,-0.3817208474593961,0.707077624743819
-4707.150150775909,1304.0,-76.0,17264.0,-453.0,-652.0,-898.0,0.04914124916818746,0.6619850657380032,-0.36055238893517405,0.6552578768722896
-4707.165717840195,1072.0,-316.0,16796.0,-403.0,-599.0,-788.0,0.09823238419644638,0.7161381020734724,-0.3391242659685254,0.6020725452011538
-4707.181332349777,1304.0,-472.0,16396.0,-412.0,-693.0,-614.0,0.13523129963515226,0.7641570340977226,-0.32703019012434587,0.5392845052337347
-4707.196912288666,1384.0,-508.0,16344.0,-457.0,-881.0,-452.0,0.16113760850847464,0.8094305400977159,-0.32729292192628695,0.4601480361125566
-4707.212512969971,1352.0,-736.0,16348.0,-449.0,-973.0,-201.0,0.1723839883041276,0.8440900000223357,-0.34324898374848944,0.37413362264608746
-4707.228151082993,1328.0,-512.0,16436.0,-365.0,-913.0,-96.0,0.17443804792579118,0.8680450749538937,-0.3604883203192058,0.29345746914598364
-4707.243787527084,1592.0,-292.0,16460.0,-332.0,-850.0,-95.0,0.1747515280928087,0.8849030915039178,-0.37353584683286106,0.21651649638513537
-4707.259374380112,1508.0,-368.0,16544.0,-345.0,-744.0,-159.0,0.1796996816490091,0.8964949627170549,-0.37811628756541915,0.14502716750987188
-4707.274960517883,1388.0,-284.0,16420.0,-300.0,-728.0,-223.0,0.18153945248041836,0.906049277988061,-0.374924888155086,0.07449470647179969
-4707.290591955185,1356.0,-300.0,16708.0,-248.0,-747.0,-218.0,0.17770369525806864,0.9117916754101264,-0.3701925435884603,0.0038494176089348023
-4707.3061876297,1312.0,-288.0,16688.0,-207.0,-1003.0,-280.0,0.16120052615528432,0.9140440882238667,-0.3619827458067881,-0.08663883014236638
-4707.321795940399,1344.0,-328.0,16672.0,-141.0,-689.0,-302.0,0.14809240618576752,0.9143479736534262,-0.34574321929883783,-0.14999349524182348
-4707.337384462357,1488.0,-312.0,16716.0,-74.0,-542.0,-489.0,0.13099474599722508,0.9191628777706912,-0.312109272078259,-0.20141445561876456
-4707.352958440781,1520.0,-436.0,16668.0,-27.0,-325.0,-246.0,0.11992681168133379,0.9192492950775824,-0.2954228395469672,-0.23091911833653933
-4707.368540048599,1572.0,-556.0,16808.0,73.0,-63.0,-148.0,0.10946736228813703,0.9224413177217397,-0.2856415851977018,-0.235643367738628
-4707.3841071128845,1620.0,-640.0,16856.0,132.0,72.0,-116.0,0.09825129578858786,0.9279399653203293,-0.2782879014250331,-0.22766191503547642
-4707.3997049331665,1764.0,-608.0,16888.0,197.0,138.0,-57.0,0.08450934340156253,0.9335320283505988,-0.2763364514704266,-0.21216571002446732
-4707.415293455124,1528.0,-504.0,16696.0,236.0,121.0,-68.0,0.06693115671505628,0.9388799845242513,-0.2741937411476563,-0.1970847209602465
-4707.430862665176,1548.0,-428.0,16572.0,228.0,86.0,-78.0,0.04895989094230718,0.9433182886305004,-0.27115250570395166,-0.18501311862840905
-4707.446448087692,1508.0,-440.0,16404.0,509.0,186.0,-4.0,0.011378632010503452,0.9475290244443841,-0.2779373920780822,-0.15751216033652096
-4707.462028264999,1540.0,-412.0,16476.0,321.0,205.0,153.0,-0.008087949742814292,0.9463448120333893,-0.29461327851236574,-0.13254847389027816
-4707.477607965469,1520.0,-388.0,16528.0,382.0,159.0,190.0,-0.03333245233205255,0.9422828678396288,-0.3145929002812916,-0.10965058910038578
-4707.493185758591,1492.0,-332.0,16196.0,497.0,182.0,246.0,-0.0667793201791775,0.9346097004629125,-0.33967380428002997,-0.08165131280612709
-4707.508743047714,1576.0,-256.0,16504.0,481.0,229.0,285.0,-0.09707558138227762,0.9237023448956668,-0.3671783892960781,-0.050302484704805646
-4707.524342060089,1776.0,-288.0,16572.0,434.0,511.0,502.0,-0.11319959172491126,0.9037643058506196,-0.41279004446891904,0.0005577553307667621
-4707.539955854416,1552.0,-52.0,16624.0,334.0,258.0,250.0,-0.13016188323399888,0.8906247047196855,-0.4346468652598486,0.030456887820967383
-4707.5555601119995,1688.0,-116.0,16600.0,314.0,245.0,197.0,-0.14571092851894293,0.8782677916918763,-0.45156995759416674,0.05914883587379493
-4707.571107625961,1716.0,-180.0,16592.0,251.0,196.0,87.0,-0.1576328722968154,0.870268610530742,-0.4592431127959094,0.08294688930798398
-4707.586679697037,1768.0,-168.0,16592.0,285.0,155.0,128.0,-0.1739389754547113,0.8596899274345311,-0.46881497546556494,0.10435985945083429
-4707.602251768112,1712.0,-216.0,16540.0,303.0,130.0,182.0,-0.19293667841984966,0.8459931369889607,-0.4814214762551795,0.12371100390901715
-4707.617814064026,1724.0,-48.0,16488.0,340.0,134.0,185.0,-0.214302605829527,0.8305063077882383,-0.49334690581316254,0.14471522512576537
-4707.633412361145,1768.0,-40.0,16392.0,347.0,36.0,207.0,-0.24040381537722633,0.8141252539400651,-0.5043193659174305,0.15832894116281448
-4707.648997068405,1788.0,76.0,16304.0,392.0,-109.0,207.0,-0.27573717284164073,0.7976474396545136,-0.5109091786726427,0.16339946350567894
-4707.664607524872,1980.0,-24.0,16336.0,367.0,-142.0,132.0,-0.30934332321941427,0.7844230623943035,-0.5110989486651217,0.16662842565696648
-4707.680182218552,1836.0,-108.0,16468.0,325.0,-63.0,50.0,-0.3350377804109729,0.7739846917504002,-0.5078617708141134,0.17542464017030124
-4707.69579911232,1872.0,-108.0,16592.0,178.0,63.0,71.0,-0.3453538114056921,0.7645284883732927,-0.5116788288179981,0.1855039394531865
-4707.711404323578,1812.0,44.0,16188.0,104.0,-251.0,138.0,-0.3656613525849933,0.7590051062259635,-0.5114383491843175,0.1692153625775358
-4707.726998806,1712.0,116.0,16368.0,-32.0,-98.0,62.0,-0.3688655013798735,0.7586436047107402,-0.5128438282397427,0.1593402986054496
-4707.742616176605,1716.0,228.0,16360.0,-138.0,-501.0,77.0,-0.3828779609181014,0.765783879553148,-0.5031835054247628,0.11741327321974497
-4707.758197546005,1812.0,32.0,16400.0,-167.0,-318.0,95.0,-0.3865098096525554,0.7700271948048542,-0.5003362483729265,0.08562665979365351
-4707.773803472519,1728.0,-36.0,16560.0,-150.0,-423.0,-18.0,-0.39452248122183164,0.7784180997488847,-0.4855848622934237,0.051230999457181264
-4707.78937959671,1856.0,100.0,16516.0,-28.0,-474.0,-81.0,-0.41204421904405697,0.7842219445259737,-0.46345464433483813,0.020622704011420585
-4707.804945230484,2012.0,52.0,16132.0,-53.0,-559.0,-98.0,-0.43038353565251236,0.7900992138062796,-0.436176298679526,-0.016232099438159626
-4707.820519924164,2128.0,104.0,16232.0,-127.0,-505.0,-164.0,-0.4406485957423099,0.7994669952437712,-0.40523315129870485,-0.04967324908587691
-4707.83608341217,2148.0,36.0,16316.0,-200.0,-376.0,-132.0,-0.44029703553967386,0.809559309980172,-0.3803834645594338,-0.07785026659662053
-4707.851669788361,2044.0,-136.0,16180.0,-218.0,-490.0,-29.0,-0.44094167443269094,0.814647741521691,-0.3576076189247894,-0.11847484065845156
-4707.929711341858,1796.0,-212.0,16632.0,-741.0,-52.0,329.0,-0.3855686452576107,0.8302493014950021,-0.3703922296050527,-0.15758335384636873
-4707.945344924927,2020.0,-332.0,16716.0,-775.0,226.0,352.0,-0.31637821785947795,0.8455464542444839,-0.3916804937612185,-0.17760182371138453
-4707.96094417572,1972.0,-336.0,16680.0,-782.0,231.0,200.0,-0.24704598101419148,0.8615617179706524,-0.3996171371162264,-0.19231701202760224
-4707.976578235626,1880.0,-400.0,16892.0,-838.0,102.0,249.0,-0.17580242126573178,0.870085350260499,-0.40527409035621736,-0.2186273167404105
-4707.992547750473,1932.0,-444.0,16868.0,-837.0,149.0,34.0,-0.10604366074010699,0.8821333150635531,-0.3930809620292027,-0.2368183138231072
-4708.0081651210785,1660.0,-748.0,16692.0,-851.0,272.0,-229.0,-0.03581410744256269,0.9005708487555024,-0.3592050845958991,-0.24220074995825133
-4708.023805856705,1508.0,-628.0,16696.0,-928.0,408.0,-52.0,0.048638578910054166,0.9101559277840657,-0.3354544857930133,-0.2381612137239858
-4708.039444208145,1232.0,-616.0,16896.0,-1134.0,261.0,-239.0,0.14066426110683122,0.91286180688657,-0.2902215909456844,-0.25033640431230086
-4708.0550746917725,1188.0,-484.0,16660.0,-1396.0,539.0,-512.0,0.252007278882689,0.911806143822902,-0.21029722743531112,-0.2467325750888456
-4708.0706968307495,1336.0,-120.0,16424.0,-1782.0,585.0,-814.0,0.3810720404731475,0.8861182795386777,-0.09278582491298623,-0.24691959284808168
-4708.086264133453,1392.0,-416.0,16424.0,-1508.0,612.0,-1081.0,0.47260991994951845,0.8456493011753043,0.043074474826757775,-0.2442574719541421
-4708.101831436157,1448.0,-912.0,16740.0,-1471.0,675.0,-1119.0,0.5468609115896539,0.78361654365266,0.1822172210607692,-0.23170054000386364
-4708.117421388626,1356.0,-1160.0,17048.0,-1520.0,807.0,-1113.0,0.6059432800043286,0.6985166152844655,0.3224808600362465,-0.20227054778047251
-4708.133009195328,1640.0,-1220.0,16956.0,-1630.0,706.0,-1193.0,0.6531809403375699,0.5810586388776414,0.4534701774022026,-0.17346560342674744
-4708.148690223694,1912.0,-1032.0,16768.0,-1677.0,441.0,-1318.0,0.6885804069781786,0.4321321243112462,0.5607562245518827,-0.15707102498657766
-4708.164282083511,2064.0,-1760.0,16240.0,-1644.0,48.0,-1238.0,0.7198295937624256,0.2689990680499636,0.6228268391644315,-0.1468726855086264
-4708.179908275604,2216.0,-2212.0,15936.0,-1497.0,-309.0,-969.0,0.7501430039152464,0.11678715696396175,0.6373516991301071,-0.1320191094548482
-4708.1954963207245,2188.0,-2516.0,15804.0,-1239.0,-647.0,-515.0,0.786305797585598,-0.0004887395469750102,0.6092630157807821,-0.10257451641922596
-4708.211096525192,2296.0,-2388.0,15636.0,-996.0,-898.0,-233.0,0.8262153725875047,-0.0886820543878679,0.5525048763320908,-0.06513073743555606
-4708.226683139801,2160.0,-2500.0,15852.0,-1012.0,-779.0,582.0,0.852980306305762,-0.13700731165299213,0.5026595342955525,0.03141633635430016
-4708.242272615433,2364.0,-2280.0,16012.0,-638.0,-1087.0,1031.0,0.8814509154944788,-0.13491944882146906,0.4278249539331755,0.14767137398877384
-4708.257932901382,2508.0,-2036.0,16172.0,-667.0,-1056.0,1335.0,0.8847173758383262,-0.12120805881800026,0.34907555061247075,0.28413030695777314
-4708.273521184921,2364.0,-1944.0,16504.0,-750.0,-933.0,1266.0,0.8639565039042297,-0.11603304210824329,0.26849432846204413,0.40991009756336
-4708.289120435715,2264.0,-1976.0,16348.0,-716.0,-805.0,1049.0,0.830975651304476,-0.11558399357545543,0.1908965500295547,0.5095864151987027
-4708.304724216461,2080.0,-1948.0,16296.0,-699.0,-693.0,518.0,0.8086772351345496,-0.1261366585493285,0.11395799731292167,0.5631556157880152
-4708.32030749321,2048.0,-2028.0,16016.0,-717.0,-761.0,740.0,0.7672383836600702,-0.13101324346715656,0.03267800523147949,0.6269871933692026
-4708.335953950882,2060.0,-2036.0,16056.0,-753.0,-334.0,620.0,0.7227750913897696,-0.16051603388877084,-0.023930252082060354,0.6717574809158573
-4708.3515429496765,1996.0,-1816.0,16228.0,-732.0,-114.0,380.0,0.6882450104230986,-0.1999817526234839,-0.06864170948108346,0.6939844522500941
-4708.367134809494,1980.0,-1880.0,15996.0,-735.0,-75.0,228.0,0.659725582969789,-0.24011309573261275,-0.11345496564453507,0.703019080255629
-4708.382719755173,1824.0,-2284.0,15732.0,-687.0,-180.0,243.0,0.6273676522612429,-0.2701745079493278,-0.16051450066209572,0.7124960766402528
-4708.398312807083,1764.0,-2196.0,15524.0,-654.0,-448.0,379.0,0.5804748511428507,-0.2823522726956161,-0.21608130238953055,0.7325537605199702
-4708.4139676094055,1932.0,-2500.0,15556.0,-547.0,-524.0,649.0,0.5137525660436514,-0.2874849688676084,-0.2605345947285942,0.7652009007498365
-4708.429557085037,2200.0,-2728.0,15464.0,-423.0,-1085.0,924.0,0.41336334330249613,-0.2526665557884597,-0.3115398998467549,0.8174553497306466
-4708.445171833038,2540.0,-2800.0,15268.0,-302.0,-1246.0,1207.0,0.28344350286914094,-0.20487978175476834,-0.34721934651676795,0.8701280257030332
-4708.4607672691345,2752.0,-2776.0,15416.0,-179.0,-1317.0,1505.0,0.12419298684827781,-0.15239710125203534,-0.3608300677548985,0.9116758677028122
-4708.476353406906,2896.0,-2788.0,15632.0,-66.0,-1404.0,1761.0,-0.05984234170708501,-0.09487331407167995,-0.35097692493350313,0.9296414075224334
-4708.49196100235,3244.0,-2620.0,15816.0,94.0,-1454.0,1903.0,-0.2525206793284534,-0.03477708812405394,-0.3130191402093198,0.9149004746505089
-4708.507539987564,3384.0,-2580.0,15620.0,202.0,-1287.0,1989.0,-0.43657516428527987,0.00914996256712687,-0.2567842972630105,0.8621950062447838
-4708.523123502731,3432.0,-2608.0,15776.0,276.0,-1752.0,2101.0,-0.6166361113890108,0.08121818956499066,-0.16596565922711398,0.7652574153656626
-4708.538697242737,3372.0,-2584.0,15844.0,186.0,-1917.0,2299.0,-0.7731913009045337,0.1606164442267346,-0.0642095447410078,0.6101267937188692
-4708.5542776584625,3440.0,-2524.0,15380.0,60.0,-2117.0,1869.0,-0.8596642525119562,0.25120354803502537,0.05431588199870924,0.44150190868259725
-4708.569854974747,3568.0,-2444.0,15240.0,-249.0,-2205.0,1764.0,-0.88512276054374,0.35231995548377554,0.16649753037448306,0.25437554936459117
-4708.585493326187,3448.0,-2552.0,15160.0,70.0,-2382.0,1821.0,-0.8640950302832097,0.4121635755821087,0.2863628203308659,0.0381746085164287
-4708.601106405258,3384.0,-2356.0,15280.0,273.0,-2772.0,1964.0,-0.777624524819421,0.43107169724102384,0.40794147146116233,-0.2075115565437609
-4708.616716146469,3336.0,-2580.0,15156.0,455.0,-2992.0,2265.0,-0.6147043740923184,0.4050448952524502,0.491419590502739,-0.4653858091646363
-4708.632335662842,3652.0,-2456.0,15400.0,455.0,-2986.0,2557.0,-0.37707216266426524,0.3486884285639645,0.5129253351662186,-0.6878521385253585
-4708.647964000702,3860.0,-2560.0,15792.0,472.0,-2892.0,2762.0,-0.09075227618498839,0.26704477931178583,0.46756801773752893,-0.8377536982899931
-4708.663559913635,3956.0,-2764.0,15800.0,576.0,-2841.0,2823.0,0.2057031379658448,0.16011703372663683,0.3602168696909128,-0.895707854901177
-4708.679149389267,3872.0,-2964.0,15628.0,631.0,-2936.0,2822.0,0.47969984066218035,0.028660849105886236,0.20566226701423812,-0.8525078595085048
-4708.694774866104,3680.0,-2948.0,15708.0,632.0,-3032.0,2934.0,0.7036016075444784,-0.11059827598344422,0.02262664823648283,-0.7015702630527454
-4708.710361242294,3752.0,-2936.0,15740.0,610.0,-2995.0,3198.0,0.8499674137615773,-0.23358895332704896,-0.15670690186740538,-0.4454599233759967
-4708.72597360611,4008.0,-2792.0,16376.0,803.0,-2739.0,3406.0,0.8963577168340718,-0.3047772558546166,-0.29975844430953813,-0.1174671990423922
-4708.741551399231,4272.0,-2800.0,16340.0,1091.0,-2550.0,3460.0,0.8339724006770494,-0.31328645515340114,-0.39006998578069585,0.23278109484969456
-4708.757171630859,4060.0,-2960.0,16472.0,1434.0,-1891.0,3406.0,0.6954601755015006,-0.2691757419023243,-0.3810682661178264,0.5465039257139044
-4708.772754907608,3612.0,-3036.0,16312.0,1611.0,-1701.0,3420.0,0.48303364214029276,-0.19167494091323023,-0.30747017824709016,0.7971206352085586
-4708.788343429565,3792.0,-2388.0,15836.0,1612.0,-1507.0,3334.0,0.22439834670936967,-0.10209065104705432,-0.19159383545900294,0.9500077279564617
-4708.80397439003,3536.0,-1876.0,15784.0,1535.0,-1496.0,3219.0,-0.0509630510570614,-0.0014695808924258663,-0.06139086445231415,0.9968107992596958
-4708.81956744194,3684.0,-1720.0,15972.0,1382.0,-1214.0,3239.0,-0.3224120793547676,0.0769953365406091,0.06150998080390204,0.9414556237543207
-4708.835182189941,3796.0,-1904.0,16324.0,1364.0,-834.0,3264.0,-0.5674449131428285,0.1189943684391572,0.16665139522497546,0.7975424272712158
-4708.850806236267,4012.0,-2252.0,16484.0,1477.0,-559.0,3207.0,-0.7617424445362286,0.12547401965250637,0.2515753851909213,0.5837075844549671
-4708.86642408371,4132.0,-2428.0,16380.0,1563.0,-273.0,3029.0,-0.8885413341312327,0.09772749168953457,0.3027086524602247,0.3306223020821125
-4708.88201379776,4328.0,-2508.0,16224.0,1624.0,-15.0,2883.0,-0.9465924129620333,0.04650729589095891,0.3130806403616006,0.06148485815545552
-4708.897604942322,4400.0,-2196.0,16072.0,1809.0,442.0,2863.0,-0.9405499914633123,-0.025922559333319686,0.2629466295896441,-0.21343102975767184
-4708.9132170677185,4304.0,-2500.0,16224.0,2046.0,777.0,3028.0,-0.8531769291685587,-0.10436048142973321,0.15938836106066592,-0.48558559266998147
-4708.928901195526,3732.0,-2756.0,16332.0,2435.0,1005.0,3130.0,-0.6708741725156712,-0.18763253626539006,0.009244707434930279,-0.7173816357912107
-4708.944560289383,3936.0,-2648.0,16508.0,2786.0,1346.0,3033.0,-0.4082504445999653,-0.24675479616278745,-0.18158373181157708,-0.8599249928894804
-4708.960141181946,4232.0,-2164.0,16680.0,3018.0,1772.0,2900.0,-0.09063878755477947,-0.2483181976261831,-0.3797689422749976,-0.8865090148450906
-4708.975758552551,4464.0,-1764.0,16504.0,3111.0,2266.0,2737.0,0.24382537393344875,-0.17406295713273967,-0.5352199624337736,-0.789804321204189
-4708.991340875626,4004.0,-1288.0,16336.0,3190.0,2686.0,2502.0,0.5434049859253254,-0.03486426683395946,-0.6073451624098516,-0.5784698417955583
-4709.006927251816,3340.0,-972.0,16592.0,3106.0,3035.0,2104.0,0.7557787051945762,0.14206429926091943,-0.5655447901499849,-0.2979519659007523
-4709.0225620269775,3428.0,-544.0,17264.0,3193.0,3660.0,1891.0,0.8611976160097559,0.3226571662786826,-0.3917854849270256,0.02711370554938784
-4709.038208961487,2428.0,-324.0,18300.0,3135.0,4068.0,1631.0,0.8218770129172616,0.4459096943870479,-0.11254045634521456,0.3361805553202919
-4709.0537939071655,1820.0,-452.0,19080.0,3012.0,4339.0,1400.0,0.6374791545785521,0.46998535599658553,0.20999378270902516,0.5732684396075995
-4709.069382190704,1212.0,-36.0,19304.0,2637.0,4704.0,1278.0,0.3413598295416831,0.364225197387597,0.4961857031861803,0.7103613308147304
-4709.084966659546,576.0,732.0,19004.0,1841.0,4743.0,559.0,0.0390601317391755,0.13614100930281853,0.669963968267123,0.7287579933820949
-4709.100561141968,364.0,1184.0,17764.0,1268.0,4716.0,156.0,-0.24074951535589273,-0.13838072501900994,0.7034357099419616,0.6542695528431414
-4709.11613035202,-40.0,1032.0,16956.0,435.0,4679.0,-503.0,-0.45676939514807946,-0.4119406502049356,0.5766264091969953,0.5377439953931349
-4709.131775379181,-260.0,844.0,16924.0,510.0,4738.0,-1016.0,-0.5790894317018533,-0.6494580637721731,0.3451104234137181,0.3517931908717513
-4709.147405385971,-52.0,172.0,17328.0,346.0,4727.0,-1249.0,-0.61011360730243,-0.7811606635877573,0.04222845855533024,0.125563374976907
-4709.162987947464,392.0,-300.0,17260.0,531.0,4520.0,-1131.0,-0.5351641096221199,-0.7987517758283218,-0.24969763466944667,-0.11509156191463268
-4709.178578615189,532.0,-1084.0,17300.0,1307.0,4252.0,-839.0,-0.33468101969281117,-0.7428659048490112,-0.48357084573738224,-0.31984074103070886
-4709.1941792964935,644.0,-708.0,17416.0,1607.0,4247.0,-518.0,-0.06102610622443258,-0.6031164113213451,-0.6372463423727146,-0.47586080726042473
-4709.2098042964935,316.0,364.0,17456.0,1428.0,4430.0,-419.0,0.22515541759453575,-0.37347822183683976,-0.6872024175747177,-0.5810093742969091
-4709.225395441055,-92.0,1440.0,16776.0,935.0,4454.0,-754.0,0.4495210007470552,-0.0778522231355931,-0.6229670047980387,-0.635438440899803
-4709.241012096405,-764.0,1936.0,15852.0,412.0,4097.0,-1191.0,0.5704564856327143,0.21574919744619464,-0.4617361500961593,-0.6440740714353225
-4709.256596326828,-768.0,1564.0,14824.0,346.0,4506.0,-1498.0,0.6107431649510374,0.5047544554590838,-0.21093477594565807,-0.5724703018118482
-4709.272171020508,-1344.0,844.0,14624.0,678.0,4478.0,-1800.0,0.5277006378069735,0.734020361201965,0.06745000917584473,-0.4221334415338695
-4709.287789344788,-1636.0,568.0,15256.0,902.0,3998.0,-1645.0,0.36001656263349613,0.852023200155296,0.302114964682885,-0.23058857114208783
-4709.303372621536,-1928.0,100.0,15364.0,876.0,3243.0,-1531.0,0.1699731768394438,0.8608425481766934,0.4761584437852701,-0.05772662137830856
-4709.318940639496,-1624.0,248.0,15448.0,846.0,2363.0,-851.0,0.0038211048449175626,0.8280587203865709,0.5562178120565994,0.07018475832036628
-4709.334558963776,-1268.0,520.0,15728.0,824.0,1990.0,-442.0,-0.14696967312163992,0.7804334873513376,0.5832342817220021,0.17076668184212104
-4709.350177049637,-920.0,1252.0,16192.0,694.0,1871.0,-135.0,-0.28322725896027034,0.7257748436176542,0.5701411175455561,0.2607149827637947
-4709.365806341171,-808.0,1340.0,16216.0,705.0,2031.0,-148.0,-0.41830487149750356,0.6434407132467396,0.5359289032979978,0.3518313425887316
-4709.381395101547,-736.0,1124.0,16372.0,649.0,1640.0,-283.0,-0.5166001304847989,0.5494420719874658,0.5057212206420595,0.41890782005772426
-4709.396991252899,-536.0,848.0,16328.0,580.0,1596.0,-427.0,-0.5924422828260001,0.4408784285264957,0.46991517852555326,0.4835473893748396
-4709.412577629089,-1128.0,908.0,16820.0,409.0,1589.0,-451.0,-0.6472880825561562,0.33043239111280265,0.4176802782504497,0.5453217016082135
-4709.4281578063965,-1316.0,1220.0,17264.0,352.0,1449.0,-323.0,-0.6888717079143591,0.22766175398460223,0.3585806698010698,0.5874059916725608
-4709.443780183792,-1028.0,1248.0,16908.0,317.0,1177.0,-258.0,-0.7146212626862519,0.1392193777916604,0.30719974180066545,0.612831734166577
-4709.459365844727,-928.0,860.0,16756.0,272.0,913.0,-231.0,-0.7274412897591093,0.06685178381582485,0.2664108328087316,0.6287966898103104
-4709.474932909012,-788.0,384.0,16468.0,403.0,809.0,-159.0,-0.7375601874378607,-0.006896884187623243,0.23706721141889256,0.6322630308385905
-4709.490505695343,-704.0,344.0,16360.0,471.0,804.0,-346.0,-0.7321110288177662,-0.08842880421740965,0.21001551095660045,0.6419402411640112
-4709.506075382233,-976.0,592.0,16232.0,321.0,910.0,-337.0,-0.7245934451259859,-0.16537500123649435,0.1663076932310501,0.6480410476340611
-4709.521635532379,-1520.0,892.0,16520.0,76.0,872.0,-223.0,-0.7213397753005606,-0.221895784038925,0.11164728492532089,0.6465029569645384
-4709.5372402668,-1660.0,1080.0,16828.0,-84.0,710.0,-108.0,-0.7223978441600599,-0.25698460336112344,0.05982168619445625,0.6391569715250519
-4709.552867650986,-1444.0,884.0,16544.0,-176.0,608.0,-185.0,-0.718063354299603,-0.2800444512223461,0.00741135810798678,0.6371068955227003
-4709.568462848663,-1172.0,300.0,16512.0,40.0,610.0,-316.0,-0.6987107301857248,-0.31583725777925387,-0.03628490298854001,0.6408849724692602
-4709.584083557129,-1144.0,-132.0,16252.0,2.0,473.0,-501.0,-0.6679894427061857,-0.33995872878863376,-0.07868272668212183,0.6572877571318079
-4709.599695444107,-796.0,-36.0,16176.0,351.0,227.0,-576.0,-0.6218396387546443,-0.3685389535251558,-0.08865716542730888,0.6852987745695094
-4709.615304231644,-1100.0,48.0,16308.0,250.0,58.0,-598.0,-0.5767134088879917,-0.38010544126791623,-0.09588828251839934,0.7167474693383901
-4709.630875825882,-992.0,144.0,16600.0,205.0,35.0,-607.0,-0.5308738202000898,-0.386702429446616,-0.10474873566274258,0.7467676482436185
-4709.6464874744415,-872.0,24.0,16980.0,171.0,-90.0,-553.0,-0.4892957764123851,-0.38298100887151876,-0.10790228324976255,0.7760620383050848
-4709.66207909584,-776.0,56.0,17072.0,267.0,-96.0,-550.0,-0.44342344966022973,-0.38192222078787724,-0.1038910473745825,0.8041876098493995
-4709.677654504776,-684.0,36.0,16896.0,269.0,59.0,-630.0,-0.38904702952113623,-0.3898387687313024,-0.10804206219056164,0.8276442810848468
-4709.693228721619,-628.0,84.0,16800.0,198.0,119.0,-724.0,-0.3282069855116699,-0.39724101336403145,-0.12208693735404126,0.8482773907692993
-4709.70881319046,-832.0,132.0,16464.0,71.0,154.0,-847.0,-0.2606882999930889,-0.4003041325591398,-0.15011779090428948,0.8655997115045754
-4709.724393606186,-888.0,248.0,16292.0,-21.0,106.0,-905.0,-0.19108499306510304,-0.39452902890165964,-0.18507201876140994,0.879534944530801
-4709.740006685257,-1112.0,-268.0,15876.0,-13.0,30.0,-799.0,-0.1294149307264464,-0.3825825499313456,-0.21347513852239558,0.8895564813017454
-4709.755587100983,-1236.0,-436.0,15836.0,76.0,134.0,-538.0,-0.08252357600712067,-0.38317770932114825,-0.2266789413638814,0.891617272165891
-4709.771200656891,-1332.0,-712.0,16156.0,249.0,131.0,-188.0,-0.05695640388472308,-0.3910932054467184,-0.21433152387558188,0.8932323721087935
-4709.786793708801,-1128.0,-992.0,16120.0,453.0,38.0,84.0,-0.04729497886765984,-0.39736597611133206,-0.17609481477753408,0.8993631536879091
-4709.802419900894,-960.0,-1168.0,16316.0,675.0,-163.0,167.0,-0.039420272481821346,-0.3889629922720355,-0.11633899300016189,0.9130274209835934
-4709.818001031876,-404.0,-816.0,16576.0,512.0,-262.0,101.0,-0.032702873368782526,-0.3701667785108148,-0.0710601391623109,0.925665995261025
-4709.8335881233215,-336.0,-544.0,16940.0,730.0,-292.0,-21.0,-0.009208663454303514,-0.34747186861623075,-0.011860838946117596,0.9375701688605629
-4709.849191665649,-296.0,-124.0,17068.0,437.0,-286.0,9.0,0.0030092722647853338,-0.3238403626247541,0.024383994346665865,0.945792675291581
-4709.864768266678,-468.0,76.0,17208.0,123.0,-253.0,36.0,0.004051211859403323,-0.3024944413577185,0.03545956444120045,0.9524827137117988
-4709.880356550217,-488.0,-184.0,17068.0,-24.0,-175.0,76.0,-0.0023562289514426687,-0.28741490365865313,0.03536646217405244,0.9571501108464162
-4709.895988941193,-612.0,-628.0,16776.0,-65.0,-107.0,233.0,-0.0231091809976403,-0.277403370007572,0.03573956463031769,0.9598104081442834
-4709.911576032639,-760.0,-784.0,16600.0,145.0,20.0,388.0,-0.05212421516854718,-0.27771260624167415,0.05713963314814486,0.957545736166798
-4709.927285909653,-744.0,-444.0,16364.0,181.0,45.0,262.0,-0.06982930672242973,-0.2806179153947443,0.0783075523121444,0.9540678071987618
-4709.942915439606,-760.0,-44.0,16020.0,101.0,44.0,410.0,-0.10173139751385084,-0.28164503269668395,0.09634410739382743,0.9492336968774597
-4709.95849442482,-840.0,344.0,15716.0,-255.0,97.0,312.0,-0.13458536025569096,-0.28435440744137314,0.08188392667814079,0.945687249742366
-4709.9740698337555,-864.0,476.0,15572.0,64.0,239.0,167.0,-0.14845248910048678,-0.3032798801497898,0.0884025892522003,0.9371062666473349
-4709.989640951157,-864.0,432.0,15484.0,112.0,267.0,-84.0,-0.14064344803876877,-0.32685581891690213,0.09177657662124575,0.9300332005620079
-4710.005282640457,-968.0,252.0,15592.0,198.0,342.0,-296.0,-0.11361370111733125,-0.3588480168049576,0.0950464491063921,0.9215672521665669
-4710.020877122879,-1112.0,-60.0,15500.0,291.0,301.0,-332.0,-0.08021139886697752,-0.38805207545041887,0.10488462863011087,0.9121298881779659
-4710.036509037018,-984.0,-396.0,15956.0,481.0,288.0,-301.0,-0.04252894962360481,-0.4162507844310537,0.1306945044446269,0.8988022693631892
-4710.052130699158,-888.0,-604.0,15992.0,843.0,162.0,-285.0,0.008586779307282844,-0.433795660713851,0.18522097933635442,0.8817260236494346
-4710.06773018837,-820.0,-716.0,16416.0,1326.0,103.0,-317.0,0.08096311401182761,-0.4425416768108966,0.2733209419951865,0.8502337920370912
-4710.083317279816,-764.0,-380.0,16792.0,1754.0,217.0,-382.0,0.16980778031725124,-0.44965746530470224,0.3854070600159995,0.7876768878983961
-4710.098885774612,-864.0,80.0,17084.0,1794.0,309.0,-382.0,0.25281262725329334,-0.4511502662812024,0.4918100573627901,0.7004798927967147
-4710.114494800568,-624.0,352.0,17280.0,2160.0,259.0,-700.0,0.36246111436447076,-0.4406144961493358,0.590323051733648,0.5709636599194434
-4710.130064249039,-420.0,284.0,17468.0,2279.0,505.0,-1116.0,0.4679900903617302,-0.4400503912866042,0.660268691801399,0.3890837738567304
-4710.145673036575,-948.0,40.0,17744.0,2324.0,882.0,-1286.0,0.5344669688933776,-0.436319015864183,0.7050446348351903,0.1639598684048913
-4710.16132068634,-1308.0,308.0,18260.0,2915.0,984.0,-960.0,0.576383360936018,-0.3594960874113927,0.7278065638277863,-0.09403398333150954
-4710.176887273788,-1828.0,1284.0,18608.0,2671.0,780.0,-621.0,0.5877119351131889,-0.2504782530959945,0.704099544282583,-0.3099986415979087
-4710.192488670349,-1940.0,1916.0,18000.0,2011.0,221.0,-383.0,0.5982346615905687,-0.1622235862699566,0.6422643672330886,-0.4508827789037992
-4710.208091497421,-1864.0,2004.0,17516.0,1338.0,-12.0,-195.0,0.6060582829183399,-0.10299304715149833,0.5820543285977281,-0.5322579717629141
-4710.223705768585,-2380.0,2144.0,17356.0,904.0,-53.0,-100.0,0.6103929755604942,-0.0624601823055681,0.5345160475915638,-0.5812157395321071
-4710.2392864227295,-2368.0,2212.0,17204.0,688.0,-67.0,-91.0,0.611608806839961,-0.03333187734127671,0.4944615896418738,-0.616710134275039
-4710.25488114357,-2792.0,1840.0,16864.0,589.0,-203.0,-136.0,0.6138985775105111,-0.01860038745220776,0.4506362548504719,-0.6478499270136097
-4710.270448684692,-2768.0,2008.0,16556.0,573.0,-486.0,154.0,0.6412984450113848,-0.009239403740397393,0.39135848753271263,-0.6599162614154992
-4710.286031246185,-2920.0,2216.0,16332.0,594.0,-556.0,606.0,0.6930385200952667,0.012711141754872403,0.3250093310695657,-0.6433544678147217
-4710.301606655121,-3096.0,2348.0,16100.0,402.0,-621.0,941.0,0.7589868310139439,0.028783577677799592,0.2621484169420033,-0.5953055547349434
-4710.317189216614,-3444.0,2892.0,15592.0,-60.0,-941.0,977.0,0.8257164449733179,-0.001590884284390953,0.1988228006693366,-0.5278819143727324
-4710.332775592804,-3404.0,2976.0,15236.0,-431.0,-1162.0,832.0,0.8767997615566427,-0.07093864706088052,0.13369815833814094,-0.4564150402258626
-4710.348364830017,-3444.0,2908.0,15116.0,-663.0,-1312.0,585.0,0.9028042849945225,-0.1652429467259097,0.06263263470926013,-0.3920667604149111
-4710.36398434639,-3164.0,2628.0,14944.0,-704.0,-1585.0,357.0,0.9028979992915045,-0.26949952738322974,-0.032627264983150134,-0.33328766733159126
-4710.379563808441,-2960.0,2260.0,14852.0,-647.0,-1808.0,374.0,0.8807710690718195,-0.36856020489250346,-0.1453184791305907,-0.2593997665358471
-4710.395133018494,-2892.0,2068.0,14600.0,-561.0,-2160.0,502.0,0.8304277884417003,-0.45774406110751403,-0.2769706970574238,-0.15539400141624587
-4710.4107048511505,-2752.0,2364.0,14668.0,-765.0,-2630.0,557.0,0.7227615922036952,-0.5461992872904353,-0.42251432198789746,-0.027634527564395328
-4710.426282405853,-2456.0,2384.0,14520.0,-1000.0,-3165.0,546.0,0.5371040082620492,-0.6112003354700513,-0.5696583750640115,0.1159429598965258
-4710.4418778419495,-2028.0,2328.0,14628.0,-1231.0,-3620.0,761.0,0.26865315161460596,-0.6343704959908388,-0.6732990931058973,0.26845463148668747
-4710.457532405853,-1916.0,2268.0,15060.0,-1179.0,-3919.0,631.0,-0.039251666901570365,-0.5710920475820889,-0.7127421429106092,0.4053539410849954
-4710.473134994507,-1980.0,2444.0,15848.0,-1028.0,-4105.0,977.0,-0.35578471954650837,-0.45170749585210346,-0.6417354810471723,0.5074969397872157
-4710.488718032837,-2028.0,2000.0,16444.0,-935.0,-5000.0,1160.0,-0.6590452052615791,-0.2421677834101534,-0.4386852149184364,0.5608649251931355
-4710.504295349121,-2040.0,1756.0,16728.0,-1024.0,-5670.0,1235.0,-0.8521675970469328,0.04188012673950226,-0.12124652750307614,0.5073023961070806
-4710.519857645035,-2344.0,1680.0,17144.0,-1052.0,-6467.0,1114.0,-0.8357168005031796,0.3411576648702826,0.2675107024206663,0.33708589580014453
-4710.535439729691,-2168.0,1424.0,17584.0,-1278.0,-7297.0,1105.0,-0.5523708932059254,0.564792904544638,0.6103711966826195,0.05781326469891475
-4710.551017284393,-1768.0,1148.0,18272.0,-1438.0,-7985.0,994.0,-0.049750267693983545,0.592103241129406,0.7644679727277996,-0.2500547567671483
-4710.5666246414185,-464.0,1520.0,19152.0,-1857.0,-8251.0,1003.0,0.49655059004931346,0.3908126779850501,0.633166141775336,-0.44699395874795395
-4710.58221745491,1616.0,2576.0,19764.0,-2328.0,-7435.0,781.0,0.8399511340623969,0.03543626119777331,0.30958260198335175,-0.4442802902772462
-4710.59778213501,3040.0,2624.0,19264.0,-2949.0,-5764.0,-175.0,0.8688201406881833,-0.3560311322891183,0.0014305170483128017,-0.34408044058979614
-4710.613357782364,3560.0,1532.0,18616.0,-2594.0,-3971.0,-1333.0,0.6878780020896201,-0.6173090017327555,-0.24189461472358273,-0.29536493696549543
-4710.628927946091,3680.0,-692.0,18420.0,-2219.0,-2762.0,-1836.0,0.4370139840864186,-0.739335416247773,-0.42443775350392915,-0.28680047662998315
-4710.644490480423,3176.0,-2280.0,17728.0,-1919.0,-2274.0,-1816.0,0.17558208873099096,-0.767417772419235,-0.5551958492260693,-0.268325290820871
-4710.660081624985,2916.0,-2616.0,17076.0,-1719.0,-2008.0,-1767.0,-0.07538877721298264,-0.7276485340084328,-0.6398848324498129,-0.23535408308840708
-4710.675664663315,3248.0,-1684.0,17308.0,-1539.0,-2156.0,-1850.0,-0.31913235720733507,-0.6337491371203388,-0.6848617385547905,-0.16577384849917098
-4710.69127702713,3828.0,-1164.0,17880.0,-1685.0,-2276.0,-1932.0,-0.5522157684945098,-0.4830611820276499,-0.6743836805954031,-0.08316423985502897
-4710.70686340332,4488.0,-1584.0,17724.0,-1894.0,-2269.0,-1595.0,-0.7458975055817787,-0.30161114973785835,-0.5934789092926893,-0.021222859030941982
-4710.722443819046,4856.0,-2968.0,18284.0,-1915.0,-1943.0,-921.0,-0.8716385546599085,-0.12875047857841498,-0.4728509602592391,-0.009028492572439099
-4710.73802280426,4812.0,-3352.0,18428.0,-1821.0,-1069.0,-386.0,-0.9205849456950456,0.024526493508320157,-0.3874950291106184,-0.042064370795214676
-4710.7536277771,4404.0,-3784.0,17952.0,-1735.0,-143.0,-145.0,-0.911787657611851,0.16643406274829578,-0.36487713597095317,-0.0883608840461939
-4710.769183635712,3824.0,-3720.0,17112.0,-1542.0,691.0,244.0,-0.8561569419500507,0.2835639886928419,-0.40681134970820837,-0.1452283746928582
-4710.784757137299,3380.0,-2992.0,16420.0,-1819.0,1422.0,448.0,-0.7396664825284082,0.4129598982596774,-0.49071703678525097,-0.20384898052752584
-4710.800322294235,3028.0,-2448.0,15908.0,-1910.0,1682.0,588.0,-0.573703424882887,0.5274460196218361,-0.5717593355087995,-0.2564299883423606
-4710.8159120082855,3264.0,-1892.0,15528.0,-1873.0,1880.0,669.0,-0.3683860809193854,0.6126751132314122,-0.6368200755328298,-0.28875784389362186
-4710.831488132477,3244.0,-1152.0,15108.0,-2072.0,1925.0,384.0,-0.13675092171492997,0.6855161962501491,-0.6472288537806729,-0.30407489360780915
-4710.847127914429,3160.0,-964.0,15252.0,-2315.0,1894.0,125.0,0.10845554759814986,0.7317809406102438,-0.5958513346883343,-0.31256237154350947
-4710.862703561783,3088.0,-1276.0,14932.0,-2505.0,1671.0,-247.0,0.33714659752520304,0.7411434891099113,-0.4794972363572251,-0.3272932945432109
-4710.878293037415,3024.0,-2028.0,14928.0,-2324.0,1698.0,10.0,0.5420640541755204,0.6990705554814797,-0.35278986740115964,-0.3049692264617631
-4710.893919706345,2880.0,-2460.0,15540.0,-1907.0,1749.0,-22.0,0.6942921163830127,0.6398729059145131,-0.21254103631512714,-0.25168915210434833
-4710.909528970718,2872.0,-2396.0,15700.0,-1544.0,1743.0,-187.0,0.7925391530240494,0.576085091231885,-0.061259050358380814,-0.19040742457546836
-4710.925215482712,2936.0,-2068.0,15788.0,-1311.0,1696.0,-384.0,0.8460940090882568,0.506405391387157,0.09545207071302755,-0.13626228221916825
-4710.940847396851,3012.0,-1756.0,15308.0,-1221.0,1592.0,-476.0,0.8673032281327586,0.4242125747921349,0.24460213729771485,-0.0894348717677463
-4710.95645070076,2832.0,-1856.0,15280.0,-1313.0,1464.0,-736.0,0.8646188615139534,0.3151237027369724,0.3863961337141067,-0.06188137149777371
-4710.972062826157,2724.0,-1564.0,15312.0,-1533.0,1477.0,-860.0,0.8358153408855321,0.1748112499542529,0.5193381425034492,-0.033788112863851416
-4710.987682342529,2552.0,-1676.0,15364.0,-1516.0,1701.0,-929.0,0.7618405871589956,0.02644631283762108,0.6471893492230864,-0.006742295360605105
-4711.003293037415,2220.0,-2160.0,15980.0,-1068.0,2020.0,-935.0,0.6351732678176321,-0.09407449681269192,0.766609480382423,-0.00384882931559776
-4711.018852472305,1928.0,-2664.0,15888.0,-529.0,1940.0,-951.0,0.49160331850140254,-0.18298528321229554,0.850596373384016,-0.03644685105855109
-4711.034469604492,1560.0,-2624.0,15472.0,-215.0,1803.0,-895.0,0.3461583392173062,-0.24907535235588166,0.900374924178294,-0.08637632169779531
-4711.050062417984,2092.0,-2324.0,15120.0,-223.0,1678.0,-1053.0,0.1985475975430739,-0.3211019079679789,0.9160820211369766,-0.13515230948374132
-4711.065632343292,2156.0,-2000.0,15152.0,-381.0,1658.0,-1228.0,0.040147374127373445,-0.3996991726662994,0.8999140150149442,-0.16965708149156464
-4711.081207275391,2172.0,-1888.0,16052.0,-566.0,1818.0,-1508.0,-0.14160533988681326,-0.48249493084416695,0.8432956641792149,-0.18973400380996447
-4711.096799373627,1932.0,-1932.0,16316.0,-656.0,1871.0,-1855.0,-0.3286142071724293,-0.5643088533904962,0.7325906559886352,-0.19203945320605495
-4711.112387418747,2008.0,-2020.0,16504.0,-435.0,1908.0,-2243.0,-0.49332809473440387,-0.6419407699147245,0.5561621945607647,-0.18767805467973087
-4711.127986907959,1872.0,-2292.0,16540.0,-137.0,1921.0,-2329.0,-0.6115673692176516,-0.6938473154360786,0.3337199661284993,-0.18218737601036075
-4711.143573999405,1600.0,-2520.0,15964.0,110.0,1741.0,-2696.0,-0.6726525063988908,-0.7226347699320878,0.0729032161020854,-0.14150164664222575
-4711.159189462662,1612.0,-2608.0,15484.0,246.0,1487.0,-2713.0,-0.6758384435637844,-0.710282007061572,-0.1820210551000421,-0.07490129602439421
-4711.174803733826,1756.0,-2360.0,15464.0,203.0,1328.0,-2677.0,-0.6382945526374884,-0.6491409050495388,-0.4137413779882585,0.003771154352600463
-4711.190407514572,1488.0,-2096.0,15600.0,60.0,1297.0,-2643.0,-0.5687831891956735,-0.539845961497303,-0.6157048024845736,0.07719856048452951
-4711.206013679504,1344.0,-1936.0,15644.0,154.0,1346.0,-2839.0,-0.45335211849453444,-0.38951860496748686,-0.786151548194887,0.15720323250964902
-4711.221603155136,1328.0,-2004.0,16072.0,317.0,1278.0,-3012.0,-0.3014341026298589,-0.20461985439948085,-0.8985067883494028,0.24485454508199042
-4711.23718547821,1236.0,-2216.0,15440.0,565.0,1150.0,-3150.0,-0.12831670286579913,0.002889033369194517,-0.9327042893910196,0.33702994793257607
-4711.252772092819,1336.0,-2312.0,15508.0,884.0,1119.0,-2839.0,0.04440629561852334,0.1842647095016848,-0.8850761776596474,0.42510558392132225
-4711.268369674683,1156.0,-2264.0,15416.0,1176.0,1001.0,-2981.0,0.20484453629970875,0.36656642884673785,-0.7576906827259344,0.49957241567265726
-4711.283994436264,1248.0,-2188.0,15320.0,1341.0,1016.0,-2850.0,0.3395603570633527,0.5136973156750185,-0.5666128739295232,0.5475067879730948
-4711.299577474594,1356.0,-2092.0,15580.0,1412.0,1269.0,-2765.0,0.45221329898177687,0.6061412936095187,-0.323866852421325,0.568512204185716
-4711.315143108368,1588.0,-2204.0,15620.0,1494.0,933.0,-2685.0,0.5130645665281727,0.668831427168853,-0.0681636238675342,0.53365062820705
-4711.330723285675,1576.0,-2400.0,15892.0,1697.0,902.0,-2587.0,0.5197558048287145,0.6912660871191687,0.1947566130581923,0.4626823552026925
-4711.346293926239,1480.0,-2424.0,15908.0,1931.0,916.0,-2478.0,0.4690564297156803,0.672768423258628,0.44596639531039883,0.35844481955013374
-4711.361876010895,1404.0,-2248.0,16204.0,2323.0,773.0,-2558.0,0.36558135678654097,0.6153566357821614,0.6692663609408618,0.19942171517151372
-4711.377486228943,1276.0,-2192.0,16256.0,2625.0,943.0,-2251.0,0.1991946609290734,0.5260447577372646,0.8264582834183952,0.023771951615579982
-4711.393055677414,1052.0,-1876.0,16184.0,2659.0,590.0,-2260.0,0.037489150437191476,0.3898244456762487,0.9038615199242613,-0.17223767866790007
-4711.408699989319,980.0,-1580.0,16212.0,2391.0,301.0,-2300.0,-0.09814285614559817,0.211914869552086,0.9094785497580852,-0.34396051427487523
-4711.424299001694,892.0,-1516.0,16224.0,2294.0,34.0,-2492.0,-0.20917002971958865,-0.00438366155200485,0.8499914937875777,-0.4834698984086457
-4711.439910650253,716.0,-1280.0,16104.0,1857.0,-90.0,-2555.0,-0.2984967035237241,-0.2233247333198557,0.74441832624436,-0.5539558980863285
-4711.455512523651,596.0,-1252.0,15988.0,1872.0,-329.0,-2397.0,-0.34450319665123275,-0.4287217296510811,0.5948121483402534,-0.5862710415916172
-4711.4711010456085,308.0,-1244.0,15892.0,2071.0,-486.0,-2546.0,-0.35741841440473615,-0.6224281133696679,0.3919744706269271,-0.5754922546031532
-4711.486693143845,-76.0,-952.0,16432.0,2334.0,-267.0,-2133.0,-0.3167459210404105,-0.7532071303955629,0.16105197050505138,-0.5535461164365473
-4711.502267837524,112.0,-384.0,16644.0,2275.0,-871.0,-1750.0,-0.2317201508245424,-0.8539489099178519,-0.03857219044029694,-0.46431585916981266
-4711.517855167389,632.0,228.0,17620.0,1614.0,-812.0,-1446.0,-0.16936656305591194,-0.8964906529032926,-0.1914889622111553,-0.36187215135590417
-4711.533451080322,1292.0,400.0,18604.0,677.0,-681.0,-1291.0,-0.16694075760649554,-0.8975981680519922,-0.3008799857697495,-0.2755350183237555
-4711.549067258835,1908.0,-24.0,18932.0,162.0,-801.0,-1264.0,-0.20395990834793276,-0.8784613146978273,-0.38879648968364305,-0.18852947773688974
-4711.564701795578,1668.0,-1696.0,18156.0,222.0,-741.0,-1576.0,-0.2352992682477419,-0.8314054037564386,-0.4943353123711395,-0.095036350464434
-4711.580276012421,1192.0,-2096.0,16788.0,574.0,-845.0,-1689.0,-0.24059831300977372,-0.7660265408904334,-0.5955437842525046,0.0253651624574766
-4711.595905780792,804.0,-1936.0,15660.0,979.0,-800.0,-1423.0,-0.21071172641893127,-0.7012164775761429,-0.6626402107501188,0.15749276498397713
-4711.611469507217,608.0,-1068.0,15324.0,1083.0,-723.0,-1136.0,-0.16874092951665737,-0.6382536801998299,-0.6961058593152746,0.2821265160245857
-4711.627088546753,456.0,-104.0,15404.0,1042.0,-441.0,-858.0,-0.11549257039122174,-0.5861035627255058,-0.7063304128470433,0.3797912950980092
-4711.642693042755,308.0,416.0,16060.0,832.0,-115.0,-609.0,-0.05959932216075815,-0.5508557851930379,-0.7058339492172687,0.44136635672612634
-4711.6582980155945,236.0,544.0,16576.0,615.0,-50.0,-465.0,-0.015166814111569754,-0.5222690240271695,-0.7026130005701808,0.483052798067851
-4711.673876523972,500.0,548.0,16768.0,536.0,-352.0,-600.0,0.012940990121840235,-0.46992962419654905,-0.7047957484893136,0.5312830055521679
-4711.68950343132,716.0,496.0,16912.0,431.0,-646.0,-689.0,0.022741501457511505,-0.3954402723272187,-0.7108419487239267,0.5812172907507169
-4711.705098628998,892.0,-500.0,16892.0,424.0,-870.0,-611.0,0.01433041348608533,-0.31095838591745373,-0.7085603721316952,0.6332785489194492
-4711.7207152843475,1112.0,-776.0,16628.0,385.0,-932.0,-499.0,-0.005244894700245144,-0.22695888441617468,-0.6985511342910461,0.6785930066283044
-4711.736317157745,1264.0,-916.0,16576.0,374.0,-936.0,-303.0,-0.03679869519440819,-0.15252760390060519,-0.6790182316882418,0.7171578815820838
-4711.751930236816,1356.0,-824.0,16528.0,403.0,-847.0,-45.0,-0.07855149193924303,-0.09776823248356806,-0.6493798887022582,0.7500511955728094
-4711.76752448082,1324.0,-412.0,16756.0,495.0,-794.0,209.0,-0.1325566150312132,-0.06078229494500139,-0.6074923334656439,0.7808247698511828
-4711.783104896545,1320.0,-72.0,16792.0,623.0,-696.0,362.0,-0.1901143153422805,-0.039572119833883625,-0.5527996726975882,0.8103722084938674
-4711.798678159714,1304.0,164.0,16752.0,616.0,-480.0,420.0,-0.24015338634359057,-0.035975218405689256,-0.49815104782535263,0.8323927367768607
-4711.814247846603,1132.0,180.0,16604.0,635.0,-263.0,489.0,-0.28437455195443606,-0.05127493586545918,-0.44357355598575215,0.8483775666428608
-4711.829822063446,1032.0,76.0,16544.0,616.0,-201.0,530.0,-0.3277960465715629,-0.07197109153280942,-0.38934825958506164,0.8577749393598025
-4711.845395326614,928.0,60.0,16404.0,588.0,-230.0,650.0,-0.3794245257586914,-0.09331622520665955,-0.3333923293543259,0.8580085466320653
-4711.861031532288,964.0,108.0,16516.0,544.0,-458.0,761.0,-0.4435087838640535,-0.09868763950596969,-0.26993360685939255,0.8489384879554271
-4711.8766913414,1028.0,120.0,16476.0,411.0,-632.0,806.0,-0.5122334809333647,-0.08624882008034353,-0.2068635243720766,0.8290871391657212
-4711.892284870148,1152.0,88.0,16472.0,339.0,-736.0,821.0,-0.5794684844600394,-0.06252002173194489,-0.1422658642702716,0.8000424652877214
-4711.907907247543,1252.0,140.0,16680.0,499.0,-676.0,742.0,-0.633933241566747,-0.049383129488961376,-0.06858525456767456,0.7687561476921275
-4711.923589468002,1496.0,336.0,16576.0,178.0,-565.0,613.0,-0.6758126163155759,-0.0247323510759044,-0.022420211159602528,0.736317154879956
-4711.939264297485,1612.0,344.0,16556.0,220.0,-456.0,564.0,-0.7109162011929395,-0.009275975314625241,0.02003390954071161,0.702930120020388
-4711.954912662506,1752.0,248.0,16612.0,164.0,-439.0,534.0,-0.7413453602435148,0.008684369883550633,0.05780939011739396,0.6685728927943413
-4711.970560789108,1540.0,188.0,16512.0,161.0,-412.0,485.0,-0.7664520798131683,0.02493708679425261,0.09309805931261939,0.6350292138197334
-4711.986161231995,1464.0,108.0,16680.0,183.0,-359.0,359.0,-0.7829981470506062,0.03547269932348126,0.1260107158479554,0.608092829105482
-4712.001780509949,1476.0,136.0,16468.0,254.0,-311.0,355.0,-0.7983762743232808,0.03844267412328407,0.15915740484218205,0.57947079813208
-4712.017396211624,1744.0,124.0,16696.0,292.0,-173.0,281.0,-0.8106165796118604,0.030697420794566253,0.18459329586033146,0.5548727280542356
-4712.03297495842,1624.0,172.0,16716.0,279.0,44.0,503.0,-0.8354266564510462,0.016894226161636845,0.19309676226503883,0.5142864252692115
-4712.048539161682,1580.0,376.0,16756.0,255.0,172.0,218.0,-0.8480797474191941,-0.005745479560314028,0.19127473852312657,0.49410697817874166
-4712.064141988754,1388.0,312.0,16688.0,160.0,213.0,119.0,-0.8564610452652117,-0.02474194145147876,0.18210908180049276,0.48238842917530034
-4712.0797708034515,1248.0,320.0,16464.0,99.0,186.0,-6.0,-0.858856095834507,-0.0399897950379431,0.1720356547227779,0.4808022009567308
-4712.095356225967,1188.0,296.0,16404.0,142.0,47.0,-107.0,-0.854518834464723,-0.05410026734118198,0.17378839484463987,0.4864856795795614
-4712.110944271088,1116.0,168.0,16404.0,197.0,-113.0,-102.0,-0.8474015814127734,-0.06539683076203057,0.18977914793008255,0.49154622301096446
-4712.126519680023,1184.0,96.0,16256.0,177.0,-222.0,-218.0,-0.8330187533831819,-0.07240140305961917,0.21217917135160755,0.5057843340708302
-4712.142145395279,1340.0,-12.0,16316.0,143.0,-323.0,-212.0,-0.8163165584328159,-0.07228146389647146,0.24022375139071708,0.5202837837883832
-4712.157745361328,1360.0,120.0,16600.0,105.0,-424.0,-186.0,-0.7977071528159451,-0.06423682057094218,0.2735356416973334,0.533587089377585
-4712.1733639240265,1424.0,160.0,16440.0,60.0,-419.0,-86.0,-0.7828835585747961,-0.050824713377813274,0.3045484323024482,0.5401485301335628
-4712.18892788887,1384.0,-108.0,16552.0,21.0,-1.0,-125.0,-0.7768993582754122,-0.055458606973649426,0.3047797432451621,0.5481432642395673
-4712.204515218735,1464.0,-100.0,16484.0,15.0,-113.0,-132.0,-0.7674941467920281,-0.054495642189123915,0.31223335921632883,0.5572192468094214
-4712.220081806183,1448.0,-64.0,16468.0,60.0,-3.0,-68.0,-0.7638730668835066,-0.06014539586477037,0.3147690176690648,0.5601793771301365
-4712.235656738281,1452.0,-140.0,16420.0,60.0,-9.0,-177.0,-0.7546340574542674,-0.06847938273151,0.31708418550347917,0.5703469407075102
-4712.251240491867,1428.0,-148.0,16456.0,239.0,-97.0,-215.0,-0.7395819328862496,-0.08522145693599177,0.33370057182999513,0.578273115565889
-4712.266826868057,1336.0,-208.0,16508.0,-51.0,-214.0,-260.0,-0.7203669500131911,-0.07857644900956687,0.3426218599108165,0.597919275572374
-4712.282438755035,1376.0,-156.0,16424.0,-31.0,-274.0,-279.0,-0.6974965416758323,-0.07054715674427278,0.355877201166673,0.6179588098856821
-4712.29803442955,1368.0,-104.0,16520.0,-35.0,-336.0,-305.0,-0.670375349018975,-0.05964747557626518,0.37204235355671894,0.6392366989191434
-4712.313620567322,1324.0,-132.0,16548.0,-24.0,-361.0,-206.0,-0.646935854650275,-0.04469967905524234,0.3902678942750338,0.6535800711147852
-4712.329204559326,1512.0,-248.0,16468.0,-31.0,-382.0,-207.0,-0.6218662646150176,-0.028134851485011655,0.4087429480438773,0.6673979184040667
-4712.3448395729065,1276.0,-8.0,16496.0,-61.0,-363.0,-145.0,-0.6003376735390293,-0.008811168695882662,0.4240630740551674,0.6780026181799303
-4712.360468626022,1312.0,-228.0,16496.0,-40.0,-365.0,-125.0,-0.5792060577594635,0.010277955388229176,0.44025768116086805,0.6859940819472381
-4712.376083374023,1340.0,-256.0,16512.0,-25.0,-382.0,-122.0,-0.5569334565489976,0.029723598775370313,0.45769123290406755,0.6924307676403333
-4712.391703128815,1404.0,-348.0,16440.0,19.0,-357.0,-190.0,-0.5309822678604654,0.042766719649112356,0.4761871591061286,0.6996246339364031
-4712.40730214119,1388.0,-248.0,16848.0,8.0,-2.0,-233.0,-0.516665510171113,0.03282601182489634,0.47734191945094,0.7100168276049432
-4712.422877073288,1404.0,-184.0,16624.0,70.0,-185.0,-1.0,-0.5090924062261035,0.041090745592040644,0.489757385036322,0.7065933599687941
-4712.4384508132935,1428.0,-200.0,16552.0,146.0,-170.0,-157.0,-0.4925979332134583,0.03836627791762378,0.5065452358080202,0.7066025962256113
-4712.454066514969,1368.0,-160.0,16564.0,122.0,-195.0,-117.0,-0.47711878636054206,0.03996574948185497,0.5225305463022633,0.7054943165974162
-4712.469638824463,1420.0,-240.0,16672.0,151.0,-160.0,-93.0,-0.4645909249725338,0.0392817024222874,0.5385236255045123,0.7018579094527952
-4712.485211133957,1444.0,-128.0,16724.0,188.0,-164.0,-53.0,-0.4542372912413602,0.03920563430956838,0.5565658971726811,0.6945255960642953
-4712.500798225403,1372.0,-104.0,16556.0,223.0,-167.0,-69.0,-0.44263510765635145,0.03712538421514046,0.5765995822094886,0.6857323013485449
-4712.516406059265,1404.0,-16.0,16472.0,147.0,-212.0,-88.0,-0.42712191072347344,0.03969681517116292,0.5935520552038394,0.6809456615681564
-4712.532063484192,1400.0,-296.0,16540.0,106.0,-32.0,-100.0,-0.4199190555633028,0.03246549809605558,0.6011923586611508,0.6791036195571638
-4712.547660589218,1468.0,-124.0,16476.0,191.0,140.0,-21.0,-0.4265371607651496,0.01606390108853973,0.607165119134061,0.6701928973625013
-4712.563273429871,1428.0,-112.0,16528.0,162.0,133.0,-72.0,-0.42958812611120134,-0.0015565431261305223,0.61153249968248,0.6644393282383733
-4712.578864097595,1416.0,-120.0,16496.0,102.0,96.0,-125.0,-0.4274592926684863,-0.017607895515767163,0.6136064959751036,0.6636682780004014
-4712.59445309639,1336.0,-224.0,16512.0,140.0,54.0,-218.0,-0.4174636935251791,-0.03761132148043285,0.6190614598994381,0.6641327893968099
-4712.610033988953,1356.0,-136.0,16624.0,147.0,115.0,-179.0,-0.41277973512925203,-0.05927346890029605,0.6225088975729552,0.6622554028421771
-4712.6256058216095,1356.0,-192.0,16568.0,170.0,91.0,-162.0,-0.4074479927843191,-0.07941939718659626,0.6279333642941087,0.6583148050384628
-4712.64119720459,1460.0,-184.0,16432.0,142.0,2.0,-155.0,-0.39766588661382835,-0.09303682212172013,0.6347106644699593,0.6560094242929989
-4712.656783342361,1376.0,-188.0,16384.0,160.0,-22.0,-149.0,-0.38660950782194975,-0.10553746962808608,0.6431821862586594,0.6524657893297562
-4712.6723618507385,1432.0,-216.0,16564.0,164.0,-13.0,-70.0,-0.3803999897609732,-0.1142168790976555,0.6521157790488232,0.6457517812864239
-4712.687979221344,1328.0,-220.0,16532.0,153.0,7.0,-58.0,-0.37602831765396544,-0.12295041370891982,0.6597446928253744,0.6389231881688803
-4712.703529834747,1364.0,-148.0,16428.0,155.0,246.0,-91.0,-0.38338363343540044,-0.14691579696603754,0.6589906063728306,0.6302095833356343
-4712.719122171402,1380.0,-288.0,16452.0,131.0,-16.0,-127.0,-0.37381306575396117,-0.1576702421861435,0.6649083120354945,0.6271370051166628
-4712.734764099121,1404.0,-216.0,16448.0,143.0,56.0,-136.0,-0.3676541425463617,-0.17323248002839087,0.6688230068196366,0.6224923492545534
-4712.7503435611725,1452.0,-156.0,16428.0,99.0,79.0,-127.0,-0.3638861033826488,-0.18805698340625557,0.6695603621308021,0.6196050324363099
-4712.765999078751,1440.0,-176.0,16504.0,67.0,60.0,-156.0,-0.35787307501614035,-0.20248465865420306,0.6685329244917277,0.6196697136852185
-4712.781589269638,1704.0,-224.0,16544.0,63.0,7.0,-180.0,-0.3474456104358041,-0.21526420991815554,0.6683485523214238,0.6214926229063873
-4712.797176361084,1592.0,-292.0,16484.0,108.0,52.0,-235.0,-0.3356723932324263,-0.23496675998189617,0.6679409245026142,0.6212645068727317
-4712.812768697739,1432.0,-236.0,16584.0,170.0,73.0,-123.0,-0.3297675832124038,-0.2509889236915615,0.6722786065473291,0.6134324546559167
-4712.8283631801605,1432.0,-156.0,16476.0,190.0,54.0,-165.0,-0.31991526798223363,-0.26892240532827766,0.6770231779183532,0.6057842667036204
-4712.843996763229,1276.0,-220.0,16472.0,144.0,8.0,-138.0,-0.3097184127370635,-0.28143791291894393,0.6809866164415225,0.6009362979642597
-4712.859616756439,1024.0,-268.0,16488.0,143.0,33.0,-173.0,-0.2990856011172706,-0.2972206830519417,0.6831297032251393,0.596272988942138
-4712.875254392624,1324.0,-208.0,16548.0,131.0,-7.0,-133.0,-0.28836084120351474,-0.3081247643537266,0.6865110521911754,0.592123070038423
-4712.89083313942,1352.0,-96.0,16432.0,71.0,-35.0,-158.0,-0.27620523906485084,-0.31749180631812385,0.6866548751034448,0.5928024133981373
-4712.906455516815,1388.0,-152.0,16488.0,71.0,-88.0,-123.0,-0.26261931998172683,-0.3219462893946234,0.6888949477028714,0.593974267579688
-4712.922148942947,1364.0,-200.0,16348.0,54.0,-147.0,-78.0,-0.24823575605558215,-0.32017406198623766,0.6927197611863073,0.5966631477716148
-4712.937794208527,1384.0,-296.0,16572.0,76.0,-68.0,-111.0,-0.23624288127775317,-0.32492273767491137,0.6949181891978858,0.5964086065017485
-4712.953406572342,1388.0,-240.0,16648.0,54.0,10.0,-96.0,-0.23035238751465834,-0.33232488564851387,0.694698279494375,0.5948884335844445
-4712.969043016434,1436.0,-136.0,16504.0,82.0,3.0,-143.0,-0.22074962316916333,-0.3427255012270348,0.69460762750143,0.5927301903026239
-4712.984712123871,1356.0,-120.0,16508.0,98.0,-27.0,-138.0,-0.20905793589973629,-0.3515051805096793,0.6959256407375085,0.590276536952205
-4713.000299453735,1336.0,-200.0,16396.0,88.0,-254.0,-134.0,-0.18399845619462554,-0.34800454955542753,0.700678405192598,0.5950522448520599
-4713.015921115875,1356.0,-220.0,16864.0,87.0,-41.0,-166.0,-0.1702363021689466,-0.357337130210065,0.7006513020682628,0.5936476477735982
-4713.031511306763,1332.0,-192.0,16632.0,102.0,-66.0,-143.0,-0.1556195379491359,-0.36409194973593617,0.7023011369052378,0.5916018294829661
-4713.047121524811,1356.0,-148.0,16508.0,123.0,6.0,-93.0,-0.14729296378085197,-0.3717028278620552,0.7054919403879684,0.5851691316428297
-4713.06272315979,1300.0,-184.0,16436.0,101.0,34.0,-81.0,-0.14199175347658702,-0.37966409964006587,0.7074795787957596,0.5789353668382308
-4713.078298091888,1268.0,-176.0,16608.0,91.0,76.0,-54.0,-0.14095963312339654,-0.38790694222614985,0.7092448594852018,0.5715158049400666
-4713.093900918961,1372.0,-208.0,16496.0,102.0,78.0,-8.0,-0.1419554863364819,-0.3934884916112808,0.7130042915840389,0.5627080300219597
-4713.1095016002655,1032.0,-176.0,16472.0,79.0,-33.0,13.0,-0.13784968821091845,-0.3919924324231778,0.7176668291476006,0.5588324603352437
-4713.125069141388,1340.0,-148.0,16496.0,51.0,-42.0,-5.0,-0.13325525320534953,-0.3908300533589694,0.720425458631627,0.5572091756602839
-4713.140632390976,1292.0,-108.0,16512.0,47.0,-85.0,-68.0,-0.12301923633687366,-0.3914643904398452,0.7212904313201755,0.55799821880953
-4713.156240224838,1416.0,-144.0,16532.0,53.0,-84.0,-66.0,-0.11272427715113076,-0.3920429344317959,0.7224290320162824,0.5582937117708552
-4713.17184138298,1448.0,-176.0,16532.0,35.0,-25.0,-98.0,-0.10519379452964173,-0.3972987381492748,0.7209454536811721,0.5579656181826066
-4713.187436580658,1360.0,-132.0,16460.0,32.0,-254.0,-65.0,-0.0849332156051351,-0.3891750648589324,0.7223400575975519,0.565291039172728
-4713.203053712845,1408.0,-180.0,16540.0,80.0,-15.0,-65.0,-0.07807886243329552,-0.39307759737378745,0.724110516525824,0.561299967522427
-4713.218643188477,1328.0,-184.0,16608.0,60.0,-30.0,-94.0,-0.06953288963243408,-0.3979060823340682,0.7239431218120086,0.5592336571434169
-4713.234217643738,1412.0,-280.0,16620.0,69.0,-13.0,-104.0,-0.06125120856343988,-0.4042065864049404,0.7236863650070718,0.556006627711608
-4713.249783754349,1464.0,-12.0,16696.0,70.0,-20.0,-68.0,-0.054232149464406264,-0.4078582540273025,0.7247166853695791,0.552717146950591
-4713.265365123749,1440.0,-244.0,16784.0,111.0,36.0,-72.0,-0.04909517090181628,-0.41461496571112794,0.7272404239567186,0.5447985500767543
-4713.280957937241,1368.0,-212.0,16512.0,104.0,42.0,-86.0,-0.04391801715447325,-0.4224554496348564,0.7287940638642394,0.5370864114081436
-4713.296548604965,1368.0,-204.0,16496.0,70.0,81.0,-109.0,-0.04138874141753413,-0.4333880161210524,0.727638477102207,0.5300981477112631
-4713.312125921249,1464.0,-156.0,16484.0,44.0,34.0,-54.0,-0.03939722876943454,-0.43851083718406403,0.7274511692139375,0.5262802489612312
-4713.327753543854,1428.0,-208.0,16508.0,254.0,29.0,-61.0,-0.02871841417380134,-0.44444510631962963,0.7364526650608476,0.5091966931163733
-4713.3433384895325,1472.0,-160.0,16600.0,-10.0,23.0,-254.0,-0.01930100547254222,-0.4616299168653286,0.7258786519924647,0.5095345656815258
-4713.358945131302,1524.0,-196.0,16532.0,6.0,3.0,-65.0,-0.016367468853604274,-0.4658568182230918,0.7234730267021133,0.5092114595262628
-4713.374539852142,1464.0,-220.0,16480.0,29.0,8.0,-150.0,-0.009033643726135467,-0.4756570548555375,0.7185505542668178,0.5073005622015756
-4713.390161514282,1348.0,-204.0,16524.0,59.0,52.0,-141.0,-0.003608100070359674,-0.4867748821438879,0.715161274083451,0.5015790543663295
-4713.405762195587,1356.0,-440.0,16492.0,94.0,84.0,-178.0,0.002929974883578824,-0.5014776646046224,0.7115242241655851,0.49218375184014124
-4713.421373844147,1396.0,-268.0,16536.0,100.0,98.0,-104.0,0.005683416189368783,-0.5120368929208857,0.7111788780402601,0.4816747061012657
-4713.436957359314,1340.0,-4.0,16504.0,70.0,68.0,-105.0,0.009000006585407538,-0.5213133736197695,0.7093767747945835,0.47427413776071753
-4713.452533721924,1320.0,-232.0,16384.0,47.0,29.0,-164.0,0.016127478392691675,-0.5325472200795264,0.7037726818697069,0.46993337302237004
-4713.468119382858,1344.0,-236.0,16468.0,20.0,31.0,-116.0,0.019907840280949385,-0.540862073349391,0.6991763246043137,0.4671449053777102
-4713.4837329387665,1340.0,-104.0,16540.0,66.0,41.0,-93.0,0.024310556221442025,-0.5480400910327077,0.697481511516116,0.46106463383159174
-4713.499311685562,1296.0,-140.0,16548.0,80.0,44.0,-75.0,0.02847490121131934,-0.5541541958184026,0.6971430040007738,0.45397570334836435
-4713.51490688324,1348.0,-200.0,16484.0,49.0,39.0,-131.0,0.033660267086867424,-0.5634815796711257,0.6927635262362791,0.4488142071143133
-4713.530488014221,1340.0,-16.0,16492.0,37.0,31.0,-143.0,0.03920470414447243,-0.5731620320574481,0.6871858487593481,0.44466154032659017
-4713.54606962204,1288.0,-308.0,16508.0,58.0,-16.0,-110.0,0.047335632467617544,-0.5788837908665381,0.6838135102610683,0.4416468926136724
-4713.5616710186005,1332.0,-300.0,16476.0,88.0,-2.0,-70.0,0.05460141855254264,-0.582571089988747,0.6836040611359714,0.4362511865883924
-4713.57732629776,1376.0,-508.0,16472.0,99.0,0.0,28.0,0.05857257724606385,-0.5803834746670123,0.6887474589953063,0.430524346879138
-4713.592910766602,1320.0,-208.0,16552.0,78.0,32.0,-63.0,0.06297042085145868,-0.5849290572600361,0.6885991514176438,0.42393859548002494
-4713.608514547348,1300.0,-140.0,16528.0,106.0,249.0,-113.0,0.05758385538943486,-0.6001369352961835,0.687874485287844,0.4041638912394043
-4713.6240746974945,1216.0,-180.0,16424.0,71.0,-52.0,-104.0,0.06809557928120519,-0.6041285057799649,0.6846016568933848,0.4021346938094949
-4713.639647960663,1260.0,-220.0,16520.0,63.0,-45.0,-89.0,0.07723444387494414,-0.6074418761480904,0.6817965743117737,0.4002532186475784
-4713.6552312374115,1352.0,-136.0,16536.0,73.0,-238.0,-66.0,0.09755960137088962,-0.6023901535682674,0.6790515726307838,0.4080406704876508
-4713.67084646225,1336.0,-184.0,16816.0,66.0,46.0,-53.0,0.10019924488759599,-0.6065668569772384,0.6789628924759971,0.4013055568782191
-4713.686446428299,1380.0,-272.0,16564.0,98.0,55.0,-22.0,0.10290611920861521,-0.6088908266381221,0.6816587210743028,0.3924330259403667
-4713.702033996582,1228.0,-216.0,16612.0,120.0,45.0,-22.0,0.10736637105209802,-0.6106058222621233,0.6849415119689811,0.3827376612881799
-4713.717633724213,1336.0,-140.0,16508.0,70.0,40.0,-46.0,0.11025209172312547,-0.6139986928733487,0.685162903975025,0.3760344085811899
-4713.733230352402,1360.0,-84.0,16416.0,69.0,31.0,-109.0,0.1156796285065339,-0.6208126460428064,0.681821059970449,0.36922882368890536
-4713.748850822449,1404.0,-24.0,16540.0,60.0,96.0,-110.0,0.11676553517894873,-0.6297714859230975,0.6786823695059705,0.3593660065091698
-4713.764481306076,1364.0,-192.0,16556.0,55.0,117.0,-164.0,0.11799746372118561,-0.6424750273192665,0.6724571778809898,0.3479996864119421
-4713.780077934265,1296.0,-228.0,16428.0,26.0,56.0,-132.0,0.12018398965388664,-0.6515892577814976,0.6663521296043916,0.3419972034188641
-4713.795692443848,1204.0,-332.0,16476.0,65.0,-7.0,-184.0,0.12977931755674615,-0.6612906318118257,0.6576433098794648,0.33668576742001394
-4713.8113052845,1312.0,-488.0,16600.0,67.0,17.0,-163.0,0.1374638491725854,-0.6702944978301624,0.6503038670121541,0.33002099463262263
-4713.826889753342,1356.0,-140.0,16432.0,106.0,114.0,-181.0,0.14239658470039682,-0.6824192957485548,0.6439820061714837,0.3151417033384509
-4713.842457771301,1384.0,-112.0,16560.0,88.0,154.0,-150.0,0.14309783772551057,-0.6938384964534973,0.6392383641752915,0.2991412098724131
-4713.858021736145,1344.0,-504.0,16516.0,29.0,148.0,-206.0,0.14196068558002845,-0.7086486383540198,0.6292000555836675,0.2859572715671903
-4713.87361240387,1528.0,-348.0,16408.0,48.0,157.0,-188.0,0.14098587652388775,-0.7221167721571927,0.6205571305128135,0.27125485757820267
-4713.889196395874,1236.0,-152.0,16524.0,64.0,114.0,-174.0,0.14295889839220752,-0.7333115223439802,0.6123879018776166,0.25845313347292
-4713.904767751694,1228.0,-144.0,16416.0,60.0,156.0,-184.0,0.14259825621862332,-0.7457334726766531,0.6037597187698273,0.24294346470733974
-4713.92042183876,1156.0,-136.0,16492.0,53.0,65.0,-222.0,0.14731958120077984,-0.7579810614454289,0.5911067960084772,0.2331403165423779
-4713.936091899872,1096.0,-204.0,16356.0,74.0,70.0,-170.0,0.15206277436894172,-0.7671026553420242,0.5821704102833989,0.2225040273992699
-4713.951712608337,1076.0,-208.0,16324.0,123.0,-10.0,-146.0,0.16364323847453302,-0.7725793546424055,0.574563199384034,0.2149864209560091
-4713.967343330383,1052.0,-224.0,16476.0,110.0,3.0,-211.0,0.1748583110362741,-0.7814700585403959,0.5623119469643214,0.2062386796107995
-4713.983816146851,1528.0,-264.0,16600.0,78.0,87.0,-200.0,0.1794983873951436,-0.7914934150904203,0.551281425805703,0.19340964906818361
-4713.999589443207,1256.0,-308.0,16404.0,91.0,158.0,-194.0,0.1814360883160216,-0.801847020713747,0.5417370059119413,0.17505232833251239
-4714.015268802643,1032.0,-264.0,16588.0,76.0,199.0,-185.0,0.1801455915354595,-0.8121796489604102,0.5329335347192791,0.15457564891178407
-4714.030866861343,1268.0,-236.0,16632.0,31.0,205.0,-199.0,0.17546375948629983,-0.8234512424433243,0.522297538993986,0.13544667285062809
-4714.046457767487,1220.0,-160.0,16572.0,36.0,159.0,-3.0,0.17084672135637366,-0.824827717618186,0.5248856550178675,0.12233430919826101
-4714.062048912048,1172.0,-248.0,16472.0,50.0,159.0,-284.0,0.17015026560609825,-0.838441770462128,0.5071285897583554,0.10433061922661184
-4714.077649593353,1112.0,-508.0,16380.0,28.0,71.0,-309.0,0.17183175091804065,-0.8520185842050301,0.48563058005413334,0.09327980093236822
-4714.093289375305,1096.0,-64.0,16608.0,78.0,108.0,-286.0,0.1753430129544674,-0.8635205592446875,0.46643374093931783,0.07763141685648028
-4714.108876466751,1068.0,-284.0,16428.0,79.0,60.0,-332.0,0.18104977404478373,-0.875831035158179,0.4426550791314275,0.06478779276402993
-4714.124493598938,1072.0,-232.0,16444.0,73.0,52.0,-328.0,0.18642304926892914,-0.8872503774581074,0.41862453490859586,0.052789328223443156
-4714.140086889267,1080.0,-236.0,16520.0,33.0,-25.0,-331.0,0.19136622005648452,-0.898308421624013,0.39256312703323665,0.04811590957837543
-4714.155701637268,1108.0,-296.0,16840.0,35.0,-9.0,-274.0,0.19554385168178398,-0.9068064338994593,0.3709618611739921,0.04303476574033851
-4714.171308517456,1180.0,-308.0,16632.0,11.0,-42.0,-268.0,0.198757016467104,-0.9148771571252121,0.3489699069952376,0.04141786797169217
-4714.186897754669,1152.0,-384.0,16592.0,-240.0,-253.0,-337.0,0.18837898601029493,-0.9275564311410109,0.316511306163846,0.06303187883238359
-4714.202459812164,1104.0,-276.0,16572.0,30.0,-242.0,-495.0,0.2000167375067677,-0.9383144061848137,0.27229720451387585,0.07357725380250367
-4714.218042612076,1096.0,-316.0,16556.0,45.0,15.0,-270.0,0.2050544725527922,-0.9437660534396648,0.25065743068902785,0.06655187526577314
-4714.233605146408,1060.0,-276.0,16436.0,28.0,38.0,-274.0,0.20809401222311405,-0.9491945482380286,0.22885604542347016,0.05789215961787682
-4714.249185323715,1112.0,-292.0,16500.0,-19.0,6.0,-339.0,0.20805590056351003,-0.9559156041208448,0.20068832318854615,0.05159745124283521
-4714.264785766602,1072.0,-316.0,16504.0,-11.0,255.0,-302.0,0.203944061326894,-0.9619749188033746,0.1799593494751587,0.025014155576604986
-4714.280358314514,1072.0,-492.0,16612.0,30.0,-36.0,-320.0,0.20767968297493242,-0.9659973287821079,0.1524483985222063,0.02185854188362611
-4714.296107292175,1112.0,-276.0,16692.0,38.0,33.0,-282.0,0.21095159943604494,-0.968814210739006,0.12929622160474405,0.013451202335416794
-4714.311751842499,1108.0,-316.0,16416.0,79.0,5.0,-269.0,0.21786234429117485,-0.9701032373985332,0.10669674215148016,0.007177251779005872
-4714.3273367881775,1032.0,-312.0,16420.0,37.0,-33.0,-279.0,0.2214467389403106,-0.9716721290700298,0.08243780262036869,0.004315564892618151
-4714.342901229858,1076.0,-368.0,16516.0,22.0,-100.0,-259.0,0.22410138628236378,-0.9727770950714097,0.0585247256745038,0.007625513456565722
-4714.358461141586,1204.0,-4.0,16588.0,-246.0,-49.0,-297.0,0.20357877868902846,-0.9785035270094431,0.032161161624852774,0.007224138737853799
-4714.374068975449,1036.0,-284.0,16488.0,-9.0,-33.0,-353.0,0.20306256801534894,-0.9791574118380588,0.0014142489347953888,0.0037889594292171585
-4714.3896408081055,944.0,-348.0,16532.0,5.0,-32.0,-321.0,0.2035543186924185,-0.9787024485821121,-0.026579492267693645,0.0008288979642842335
-4714.405206918716,984.0,-356.0,16520.0,-255.0,-53.0,-322.0,0.1815852153572907,-0.9818346271219089,-0.055015014960733445,-0.0009605607208230716
-4714.420780658722,984.0,-284.0,16488.0,11.0,-90.0,-277.0,0.18204510136453975,-0.9800144681706113,-0.08015870510317077,0.002409406904483718
-4714.436364889145,800.0,-356.0,16444.0,9.0,-77.0,-227.0,0.1823159733844481,-0.9780464642869899,-0.10077858183825028,0.0054476588797475025
-4714.451994895935,1020.0,-376.0,16540.0,-3.0,-103.0,-198.0,0.18124571359441466,-0.9761120642711459,-0.11930193683093165,0.011057900178697538
-4714.467586278915,1012.0,-356.0,16552.0,34.0,-143.0,-171.0,0.18281529494832952,-0.973460649009842,-0.13607636104533488,0.020884365610480373
-4714.483186721802,1028.0,-364.0,16576.0,19.0,-165.0,-72.0,0.1826108092286464,-0.9718739364011038,-0.14477542835214102,0.03397674855745182
-4714.4987959861755,1068.0,-352.0,16612.0,28.0,-89.0,-135.0,0.1842754623716312,-0.9693517940680484,-0.15754846168957914,0.0397257539138604
-4714.514415025711,1068.0,-312.0,16408.0,35.0,-40.0,-123.0,0.18713337182749562,-0.9668858958128768,-0.16846727306141626,0.041611819641218614
-4714.529999256134,1256.0,-364.0,16540.0,-13.0,-31.0,-156.0,0.18616235070237733,-0.9645913365971135,-0.1821704569498611,0.04148562591353623
-4714.545569419861,1080.0,-388.0,16512.0,255.0,-24.0,-125.0,0.2076744123454155,-0.9580688762488838,-0.1921027913387425,0.04551795667701841
-4714.56117105484,1028.0,-324.0,16480.0,54.0,-73.0,-89.0,0.21134369040729276,-0.9552403822406793,-0.20064230356000895,0.05091485720141636
-4714.576788902283,972.0,-376.0,16648.0,23.0,-139.0,-50.0,0.21106865836021163,-0.9532329272609513,-0.2072556311663701,0.06198476581683165
-4714.592349767685,980.0,-416.0,16400.0,85.0,-76.0,31.0,0.21662500762620235,-0.9517569694844465,-0.20560476906433783,0.07041985548643477
-4714.607954263687,1072.0,-348.0,16584.0,119.0,-33.0,15.0,0.2258523223765872,-0.9495075750732948,-0.20423827966827185,0.07558318909439098
-4714.623522043228,992.0,-328.0,16608.0,79.0,-34.0,40.0,0.2315618841602324,-0.948396224125047,-0.2010641133628841,0.08060346262484004
-4714.639084815979,1052.0,-316.0,16612.0,81.0,-64.0,36.0,0.23692089589357207,-0.9468865961681955,-0.19879753548620968,0.08805568108080904
-4714.6546676158905,1048.0,-304.0,16508.0,62.0,-76.0,-47.0,0.24111846511982504,-0.9441506408097597,-0.20376765926489215,0.09444678011709408
-4714.670255184174,1088.0,-448.0,16472.0,55.0,-49.0,6.0,0.24476803327031516,-0.942664131310627,-0.20384584619761978,0.09959827517251178
-4714.685828208923,1028.0,-416.0,16388.0,69.0,-83.0,-252.0,0.25113118003716317,-0.9357034786546429,-0.2256906754835823,0.10225384807676596
-4714.7014009952545,1104.0,-360.0,16472.0,132.0,-54.0,47.0,0.2604513336161456,-0.9331602424774937,-0.22183661734568333,0.11029768756207525
-4714.716985940933,1072.0,-388.0,16456.0,143.0,-111.0,245.0,0.2675425117617845,-0.9332403604498188,-0.20295230741610726,0.127647150152932
-4714.732557058334,1120.0,-36.0,16380.0,96.0,-148.0,-3.0,0.27278733901061347,-0.9291705883233449,-0.205557674145648,0.1413333933300595
-4714.748112916946,1172.0,-196.0,16484.0,124.0,-91.0,56.0,0.28053932294539013,-0.9259888139161182,-0.2016302920658606,0.15227485053349563
-4714.763732910156,1328.0,-224.0,16424.0,127.0,-10.0,104.0,0.289265095546006,-0.9244631245402012,-0.19175901959573782,0.1578673945683842
-4714.779308319092,1244.0,-324.0,16728.0,74.0,253.0,-33.0,0.29989608984703936,-0.9252611560262326,-0.1869619498054505,0.13783815788235254
-4714.794891119003,1528.0,-308.0,16632.0,19.0,-255.0,235.0,0.29435778457096745,-0.9250868624675171,-0.17434694035444104,0.16483608810427952
-4714.810467243195,1152.0,-344.0,16436.0,67.0,-65.0,-248.0,0.302317314870079,-0.9183897080370496,-0.19502672859301673,0.16470932103458494
-4714.826039791107,1184.0,-412.0,16328.0,78.0,-68.0,-19.0,0.30772539109583646,-0.9149703993570105,-0.19721272942947182,0.17100114422530907
-4714.841610431671,1228.0,-408.0,16444.0,122.0,-84.0,255.0,0.3121668135152314,-0.9145041130815096,-0.17721980772052512,0.18662059759910854
-4714.857181549072,1260.0,-300.0,16400.0,84.0,-42.0,-67.0,0.3193514432529405,-0.9104248804531356,-0.18233353321288612,0.18946154071542495
-4714.872794389725,1180.0,-280.0,16632.0,103.0,-79.0,-52.0,0.32716975258715253,-0.905327337675017,-0.1869488138542538,0.19594005626419184
-4714.888355016708,1148.0,-288.0,16432.0,90.0,-142.0,-53.0,0.33288759853115085,-0.8993307991840316,-0.19362792035766474,0.2071187795472452
-4714.903957128525,1140.0,-332.0,16500.0,105.0,-187.0,-98.0,0.3397263164092921,-0.8910257353395192,-0.20481063607766598,0.22070743587633065
-4714.919589281082,1228.0,-376.0,16508.0,100.0,-195.0,-33.0,0.3446472229536201,-0.8835182686542112,-0.21119054031962156,0.2366692129199086
-4714.935249090195,1256.0,-356.0,16588.0,155.0,-172.0,-56.0,0.35456953760805215,-0.8740483871866604,-0.21743076367515204,0.25108509088444475
-4714.9508147239685,1204.0,-388.0,16556.0,152.0,-88.0,-72.0,0.3660846758798482,-0.8658951554521767,-0.22228084330250716,0.2584546702056736
-4714.9664623737335,1212.0,-304.0,16648.0,180.0,-79.0,-67.0,0.379668161345946,-0.8568831191278368,-0.22576570741189106,0.2657691719721206
-4714.982132196426,1164.0,-4.0,16576.0,203.0,-50.0,-39.0,0.3947661941439099,-0.8480417134922155,-0.22558460116788492,0.2722067079523323
-4714.997741937637,1180.0,-292.0,16576.0,234.0,-255.0,-122.0,0.4098214095056396,-0.8310469431047607,-0.23771369659677227,0.29137534061299936
-4715.013374567032,1156.0,-184.0,16564.0,217.0,6.0,-62.0,0.427249490964889,-0.821943756755821,-0.23642203704537376,0.2932080380884651
-4715.028961420059,1240.0,-216.0,16488.0,202.0,52.0,-28.0,0.4435282299915592,-0.8149758923473452,-0.2312724935979386,0.2925919305076516
-4715.044545888901,1204.0,-484.0,16552.0,144.0,75.0,-56.0,0.45673943028577957,-0.8100418781998276,-0.22863877399862576,0.2880027072947792
-4715.060119152069,1196.0,-220.0,16196.0,76.0,80.0,246.0,0.45747371111458685,-0.8136540377986726,-0.20607581301975553,0.29362845519671693
-4715.075747013092,1164.0,-224.0,16512.0,65.0,83.0,-19.0,0.4641249558893449,-0.8127539084143953,-0.20242644917720978,0.28817120319585177
-4715.091327905655,1140.0,-208.0,16180.0,39.0,2.0,-85.0,0.46912543806886153,-0.8096399475460324,-0.20737876113233653,0.285304272883485
-4715.106878995895,1216.0,-184.0,16512.0,7.0,-12.0,-184.0,0.4740004078201077,-0.8055633911401308,-0.22066213643215093,0.2787462247033726
-4715.122478485107,1052.0,-92.0,16576.0,-24.0,-33.0,-296.0,0.47879333787605804,-0.799724478875737,-0.24333260173235033,0.268303824845266
-4715.138040781021,1432.0,-68.0,16564.0,-36.0,-57.0,-459.0,0.48549979063399573,-0.7894421477239488,-0.2783619245999706,0.25216202653124736
-4715.153610706329,1492.0,-108.0,16516.0,68.0,-27.0,-459.0,0.4993016684591427,-0.7741204383171767,-0.3093724714994617,0.23605945168930126
-4715.169179439545,1392.0,-312.0,16580.0,189.0,-6.0,-396.0,0.5197715798592885,-0.7544540924610126,-0.33223854140744774,0.22417421516057745
-4715.184764862061,1452.0,-500.0,16688.0,242.0,57.0,-179.0,0.5407566200405328,-0.7390730356767209,-0.3365645114350775,0.21926617491168815
-4715.2003581523895,1344.0,-364.0,16764.0,310.0,44.0,-256.0,0.5666824293706848,-0.7172489888792396,-0.3448317662035639,0.2133447098270263
-4715.215980052948,1236.0,-204.0,16516.0,296.0,188.0,111.0,0.5885927492588761,-0.7090144733162219,-0.3228758725349966,0.2158893769567244
-4715.231539487839,1176.0,160.0,16512.0,200.0,315.0,77.0,0.6081528045937816,-0.7063804421124391,-0.29796409950040376,0.2058985980395833
-4715.247118234634,1220.0,240.0,16520.0,63.0,412.0,41.0,0.6216952068375405,-0.7109543799992585,-0.2722235027586152,0.1842099451737831
-4715.262678146362,1188.0,8.0,16596.0,-43.0,536.0,-58.0,0.6320887028256197,-0.7196464853448262,-0.24712635668322905,0.1466334604499868
-4715.278241157532,1228.0,4.0,16432.0,-104.0,524.0,-85.0,0.6373353014866301,-0.729364383300263,-0.22461304557149173,0.10667844023546766
-4715.29381108284,1204.0,56.0,16556.0,-174.0,388.0,-90.0,0.6343452404561829,-0.7402802172552948,-0.21020753692305535,0.07351263341618991
-4715.3093984127045,1332.0,64.0,16284.0,-1.0,153.0,-157.0,0.6380764116572143,-0.7382212732721025,-0.21183272368767314,0.05490666398745148
-4715.324981927872,1448.0,72.0,16300.0,-314.0,4.0,-229.0,0.6187576473678577,-0.7509853270755872,-0.2277262109822323,0.036066399496526395
-4715.340566635132,1648.0,72.0,16280.0,-340.0,-106.0,-293.0,0.5949004146459883,-0.7625019109089347,-0.2535108801091036,0.02040995297793505
-4715.356150388718,1708.0,44.0,16336.0,-403.0,-212.0,-309.0,0.5633815063288425,-0.7752556297018579,-0.2854627900185925,0.009538472467922185
-4715.371778011322,2028.0,100.0,16484.0,-337.0,-128.0,-322.0,0.5372669761328125,-0.7829443423221452,-0.31353772820448716,-0.006037066772572683
-4715.387372255325,1740.0,-112.0,16608.0,-332.0,-101.0,-214.0,0.5114635187733867,-0.7921584342839935,-0.3325008384420135,-0.018255859115243685
-4715.402957201004,1644.0,-252.0,16472.0,-306.0,-56.0,-179.0,0.48823827260361113,-0.800275516817125,-0.3467070188173277,-0.031252671100666665
-4715.418572425842,1600.0,-320.0,16480.0,-317.0,-45.0,-14.0,0.4645929848237019,-0.8131254670441768,-0.348588082177446,-0.03829728790192481
-4715.43416595459,1676.0,-312.0,16136.0,-364.0,62.0,303.0,0.44135068403181055,-0.8361367163734119,-0.3230568063318458,-0.04146402199027164
-4715.449767112732,1744.0,-148.0,16452.0,-466.0,26.0,264.0,0.40865340500082525,-0.8604660209896833,-0.3007610850134271,-0.046296771431275405
-4715.465354681015,1656.0,-300.0,16364.0,-576.0,45.0,214.0,0.3669739595927347,-0.8851430624401467,-0.28034198857927534,-0.05709852392423236
-4715.480938911438,1536.0,-536.0,16400.0,-752.0,74.0,329.0,0.3115783799069446,-0.9145300962586576,-0.24815593734659025,-0.07051416149490515
-4715.4965126514435,1384.0,-696.0,16644.0,-995.0,-22.0,328.0,0.23277064157841637,-0.9448742169372822,-0.2155416200957829,-0.08107004744549783
-4715.512089014053,1524.0,-588.0,16660.0,-1079.0,112.0,324.0,0.1474961447901041,-0.9673813131667796,-0.17803714067481144,-0.10354254559412503
-4715.527713298798,1452.0,-264.0,16792.0,-1159.0,215.0,132.0,0.05389446862942588,-0.9771831772332609,-0.15282861221883168,-0.13730200169963855
-4715.543298482895,1140.0,-336.0,16856.0,-1242.0,332.0,-128.0,-0.04883626488786891,-0.9711778963241671,-0.14637038524721702,-0.181670644975319
-4715.5588755607605,1152.0,-384.0,16872.0,-1390.0,379.0,-413.0,-0.16696809957599437,-0.9458941999858052,-0.15959362880854305,-0.22789403195545802
-4715.574480056763,1224.0,-668.0,16572.0,-1499.0,154.0,-720.0,-0.299773760785542,-0.9014046478054649,-0.18946082497897812,-0.24841487285885913
-4715.590059995651,1332.0,-964.0,16568.0,-1579.0,-30.0,-861.0,-0.43786299543584545,-0.836218341524645,-0.21948516488780634,-0.24665997835054904
-4715.605646848679,1376.0,-1372.0,16528.0,-1458.0,-112.0,-873.0,-0.55914669871054,-0.7577972957752728,-0.24482749269516746,-0.23055959458974173
-4715.621233701706,1208.0,-1552.0,16776.0,-1246.0,-89.0,-868.0,-0.6552625189076798,-0.6742328056994037,-0.2704221955281445,-0.20715451044862743
-4715.636848211288,972.0,-1524.0,16868.0,-1056.0,-93.0,-889.0,-0.7304609349403614,-0.5901463271928917,-0.29613519711044717,-0.17452243425746303
-4715.65243434906,792.0,-1304.0,16804.0,-1047.0,-67.0,-863.0,-0.7938044563723059,-0.49849380173917435,-0.3180806320676909,-0.14213770145359245
-4715.668054819107,1252.0,-1728.0,16676.0,-1042.0,-108.0,-597.0,-0.8449755663745904,-0.40867223206950215,-0.321782349031124,-0.12433591121346653
-4715.683660268784,1492.0,-1976.0,16700.0,-1267.0,-175.0,-295.0,-0.8925364682916845,-0.3066877311746,-0.30354476590668966,-0.13107960713641253
-4715.699239015579,1700.0,-2068.0,16756.0,-947.0,-193.0,76.0,-0.9189307312703462,-0.23613526477195143,-0.2745032319961856,-0.1563791018060765
-4715.714816093445,1796.0,-2408.0,16812.0,-878.0,-229.0,437.0,-0.9330258948931195,-0.17845861571757526,-0.234057415675143,-0.20695972579836341
-4715.73041343689,1872.0,-2260.0,16128.0,-802.0,-2.0,605.0,-0.9311239004889496,-0.12489924459273231,-0.20896733381472127,-0.27155315140277175
-4715.746010541916,1464.0,-1852.0,15828.0,-825.0,-247.0,692.0,-0.9239865427877298,-0.07582415994828814,-0.16080643171077025,-0.33858655767139445
-4715.761597156525,1220.0,-2208.0,15716.0,-734.0,-214.0,1052.0,-0.8950503584215042,-0.037326936100909265,-0.11390023539409928,-0.4295559243079115
-4715.777195453644,1040.0,-2180.0,15476.0,-684.0,-269.0,1294.0,-0.8443716383756236,-0.006646765857699156,-0.06222092960061043,-0.532091075597152
-4715.79278755188,904.0,-1968.0,15612.0,-646.0,-406.0,1388.0,-0.7751321852347,0.014541448001299659,-0.0011832385269269846,-0.6316306212098118
-4715.808375835419,1188.0,-1864.0,15424.0,-585.0,-433.0,1534.0,-0.68241961035011,0.029799025089625168,0.0580972612224065,-0.7280385990809604
-4715.824003458023,1360.0,-1652.0,15752.0,-557.0,-413.0,1034.0,-0.6096130222649654,0.04141967394167523,0.11482882935750757,-0.78324371280204
-4715.839601516724,1724.0,-1672.0,16000.0,-443.0,-275.0,726.0,-0.5539907820361147,0.0530545722407914,0.15644379394079744,-0.8159686054749717
-4715.855219841003,1764.0,-1804.0,16156.0,-237.0,-173.0,478.0,-0.5159201040303633,0.05845155814763212,0.17902054170349224,-0.835680266163801
-4715.870834350586,1772.0,-2508.0,16180.0,-66.0,-115.0,493.0,-0.4774026385333781,0.0604957688230069,0.18606916362687664,-0.856624333662707
-4715.886442422867,1924.0,-2768.0,15980.0,61.0,-175.0,602.0,-0.4292748251472001,0.054367364435887036,0.18511061492230568,-0.8823272490534463
-4715.902022600174,2188.0,-2712.0,15844.0,95.0,-247.0,1034.0,-0.34466800700753214,0.048069730345704935,0.18114021393926602,-0.919826879833365
-4715.9176371097565,2064.0,-2400.0,15532.0,138.0,-293.0,1340.0,-0.23141743498138193,0.0410726205453089,0.17179214253149386,-0.9566851469488892
-4715.933354377747,2360.0,-2544.0,15320.0,64.0,-285.0,1282.0,-0.11959440410869052,0.0347303427393383,0.16632597737687466,-0.978175163786488
-4715.94896197319,2340.0,-2404.0,14984.0,27.0,-320.0,1725.0,0.03181947725345808,0.031553055815562225,0.16007546200352205,-0.9860871016296561
-4715.964565992355,2568.0,-2620.0,14940.0,4.0,-367.0,1949.0,0.20162994467959108,0.026546115182166256,0.1509314610435343,-0.9673987612378384
-4715.980250835419,2972.0,-2864.0,15216.0,179.0,-591.0,2114.0,0.3804819791546385,0.007234032050899982,0.11820156468305279,-0.9171747502113945
-4715.995915412903,3204.0,-3308.0,15624.0,484.0,-867.0,2190.0,0.552348441897483,-0.023292649357920032,0.048115221427044906,-0.8318975758387196
-4716.011516332626,3372.0,-2944.0,16000.0,729.0,-1095.0,2165.0,0.6987013139563437,-0.05748632716392897,-0.05201359225395337,-0.7112006624615306
-4716.027105093002,3500.0,-2508.0,15956.0,973.0,-1232.0,2023.0,0.8037332460582993,-0.0820821506559713,-0.17297544758329322,-0.5633425993635126
-4716.042686700821,3652.0,-2140.0,15688.0,1169.0,-1361.0,1967.0,0.8653069364422868,-0.09427805249785039,-0.3034558862562101,-0.3876468491533691
-4716.0582728385925,3476.0,-2268.0,15384.0,1458.0,-1347.0,2004.0,0.8831782069636014,-0.08043632138512599,-0.4250828027315362,-0.18119289105395056
-4716.073877096176,3220.0,-2536.0,15152.0,1639.0,-1381.0,2299.0,0.8485773106368976,-0.05906485566247825,-0.521832306958218,0.06417892264976935
-4716.089492082596,3032.0,-2776.0,15272.0,1734.0,-1375.0,2546.0,0.7489511295324865,-0.03732117415863984,-0.5762026093652693,0.32506905188296187
-4716.1050617694855,2604.0,-2748.0,15424.0,1738.0,-1535.0,2871.0,0.5673379080389679,-0.023366179768072676,-0.5879702494854013,0.5760839396000278
-4716.120656013489,2568.0,-2208.0,15488.0,1616.0,-1205.0,3138.0,0.3338270093901207,-0.04163425490528228,-0.5323209055380868,0.7768272460124204
-4716.136241197586,3188.0,-1544.0,15464.0,1380.0,-1161.0,3089.0,0.07206881662764056,-0.06317257753851678,-0.4402154713308603,0.8927629304120889
-4716.151844263077,3156.0,-1788.0,15748.0,1381.0,-1167.0,3574.0,-0.22997492862402721,-0.09514042014562836,-0.30210186383334564,0.9202142666397353
-4716.167432546616,3268.0,-1808.0,16372.0,1532.0,-1273.0,3805.0,-0.5210033997800919,-0.11593357628295135,-0.11395088897955581,0.8379320128796847
-4716.183095216751,3652.0,-2224.0,16652.0,1429.0,-670.0,3770.0,-0.7430631799584548,-0.15929379576463729,0.055846759732243914,0.6475829959536709
-4716.198681116104,3924.0,-2364.0,16780.0,1692.0,-102.0,3518.0,-0.8688667183457266,-0.23266600327059736,0.19592524500474442,0.39057707951574056
-4716.214237451553,4080.0,-2472.0,16564.0,1796.0,616.0,3062.0,-0.9037872583782215,-0.32172238144802534,0.25999439683917663,0.10984632210876231
-4716.229835510254,3520.0,-2428.0,16592.0,2484.0,1160.0,2922.0,-0.838683199458047,-0.43637162326457646,0.25890730013549723,-0.19788205399378642
-4716.245406627655,2884.0,-2228.0,15900.0,2767.0,1439.0,3025.0,-0.6672862630824278,-0.5100905729740836,0.2065843280474205,-0.5018561206856561
-4716.2609922885895,2344.0,-2088.0,15856.0,2890.0,1526.0,3394.0,-0.3861361510267311,-0.508848138055006,0.1315000061278824,-0.758076641017636
-4716.276579618454,1436.0,-2004.0,16224.0,2938.0,1977.0,3387.0,-0.04987217363122479,-0.40269541297617667,0.01919287239026691,-0.9137728406527819
-4716.292182683945,828.0,-1164.0,17256.0,2925.0,2211.0,3000.0,0.2666096633660507,-0.21607293000659714,-0.10928753737875366,-0.9328922823627028
-4716.307802915573,-500.0,160.0,18288.0,2728.0,1859.0,2196.0,0.48629871322188045,-0.0207115918820271,-0.23304644347708914,-0.8418871341594047
-4716.323410511017,-1460.0,1752.0,20472.0,2180.0,1619.0,1532.0,0.613458458337225,0.15410977136917953,-0.31019407765804013,-0.709717220059463
-4716.338978290558,-2904.0,3500.0,23812.0,1214.0,1991.0,-72.0,0.6336138260169444,0.3374249951708249,-0.27199179200795554,-0.6408575170772668
-4716.35461306572,-492.0,4092.0,24572.0,43.0,1375.0,-588.0,0.6268539609446745,0.4268850768602511,-0.17937425904694895,-0.6266164041846879
-4716.370203256607,3280.0,1688.0,20644.0,-779.0,1678.0,-1710.0,0.5749812617164185,0.4908886360232733,0.018363066914264578,-0.6542841076105304
-4716.385815143585,3812.0,-4776.0,16796.0,654.0,3011.0,-2472.0,0.3791232909398723,0.653786803034583,0.22506767764731558,-0.6149576301853521
-4716.401409626007,3792.0,-6276.0,17704.0,2181.0,3878.0,-2006.0,0.06513975370406225,0.8230790634103152,0.3227520909114839,-0.4627404841541723
-4716.416990995407,2480.0,-5168.0,17812.0,2578.0,4155.0,-1081.0,-0.257328136846674,0.8934530313492295,0.29313008318449546,-0.2227075775364254
-4716.432573318481,1352.0,-3472.0,17444.0,2448.0,4399.0,-207.0,-0.5170925892707344,0.8409114375279636,0.1490793816409534,0.05708367827577457
-4716.448144674301,788.0,-2124.0,17340.0,2058.0,4001.0,590.0,-0.6724092987543442,0.6839767783045966,-0.06004441708322309,0.2764709201089538
-4716.463748931885,632.0,-536.0,17732.0,1842.0,3390.0,806.0,-0.7414840492747786,0.46305185807518684,-0.24838053069168475,0.41724272717150107
-4716.479328393936,624.0,1128.0,17668.0,1657.0,2904.0,65.0,-0.7179729131787457,0.23851866606060904,-0.3633526073479113,0.543689823903085
-4716.494925498962,176.0,1936.0,17160.0,1512.0,2701.0,-1010.0,-0.5924693677560984,0.04568295847042909,-0.42291464194725087,0.6841318010461922
-4716.5105056762695,-420.0,2392.0,17708.0,1348.0,2746.0,-1595.0,-0.38426425746980647,-0.12369007435152023,-0.45756394875391687,0.7922606760017922
-4716.526073694229,-424.0,1816.0,17784.0,1266.0,2887.0,-1510.0,-0.14435456819221607,-0.29217020628756135,-0.4619432909038347,0.8248677016278779
-4716.541645288467,-1028.0,712.0,17952.0,1469.0,3028.0,-1067.0,0.0879266394145022,-0.4640683629977616,-0.4027058756507346,0.7840519359469912
-4716.557215929031,-1748.0,-240.0,17864.0,1769.0,2714.0,-189.0,0.25778935037525463,-0.6056657051901998,-0.25820222477376953,0.7071388233659909
-4716.572796344757,-2332.0,-584.0,18120.0,1902.0,2494.0,648.0,0.3607596969635303,-0.7043017255595031,-0.04849922903646855,0.6094746468915312
-4716.58838224411,-3172.0,-44.0,17692.0,1827.0,2294.0,1109.0,0.40881002726622057,-0.7459714459203973,0.18243445121804205,0.49307061815402853
-4716.6039934158325,-3172.0,1308.0,16856.0,1529.0,2193.0,1101.0,0.41316651624848444,-0.7448310524355052,0.3860899991278019,0.35419577319951523
-4716.619590759277,-2636.0,2640.0,15904.0,1482.0,2141.0,940.0,0.3969362072810804,-0.7055389002971745,0.5542857252843777,0.19345242893987247
-4716.635217905045,-2608.0,3544.0,14716.0,1625.0,1867.0,1079.0,0.37815573280117015,-0.6117574634167853,0.6938547044228495,0.03628631772102204
-4716.650802850723,-2680.0,3784.0,13876.0,1648.0,1452.0,1604.0,0.363099839063551,-0.45220678276161735,0.810136794306685,-0.08570826685273125
-4716.666421413422,-3016.0,3392.0,13280.0,1473.0,968.0,1916.0,0.3580569327318222,-0.25621909137036963,0.8829030217579832,-0.16318475514166011
-4716.682039499283,-3204.0,2572.0,13296.0,1526.0,780.0,2264.0,0.3536885716558816,-0.022227017058677905,0.9086572010901016,-0.22079955819656483
-4716.697634935379,-3268.0,2072.0,13580.0,1350.0,766.0,2554.0,0.3336801888469186,0.22914399932078328,0.8816937550361775,-0.24241840168717962
-4716.713211774826,-3180.0,1576.0,14588.0,1411.0,25.0,2532.0,0.3462694459172061,0.4514211360868011,0.7773742901997898,-0.26833866969683295
-4716.728787660599,-3128.0,2092.0,14852.0,1454.0,-401.0,2011.0,0.35491851633000426,0.6079626913433795,0.6367553408148198,-0.3145740749718984
-4716.744368314743,-2824.0,2844.0,14752.0,1543.0,-531.0,1201.0,0.33047093319340687,0.6970958649055071,0.5062929279168765,-0.3853748676124043
-4716.75998711586,-2616.0,3276.0,14628.0,1754.0,-980.0,694.0,0.285592454971949,0.7328476110786255,0.3704178570079447,-0.49412745300083133
-4716.775563716888,-2404.0,3560.0,14648.0,1733.0,-990.0,511.0,0.2252339034577396,0.7379732583295185,0.2344870869419681,-0.5913382828645318
-4716.791118860245,-2088.0,3316.0,15124.0,1565.0,-1060.0,440.0,0.16650906034929297,0.7127937200555623,0.10300587813015105,-0.6734906343384327
-4716.806701660156,-1664.0,2920.0,15224.0,1345.0,-862.0,568.0,0.12267214811896288,0.679266770433534,-0.02371257436039792,-0.7231776493212982
-4716.822281837463,-1748.0,2664.0,15476.0,1272.0,-523.0,873.0,0.10030271117434693,0.6513882354674746,-0.15977988029504558,-0.7349170855807794
-4716.837862491608,-1956.0,2376.0,15580.0,662.0,-506.0,804.0,0.10666405798105201,0.6102735561845998,-0.251096126629521,-0.7437336220371301
-4716.853443861008,-1980.0,2524.0,15488.0,385.0,-978.0,195.0,0.07706745281936844,0.5436000945749628,-0.2942632949419171,-0.7822842566126152
-4716.869026422501,-1628.0,2776.0,15288.0,173.0,-1473.0,-538.0,-0.0056394922338710235,0.45357410508301677,-0.28768014223093535,-0.8434920646286325
-4716.884700536728,-912.0,2972.0,15480.0,194.0,-1775.0,-1037.0,-0.13209584914793404,0.3431304993935258,-0.25583406915014073,-0.8940699503315815
-4716.900282621384,-576.0,2892.0,16368.0,273.0,-1872.0,-1448.0,-0.28888338581440665,0.22128791137341722,-0.20764329621425429,-0.9079990700533095
-4716.915942907333,-512.0,2628.0,16368.0,8.0,-2118.0,-1901.0,-0.46396505216623973,0.08486533301562199,-0.11454352416609366,-0.8743077757243943
-4716.931639909744,-528.0,2536.0,15656.0,-478.0,-2466.0,-2062.0,-0.6179989973114829,-0.06121546630810037,0.03574159388490006,-0.7829766564037847
-4716.9472732543945,-264.0,2636.0,15076.0,-1067.0,-2728.0,-2760.0,-0.7584308196470118,-0.18742813588376844,0.22711908617215382,-0.5814381363352624
-4716.962844848633,-132.0,2572.0,14728.0,-1608.0,-3000.0,-3123.0,-0.8197616249293829,-0.2736467081012451,0.4229186041476394,-0.2724852504344083
-4716.9784524440765,328.0,2188.0,14940.0,-1945.0,-3270.0,-3446.0,-0.7552554607387643,-0.3097252391461355,0.5664418036787228,0.1131509978097477
-4716.994055509567,424.0,1468.0,15068.0,-2302.0,-3342.0,-3642.0,-0.5565620683439956,-0.27537744343074705,0.6008647402583218,0.5033562273822574
-4717.009642124176,544.0,1008.0,15188.0,-2666.0,-3378.0,-3908.0,-0.2424145297142707,-0.18044877384172933,0.4938376324100652,0.815351352864547
-4717.02522277832,868.0,840.0,15104.0,-2941.0,-3533.0,-4150.0,0.13975682139242612,-0.040102548307043816,0.25839993094598035,0.9550336602343812
-4717.040850639343,952.0,1128.0,15104.0,-3138.0,-3641.0,-4253.0,0.493237899189619,0.11278920095655613,-0.05472759781903095,0.860813487921484
-4717.056489467621,936.0,944.0,15672.0,-3180.0,-3643.0,-4105.0,0.713585980385364,0.23532772078686204,-0.3585804992127446,0.5539277371743162
-4717.072088241577,1152.0,448.0,16884.0,-3034.0,-3590.0,-3657.0,0.7457563009276982,0.29661691539208895,-0.5799425738133702,0.13975892174971385
-4717.087788105011,1048.0,92.0,17824.0,-2929.0,-3730.0,-3268.0,0.6010766503756925,0.28307731992292007,-0.6913335916910499,-0.2839576664186883
-4717.103448390961,444.0,-280.0,18492.0,-2676.0,-3708.0,-2770.0,0.3396911101667157,0.19744329780692105,-0.6805670721963651,-0.6184291018919625
-4717.119080066681,-264.0,-360.0,18508.0,-1947.0,-3517.0,-2072.0,0.04883467691756298,0.06781958827068783,-0.5989444988071307,-0.7964177076922804
-4717.134677171707,-608.0,-696.0,18676.0,-1040.0,-3411.0,-1792.0,-0.234115522479609,-0.07560889690052541,-0.5008975460029574,-0.8298041125782643
-4717.150281429291,-496.0,-1140.0,18628.0,-494.0,-3104.0,-1382.0,-0.453298067851056,-0.22020476036026776,-0.3933339758654807,-0.7689727619539135
-4717.165862321854,-72.0,-592.0,18032.0,-386.0,-2523.0,-1491.0,-0.6269334572645247,-0.31274180633832704,-0.28668515943869105,-0.6534207083405019
-4717.181522607803,508.0,640.0,16912.0,-582.0,-1823.0,-1685.0,-0.7658648113911748,-0.33436253090241613,-0.1948068986971229,-0.5135202633015566
-4717.197127819061,372.0,1460.0,15656.0,-1137.0,-1537.0,-1863.0,-0.8850406306088415,-0.2876588807455005,-0.09285585478217578,-0.3540243504794857
-4717.212712049484,468.0,1676.0,14912.0,-1831.0,-1252.0,-2364.0,-0.9759315132415577,-0.15923781904264095,0.0011321618157085877,-0.148995693421688
-4717.228286981583,532.0,1096.0,15028.0,-2056.0,-1114.0,-2503.0,-0.9934967246278791,0.0013958989428449601,0.08430380614267317,0.07651913414092128
-4717.243911027908,316.0,88.0,15976.0,-1817.0,-1033.0,-2393.0,-0.9344873583687243,0.1428286717940266,0.15582709446545057,0.28644591844369716
-4717.259517669678,548.0,-928.0,17124.0,-1343.0,-1149.0,-2383.0,-0.8157354373759911,0.24057658450606378,0.23760635021809537,0.46929929206470467
-4717.275101184845,544.0,-1568.0,18172.0,-1020.0,-965.0,-2400.0,-0.6570259628074282,0.29426477377382787,0.3058597719831177,0.6230368584564198
-4717.29070353508,920.0,-1084.0,18052.0,-165.0,-537.0,-2262.0,-0.5051775859036742,0.26693835580589415,0.3778779583283854,0.7285243781163075
-4717.306275367737,1216.0,-148.0,17464.0,171.0,-428.0,-1964.0,-0.364610904771063,0.2183662270515798,0.44635252272331427,0.7874925424813988
-4717.321852445602,1232.0,36.0,16628.0,115.0,-423.0,-1700.0,-0.2308251545755317,0.17542801936024624,0.4941835207515145,0.8195897790090848
-4717.337423086166,1260.0,-340.0,15840.0,-310.0,-470.0,-1342.0,-0.10895944233874592,0.156109892038906,0.49785280035606466,0.8461088172986113
-4717.353003978729,968.0,-724.0,15972.0,-677.0,-338.0,-899.0,-0.018574500758380567,0.14762945700754362,0.4607231055110215,0.8749827149112804
-4717.368585348129,992.0,-792.0,16512.0,-624.0,-303.0,-587.0,0.04632704165689718,0.1476679123819222,0.4196102979521975,0.8944133220813257
-4717.384192705154,1112.0,-748.0,17012.0,-302.0,-204.0,-352.0,0.08508447770468447,0.14928296893896711,0.3991500899294897,0.9006411230605501
-4717.399852514267,1164.0,-556.0,17136.0,51.0,-216.0,-425.0,0.12524683617144317,0.1516462308097048,0.4065284622440121,0.8922170476379457
-4717.41544175148,1036.0,-312.0,17328.0,248.0,-107.0,-278.0,0.147333954268477,0.15268051824591178,0.42790390382818577,0.8785667956145239
-4717.4310603141785,1052.0,-108.0,17136.0,262.0,134.0,-642.0,0.18772482715668581,0.12151053173622967,0.45721103922191125,0.8607860625961546
-4717.446650266647,1060.0,168.0,16764.0,171.0,170.0,-261.0,0.19865708048957378,0.10103866326325159,0.47519099054044334,0.8511874502167702
-4717.462246894836,980.0,156.0,16488.0,69.0,224.0,-517.0,0.22690872296865508,0.06404275974039923,0.48797236803663413,0.8404129487331138
-4717.4778554439545,920.0,32.0,16184.0,39.0,150.0,-427.0,0.2514494365935785,0.03558358795655364,0.4956127217954401,0.8305871532232039
-4717.49350976944,912.0,-216.0,16464.0,7.0,61.0,-367.0,0.2752765715983411,0.015427235485342073,0.498148933154405,0.8220902930526984
-4717.509079694748,984.0,-40.0,16476.0,66.0,-138.0,-331.0,0.3048138364972001,0.012523063095747938,0.49957494354463994,0.8107752917750566
-4717.524655818939,1020.0,-240.0,16720.0,108.0,-100.0,-346.0,0.33339605396990946,0.007388184730451844,0.504478703758129,0.7964255918654296
-4717.540233850479,1220.0,-160.0,16720.0,167.0,43.0,-290.0,0.3514384540071205,-0.003499267860064556,0.5171202914142988,0.7804264042029325
-4717.555830717087,1228.0,-208.0,16868.0,194.0,30.0,-237.0,0.36619545375936025,-0.01027264706815843,0.5308159813585283,0.7642183956844874
-4717.57142996788,1212.0,-236.0,16680.0,246.0,105.0,-113.0,0.36901274850316484,-0.01463044834757059,0.550134610473663,0.7489776043262444
-4717.587029457092,1224.0,-456.0,16752.0,259.0,298.0,-119.0,0.3626232418487538,-0.03145132877966873,0.5759810228684088,0.7319570067186698
-4717.602665901184,1216.0,-292.0,17120.0,370.0,530.0,-88.0,0.34210647575513276,-0.05791685429859432,0.6150125793032227,0.7080736716849141
-4717.618257045746,1176.0,-352.0,16640.0,426.0,582.0,-76.0,0.3171233057650079,-0.08505871933536463,0.6568946652242721,0.6787394360176757
-4717.633845090866,1180.0,-336.0,16832.0,410.0,498.0,31.0,0.2893578778632734,-0.10125609259741924,0.693988749936524,0.6514590065321889
-4717.649426460266,1200.0,-416.0,16568.0,381.0,489.0,-22.0,0.26400531057594684,-0.12057773926251712,0.7266509967514695,0.6226881512459781
-4717.66499876976,1188.0,-244.0,16588.0,331.0,582.0,44.0,0.2278254673460168,-0.14153266647804982,0.7571372839753715,0.5956569431833897
-4717.680613279343,1272.0,-84.0,16560.0,331.0,603.0,-47.0,0.19418277589463134,-0.16908598424566376,0.7842692788158988,0.5644684913997595
-4717.696190595627,1184.0,-200.0,16396.0,267.0,534.0,-129.0,0.167708386482187,-0.19940405476952447,0.8033717005605664,0.5354491859956809
-4717.711837768555,1152.0,-312.0,16344.0,11.0,438.0,-133.0,0.14330647376611608,-0.2288438375310568,0.8072852619004371,0.5247706723123192
-4717.727431774139,1168.0,-388.0,16516.0,248.0,359.0,-148.0,0.12965423634984355,-0.25239620368334176,0.8194703438282681,0.4979500888128811
-4717.743007659912,1208.0,-372.0,16388.0,21.0,304.0,-69.0,0.11134344607655625,-0.27019228332155726,0.821955352263742,0.4888641589790237
-4717.75871014595,1520.0,-372.0,16576.0,22.0,280.0,-144.0,0.09789077387331847,-0.2921323195647825,0.821868125494895,0.4791752169631584
-4717.774315357208,1228.0,-272.0,16504.0,498.0,294.0,-57.0,0.09177432202604688,-0.30385802565778386,0.8426396803357782,0.43497832495841726
-4717.791352510452,1396.0,-264.0,16508.0,232.0,273.0,-120.0,0.08236720030488781,-0.32100470310858636,0.849962397069874,0.40955530574433646
-4717.809683561325,1424.0,-336.0,16608.0,217.0,372.0,-148.0,0.06609294335259404,-0.3434423405579561,0.8555481802484749,0.381728166139973
-4717.827680110931,1336.0,-308.0,16692.0,2.0,445.0,-123.0,0.03699184721506628,-0.36713698383940374,0.8537805798785641,0.3672883877270629
-4717.8456909656525,1256.0,-400.0,16552.0,280.0,410.0,-161.0,0.020549708900969105,-0.39096267057339557,0.8580144087565494,0.3324713131209259
-4717.863684177399,1244.0,-372.0,16456.0,331.0,454.0,-141.0,0.0019297856126530015,-0.4135699551044136,0.8625078302337607,0.2916100323169162
-4717.881696462631,1316.0,-212.0,16508.0,280.0,383.0,-98.0,-0.014296407423690646,-0.4302599276857439,0.8653785484632495,0.256499464370345
-4717.897421598434,1336.0,-204.0,16528.0,281.0,347.0,-54.0,-0.02873244071883207,-0.4421136613896792,0.8685326413656941,0.22217337406917445
-4717.913065910339,1300.0,-160.0,16440.0,252.0,220.0,-37.0,-0.03496436411727805,-0.4496194774952994,0.8710588953600626,0.19461813767692757
-4717.928763389587,1328.0,-208.0,16420.0,193.0,191.0,-55.0,-0.04097758075542264,-0.457498306923465,0.8713370993859347,0.17259141424561553
-4717.944403886795,1292.0,-212.0,16456.0,166.0,208.0,-49.0,-0.04942919820098451,-0.46482038078052745,0.8708908510613539,0.15181532700581973
-4717.960080623627,1276.0,-228.0,16392.0,202.0,230.0,-13.0,-0.0585384852114592,-0.4695580118031921,0.8717336320122252,0.12715735967436417
-4717.975727319717,1100.0,-240.0,16432.0,270.0,158.0,26.0,-0.05977480146460116,-0.4705344916417006,0.8746587930815737,0.09998130310432532
-4717.991414546967,1184.0,-56.0,16464.0,299.0,83.0,8.0,-0.053895607961331374,-0.4720335405536655,0.8768408247641463,0.0736869599168092
-4718.007031440735,1312.0,-512.0,16424.0,280.0,123.0,156.0,-0.0527660222195735,-0.4619927447724708,0.8840938543607071,0.04643821011140581
-4718.022659540176,1328.0,-144.0,16560.0,343.0,47.0,260.0,-0.04359733476638052,-0.4433798367704191,0.8951140470492028,0.016865216331308792
-4718.038269042969,1228.0,-216.0,16608.0,322.0,-256.0,320.0,-0.011601992889161902,-0.4187903844153111,0.9080087294132567,0.0003936897241745561
-4718.053880214691,1184.0,-72.0,16636.0,225.0,-92.0,299.0,0.003896448925797243,-0.3950913991149519,0.9185210749052312,-0.014374942994575658
-4718.069507360458,1220.0,-196.0,16492.0,170.0,20.0,1.0,0.008151804237151127,-0.39488424245610415,0.9182463796759538,-0.02869789817307044
-4718.085144996643,1268.0,-160.0,16552.0,195.0,44.0,281.0,0.012041132966882643,-0.3719422482899345,0.9270553466230141,-0.04563287577597627
-4718.100743055344,1260.0,-28.0,16460.0,241.0,58.0,252.0,0.016164644443088415,-0.3508971796054847,0.933893242761015,-0.06673293594815315
-4718.116324901581,1228.0,-208.0,16420.0,262.0,5.0,331.0,0.025690544336958117,-0.32329426830079927,0.9418724634194123,-0.08773297366309582
-4718.131914138794,1148.0,-224.0,16376.0,250.0,-26.0,372.0,0.03770297934029147,-0.29212218507158927,0.949667145715945,-0.10665564535267615
-4718.147521018982,1076.0,-68.0,16504.0,264.0,-50.0,412.0,0.0523690865646965,-0.2573261925109679,0.9566668875471781,-0.1258140520410287
-4718.163128852844,1088.0,-52.0,16476.0,299.0,-59.0,352.0,0.06782621739980708,-0.22702328873641775,0.9602239085825385,-0.14775004565484195
-4718.178739786148,1012.0,4.0,16536.0,225.0,-36.0,293.0,0.07904665367611331,-0.20148928159453405,0.9624055771950906,-0.1641011911258175
-4718.194360971451,1004.0,16.0,16624.0,230.0,41.0,283.0,0.08366671747084413,-0.17544877765633912,0.9638710268961671,-0.1821270169872629
-4718.209997415543,1156.0,-48.0,16564.0,262.0,-7.0,209.0,0.09156008992188144,-0.1559940805596776,0.962436151089877,-0.20248271985317914
-4718.225598573685,1080.0,-20.0,16364.0,219.0,-41.0,278.0,0.10286062140254904,-0.13154817790687967,0.9615494970843474,-0.21803058067826153
-4718.2411823272705,1156.0,-144.0,16448.0,201.0,-21.0,244.0,0.11154393664116909,-0.10962020923822813,0.9599599246154864,-0.23241837934506687
-4718.256782531738,1236.0,-160.0,16892.0,235.0,-21.0,258.0,0.12074297456843226,-0.08609791794248671,0.9569990128984651,-0.24932142292570683
-4718.272367715836,1220.0,-164.0,16640.0,224.0,21.0,29.0,0.12129310550061013,-0.08084185248134175,0.952362792175303,-0.267876257860721
-4718.288048744202,1192.0,-80.0,16488.0,295.0,22.0,263.0,0.12763342779677952,-0.05530650953990361,0.9469727993441511,-0.28964360067790035
-4718.303643465042,1128.0,-116.0,16476.0,237.0,-23.0,212.0,0.1360014854357739,-0.03570934676117384,0.9413653838299523,-0.3066914616350441
-4718.319263458252,1204.0,-224.0,16520.0,219.0,-18.0,155.0,0.1422896646847477,-0.020849642218631087,0.9354939294591896,-0.3227538561942552
-4718.334856748581,1132.0,16.0,16528.0,216.0,-20.0,155.0,0.14866003557695331,-0.006072216355955503,0.9291684595490582,-0.33839222182257006
-4718.350444078445,1100.0,-24.0,16556.0,223.0,-66.0,145.0,0.15838779383314475,0.006629371005532404,0.9215135569746878,-0.3545167450440091
-4718.36602640152,1044.0,36.0,16548.0,238.0,-67.0,190.0,0.16947700795514706,0.02311994097184396,0.9127468816197103,-0.37099345303862685
-4718.381622552872,1128.0,-68.0,16552.0,275.0,-48.0,191.0,0.17887543684902513,0.04083131863383303,0.9023220717128343,-0.39006571293892434
-4718.39729309082,1096.0,-4.0,16388.0,274.0,9.0,245.0,0.18545956017753726,0.06467701825512813,0.8917673719555691,-0.40764272244679906
-4718.412881135941,980.0,68.0,16580.0,260.0,250.0,173.0,0.17060684044619578,0.09118957733325665,0.8850112351048969,-0.423477131279663
-4718.428508758545,1088.0,116.0,16464.0,207.0,-39.0,150.0,0.17749344517819776,0.10438624773002664,0.8753242688292906,-0.4375008715443748
-4718.444096088409,1112.0,64.0,16588.0,161.0,-105.0,68.0,0.1866393686413931,0.10804206803593497,0.8667520649836901,-0.449703808583127
-4718.45970416069,1136.0,64.0,16608.0,150.0,-58.0,38.0,0.1911086487697397,0.11106451959486074,0.859428686447587,-0.46100378497745786
-4718.475300550461,1172.0,44.0,16560.0,146.0,-27.0,56.0,0.19397788818397488,0.11659484807651341,0.8524337549071848,-0.47131190711941245
-4718.4908883571625,1088.0,60.0,16424.0,191.0,-73.0,49.0,0.19947320244208958,0.12044213681591202,0.842651815336543,-0.48542975938516897
-4718.506489992142,1056.0,40.0,16420.0,182.0,-142.0,56.0,0.21035840378328427,0.12167683027426017,0.8316490771151849,-0.4993034182394697
-4718.522088527679,1152.0,232.0,16496.0,161.0,-176.0,68.0,0.22436384110110813,0.1218592227411755,0.8204317304889632,-0.5115691275342547
-4718.537675142288,1188.0,28.0,16556.0,160.0,-127.0,2.0,0.23183845117461369,0.11943340399307423,0.8105915855524947,-0.5243356520389169
-4718.553296089172,1324.0,76.0,16652.0,196.0,-131.0,3.0,0.23918009568314583,0.11757811926577999,0.7987077800084715,-0.5394758102573851
-4718.568878889084,1192.0,32.0,16720.0,178.0,-148.0,48.0,0.2499097130816289,0.11763262724781025,0.7865094301083017,-0.5523681894035446
-4718.58452129364,1100.0,24.0,16892.0,195.0,-91.0,67.0,0.25736840291805513,0.12206073526891668,0.7742138554010407,-0.5652040235083942
-4718.600124359131,1172.0,32.0,16748.0,118.0,-62.0,17.0,0.2611552708042783,0.12277728212669234,0.7666918494513698,-0.5735043779340876
-4718.615746974945,1156.0,240.0,16568.0,165.0,245.0,59.0,0.24589288499617723,0.14268771610998923,0.7630461605589004,-0.5804631440805632
-4718.631340265274,1128.0,76.0,16560.0,137.0,17.0,15.0,0.24382787568841185,0.1474596593616517,0.7561515585964963,-0.5890996828468943
