programtime,ax,ay,az,gx,gy,gz,q0,q1,q2,q3
-6810.017809867859,-2456.0,-2096.0,-16324.0,3309.0,186.0,3921.0,0.9126372446218389,0.2633419357793221,0.015042614451552631,0.31227872860558287
-6810.033402204514,-3400.0,272.0,-15944.0,2909.0,71.0,1177.0,0.7845922987178079,0.4773013415197207,0.07046828327112613,0.3894002763596878
-6810.049000263214,-3628.0,764.0,-15708.0,35.0,393.0,-3696.0,0.8619646137400764,0.42221123353664436,0.2403022456708131,0.1449465751956576
-6810.064586877823,-2988.0,-1192.0,-15924.0,-1038.0,-193.0,-1755.0,0.9118748154306593,0.30515051823333533,0.2731906977396028,0.0270984293599619
-6810.080150604248,-1740.0,-2520.0,-16000.0,-855.0,403.0,48.0,0.9216606414501892,0.23666534391084668,0.30118702761922606,0.061786336572754626
-6810.09578704834,-2636.0,-3464.0,-16604.0,589.0,85.0,2544.0,0.8710824549821106,0.34177045591403793,0.25247134043496816,0.2463057740809593
-6810.111380815506,-2908.0,-1728.0,-15904.0,1393.0,-34.0,2163.0,0.7646192961891678,0.4841686123645939,0.2103109847183102,0.36973960621353524
-6810.126964330673,-3316.0,-748.0,-15760.0,267.0,88.0,434.0,0.7368308265549648,0.5068159164693232,0.2064173245041317,0.39700106800390733
-6810.142590045929,-3756.0,-1304.0,-16028.0,-138.0,-83.0,-1280.0,0.7836905832581871,0.4749767826549679,0.25148640528354677,0.31141726607357173
-6810.158166885376,-2952.0,-1636.0,-16044.0,73.0,-310.0,633.0,0.768653325117291,0.5015411888591558,0.2058175881020221,0.3395108571043686
-6810.17377448082,-2732.0,-1312.0,-15796.0,602.0,-41.0,1218.0,0.7018781797127289,0.5613043226184352,0.1665750485683105,0.4056565437010368
-6810.189397573471,-3332.0,-1244.0,-15744.0,764.0,-245.0,777.0,0.637332968979259,0.6253292731367648,0.1400122583320862,0.4279796190557182
-6810.2049922943115,-3552.0,-1092.0,-16072.0,146.0,-386.0,323.0,0.6212161835971188,0.6513586835107741,0.10635580605919599,0.42250533862856754
-6810.220580816269,-3008.0,-1588.0,-15748.0,-144.0,-339.0,522.0,0.6121919768750692,0.6601055415099985,0.05298278095796692,0.4320584247987146
-6810.236146688461,-2604.0,-1624.0,-16148.0,455.0,-387.0,1767.0,0.5142041423911037,0.6982186699974007,-0.051610367046251146,0.4953999988173613
-6810.2517631053925,-2552.0,-1248.0,-16032.0,1141.0,-259.0,1840.0,0.35738200479490184,0.7392789767096016,-0.1238038255147387,0.5571510657190717
-6810.267354011536,-3240.0,-492.0,-15812.0,691.0,-257.0,312.0,0.2940113495229504,0.7682849682032246,-0.11808520748700327,0.5561936872685762
-6810.28293800354,-3708.0,-900.0,-15668.0,-55.0,-9.0,-553.0,0.3239578216358996,0.7723005156014296,-0.08383402452596575,0.5399769437063662
-6810.298511266708,-3028.0,-1244.0,-15936.0,-225.0,-496.0,-395.0,0.353369343630923,0.7910346619192771,-0.08171575176150647,0.49266297459638414
-6810.3141350746155,-3224.0,-1576.0,-15964.0,-113.0,232.0,145.0,0.35632847035878645,0.776480810999178,-0.08941782042915439,0.511968773219154
-6810.329710483551,-3064.0,-1300.0,-16076.0,572.0,-31.0,258.0,0.30519607590847986,0.7926433982591055,-0.08220300876782517,0.5213582873570143
-6810.345366477966,-3028.0,-808.0,-15980.0,643.0,-23.0,209.0,0.25048040140745187,0.8080981731492022,-0.0679119352085644,0.5287956884467874
-6810.360964298248,-3356.0,-924.0,-15928.0,205.0,46.0,-755.0,0.2703992789811766,0.8132182599746337,-0.0042015190140400165,0.5153082949150574
-6810.37654709816,-3300.0,-860.0,-15488.0,-600.0,48.0,-1486.0,0.376057934828697,0.7899421799555965,0.07469291009155687,0.47853187058066493
-6810.392131090164,-2828.0,-1580.0,-15924.0,-534.0,-254.0,-1488.0,0.4719382599372868,0.7660776814543684,0.14525572603352893,0.4114608594257023
-6810.407758712769,-2728.0,-1648.0,-16036.0,-165.0,48.0,-478.0,0.49886320898998876,0.7509587972100475,0.17315213983358926,0.39650311484287065
-6810.4233384132385,-3160.0,-1668.0,-15840.0,361.0,93.0,96.0,0.470034967954926,0.7646640250259436,0.1833688523065729,0.4009138582470118
-6810.438903808594,-3564.0,-1248.0,-15768.0,176.0,112.0,-288.0,0.46618333498005426,0.7631699690897656,0.21331434512876762,0.39337219859655287
-6810.454469919205,-3708.0,-1084.0,-15912.0,-132.0,136.0,-538.0,0.4901434360553693,0.7423755281908849,0.24992606525562153,0.3823283263648975
-6810.4700610637665,-3284.0,-1236.0,-15808.0,-328.0,-5.0,-1597.0,0.5589875247877177,0.6869400179967118,0.3389171128664742,0.31746109905409087
-6810.485649585724,-3204.0,-1460.0,-15720.0,-713.0,-46.0,-1951.0,0.6464196228618021,0.5863383413003516,0.4270489973951183,0.23659707209553998
-6810.5013308525085,-2940.0,-1720.0,-15888.0,-430.0,-81.0,-769.0,0.6850822193211629,0.5336623720147942,0.4517766450321183,0.20436410758510642
-6810.516955375671,-3212.0,-2104.0,-15944.0,45.0,39.0,712.0,0.6672575120515795,0.562776813562004,0.42112470771892446,0.24638110982050562
-6810.532546043396,-3112.0,-1788.0,-15772.0,235.0,150.0,896.0,0.628638080429142,0.6042932920699428,0.3897789983886895,0.2961690622072878
-6810.54812335968,-3192.0,-1496.0,-15984.0,280.0,72.0,866.0,0.5869893621762956,0.6453661515788046,0.3543331594498914,0.33674030231394464
-6810.563729047775,-3284.0,-1332.0,-15948.0,55.0,85.0,329.0,0.5711561686395948,0.6557329810232579,0.34176356832424515,0.3563601436602714
-6810.5792989730835,-3280.0,-1488.0,-15420.0,-280.0,246.0,4.0,0.5792409383995575,0.6340860933181709,0.34504760372711485,0.378625029157709
-6810.594913244247,-3008.0,-1640.0,-15984.0,-126.0,42.0,604.0,0.5640019820037967,0.6437607835849086,0.30927713283804065,0.41451353767689497
-6810.610486030579,-2684.0,-1368.0,-15952.0,314.0,78.0,779.0,0.5145151335539758,0.6757777329202209,0.2800793563504316,0.4473859487952977
-6810.626051187515,-2860.0,-1232.0,-15876.0,460.0,121.0,592.0,0.460145658383006,0.704817375620617,0.26808249428777586,0.46864721950629423
-6810.641614198685,-3316.0,-1000.0,-15812.0,20.0,111.0,-363.0,0.4707639666088651,0.6923916000637563,0.2956303750268305,0.45997591378824876
-6810.657180309296,-3212.0,-1348.0,-15796.0,-522.0,58.0,-478.0,0.5188624002648936,0.6552169572081983,0.30547341408305545,0.45624394995070977
-6810.6727459430695,-2844.0,-1656.0,-15676.0,-413.0,90.0,-199.0,0.5474011850771161,0.6273006668539383,0.3043568906622199,0.46283117769571097
-6810.688329458237,-2796.0,-1656.0,-16036.0,204.0,164.0,875.0,0.49481373834509496,0.6517890048005354,0.27179800509727076,0.5064151478690418
-6810.703946113586,-3144.0,-1396.0,-15840.0,256.0,191.0,719.0,0.44276689694346716,0.670075672044727,0.24999115644576964,0.5407961634514129
-6810.7195291519165,-3688.0,-1136.0,-15740.0,102.0,124.0,4.0,0.43374971455559796,0.6683817381361444,0.2594495694817687,0.5457224185836318
-6810.735100746155,-3528.0,-1432.0,-15640.0,-310.0,213.0,-431.0,0.46684341418256375,0.6361518700367166,0.2776568364613851,0.5479732712910472
-6810.750704526901,-2928.0,-1500.0,-16100.0,-29.0,202.0,-40.0,0.465272336688015,0.6244410928811763,0.2867932820391614,0.5579826051154666
-6810.766299009323,-3052.0,-1288.0,-16080.0,456.0,95.0,297.0,0.4229683340962519,0.6452081330031961,0.2964507862956646,0.5629575337119608
-6810.781888008118,-3392.0,-1320.0,-15656.0,153.0,-46.0,-298.0,0.42988537542413824,0.6453120658570605,0.3190338621155224,0.544966326005006
-6810.797525882721,-3016.0,-1424.0,-15824.0,-416.0,56.0,-607.0,0.47951465205536103,0.609071769484399,0.3349690061804877,0.5356239753594172
-6810.813114404678,-2812.0,-1916.0,-15944.0,-162.0,26.0,141.0,0.48056356512267434,0.6052823483843423,0.3210710736330506,0.5473621326754717
-6810.828707933426,-2420.0,-1632.0,-16080.0,290.0,207.0,1091.0,0.40517156499352525,0.6351437622005234,0.2846823241731121,0.5927768370659043
-6810.84428524971,-3288.0,-1616.0,-15996.0,753.0,82.0,975.0,0.309059031203697,0.6780162291725389,0.2710393837462432,0.6093555289554203
-6810.859871149063,-3304.0,-1232.0,-15700.0,-73.0,70.0,76.0,0.3075793664338078,0.6742781007112656,0.2646355407649758,0.6170186438102293
-6810.875447273254,-3328.0,-1452.0,-15908.0,-228.0,155.0,-99.0,0.3225604320134934,0.6575126597354365,0.2623604512962142,0.6283302185813979
-6810.891042947769,-2908.0,-1552.0,-15952.0,89.0,126.0,586.0,0.2819517906388004,0.6658019308361318,0.23693059497830993,0.6489028200074929
-6810.90666270256,-3256.0,-1412.0,-15904.0,328.0,79.0,416.0,0.23736574868221302,0.6774665063901342,0.23311399483625558,0.6560141000645955
-6810.9223573207855,-3432.0,-1376.0,-15732.0,-141.0,148.0,-453.0,0.2683126672166336,0.6564477253953007,0.25473948732927393,0.6574134848249239
-6810.938034534454,-3176.0,-1552.0,-15864.0,-239.0,71.0,-78.0,0.28475810409871455,0.6450862642254296,0.2471918384490414,0.6645846288186088
-6810.953640699387,-2824.0,-1620.0,-15928.0,239.0,69.0,347.0,0.24943726542388983,0.6542668393932014,0.24315802134748998,0.6712601061754349
-6810.9692351818085,-3384.0,-1708.0,-15620.0,42.0,53.0,189.0,0.23474104671707868,0.6561958537530551,0.23603632686133666,0.6771931001607129
-6810.984874248505,-2856.0,-1344.0,-15768.0,-50.0,139.0,399.0,0.21095214275126004,0.6549409572741002,0.21302174008101638,0.6936665439578248
-6811.000552177429,-2840.0,-1400.0,-15844.0,126.0,81.0,286.0,0.18479899515051332,0.6576331054470873,0.20579086516010445,0.7007268724888722
-6811.016136169434,-3240.0,-1312.0,-16108.0,248.0,71.0,-462.0,0.19728474453799347,0.6485197355009622,0.2484307776941325,0.6919414938653622
-6811.031755447388,-3084.0,-1268.0,-16120.0,-250.0,231.0,-671.0,0.2463674430376577,0.6146110936999684,0.2747930712306161,0.6971693155293488
-6811.047338247299,-3244.0,-1720.0,-15888.0,-69.0,150.0,-755.0,0.29168815804236775,0.5847768500975001,0.31371594754666526,0.6888659944450696
-6811.0629098415375,-3140.0,-1296.0,-15876.0,-61.0,89.0,-484.0,0.3210997875572598,0.5642943530927503,0.3368363703632844,0.6819150013739289
-6811.078472852707,-3496.0,-1900.0,-15908.0,76.0,98.0,-121.0,0.3215739581456951,0.557161458677185,0.3501717917151252,0.6808384644643993
-6811.094063043594,-3112.0,-1784.0,-15920.0,53.0,199.0,175.0,0.3023642647483007,0.5522103842040239,0.3504500640535059,0.6934149519482237
-6811.10963344574,-3016.0,-1504.0,-15904.0,240.0,174.0,326.0,0.26548820922203165,0.5577620107198502,0.3537448263545371,0.7023404786777044
-6811.125213384628,-3228.0,-1500.0,-16128.0,259.0,196.0,106.0,0.2401717082032712,0.5549629719536093,0.3689876494366781,0.7058199238490901
-6811.14080452919,-3252.0,-1296.0,-15772.0,-80.0,143.0,-674.0,0.2804009273023417,0.5220020403189085,0.3991265451843158,0.6997050741563303
-6811.156394958496,-3108.0,-1488.0,-15944.0,-154.0,169.0,-556.0,0.3149957851081732,0.4880512787566056,0.4187839879816991,0.6979996963310741
-6811.172020196915,-3012.0,-1636.0,-15824.0,-91.0,154.0,-247.0,0.32811485494965154,0.46714215568900636,0.4280295365657957,0.700649387473412
-6811.187601327896,-3132.0,-1596.0,-15656.0,-77.0,114.0,135.0,0.3186391163283139,0.4631023645624965,0.421219330594297,0.7117440474045624
-6811.203240394592,-3144.0,-1596.0,-15716.0,-85.0,107.0,-174.0,0.328834617975391,0.4477727314443728,0.42606502210071406,0.7140279910046539
-6811.218825101852,-3076.0,-1560.0,-15832.0,251.0,51.0,42.0,0.3143748698808592,0.4533963120584324,0.44161426247650637,0.7075147126219615
-6811.234451293945,-3188.0,-1560.0,-15776.0,-84.0,135.0,-418.0,0.33799601285652586,0.4264719776661308,0.4565255597984191,0.7038925776063918
-6811.250026226044,-2876.0,-1500.0,-15800.0,-102.0,212.0,58.0,0.3296516842582854,0.41280385882063575,0.45446499089242803,0.7172059071575007
-6811.265594005585,-3068.0,-1484.0,-16016.0,205.0,161.0,184.0,0.30419237211883415,0.41589868947981534,0.4653331200839306,0.7196946353743668
-6811.28116106987,-3352.0,-1492.0,-15812.0,22.0,158.0,-289.0,0.3149538631857926,0.3947910892485349,0.4814150596461406,0.716368341190622
-6811.296755075455,-3176.0,-1416.0,-15916.0,-283.0,205.0,-807.0,0.3654231695503184,0.3394193695187753,0.4959279433122628,0.7108557334602751
-6811.312327861786,-3216.0,-1872.0,-15928.0,-133.0,32.0,-23.0,0.36932566485516727,0.332275750967195,0.48958422922691847,0.7165882088694729
-6811.327929019928,-2764.0,-1668.0,-15752.0,-107.0,109.0,-43.0,0.3703685796761494,0.32025126720336744,0.48784775823840615,0.72268306042488
-6811.343537807465,-3220.0,-1732.0,-15832.0,-152.0,-45.0,226.0,0.36212577381145455,0.3278016610764993,0.47060297853060507,0.7348087040414437
-6811.359123706818,-2852.0,-1612.0,-16004.0,-226.0,76.0,228.0,0.35065431660807284,0.32512905144146886,0.45204876386858456,0.7529837748834836
-6811.3746945858,-3032.0,-1704.0,-15824.0,58.0,255.0,466.0,0.3079478028887472,0.3282882043569998,0.4501981447911993,0.771178731554892
-6811.390257835388,-2972.0,-1332.0,-16120.0,14.0,48.0,174.0,0.29387747744571835,0.33234741816486046,0.44763369359735145,0.7764053697944684
-6811.405882358551,-3312.0,-1332.0,-15824.0,-191.0,67.0,-561.0,0.33433128499468084,0.30070163915101644,0.452315693014479,0.7702023305200582
-6811.4215087890625,-3232.0,-1548.0,-16120.0,-543.0,250.0,-875.0,0.39580628539906276,0.23262600722551058,0.44443662720844707,0.7692194807702756
-6811.43709230423,-3324.0,-1924.0,-16000.0,-314.0,222.0,-211.0,0.40740269653089495,0.19861357876949814,0.4352688345999488,0.777892493095113
-6811.452716112137,-2856.0,-1588.0,-16008.0,75.0,303.0,776.0,0.3409668131885774,0.20968704515960965,0.43680335615955224,0.8055903446814695
-6811.468290090561,-3180.0,-1272.0,-15800.0,-47.0,284.0,330.0,0.3075519169691828,0.20081439138445173,0.43587498165497635,0.8216437177686856
-6811.483926534653,-3652.0,-1100.0,-15820.0,-797.0,230.0,-559.0,0.3515097153284617,0.14117779327054564,0.39349127613497537,0.8376600541524177
-6811.4995086193085,-2824.0,-1372.0,-16000.0,-987.0,175.0,-860.0,0.41775092722278956,0.06815441683147307,0.3353876520098875,0.841637844414185
-6811.515092611313,-2000.0,-1320.0,-15936.0,-717.0,311.0,-166.0,0.4240559286760176,0.014270466044683636,0.29464885044004707,0.856244695217405
-6811.530665874481,-3116.0,-1720.0,-16012.0,212.0,58.0,-83.0,0.4284025411020566,0.015540331834631015,0.3129695335115592,0.847513912544996
-6811.546231746674,-3948.0,-1504.0,-15752.0,-259.0,106.0,-186.0,0.43942172170832644,-0.007171181178009745,0.2981941022595422,0.8473118682215115
-6811.56183052063,-3272.0,-1888.0,-15864.0,-892.0,293.0,704.0,0.3772085928157837,-0.044618411283730154,0.24293419206684239,0.8925838073846528
-6811.577405691147,-2632.0,-1900.0,-16092.0,75.0,207.0,2219.0,0.1965817785329071,-0.011197260596171186,0.25962814968436954,0.9454223657156896
-6811.592989206314,-3140.0,-1740.0,-16144.0,703.0,8.0,1699.0,0.056211643301817285,0.038061904298984636,0.3156682375059531,0.9464381154773563
-6811.60858464241,-3876.0,-900.0,-15632.0,-332.0,-245.0,-51.0,0.06826878306989817,0.055135876086568385,0.28732607569928853,0.9538045578888626
-6811.624176979065,-3996.0,-1172.0,-15684.0,-949.0,-866.0,898.0,0.019657305749195254,0.1426717963455757,0.19732280982565703,0.9697020457752561
-6811.639813899994,-4576.0,-468.0,-15596.0,-496.0,-2541.0,5377.0,-0.3418444421446971,0.3986479373092054,0.074810926045985,0.8477178332429008
-6811.655432939529,-3780.0,2524.0,-15188.0,-1499.0,-1916.0,4152.0,-0.5387001794675227,0.5646962229224547,-0.11366174212709193,0.6148181038611394
-6811.671060323715,-5352.0,1016.0,-14444.0,-4525.0,-1621.0,-3099.0,-0.14798183061216313,0.801074226598616,-0.11419742511802664,0.5686302923556877
-6811.686670780182,-1800.0,-1788.0,-16004.0,-5349.0,-2883.0,-162.0,0.18133921409861406,0.8965754881019325,-0.29249330186666356,0.2787761681493154
-6811.702270030975,2624.0,-3416.0,-18060.0,-2749.0,-252.0,-10157.0,0.4690382292982987,0.8238255540039876,0.31763174147651196,0.020607591643316457
-6811.717851638794,3572.0,-1172.0,-17796.0,2144.0,1400.0,8166.0,0.20919107555188335,0.909768059755027,-0.16686305629570444,0.3173608227281316
-6811.7334270477295,-7148.0,-1192.0,-16008.0,5854.0,-1408.0,8680.0,-0.37985996282856593,0.6832338814499835,-0.5290678511090576,0.33012888513656985
-6811.749004364014,-11296.0,3548.0,-12776.0,-3098.0,-451.0,-17326.0,0.15454255920430626,0.8722001590373843,0.2343760778258215,0.40056377034465995
-6811.764577150345,-4272.0,-2420.0,-15140.0,-8368.0,-404.0,-8999.0,0.7597311541362132,0.4019260700577624,0.42370173582037773,0.2859035618973276
-6811.780180931091,-1288.0,-7552.0,-17816.0,-2531.0,531.0,-271.0,0.8148194228363106,0.20571719168650288,0.39544137851020283,0.3706424980695962
-6811.795847654343,-680.0,-3820.0,-17384.0,4761.0,-311.0,10964.0,0.2665926244966603,0.645375114273116,0.22885415740198253,0.6782662523528452
-6811.811449050903,-3152.0,2136.0,-15324.0,4196.0,-340.0,4874.0,-0.21921098231730124,0.7502515681311087,0.16992539057982853,0.6001620542691691
-6811.827031850815,-5200.0,3800.0,-14788.0,-2458.0,254.0,-9488.0,0.33056409119396096,0.48886115772405725,0.49967771988776455,0.6340854251041966
-6811.8426558971405,-2808.0,-536.0,-15972.0,-4310.0,197.0,-8301.0,0.747641118146846,-0.006365399052008049,0.4812150743998935,0.4576289898174586
-6811.858235120773,-868.0,-3388.0,-16716.0,-1535.0,363.0,-1453.0,0.7759870145786302,-0.17899782202181716,0.4355066463967716,0.4196878528871524
-6811.873832464218,-2144.0,-1928.0,-16280.0,1175.0,745.0,2557.0,0.6515559983082473,-0.028774452848805473,0.5516492612814011,0.5199325960732596
-6811.889419555664,-4760.0,468.0,-15344.0,-317.0,964.0,-3113.0,0.7167681165831874,-0.23118168898469854,0.5620173896395094,0.34195752290418197
-6811.905046463013,-4732.0,-476.0,-15864.0,-2750.0,1123.0,-7075.0,0.6789895560912256,-0.6512421358928125,0.33876900058998854,0.009613916791224801
-6811.920758008957,-3388.0,-2752.0,-16148.0,-1555.0,898.0,-3504.0,0.5360067550154918,-0.8018557808804279,0.18126033217615845,-0.1920123882091738
-6811.936402082443,-3136.0,-2508.0,-16192.0,79.0,614.0,1170.0,0.5475587178974644,-0.7644500583496276,0.28868666802118,-0.1801542851296212
-6811.952075958252,-3656.0,-1220.0,-15668.0,39.0,654.0,593.0,0.5411718963656218,-0.7353371383016829,0.35792751917116106,-0.19570427342882973
-6811.967694759369,-3480.0,-612.0,-16020.0,-38.0,1119.0,-2294.0,0.45327287929490717,-0.7709344885528172,0.2580150008828184,-0.3655570688346072
-6811.983308315277,-2568.0,-632.0,-15884.0,-144.0,616.0,-1043.0,0.3940417370266512,-0.7762531268060967,0.2156790796845109,-0.4423174506971433
-6811.998969078064,-3072.0,-756.0,-15892.0,-334.0,701.0,-1086.0,0.3140444076514319,-0.7760527249944503,0.177993218020359,-0.5171428162416124
-6812.014630317688,-3116.0,-1144.0,-15832.0,-533.0,446.0,-299.0,0.2568742505423232,-0.7736743477848567,0.1936796643357789,-0.5458313023368819
-6812.030213356018,-3132.0,-1032.0,-16008.0,-486.0,433.0,29.0,0.21770270879324655,-0.7624031072555914,0.22820693465746417,-0.5650386071812671
-6812.045827865601,-3140.0,-844.0,-15804.0,-30.0,154.0,446.0,0.23438037063849407,-0.7460404522867833,0.26215079362653443,-0.5654789534651773
-6812.061400175095,-3472.0,-480.0,-15664.0,-348.0,64.0,-722.0,0.17414214049485974,-0.7648108345692535,0.23314880845618408,-0.5747873827293118
-6812.076972961426,-3544.0,-876.0,-15836.0,-564.0,85.0,-1566.0,0.05559558030924673,-0.7928151297001426,0.1566468936652255,-0.5863574441189092
-6812.092552661896,-3088.0,-1264.0,-15628.0,-565.0,113.0,-346.0,-0.0027327028573418785,-0.793321815613383,0.1619509702272627,-0.5868602154256387
-6812.1081619262695,-3156.0,-1396.0,-15932.0,-155.0,-47.0,523.0,0.014003847919230483,-0.7875786585090395,0.20593543253003588,-0.5806154894017415
-6812.12381029129,-3140.0,-1024.0,-15964.0,-157.0,-238.0,507.0,0.03316154185468141,-0.7898695623345505,0.2481942425797009,-0.5598267630165018
-6812.139435768127,-3192.0,-564.0,-15772.0,-444.0,60.0,-399.0,-0.01820110583421056,-0.7959409518609605,0.24229627045291532,-0.5544720355632805
-6812.155060768127,-2992.0,-760.0,-15764.0,-391.0,9.0,-354.0,-0.06258023941209047,-0.8016860446977664,0.23643046159434897,-0.5454207882014209
-6812.170676231384,-3028.0,-724.0,-15988.0,-276.0,71.0,-185.0,-0.09206938989145262,-0.8004317062865026,0.23619672919318488,-0.5431789908812152
-6812.186263799667,-3176.0,-700.0,-15928.0,-147.0,87.0,-109.0,-0.10921884916526191,-0.7974172854033903,0.2348774793883383,-0.5450041152166509
-6812.201880931854,-3212.0,-764.0,-15812.0,-218.0,204.0,-586.0,-0.15611815470312404,-0.7965108254259697,0.2022510142813445,-0.5479891914750683
-6812.217518091202,-3276.0,-940.0,-15976.0,-183.0,114.0,-520.0,-0.19539946058038066,-0.7969614242494356,0.17314888782576918,-0.5446934933592531
-6812.233136415482,-3108.0,-972.0,-15868.0,-139.0,210.0,-350.0,-0.22462362810677933,-0.7895246062986578,0.15177142734146035,-0.5506001776133317
-6812.24874663353,-3272.0,-1084.0,-15800.0,-108.0,115.0,-52.0,-0.23595950596398627,-0.7826775451462706,0.15114933286491006,-0.55578129785333
-6812.264325141907,-2988.0,-804.0,-16128.0,-113.0,131.0,200.0,-0.23554048408318584,-0.7713474204273698,0.16758885425232042,-0.5669724978235677
-6812.279936075211,-3148.0,-736.0,-15956.0,-172.0,173.0,-410.0,-0.2696046066267151,-0.7647829328020364,0.14486248770305224,-0.5669526271540271
-6812.295521259308,-3092.0,-824.0,-15888.0,-320.0,316.0,-521.0,-0.32005531687835187,-0.7470654303033452,0.11831266081444869,-0.5704909738765203
-6812.311113119125,-3080.0,-1148.0,-15848.0,-170.0,175.0,149.0,-0.3253090824335658,-0.7320502551836455,0.13159605054696927,-0.5839168641615262
-6812.326703071594,-3084.0,-804.0,-15924.0,-108.0,187.0,152.0,-0.32641236095459314,-0.7177353081747933,0.14149990856858843,-0.5985722795873227
-6812.342278242111,-3208.0,-788.0,-15880.0,-178.0,214.0,-165.0,-0.34857774223159343,-0.7034634313966671,0.13435387560496653,-0.6046336034478041
-6812.357871055603,-3080.0,-788.0,-15880.0,-172.0,242.0,-376.0,-0.3813734444997834,-0.6894945200828407,0.11292494534528769,-0.6053094740088475
-6812.373445749283,-3276.0,-860.0,-15640.0,-52.0,226.0,-261.0,-0.4002207950286013,-0.6783140854104281,0.09243208523388363,-0.6092369213859291
-6812.389041185379,-3324.0,-872.0,-15964.0,-133.0,297.0,-158.0,-0.418572994132508,-0.6590622506318621,0.0797595804775112,-0.6197354336304031
-6812.404696464539,-3204.0,-780.0,-15856.0,-37.0,232.0,-201.0,-0.4329217503023836,-0.6465704045220839,0.061719498182173815,-0.6250729346687554
-6812.420301198959,-2948.0,-808.0,-15656.0,-84.0,316.0,-55.0,-0.442072151003523,-0.6264431474083227,0.05124948025835657,-0.6399333458615212
-6812.435880184174,-3112.0,-912.0,-16088.0,-113.0,176.0,-60.0,-0.45220266589633484,-0.6126660705947736,0.04748934741158958,-0.6464501502673111
-6812.451459407806,-3004.0,-860.0,-15972.0,-219.0,275.0,-477.0,-0.49120637022620217,-0.5899569740156577,0.0234622431470968,-0.6404034617379846
-6812.467064619064,-3024.0,-820.0,-15944.0,-153.0,277.0,-117.0,-0.5058708150200476,-0.5681753184532371,0.0140995681598509,-0.6489011698164991
-6812.482678413391,-3176.0,-960.0,-15992.0,-172.0,312.0,-214.0,-0.5264609254260135,-0.5430884532409831,-0.0005600990017219118,-0.6541356986474675
-6812.49826169014,-2852.0,-756.0,-16104.0,-117.0,311.0,-157.0,-0.5405825727315839,-0.5199589781503803,-0.015627405074334532,-0.6611875129721951
-6812.513876676559,-3048.0,-780.0,-15860.0,-237.0,373.0,-100.0,-0.5560792602062747,-0.4870165413697081,-0.02410676316255165,-0.6730598849809385
-6812.529449701309,-3048.0,-960.0,-15976.0,-190.0,292.0,164.0,-0.5535141307557996,-0.4610112196932161,-0.020180403629252924,-0.6933134310540833
-6812.545040845871,-2840.0,-1040.0,-15912.0,-110.0,476.0,509.0,-0.5252338633944925,-0.42727249273426826,-0.016048975303818748,-0.735737749533105
-6812.5606734752655,-3648.0,-1384.0,-15784.0,323.0,269.0,1414.0,-0.4184992227448198,-0.42357343328700775,0.0035357155962509436,-0.8033874817861307
-6812.576259851456,-3056.0,-1168.0,-15864.0,318.0,585.0,1775.0,-0.278627839334168,-0.388633617964085,0.0251397810020892,-0.8778943157050773
-6812.591876029968,-3348.0,-1508.0,-16264.0,564.0,257.0,3091.0,-0.022359586596605287,-0.3626871903349435,0.0776712822051075,-0.9283992798224199
-6812.607485771179,-2572.0,-816.0,-16176.0,779.0,78.0,3029.0,0.23847699925510085,-0.32571701071345516,0.10648174430543259,-0.9086796948803502
-6812.623112678528,-2336.0,-788.0,-16076.0,1040.0,-37.0,1832.0,0.406839860991739,-0.2854675265139711,0.07422505290742124,-0.8645694074712036
-6812.63870716095,-2964.0,252.0,-15696.0,75.0,-16.0,97.0,0.4160885513039972,-0.28363869865903796,0.0705583537332765,-0.8610696399334947
-6812.6542999744415,-3220.0,-980.0,-15920.0,-901.0,-108.0,-25.0,0.39132907025711927,-0.3238601192661292,0.13348171199299932,-0.8509752137894765
-6812.66987991333,-2372.0,-1592.0,-16164.0,-52.0,-54.0,2030.0,0.5329071983582837,-0.30153859711616837,0.19009502744081835,-0.7674296534076672
-6812.685446023941,-3016.0,-1512.0,-15956.0,559.0,-94.0,2755.0,0.7124955216044319,-0.22952203276369115,0.21464552473673984,-0.6273731480388218
-6812.701025485992,-3380.0,-76.0,-15628.0,-183.0,23.0,285.0,0.7236299517608736,-0.23434198933857633,0.23197806269676646,-0.6063247507523087
-6812.716600418091,-3360.0,-520.0,-15644.0,-797.0,43.0,-977.0,0.650765990255635,-0.3004974136218421,0.2556113399317588,-0.6487432259619189
-6812.732181787491,-2852.0,-1016.0,-16004.0,-606.0,142.0,-417.0,0.6067270964609072,-0.3356310604453779,0.2866762147074143,-0.6610981542898579
-6812.747792005539,-2784.0,-632.0,-16068.0,-327.0,213.0,-384.0,0.568940928399965,-0.35003956459135704,0.30545739439170544,-0.6785825693484244
-6812.763372659683,-3212.0,-440.0,-16044.0,-604.0,143.0,-1471.0,0.45510179766812575,-0.4070040644258518,0.3007221103115107,-0.7326638094445971
-6812.778970956802,-2956.0,-644.0,-16132.0,-777.0,121.0,-2024.0,0.28970418093783296,-0.47497428305154493,0.27857192565870353,-0.7828592467497665
-6812.794595241547,-2672.0,-1268.0,-16244.0,-692.0,60.0,-530.0,0.22267508076992934,-0.5000033572680133,0.30469077204527,-0.7794716059968304
-6812.810201883316,-2944.0,-952.0,-16160.0,-374.0,-176.0,627.0,0.2531220127797056,-0.5016857258805658,0.35348540090945524,-0.7478561027617024
-6812.8258192539215,-2868.0,-548.0,-16088.0,-597.0,-116.0,149.0,0.2398941430831283,-0.5172509297954729,0.3959955230773797,-0.7197845659937442
-6812.841406106949,-2900.0,-580.0,-15972.0,-445.0,-224.0,65.0,0.23137346298729236,-0.538035777919648,0.4219646871897512,-0.6920474153325932
-6812.8569877147675,-3052.0,-412.0,-15984.0,-420.0,-141.0,-380.0,0.1936086844210014,-0.5684427363604369,0.4262619349657031,-0.6765273797823134
-6812.872583866119,-3220.0,-504.0,-15932.0,-470.0,-100.0,-862.0,0.122641767164399,-0.6122400121489548,0.40821381758201153,-0.6659449253547631
-6812.888154268265,-2864.0,-960.0,-15856.0,-204.0,70.0,-406.0,0.08558043733711135,-0.6244778740860804,0.39895739328339136,-0.6659852640011188
-6812.903797626495,-3552.0,-820.0,-15988.0,-15.0,-156.0,405.0,0.11366352177159005,-0.6192681684639452,0.42058039671222636,-0.6532225265919541
-6812.91946721077,-3008.0,-548.0,-15888.0,-40.0,51.0,251.0,0.1239023498286649,-0.607547536942481,0.4369673747724613,-0.6516085569162847
-6812.935112953186,-2864.0,-548.0,-15920.0,52.0,17.0,-56.0,0.12281524457809395,-0.6082960512448898,0.43136792230390264,-0.6548389461129441
-6812.950697183609,-2836.0,-496.0,-15964.0,-120.0,62.0,-724.0,0.07257712754751565,-0.6321487338723204,0.3997829332130717,-0.6597682510792154
-6812.9662873744965,-3056.0,-696.0,-15932.0,-278.0,104.0,-901.0,0.0017382253597396547,-0.657272674492368,0.36563404244297815,-0.6590154451490913
-6812.981887102127,-3040.0,-1044.0,-16052.0,-43.0,31.0,119.0,0.005161492509830857,-0.6518273449238873,0.37504425664766067,-0.6591178020355318
-6812.997525691986,-3176.0,-968.0,-15808.0,51.0,96.0,367.0,0.026051703185351813,-0.634085206529625,0.3929462955555816,-0.6654701108468889
-6813.013199329376,-3364.0,-908.0,-15828.0,-22.0,232.0,433.0,0.04201695289635025,-0.6054206134673187,0.4184713292194381,-0.6757086673112003
-6813.028797388077,-3136.0,-736.0,-15756.0,-46.0,85.0,556.0,0.0692082357572414,-0.5797280369130977,0.45047811930718706,-0.6754221549118121
-6813.044381380081,-3064.0,-576.0,-15976.0,132.0,32.0,595.0,0.10955809941980642,-0.5530216281472774,0.4724860931885849,-0.6774370770752383
-6813.059992551804,-3284.0,-292.0,-15904.0,102.0,180.0,-200.0,0.09520684128574979,-0.5496257465834152,0.45855471941888953,-0.6917909838698948
-6813.075577735901,-3340.0,-448.0,-15928.0,-102.0,226.0,-847.0,0.030053670610409672,-0.5691899024898943,0.4248815411224532,-0.7032747029431633
-6813.091175317764,-2892.0,-840.0,-15960.0,-64.0,284.0,-661.0,-0.024151135814716115,-0.5754607480670547,0.39610206198217285,-0.7150977601464262
-6813.10680770874,-3188.0,-904.0,-15980.0,85.0,167.0,-123.0,-0.03328253433947733,-0.5695335960171419,0.3843571996327992,-0.7258052762319638
-6813.122418165207,-2992.0,-664.0,-16012.0,-126.0,212.0,-656.0,-0.08800463502909635,-0.5768459207297194,0.35860622170099277,-0.7286326548461962
-6813.138012170792,-3136.0,-568.0,-16028.0,-211.0,126.0,-909.0,-0.15978284785195812,-0.5938481116484841,0.32435083996961306,-0.7187561439284217
-6813.153601408005,-2972.0,-904.0,-16000.0,-411.0,68.0,-850.0,-0.2354539681467515,-0.6060446106787474,0.30423161443938146,-0.696214394800051
-6813.169171333313,-2828.0,-1064.0,-16104.0,-212.0,-44.0,176.0,-0.23464543233062488,-0.5997121163326614,0.32735364164531733,-0.691466913099769
-6813.184748649597,-2840.0,-936.0,-15968.0,-225.0,4.0,157.0,-0.23690351930663164,-0.5904049331688624,0.34909757648857853,-0.6880622206747037
-6813.200385808945,-3292.0,-812.0,-16028.0,-386.0,-84.0,32.0,-0.2520689531123654,-0.5863304866611774,0.37557323052012587,-0.6720286837666821
-6813.216098070145,-3060.0,-856.0,-16096.0,-414.0,-75.0,469.0,-0.24282210425953393,-0.5655751652419205,0.4250011471266868,-0.6637289982255911
-6813.231711626053,-3196.0,-784.0,-16040.0,-267.0,-189.0,560.0,-0.21610435846972956,-0.5493775544983143,0.4715101911023375,-0.6551040745946214
-6813.247317075729,-3320.0,-464.0,-15912.0,-380.0,-45.0,5.0,-0.23195913114351227,-0.5444245333304041,0.4942082792611317,-0.6368320545456784
-6813.262887001038,-3104.0,-628.0,-15996.0,-308.0,-82.0,-134.0,-0.2502831451296104,-0.5484200190568902,0.506550903094632,-0.616441410464679
-6813.278459310532,-3008.0,-632.0,-16072.0,-122.0,-25.0,-115.0,-0.2610613246972224,-0.5522659158542655,0.5082618013490637,-0.6070578919859173
-6813.294027805328,-3312.0,-744.0,-15944.0,-183.0,11.0,-236.0,-0.28265614536752254,-0.5579323469531671,0.5063206056661138,-0.5936804224388776
-6813.309652805328,-2940.0,-572.0,-15964.0,-147.0,-255.0,497.0,-0.25234919768980063,-0.54500504613719,0.5438878205821301,-0.5860677612125871
-6813.325239181519,-3104.0,-748.0,-15944.0,99.0,12.0,274.0,-0.23399579795173198,-0.5335225298914759,0.5515760626328559,-0.5969619114898098
-6813.34085726738,-3000.0,-452.0,-15940.0,-112.0,19.0,-349.0,-0.25806076666798494,-0.5468937287172896,0.5406597807420234,-0.5848067130979422
-6813.356440782547,-3108.0,-664.0,-15884.0,-126.0,81.0,-497.0,-0.2928377339082025,-0.562927760284585,0.5211727024138496,-0.570734099698918
-6813.372064113617,-3040.0,-828.0,-15904.0,241.0,91.0,25.0,-0.28368541965351163,-0.5634135969169635,0.5080996702097579,-0.5864489974565867
-6813.387654781342,-3112.0,-804.0,-16000.0,110.0,-76.0,562.0,-0.24570160674012723,-0.5445546596212067,0.5314650238378968,-0.6005296591902313
-6813.403230190277,-3288.0,-812.0,-15908.0,214.0,-390.0,1431.0,-0.14112052021835408,-0.4990854530632074,0.5917369416978109,-0.617127297357778
-6813.418857574463,-2940.0,-1168.0,-16064.0,1316.0,-541.0,2483.0,0.07563522834891317,-0.40390346213797934,0.6169003242542979,-0.6712490561933803
-6813.434421539307,-3104.0,-300.0,-15712.0,1532.0,-398.0,1297.0,0.2235261365147005,-0.3419646197428083,0.561581212383548,-0.7195295734275224
-6813.450036048889,-3336.0,184.0,-15720.0,-64.0,29.0,-1198.0,0.14416085763307665,-0.39801302338768524,0.527763705575185,-0.736388994633841
-6813.465607643127,-3568.0,-948.0,-15924.0,-394.0,121.0,-1531.0,0.02627239648789214,-0.46141255856582625,0.49692012728970547,-0.7344920687624228
-6813.481174230576,-2744.0,-1324.0,-16184.0,485.0,59.0,930.0,0.10245757793654153,-0.41458323378746575,0.5015202638643581,-0.7523965788858489
-6813.496745347977,-2964.0,-616.0,-15880.0,512.0,358.0,677.0,0.14929572237682964,-0.35584722034196475,0.49422736824678254,-0.7789883513447022
-6813.512316226959,-3632.0,-344.0,-15944.0,-71.0,352.0,-1272.0,0.04514414214917972,-0.3852558937048337,0.4613245937284535,-0.7979470671771292
-6813.5279223918915,-2872.0,-656.0,-16052.0,-546.0,652.0,-1843.0,-0.1258195356542113,-0.40995332208470664,0.4334347993598136,-0.7926171792633501
-6813.543501615524,-3148.0,-1304.0,-15896.0,-16.0,369.0,-613.0,-0.18233072099515513,-0.40679179158834067,0.4079908398292189,-0.796755559185616
-6813.559072732925,-3012.0,-912.0,-16004.0,-161.0,359.0,-260.0,-0.21865254014485677,-0.388353836284724,0.40412076814543507,-0.7987858093911556
-6813.57465839386,-3272.0,-812.0,-15772.0,-317.0,315.0,-755.0,-0.2922068305073455,-0.38599639800271496,0.3936925994908577,-0.7814269550251721
-6813.590242385864,-3328.0,-908.0,-16012.0,-376.0,49.0,-643.0,-0.34957678857567054,-0.39447774859469903,0.39580601388579195,-0.7520112859024247
-6813.605835199356,-2880.0,-820.0,-15916.0,-190.0,144.0,-374.0,-0.38525305033223545,-0.3920218112977787,0.39092870921197015,-0.7382910882506843
-6813.621445655823,-3324.0,-824.0,-15756.0,-170.0,100.0,-363.0,-0.4174968729251969,-0.39215704433350645,0.3860638630399388,-0.7230932908912721
-6813.637042045593,-3096.0,-516.0,-15900.0,-196.0,172.0,-280.0,-0.4473189969765269,-0.3835564796441049,0.3825775318942345,-0.7116351410355247
-6813.652649641037,-3120.0,-964.0,-15932.0,-22.0,21.0,289.0,-0.4305587831978906,-0.37179206842014323,0.3928852282993951,-0.7225171205273656
-6813.668240070343,-3312.0,-744.0,-15972.0,32.0,101.0,9.0,-0.43229198423598403,-0.366463783915835,0.38756675555412845,-0.7270625457501234
-6813.6838121414185,-3140.0,-744.0,-15856.0,5.0,110.0,78.0,-0.4307695338227162,-0.3571733497071926,0.3857880344043465,-0.7335069185082946
-6813.699377536774,-3136.0,-888.0,-15624.0,7.0,372.0,-439.0,-0.47048563790278713,-0.34812623628478734,0.35744959298676576,-0.7277919871852061
-6813.714949607849,-3864.0,-1312.0,-16068.0,162.0,-102.0,302.0,-0.4428744658719575,-0.3518191650033002,0.360575592769569,-0.7416675296343253
-6813.7305562496185,-2836.0,-1032.0,-15864.0,98.0,134.0,980.0,-0.3791247725084325,-0.31507888615685237,0.3779496309671828,-0.7836732602432961
-6813.746179103851,-3120.0,-812.0,-15844.0,258.0,-41.0,1135.0,-0.29145826980352174,-0.2876427174603392,0.3910982298456134,-0.8242305009321098
-6813.761790275574,-2940.0,-256.0,-15680.0,240.0,234.0,-280.0,-0.3132622600058353,-0.28639887767031535,0.36084765355870124,-0.8304404916948592
-6813.7773694992065,-3544.0,-824.0,-16024.0,-393.0,-98.0,-970.0,-0.38858439718647253,-0.3121190365294114,0.366482147712072,-0.7856683197810158
-6813.792954206467,-2508.0,-1248.0,-16164.0,-167.0,-234.0,16.0,-0.38433535900093296,-0.3220311642301677,0.3864249584918025,-0.7741175702312897
-6813.808529853821,-2672.0,-824.0,-15944.0,162.0,-139.0,1076.0,-0.3009322568106495,-0.2993467239117379,0.40875172760953443,-0.8079315199138972
-6813.824109792709,-2796.0,-160.0,-16108.0,-243.0,-80.0,-82.0,-0.31004452729688303,-0.3015818387916102,0.42597076364307257,-0.7946506742749679
-6813.839720010757,-3028.0,-660.0,-15908.0,-421.0,-9.0,-610.0,-0.36224760861547833,-0.31295645699098845,0.4386872557062142,-0.7605185190124996
-6813.85530257225,-2972.0,-716.0,-16204.0,-79.0,-157.0,59.0,-0.35433219769907276,-0.3187015677781114,0.45068873128635706,-0.7548229407357815
-6813.8708753585815,-3208.0,-604.0,-15900.0,-45.0,-94.0,54.0,-0.3482099289103686,-0.3214812037352659,0.45827867918345694,-0.7519177702774597
-6813.8864550590515,-3116.0,-640.0,-15904.0,-118.0,-46.0,-290.0,-0.3684691184392089,-0.3325046791251041,0.4593490828450221,-0.7366610938593001
-6813.90204167366,-2864.0,-892.0,-15824.0,32.0,62.0,-336.0,-0.3913464000112094,-0.3429879312916204,0.4455884771080722,-0.7284628907879044
-6813.917679786682,-3396.0,-1048.0,-15772.0,62.0,-46.0,-114.0,-0.39480871604387996,-0.3525627609554577,0.44001056506200553,-0.7254076646666082
-6813.933382511139,-3196.0,-1296.0,-15672.0,-39.0,60.0,409.0,-0.3720611555566542,-0.3316253957511267,0.4529343160546032,-0.7392195876455822
-6813.948963880539,-3208.0,-1404.0,-15808.0,477.0,249.0,1785.0,-0.24955124000627504,-0.2572255555937584,0.45993475292870123,-0.8124156665212873
-6813.964559078217,-3704.0,-1004.0,-15716.0,223.0,49.0,639.0,-0.20076679060440705,-0.232625084567971,0.4568693150884216,-0.8347746371032047
-6813.981873035431,-3380.0,-576.0,-15888.0,-73.0,125.0,-153.0,-0.21826829092910874,-0.22837136514321732,0.45708673046888126,-0.8314308110641423
-6813.9976263046265,-3400.0,-1284.0,-15936.0,324.0,-71.0,499.0,-0.1724559241944235,-0.21955053099151758,0.4445452016740526,-0.8511381099564077
-6814.013294696808,-3548.0,-1168.0,-15748.0,107.0,-110.0,531.0,-0.12647612492685317,-0.20854297443871592,0.4481847054137373,-0.8600256318674123
-6814.028899431229,-3020.0,-1140.0,-15944.0,207.0,-61.0,1731.0,0.009543389019443186,-0.146076920842208,0.4598055338244272,-0.875870611441962
-6814.044545650482,-2844.0,-452.0,-16076.0,859.0,-166.0,2059.0,0.18114797920429254,-0.07406100624159438,0.4127572348590607,-0.8895683459162572
-6814.060138702393,-3512.0,84.0,-16024.0,682.0,22.0,-1251.0,0.08699173158602706,-0.10579012861169008,0.34968985752331816,-0.9267998116472124
-6814.075768709183,-3220.0,-148.0,-16016.0,174.0,182.0,-2637.0,-0.1268680062329244,-0.16585068063331246,0.30492481131682736,-0.9292033793370249
-6814.091372966766,-2964.0,-1288.0,-15656.0,463.0,66.0,-1038.0,-0.2050386309388533,-0.19235883029919718,0.25070035606471885,-0.9263404189053116
-6814.106956481934,-2720.0,-1328.0,-15912.0,1236.0,156.0,634.0,-0.1353973235051708,-0.18671863425068774,0.15776131452463982,-0.9601640922522835
-6814.122639656067,-3732.0,-1028.0,-16032.0,1469.0,-83.0,777.0,-0.04469289409943127,-0.19837356704478365,0.048095416581591395,-0.9779249991787657
-6814.138226270676,-2836.0,-924.0,-16020.0,979.0,247.0,-59.0,-0.03366074984794709,-0.18092063665671984,-0.03712749233626977,-0.9822200499196814
-6814.153797864914,-3060.0,-1068.0,-15980.0,1576.0,-222.0,818.0,0.05991055179074559,-0.20504181843430966,-0.1567865681012534,-0.9642544013590557
-6814.16938495636,-2880.0,-776.0,-15760.0,1111.0,93.0,-789.0,0.014543937905367866,-0.1795440109207127,-0.26227949030865,-0.9480305327235735
-6814.184952497482,-3768.0,-1436.0,-16108.0,1060.0,-356.0,-187.0,0.007463791861306454,-0.20246445440377642,-0.3519233754071647,-0.9138393591633379
-6814.2005388736725,-2792.0,-1476.0,-15940.0,1344.0,-166.0,481.0,0.06394867267990484,-0.22791109556707542,-0.44747592247050294,-0.8623992106843943
-6814.216133594513,-3064.0,-1236.0,-16000.0,1905.0,-364.0,1482.0,0.19474921378224813,-0.29598284081239185,-0.5512787678847718,-0.7553533092237502
-6814.231766462326,-3008.0,-704.0,-15652.0,1634.0,-95.0,184.0,0.24194715964430547,-0.2805257777890475,-0.6493933102537539,-0.664119860065617
-6814.247354269028,-3484.0,-1012.0,-15896.0,1753.0,-208.0,-369.0,0.24851774312338096,-0.23185544378504094,-0.7553117629022835,-0.5603446487310713
-6814.262932300568,-2968.0,-1100.0,-15984.0,2241.0,-41.0,44.0,0.2877186476151535,-0.1846868766193767,-0.8489603644383255,-0.40295786011918416
-6814.278517246246,-3236.0,-1036.0,-15876.0,2900.0,-83.0,240.0,0.32618896130451885,-0.12849952898356046,-0.9200438844912464,-0.17495108797701134
-6814.29408621788,-3280.0,-612.0,-15820.0,3339.0,252.0,-758.0,0.3563642589077,0.02993672656861396,-0.9315337233860623,0.0659790085559113
-6814.309692144394,-3240.0,-700.0,-15720.0,3852.0,664.0,-1024.0,0.3827849792689824,0.21611656190747305,-0.8357253954640887,0.3291388076355181
-6814.325343847275,-3092.0,-712.0,-16128.0,5249.0,1079.0,-436.0,0.33930300003894226,0.35516595646350874,-0.5801977517616564,0.6496931478664786
-6814.340921640396,-3432.0,-108.0,-16052.0,5923.0,1143.0,-1244.0,0.2501741416978141,0.46584999131096627,-0.15166614457200392,0.8351012303978473
-6814.356535196304,-1120.0,712.0,-16428.0,6358.0,2957.0,-3909.0,0.25855371885686035,0.3613435911909028,0.43826722772106574,0.7813466712517825
-6814.37210226059,2692.0,288.0,-18156.0,9162.0,8035.0,2329.0,-0.3368745466489106,0.07427483831775929,0.7944740422266047,0.4998097482453508
-6814.387688398361,-9248.0,-844.0,-16440.0,11586.0,5246.0,-3924.0,-0.39427041078933905,-0.50059799548849,0.7640786548779075,-0.10067918975080721
-6814.4033081531525,-7100.0,1312.0,-17568.0,8466.0,2423.0,-6052.0,-0.17471080242458797,-0.8588092676385196,0.2501035705161061,-0.4115470584871692
-6814.418900966644,-1524.0,56.0,-21068.0,6667.0,6700.0,-4140.0,0.022405690348604936,-0.6022171152744598,-0.29856105162230373,-0.7400633956389779
-6814.434507369995,-6216.0,-2844.0,-24172.0,7676.0,7208.0,-6145.0,0.14845083538394718,0.02620689317190906,-0.755637373510062,-0.6374070190850579
-6814.450092554092,-9272.0,-2808.0,-23160.0,12017.0,1915.0,4090.0,0.31602556885101984,0.012504134938275163,-0.9380427717836318,0.14158829311181043
-6814.4656801223755,-4792.0,504.0,-19136.0,11063.0,2826.0,-7301.0,0.40370407175996176,0.5684583578340243,-0.46200722612659295,0.5481126169500965
-6814.4813396930695,-4508.0,3052.0,-15960.0,6503.0,2163.0,3322.0,0.0077234204195684745,0.4666891329596255,-0.19957800799313805,0.8615742688125653
-6814.49693441391,-9276.0,4868.0,-16148.0,5653.0,-813.0,186.0,-0.22434742645096303,0.4730126028359097,0.1945271698854294,0.8295097889594751
-6814.51256108284,-4672.0,6412.0,-14948.0,4547.0,-1227.0,-2162.0,-0.21372827655293453,0.39746762350190457,0.5805386314203581,0.6777275333775649
-6814.528166055679,-5752.0,9588.0,-13864.0,-380.0,-2386.0,-106.0,-0.0716222601166616,0.5286243279171252,0.5933817769847873,0.6027641649371046
-6814.5437541008,-7892.0,6552.0,-14240.0,-8006.0,-1771.0,-8042.0,0.573959696530088,0.18036107915139998,0.3916143427053817,0.6961884475297355
-6814.559329032898,-5868.0,2500.0,-14628.0,-10424.0,-3891.0,1314.0,0.565772673881972,-0.04320532473503386,-0.3267684836392362,0.7558154136448253
-6814.57489657402,-7256.0,-452.0,-15168.0,-9964.0,-4945.0,1762.0,0.19313916974094092,-0.18504245855527265,-0.8712027644059905,0.4116579805311204
-6814.590472459793,-6148.0,920.0,-15532.0,-9025.0,-7435.0,5052.0,-0.4678209885814214,-0.3037461409455909,-0.8286867939654369,-0.046475821785617814
-6814.606041669846,-4736.0,1940.0,-15968.0,-11632.0,-6921.0,1371.0,-0.8187937799367574,0.02824571709907783,-0.2981981739267717,-0.48975174779593644
-6814.621644973755,-4684.0,260.0,-16844.0,-12128.0,-8140.0,2046.0,-0.5603652402961659,0.302971194062105,0.4886696832036842,-0.5961553436429244
-6814.637253046036,-4100.0,244.0,-17324.0,-12112.0,-8682.0,1441.0,0.12473085612350777,0.30702890513351344,0.9148638346874622,-0.2306504474831228
-6814.652882814407,-4208.0,-140.0,-17244.0,-13272.0,-8549.0,-405.0,0.678082670187375,-0.02453137070605988,0.645903429346868,0.34987263997174295
-6814.668502569199,-4080.0,-720.0,-17216.0,-13209.0,-9248.0,1450.0,0.6509847274317082,-0.25545050662815183,-0.1740623651867364,0.6933009565402923
-6814.68409204483,-3560.0,-308.0,-17080.0,-13700.0,-9504.0,638.0,0.09200740471258417,-0.2653265915556252,-0.8653583776554512,0.4150798905187467
-6814.699699640274,-1736.0,-576.0,-17224.0,-14832.0,-7956.0,-957.0,-0.45959366867669277,-0.013501122092967444,-0.836820864252266,-0.29719054589037597
-6814.715328454971,-2216.0,-2168.0,-16936.0,-14525.0,-7684.0,627.0,-0.5840336091564938,0.1852746751679388,-0.08655859588073092,-0.7855479919115134
-6814.730921030045,-1332.0,-3004.0,-16584.0,-13912.0,-7177.0,2601.0,-0.13757856674112193,0.2242206441372854,0.6971468558392772,-0.6669209114351788
-6814.746511697769,-3308.0,-1344.0,-16320.0,-13427.0,-6918.0,5543.0,0.5038894232830072,0.18569176125023426,0.843037678055441,-0.030024861135314943
-6814.762094497681,-4096.0,-1092.0,-16448.0,-13501.0,-6808.0,5903.0,0.7144771355182302,0.004891926306376161,0.2789330473940312,0.6416345119693582
-6814.777663707733,-4508.0,-1396.0,-16364.0,-13535.0,-7088.0,5524.0,0.33633497650977934,-0.17741774657435264,-0.5320152452050046,0.756545772340381
-6814.7932415008545,-3676.0,-1992.0,-15896.0,-13453.0,-5741.0,3274.0,-0.2154256318287262,-0.20974803901048922,-0.934121883561353,0.1923898748225554
-6814.808852672577,-3992.0,-2488.0,-15664.0,-13195.0,-4723.0,2068.0,-0.551173419029911,-0.032076437867563416,-0.6472200740529007,-0.5256283287947522
-6814.824500322342,-3440.0,-4160.0,-14880.0,-11993.0,-3354.0,971.0,-0.4932479115435419,0.2272837421772676,0.045109345009565496,-0.8384591494477471
-6814.840094566345,-2656.0,-4620.0,-13912.0,-9381.0,-4511.0,3418.0,-0.02842957421716391,0.2274990906445316,0.6201016068667095,-0.7502732303814837
-6814.855710744858,-2792.0,-1492.0,-13892.0,-7760.0,-3544.0,2892.0,0.3983780977637451,0.13468414484060498,0.8487912074152925,-0.32048176011309104
-6814.871302127838,-4432.0,1352.0,-14848.0,-7251.0,-3969.0,1072.0,0.6529181425724275,-0.12042039102046172,0.7287376324328692,0.1677447215336053
-6814.886887788773,-3596.0,1024.0,-14468.0,-7906.0,-2910.0,-4086.0,0.6307567136142099,-0.6103487281920584,0.31326302761708846,0.36261091234698617
-6814.902455806732,-5012.0,-708.0,-13816.0,-7734.0,-3016.0,-4947.0,0.3498416231861772,-0.8225825801484542,-0.27580925033557124,0.3534091042292245
-6814.918184041977,-4744.0,-1572.0,-13544.0,-7382.0,-2183.0,-4957.0,-0.062467473641537964,-0.6729841804320781,-0.7233252517412498,0.14138842887048908
-6814.933829307556,-4868.0,-2624.0,-13720.0,-5499.0,-2022.0,-792.0,-0.4473095604929098,-0.5047999302681031,-0.7346648762674506,-0.07320319031223693
-6814.94944190979,-3124.0,-2592.0,-14900.0,-1823.0,-2128.0,313.0,-0.6426703737909895,-0.45383751883888734,-0.6082119550528926,-0.10528302273515233
-6814.9650411605835,92.0,-756.0,-13808.0,-1116.0,592.0,2399.0,-0.6161569609351553,-0.4994788638765993,-0.5219196516349842,-0.31380143605297844
-6814.980721473694,-9156.0,732.0,-12828.0,-1548.0,-935.0,-3647.0,-0.7783057901893216,-0.2598704437734916,-0.5544866340376455,-0.13875165614992394
-6814.996314764023,-3976.0,144.0,-14052.0,-2388.0,581.0,-3141.0,-0.7954035204554719,0.057848894765384504,-0.601146972774219,-0.05107897949115387
-6815.011927843094,-4368.0,-16.0,-14032.0,175.0,-47.0,4059.0,-0.7356045365312249,-0.15777945410247232,-0.5838028338452947,-0.30523083214513363
-6815.027523517609,-6552.0,2812.0,-13932.0,-580.0,513.0,-1719.0,-0.7529494482334481,-0.019100657266205988,-0.6168980705976311,-0.2283397989616905
-6815.043087005615,-5368.0,2668.0,-14468.0,-789.0,1071.0,477.0,-0.6817427622684952,0.028165218839546098,-0.6659370551581549,-0.3015980190742757
-6815.058671712875,-7036.0,1672.0,-14536.0,-430.0,769.0,-931.0,-0.656216414962107,0.1273088205306585,-0.6939688998564996,-0.26754372910111773
-6815.074273824692,-3748.0,-548.0,-15416.0,1243.0,2322.0,-2585.0,-0.5611404269033685,0.2540724233241015,-0.7875681207698715,-0.0174665436746065
-6815.089868307114,-4000.0,-1872.0,-15652.0,3269.0,2333.0,-2405.0,-0.44127420776411547,0.24337418166074765,-0.7902195861845842,0.3487106061957079
-6815.105499267578,-5088.0,-1492.0,-15676.0,2591.0,3368.0,-7061.0,-0.039814048346223235,0.42870562139429946,-0.5612662490800667,0.7068285006865561
-6815.121136665344,-3196.0,-2772.0,-16616.0,5550.0,3505.0,-3804.0,0.13244708413985665,0.3165936094358713,-0.07422670278289384,0.9363314866868446
-6815.136731147766,-140.0,-1984.0,-16992.0,7528.0,7206.0,-10895.0,0.5212683398120332,-0.06919871588252544,0.5598291660339708,0.6403765770915771
-6815.152316093445,1840.0,-1532.0,-18116.0,6167.0,5923.0,-8549.0,0.5136265094613389,-0.3695955179209997,0.7720812904795875,-0.05896984655435277
-6815.167927503586,-25552.0,14832.0,-25504.0,11885.0,-7362.0,11285.0,0.7802234958940039,0.4762854975139854,0.40062128122940793,-0.06249808268181067
-6815.1835379600525,-3008.0,14208.0,-28360.0,12876.0,10694.0,-13538.0,-0.0952693482663612,0.44083231604274836,0.7617690355556678,-0.4650790866958833
-6815.199127674103,-3528.0,32.0,-17548.0,-4074.0,16718.0,-32768.0,-0.7038210573471632,-0.30315087662877693,0.6059622873999577,0.21341314739944278
-6815.214739084244,-22756.0,-15280.0,-9220.0,-4448.0,3132.0,-6474.0,-0.6971830772984524,-0.3465256715628796,0.12821582996506053,0.6143422634191189
-6815.230325460434,4132.0,-12452.0,-17628.0,9272.0,7213.0,17597.0,-0.6861386419503436,-0.5240930497359416,0.3422277041166187,-0.37070262715023494
-6815.245973348618,-956.0,-1392.0,-9332.0,16248.0,2174.0,21967.0,0.2711202989006652,-0.2972955100033991,0.2666233680057469,-0.8757974325659473
-6815.261557340622,-11436.0,6720.0,-14948.0,2361.0,1000.0,-10909.0,-0.37518655228167813,-0.29941336018282094,-0.12377829759590611,-0.8684846710076575
-6815.277163505554,1140.0,3660.0,-19348.0,4781.0,4324.0,-5391.0,-0.4935935742279992,-0.05667593058864229,-0.6198622021907927,-0.6073912023300312
-6815.292755842209,-9352.0,5660.0,-15740.0,2295.0,2836.0,-17137.0,-0.677096406933163,0.5045109196104799,-0.5192428792113312,0.13189397294916555
-6815.308350563049,-2488.0,312.0,-14944.0,-3283.0,4005.0,-13885.0,-0.11686511365416956,0.7840033841612375,-0.11166882115139148,0.5993424006500654
-6815.323974609375,-936.0,-4952.0,-15608.0,-3529.0,5579.0,2433.0,0.04402890287543937,0.4301075443012985,-0.4429134727226548,0.7854276616770316
-6815.339558362961,-7276.0,-4184.0,-16940.0,5979.0,928.0,18368.0,-0.7155062989278037,-0.16334606702251683,-0.3666113368837679,0.5718084699015994
-6815.3551433086395,-4624.0,3016.0,-16080.0,6447.0,2705.0,1000.0,-0.4996063580856032,-0.6240029261643426,-0.17007516692543923,0.5762710062930999
-6815.3707280159,-6544.0,7880.0,-14080.0,2523.0,2698.0,-7175.0,0.03161649029862767,-0.6241705337005812,-0.45090258604370087,0.6372585035134734
-6815.3863179683685,-5904.0,1936.0,-14260.0,-2638.0,4567.0,-18047.0,0.5574565028021103,-0.0913499146012732,-0.8160748655444936,0.12214439984099784
-6815.401947975159,-3292.0,-2300.0,-15792.0,-2478.0,3040.0,-5772.0,0.6965243134446393,0.14239717206458893,-0.6327316645849813,-0.306965090523337
-6815.417532920837,-2660.0,-5224.0,-16752.0,93.0,4142.0,1311.0,0.8967946947673759,0.1745184570857292,-0.37399235326659885,-0.15947508668007418
-6815.433140039444,-1576.0,-1448.0,-16084.0,3433.0,3220.0,9169.0,0.8008119818672167,0.1404237067257161,-0.23024784505046852,0.5347590879423427
-6815.448721885681,-508.0,3148.0,-16112.0,2671.0,6356.0,6738.0,0.4448718030945877,-0.08010021327545298,0.19578748809033228,0.8702530058275441
-6815.464299201965,-8572.0,4060.0,-15768.0,-824.0,3176.0,-6637.0,0.7465409073867092,-0.392088602618029,0.17670227623104678,0.5076608187264772
-6815.479861497879,-524.0,260.0,-16836.0,-681.0,4532.0,-4906.0,0.751092886651312,-0.6152677455601661,0.23643753551270058,0.03744821351934629
-6815.495436191559,-5244.0,-896.0,-16048.0,767.0,2070.0,-1514.0,0.7345320194623534,-0.5873878061303116,0.2857841338328027,-0.18375447326095576
-6815.5110404491425,-3796.0,-396.0,-15924.0,105.0,2234.0,-2087.0,0.6285345492458014,-0.5768772682303078,0.3096357060456778,-0.4198602950328945
-6815.526666164398,-3280.0,-1452.0,-16164.0,308.0,1913.0,2290.0,0.654062876935159,-0.41424821154022795,0.5018100914875776,-0.3857289259729619
-6815.542232751846,-3344.0,-364.0,-16588.0,1220.0,1052.0,2309.0,0.7085913401707103,-0.20220335152114002,0.5870233750363859,-0.33528446792177163
-6815.557813405991,-44.0,1112.0,-16260.0,1076.0,3652.0,1968.0,0.5599804916307676,0.06737377289026586,0.7645775618398158,-0.311935531240956
-6815.573393821716,-6148.0,1416.0,-15376.0,352.0,2225.0,-1724.0,0.3517346671614707,0.029302119802342683,0.8484117548135478,-0.3944890416552721
-6815.588975906372,-1820.0,192.0,-16356.0,821.0,2176.0,-378.0,0.17175848622420203,0.09936758424482448,0.8698612368468532,-0.45162654288978765
-6815.604557275772,-3744.0,648.0,-15672.0,843.0,2068.0,-815.0,-0.024162272603877717,0.12895656562555344,0.8566166697321732,-0.49899325636890063
-6815.62015748024,-2832.0,56.0,-16264.0,1195.0,1482.0,-257.0,-0.15732713477404403,0.1694570042136383,0.7934569418544689,-0.5629907439822459
-6815.63575553894,-2736.0,412.0,-15820.0,1357.0,1545.0,-519.0,-0.30459966379306236,0.1876896763373056,0.7015445104316343,-0.6163010060812728
-6815.651347875595,-2892.0,136.0,-15964.0,946.0,1428.0,-1663.0,-0.4863966019297258,0.13474084964220825,0.6267192685947993,-0.5937054888081391
-6815.666925430298,-2988.0,-568.0,-16012.0,1244.0,1146.0,-94.0,-0.562325145784142,0.13481041910238298,0.5094458731395695,-0.637245230395132
-6815.682491779327,-3092.0,-264.0,-16164.0,1024.0,689.0,405.0,-0.5786552495903502,0.14011310494186216,0.41155050779993674,-0.6900381145086801
-6815.6980657577515,-2188.0,-136.0,-16052.0,1297.0,895.0,526.0,-0.5887424667404707,0.14602487093581298,0.27917356599419607,-0.7443931521545647
-6815.713627338409,-2436.0,524.0,-16312.0,1755.0,571.0,368.0,-0.5931126660618156,0.10077800961449007,0.12964045591361983,-0.7881969996934114
-6815.729233264923,-1900.0,960.0,-15924.0,682.0,655.0,-1745.0,-0.7158563416388963,0.089741626879179,0.06338332246596327,-0.6895496305369396
-6815.744854450226,-2292.0,-104.0,-15936.0,69.0,1089.0,-2784.0,-0.8610694689526865,0.13148457818573922,0.012612498050916595,-0.49103166927375724
-6815.760448217392,-2116.0,-1100.0,-15880.0,1120.0,979.0,-959.0,-0.9053231915152662,0.08750718203043563,-0.09683868718221549,-0.40417159804039887
-6815.776051998138,-3736.0,-888.0,-16320.0,1094.0,899.0,-851.0,-0.9264622699994056,0.039774447121394996,-0.19814469351463126,-0.3175284807001237
-6815.791626691818,-2828.0,-728.0,-16180.0,812.0,899.0,-1224.0,-0.9370442630974627,0.020076465871165235,-0.2861597717662863,-0.19914208379175855
-6815.807281255722,-2832.0,-1200.0,-15968.0,818.0,735.0,-603.0,-0.9249701817963912,-0.018801480186634443,-0.35758193782687353,-0.12732566461762712
-6815.8229031562805,-2692.0,-568.0,-16004.0,421.0,497.0,-1666.0,-0.9160578583786456,0.0046775506849488216,-0.40055609371644046,0.019259709471980982
-6815.838506698608,-2296.0,-976.0,-16116.0,-192.0,662.0,-1449.0,-0.8816542541518726,0.06891085236928818,-0.4491146268276752,0.12740927176261946
-6815.854085922241,-2260.0,-1492.0,-16212.0,-240.0,162.0,354.0,-0.8769464836700872,0.0717023173195136,-0.4662863091548198,0.09165544372516589
-6815.869657278061,-2536.0,-920.0,-15928.0,214.0,-36.0,1134.0,-0.8841929378547453,0.009473012661121062,-0.4668370114822966,0.013278380518536819
-6815.885224580765,-2624.0,-76.0,-16072.0,-241.0,174.0,-237.0,-0.8759917634785463,0.03750565461825167,-0.48036776901085615,0.021876075629219668
-6815.900794029236,-3288.0,-756.0,-16004.0,-280.0,-10.0,-780.0,-0.87157150845051,0.09141477954425006,-0.47662296345768473,0.06954850424698841
-6815.916385650635,-2320.0,-372.0,-16308.0,128.0,217.0,-387.0,-0.8603578925362759,0.09642892584395991,-0.48914571848154154,0.10593500414072166
-6815.93211555481,-2832.0,-560.0,-15840.0,-243.0,220.0,-1183.0,-0.8330539773684752,0.16225261033699204,-0.49539511969824196,0.18514544717211107
-6815.947780847549,-2704.0,-516.0,-16136.0,174.0,273.0,-925.0,-0.805664481388172,0.18457678887606965,-0.4977841514259996,0.2627681316804304
-6815.963370323181,-1812.0,-436.0,-16376.0,813.0,155.0,1008.0,-0.8296286325165116,0.07964835681577279,-0.5032959418218151,0.22817902250431024
-6815.978965997696,-1996.0,-1436.0,-16224.0,1417.0,-22.0,829.0,-0.8481430234235893,-0.058260479498572174,-0.4746885246884357,0.2278814008988136
-6815.994644403458,-3056.0,-256.0,-16052.0,540.0,120.0,-695.0,-0.823984143564903,-0.0716471044541232,-0.47522255552757237,0.3001338806179611
-6816.010225772858,-2128.0,-716.0,-16536.0,535.0,-77.0,-864.0,-0.797909492579726,-0.07202286843657503,-0.4595492489164191,0.3833635818562935
-6816.0258231163025,-2712.0,-264.0,-15996.0,252.0,129.0,-2473.0,-0.6921490125228723,0.005111987184727827,-0.4650827574078675,0.5519072755568011
-6816.041388750076,-3072.0,-1452.0,-15848.0,-130.0,-120.0,-1402.0,-0.6245979665913691,0.07506062817991553,-0.46027292177960816,0.6264121005405515
-6816.056987047195,-3188.0,-1544.0,-16060.0,149.0,-114.0,-38.0,-0.6278966670209714,0.0747015372747722,-0.44589410122180484,0.6335170924042538
-6816.072571277618,-2696.0,-312.0,-16216.0,147.0,-86.0,-890.0,-0.5811012570937953,0.10570948228566573,-0.4262193853312773,0.6851889300964629
-6816.0881514549255,-2620.0,-536.0,-15856.0,298.0,-338.0,-1342.0,-0.5122201301691058,0.15953774810783766,-0.37632205530422874,0.7553541923295493
-6816.103778600693,-2696.0,-320.0,-15808.0,632.0,-616.0,-935.0,-0.4765876666830426,0.20139745870802878,-0.2925784451511725,0.8041772895478231
-6816.119394779205,-3160.0,-612.0,-15764.0,611.0,-150.0,-1426.0,-0.3874962800210355,0.22098766563939273,-0.2167029117497547,0.8683610612206708
-6816.134978294373,-2944.0,-292.0,-16068.0,871.0,-45.0,-1335.0,-0.3010751571743195,0.21823955502867054,-0.12253143470882466,0.9201691658937197
-6816.150626659393,-2824.0,-952.0,-15692.0,891.0,-393.0,-2209.0,-0.1417583785983235,0.24483810837987166,0.0011398725164176945,0.9591441828384234
-6816.166220426559,-1300.0,-836.0,-15392.0,-66.0,863.0,-4583.0,0.22524218104765928,0.16049695397982813,0.07670575899463537,0.957926361562906
-6816.181801080704,-3348.0,-2292.0,-16112.0,230.0,104.0,-1584.0,0.3503434115146585,0.14451840900335566,0.11915613357306115,0.9177013344761618
-6816.197372913361,-2748.0,-2116.0,-15956.0,-181.0,1092.0,-1421.0,0.44956701424008605,0.036427627087341694,0.1543504251674335,0.8790554441800995
-6816.212938308716,-3800.0,-2628.0,-15676.0,-332.0,468.0,424.0,0.4110156885728414,-0.006979197621954226,0.14586352691844556,0.8998562252173724
-6816.228563308716,-2828.0,-1500.0,-16416.0,-35.0,12.0,1367.0,0.30136639740406934,0.007970905439279669,0.14362081886235728,0.9425963184584782
-6816.244128227234,-2352.0,-912.0,-16452.0,5.0,-761.0,929.0,0.23322039139895792,0.0817521633708978,0.12299309746350906,0.9611438658162611
-6816.259743928909,-2344.0,-1936.0,-16284.0,-75.0,-1429.0,1987.0,0.08061655379339763,0.2165340680972548,0.07212549860600224,0.9702638203388628
-6816.275329113007,-1176.0,-1444.0,-15920.0,-624.0,-895.0,3279.0,-0.17197067051261836,0.2957185417250646,-0.04683364969075322,0.9385005284069293
-6816.290901660919,-2548.0,-1416.0,-15912.0,-376.0,-1903.0,4020.0,-0.4652269947488865,0.410969704190112,-0.1425087278795748,0.7709468257104097
-6816.306490898132,-1936.0,-300.0,-16160.0,-626.0,-1637.0,4070.0,-0.6872701299533541,0.46274894477591294,-0.2464682292967549,0.5027689275701126
-6816.322092294693,-3744.0,-476.0,-16352.0,-1350.0,-1536.0,2439.0,-0.7444690912914417,0.538443568463002,-0.30085436131695975,0.2555991959476555
-6816.337686538696,-2940.0,-1092.0,-16304.0,-1648.0,-1227.0,2068.0,-0.7221621241155394,0.599657493890431,-0.34425023024354023,0.019609576518877726
-6816.353339672089,-2808.0,-1000.0,-15880.0,-1372.0,-782.0,2693.0,-0.654375338634484,0.5853942637257474,-0.42295194740478254,-0.22409400342377836
-6816.368925333023,-2980.0,-372.0,-16276.0,-1517.0,-1214.0,2765.0,-0.544218239447895,0.5240848118102885,-0.44635172314279903,-0.47951199894211427
-6816.3845291137695,-2084.0,-500.0,-16164.0,-1524.0,-734.0,2242.0,-0.3973751220223748,0.4648531399852166,-0.43746969193574525,-0.6592608279590342
-6816.4000997543335,-2604.0,-132.0,-16004.0,-1642.0,-1024.0,2286.0,-0.2305149635689977,0.3636053576589512,-0.38739638508153634,-0.8152165579024067
-6816.41571688652,-3264.0,-420.0,-16032.0,-1730.0,-1909.0,1923.0,-0.0995006101252452,0.19047057039248932,-0.2764660487530052,-0.9366894438851996
-6816.431320428848,-3068.0,-104.0,-15904.0,-1855.0,-1556.0,1525.0,0.017885617861395423,0.041550853276328334,-0.13282226545914286,-0.9901070028355652
-6816.446885347366,-3264.0,0.0,-16044.0,-1872.0,-1889.0,829.0,0.07228213757686315,-0.1301698165716091,0.022107159748388193,-0.9886062840832502
-6816.462465047836,-3988.0,-96.0,-16008.0,-1990.0,-2709.0,292.0,0.07685714655150454,-0.36065311252833593,0.17293613205985822,-0.9132991873837178
-6816.47802567482,-2788.0,-264.0,-16032.0,-1922.0,-2088.0,868.0,0.11332115380021443,-0.5102372614412302,0.3287405362786818,-0.7866040382209759
-6816.493620634079,-3700.0,-28.0,-16044.0,-1963.0,-2224.0,686.0,0.13221433798800364,-0.6405538758854993,0.4563494763116331,-0.6032870431134392
-6816.509194850922,-3636.0,-484.0,-16228.0,-1700.0,-2570.0,1031.0,0.18644047018817886,-0.7258749350838684,0.5521607459252007,-0.3653273057852732
-6816.524793624878,-3116.0,-136.0,-15648.0,-1505.0,-4019.0,3481.0,0.356364736155139,-0.6402219532259241,0.6803204934270165,0.016853832082987127
-6816.540378808975,-3588.0,516.0,-15560.0,-1527.0,-3076.0,1074.0,0.431046692359861,-0.5910298801521064,0.613023090705053,0.2984713052128038
-6816.555994272232,-4068.0,-168.0,-15624.0,-2119.0,-2634.0,1204.0,0.4113988568609435,-0.5132906177687787,0.4972039258326306,0.5657490419087551
-6816.571583509445,-3936.0,-796.0,-15812.0,-1838.0,-4254.0,1663.0,0.3964319981945512,-0.27317533759763385,0.3017477956306238,0.822900463949288
-6816.587174415588,-2484.0,676.0,-15384.0,-1789.0,-3323.0,1433.0,0.3191383402071738,-0.055575245189358025,0.0874461089893513,0.9420272235740191
-6816.602786779404,-3636.0,-480.0,-15500.0,-197.0,-3715.0,3995.0,0.01636553275748204,0.2478773131446465,-0.011428892653318803,0.9685857666611014
-6816.618366956711,-6476.0,1028.0,-15432.0,-2191.0,-4081.0,-889.0,0.12472158878841352,0.5463141291076561,-0.16940389653578705,0.8107328274258602
-6816.63401055336,-2704.0,604.0,-16168.0,-2411.0,-3482.0,657.0,0.13269160382900763,0.7089389359114674,-0.38331746688344787,0.5769456152914751
-6816.649581193924,-2892.0,148.0,-15700.0,-442.0,-4760.0,4875.0,-0.21021243881859256,0.6704861014416689,-0.6548843987734384,0.2781825705946433
-6816.665156841278,-3124.0,2236.0,-15740.0,183.0,-5070.0,3874.0,-0.5281620514260694,0.4969352033849171,-0.6850491836062725,-0.06933878503821864
-6816.6807515621185,-5388.0,2236.0,-15436.0,-1992.0,-5060.0,-1280.0,-0.6757676348936873,0.5705499366096314,-0.34559624319270776,-0.3136464732083318
-6816.69631934166,-4540.0,-220.0,-16000.0,-3112.0,-4721.0,-1713.0,-0.6309962042605467,0.6014989202256499,0.0916396531397782,-0.48129514141385293
-6816.7119290828705,-4792.0,-1268.0,-15340.0,-3737.0,-4596.0,455.0,-0.3362950743151114,0.5487641892661305,0.42413519944692296,-0.6370814862798941
-6816.72753238678,-5188.0,-596.0,-15520.0,-3867.0,-4978.0,3296.0,0.18395352809358562,0.43134387715855144,0.5330774518375366,-0.7042243885880051
-6816.74311208725,-5920.0,-228.0,-15892.0,-3880.0,-5783.0,4721.0,0.7167075728828863,0.18820974413233446,0.40396865915676433,-0.536392272133976
-6816.758689403534,-5520.0,1444.0,-15744.0,-4098.0,-5234.0,3158.0,0.9393100174601459,-0.1696284347027639,0.1824538592868084,-0.23586749345906066
-6816.774255037308,-7144.0,1192.0,-15564.0,-6586.0,-5061.0,32.0,0.747360248382303,-0.6584339589040245,-0.07776348603971346,-0.04324605344845997
-6816.789844512939,-8116.0,112.0,-16144.0,-6940.0,-4700.0,871.0,0.2575766256616196,-0.9142068325425862,-0.24808258710791914,0.19061788798291535
-6816.805433511734,-6792.0,1308.0,-16480.0,-7993.0,-6636.0,4246.0,-0.42483670923532435,-0.768253219740322,-0.1367333320525874,0.4589169388359137
-6816.821027755737,-7300.0,2136.0,-16980.0,-7735.0,-6352.0,4240.0,-0.8626142849472922,-0.20168188142125282,0.05309379064377014,0.4608709835803629
-6816.836701154709,-8048.0,2756.0,-17972.0,-7523.0,-7609.0,11015.0,-0.8390105039855211,0.4314704626657507,0.30928086843783537,-0.11933129709888897
-6816.8522708415985,-3852.0,4492.0,-19804.0,-8462.0,-4934.0,9349.0,-0.18707081944499018,0.8088300679557349,0.2627309971333133,-0.4917019959571409
-6816.867869377136,-5012.0,-228.0,-19516.0,-9660.0,-4048.0,5267.0,0.5687317310004045,0.6386892622567171,0.25971471844188876,-0.4485181261174451
-6816.883446455002,-1248.0,-8184.0,-18248.0,-7964.0,-2098.0,1019.0,0.8908848913276918,0.14946977656408408,0.3326501896735781,-0.27078912018037615
-6816.899044752121,6892.0,-8904.0,-19144.0,-10252.0,-102.0,904.0,0.7802251104094068,-0.4641535803456213,0.41320017304541057,0.07124498532677564
-6816.914684057236,9152.0,-16704.0,-21100.0,-14700.0,5313.0,10284.0,-0.03701223990503988,-0.588848761016067,0.5745440119298758,0.567262204895212
-6816.930442333221,-276.0,-24232.0,-22132.0,6364.0,4135.0,32767.0,-0.49642214583939304,0.26729273390318065,0.8255929645538076,-0.022713529052777015
-6816.946047067642,-25596.0,-6200.0,-16772.0,24116.0,-6814.0,12167.0,-0.20680694530611138,0.032582733564900435,0.30016358517490405,-0.9306293972261686
-6816.961639881134,6056.0,296.0,-16876.0,32767.0,-293.0,20295.0,0.3864173440900655,-0.014560292998629225,-0.6877093585502245,-0.6144310150184581
-6816.9772436618805,-8508.0,27860.0,-6864.0,21372.0,-6102.0,7665.0,0.20071987553989942,-0.03541792592017833,-0.8893011979889205,0.40939037768642145
-6816.992880821228,476.0,12152.0,-14728.0,-10669.0,15799.0,-32566.0,0.7430376497463992,0.5057644425516115,-0.3179668325434705,-0.3016529017133394
-6817.008510828018,-704.0,-796.0,-15636.0,-8022.0,5316.0,15912.0,0.872648929465303,-0.1656685986102247,-0.24371071507338396,0.38941346753291
-6817.02407169342,-13160.0,-16548.0,-16252.0,98.0,12220.0,-12555.0,0.854205410015691,-0.16792135749047774,0.2784351327248178,-0.4057208548534246
-6817.039683103561,-5156.0,-13964.0,-17556.0,17808.0,2901.0,8184.0,0.6681691971852923,0.7314997029955681,-0.007829690800814552,-0.13563481998410748
-6817.055292606354,-6384.0,-840.0,-15160.0,16655.0,7287.0,-1166.0,-0.21512893831956506,0.9529109746907877,0.15676204790912826,0.14527861007968682
-6817.070867538452,-5364.0,-752.0,-15844.0,14798.0,4874.0,-46.0,-0.8957396111397129,0.3630577771217514,0.15209179121837968,0.2066583812737178
-6817.086443424225,-1944.0,-1380.0,-16756.0,14853.0,5798.0,-3800.0,-0.787743585551347,-0.5459392002206173,0.04996678022021998,0.2809159197332973
-6817.102028369904,-4272.0,-452.0,-16452.0,14099.0,4883.0,-7084.0,0.020808047953178296,-0.9495362557015992,-0.15822943973785802,0.2700210522326155
-6817.117596149445,-3188.0,-3088.0,-16120.0,12670.0,5934.0,-10420.0,0.7676058542347247,-0.5064836608383372,-0.3910820001490631,-0.03619976530010674
-6817.133186817169,-3704.0,-5228.0,-15168.0,13408.0,5409.0,-8578.0,0.8548612809784352,0.3950320963116247,-0.253673875021573,-0.22093301767524817
-6817.148771286011,-3104.0,-4884.0,-15552.0,13821.0,5123.0,-6390.0,0.21388801977594493,0.9676686108784562,0.047759742435778185,-0.12485344015826035
-6817.164358854294,-2484.0,-4024.0,-16308.0,13757.0,5476.0,-4000.0,-0.6071596092722391,0.7585025987969121,0.20221280584648796,0.12304876122254574
-6817.179988145828,-2044.0,-3352.0,-16572.0,14242.0,5762.0,-3413.0,-0.9505682287687957,-0.06945460225627954,0.16235053460960117,0.2554180976218267
-6817.195575237274,-1572.0,-2104.0,-16636.0,14729.0,5893.0,-4322.0,-0.4850527314548253,-0.8484682223661378,-0.013774291525073585,0.2112718443996778
-6817.2111620903015,-2168.0,-844.0,-16452.0,14000.0,7250.0,-6228.0,0.3781737517982092,-0.8776935610866805,-0.2932562640022279,-0.025286160272045048
-6817.226798534393,-3420.0,-804.0,-16760.0,13246.0,7023.0,-5462.0,0.9101776085232443,-0.16648946338441994,-0.29699100996233135,-0.23591167738463079
-6817.242419958115,-4116.0,-872.0,-16736.0,13035.0,6256.0,-2710.0,0.7410774877012704,0.6562417566934056,-0.06638305085842881,-0.12547591224236637
-6817.258024930954,-4380.0,756.0,-16484.0,12293.0,5407.0,-2253.0,0.028021345002498543,0.9809479731435116,0.17880734754734393,0.07059610947474977
-6817.273581981659,-5368.0,2352.0,-15768.0,11878.0,4195.0,-2123.0,-0.6952394637120137,0.6350476586947998,0.2964959298163809,0.1595202898881656
-6817.2891573905945,-5912.0,5168.0,-14660.0,10344.0,2890.0,-3301.0,-0.9262948114387365,-0.08434895732687457,0.3200245134159232,0.1801318586825951
-6817.304728984833,-5188.0,7648.0,-14236.0,6787.0,2336.0,-3110.0,-0.7371081621410734,-0.625006695700677,0.1776470272287223,0.18568715989838394
-6817.320301055908,-5820.0,8608.0,-13792.0,1127.0,1643.0,-1624.0,-0.6582171431666303,-0.7313222774345887,0.0015997446520951664,0.17864870496730298
-6817.33594417572,-6384.0,6284.0,-14416.0,-3102.0,1297.0,-1768.0,-0.7865174146232206,-0.5447131358764731,-0.2222549851878772,0.187831514014983
-6817.351521730423,-4836.0,4356.0,-15676.0,-4022.0,-490.0,2162.0,-0.9491545527873445,-0.2811043974708706,-0.14101276475142865,-0.014189884522196099
-6817.367104291916,-5624.0,7648.0,-17528.0,-4046.0,-574.0,8868.0,-0.7950181037354285,-0.042697417803130557,0.09812112076774884,-0.5970723498079182
-6817.38268661499,-14112.0,13592.0,-18004.0,-6035.0,-4066.0,4476.0,-0.4405785636478549,0.1622920244376687,0.5701444688554939,-0.6741565935978101
-6817.398270845413,-9360.0,12672.0,-19096.0,-10652.0,-4251.0,10038.0,0.30801400155983255,0.4935200655735879,0.7320001418759836,-0.3545999323362612
-6817.413855791092,-9432.0,9496.0,-19172.0,-13552.0,-3966.0,2789.0,0.7668867364938705,0.11511167330961941,0.5758925575040992,0.2588084200118463
-6817.429514408112,-624.0,3616.0,-18572.0,-17939.0,-1493.0,-8787.0,0.6060520095350888,-0.7415214420554312,0.07913557920926541,0.27673899763807847
-6817.445134878159,2956.0,-2080.0,-20576.0,-23976.0,-2744.0,2212.0,-0.4189343944631283,-0.8242014440728405,-0.21452522369113056,0.31490455875443746
-6817.460722208023,1844.0,-11872.0,-23176.0,-17622.0,3162.0,7410.0,-0.9319324268243124,-0.2064883373176703,-0.14330127031450823,-0.2613986692991759
-6817.476318120956,-18576.0,-9332.0,-21036.0,2294.0,-2775.0,-103.0,-0.8850021463464093,-0.4340836170231503,0.026610336951395516,-0.16623629074808208
-6817.491911649704,-16680.0,2100.0,-20868.0,13083.0,-9296.0,1399.0,-0.20135352423203323,-0.9136176694179702,0.3521336706400026,0.0275933036843128
-6817.507494926453,3852.0,8336.0,-10392.0,4600.0,901.0,-6883.0,0.12465410582757223,-0.977317862419139,-0.1629967513097482,-0.05237565044256061
-6817.523070573807,-10012.0,456.0,-11012.0,-12560.0,4652.0,-12792.0,-0.49407748515732935,-0.47912626152948445,-0.6029715742220358,-0.40342377824514647
-6817.538682460785,-2560.0,-5116.0,-16528.0,-11664.0,-2917.0,8022.0,-0.529803779497772,-0.31134546383127976,0.166979123150634,-0.7710317307435581
-6817.554258108139,-1688.0,-10524.0,-18220.0,-3586.0,1593.0,-842.0,-0.6672563330333777,-0.04785113637456342,0.2944958414780781,-0.682459855322371
-6817.569823980331,-4588.0,-3156.0,-15428.0,4038.0,-5179.0,5646.0,-0.14433696035805815,-0.3559617762653785,0.3027024100898462,-0.8722552990027584
-6817.585412025452,3692.0,1288.0,-15208.0,3230.0,604.0,-3095.0,-0.2749891796699442,-0.4025851736675334,-0.04350635061128322,-0.8720168154709066
-6817.600996017456,-1492.0,4840.0,-14748.0,-2907.0,2980.0,-9658.0,-0.8109995636683214,-0.05131339387550157,-0.17185561099517063,-0.5568772686223119
-6817.616583824158,-1052.0,-648.0,-16596.0,-5819.0,2626.0,-3240.0,-0.8100252032007982,0.4551768380401729,-0.07612156440216743,-0.3617716458267872
-6817.632180929184,-3408.0,-4632.0,-16460.0,-2856.0,1786.0,-2341.0,-0.714062965795695,0.6865387249974193,-0.018143719465238635,-0.13582880917515514
-6817.647817611694,-3240.0,-2092.0,-16468.0,-712.0,-187.0,2193.0,-0.6327064975156018,0.7110861242869386,-0.12691424956187924,-0.27916264991267264
-6817.663437604904,-3300.0,-340.0,-16196.0,-1904.0,1287.0,-2996.0,-0.5442516628180315,0.8366675719839537,0.03252170200223614,-0.052152089211853755
-6817.679055213928,-3960.0,-1916.0,-15984.0,-1936.0,1392.0,-2397.0,-0.4004124297571848,0.8903489610084206,0.1440438057677473,0.16186412742518488
-6817.694704055786,-3396.0,-2236.0,-15808.0,-609.0,403.0,62.0,-0.35807557113665356,0.9050027315128605,0.116280918456112,0.1980673857868172
-6817.710286855698,-2116.0,-1496.0,-15532.0,-683.0,1480.0,-532.0,-0.30632686677388643,0.885655975332268,0.09912963762560485,0.3345902852668601
-6817.725865602493,-3044.0,-2036.0,-15836.0,-1102.0,1423.0,-224.0,-0.22399997242093053,0.8610735615999208,0.04563615557653128,0.4541956353524813
-6817.741507768631,-2512.0,-2540.0,-16524.0,-86.0,510.0,2267.0,-0.3031802828341518,0.8347200614265814,-0.13536568779604222,0.4393179551533404
-6817.757083654404,-2020.0,-1252.0,-16024.0,-99.0,435.0,1505.0,-0.3451851457008663,0.7956215434252287,-0.2579471589056722,0.4257896640803067
-6817.772709369659,-2216.0,-1104.0,-16060.0,-1067.0,819.0,-361.0,-0.23736637316733153,0.7997262054757582,-0.2951094733948075,0.4658385985267556
-6817.788283109665,-2484.0,-2280.0,-15388.0,-2000.0,464.0,-581.0,-0.0611014481030605,0.8232285580783693,-0.3397273186996738,0.45071798625420784
-6817.803920507431,-2308.0,-2188.0,-15100.0,-1765.0,243.0,1673.0,0.0069146357023130555,0.7565691143488824,-0.5190416904955925,0.39768214261383383
-6817.819513559341,-2136.0,-2524.0,-15820.0,-1791.0,-400.0,3384.0,-0.00993553759072293,0.584068030459926,-0.7630256636698519,0.2766905445956343
-6817.835124015808,-2064.0,-1364.0,-15776.0,-1019.0,-349.0,3469.0,-0.06203232282862552,0.3454645715429031,-0.9191205036263576,0.17895172686172783
-6817.850711584091,-3564.0,-416.0,-16076.0,-2096.0,-601.0,-325.0,-0.04128593917563967,0.38516805322151665,-0.9219046089454722,-0.005738815995352765
-6817.866293430328,-3240.0,-924.0,-16788.0,-3330.0,-849.0,-3640.0,0.0001811426441214988,0.6319267454963302,-0.7283385400794665,-0.26493683501670756
-6817.8818781375885,-1856.0,-1276.0,-16492.0,-3087.0,-1276.0,-2986.0,0.018809377762254227,0.7378987458530448,-0.45859624631308726,-0.4948142389263332
-6817.897505760193,-1316.0,-1708.0,-16556.0,-3114.0,-455.0,-1234.0,0.14175333524890874,0.7315517607105264,-0.2354628480337709,-0.6239353015681712
-6817.913120031357,-1108.0,-1788.0,-15936.0,-3009.0,437.0,935.0,0.3793182643177053,0.6736680754899804,-0.12136349139653112,-0.6225430759205932
-6817.928876161575,-3984.0,-2172.0,-15684.0,-2193.0,-523.0,3619.0,0.6552996897224889,0.5010528103176984,-0.21770394046742933,-0.5216640607012337
-6817.944539070129,-2800.0,-424.0,-15748.0,-2462.0,-705.0,2144.0,0.8132263662930478,0.27623360468651886,-0.2301871471412067,-0.4575715792077674
-6817.9601266384125,-2764.0,92.0,-15976.0,-2767.0,-558.0,771.0,0.8714963317369699,0.04106004752584891,-0.17249331123895478,-0.4572245332919058
-6817.975741147995,-2544.0,-76.0,-16248.0,-2936.0,-203.0,-1219.0,0.7999757909914058,-0.16553527597521794,-0.06423705094176833,-0.5731582744075042
-6817.991343259811,-1888.0,-632.0,-16228.0,-2649.0,362.0,-634.0,0.7117786477989942,-0.3200439564573788,0.08203521648541447,-0.6198493734196512
-6818.00693655014,-1788.0,-800.0,-16096.0,-1647.0,513.0,2241.0,0.7604099347764756,-0.36778331697147776,0.25796131081448365,-0.46900759585913626
-6818.022517204285,-3348.0,-392.0,-15724.0,-842.0,-389.0,2389.0,0.8195454688049278,-0.3766728853606401,0.3352163543155,-0.2721998489985365
-6818.038074970245,-2888.0,224.0,-15980.0,-1018.0,-758.0,2326.0,0.8411470104893128,-0.3893321420424708,0.37204326831967544,-0.04975938520045412
-6818.0536568164825,-2428.0,-240.0,-15980.0,-870.0,107.0,1764.0,0.8037923720659013,-0.38990685746644344,0.43739265740039013,0.10285002849556864
-6818.069227695465,-3440.0,316.0,-16112.0,-1368.0,227.0,710.0,0.735235572123251,-0.45673138751900344,0.46115887859531723,0.195339657602523
-6818.084804773331,-2572.0,-464.0,-16144.0,-749.0,211.0,2673.0,0.632706544934148,-0.3896409330458562,0.5525661739817092,0.37753542173399174
-6818.1003959178925,-3572.0,-636.0,-16220.0,257.0,-316.0,2210.0,0.5727866566308939,-0.25379187412439214,0.6073582917460959,0.4884885219340319
-6818.116011857986,-2564.0,712.0,-15956.0,1234.0,-43.0,1978.0,0.5075124886544694,-0.08382535290508913,0.6877431551510456,0.5122633469349229
-6818.131594181061,-2664.0,768.0,-15768.0,904.0,236.0,1730.0,0.41638876498993677,0.04872789353771482,0.74065527729124,0.5250483301584424
-6818.147209644318,-3312.0,152.0,-15644.0,658.0,412.0,951.0,0.34131415388167974,0.11454472172467015,0.7774862924199575,0.51565416723238
-6818.162796974182,-3036.0,-404.0,-16196.0,1097.0,65.0,1951.0,0.23362247680583106,0.27151639693477936,0.7944477036014739,0.49046124288164605
-6818.178421497345,-2632.0,-16.0,-16012.0,1106.0,-114.0,1454.0,0.15109573206143495,0.39476114125713135,0.7950885383102324,0.4349344058060762
-6818.194035053253,-2584.0,380.0,-15948.0,1136.0,-137.0,507.0,0.10157642785002251,0.44748337042984987,0.8142142418456453,0.35566280501296754
-6818.209613800049,-2724.0,52.0,-16040.0,904.0,-156.0,102.0,0.07393664307822624,0.4660979715955654,0.8343009004157993,0.28500537056380026
-6818.225194692612,-2724.0,-376.0,-16060.0,1234.0,-371.0,1220.0,0.02016846103454282,0.5653828721799226,0.8034664134327553,0.18541079663974286
-6818.2408583164215,-2728.0,-256.0,-16000.0,1589.0,-679.0,2842.0,-0.05430503934073311,0.7475789554996777,0.6605259222748263,0.043384029310359395
-6818.256446361542,-3056.0,-256.0,-15952.0,1177.0,-855.0,1840.0,-0.08675463555868604,0.8340090826983957,0.5378340130947896,-0.08739026000655746
-6818.272077798843,-3524.0,-748.0,-15908.0,554.0,-1058.0,723.0,-0.07105526302145017,0.8494282339357172,0.4853878173997874,-0.19447748381154922
-6818.287707328796,-3196.0,-1060.0,-16352.0,625.0,-2001.0,864.0,-0.017405763977414224,0.8321502936623831,0.4151171930995894,-0.3672882303193095
-6818.303305149078,-1420.0,-424.0,-16260.0,755.0,-336.0,-1173.0,-0.09687692215579846,0.7718408936825574,0.47297503294351434,-0.4137283106158095
-6818.318875551224,-948.0,-1364.0,-16152.0,1034.0,1104.0,1923.0,-0.13945647436678152,0.8629932668691402,0.29032258750741524,-0.38923939713075745
-6818.334487199783,-5516.0,-924.0,-15568.0,2040.0,-1141.0,1309.0,-0.21378269823194493,0.810889994146077,0.1327745663845868,-0.5283230922946954
-6818.350083112717,-3032.0,444.0,-15796.0,-1088.0,652.0,-3973.0,-0.3076371370916132,0.7662222297854597,0.424652020226395,-0.3713940605102828
-6818.36566567421,-2312.0,-1704.0,-16240.0,-130.0,118.0,-454.0,-0.3175354633395083,0.7561748004922467,0.45569966253381117,-0.345989476991491
-6818.381258964539,-1612.0,-1000.0,-16040.0,1006.0,720.0,1409.0,-0.3649461632850514,0.7956433568027406,0.30837099541508134,-0.37238860866828283
-6818.3968732357025,-5148.0,120.0,-15596.0,10.0,-172.0,-1790.0,-0.4138689328511758,0.7327828751639364,0.4325243752813923,-0.3235188233697466
-6818.412469387054,-2532.0,-1028.0,-16344.0,-467.0,131.0,-973.0,-0.41430928541809153,0.7135732385119035,0.5010043514000778,-0.26106644589868594
-6818.428080558777,-3144.0,-1336.0,-16116.0,954.0,-867.0,2460.0,-0.3688182145510236,0.745456104869586,0.3474345643447087,-0.43307914268256126
-6818.443706035614,-3144.0,-24.0,-15620.0,-194.0,-483.0,-140.0,-0.3462494376274535,0.7285784173910789,0.3790440449481026,-0.4534428614985177
-6818.459321260452,-3276.0,-1208.0,-16204.0,15.0,-914.0,2072.0,-0.2303332700494344,0.7462395173589853,0.26918447873699036,-0.5635715427940429
-6818.4749076366425,-3444.0,-1024.0,-15796.0,938.0,-1599.0,2815.0,-0.11061506692857076,0.6860352876497186,0.06901381653377468,-0.7157911596235303
-6818.49045419693,-3412.0,-828.0,-15628.0,254.0,-1755.0,2216.0,0.022516667696350166,0.5703403690729348,-0.06071587171439435,-0.8188519072479236
-6818.506021976471,-3364.0,-944.0,-16048.0,133.0,-1972.0,2187.0,0.15661000068606415,0.40520576386380946,-0.17718620176278863,-0.8831119105308989
-6818.52156996727,-3128.0,-684.0,-15796.0,-496.0,-1731.0,856.0,0.21015561097067287,0.24836277469229923,-0.19011312978293968,-0.9262869691455345
-6818.537215471268,-3388.0,-552.0,-15640.0,-755.0,-1492.0,-427.0,0.165345529189093,0.11994247803257868,-0.1456733095434145,-0.968015467245876
-6818.552783250809,-3164.0,-336.0,-15892.0,-729.0,-1144.0,-571.0,0.10927195273718154,0.020164925078705244,-0.09400594638658773,-0.9893512511669125
-6818.568372011185,-3436.0,-604.0,-15752.0,-861.0,-860.0,-1404.0,-0.017287481058309035,-0.04983414544107608,-0.025216762609556055,-0.9982894449158067
-6818.583984375,-3440.0,-824.0,-15840.0,-882.0,-620.0,-919.0,-0.1017893520923402,-0.0994193152563134,0.048190686308971595,-0.9886518018532398
-6818.599569559097,-3660.0,-1204.0,-15920.0,-101.0,-936.0,1138.0,-0.0004991581556673247,-0.172993782871085,0.07478328654929518,-0.9820796108167472
-6818.615153551102,-2896.0,-464.0,-15852.0,165.0,-424.0,1314.0,0.11654925161286407,-0.1995141280938331,0.08014048652009027,-0.9696328619945602
-6818.630736351013,-3776.0,-312.0,-15708.0,-27.0,-544.0,380.0,0.1518107771106257,-0.24294902710638488,0.08360647301808054,-0.9544313573278103
-6818.646337509155,-3440.0,-132.0,-15772.0,-449.0,-296.0,-1108.0,0.051870936410869393,-0.2802661947021612,0.09324017943622435,-0.9539740745962283
-6818.661994934082,-3516.0,-528.0,-15916.0,-286.0,-82.0,-856.0,-0.025625219222685257,-0.29468538822599777,0.09561350795752216,-0.9504535376345018
-6818.677599191666,-3416.0,-380.0,-15820.0,-85.0,98.0,-1158.0,-0.12402463725011818,-0.294774242810821,0.07243686051646754,-0.9447110332629769
-6818.693181276321,-3624.0,-564.0,-15816.0,-465.0,298.0,-1497.0,-0.2587779275509068,-0.27228486465607277,0.06849167108874875,-0.9242314794915569
-6818.7087252140045,-4052.0,-968.0,-15784.0,-459.0,136.0,-1096.0,-0.35693410493148087,-0.2563726094352649,0.07610289255380663,-0.8950304350205414
-6818.724313497543,-3348.0,-788.0,-16052.0,-153.0,136.0,-353.0,-0.38855263215411784,-0.24345426660956448,0.07598278585297794,-0.8854284208052768
-6818.739896059036,-3648.0,-516.0,-15684.0,-257.0,117.0,-823.0,-0.457041902834706,-0.2307710224436286,0.07426942133255308,-0.8557695293176083
-6818.755464076996,-3792.0,-752.0,-15768.0,-359.0,-85.0,-454.0,-0.49694833722496123,-0.22572258497991543,0.09529882532070791,-0.832472100824901
-6818.771050930023,-3560.0,-652.0,-15912.0,-111.0,-159.0,-142.0,-0.5079753527988402,-0.2338584365013867,0.10756321296042301,-0.8220106008097775
-6818.786669254303,-3624.0,-460.0,-15968.0,-77.0,-109.0,-450.0,-0.5403114583922051,-0.2425544218998426,0.10876849514455009,-0.7983735308806971
-6818.802259683609,-3444.0,-404.0,-15912.0,22.0,57.0,-351.0,-0.5645281729146016,-0.24311321021688073,0.09718274496480711,-0.7827895139083365
-6818.817840576172,-3620.0,-232.0,-15888.0,509.0,252.0,-303.0,-0.575620681996265,-0.2534350498912263,0.043568204568925836,-0.7762301962017624
-6818.833423137665,-3712.0,-272.0,-15748.0,-101.0,256.0,-1360.0,-0.6660702485201156,-0.23477350449055878,0.007379103535530399,-0.707938821125516
-6818.849046707153,-3688.0,-1068.0,-15972.0,94.0,-29.0,-506.0,-0.6946560944891859,-0.24239353207558903,-0.007204442173835551,-0.6772343626913179
-6818.864660739899,-3328.0,-1032.0,-15924.0,386.0,48.0,250.0,-0.6710988277117124,-0.26318517882923353,-0.027731112128520644,-0.692525025185881
-6818.88024353981,-3724.0,-1008.0,-15752.0,448.0,-187.0,478.0,-0.6312186236647926,-0.3016160029939188,-0.032963827530232435,-0.713795644390784
-6818.8958468437195,-3456.0,-560.0,-15832.0,289.0,-238.0,253.0,-0.6080176378867191,-0.3331093493581936,-0.031295149136219454,-0.7199814768654519
-6818.911449670792,-3620.0,-760.0,-15756.0,434.0,108.0,289.0,-0.5762749180444691,-0.35004368474349423,-0.055939935047820556,-0.7363744708169093
-6818.927105665207,-3484.0,-516.0,-15660.0,397.0,136.0,-240.0,-0.5783421114734395,-0.36005023292723937,-0.09566108491716217,-0.7257638656601444
-6818.942788362503,-3840.0,-712.0,-15780.0,322.0,105.0,-272.0,-0.5841067050303561,-0.3673685204148118,-0.12996514436970014,-0.7120174075089567
-6818.958382844925,-3652.0,-624.0,-15760.0,321.0,112.0,-512.0,-0.6034367315690161,-0.3706709587952017,-0.17196172523925074,-0.6847600428996201
-6818.974015235901,-3500.0,-840.0,-15808.0,19.0,209.0,-701.0,-0.6402129310516161,-0.34817773612040215,-0.20655137334963874,-0.6528676720069302
-6818.989625692368,-3580.0,-1020.0,-15636.0,343.0,92.0,-495.0,-0.655341282726156,-0.35287446143343787,-0.24614630233755977,-0.6208215649189741
-6819.005210399628,-3496.0,-1048.0,-15776.0,245.0,87.0,107.0,-0.6398628270797356,-0.36454463295239586,-0.2612511256137999,-0.6240437664720752
-6819.020803689957,-3328.0,-1252.0,-15632.0,317.0,72.0,424.0,-0.6043099202440394,-0.38775342063600277,-0.268979030675564,-0.6419556730308998
-6819.036421537399,-3500.0,-764.0,-15792.0,354.0,-246.0,294.0,-0.5809538895782617,-0.42684711828845084,-0.2658314896967037,-0.640021667506941
-6819.05207157135,-3544.0,-600.0,-15640.0,70.0,151.0,-513.0,-0.6027492374446548,-0.4098018789279032,-0.2963814055278065,-0.617182176706691
-6819.067646980286,-3468.0,-868.0,-15820.0,-11.0,370.0,-1274.0,-0.6577099079573699,-0.35415658945822365,-0.3586322012118917,-0.5597979379847166
-6819.0832862854,-3296.0,-1080.0,-15672.0,-44.0,1029.0,-894.0,-0.6657377340692461,-0.27160599730794116,-0.44030827888021506,-0.5377286222735845
-6819.0988676548,-4172.0,-1624.0,-15376.0,177.0,527.0,183.0,-0.6317830653843959,-0.2639095811219743,-0.47454529184569355,-0.5531804924910187
-6819.114469051361,-4324.0,-1244.0,-15728.0,14.0,478.0,-944.0,-0.6543496602049513,-0.20170924806703922,-0.5213615247997808,-0.5092367444444107
-6819.130045175552,-4608.0,-1636.0,-15704.0,-63.0,2.0,-1164.0,-0.7033549490961303,-0.14433435094967562,-0.5366642059618989,-0.44322786550170823
-6819.1456253528595,-4240.0,-1480.0,-16124.0,-484.0,-297.0,-686.0,-0.7475224069390124,-0.09370805631055767,-0.5071050557270246,-0.41865679710556974
-6819.161201238632,-3556.0,-924.0,-16120.0,-11.0,-537.0,176.0,-0.7638983128797924,-0.12024974754615228,-0.4699508871276927,-0.4256119470625655
-6819.176777124405,-2756.0,80.0,-16076.0,620.0,-612.0,439.0,-0.7632991093901638,-0.2016197450565985,-0.4462472167678736,-0.42141116446342713
-6819.1923496723175,-2880.0,988.0,-15708.0,433.0,-159.0,-2434.0,-0.8320186262174029,-0.1384135444905196,-0.48349968458965664,-0.2341255033749617
-6819.207962989807,-3312.0,260.0,-16232.0,56.0,-132.0,-4046.0,-0.8669048173001306,0.024023257097944218,-0.4942647851770744,0.06001035739015312
-6819.2235651016235,-2212.0,-608.0,-16044.0,102.0,282.0,-3026.0,-0.8108784399801481,0.1405014531274045,-0.4919737632449085,0.2840727257641814
-6819.239185810089,-2568.0,-1608.0,-15660.0,577.0,102.0,684.0,-0.8278254810314762,0.06764646157251557,-0.49203007008510236,0.26083584746689353
-6819.254798173904,-3216.0,-1512.0,-16272.0,1844.0,-302.0,2912.0,-0.8786540769611528,-0.17583950210216134,-0.4267001166435582,0.12237031092704856
-6819.2704174518585,-4244.0,-836.0,-15548.0,1259.0,-53.0,324.0,-0.8590970469203303,-0.28212977819770096,-0.4019147276717963,0.14428999933255832
-6819.286031484604,-4388.0,-1384.0,-15848.0,282.0,-324.0,-609.0,-0.8538888020111824,-0.27735998602797945,-0.3885087133083025,0.20737967989654593
-6819.301617860794,-3648.0,-1812.0,-15916.0,518.0,-311.0,5.0,-0.8506519271574217,-0.31018612917303157,-0.3556106155222866,0.2317691830677153
-6819.3172082901,-4400.0,-1744.0,-15756.0,793.0,-790.0,1017.0,-0.8666192839598111,-0.381465959755771,-0.251481809713163,0.2005283959941469
-6819.332807302475,-3292.0,-1332.0,-15896.0,155.0,-503.0,668.0,-0.8816235199847643,-0.3981564967978449,-0.1881909988257574,0.16969243067475107
-6819.348433256149,-3028.0,-1616.0,-15916.0,600.0,-748.0,2217.0,-0.8862835037450916,-0.45978058113977094,-0.04395282781646325,0.03422743231729067
-6819.364069223404,-3296.0,-796.0,-15644.0,773.0,-884.0,1811.0,-0.848987549954804,-0.5150881082387098,0.09757403666021325,-0.06620942638807302
-6819.3796598911285,-3524.0,-416.0,-15804.0,306.0,-685.0,273.0,-0.8256488452295602,-0.5383619834095492,0.15842965581968158,-0.058055175025894634
-6819.395238399506,-3656.0,-1000.0,-15904.0,496.0,-720.0,592.0,-0.7858738923315317,-0.5674203924588614,0.23463164115744298,-0.07337790226822125
-6819.410813570023,-3380.0,-928.0,-15756.0,915.0,-788.0,1248.0,-0.7081384293686966,-0.6030150762765631,0.3407727191179087,-0.1370647166100499
-6819.426413297653,-3352.0,-332.0,-15712.0,1175.0,-534.0,814.0,-0.6150241240773805,-0.6522504787571484,0.39910460751706905,-0.19243220110617676
-6819.442023515701,-3852.0,-52.0,-15776.0,1185.0,-383.0,-1243.0,-0.548435823373827,-0.756876219118565,0.32526154169938737,-0.14339269878343283
-6819.457617282867,-3924.0,-600.0,-15972.0,951.0,25.0,-2516.0,-0.5038590585790026,-0.8505330566711492,0.1421458151172292,-0.0501411591626222
-6819.473200559616,-1964.0,-532.0,-16064.0,1265.0,1623.0,-1857.0,-0.4256602849559062,-0.8963837349945986,-0.0705462731827311,-0.10165010963308165
-6819.488779783249,-1284.0,-736.0,-15964.0,3060.0,3782.0,1110.0,-0.14015772219447495,-0.9016488151429504,-0.13877783910070934,-0.38487132711480054
-6819.504341602325,-7356.0,-68.0,-15084.0,4706.0,1386.0,-1566.0,0.1773106544611684,-0.8152328942609193,-0.3986695932522664,-0.38081336025091017
-6819.519957780838,-4444.0,1192.0,-15952.0,3082.0,2656.0,-7097.0,0.20590814354546663,-0.35196965037017935,-0.7854219640002216,-0.46565173693006673
-6819.535554647446,-3600.0,-1704.0,-16652.0,3884.0,3573.0,-5251.0,0.2990313711589502,0.18692081269354077,-0.8725121992471327,-0.33817644951964965
-6819.551164150238,-5752.0,-1948.0,-16612.0,5604.0,1036.0,-865.0,0.2329049545204935,0.3838140410596066,-0.8904714153643865,0.07418033745034947
-6819.5667769908905,-3868.0,-1504.0,-16152.0,4545.0,2115.0,-2303.0,0.23394007417770699,0.5780195632645744,-0.6676564805898084,0.4066942956368954
-6819.582342386246,-3620.0,-2008.0,-16980.0,4516.0,2274.0,-162.0,0.13191978419356704,0.54803510184374,-0.4143524192177568,0.7145395513012814
-6819.597984790802,-3852.0,-3280.0,-17620.0,5878.0,3573.0,-752.0,0.02293588671254505,0.35977786940757966,0.024916564209885226,0.9324231842962865
-6819.613561630249,-4340.0,-2240.0,-17576.0,7557.0,2486.0,2218.0,-0.3247370152818308,0.14416721129183904,0.46662669354086683,0.8099513658049478
-6819.629175662994,-4916.0,-240.0,-17208.0,7291.0,3362.0,1827.0,-0.5541426730254476,-0.18327472383387408,0.7015887607967791,0.40879026928177836
-6819.644785165787,-6976.0,208.0,-16764.0,5215.0,2119.0,-317.0,-0.5284107357893009,-0.47607217449038036,0.7000702559437588,0.06355325106908613
-6819.660383462906,-4520.0,-1020.0,-15756.0,4483.0,2464.0,2123.0,-0.4539430229723672,-0.5103771360037147,0.6299002670645923,-0.3696979368231714
-6819.6760087013245,-6408.0,1008.0,-15084.0,4299.0,-130.0,3603.0,-0.1247116826843806,-0.4373146006195237,0.5900171495987137,-0.6671451861974468
-6819.691596746445,-6708.0,2584.0,-14980.0,2928.0,-876.0,1331.0,0.10536800188010802,-0.4337652966933509,0.460937327496313,-0.7669954574082426
-6819.707213640213,-6216.0,4564.0,-14584.0,1140.0,-893.0,-1195.0,0.10309107926276617,-0.5242698830505573,0.3269870386505345,-0.7794823895747401
-6819.722831249237,-5684.0,3620.0,-15020.0,-2038.0,-450.0,-3639.0,-0.2111916480145591,-0.6359515352601717,0.27719922414370995,-0.6885668614907711
-6819.738443851471,-5708.0,1000.0,-15792.0,-2831.0,-1280.0,-2968.0,-0.48281422762545884,-0.6860205009683852,0.28675897258566596,-0.4626398010278957
-6819.754039525986,-6284.0,-428.0,-16040.0,-2793.0,-2535.0,-1505.0,-0.6100196718415467,-0.6678158542447036,0.39236927071079664,-0.1671656070716279
-6819.76962518692,-5880.0,-536.0,-15976.0,-3068.0,-3189.0,-599.0,-0.6411738536129177,-0.5326711254119034,0.5330045006616237,0.1451336069627917
-6819.785216808319,-5592.0,-208.0,-15892.0,-3467.0,-4083.0,252.0,-0.5573624012896581,-0.24945026883456772,0.6606276770841691,0.43668385506835805
-6819.800787687302,-4644.0,140.0,-15684.0,-4441.0,-4180.0,212.0,-0.3715292647993341,0.12177162855336197,0.6174298995198622,0.6825818596007525
-6819.816339731216,-4396.0,56.0,-15760.0,-5272.0,-4275.0,-51.0,-0.07052958004293249,0.4685924720360419,0.38096949661215473,0.793919968347692
-6819.831970691681,-4220.0,8.0,-16116.0,-5630.0,-4853.0,-382.0,0.2914859120911955,0.6935018121741361,0.030660546254737017,0.6581421810421472
-6819.847550153732,-4160.0,108.0,-16212.0,-6248.0,-4582.0,-1632.0,0.6380354942168306,0.6528625860040365,-0.2846092804768039,0.2927092574246373
-6819.863124847412,-4328.0,-344.0,-16232.0,-6840.0,-4747.0,-1406.0,0.7612293740601518,0.3448747869138791,-0.5181375101411242,-0.18200203846070637
-6819.878707885742,-4456.0,-728.0,-16172.0,-7195.0,-5234.0,431.0,0.5903676628360743,-0.1859949077877415,-0.603766809701574,-0.5023321176843902
-6819.894303560257,-4084.0,-8.0,-16128.0,-7758.0,-5244.0,1086.0,0.18190204257601128,-0.6740604654211021,-0.3988174782812437,-0.5945576127511545
-6819.909893512726,-3928.0,-688.0,-16008.0,-8174.0,-4871.0,1255.0,-0.3092739132018471,-0.8435491152260346,0.016652526855762337,-0.4387450628366192
-6819.925575971603,-3892.0,-1060.0,-16224.0,-8147.0,-4760.0,2009.0,-0.6311616879078861,-0.6144050410663068,0.4627959194286103,-0.09980634343470002
-6819.941239833832,-3624.0,-1720.0,-16252.0,-7901.0,-4510.0,3062.0,-0.6483435066374497,-0.0728029310146505,0.7239201223674178,0.22425451404213495
-6819.956877231598,-3396.0,-1908.0,-15980.0,-7265.0,-3903.0,4038.0,-0.4110206837057178,0.5226371348299724,0.6464658385209197,0.37415817843292687
-6819.9725160598755,-3748.0,-1544.0,-16264.0,-6533.0,-3353.0,4627.0,-0.05959762181178668,0.8988310135296472,0.2729957872576477,0.33767474399371916
-6819.989424943924,-4592.0,-1244.0,-15968.0,-5927.0,-3472.0,5549.0,0.2570759619575869,0.9221636526543638,-0.2525676287036746,0.14048395081911005
-6820.00507235527,-5112.0,224.0,-15692.0,-5680.0,-3874.0,5848.0,0.43748028401754013,0.5604228733008426,-0.691108704537491,-0.1300229313993159
-6820.0207142829895,-5428.0,1464.0,-15404.0,-6160.0,-4020.0,4088.0,0.43718463800039564,0.026743076019065882,-0.7856331543523493,-0.4369610359790439
-6820.036316871643,-4848.0,1228.0,-14916.0,-7055.0,-3529.0,613.0,0.1932555495771379,-0.34478586437613423,-0.5372497218573332,-0.7450756583383049
-6820.051984786987,-4588.0,572.0,-15048.0,-7388.0,-3552.0,1083.0,-0.1015900277707531,-0.6091997084484962,-0.06844267966066576,-0.7834990625933591
-6820.067570924759,-4684.0,996.0,-15488.0,-6538.0,-4273.0,2380.0,-0.2540662861677039,-0.6986108720528487,0.4421840431921701,-0.5018629729604822
-6820.083130121231,-4716.0,1796.0,-15536.0,-7558.0,-3605.0,37.0,-0.4634316664309739,-0.5551410122636465,0.6906491999555708,0.007295865447916515
-6820.098793506622,-4680.0,920.0,-15792.0,-7756.0,-3352.0,-774.0,-0.5114463165065437,-0.22991854070230913,0.6299745868211372,0.5373008002346045
-6820.114428758621,-5040.0,-152.0,-14984.0,-6706.0,-4012.0,2192.0,-0.4309281916784476,0.308407926095436,0.4396991781986618,0.7251552091998489
-6820.13002371788,-5624.0,1280.0,-15088.0,-6389.0,-4201.0,4188.0,-0.28862702137171803,0.7762330362791686,0.06435185622875035,0.5567904044816389
-6820.145632743835,-5704.0,2180.0,-14904.0,-6721.0,-3462.0,3820.0,0.0005017121042005293,0.9129183651551797,-0.3488191695319663,0.21190798431014327
-6820.161224365234,-6424.0,2744.0,-14484.0,-6744.0,-4128.0,5328.0,0.24106118901591414,0.6354827185195134,-0.6904041062274656,-0.24777689100789177
-6820.176856994629,-5520.0,2240.0,-14308.0,-6878.0,-3924.0,5198.0,0.3840031859808269,0.07158591191266837,-0.7033980886756728,-0.593841846975789
-6820.192451477051,-4704.0,3644.0,-13600.0,-6800.0,-3581.0,7224.0,0.4274113693154863,-0.5777744689780834,-0.37994626403625265,-0.5823547207860935
-6820.208081007004,-5588.0,4364.0,-13260.0,-7730.0,-2936.0,5500.0,0.1659602311262942,-0.9051679914894245,0.13648488203368064,-0.3667423971178685
-6820.223665237427,-6316.0,2100.0,-13452.0,-8824.0,-1850.0,2236.0,-0.33991282784740157,-0.8277240876979697,0.4418068356595749,-0.0643336931461255
-6820.239292144775,-4916.0,-276.0,-13776.0,-6651.0,-2338.0,4553.0,-0.5683066467327639,-0.3776543825849181,0.7079073193011428,0.18240600284430303
-6820.254892587662,-5104.0,876.0,-13896.0,-6104.0,-1133.0,1043.0,-0.6274303872568301,0.006516828825146678,0.6148106256514085,0.47780386632480437
-6820.270478963852,-5528.0,-156.0,-14188.0,-6050.0,-127.0,-162.0,-0.539609822739621,0.2956609877643419,0.3269953268817016,0.717272525414614
-6820.286056518555,-6060.0,-684.0,-14524.0,-4257.0,-472.0,3446.0,-0.5697591081537171,0.5627919316896374,-0.005429143371992912,0.5988408174992532
-6820.301630496979,-6064.0,700.0,-13456.0,-3127.0,-78.0,4209.0,-0.5783660833670405,0.6551846732640535,-0.33805873180992985,0.3492019635935723
-6820.317218065262,-5544.0,1620.0,-13280.0,-3127.0,876.0,3318.0,-0.4399111999493639,0.6381168359690573,-0.6185501825052961,0.12915382895839708
-6820.332817316055,-6252.0,2008.0,-13372.0,-2857.0,1102.0,1974.0,-0.23191686767867564,0.5992384567117814,-0.7653080957145105,-0.03783328055592922
-6820.348423957825,-5956.0,2208.0,-13784.0,-2357.0,1422.0,1039.0,-0.009740831240188116,0.5638802994345167,-0.8142387277197752,-0.13769320389064857
-6820.364077329636,-6132.0,1548.0,-13476.0,-2765.0,2097.0,-2700.0,0.22651298454820387,0.7313676060397781,-0.6067747010242426,-0.21358313337820048
-6820.379696369171,-5816.0,-1504.0,-14188.0,-1724.0,1843.0,-2927.0,0.3594120895387955,0.8402592044942067,-0.33297115366053887,-0.23220170108354016
-6820.395325660706,-4940.0,-3564.0,-14224.0,592.0,1817.0,-1351.0,0.33423112025041474,0.9161108684207334,-0.18507003668847397,-0.12157103494537391
-6820.410916805267,-3932.0,-4124.0,-14368.0,2968.0,2611.0,-2183.0,0.10758349869043098,0.9914626177749716,0.03177758997224066,0.06646693267996451
-6820.426530122757,-3536.0,-4160.0,-14752.0,5380.0,3299.0,-2156.0,-0.30665849982694454,0.8788234187816462,0.24243896828268335,0.2735933291271102
-6820.442148208618,-892.0,-4252.0,-15100.0,7443.0,6695.0,-8645.0,-0.5321387327442854,0.22071392001902115,0.5919839710090501,0.5636210719015918
-6820.457740783691,5244.0,-6860.0,-15164.0,3443.0,9060.0,-16832.0,-0.12123288719366972,-0.6373426432263988,0.3379286127393243,0.6818366335713785
-6820.473349094391,936.0,-6572.0,-19480.0,9960.0,6790.0,5793.0,-0.07293094723134316,-0.6350180714788702,0.7683281441470411,-0.033241370951861055
-6820.488922119141,-21492.0,8128.0,-20996.0,15163.0,-9843.0,8795.0,0.7195431645405622,-0.08431393693356251,0.6310152496366325,-0.27743206218412275
-6820.504505157471,-12852.0,27436.0,-32768.0,32767.0,-3169.0,-4198.0,0.3372897364240515,0.5436056190144064,-0.12795586576359222,-0.7578626927720136
-6820.520086050034,3812.0,16264.0,-12428.0,-6879.0,20083.0,-32768.0,-0.36026041181069435,0.5732247375903822,0.6962880135482107,-0.2383460469265498
-6820.5357229709625,-19040.0,-2292.0,-6956.0,-21944.0,7075.0,-30174.0,-0.09239425858762614,-0.12227694757404593,0.7047879828869661,0.692665538517789
-6820.55136847496,8100.0,-15964.0,-18116.0,-18745.0,14855.0,10242.0,-0.7357257585048249,-0.09637314947504656,-0.17688023524515695,0.6466322035843701
-6820.566943645477,-15816.0,-20136.0,-16964.0,10122.0,1336.0,26398.0,-0.7954565305707054,-0.46126436679066757,0.1989795479992089,-0.33895609063660653
-6820.582541942596,-12916.0,-6476.0,-17196.0,17756.0,-209.0,-16923.0,-0.2443785289858141,-0.8439026329443128,-0.42027952167137106,0.22687574648707975
-6820.5981504917145,4868.0,1056.0,-15572.0,21126.0,4548.0,3689.0,0.651016305481867,-0.7040121612293809,0.07999136543155838,0.27229768323339026
-6820.613754272461,-3260.0,11820.0,-14536.0,9571.0,2597.0,-2724.0,0.9567595585122117,-0.179391695850442,0.21416025099213684,-0.08102563514348499
-6820.629372119904,-9644.0,4376.0,-14772.0,-10784.0,7639.0,-26403.0,0.16587317112197014,-0.5496699776459445,0.18640684211556155,-0.7972461953431653
-6820.644992589951,1604.0,-5404.0,-19480.0,128.0,4514.0,5752.0,0.42045836626434396,-0.11840328844540553,0.4374204294893563,-0.7860399426167731
-6820.660577535629,-2436.0,-732.0,-16388.0,8027.0,1604.0,16930.0,0.8344011730217648,0.4851872056736444,0.06291183238565651,-0.2537915665588254
-6820.676148891449,-9164.0,8568.0,-13608.0,2673.0,3256.0,-7003.0,0.4462467834580593,0.581037706267644,0.4374665852255378,-0.521423032632505
-6820.691750526428,-5528.0,2316.0,-15524.0,-3023.0,4779.0,-17150.0,-0.19468431665901556,0.014087646911556704,0.8737712300455519,-0.4454474072168237
-6820.707324743271,-2536.0,-2708.0,-16396.0,-569.0,2841.0,-6947.0,-0.5687830401887238,-0.33056124121560276,0.7157620968808732,-0.2343069347423758
-6820.722900629044,-2684.0,-2336.0,-16076.0,2286.0,3010.0,1965.0,-0.6096984997599509,-0.24352967358975072,0.5403826201146531,-0.5262581698650928
-6820.738470077515,-5196.0,-396.0,-15400.0,1834.0,2503.0,2107.0,-0.5625045143574556,-0.12056781735487514,0.3497377201893401,-0.7394157151579397
-6820.754053354263,-4012.0,540.0,-15768.0,265.0,3441.0,457.0,-0.607774936021855,0.09797807810379773,0.16152804188142764,-0.7713096751893288
-6820.769644498825,-3376.0,-68.0,-16324.0,1508.0,3225.0,2361.0,-0.47520178826211656,0.25171234409885784,-0.12280192805299948,-0.834112607941644
-6820.785227298737,-2268.0,-1500.0,-16616.0,3373.0,1911.0,4042.0,-0.2107424806289385,0.18680116500128263,-0.48195207098057696,-0.829707859966421
-6820.8008098602295,-3564.0,2828.0,-15304.0,3134.0,2355.0,188.0,-0.14108934557638764,0.2761134975861954,-0.7146528540489271,-0.6269979515239803
-6820.8164002895355,-4232.0,1784.0,-15908.0,1259.0,3268.0,-4093.0,-0.17334095069157887,0.6287141765947656,-0.656376725527941,-0.37926375142811036
-6820.832022666931,-3040.0,-736.0,-16588.0,2242.0,3110.0,-41.0,-0.11330635479501291,0.6639428792099251,-0.7353127844843445,-0.07521058491583191
-6820.847633600235,-1368.0,360.0,-16336.0,3793.0,3782.0,3468.0,-0.0588208286694701,0.3745745156896694,-0.8723842783902844,0.30851209559423987
-6820.86329293251,-2796.0,616.0,-15664.0,4192.0,2918.0,3057.0,-0.04971936285706603,0.03707167227955851,-0.7761434788737605,0.627498985077443
-6820.8788640499115,-2116.0,852.0,-15892.0,3410.0,2729.0,1008.0,0.06415014742277608,-0.1820426334172373,-0.5632107257146628,0.8034543650040843
-6820.894436836243,-3692.0,-472.0,-15880.0,2113.0,2910.0,-1354.0,0.31821254828945617,-0.2918698690646164,-0.3987052151271425,0.8090654516624433
-6820.910012483597,-2676.0,-1196.0,-16032.0,1647.0,2511.0,642.0,0.3884193219931449,-0.4307652105702696,-0.18985255182733946,0.7921665053695369
-6820.925634384155,-1880.0,-680.0,-16356.0,3716.0,2571.0,3126.0,0.31968734821658495,-0.48206165400641754,0.24488769660715506,0.7781044770320287
-6820.941345453262,-2648.0,1396.0,-16052.0,4320.0,2594.0,632.0,0.3684036165648504,-0.4794034827953422,0.582610633618053,0.5431536850476166
-6820.95697927475,-2732.0,1904.0,-15968.0,4071.0,2757.0,-2227.0,0.45586748022856,-0.5360174589456355,0.6976294553463106,0.13484534552122046
-6820.9725975990295,-1660.0,1408.0,-16264.0,4681.0,2572.0,-4249.0,0.487968429530002,-0.548849185876093,0.5639708092471637,-0.37760867212270505
-6820.988193511963,-2888.0,-36.0,-15632.0,3639.0,2416.0,-7523.0,0.2352107901356906,-0.545354709330326,0.14878596590107457,-0.7906496452701817
-6821.003858327866,-3760.0,-3272.0,-15760.0,2399.0,2470.0,-6696.0,-0.12094425182134322,-0.3450646327459153,-0.23785264167483638,-0.8998494363100997
-6821.019445896149,-1548.0,-3696.0,-16184.0,1947.0,2357.0,-2965.0,-0.2307768472764641,-0.11175691932454983,-0.47342027480052024,-0.8426895520605565
-6821.035075426102,-2288.0,-3824.0,-16332.0,2026.0,2241.0,665.0,-0.06709979798088223,-0.01470505872425236,-0.6384547193445054,-0.7665878616998641
-6821.050681114197,-2288.0,-2932.0,-16320.0,2196.0,1598.0,571.0,0.061171589216242245,0.04622271474631867,-0.7718782820199348,-0.6311302679005291
-6821.066277265549,-1620.0,-3824.0,-15844.0,1811.0,1463.0,1589.0,0.23294438413576268,0.02860823854376835,-0.8451956466779896,-0.4801695548695357
-6821.081868648529,-3084.0,-4260.0,-16128.0,1285.0,2514.0,3777.0,0.5301903141771077,-0.10958925318711221,-0.7930004168826625,-0.27935419302848175
-6821.097449302673,-2288.0,-1464.0,-16776.0,1381.0,2688.0,3985.0,0.7573885390010491,-0.23461514139228018,-0.6089289710809244,-0.022887651641517567
-6821.11302781105,-2380.0,-852.0,-16880.0,1051.0,2022.0,3608.0,0.8372222956455299,-0.330775996538647,-0.37836043874617437,0.21561411405493955
-6821.128617286682,-1032.0,-584.0,-17068.0,356.0,786.0,1186.0,0.8441011634561358,-0.3560214700553569,-0.27793765667982756,0.2889508569133281
-6821.144190311432,848.0,-172.0,-15864.0,-237.0,877.0,811.0,0.8327352756905398,-0.41315979820642773,-0.19322316302648382,0.31387218901435865
-6821.159924983978,-2368.0,-3652.0,-13952.0,-1303.0,2946.0,919.0,0.7775440017719105,-0.5800100753544781,0.017492255822450873,0.24229663386447955
-6821.175507068634,-4292.0,-2924.0,-16280.0,-1269.0,1274.0,4571.0,0.5648094752107188,-0.630786089182871,0.28353972186423604,0.45022704553449855
-6821.191100358963,-4636.0,-3244.0,-17620.0,-561.0,-74.0,2768.0,0.4144415549150432,-0.5701848755410935,0.3983661964068571,0.5868831049060131
-6821.206694364548,148.0,472.0,-18552.0,-549.0,-96.0,6111.0,0.06818627278605227,-0.32870736838035913,0.591515879951059,0.7330832571691496
-6821.222282409668,748.0,152.0,-16712.0,1871.0,-254.0,5959.0,-0.21619829537803495,0.0054152616332580235,0.7732518582738713,0.5960793031913455
-6821.2378578186035,-2124.0,56.0,-14296.0,-335.0,247.0,1148.0,-0.29066434514376904,0.07589805952829248,0.746614345680271,0.5935661225562023
-6821.2535173892975,-3176.0,-1152.0,-15408.0,-2515.0,551.0,-1349.0,-0.2325414503125093,0.022535028222188634,0.5927670956231873,0.7707423802646584
-6821.269136428833,-2080.0,-2696.0,-15576.0,-2568.0,-386.0,83.0,-0.20777478174168407,0.10230871844659652,0.4173897315282324,0.8787197381513634
-6821.284727573395,-3036.0,-3756.0,-15720.0,-1110.0,-1636.0,499.0,-0.17376365919473644,0.2620073973975695,0.352214440425584,0.8815346291597966
-6821.300325632095,-2100.0,-2744.0,-15544.0,-1433.0,-1450.0,321.0,-0.1191833402850442,0.3989253169594889,0.2527653969387538,0.8733633705380969
-6821.315934896469,-2028.0,-2204.0,-16068.0,-1701.0,-1197.0,2629.0,-0.22451964350591566,0.5433175409156861,0.04238697998108208,0.8078368172727656
-6821.331511735916,1592.0,-92.0,-17736.0,-733.0,73.0,7960.0,-0.6160447428314384,0.4775382570674253,-0.3182971365402609,0.5395674385440834
-6821.347123384476,1956.0,1384.0,-17820.0,2312.0,485.0,9205.0,-0.8715445274829778,0.05769974555177725,-0.47667250614435586,0.09931866825422123
-6821.362696647644,-4880.0,2072.0,-14880.0,-1083.0,-630.0,-1915.0,-0.8586200918085282,0.2207979523846705,-0.4204938946857265,0.1928851645344467
-6821.378271579742,-2508.0,76.0,-15116.0,-3906.0,-158.0,-2338.0,-0.6966098523356272,0.5594098567636241,-0.39922119126325734,0.20595573852404067
-6821.393845796585,-116.0,-2912.0,-16620.0,-736.0,563.0,4497.0,-0.669891234505693,0.40617356479686706,-0.6185135208879137,-0.0609080755851013
-6821.409446001053,-3724.0,-1316.0,-16088.0,1909.0,-22.0,5922.0,-0.6213587478202974,-0.022008157953880215,-0.7359815968502319,-0.26788063869651346
-6821.425035476685,-5852.0,768.0,-15388.0,-966.0,132.0,-2179.0,-0.6514859190115017,0.16976446803516337,-0.7097231737301063,-0.2074587655244834
-6821.440667629242,-2612.0,-812.0,-16352.0,-611.0,269.0,-413.0,-0.6315446987965827,0.2344619309058102,-0.7063897114383143,-0.21723828380823654
-6821.456291675568,-608.0,-532.0,-17004.0,2490.0,-69.0,3947.0,-0.5665063189342051,-0.13642465028882614,-0.7693892935012745,-0.2617231752191575
-6821.4719133377075,-1932.0,1092.0,-15464.0,1084.0,379.0,-1490.0,-0.5545184584657539,-0.080275351743396,-0.8198271386997551,-0.11810423267017299
-6821.48748588562,-3208.0,-36.0,-15808.0,-683.0,198.0,-5543.0,-0.5410925395237506,0.3158006011862421,-0.774222361427039,0.08982526943174449
-6821.503097295761,-712.0,-2560.0,-15848.0,-527.0,324.0,-3105.0,-0.46272054938872387,0.5282098954324395,-0.6826497634353776,0.20217146193830576
-6821.518695116043,-1372.0,-2596.0,-16248.0,1106.0,-140.0,1960.0,-0.5459073008034813,0.36242866150448205,-0.7339051133074227,0.17892447823242585
-6821.534267663956,-2648.0,-1148.0,-16072.0,343.0,-44.0,-68.0,-0.5580048944954937,0.3510383760320953,-0.7241400825583464,0.2025431734327599
-6821.549846172333,-2884.0,-1440.0,-16072.0,-741.0,-316.0,-1174.0,-0.530205807755482,0.46339425216317487,-0.6808278179174394,0.2015466467948962
-6821.5654101371765,-1528.0,-1684.0,-16492.0,-112.0,-237.0,1227.0,-0.5577543364982264,0.3975729712511734,-0.7173177738423626,0.12767554181507856
-6821.580991268158,-2144.0,-1204.0,-16032.0,474.0,-501.0,1706.0,-0.616421625418356,0.26992913917097844,-0.7375706919472914,0.056143689969582695
-6821.596555233002,-2196.0,16.0,-15860.0,-39.0,-401.0,-1181.0,-0.631546355317225,0.3480084698138927,-0.6845296846650188,0.10704399486067448
-6821.612136125565,-1932.0,-580.0,-16004.0,-869.0,-69.0,-2331.0,-0.5738751109613225,0.5236600212627783,-0.6041581198228322,0.17731470723641815
-6821.62774181366,-1940.0,-1664.0,-16356.0,-407.0,-250.0,-807.0,-0.5538706694662663,0.5886055744201318,-0.5593417436806091,0.18414009080825533
-6821.6433255672455,-2108.0,-1364.0,-16128.0,196.0,-367.0,709.0,-0.5914844639165955,0.5491425122059741,-0.5735452073300163,0.14012325068373982
-6821.658915519714,-2376.0,-644.0,-16100.0,227.0,-174.0,127.0,-0.6121546946868883,0.5331240977426811,-0.5678253059795234,0.13645419769327538
-6821.6744973659515,-2152.0,-516.0,-16112.0,-149.0,177.0,-540.0,-0.5890026523683158,0.5651142826933444,-0.5533662868680301,0.16585377763851153
-6821.69008564949,-2340.0,-1276.0,-16216.0,83.0,17.0,-51.0,-0.5912742830610466,0.5631742712357343,-0.5506575135288092,0.17322172266495386
-6821.7056703567505,-2004.0,-908.0,-16356.0,345.0,-59.0,668.0,-0.6195853719281967,0.5131920943952184,-0.5741429895079897,0.1520120677501496
-6821.721288919449,-2144.0,-548.0,-16096.0,283.0,99.0,-21.0,-0.6265691200344895,0.49758582919232364,-0.5747751817440143,0.17161867863763708
-6821.736892938614,-1760.0,-704.0,-15860.0,127.0,256.0,-707.0,-0.607077069321915,0.5212446372444507,-0.5551148341425415,0.22717610121294646
-6821.75252366066,-2212.0,-1176.0,-16068.0,81.0,204.0,-114.0,-0.5982554481290786,0.5184412772360412,-0.5591682949373834,0.24625165741281205
-6821.768100500107,-1900.0,-896.0,-16288.0,456.0,155.0,379.0,-0.6183656164787126,0.4722713237265593,-0.5739603746632596,0.2552513456553675
-6821.7836997509,-1976.0,-660.0,-16404.0,373.0,249.0,-484.0,-0.6092640963850842,0.4701880878228797,-0.5584023350924853,0.30968896507429927
-6821.799307107925,-2596.0,-824.0,-16164.0,106.0,0.0,-1379.0,-0.5720017159629094,0.5280422707969774,-0.4955533491471694,0.3852431379480786
-6821.814876794815,-1916.0,-1304.0,-16112.0,-23.0,225.0,-1074.0,-0.5225335874933275,0.5656309240748592,-0.4561533772953821,0.446031841972735
-6821.830452680588,-2028.0,-1524.0,-16032.0,509.0,102.0,406.0,-0.558324304826465,0.521591135999136,-0.46044127170857224,0.45189655098768794
-6821.846064567566,-2180.0,-964.0,-16380.0,533.0,213.0,-330.0,-0.5599298887892195,0.49981237957493724,-0.43424093089346016,0.49809729852802076
-6821.861661434174,-2364.0,-616.0,-16040.0,63.0,162.0,-1878.0,-0.4684698124692722,0.5535763962156353,-0.35294914941053845,0.591198872028941
-6821.87725353241,-2100.0,-1268.0,-16032.0,-264.0,256.0,-2057.0,-0.3360596640913153,0.6047357759844222,-0.27332214931667054,0.6683214392104047
-6821.892877340317,-2048.0,-1612.0,-16048.0,192.0,87.0,-1037.0,-0.2823728076236724,0.6163549941535295,-0.2091984280438907,0.7047042900399374
-6821.908467054367,-2228.0,-1416.0,-15992.0,-39.0,194.0,-1005.0,-0.21402877163509604,0.6214809452991915,-0.16179347521503556,0.736054339651793
-6821.924128293991,-2512.0,-1360.0,-15888.0,35.0,45.0,-825.0,-0.1618513801159484,0.6281852355602727,-0.11544209311996852,0.7522370395790997
-6821.939781188965,-1892.0,-1208.0,-16156.0,-44.0,182.0,-1530.0,-0.05663636000458182,0.6268742186295087,-0.036768617811350296,0.7761888336528148
-6821.95543885231,-2100.0,-1472.0,-15908.0,-189.0,50.0,-986.0,0.02056626638097355,0.625436591990758,0.004063962431440396,0.7799933219557003
-6821.9710783958435,-1872.0,-1612.0,-15988.0,-145.0,136.0,-172.0,0.04010399270867099,0.615952498253482,0.003800737190787477,0.7867526574857716
-6821.986655950546,-2104.0,-1576.0,-15976.0,74.0,87.0,621.0,-0.006560519152609482,0.6097753109740537,-0.02418211500050795,0.792178171265181
-6822.0022585392,-2304.0,-1212.0,-16188.0,-33.0,39.0,250.0,-0.02201589002285007,0.6066765392617599,-0.039812646409182355,0.7936459100138888
-6822.017851829529,-2212.0,-1152.0,-16140.0,-218.0,62.0,-436.0,0.01990916505369976,0.604018355566533,-0.03195765355900866,0.7960804982315344
-6822.033447980881,-1976.0,-1212.0,-16128.0,-128.0,12.0,-65.0,0.03118167873500278,0.6033541168549095,-0.037435794194231785,0.7959837145938015
-6822.0490527153015,-2036.0,-1272.0,-16164.0,67.0,494.0,86.0,0.023246368498772672,0.5686508956980574,-0.03596986332712225,0.8214632883492996
-6822.0647149086,-2372.0,-1348.0,-15920.0,34.0,76.0,320.0,-0.0011666377635526043,0.5622975929573781,-0.04928211269246347,0.8254643113298323
-6822.080282449722,-1852.0,-1068.0,-16128.0,-91.0,184.0,499.0,-0.03183711110687765,0.5465686069357328,-0.08030082597068693,0.8329471373485391
-6822.095925092697,-1888.0,-1220.0,-16336.0,334.0,35.0,1258.0,-0.1380922111844949,0.5311271916790047,-0.11544978236925928,0.8279527735446276
-6822.1115045547485,-1832.0,-876.0,-15920.0,-149.0,263.0,-461.0,-0.09510679219502259,0.5182301366130903,-0.1079800544739911,0.8430495426842627
-6822.127085447311,-2176.0,-1064.0,-16024.0,-361.0,18.0,-570.0,-0.03661249338587991,0.5246264392252313,-0.10881149744501387,0.8435559747981738
-6822.142664432526,-1728.0,-1476.0,-16224.0,-6.0,170.0,507.0,-0.07198416271581266,0.5070280738848039,-0.13295561118890678,0.8485656238996214
-6822.158284664154,-2280.0,-1076.0,-16176.0,311.0,14.0,559.0,-0.12678976481991672,0.49703655171236727,-0.13464300928635137,0.8477914141161756
-6822.173873662949,-2628.0,-768.0,-16416.0,-139.0,138.0,-912.0,-0.05148918907655529,0.49769512882359634,-0.10664985013864584,0.8592288586976737
-6822.189510822296,-2412.0,-1368.0,-16252.0,-343.0,274.0,-1180.0,0.054101890306732965,0.48700990443363934,-0.0819548358358392,0.8678581354875324
-6822.205130577087,-2180.0,-2088.0,-15980.0,108.0,51.0,726.0,-0.0051375731716553075,0.47774757801747947,-0.10427191348838653,0.8722718756774224
-6822.220727920532,-1796.0,-1716.0,-15696.0,420.0,139.0,1663.0,-0.1463592606985109,0.44709850707745113,-0.1402306847020085,0.8712159587868586
-6822.236311912537,-2076.0,-1096.0,-15732.0,128.0,156.0,923.0,-0.21887647260531748,0.42113935862334484,-0.16806354368451507,0.8639961664512029
-6822.251952648163,-1796.0,-1080.0,-16016.0,-318.0,291.0,235.0,-0.22042373227113513,0.40170972268392213,-0.20619561128825833,0.8645958864338478
-6822.267552137375,-1928.0,-1536.0,-15992.0,-177.0,101.0,292.0,-0.23431035275308001,0.39228077342830414,-0.23179842799503633,0.858768852585053
-6822.283153057098,-1836.0,-1428.0,-15840.0,-322.0,148.0,438.0,-0.25279819560765454,0.37867551994225757,-0.2738099524816572,0.8471871297511355
-6822.298729658127,-1976.0,-1384.0,-16052.0,-536.0,174.0,549.0,-0.27085836047373296,0.3638586708270339,-0.3348359787012615,0.8259100941341218
-6822.314302444458,-1876.0,-1444.0,-16044.0,-330.0,141.0,877.0,-0.3183544113968626,0.33490003588024236,-0.38869576472116396,0.7971248567190707
-6822.329870462418,-2124.0,-1160.0,-16144.0,-391.0,106.0,723.0,-0.3526630233349213,0.31319019230919537,-0.43905860001328056,0.7647014065424361
-6822.345452547073,-2172.0,-916.0,-16152.0,-683.0,215.0,-267.0,-0.3072042429041422,0.32947960635620943,-0.4831227547229752,0.7507736982646195
-6822.361064910889,-2284.0,-1228.0,-16164.0,-749.0,106.0,-435.0,-0.2519221806856848,0.36001873054591466,-0.5212523821855934,0.7315857315451972
-6822.376711368561,-2196.0,-1400.0,-16208.0,-601.0,132.0,411.0,-0.25270762710413613,0.34549418240825436,-0.574459152790101,0.6976885457717708
-6822.392310857773,-1972.0,-1296.0,-16268.0,-186.0,42.0,1493.0,-0.3329835578941011,0.269969776882576,-0.6265595528144977,0.6508927688329735
-6822.407935857773,-2236.0,-716.0,-16288.0,-212.0,33.0,823.0,-0.37183025078249415,0.2286906056508151,-0.65736706232631,0.6142568004170308
-6822.423523426056,-2304.0,-780.0,-15900.0,-486.0,132.0,-266.0,-0.33978473508683993,0.2523766859306559,-0.6817735527018083,0.5966884991660052
-6822.439108371735,-1992.0,-920.0,-16000.0,-419.0,96.0,-215.0,-0.31327725551820834,0.27240445531690394,-0.7012971061735281,0.5795131946479867
-6822.4547283649445,-1868.0,-1032.0,-16188.0,-73.0,135.0,-20.0,-0.30214687381690114,0.26882807412604387,-0.7083470884660786,0.5785180511150756
-6822.470320224762,-2416.0,-916.0,-16156.0,-101.0,91.0,-588.0,-0.2640190101463888,0.3028702219956574,-0.7012888060509649,0.5888612751890162
-6822.485933303833,-2508.0,-1472.0,-15892.0,-286.0,217.0,-530.0,-0.2155431091781278,0.3302785449015541,-0.7060781950504708,0.5881418479736049
-6822.501522302628,-2296.0,-1936.0,-16260.0,-233.0,3.0,1460.0,-0.281191575876933,0.24259209933452272,-0.7541100506954751,0.5416626278749386
-6822.51712346077,-1768.0,-1508.0,-16232.0,453.0,1.0,2755.0,-0.4088819311448318,0.04874935696182471,-0.7687562579575544,0.4893392304221886
-6822.532724380493,-2176.0,-472.0,-16000.0,141.0,-5.0,958.0,-0.448982519101017,-0.020269625393529226,-0.76411909956626,0.4627373353276771
-6822.548300027847,-2264.0,-492.0,-15960.0,-801.0,128.0,-1692.0,-0.36846951667379063,0.11718174508422895,-0.7940949495452155,0.46894761435365
-6822.563925981522,-1872.0,-1240.0,-16088.0,-901.0,-245.0,-1496.0,-0.31119806733886357,0.2568317684609128,-0.7985719909812014,0.4466273399760883
-6822.579481840134,-1496.0,-1480.0,-16384.0,-766.0,58.0,414.0,-0.30509269146021084,0.24584824879851966,-0.8370113531643223,0.3819542941953868
-6822.595117330551,-2172.0,-1084.0,-16124.0,-305.0,-85.0,892.0,-0.3332010806021155,0.19102261101100937,-0.8612675694527643,0.33272447426819524
-6822.610692501068,-1908.0,-636.0,-16140.0,-746.0,38.0,-32.0,-0.3161189135602725,0.21357537104334115,-0.8817612826284035,0.27740121454435773
-6822.626289606094,-1808.0,-704.0,-15900.0,-639.0,-35.0,-152.0,-0.302516789696418,0.24336094963808877,-0.8920865358286297,0.23117234422892347
-6822.641872882843,-2180.0,-892.0,-16004.0,-629.0,101.0,-838.0,-0.2630634200382015,0.32182190538701533,-0.8860256317483793,0.20539444524076383
-6822.657489776611,-2440.0,-1196.0,-15876.0,-711.0,52.0,-661.0,-0.2262052197649582,0.3869405769288325,-0.8783374994126701,0.1662270303006302
-6822.673084974289,-2040.0,-1584.0,-16300.0,-517.0,78.0,670.0,-0.21168024403779165,0.34373668103648514,-0.9075809474533323,0.11547030879769053
-6822.688715457916,-2204.0,-1244.0,-16184.0,-64.0,-144.0,1642.0,-0.23503553333169833,0.2141353780528456,-0.9451514290946172,0.07478712468100211
-6822.704296588898,-2004.0,-460.0,-15992.0,-217.0,7.0,653.0,-0.23395126187262066,0.16439561185747015,-0.957264558973084,0.0434218148432712
-6822.719920158386,-2440.0,-524.0,-16032.0,-680.0,94.0,-780.0,-0.21220909307385988,0.24209002974850516,-0.9467551422427571,0.003797229257545245
-6822.735481262207,-2056.0,-1020.0,-16144.0,-712.0,-47.0,-620.0,-0.1998472655882355,0.30549743171380705,-0.9299270832728347,-0.044362252522288176
-6822.751106500626,-1820.0,-1344.0,-16304.0,-310.0,-22.0,1008.0,-0.18838214627532712,0.22809270150953675,-0.9512552916080226,-0.08717371547960269
-6822.766692638397,-1960.0,-704.0,-16124.0,-30.0,-171.0,1524.0,-0.1884513638783032,0.09991706617525152,-0.9699693622423565,-0.11688498470930285
-6822.782270431519,-2176.0,-496.0,-16024.0,-452.0,100.0,-349.0,-0.17915636542456612,0.13776079305113736,-0.9628021171516595,-0.14811159250397343
-6822.797840833664,-2144.0,-668.0,-15876.0,-752.0,132.0,-1154.0,-0.17250864960950021,0.24642473317332697,-0.9345626187859626,-0.19002191520528655
-6822.813418865204,-2076.0,-1152.0,-16060.0,-685.0,-54.0,-591.0,-0.17131199302168895,0.3031418361183684,-0.9069334467849479,-0.2371264458985862
-6822.829026460648,-2236.0,-1160.0,-16204.0,-609.0,-62.0,-123.0,-0.16230537164273245,0.3202810448239627,-0.8889242737546282,-0.2844128235368304
-6822.844607114792,-2240.0,-1152.0,-16248.0,-622.0,-138.0,156.0,-0.15142452815356336,0.3131173937612498,-0.8745649415739752,-0.3378820400189128
-6822.860246658325,-2200.0,-1256.0,-16372.0,-543.0,-311.0,399.0,-0.14819015497974883,0.28015516964829706,-0.8636575532779672,-0.39198008820898916
-6822.87587594986,-2256.0,-900.0,-15888.0,-713.0,-356.0,630.0,-0.13546275599802,0.22889206982957833,-0.8468873454312604,-0.46047810616243773
-6822.891464233398,-2000.0,-820.0,-16016.0,-738.0,-294.0,530.0,-0.12069973918318173,0.1860571453516698,-0.821658671796203,-0.5250631759005757
-6822.9070789813995,-2108.0,-720.0,-16080.0,-414.0,-371.0,868.0,-0.10038347499741845,0.11079973718043738,-0.8097854071998782,-0.5673571806845457
-6822.922780275345,-2392.0,-456.0,-16028.0,-553.0,-217.0,-63.0,-0.11333425411349862,0.10926101457318878,-0.7790324357939913,-0.6068985430200466
-6822.938418388367,-2500.0,-836.0,-16024.0,-746.0,-207.0,93.0,-0.11510042618829677,0.09918796808267162,-0.7368687153898669,-0.6587398083906809
-6822.954028367996,-2300.0,-816.0,-16136.0,-289.0,-304.0,1107.0,-0.06814306104761049,0.01342086702495163,-0.7231576647290696,-0.6871822141928288
-6822.9696209430695,-2248.0,-400.0,-16064.0,-17.0,-137.0,885.0,-0.02363502828188618,-0.05035452241724018,-0.7203907855776608,-0.6913341620121539
-6822.985207557678,-2188.0,-144.0,-15976.0,175.0,-101.0,590.0,0.0063460389457741075,-0.09374603564082784,-0.727297060984305,-0.6798605692897033
-6823.000796079636,-2644.0,-328.0,-16088.0,-235.0,-47.0,-399.0,-0.022254443238795003,-0.07127497793280928,-0.7162812696625703,-0.6938052752807409
-6823.016368627548,-2144.0,-560.0,-16004.0,-373.0,72.0,-393.0,-0.04384272985410348,-0.041571342997153184,-0.6957255625578286,-0.7157622371178476
-6823.031987667084,-2036.0,-880.0,-16192.0,-239.0,50.0,429.0,-0.014878339705937405,-0.06350649607093052,-0.6790433322167482,-0.7311947161573054
-6823.047590494156,-2216.0,-536.0,-16012.0,15.0,-37.0,339.0,0.004615899594384285,-0.0859274205010852,-0.6780142443554489,-0.7299944221212064
-6823.063229084015,-1796.0,-316.0,-16116.0,-110.0,132.0,-150.0,0.0020194934852278894,-0.06867835529099464,-0.672187934223328,-0.7371855846699402
-6823.078815460205,-2264.0,-824.0,-16200.0,254.0,2.0,167.0,0.014367302038148875,-0.07826540280126655,-0.6875233391326014,-0.7217892805413905
