programtime,ax,ay,az,gx,gy,gz,q0,q1,q2,q3
-9799.335767745972,8444.0,-1148.0,14780.0,-1325.0,-439.0,-1235.0,0.9870133331947117,-0.11417031850200826,-0.038135203477846866,-0.1063744552264224
-9799.35131931305,8160.0,-1456.0,14388.0,-1244.0,-423.0,-1135.0,0.9517915752491596,-0.2189167044930518,-0.07380972653202601,-0.20179295837043654
-9799.366904258728,8188.0,-1988.0,14424.0,-1045.0,-399.0,-882.0,0.9067443844829408,-0.304557545675776,-0.10486789646110077,-0.2721434306986374
-9799.38248372078,8280.0,-2440.0,14604.0,-928.0,-357.0,-454.0,0.8641429737559365,-0.380367291324396,-0.12276821527780513,-0.3057868700848542
-9799.398095369339,8308.0,-2816.0,15036.0,-988.0,-381.0,-105.0,0.8209988828078943,-0.4617152933610741,-0.12816354832504911,-0.31040928978595267
-9799.413670301437,8384.0,-2912.0,15232.0,-1053.0,-440.0,332.0,0.7785521342557171,-0.549662821482668,-0.11721139807683331,-0.27926482966255295
-9799.429325580597,8064.0,-2792.0,14984.0,-1228.0,-398.0,659.0,0.7259471993904392,-0.6442647695438444,-0.08209538043256433,-0.226238632716492
-9799.444915533066,7948.0,-2420.0,14360.0,-1322.0,-300.0,870.0,0.6602467175560203,-0.7328680107018666,-0.025862198384587677,-0.16220325995831913
-9799.460527658463,8172.0,-2100.0,13948.0,-1292.0,-129.0,978.0,0.5853886224520685,-0.8032371487583456,0.04704512828801471,-0.09958413258444916
-9799.476110935211,8032.0,-1656.0,14096.0,-1238.0,73.0,945.0,0.5019632350564347,-0.8540574561196702,0.126590934077683,-0.050926493178066835
-9799.491745710373,8136.0,-1384.0,14540.0,-1180.0,302.0,730.0,0.4108305007905432,-0.8895150498600383,0.1979468215805298,-0.02825476099440423
-9799.507328510284,8136.0,-1732.0,14592.0,-769.0,519.0,392.0,0.3418596912027731,-0.9055283723944801,0.2479133469634783,-0.04110098194342837
-9799.522900104523,8096.0,-2100.0,14912.0,-801.0,808.0,119.0,0.26023951390030214,-0.9193724145412778,0.282879200170571,-0.08372046880144332
-9799.538504362106,7852.0,-2264.0,14792.0,-618.0,777.0,-40.0,0.19048400007591196,-0.9252365633264529,0.3006922203581581,-0.13129103630871228
-9799.554092645645,7872.0,-2216.0,14396.0,-378.0,1211.0,-103.0,0.12623417654438995,-0.9147038720877204,0.314890300959638,-0.2196038647689047
-9799.569660663605,7392.0,-2216.0,14300.0,-143.0,1179.0,31.0,0.082574042164725,-0.8880413809299398,0.33130791891147593,-0.3078946186330169
-9799.585342407227,7220.0,-2308.0,13700.0,68.0,850.0,6.0,0.06325696642051094,-0.862115479124621,0.3351282951548694,-0.3747592328943883
-9799.600928783417,7068.0,-2404.0,13632.0,190.0,336.0,575.0,0.08638494301673313,-0.8316967837966992,0.3733400741778549,-0.40179010746295923
-9799.616510391235,6964.0,-2336.0,13684.0,329.0,-155.0,927.0,0.1472866321983154,-0.8013822126316598,0.4263025390571463,-0.39288591530709505
-9799.632071495056,7140.0,-2348.0,13808.0,433.0,-572.0,1243.0,0.2396321131741067,-0.7631796597230857,0.4872151469996025,-0.35036360806285655
-9799.647640943527,7352.0,-2216.0,13836.0,470.0,-1024.0,1340.0,0.3514190617311239,-0.7193028090520556,0.5344529233354962,-0.2710501515955691
-9799.663208723068,7632.0,-1952.0,14108.0,526.0,-582.0,1518.0,0.4426531858982872,-0.6390318548500726,0.5928721632181194,-0.21023568579582247
-9799.678792715073,8028.0,-1780.0,14700.0,559.0,-313.0,1413.0,0.5113422596051737,-0.5450611936563354,0.6434222850258978,-0.1656657835639529
-9799.694415807724,8304.0,-1384.0,15248.0,495.0,168.0,1115.0,0.5385325426409014,-0.4552803675527294,0.692774655118767,-0.15088328158828762
-9799.710013389587,8648.0,-1276.0,15428.0,445.0,705.0,581.0,0.5192508908334023,-0.38841174342441664,0.7401901967410829,-0.17785753452446212
-9799.725601434708,8372.0,-936.0,15468.0,428.0,1077.0,-136.0,0.45973186060731364,-0.35922015310738514,0.7737010253080878,-0.246970081955807
-9799.741191148758,7988.0,-648.0,15008.0,362.0,1184.0,-747.0,0.3720954401798776,-0.3667124155139189,0.7837244763645885,-0.3359210217481808
-9799.756779193878,7468.0,-440.0,14572.0,299.0,988.0,-1068.0,0.28042773306184343,-0.39776857272287014,0.7663969311559311,-0.4192567149117318
-9799.772363185883,7220.0,-696.0,14108.0,223.0,630.0,-1044.0,0.2066111451137106,-0.4365496197813555,0.7330726262970672,-0.4788953839383665
-9799.787998437881,6960.0,-1128.0,14192.0,234.0,287.0,-792.0,0.16357147560759197,-0.46964049013097775,0.6961980585616477,-0.5176779362229791
-9799.803587198257,6956.0,-1676.0,14484.0,256.0,251.0,-764.0,0.12394122624523833,-0.4997032503789469,0.6550477431268572,-0.5530349792029008
-9799.819187164307,6832.0,-2292.0,14576.0,337.0,-198.0,-423.0,0.12936682103469377,-0.5291095646546059,0.6173322706183445,-0.567633827268592
-9799.834792852402,7012.0,-2192.0,14628.0,355.0,-408.0,-222.0,0.15653491038188608,-0.5565253971560532,0.5840463365313684,-0.5697948586432837
-9799.85039806366,7332.0,-1944.0,14468.0,321.0,-538.0,-98.0,0.19437738882294958,-0.5829694773933024,0.5550430575645786,-0.5606168240353794
-9799.865988016129,7532.0,-1524.0,14724.0,171.0,-556.0,-103.0,0.22467548580317398,-0.6114213176346626,0.5312198207686842,-0.5417475430894798
-9799.881565332413,7972.0,-1288.0,14652.0,-71.0,-650.0,1.0,0.2506669545615317,-0.6424285917423542,0.520964974956129,-0.5030378487467347
-9799.897202014923,8260.0,-1304.0,14336.0,-206.0,-602.0,70.0,0.2691499585452346,-0.6691151195633521,0.5198891262673709,-0.4577756579109128
-9799.912794828415,8140.0,-1352.0,14396.0,-278.0,-519.0,32.0,0.27738793356879865,-0.6939896029338376,0.5199292524130882,-0.4136519525099975
-9799.928466558456,7816.0,-1580.0,14560.0,-193.0,-428.0,-37.0,0.2835618714122429,-0.7151683259780007,0.5138102789818614,-0.37963920742145757
-9799.944110631943,7492.0,-1928.0,14376.0,-98.0,-559.0,-155.0,0.29700925293348357,-0.7420699185939696,0.492850817475098,-0.3438252627483334
-9799.959724903107,7336.0,-2076.0,14128.0,98.0,-754.0,-181.0,0.3296239371658142,-0.7681374098383948,0.45753149846520075,-0.3032785972769218
-9799.975315570831,7340.0,-2324.0,14280.0,350.0,-776.0,-109.0,0.38016875202355616,-0.7807505128268465,0.4174190133769253,-0.26769707502492907
-9799.990978956223,7512.0,-2372.0,14280.0,450.0,-845.0,-80.0,0.4382630471228315,-0.7856914830469162,0.37206117358370283,-0.22844009741213508
-9800.00665473938,7680.0,-2260.0,14468.0,415.0,-867.0,-209.0,0.4889696584288037,-0.7909480806604369,0.31507779841772393,-0.18983094526401686
-9800.022252559662,8040.0,-1820.0,14392.0,304.0,-954.0,-445.0,0.5264798009132805,-0.8023203169743333,0.23746357442032792,-0.15070560382427486
-9800.037823915482,8192.0,-1632.0,14624.0,178.0,-919.0,-595.0,0.5476741679021784,-0.814707395656227,0.1504631497790036,-0.11690040989785214
-9800.053400039673,8244.0,-2056.0,15048.0,270.0,-985.0,-617.0,0.5705056393185957,-0.8154868991877554,0.05638787047916525,-0.07952886785089408
-9800.06896185875,8300.0,-3052.0,14592.0,453.0,-940.0,-532.0,0.6006395749887263,-0.7978439133008853,-0.0313183073948286,-0.04118682541802213
-9800.08453822136,8264.0,-3592.0,14428.0,841.0,-855.0,-355.0,0.6518155323353803,-0.7513044177450163,-0.10331640692857569,0.0019757890919823817
-9800.100121974945,8388.0,-3696.0,14452.0,1255.0,-736.0,-275.0,0.7216235237698528,-0.6715982356288576,-0.16169914245894412,0.045482822804087907
-9800.115751981735,8784.0,-3176.0,14480.0,1424.0,-643.0,-70.0,0.789082957144111,-0.5729096259316578,-0.19884001360730327,0.09790452618852943
-9800.131322145462,9192.0,-2600.0,15208.0,1177.0,-449.0,187.0,0.8335169667556934,-0.48807525052502065,-0.2091011357734514,0.1526719718009152
-9800.14690732956,8904.0,-1924.0,15476.0,562.0,-55.0,742.0,0.8438865494113452,-0.4582899205359962,-0.1734643359813322,0.2184856164608532
-9800.16248512268,8524.0,-1900.0,15068.0,66.0,439.0,1298.0,0.8226648772418663,-0.47784429010342994,-0.08737814729294349,0.29538516134671816
-9800.17806172371,7828.0,-2240.0,14508.0,-232.0,886.0,1735.0,0.7640231799580655,-0.5227956250535553,0.04193394254103171,0.3757590443017887
-9800.193674325943,7236.0,-2056.0,13936.0,-443.0,951.0,1966.0,0.6635382231971172,-0.5656016017925087,0.17712986744498596,0.45654886317357435
-9800.209337472916,6980.0,-1896.0,13612.0,-473.0,475.0,2129.0,0.5379913957832912,-0.5682275583834862,0.285452976631233,0.553352779056053
-9800.22490644455,7476.0,-1372.0,13676.0,-471.0,115.0,1988.0,0.40934012250543367,-0.5377711875323151,0.3609280743122524,0.6426303285253268
-9800.240526676178,8144.0,-960.0,14268.0,-403.0,-84.0,1547.0,0.3033897750086412,-0.4938366981170116,0.4039535714012273,0.7077439312104958
-9800.256099939346,8776.0,-476.0,14724.0,-389.0,-139.0,1030.0,0.22685003262458067,-0.45699848007285365,0.4186218241588397,0.7512970253150572
-9800.271723985672,8784.0,-464.0,14924.0,-225.0,57.0,585.0,0.17716651481996357,-0.4430444056298644,0.427625334082847,0.7677631498822808
-9800.287288665771,8448.0,-1104.0,14756.0,-6.0,372.0,323.0,0.14127277314430065,-0.45548989985583993,0.444994133121847,0.757991540971647
-9800.302894830704,7908.0,-1588.0,14300.0,171.0,522.0,237.0,0.11196043333731039,-0.4779719817403562,0.4714687063677225,0.7326151137903617
-9800.318468809128,7016.0,-1996.0,13852.0,240.0,468.0,383.0,0.07809232863599555,-0.4889270990859339,0.5065014822663889,0.7059094336029033
-9800.334033250809,6924.0,-2152.0,13796.0,271.0,74.0,525.0,0.05395550602093274,-0.4677257499924024,0.545327854319724,0.6934976261438217
-9800.349615335464,7404.0,-1972.0,14020.0,223.0,-434.0,1016.0,0.022091045042433366,-0.39008386419117314,0.5953436677981432,0.7020772620155633
-9800.365198373795,7568.0,-1724.0,14620.0,8.0,-606.0,816.0,0.003804558340342952,-0.3092341922237903,0.6199584054199657,0.721118100760665
-9800.380768537521,8188.0,-1584.0,15228.0,320.0,-528.0,628.0,0.0014438323553559228,-0.24111724681091418,0.6548802065597167,0.7162348104460975
-9800.396347999573,7856.0,-1476.0,15344.0,345.0,-507.0,175.0,0.026666323940210204,-0.19899298406483873,0.6789467324145418,0.7062025446032485
-9800.411943912506,7780.0,-1524.0,15268.0,371.0,82.0,-275.0,0.04512930953668563,-0.2192368557482974,0.6965777334477048,0.6816729478035641
-9800.427524805069,7692.0,-1464.0,14944.0,305.0,356.0,-617.0,0.06585103210255583,-0.2760493175486938,0.7026551967579063,0.6524845517872713
-9800.443093538284,7552.0,-1476.0,14736.0,324.0,764.0,-760.0,0.06972315981674422,-0.3625233510825903,0.7037523087758989,0.6069993317933798
-9800.458689689636,7732.0,-1580.0,14684.0,303.0,631.0,-706.0,0.07764266599617665,-0.4358045108607211,0.698646452826059,0.5620846721660526
-9800.47424197197,7668.0,-1956.0,14880.0,290.0,768.0,-579.0,0.06996197651277299,-0.504862335464572,0.6933697179189972,0.5093699817859455
-9800.489835262299,7520.0,-2256.0,14848.0,510.0,789.0,-456.0,0.06467765912895893,-0.5620753689735218,0.6978609118135947,0.4391790383950217
-9800.505419492722,7280.0,-2460.0,14716.0,349.0,717.0,-303.0,0.049591075187674825,-0.6043619950296865,0.6984802009841705,0.380016727340495
-9800.520981550217,7124.0,-2560.0,14624.0,532.0,554.0,-65.0,0.04592024159147295,-0.6229806825124274,0.7134808600715209,0.3173822032504873
-9800.536553621292,7132.0,-2448.0,14608.0,667.0,274.0,59.0,0.06335549918321373,-0.6229756739453634,0.7348034318755348,0.2606747147298766
-9800.55210852623,7164.0,-2240.0,14628.0,676.0,25.0,146.0,0.09500888857590413,-0.6093262515175553,0.756885684321258,0.21637673436087623
-9800.567723035812,7632.0,-2040.0,14376.0,690.0,-249.0,14.0,0.14758751810321366,-0.5967513250508312,0.7670287666833377,0.18377337029735522
-9800.58330488205,7824.0,-1356.0,14668.0,615.0,183.0,334.0,0.16168851630898404,-0.5682675883800269,0.7950689946764582,0.13709144902113202
-9800.598909378052,8004.0,-1280.0,14720.0,537.0,447.0,253.0,0.1539489089607927,-0.5473286127441164,0.8186351971389464,0.08104034246386964
-9800.61449956894,7856.0,-1296.0,14500.0,509.0,565.0,108.0,0.13681538112547847,-0.535566859780049,0.8331183914389151,0.019063998506657458
-9800.630084753036,7700.0,-1404.0,14588.0,440.0,574.0,-68.0,0.11551407058729676,-0.5351403050908295,0.835846216664787,-0.04052721864141396
-9800.645664215088,7368.0,-1340.0,14764.0,410.0,537.0,-165.0,0.09471616266116425,-0.5401532009676929,0.8305692446215489,-0.097046885080815
-9800.66128540039,7324.0,-1616.0,14760.0,445.0,461.0,-281.0,0.07973202843145842,-0.5519151284821934,0.8158332165588477,-0.1531295443535745
-9800.676869153976,7360.0,-1704.0,14700.0,540.0,362.0,-302.0,0.07576696757027943,-0.5637226336628025,0.7950170839121067,-0.21077000547840816
-9800.692493200302,7364.0,-1668.0,14752.0,560.0,365.0,-228.0,0.07364192515236688,-0.5680454610835367,0.7744197139199777,-0.26865466252113535
-9800.708081960678,7252.0,-1644.0,14660.0,596.0,311.0,-25.0,0.08142797240223813,-0.5576447199084036,0.7598688495951194,-0.32403886045307606
-9800.723661661148,7316.0,-1812.0,14544.0,524.0,146.0,48.0,0.0984806363628474,-0.5459791912236759,0.7475414941970393,-0.3652259594634086
-9800.739252090454,7216.0,-1704.0,14808.0,408.0,-39.0,130.0,0.12451391180790025,-0.5348472377165718,0.7398378416165683,-0.38868327232514777
-9800.754826307297,7548.0,-1636.0,14584.0,283.0,-113.0,168.0,0.15064220973308093,-0.5245063661475722,0.7364719316532379,-0.39976129177842074
-9800.770431995392,7648.0,-1472.0,14596.0,254.0,-173.0,211.0,0.18065072135842078,-0.5133606093516118,0.7345632304566057,-0.40526912305279295
-9800.78600358963,7728.0,-1620.0,15076.0,289.0,-24.0,248.0,0.2037952419415178,-0.49346991747735625,0.7346219720806669,-0.4186711096352377
-9800.801590442657,7764.0,-1724.0,15132.0,373.0,140.0,7.0,0.21100934290532583,-0.48097124275659014,0.7232942250016644,-0.4483159431997543
-9800.817167282104,7696.0,-1804.0,15172.0,473.0,287.0,174.0,0.21927278200451628,-0.4494567322779393,0.7164007279254596,-0.48649572445182726
-9800.832746505737,7568.0,-1856.0,15064.0,286.0,421.0,139.0,0.20984261209960284,-0.416960761919926,0.7169420786702239,-0.5177874631529708
-9800.84832406044,7472.0,-1824.0,15052.0,578.0,503.0,160.0,0.2061446757202996,-0.3727471464294396,0.7041394989634434,-0.5681122279095858
-9800.863938331604,7312.0,-1920.0,14724.0,505.0,425.0,213.0,0.20662746324356834,-0.3288826590228952,0.6923211950230438,-0.608138677399672
-9800.879528999329,6916.0,-1816.0,14564.0,407.0,502.0,321.0,0.2045977225088143,-0.27494512899530066,0.6875278587072441,-0.6401955884629285
-9800.895107507706,7020.0,-1852.0,14636.0,321.0,7.0,425.0,0.23536383443263267,-0.24305684953655177,0.6790781445776629,-0.6514446307181395
-9800.910685539246,7196.0,-1960.0,14988.0,0.0,14.0,763.0,0.27729801507685,-0.19660782893596626,0.6939118195294329,-0.6347736282745815
-9800.926312685013,7356.0,-1952.0,15188.0,152.0,284.0,451.0,0.2873530589529349,-0.14971801681789815,0.69918317028291,-0.6373034044657582
-9800.941972494125,7380.0,-1764.0,15500.0,81.0,538.0,292.0,0.27142338014103873,-0.0998157808639955,0.7108548500245073,-0.6411330133443132
-9800.957535982132,7232.0,-1608.0,15288.0,54.0,765.0,80.0,0.22837962017993182,-0.0506755273708768,0.7249175609174259,-0.6478960332381142
-9800.973158121109,7076.0,-1584.0,15164.0,4.0,846.0,-184.0,0.1639774787019071,-0.014388376574858969,0.7385448045766295,-0.6538011415797419
-9800.98874759674,6852.0,-1548.0,15348.0,-256.0,748.0,-323.0,0.09671114722706765,0.0037646156927154087,0.7612580123605267,-0.641185636370319
-9801.004379034042,6712.0,-1716.0,15052.0,-253.0,655.0,-442.0,0.028425443850528805,0.00885685673170321,0.7789732362286523,-0.626349940105525
-9801.020009040833,6740.0,-1544.0,14748.0,35.0,498.0,-648.0,-0.04083038691698685,-0.007906934381665925,0.7767401816383392,-0.628446537202118
-9801.035607814789,7024.0,-1416.0,14604.0,65.0,630.0,-707.0,-0.12192018499735424,-0.021477151454326722,0.7677270459278219,-0.6287045279036558
-9801.051251649857,7312.0,-1320.0,14668.0,121.0,892.0,-718.0,-0.21983189569744468,-0.021854771566886252,0.7463952150268086,-0.6277662698639609
-9801.066846370697,7384.0,-1568.0,14992.0,80.0,1219.0,-530.0,-0.32602415136403773,0.008782580900671903,0.7127061681564171,-0.6210322349700367
-9801.082438468933,7332.0,-1988.0,14856.0,72.0,1209.0,-404.0,-0.4206766414752903,0.04680691451384395,0.6704379204678143,-0.609387619557172
-9801.098042726517,7112.0,-2360.0,14940.0,125.0,961.0,-140.0,-0.4832069673907719,0.08478043135152007,0.6266572392865676,-0.6054948468604843
-9801.113625526428,7148.0,-2492.0,14748.0,287.0,570.0,177.0,-0.5064113008063985,0.1122250958869928,0.5850219798751136,-0.6234600270520386
-9801.129209041595,7276.0,-2580.0,14472.0,453.0,65.0,534.0,-0.48430281740916814,0.1226829649955026,0.5510873131803034,-0.6683580211242839
-9801.144792318344,6972.0,-2460.0,14324.0,571.0,-328.0,803.0,-0.4261513232035054,0.11744523785394397,0.5207647084587279,-0.7303463454151242
-9801.16037940979,7388.0,-2296.0,14252.0,580.0,-473.0,1012.0,-0.3441158447473586,0.11092061942179963,0.48793246549566527,-0.794482731528016
-9801.176008224487,7592.0,-1976.0,14492.0,496.0,-390.0,1166.0,-0.24988028561882522,0.11770409206741826,0.45081074740343563,-0.8488081406273122
-9801.191587209702,7860.0,-1760.0,14648.0,283.0,-32.0,1216.0,-0.1605769430286009,0.1559195382805984,0.41545046062215585,-0.8816490558713216
-9801.20723605156,7968.0,-1552.0,14956.0,225.0,550.0,1047.0,-0.10252615734314634,0.23160326831602912,0.37399521807372815,-0.8921748091174544
-9801.222823858261,7904.0,-1452.0,15320.0,242.0,1165.0,708.0,-0.08972682450705456,0.3406090702093704,0.327928584972838,-0.8765827978078857
-9801.238443374634,7900.0,-1532.0,15492.0,337.0,1566.0,203.0,-0.1278325114639267,0.45889024658010535,0.2810072578036739,-0.8331347500063448
-9801.254039525986,7192.0,-1664.0,15176.0,471.0,1711.0,-240.0,-0.20370387269849183,0.5651628110425259,0.23440248476189257,-0.7642978505789464
-9801.269640684128,6880.0,-1724.0,15040.0,626.0,1759.0,-281.0,-0.2855358586626267,0.6566537527811103,0.1728860822568952,-0.676302835228526
-9801.285235881805,6728.0,-1800.0,14612.0,730.0,1588.0,-639.0,-0.38410490094208305,0.713116219182403,0.12520683749108583,-0.5729327454917799
-9801.300892591476,6604.0,-1748.0,14648.0,817.0,1334.0,-650.0,-0.4769448177484121,0.7372309348824384,0.0792375783427328,-0.4719487214239268
-9801.31652545929,6436.0,-1752.0,14288.0,1020.0,974.0,-674.0,-0.5718786818699882,0.7234384005915778,0.03969787515440386,-0.38472812800777917
-9801.332118272781,6292.0,-1792.0,14076.0,755.0,512.0,-676.0,-0.6409888369406821,0.6970896930295083,0.031353565606716136,-0.3197127221635119
-9801.347736597061,6132.0,-1724.0,13572.0,796.0,98.0,-828.0,-0.7093174254417555,0.6496297275171821,0.053808272949785664,-0.26824368930655706
-9801.363326787949,5908.0,-1580.0,13552.0,829.0,-159.0,-1073.0,-0.7753167370677542,0.5852634685322393,0.104391737924727,-0.21319707942952384
-9801.37890791893,6308.0,-1492.0,13548.0,960.0,-320.0,-1260.0,-0.8367028326707444,0.49776570490850786,0.17090213962405673,-0.15149300805518306
-9801.39450263977,6932.0,-796.0,14248.0,1121.0,-297.0,-1292.0,-0.8880078243484499,0.3880652687208958,0.23129215618855498,-0.0857402448921186
-9801.410076856613,7456.0,-252.0,14976.0,1202.0,-137.0,-1967.0,-0.9221924035988418,0.24892148774095865,0.29363477293215484,0.03711985736099146
-9801.425656080246,7980.0,32.0,16208.0,1097.0,50.0,-2384.0,-0.915899913068638,0.09660809383036588,0.33617077654073724,0.19693510212078089
-9801.44123840332,8072.0,-88.0,16708.0,1005.0,392.0,-2573.0,-0.866406628548311,-0.06418525176511886,0.3338068145571204,0.36577700586371675
-9801.456869363785,7836.0,-308.0,16452.0,979.0,797.0,-3013.0,-0.7578746148932565,-0.24161610129909827,0.27672157230960204,0.5391408898534071
-9801.47251033783,7288.0,-608.0,15924.0,973.0,1279.0,-3076.0,-0.5968496274233119,-0.4213289295442609,0.16555638095354192,0.6624526700824043
-9801.488111019135,6808.0,-952.0,15416.0,779.0,980.0,-3070.0,-0.3889903947634046,-0.5405798135487697,0.04480321346290927,0.7446157465624704
-9801.503769874573,6696.0,-980.0,15224.0,286.0,737.0,-2372.0,-0.21910970842209831,-0.5933585302654086,-0.07185752637895922,0.7712023639351441
-9801.519372463226,6876.0,-1012.0,15280.0,-377.0,-200.0,-1862.0,-0.1130082127338399,-0.5532349493410396,-0.1872520280425514,0.8038015381151445
-9801.534969329834,6768.0,-956.0,14776.0,-752.0,-715.0,-1374.0,-0.06388685263842196,-0.4677965568777808,-0.2959633518952201,0.8303556742554338
-9801.550627708435,6724.0,-984.0,14396.0,-882.0,-834.0,-1168.0,-0.03637997609591729,-0.36814376645091573,-0.3985984558211556,0.839205538339437
-9801.566224336624,6772.0,-792.0,14436.0,-660.0,-737.0,-1202.0,0.004806251492366921,-0.2676309400050106,-0.47875197545048265,0.8361501814272883
-9801.58180475235,6920.0,-1128.0,14800.0,-342.0,-422.0,-1385.0,0.07964489096772356,-0.17746822473691704,-0.5316777126604169,0.8243060902429713
-9801.59741282463,7280.0,-1100.0,15244.0,-99.0,110.0,-1431.0,0.1847894165453184,-0.11860668506356087,-0.5557171800036004,0.8018501990022326
-9801.613014698029,7256.0,-1280.0,15492.0,-125.0,257.0,-1297.0,0.2849077566993034,-0.07508539088289704,-0.569797639495884,0.7671508354120797
-9801.628602743149,7080.0,-684.0,15692.0,-274.0,807.0,-1632.0,0.42713532896751505,-0.0539834456057257,-0.5712970263092457,0.6987566858918484
-9801.644236564636,6936.0,-596.0,15452.0,-444.0,960.0,-1500.0,0.5573925910043855,-0.05352271463387018,-0.5623299023316927,0.6084684868218468
-9801.65986418724,7060.0,-644.0,15180.0,-516.0,950.0,-1315.0,0.6642652624236426,-0.06375407216986018,-0.5435305415096001,0.5091774051009039
-9801.675456523895,6936.0,-952.0,15268.0,-447.0,847.0,-1070.0,0.7438054231036668,-0.07587716080529527,-0.5160336840039581,0.4179777338603166
-9801.691079378128,6976.0,-1196.0,15232.0,-265.0,732.0,-920.0,0.8042564118623874,-0.077835008268472,-0.48143405831379793,0.3396094565255678
-9801.706661701202,7036.0,-1388.0,15228.0,19.0,684.0,-712.0,0.8511812518858388,-0.06652441314093425,-0.43588042307325126,0.28473362231354743
-9801.722253322601,6856.0,-1284.0,14812.0,10.0,594.0,-574.0,0.8859027002374701,-0.05846476995303301,-0.39360062478232627,0.23840474944358916
-9801.737836122513,6712.0,-956.0,14660.0,362.0,391.0,-548.0,0.9106528178614022,-0.01963905507367578,-0.35761158340067417,0.20600900042125223
-9801.753421783447,6668.0,-580.0,14140.0,355.0,42.0,-345.0,0.9180048448742119,0.01865491866608581,-0.34791129286714423,0.18941180293885673
-9801.769002914429,6760.0,-448.0,14180.0,284.0,-342.0,-9.0,0.9067236701313426,0.047323696237859175,-0.3700732214010885,0.19661755923557753
-9801.78460764885,7104.0,-412.0,14404.0,201.0,-610.0,247.0,0.8804738494311011,0.06558297540115841,-0.41493267855248483,0.21976247649398636
-9801.800252199173,7344.0,-580.0,14908.0,172.0,-573.0,511.0,0.8470535272237891,0.0710855641123097,-0.45729593782396166,0.26139546637666783
-9801.815913438797,7400.0,-788.0,15044.0,57.0,-482.0,631.0,0.8112237035314858,0.060938973812025024,-0.4941485282062673,0.30662644434389064
-9801.831506729126,7236.0,-1268.0,15036.0,-36.0,-435.0,716.0,0.7715421857730304,0.03903100149878796,-0.5281141011582555,0.3525545810968628
-9801.847121238708,6932.0,-988.0,15100.0,-31.0,-474.0,519.0,0.7325660338439929,0.02756593805450953,-0.5615173990379204,0.38377771651692566
-9801.862720012665,7112.0,-904.0,14648.0,-191.0,-615.0,581.0,0.6815932687086144,0.007481645603489547,-0.60673573951171,0.40895767926443033
-9801.87831735611,7016.0,-920.0,14776.0,-67.0,-904.0,532.0,0.6123222860277014,0.007591057591103534,-0.6603391088665397,0.43469075810258817
-9801.893968105316,6876.0,-920.0,14744.0,176.0,-909.0,458.0,0.5403582783080596,0.025018094711954517,-0.6995842561871694,0.46687138967383557
-9801.909580945969,6768.0,-1096.0,14552.0,309.0,-924.0,229.0,0.47223715465124416,0.06304936466907202,-0.7281862361720842,0.49270848666453554
-9801.925249576569,6456.0,-1052.0,14060.0,608.0,-981.0,88.0,0.40081111049580337,0.12409636735874671,-0.7390906677593747,0.5269682439601889
-9801.940925121307,6216.0,-936.0,13836.0,907.0,-851.0,-50.0,0.33649346137996267,0.19705022724532134,-0.7222474353126559,0.5712285011931647
-9801.956528663635,6092.0,-848.0,13828.0,1356.0,-794.0,-116.0,0.2664669030105206,0.281135436344535,-0.6695493924566733,0.6337679915333762
-9801.972101926804,6240.0,-824.0,14092.0,1636.0,-813.0,-76.0,0.1807886971134997,0.3639829611297383,-0.5885225970966554,0.6989084372862001
-9801.987997293472,6444.0,-988.0,15228.0,1692.0,-1090.0,78.0,0.06532950049070096,0.4462907136618923,-0.4972274050677041,0.7411623053788093
-9802.003683805466,7312.0,-1028.0,15856.0,1488.0,-1345.0,453.0,-0.07901746580164311,0.5138593554314699,-0.4194519131673442,0.7441538117043381
-9802.019295692444,7964.0,-776.0,16496.0,950.0,-1439.0,763.0,-0.22088428659792814,0.5651698812314497,-0.3768577911045239,0.6998366542035166
-9802.034890174866,8184.0,-724.0,16448.0,476.0,-1444.0,959.0,-0.34621577974465084,0.6051828238070606,-0.3627088857249368,0.618328915578829
-9802.050472736359,8124.0,-532.0,15708.0,61.0,-1448.0,789.0,-0.4334146074093128,0.6497469716470506,-0.35359444323285727,0.514734514710801
-9802.066078424454,7496.0,-272.0,14784.0,-106.0,-1474.0,596.0,-0.4949494182437183,0.6948476843858172,-0.33310826113054537,0.40156027598662764
-9802.081671237946,7108.0,-628.0,13880.0,-119.0,-1485.0,458.0,-0.5420244040301164,0.7319324750668161,-0.29808555883600873,0.2857085875359478
-9802.097357273102,7192.0,-952.0,13288.0,-106.0,-1639.0,460.0,-0.5830094163925543,0.7574588700987303,-0.24975648726703575,0.15484759466778625
-9802.112940311432,7876.0,-1276.0,13536.0,-250.0,-1748.0,831.0,-0.607151467856423,0.7646322794629942,-0.21595369177575321,-0.0082810199516435
-9802.12851858139,8504.0,-1928.0,14504.0,64.0,-1758.0,1405.0,-0.6315547261287621,0.7196699477924577,-0.2124858616577426,-0.19509882814715315
-9802.144095182419,9144.0,-2556.0,15776.0,77.0,-1303.0,1914.0,-0.6155990387331227,0.6446261296557163,-0.2569406098528585,-0.37346552650062365
-9802.159725904465,9356.0,-2860.0,16068.0,-24.0,-1020.0,2346.0,-0.5472617864290545,0.5465177792608561,-0.3252737883075392,-0.5440770319599281
-9802.175304412842,8504.0,-2720.0,15024.0,-123.0,-1203.0,2671.0,-0.43476280097854203,0.40624469760906423,-0.3771455445813171,-0.709723742559226
-9802.190887451172,7760.0,-2192.0,14008.0,-101.0,-1651.0,2875.0,-0.2953379437543479,0.20463408990260723,-0.3938945177819217,-0.8460186150966376
-9802.206500768661,7576.0,-1828.0,12936.0,-5.0,-2297.0,3183.0,-0.13165685718252396,-0.07041479426147297,-0.3698921253464398,-0.91699947890532
-9802.222154378891,7704.0,-1304.0,12792.0,69.0,-2843.0,3398.0,0.04570127882381751,-0.38105297177902037,-0.2999689457715645,-0.873343378852179
-9802.23777270317,8460.0,-1416.0,12788.0,182.0,-3038.0,3380.0,0.2137217790872228,-0.6509353307794304,-0.1982719930965541,-0.7009239709414894
-9802.25336766243,9076.0,-1380.0,13268.0,424.0,-3014.0,3241.0,0.3579952228006381,-0.8235813279300788,-0.08971749764391687,-0.43070173827529823
-9802.268958330154,9428.0,-1624.0,13476.0,810.0,-2702.0,3036.0,0.47890583586414304,-0.8684969272951256,0.012831863555490612,-0.12726991369481377
-9802.284556150436,9720.0,-1920.0,13468.0,1277.0,-2537.0,2842.0,0.5758233303506753,-0.7927299987674759,0.10192842474712563,0.1720965935355629
-9802.30018234253,9420.0,-2136.0,13488.0,1636.0,-1697.0,2507.0,0.6383807422287372,-0.6346295093816843,0.20556492397608567,0.38400322368979584
-9802.315810918808,9120.0,-2244.0,13104.0,1920.0,-1237.0,2330.0,0.6625820176603875,-0.42729055209155314,0.317364923333531,0.5269604913120979
-9802.331434726715,8828.0,-2188.0,12688.0,2073.0,-1169.0,2211.0,0.6452272346452224,-0.18498203635799174,0.41123285488005334,0.6167260339600806
-9802.347015857697,8568.0,-2028.0,12312.0,2298.0,-1032.0,2135.0,0.5808560386375714,0.07372317099972399,0.49112683738978147,0.6449539410155773
-9802.362618923187,8532.0,-1900.0,11852.0,2466.0,-1498.0,2110.0,0.48727927066637317,0.35663492625836934,0.515731347060045,0.6077759615279025
-9802.378193378448,8508.0,-1880.0,12132.0,2649.0,-1808.0,2061.0,0.35759620724573954,0.6243549357868116,0.4887224172357082,0.49341287540293777
-9802.393810987473,8556.0,-1828.0,12884.0,2712.0,-1965.0,1957.0,0.19827546962338777,0.8307940823875627,0.4143556196850085,0.31428880229954975
-9802.409422636032,8908.0,-1828.0,13344.0,2755.0,-2122.0,1816.0,0.024028368277629195,0.9483146419892259,0.30414326258966895,0.08728604200026877
-9802.42500257492,9164.0,-1876.0,13880.0,2871.0,-2123.0,1697.0,-0.16091558262239106,0.9600117737017221,0.1711735961022711,-0.1522602036672309
-9802.44065117836,9068.0,-2012.0,13584.0,3281.0,-1916.0,1647.0,-0.3624435821003587,0.8586756668214489,0.015482194467287094,-0.36203736085862415
-9802.456234693527,8868.0,-1976.0,13460.0,3577.0,-1554.0,1547.0,-0.5442801599472383,0.6558333913373543,-0.15430449010696484,-0.49983176632501325
-9802.471895933151,9140.0,-2036.0,12756.0,3839.0,-1114.0,2131.0,-0.6380891656613371,0.36829356375570954,-0.3634222938818201,-0.5701984776123256
-9802.487485170364,9520.0,-1716.0,12428.0,3305.0,-1158.0,2598.0,-0.6092002244022942,0.04117776710360873,-0.511045386556011,-0.6049893312814474
-9802.503102302551,9536.0,-1088.0,12712.0,2446.0,-1789.0,2683.0,-0.5243789180705378,-0.2858052154444762,-0.5228924837603991,-0.608215076707894
-9802.518700361252,10084.0,-708.0,13044.0,1503.0,-2721.0,2473.0,-0.4533075218493631,-0.5781785020245624,-0.39331390591904475,-0.5527441377727375
-9802.534306764603,11348.0,-524.0,13732.0,984.0,-3293.0,2240.0,-0.3847022614286434,-0.8029390279859772,-0.18576515837214877,-0.4156734214784398
-9802.549928665161,11876.0,-1536.0,14120.0,982.0,-3215.0,1934.0,-0.28212332100885584,-0.9319409761176253,0.021011347444031877,-0.2268280671664071
-9802.565513134003,12468.0,-2320.0,14760.0,1494.0,-3061.0,1914.0,-0.11082665626489618,-0.9709062173447386,0.21063544824545322,-0.026292153295439206
-9802.581117868423,12696.0,-2596.0,14720.0,2149.0,-2246.0,1543.0,0.11114802276605719,-0.9268860033009046,0.3428322410764467,0.104854701366094
-9802.596720218658,12340.0,-2672.0,14496.0,2305.0,-1674.0,1650.0,0.31971566142229213,-0.8071560806661502,0.462472461143878,0.18000049991177716
-9802.612294912338,12596.0,-1824.0,14048.0,2637.0,-911.0,1685.0,0.49615809424162427,-0.6263606963776025,0.5743952460614735,0.17767814962415482
-9802.627888917923,13136.0,-1080.0,13768.0,2353.0,-308.0,1586.0,0.5974370289265142,-0.42708466944974116,0.6639388979005506,0.1409000406070453
-9802.643463611603,13500.0,-792.0,13860.0,2058.0,503.0,1788.0,0.6055928180046402,-0.21607012699515774,0.7601616392533718,0.09340942783853239
-9802.659125804901,12548.0,-544.0,16176.0,1482.0,1812.0,933.0,0.49394866577442814,-0.088468303068363,0.8649211562058322,0.009973388563206278
-9802.674725532532,11060.0,964.0,19308.0,354.0,3146.0,-385.0,0.25002215368434516,-0.10116330946900724,0.96133776947942,-0.05553917947407261
-9802.69031214714,10064.0,2196.0,19896.0,-580.0,3201.0,-1343.0,-0.028903855215412524,-0.2017039819750838,0.9770795531110776,-0.0616085846399535
-9802.705911636353,9620.0,1752.0,16544.0,-200.0,3138.0,-1683.0,-0.2951992038492136,-0.31304988244451465,0.8980709668222213,-0.09124549139144694
-9802.721535682678,8620.0,108.0,13560.0,224.0,3193.0,-1813.0,-0.5273871391112904,-0.4146460450172074,0.7278092464237907,-0.1422152019709223
-9802.737159967422,8864.0,-1372.0,11392.0,1203.0,2839.0,-986.0,-0.6510455625164556,-0.4786154129026326,0.5258245213397225,-0.2656605631581892
-9802.752751350403,8920.0,-2540.0,11688.0,1646.0,2637.0,-116.0,-0.6814022223807212,-0.4981605195765561,0.3212560659044863,-0.4293269711879308
-9802.768338918686,8868.0,-2720.0,12960.0,1359.0,2645.0,201.0,-0.6667923505558768,-0.45877545809213455,0.11781718440972205,-0.5753539357215578
-9802.783964633942,8324.0,-1608.0,14752.0,947.0,2751.0,412.0,-0.6165338482337057,-0.35964396594298254,-0.07098147061712558,-0.6967810721969784
-9802.79954624176,7420.0,-860.0,15240.0,673.0,3041.0,407.0,-0.532182750486192,-0.20568634422017462,-0.2532289027416002,-0.7812488532488073
-9802.81519150734,5912.0,-56.0,14788.0,734.0,3540.0,139.0,-0.4112859336142561,-0.001374803300178326,-0.44338611853702864,-0.7963986066132985
-9802.83080124855,5276.0,556.0,13844.0,991.0,4137.0,-55.0,-0.23896171501365132,0.23688978818271167,-0.6193184573218208,-0.7093836588426637
-9802.846399784088,4784.0,1496.0,13536.0,1026.0,4714.0,-66.0,-0.008681042631384,0.4708531228721535,-0.7186262613784887,-0.5116622642305655
-9802.862019777298,4752.0,2416.0,12776.0,1592.0,4925.0,-149.0,0.20796357218002168,0.6368993777359858,-0.7174438390611467,-0.1907476686065717
-9802.87761926651,4472.0,2868.0,12588.0,1729.0,4728.0,-413.0,0.36703559992568846,0.7071663018364566,-0.5832470617303546,0.15818835265925116
-9802.89321398735,4348.0,2636.0,13652.0,1604.0,4245.0,-617.0,0.45753267987040896,0.6790544479947539,-0.35931585823276163,0.4477063965721241
-9802.908863067627,3996.0,2380.0,14860.0,1190.0,3862.0,-1164.0,0.5197655654029025,0.5745642634090143,-0.08403094992617177,0.6266246593369615
-9802.92500090599,4724.0,1824.0,16024.0,790.0,3872.0,-1910.0,0.5724834386940653,0.385146320298377,0.2153821467607027,0.6910394744429507
-9802.94072318077,4940.0,1364.0,16444.0,667.0,4043.0,-2378.0,0.5706633382812215,0.11991473380606549,0.49663471159258693,0.6428979500661831
-9802.956338644028,5232.0,780.0,16288.0,929.0,4507.0,-2988.0,0.48099597012616563,-0.19504636861404767,0.725502950962407,0.45193501629957955
-9802.971979856491,4936.0,504.0,15848.0,1034.0,4792.0,-3133.0,0.28422691805284955,-0.4806527017768193,0.8150387514362394,0.15459583754447778
-9802.987577199936,4196.0,80.0,15576.0,1655.0,5109.0,-2860.0,0.02543031143328203,-0.6288297341424312,0.7455019733623592,-0.21943853907550942
-9803.003174304962,3744.0,116.0,15608.0,1732.0,4611.0,-2320.0,-0.20233025469589092,-0.6210461075143231,0.5375586305201736,-0.5332869013291807
-9803.018802165985,3532.0,400.0,15616.0,1651.0,4194.0,-1520.0,-0.3513339674853647,-0.4859919060765206,0.28090544411449814,-0.7493119790754312
-9803.034418582916,3688.0,628.0,16092.0,1484.0,3652.0,-613.0,-0.3947991470141977,-0.29040440421001573,0.04319734038945914,-0.8705934213601462
-9803.050023078918,4212.0,712.0,16424.0,1178.0,3104.0,-2.0,-0.36191342806722393,-0.09111732339749085,-0.14727465622863886,-0.9159838860996647
-9803.065611362457,4700.0,720.0,17304.0,779.0,2921.0,440.0,-0.2734417661898745,0.10828006006457688,-0.28796154679819497,-0.9113633614870442
-9803.081202507019,4804.0,864.0,17268.0,556.0,2864.0,631.0,-0.1514677679161802,0.2969021552735645,-0.3932015959984692,-0.8569125570212277
-9803.096798181534,4684.0,1088.0,17132.0,489.0,2837.0,593.0,-0.021704778785516736,0.46703578252244804,-0.46741907287835144,-0.7502838734312892
-9803.112392425537,4280.0,1292.0,16472.0,441.0,2524.0,344.0,0.08374700861556905,0.6022419442677233,-0.5024250544754946,-0.614703297329592
-9803.128060102463,4092.0,1996.0,16228.0,398.0,2312.0,-97.0,0.15581934782361795,0.7184754483719454,-0.4915398501565545,-0.46679967506268294
-9803.143659353256,4008.0,2408.0,16320.0,382.0,2221.0,-658.0,0.19631739480251612,0.8252234109975922,-0.4267498313327169,-0.3136086476756498
-9803.159281015396,4100.0,2336.0,16248.0,484.0,2363.0,-1183.0,0.21141117461600756,0.9173703043955069,-0.305982209988408,-0.1418165259459722
-9803.174862861633,4268.0,1924.0,16184.0,451.0,2581.0,-1442.0,0.21908959466816375,0.9638451496867365,-0.14364282170403067,0.04867254571517887
-9803.190438985825,4332.0,1528.0,16620.0,401.0,2690.0,-1516.0,0.217668360672514,0.9447982235016807,0.03576258498825998,0.24227636934948085
-9803.20603632927,4320.0,1108.0,16500.0,401.0,2712.0,-1320.0,0.19724274394846114,0.8610501163704241,0.19777794081890523,0.4249375050329102
-9803.221619844437,4200.0,720.0,16544.0,448.0,2588.0,-876.0,0.14716991283966163,0.7363807626450393,0.3156897143979704,0.5800210283984579
-9803.237182378769,3932.0,540.0,16432.0,479.0,2445.0,-377.0,0.06651185603461976,0.5940704437644865,0.3863059747134947,0.7024415810250366
-9803.252752542496,3800.0,648.0,16800.0,458.0,2189.0,165.0,-0.04040623639890617,0.4592580117486042,0.41066887422251025,0.7866387293094655
-9803.26832151413,4084.0,892.0,16924.0,303.0,1928.0,612.0,-0.161158065890329,0.3422230440896459,0.39379289841714604,0.8377580910076178
-9803.283949613571,3936.0,1560.0,17008.0,137.0,1627.0,779.0,-0.2747621113926045,0.2449467279981247,0.35311934668475603,0.8601241826521459
-9803.299540996552,3836.0,1984.0,17220.0,-83.0,1618.0,713.0,-0.3720024206903488,0.1455950500658685,0.28920922398710913,0.8699277585855115
-9803.315158367157,3848.0,2112.0,17176.0,-173.0,1576.0,403.0,-0.4357979952173542,0.04121284104273723,0.2173240550129014,0.872440178012493
-9803.330774307251,3888.0,1804.0,17284.0,-189.0,1464.0,41.0,-0.462232844020641,-0.061704047606819246,0.1456075603791704,0.8725433208603179
-9803.346372842789,3868.0,1608.0,17312.0,-17.0,1413.0,-313.0,-0.4529074279903843,-0.1709436278805537,0.08484133242499521,0.8708932690465125
-9803.361984014511,3752.0,1036.0,17196.0,249.0,1337.0,-568.0,-0.4125827807245783,-0.28398055706942654,0.042092921622071865,0.8644990909222696
-9803.377570152283,3608.0,1252.0,16916.0,442.0,1297.0,-702.0,-0.35033999711302966,-0.39652104259665794,0.011269293211903928,0.8484727174349249
-9803.393153190613,3464.0,1452.0,16668.0,497.0,1157.0,-699.0,-0.28036480854335566,-0.49399532420909326,-0.011369839782455999,0.8229428415955274
-9803.40875005722,3268.0,1552.0,16328.0,451.0,1028.0,-602.0,-0.21538039035951526,-0.5745691513940241,-0.029872171773156646,0.7890432377686846
-9803.424317121506,3208.0,1444.0,15940.0,335.0,885.0,-535.0,-0.15875266192853224,-0.637426509454091,-0.05001874822256993,0.7523185244309926
-9803.439904689789,3080.0,1348.0,15468.0,304.0,786.0,-534.0,-0.10298081699855717,-0.6882072821168872,-0.07037116471264639,0.7147122409393746
-9803.455469846725,3100.0,1400.0,15344.0,316.0,630.0,-451.0,-0.05187519460523644,-0.7255556947501948,-0.08317236902105696,0.6811462802009978
-9803.471071243286,3236.0,1376.0,15140.0,324.0,580.0,-497.0,0.00238703144950898,-0.7558414228306504,-0.09773960480351779,0.6474140987552319
-9803.486659288406,3176.0,1516.0,15236.0,226.0,632.0,-467.0,0.048952836518913904,-0.7854611944013182,-0.11534046850962602,0.6060948013391856
-9803.50224018097,3188.0,1488.0,15060.0,123.0,710.0,-768.0,0.10472992450904624,-0.8112908826831643,-0.157780656496844,0.5531220579790023
-9803.517854690552,3100.0,1460.0,14692.0,25.0,751.0,-545.0,0.14270482983156665,-0.837028961532673,-0.1876804787486651,0.49375488554033625
-9803.53344964981,2888.0,1156.0,14504.0,-89.0,685.0,-536.0,0.17005430135264082,-0.8563540989165079,-0.22149687986403874,0.4343711823669436
-9803.549038410187,2904.0,1108.0,14220.0,-49.0,455.0,-482.0,0.1931676186477729,-0.8635327397442887,-0.25220334050206367,0.3916515715981125
-9803.564696788788,2904.0,828.0,13984.0,42.0,92.0,-300.0,0.20856867406555588,-0.8590095821911558,-0.27172297273226126,0.38048425984770357
-9803.580284833908,3072.0,412.0,13868.0,104.0,-284.0,-170.0,0.2152162306829675,-0.843234792414153,-0.28605276846308,0.4010123097455786
-9803.595924139023,3200.0,296.0,14256.0,97.0,-698.0,-215.0,0.2120544604924566,-0.8099017233682325,-0.31094949852696013,0.4498916687784427
-9803.611530542374,3416.0,448.0,14800.0,60.0,-926.0,-329.0,0.20337110239813574,-0.7606478323675218,-0.34770438175547386,0.5090743882106044
-9803.62713432312,3384.0,884.0,15200.0,-123.0,-978.0,-405.0,0.182764361482549,-0.7039873305935341,-0.3957009179897966,0.5607314954928948
-9803.64272904396,3176.0,1044.0,15936.0,-385.0,-1073.0,-504.0,0.14588310937318236,-0.6363854635598822,-0.4598984522482504,0.6018513718427082
-9803.658311605453,3024.0,1368.0,16192.0,-695.0,-1220.0,-476.0,0.08264215078165167,-0.5573228319138632,-0.5339032177927613,0.6304830608130799
-9803.673925161362,2844.0,1312.0,16852.0,-958.0,-1322.0,-376.0,-0.0048143634234263525,-0.46890560129875564,-0.6079450239524494,0.6407083633190185
-9803.689536094666,3156.0,1100.0,17124.0,-1059.0,-1396.0,-347.0,-0.10160237481783153,-0.36747515738430414,-0.6726096263016917,0.6342201957861768
-9803.705166816711,3332.0,904.0,17188.0,-1140.0,-1346.0,-243.0,-0.2013334274516165,-0.26534767860931574,-0.7228408739480432,0.6054391227838364
-9803.720779895782,3568.0,768.0,17572.0,-1058.0,-1283.0,-498.0,-0.2773269344369775,-0.14582255526688487,-0.759012851278937,0.5707232651685429
-9803.736369848251,3276.0,516.0,17572.0,-935.0,-1179.0,-94.0,-0.3595898951096567,-0.05769958984279369,-0.7715262752765732,0.5216445832411729
-9803.751970529556,3384.0,844.0,17604.0,-823.0,-1169.0,57.0,-0.4416711075389946,0.01740635842265081,-0.7659974017419044,0.4667672139047382
-9803.767542362213,3280.0,772.0,17552.0,-880.0,-1341.0,167.0,-0.531617966365228,0.09388893386823992,-0.7430025572045257,0.3956190161282951
-9803.78312087059,3516.0,1256.0,17484.0,-1066.0,-1557.0,78.0,-0.618280265380632,0.18950863178234945,-0.6986868993637337,0.3060271369965888
-9803.798704385757,3676.0,1472.0,17524.0,-1215.0,-1733.0,-93.0,-0.6897733865451525,0.301913928357887,-0.6253783721608441,0.20484761827024733
-9803.814272880554,3816.0,1432.0,17584.0,-1231.0,-1864.0,-222.0,-0.7411086880786208,0.41358143167131745,-0.519330574373923,0.10002032969121871
-9803.82985830307,3856.0,1216.0,17412.0,-1248.0,-2300.0,-268.0,-0.7778277997923457,0.5131300332616539,-0.3622320985923463,-0.021665400630432978
-9803.845443725586,3620.0,916.0,17540.0,-1235.0,-2148.0,-325.0,-0.7729663204559194,0.5892433416448654,-0.19482486005510002,-0.13175213725985574
-9803.86103606224,4036.0,548.0,17616.0,-1061.0,-2145.0,-295.0,-0.7421087468441163,0.6273165362164238,-0.022168785069824785,-0.23506832244139444
-9803.876696109772,4180.0,596.0,17728.0,-907.0,-2134.0,-220.0,-0.6871336304049892,0.629697448114158,0.1438182052233184,-0.33263316378755814
-9803.8922894001,4220.0,556.0,17900.0,-1012.0,-2005.0,-3.0,-0.5951999252229629,0.6202143089417257,0.2881450194276462,-0.4219522576993259
-9803.907921075821,4276.0,612.0,18376.0,-490.0,-1802.0,271.0,-0.5066346899673371,0.5782170134311476,0.38000273848190286,-0.5143775802333522
-9803.923605680466,4248.0,760.0,18504.0,-304.0,-1555.0,712.0,-0.403217327091197,0.5391951912877333,0.4216277827134588,-0.6073831950834231
-9803.939255714417,4188.0,900.0,18524.0,-170.0,-1329.0,772.0,-0.3026975237350779,0.49850973282741967,0.4370691304074634,-0.6847136851603379
-9803.95484995842,4004.0,1132.0,18292.0,-242.0,-1195.0,1378.0,-0.16218927219116516,0.4798046100102452,0.41772924825035507,-0.7543105801692098
-9803.970479249954,3992.0,1292.0,17732.0,129.0,-1258.0,1650.0,-0.012899920254889076,0.4478882648172727,0.35211632119721864,-0.8217321891242472
-9803.986072301865,3928.0,1452.0,17600.0,147.0,-1222.0,2047.0,0.16224209503176998,0.41395423785398094,0.25729740449735183,-0.8579728650728752
-9804.001715183258,3628.0,1380.0,17528.0,-277.0,-1036.0,1773.0,0.3230727978300165,0.36615962611448394,0.19602458234023679,-0.8503678372471071
-9804.017357587814,3536.0,1376.0,17592.0,-533.0,-1184.0,1764.0,0.48258852135606484,0.28802010295395375,0.1431106664848396,-0.81466071249817
-9804.03294968605,3204.0,1380.0,17404.0,-534.0,-969.0,1078.0,0.5795640237096394,0.2079898253571511,0.11200755693462448,-0.7799359474719261
-9804.048543453217,3188.0,1320.0,17172.0,-509.0,-778.0,611.0,0.6350520852090055,0.13439332488829195,0.09558226458670535,-0.7546597339156509
-9804.064131498337,3280.0,1124.0,16832.0,28.0,-632.0,409.0,0.6655243863001621,0.09730029636108777,0.05357876794725612,-0.7380645359269685
-9804.079756736755,3324.0,1248.0,16464.0,151.0,-568.0,258.0,0.6824659742498261,0.07035527505218116,0.00842823061279453,-0.7274746003760578
-9804.095339775085,3288.0,1380.0,16180.0,134.0,-450.0,238.0,0.6963631012785516,0.04965227093870375,-0.028536564952284654,-0.7154011096084987
-9804.110928535461,3040.0,1788.0,15804.0,254.0,-394.0,218.0,0.7071799354796136,0.039673109303574136,-0.06944311270085003,-0.70249572052195
-9804.126502037048,2872.0,1588.0,15344.0,-5.0,-472.0,215.0,0.7167936195401526,0.00881946216472868,-0.09904770172769695,-0.6901584432984306
-9804.142081975937,2520.0,1544.0,15196.0,-488.0,-725.0,224.0,0.7221698160120658,-0.06742087643285452,-0.11476306529414025,-0.6787890844042926
-9804.157658815384,2476.0,1508.0,15092.0,-692.0,-995.0,184.0,0.7149852449280366,-0.17056338822170378,-0.1344997641497061,-0.6645404754995751
-9804.17329120636,2632.0,800.0,15340.0,-778.0,-1536.0,126.0,0.6850137133825538,-0.30596477105938413,-0.18119905585187462,-0.6358527136899019
-9804.1888859272,2724.0,508.0,15712.0,-932.0,-1470.0,104.0,0.6354145063187651,-0.4396430301762194,-0.2120601341477853,-0.5983250877928946
-9804.204512357712,3200.0,408.0,15828.0,-1009.0,-1601.0,96.0,0.5644945283087262,-0.573045233190789,-0.24114707221777967,-0.5429670135354596
-9804.220116376877,3328.0,648.0,16244.0,-1061.0,-1653.0,-112.0,0.46460312787306735,-0.691078329384039,-0.27387395706157736,-0.48119406882230087
-9804.235726833344,3580.0,520.0,16176.0,-1179.0,-1625.0,-392.0,0.3329724279323255,-0.7852826881111822,-0.30899636201062464,-0.42069194222605094
-9804.25131893158,3516.0,868.0,15860.0,-1109.0,-1739.0,-673.0,0.18214465464317262,-0.8481072670459634,-0.3585675400343392,-0.34491550791819847
-9804.266911506653,3804.0,768.0,15764.0,-999.0,-2001.0,-798.0,0.021106677210459546,-0.8805240104090185,-0.4106501045865639,-0.23579327147608833
-9804.28251838684,4024.0,448.0,15796.0,-1151.0,-1722.0,-836.0,-0.14358933135125934,-0.8716993650353348,-0.4459879351578044,-0.14358649871339083
-9804.298135757446,4672.0,264.0,16028.0,-1666.0,-1307.0,-893.0,-0.3259598926689543,-0.8161652593215025,-0.467355854404883,-0.09593186749662763
-9804.313742876053,5612.0,348.0,15788.0,-2472.0,-1125.0,-1173.0,-0.5401159619858852,-0.6849032068774554,-0.4823672154475273,-0.08064870909343821
-9804.329353570938,6684.0,644.0,15000.0,-3267.0,-1028.0,-1360.0,-0.7504812715319189,-0.45770477592152503,-0.4685093747969474,-0.08822224722729573
-9804.34493136406,8152.0,500.0,13892.0,-3603.0,-872.0,-1561.0,-0.8889744011641919,-0.15521115708472444,-0.42070512627264245,-0.09295809550064611
-9804.360502958298,8700.0,-952.0,12512.0,-3444.0,-641.0,-1486.0,-0.9217793871758575,0.15319769318613202,-0.34444955485296974,-0.09059653603609254
-9804.37607717514,8904.0,-2064.0,11792.0,-2896.0,-209.0,-1284.0,-0.8669071519482137,0.40776686908871645,-0.27689938933972497,-0.07432966136011918
-9804.391673326492,8672.0,-3656.0,12648.0,-2216.0,-27.0,-1654.0,-0.777192928870251,0.5980145718312891,-0.1957989875585842,-0.00353265658597069
-9804.407301902771,7876.0,-4316.0,14280.0,-1691.0,251.0,-2339.0,-0.6645344117909749,0.7297240469228717,-0.08734386796184158,0.13515872009453803
-9804.422927856445,8064.0,-4080.0,15660.0,-1260.0,858.0,-3608.0,-0.5064700313752258,0.7759993850629071,0.07371330192414677,0.3686182453707458
-9804.438515901566,9204.0,-2372.0,16304.0,-964.0,1363.0,-4783.0,-0.2708051994968966,0.680323457058466,0.28026092776872114,0.6207079426491007
-9804.454133987427,10284.0,-748.0,15176.0,-843.0,1850.0,-4976.0,0.003217791301622223,0.43287997608837875,0.4402466481775971,0.786630447471527
-9804.469703674316,10216.0,376.0,13712.0,-944.0,2272.0,-4615.0,0.24415831705776456,0.09026515434874861,0.5005941524959371,0.8256175946579573
-9804.485357284546,9628.0,-8.0,12888.0,-1258.0,2098.0,-4260.0,0.4313856202169531,-0.25164017788812143,0.44856095200528806,0.7411995277107095
-9804.50092792511,8464.0,-1192.0,12716.0,-1640.0,1374.0,-3842.0,0.5509796062897521,-0.5159227139398422,0.28911602773512307,0.588775975393359
-9804.516519784927,7868.0,-2364.0,13452.0,-1762.0,863.0,-3913.0,0.6081552833605445,-0.6946959328139743,0.05954788731093402,0.37947168717729407
-9804.532081604004,7640.0,-3260.0,14060.0,-1587.0,631.0,-3508.0,0.5915734096268326,-0.7743126918166339,-0.16311371436551117,0.15451431163503437
-9804.54765367508,7700.0,-3808.0,14312.0,-1247.0,529.0,-2880.0,0.5335618049410155,-0.7753831757716282,-0.3346287340784859,-0.04600371036579645
-9804.563262224197,7712.0,-4032.0,14320.0,-751.0,364.0,-1898.0,0.47807767107613697,-0.7413415470577062,-0.4360332436621543,-0.17812765491625435
-9804.578840732574,7556.0,-3952.0,14076.0,-118.0,21.0,-1280.0,0.44862258398730437,-0.6928087561740547,-0.5129077911238831,-0.23596483278135424
-9804.594435453415,7340.0,-3648.0,13588.0,256.0,68.0,-425.0,0.45805722989867537,-0.6616676911115289,-0.5406634340504085,-0.2450765018468931
-9804.610021352768,7160.0,-3092.0,13848.0,1065.0,-351.0,82.0,0.5024437358917497,-0.6273947867931029,-0.5699631598899431,-0.17049360731783958
-9804.625608921051,7144.0,-2584.0,14540.0,1399.0,-317.0,435.0,0.5650489101856507,-0.5873318425112326,-0.5759096516395398,-0.06394614154734574
-9804.641191244125,7336.0,-2132.0,15176.0,1634.0,29.0,730.0,0.6466134950488425,-0.5366912157770198,-0.5395774101868683,0.05205521438373685
-9804.656776666641,7432.0,-1452.0,16492.0,1632.0,593.0,798.0,0.7372887750016275,-0.4781540110056171,-0.45496087822354303,0.14416866269027426
-9804.672360181808,8212.0,-868.0,17220.0,1565.0,1393.0,593.0,0.8356041503995296,-0.41101718417287214,-0.3151617507228786,0.18304002029876917
-9804.68796658516,8456.0,-852.0,17172.0,1600.0,2162.0,500.0,0.9187478065627624,-0.33304626227458367,-0.1108208608315029,0.18083526184239226
-9804.703528404236,7872.0,-1052.0,16636.0,1582.0,2678.0,-232.0,0.9594603921746714,-0.2373240566935042,0.11777094320235128,0.09614079727042427
-9804.719148635864,7112.0,-1636.0,15536.0,1674.0,2811.0,-518.0,0.9315419438519205,-0.12096539814363048,0.3422296041631904,-0.02181461278236131
-9804.73472905159,6432.0,-1864.0,14656.0,1749.0,1787.0,-442.0,0.8746763054768291,0.01118643993592222,0.4679523964198311,-0.12584426440605975
-9804.750315904617,5556.0,-2240.0,14564.0,1546.0,724.0,-317.0,0.8307302741329667,0.12278518161521645,0.5006580756273806,-0.21012496787334045
-9804.765924930573,5028.0,-2132.0,15236.0,1146.0,445.0,-248.0,0.789834292654057,0.2019426004145018,0.5113559586406083,-0.27183829724348735
-9804.781530857086,5460.0,-1668.0,15804.0,536.0,891.0,220.0,0.7427498497447957,0.2686412315301653,0.5536815485994454,-0.26380161517049067
-9804.797142267227,5908.0,-708.0,16864.0,-27.0,1561.0,14.0,0.6622443336885759,0.3006848475437599,0.6490838364074613,-0.2229601719355542
-9804.812722682953,6508.0,-188.0,16440.0,-407.0,2637.0,-385.0,0.5023920752769518,0.2984868968418164,0.7977067073957627,-0.14890192775270383
-9804.828320980072,6140.0,-340.0,15048.0,-364.0,2697.0,-868.0,0.30355188172562975,0.24948819178338066,0.9152884682194611,-0.08865053415496645
-9804.843929052353,5028.0,-836.0,13456.0,-77.0,1877.0,-868.0,0.1461944351230816,0.1895488228321122,0.9688411527087276,-0.06360229335509604
-9804.859516143799,4608.0,-1348.0,12796.0,353.0,885.0,-463.0,0.06266082188917443,0.15912784045200773,0.9816479746981808,-0.08437538482408852
-9804.875094890594,4576.0,-1888.0,13200.0,717.0,-208.0,123.0,0.07125677496164867,0.17168083894382472,0.9714027835934712,-0.1477321684280893
-9804.890668869019,4144.0,-2200.0,13896.0,879.0,-1177.0,306.0,0.16045222485091437,0.18632097780386858,0.9401240738326202,-0.23602182647153602
-9804.90625333786,4416.0,-2508.0,14128.0,1166.0,-1832.0,414.0,0.294920726645098,0.19526889267216302,0.8676826207259433,-0.34931174363292367
-9804.921989917755,4976.0,-1816.0,14500.0,1383.0,-2236.0,589.0,0.44649880336596703,0.20177704175259628,0.7377383284554965,-0.4643996153551602
-9804.937589168549,5420.0,-1368.0,15164.0,1261.0,-2380.0,962.0,0.5982230391710839,0.2099106447998369,0.5596561123863264,-0.5337150480108763
-9804.953171014786,6516.0,-788.0,15844.0,1027.0,-2018.0,1367.0,0.7227061676072403,0.2301758432307703,0.3714841922139034,-0.5354571611535728
-9804.968745708466,7384.0,-216.0,16452.0,598.0,-1718.0,1767.0,0.828968305325328,0.23899190861789021,0.19476841664626812,-0.46664727606441453
-9804.984293460846,7924.0,56.0,16648.0,472.0,-1292.0,1870.0,0.8990339985258334,0.24711328823834175,0.042001037371728056,-0.3590387237198582
-9804.999924659729,7000.0,-120.0,16248.0,952.0,-535.0,1674.0,0.9191072442031446,0.3063285749507514,-0.06510723574908535,-0.23909355004904692
-9805.015533208847,6340.0,-500.0,15500.0,1720.0,69.0,1518.0,0.8876614949976609,0.42836781486383796,-0.13349829399870455,-0.10361607494367545
-9805.03110742569,5300.0,-648.0,15100.0,2304.0,392.0,1023.0,0.7959703562382664,0.584011795943473,-0.15836688242383357,0.016773334199330414
-9805.04667377472,4644.0,-280.0,14908.0,2368.0,395.0,157.0,0.6660842317690977,0.7297492538030459,-0.13257811119624074,0.07887247424866083
-9805.06226849556,4548.0,548.0,15100.0,2008.0,212.0,-408.0,0.5349663973423026,0.8362741716548535,-0.07917697322270142,0.09048464206083785
-9805.077863693237,5336.0,1408.0,15120.0,1183.0,-499.0,-751.0,0.4474263565781837,0.8931053381637679,-0.038006760209504234,0.026981411396200264
-9805.093447685242,6200.0,1800.0,16004.0,309.0,-1190.0,-982.0,0.41785715238052684,0.9027259950668832,-0.007145946788698644,-0.10212792702995525
-9805.109035253525,6672.0,1628.0,15784.0,-111.0,-1286.0,-1070.0,0.4119481289648095,0.878491663981492,0.030907360081501987,-0.2399913966170758
-9805.124710321426,6776.0,856.0,15352.0,-53.0,-1207.0,-946.0,0.39598346194251505,0.8412015014831454,0.06059884274464942,-0.3631871584025672
-9805.14029455185,6640.0,260.0,14968.0,308.0,-1161.0,-1016.0,0.3441312080868942,0.8020964166484056,0.0844958405111201,-0.4807031339161014
-9805.155921697617,6140.0,-176.0,15120.0,275.0,-843.0,-719.0,0.29949302665469174,0.7658335367711393,0.09747482052362774,-0.5606260610297265
-9805.171505689621,5592.0,-180.0,15636.0,625.0,-509.0,-1154.0,0.20407673750188984,0.7418004565317093,0.12973602260026693,-0.6255024638958631
-9805.187070131302,5856.0,84.0,15780.0,571.0,-510.0,-1612.0,0.08387686418399726,0.6973863207238963,0.1915295615028786,-0.6855168986920462
-9805.20265364647,6124.0,616.0,15980.0,435.0,-227.0,-2019.0,-0.058662388158975724,0.6426644910292816,0.28212353357442926,-0.709892518617458
-9805.218254804611,6252.0,1040.0,16096.0,120.0,-376.0,-2106.0,-0.1834760431584673,0.5571316957945243,0.3880025126179797,-0.7109112921667263
-9805.233828544617,6264.0,1184.0,15268.0,-241.0,-758.0,-2028.0,-0.26718957290657674,0.4373269191314015,0.5046430333496458,-0.6947591718176207
-9805.249406576157,6048.0,988.0,14920.0,-594.0,-1226.0,-1849.0,-0.29680131015598066,0.2895151018705809,0.6273046124411471,-0.6592259940935451
-9805.265007257462,6048.0,728.0,15068.0,-804.0,-1610.0,-1707.0,-0.2801363575634405,0.1213323237344671,0.741172905844727,-0.5978836107721689
-9805.28060221672,6184.0,456.0,14896.0,-764.0,-1859.0,-1682.0,-0.23359911566237399,-0.06422115427741251,0.8229842346834357,-0.5138132403583555
-9805.29618883133,6376.0,152.0,15080.0,-626.0,-2019.0,-1565.0,-0.15821310940038352,-0.24801344129169983,0.86100106713878,-0.4148916814523914
-9805.311846494675,6648.0,-108.0,14972.0,-467.0,-1912.0,-1397.0,-0.07365703754741049,-0.4068850030521335,0.8552638017054826,-0.3123188508612469
-9805.327472686768,6812.0,-328.0,14864.0,-395.0,-1780.0,-1180.0,0.012764194319185532,-0.5315087867057562,0.8209244599934964,-0.20837110160082964
-9805.343099355698,6708.0,-312.0,15080.0,-385.0,-1490.0,-926.0,0.08378386793097052,-0.6178555491380576,0.7738416787433385,-0.11137252854059973
-9805.358691215515,6888.0,-264.0,15132.0,-458.0,-1208.0,-665.0,0.13313908539932687,-0.6724886792293823,0.7277582195459877,-0.02002333964665952
-9805.374293088913,6444.0,-160.0,15328.0,-408.0,-997.0,-461.0,0.17082757281864527,-0.7045879874012281,0.6862389356714282,0.05873526660637965
-9805.389875888824,6192.0,-132.0,15388.0,-274.0,-847.0,-511.0,0.20651374855981663,-0.7320120135030047,0.6382141725905727,0.11913502275813206
-9805.405500173569,6304.0,-192.0,15416.0,-109.0,-766.0,-77.0,0.24248153058494168,-0.7286239124882536,0.6169276734746695,0.17236631682734643
-9805.421074867249,6580.0,-216.0,15456.0,83.0,-807.0,215.0,0.28723646766156685,-0.7012627576840407,0.6131197484382847,0.22318138454103767
-9805.436696767807,6732.0,-68.0,15448.0,283.0,-1031.0,555.0,0.3470417566715747,-0.6408335341865316,0.6233093305626249,0.28351345474576567
-9805.452281236649,6828.0,-20.0,14996.0,406.0,-1166.0,729.0,0.4119744067235257,-0.555658123911884,0.6338501588630742,0.3460565179920473
-9805.4679043293,6536.0,-36.0,14700.0,453.0,-1293.0,899.0,0.4735545635096558,-0.44599613878724564,0.6381124961593456,0.4118810044312996
-9805.483501672745,6220.0,284.0,14836.0,461.0,-1804.0,940.0,0.5492091922022203,-0.30466410585367165,0.6066796593105195,0.4873282638877405
-9805.4990837574,6636.0,508.0,14836.0,362.0,-1904.0,766.0,0.6170032601623804,-0.16301119206425665,0.5421790989206609,0.5466042013233745
-9805.514687776566,6868.0,628.0,15600.0,263.0,-1827.0,583.0,0.6699420733151981,-0.03353584582205043,0.4579902687265761,0.583350562868411
-9805.530273199081,7396.0,868.0,15872.0,181.0,-1585.0,294.0,0.711799191149688,0.06889369294376986,0.37148145458099424,0.5921124044078185
-9805.545880794525,7608.0,780.0,16108.0,18.0,-1244.0,48.0,0.7451852164042073,0.13511768396495513,0.29287247752793233,0.5836676422753038
-9805.561511278152,7460.0,704.0,15624.0,-101.0,-896.0,-300.0,0.7818990398439786,0.16597985325382936,0.23192504979466166,0.554342268894088
-9805.577137708664,7412.0,640.0,15232.0,-143.0,-614.0,-565.0,0.8215153109608929,0.17401824702237922,0.19048682539552714,0.5084732174960835
-9805.592739582062,6952.0,344.0,15084.0,-130.0,-524.0,-622.0,0.8576135316548072,0.17712677679656985,0.1559002111716244,0.45696855408317777
-9805.608315467834,6704.0,-8.0,14576.0,-76.0,-557.0,-429.0,0.8818196353666978,0.18740742429936302,0.11729158879143499,0.4165516428943756
-9805.623942613602,6484.0,-236.0,14500.0,-30.0,-655.0,-169.0,0.8936168124225874,0.20673395928396102,0.06814398097067571,0.39251300678059087
-9805.63954782486,6500.0,-316.0,14552.0,-65.0,-783.0,123.0,0.8930922761302894,0.22854061291464906,0.0023451165048678007,0.3874917740979726
-9805.655140638351,6584.0,-428.0,14612.0,-145.0,-1276.0,352.0,0.8784262929319734,0.2585372467636049,-0.10855403411942596,0.3869648066660382
-9805.670754909515,6740.0,-320.0,14900.0,-11.0,-1237.0,559.0,0.8422047911584839,0.2918685219805253,-0.21500558119021504,0.39909454479315526
-9805.686358451843,6996.0,-232.0,14924.0,-307.0,-1417.0,713.0,0.7908331599151907,0.30203434296495996,-0.3445986578063163,0.40572149793468515
-9805.701983213425,7212.0,-224.0,15204.0,-271.0,-1789.0,747.0,0.7075645125750312,0.31941743400181893,-0.49016568919979153,0.3963111915293906
-9805.717598438263,7492.0,-324.0,15280.0,-159.0,-1399.0,734.0,0.6209292680416514,0.32340350610205565,-0.5967123162697668,0.3921625019582141
-9805.73319554329,7640.0,-220.0,15548.0,-113.0,-1175.0,613.0,0.5384307785133873,0.32334469846618685,-0.6769191453101909,0.38382414389378783
-9805.748776197433,7652.0,-68.0,15304.0,-74.0,-1054.0,462.0,0.4605429943059497,0.3261993910149691,-0.7381585251059658,0.3696161515823665
-9805.76435661316,7504.0,-76.0,15204.0,-251.0,-746.0,322.0,0.408210218915441,0.31853126758867284,-0.7831888447038307,0.3442636813154128
-9805.779977798462,7236.0,-72.0,15104.0,9.0,-300.0,161.0,0.3825359028576644,0.3167040661253849,-0.7976686681665174,0.34218344984813864
-9805.795560836792,7072.0,-36.0,15036.0,-17.0,-90.0,52.0,0.37525934801506616,0.31517621953168823,-0.8025242560952058,0.34029280149285696
-9805.811157941818,7016.0,-60.0,15040.0,-120.0,-38.0,-89.0,0.37859644324244063,0.31856639456472674,-0.8047521366999261,0.32795454547102665
-9805.82681941986,7132.0,-216.0,15028.0,-224.0,-133.0,-126.0,0.37905764229661765,0.3237048078734622,-0.8117396293925712,0.304317720893387
-9805.842449426651,7420.0,-232.0,15208.0,-323.0,-96.0,-149.0,0.38523082969763595,0.32594206586244096,-0.8188078257663096,0.2737018852979346
-9805.858039855957,7156.0,-388.0,15268.0,-443.0,-92.0,-181.0,0.3953155240974862,0.3258696887771018,-0.8265371357154153,0.2331757826773646
-9805.873625516891,7136.0,-444.0,15368.0,-510.0,-143.0,-512.0,0.4091721223537306,0.34738846089131253,-0.8255351396638556,0.17433061896375815
-9805.889216184616,7080.0,-452.0,15432.0,-545.0,-252.0,-215.0,0.4102671772263022,0.34669445224628165,-0.83497412892772,0.11959098667461314
-9805.904808282852,7288.0,-500.0,15364.0,-525.0,160.0,-282.0,0.4402147658076701,0.3462527187674657,-0.8249516441771844,0.07599210143427064
-9805.920497655869,7316.0,-496.0,15716.0,-492.0,478.0,-384.0,0.49099320466871854,0.3509763101946794,-0.7963204491250732,0.04018762193152969
-9805.936116456985,7384.0,-264.0,15740.0,-274.0,787.0,-539.0,0.5540077918926111,0.37250928719558174,-0.7441935962123069,0.02209273255862372
-9805.951741218567,7436.0,-456.0,15664.0,-664.0,953.0,-710.0,0.6345135503533867,0.3819463633760147,-0.6715089233948545,-0.024192885790270516
-9805.967322587967,7384.0,-308.0,15636.0,-849.0,1123.0,-806.0,0.7198662938023368,0.3806697338428192,-0.5748300847898302,-0.08033334552874982
-9805.982912540436,7356.0,-140.0,15828.0,-963.0,1075.0,-899.0,0.7909426231489618,0.3686619081633815,-0.4654666678955561,-0.14778005763221905
-9805.998485088348,7060.0,-272.0,15156.0,-971.0,1054.0,-1043.0,0.8416503685284553,0.3532451036592066,-0.3424492155310021,-0.2226456572199713
-9806.014050006866,6692.0,-528.0,14652.0,-915.0,776.0,-1054.0,0.8643211753289182,0.3292267700686618,-0.23285168912016332,-0.3005640208376257
-9806.029663085938,6136.0,-736.0,14276.0,-669.0,995.0,-1105.0,0.8661526462185397,0.32381596961778536,-0.10738596192937595,-0.3652274174396239
-9806.04533290863,5912.0,-868.0,13992.0,-388.0,969.0,-1263.0,0.8375216375535345,0.33356795444782705,0.013742656170250585,-0.4325518070665349
-9806.06092786789,6120.0,-928.0,13988.0,-114.0,753.0,-892.0,0.8021706227041061,0.35053572418658796,0.0984428024304957,-0.4732399103933661
-9806.076508760452,5748.0,-960.0,14224.0,222.0,477.0,-712.0,0.7597042886842434,0.37833555380130013,0.14391078820227807,-0.5089216909541489
-9806.09209728241,5772.0,-832.0,14400.0,470.0,119.0,-456.0,0.7213107387900498,0.4081884945504776,0.14562357799587522,-0.5402654389783289
-9806.107722520828,5948.0,-768.0,14552.0,764.0,-10.0,-201.0,0.6832087989260961,0.4520152964790454,0.11575007279973619,-0.5617026165737324
-9806.123318910599,6240.0,-400.0,14988.0,957.0,-626.0,-90.0,0.6442301978229258,0.47493773326551625,0.034786774500022245,-0.5984910041542244
-9806.13891673088,6188.0,-352.0,15156.0,988.0,-886.0,-90.0,0.597335962028698,0.4805286654402333,-0.06255994397123446,-0.6390369344316448
-9806.15449666977,6364.0,-360.0,15124.0,1272.0,-861.0,-158.0,0.5258054911801247,0.4950279196375017,-0.17027138824968363,-0.6704353798597749
-9806.170052528381,6640.0,-408.0,15228.0,1009.0,-813.0,-241.0,0.45312114465611925,0.49391387394828257,-0.2545433424269559,-0.6970925334652794
-9806.185631990433,6848.0,-196.0,15848.0,868.0,-661.0,-300.0,0.3809909028926542,0.49213969222963905,-0.31900039236387606,-0.7147609424953558
-9806.201214551926,7080.0,-12.0,15964.0,644.0,-398.0,-444.0,0.3137040387681723,0.49948410214814304,-0.3522822653638379,-0.7266378831797327
-9806.216821670532,7388.0,124.0,16036.0,329.0,-237.0,-600.0,0.25358307022321963,0.5107618544673673,-0.35274450856389183,-0.7418822455047971
-9806.232406139374,7552.0,344.0,15980.0,33.0,-131.0,-613.0,0.20813485632811413,0.5209762431181343,-0.32992516669182587,-0.7592186905438778
-9806.24806857109,7628.0,380.0,15616.0,-240.0,-156.0,-467.0,0.18345607983155016,0.5190052409978453,-0.29525019412056025,-0.7808999612379168
-9806.26365351677,7524.0,112.0,15564.0,-332.0,60.0,-276.0,0.18115060046509343,0.5243780705655757,-0.2589379592991971,-0.7906726454703158
-9806.27927827835,7144.0,-340.0,15272.0,-238.0,314.0,-184.0,0.18635551477271747,0.5459163732167449,-0.2289313281849034,-0.7841156691095816
-9806.294870138168,7164.0,-652.0,14700.0,-196.0,371.0,-152.0,0.19260454487959905,0.570595203075504,-0.20206213520161587,-0.7723312094151776
-9806.310460567474,6612.0,-544.0,14568.0,-139.0,232.0,-230.0,0.18806663159770728,0.5875467786226385,-0.17723208041765368,-0.7668171324901935
-9806.326080799103,6564.0,-640.0,14696.0,-50.0,41.0,-291.0,0.17176821645282056,0.5936471147738945,-0.15821921032769018,-0.7700944516230004
-9806.341671466827,6544.0,-296.0,14880.0,123.0,38.0,-382.0,0.14019084992888262,0.602824702084826,-0.14602125720203096,-0.7717685511846778
-9806.35729598999,6664.0,-120.0,15008.0,299.0,52.0,-301.0,0.10480141437458664,0.6132762213620178,-0.14957600106623686,-0.7684633756803538
-9806.372872591019,6864.0,-32.0,15244.0,458.0,119.0,-281.0,0.0629416425751939,0.6282784880042729,-0.16396852490844196,-0.7579042248070338
-9806.388494729996,6868.0,232.0,15224.0,420.0,214.0,-163.0,0.03217803967114025,0.646358206359967,-0.18145788326060228,-0.7404449199208747
-9806.404086828232,6888.0,-80.0,15332.0,348.0,212.0,-60.0,0.012030971455354105,0.6614641842700499,-0.19982733866288385,-0.7227651232431649
-9806.419700860977,6908.0,-72.0,15216.0,220.0,278.0,4.0,0.00444048595843889,0.6787511555051322,-0.21353019682221203,-0.7026250821241496
-9806.43528676033,6772.0,-236.0,15248.0,85.0,229.0,95.0,0.009507948398820848,0.6907963750613254,-0.2242100323589751,-0.6873425845304256
-9806.450871229172,6612.0,-320.0,15244.0,-53.0,53.0,146.0,0.02251044411331023,0.6909258962490795,-0.22975138564860825,-0.6850758984162063
-9806.466461896896,6672.0,-364.0,15004.0,-102.0,-132.0,149.0,0.03493281331245676,0.6796351320310301,-0.23283817492486625,-0.6947389223016792
-9806.482050418854,6676.0,-456.0,15020.0,-59.0,-281.0,113.0,0.03957621768821994,0.6597946344069011,-0.23671862548463157,-0.7120878146338591
-9806.497642993927,6816.0,-476.0,14944.0,-1.0,-330.0,108.0,0.03952726138738363,0.6366647753623572,-0.24388647491775692,-0.7304895254363357
-9806.513228654861,6996.0,-288.0,15120.0,27.0,-373.0,43.0,0.032829411942833245,0.6116302866609614,-0.2491302460333137,-0.7501764743458026
-9806.528857707977,7104.0,-212.0,15168.0,81.0,-251.0,16.0,0.02410740570297841,0.5948151797806801,-0.2559170170498246,-0.7616562316931891
-9806.544478416443,7136.0,-44.0,15232.0,139.0,-249.0,254.0,0.028219597551885904,0.5724504605941385,-0.27869097904870993,-0.7706072038830417
-9806.56008386612,7132.0,-4.0,15240.0,188.0,175.0,-46.0,0.020005926324880567,0.5855419488429962,-0.28850514436177743,-0.7573012417352949
-9806.57570886612,7084.0,-28.0,15104.0,480.0,227.0,-80.0,-0.0040742461890816185,0.6026368204330566,-0.3153787101467314,-0.733040607580856
-9806.591290950775,6988.0,-88.0,15188.0,186.0,189.0,-217.0,-0.02251391967212338,0.6202689077800574,-0.3157646716131118,-0.7176714273422035
-9806.606860160828,7156.0,-60.0,15312.0,74.0,28.0,-315.0,-0.045450626709760016,0.6302198716096039,-0.30325310534246575,-0.7132984705298447
-9806.622470617294,6784.0,-32.0,15296.0,21.0,-11.0,-456.0,-0.07522206148572436,0.6409275478839109,-0.279183668046621,-0.7110625846754903
-9806.638051271439,6832.0,-28.0,14932.0,-36.0,-68.0,-533.0,-0.10782734775371071,0.6491298834511131,-0.24638545451982163,-0.7115461090387647
-9806.653628587723,6672.0,-120.0,14916.0,-80.0,-45.0,-537.0,-0.1374670953607415,0.6578064834058389,-0.21030133538366722,-0.7100470240893703
-9806.669192314148,6920.0,-176.0,14968.0,-52.0,-32.0,-459.0,-0.16339794388291673,0.6642426367520436,-0.18016628295674947,-0.7068401105915509
-9806.684792041779,7012.0,-232.0,14912.0,-68.0,-13.0,-378.0,-0.18289948251954516,0.6698897076769602,-0.15375686664823773,-0.702961154546306
-9806.700375795364,6944.0,-272.0,14880.0,-58.0,12.0,-288.0,-0.1969792653309371,0.6751058931798821,-0.13348066070256878,-0.69829371702879
-9806.715990304947,6880.0,-260.0,15040.0,-51.0,-18.0,-331.0,-0.21429630121139515,0.6783617353750995,-0.11048580618019266,-0.6940427493308401
-9806.73162150383,6776.0,-248.0,15028.0,-28.0,-50.0,-315.0,-0.23214640104524473,0.6785380280508346,-0.08914408388611651,-0.6911928278553896
-9806.747220516205,6768.0,-336.0,15008.0,9.0,-126.0,-275.0,-0.2502018389889439,0.6725650752163715,-0.07079802602742868,-0.6928512819331191
-9806.76280617714,6856.0,-376.0,15332.0,32.0,-155.0,-368.0,-0.2751678712008548,0.6642622332961386,-0.04769092666061127,-0.6933714037869375
-9806.778431653976,6928.0,-328.0,15200.0,34.0,-151.0,-353.0,-0.29901016040095385,0.655302696219712,-0.02561574840384776,-0.6931919890895181
-9806.794027805328,6884.0,-28.0,15152.0,45.0,-97.0,-218.0,-0.31497100915270904,0.6484939403703631,-0.01331278643557426,-0.6928720245568909
-9806.809598684311,7156.0,-296.0,15068.0,252.0,-100.0,-191.0,-0.3408156194379203,0.6353631136618204,-0.014963004294968421,-0.6927730767340574
-9806.82518529892,6852.0,-152.0,15196.0,-33.0,-79.0,-203.0,-0.3513568519469968,0.6316008203110718,0.0006658107778456024,-0.6911065931303835
-9806.840767145157,6936.0,-44.0,14996.0,-122.0,-128.0,-287.0,-0.36183972927161906,0.6272154741694189,0.02778607190441309,-0.6891303893249777
-9806.856336593628,7020.0,-68.0,15008.0,-203.0,-248.0,-359.0,-0.3714539815319968,0.6171734583211083,0.06744803169518586,-0.6903402240695783
-9806.871961593628,7004.0,-204.0,15096.0,-225.0,-301.0,-410.0,-0.38188325958875147,0.6030806572917342,0.11273981935446893,-0.6911936269804299
-9806.887537956238,7068.0,-336.0,15336.0,-206.0,-222.0,-370.0,-0.3909083961042069,0.5922658838167627,0.15192801179493112,-0.6879895551198614
-9806.903126955032,7076.0,-320.0,15088.0,-206.0,-157.0,-373.0,-0.4003370941379483,0.5843283705857675,0.18880049182194505,-0.6801800795918366
-9806.918810129166,7096.0,-496.0,14864.0,-175.0,-81.0,-392.0,-0.4131293787496442,0.578620494737885,0.22185953571281886,-0.6673086136837368
-9806.934470176697,7076.0,-456.0,14992.0,-123.0,-96.0,-323.0,-0.4237469395085383,0.5707965582409539,0.24867812741398615,-0.6578670149074977
-9806.950060844421,7056.0,-460.0,14996.0,-74.0,5.0,-512.0,-0.4491972544509579,0.5620010446148761,0.27796529579629364,-0.6364840506865732
-9806.965651988983,6984.0,-460.0,14948.0,-45.0,0.0,-192.0,-0.45767898288727,0.5588920045973133,0.28983304124467346,-0.6278267946044788
-9806.98129582405,6980.0,-436.0,15000.0,-1.0,13.0,-149.0,-0.4661761793383884,0.5556957609261239,0.29660182407976793,-0.6212160244703555
-9806.996894598007,6656.0,-388.0,14944.0,16.0,-13.0,-91.0,-0.4716261573234979,0.5518337216222079,0.3006537799197616,-0.6185916391520455
-9807.012524366379,6836.0,-424.0,15040.0,35.0,-54.0,-26.0,-0.4733828858569197,0.5466517858024021,0.3022203275290441,-0.6210823955684593
-9807.028105974197,6780.0,-484.0,15044.0,159.0,-27.0,48.0,-0.4776965320288888,0.5396908101023294,0.2923790580293269,-0.6285334829621632
-9807.043771743774,6780.0,-588.0,15340.0,206.0,-13.0,78.0,-0.4827930127849735,0.5321398495228931,0.2778779779924024,-0.6375907125285115
-9807.059361457825,6572.0,-432.0,15200.0,150.0,-55.0,145.0,-0.480363381405498,0.5260368200187406,0.2650503842866478,-0.6498342708558449
-9807.07492184639,6552.0,-300.0,15116.0,141.0,-105.0,157.0,-0.4754928250858325,0.5175429326990807,0.25417805788945347,-0.6644165869337357
-9807.090483903885,6604.0,-204.0,15112.0,109.0,-161.0,151.0,-0.4680685272371092,0.5067614689310095,0.24764640290020215,-0.6802763604209393
-9807.10605597496,6572.0,-144.0,15068.0,29.0,-309.0,203.0,-0.4504688980375856,0.49120081880172656,0.24942434250294152,-0.7025574886628795
-9807.121643781662,6480.0,-96.0,14860.0,-32.0,-367.0,227.0,-0.4269662560561178,0.4743937541098019,0.25588402983859165,-0.7260673147336915
-9807.137233495712,6552.0,-196.0,15192.0,-25.0,-431.0,212.0,-0.40259577287407666,0.45217872165127976,0.2644965579985779,-0.7506614537570476
-9807.1528134346,6736.0,-412.0,15092.0,-58.0,-418.0,210.0,-0.3766584426614133,0.4311371165308385,0.2744387882917348,-0.7726141053607019
-9807.168387651443,6836.0,-472.0,15188.0,40.0,-365.0,288.0,-0.34978620630586893,0.4115849629486353,0.27264415124686414,-0.7961862815595326
-9807.1840031147,6696.0,-496.0,15436.0,175.0,-277.0,326.0,-0.32663382440491123,0.39424312945620343,0.2569785737686996,-0.8196613399782899
-9807.199581384659,7076.0,-556.0,15228.0,8.0,-229.0,331.0,-0.29797996491396384,0.3846234356443353,0.25135324150775984,-0.8367163804100901
-9807.215166330338,7016.0,-448.0,15356.0,7.0,-199.0,339.0,-0.26900023285569563,0.3769253344753056,0.24445230299179435,-0.8519443869855994
-9807.230782985687,6876.0,-316.0,15260.0,292.0,-118.0,374.0,-0.24811425809451493,0.3687373302796911,0.21296512328379263,-0.87012525101455
-9807.246361970901,6860.0,-180.0,15200.0,233.0,-89.0,359.0,-0.22658519948873554,0.36313020985733385,0.18546530715328371,-0.884532768134769
-9807.261929988861,6804.0,-156.0,15152.0,145.0,-61.0,225.0,-0.21281260219031117,0.3588741602058534,0.16825998447657706,-0.8930894194365278
-9807.277537345886,6772.0,-64.0,15132.0,127.0,-120.0,144.0,-0.20381068110113343,0.34898437536941534,0.1560126914955192,-0.9012941540415288
-9807.293133020401,6760.0,-84.0,15032.0,74.0,-209.0,25.0,-0.20125865857806333,0.3312739233399215,0.1530852875543456,-0.9090200409213967
-9807.308742523193,6844.0,-208.0,15048.0,240.0,-271.0,-8.0,-0.20515386809848055,0.30505817565593246,0.13893186881706612,-0.9195375662237532
-9807.32432794571,6972.0,-168.0,14988.0,-35.0,-370.0,-89.0,-0.2068064890339461,0.27450547157780303,0.1506209729456054,-0.9269256413953708
-9807.339943647385,7056.0,-264.0,14872.0,-38.0,-340.0,-97.0,-0.20921865686709964,0.24602994741655626,0.1620400693926435,-0.932437576733242
-9807.35553097725,7020.0,-404.0,14872.0,-24.0,-286.0,-71.0,-0.21041457406035266,0.22184669671808935,0.17063717714033327,-0.9366924276174389
-9807.371105194092,7096.0,-288.0,14924.0,23.0,-12.0,-104.0,-0.21922401299279387,0.21861380321206544,0.17092687710341578,-0.935378447397718
-9807.386686325073,7076.0,-588.0,15076.0,44.0,-246.0,-54.0,-0.22079801486028067,0.1965592698739439,0.17297609928435634,-0.9395168753868927
-9807.402267217636,7128.0,-516.0,15060.0,68.0,-142.0,38.0,-0.21673467995865933,0.1838807685163358,0.16940842468242653,-0.94367087860105
-9807.41782951355,7016.0,-556.0,15140.0,138.0,-85.0,136.0,-0.20650682164421888,0.17596736369185564,0.15737906983423017,-0.9495379128333178
-9807.43343615532,6980.0,-552.0,15316.0,161.0,-70.0,198.0,-0.19160551632090217,0.1696511723047926,0.1421598662216633,-0.9561884637909248
-9807.449027061462,6940.0,-480.0,15240.0,146.0,32.0,143.0,-0.1822447268511658,0.1713343606950543,0.12724776303925378,-0.9598121707822147
-9807.46463227272,7028.0,-440.0,15220.0,130.0,72.0,104.0,-0.17629498805482344,0.1761359366548418,0.11359734081185867,-0.9617649677368925
-9807.480229139328,7032.0,-200.0,15284.0,96.0,67.0,76.0,-0.17207973491314701,0.18072745267684537,0.10328978678739309,-0.9628381861073929
-9807.495799303055,6988.0,-88.0,15280.0,1.0,136.0,-71.0,-0.17930651202617434,0.19118856553040078,0.10223579161419663,-0.9596061432006642
-9807.511366844177,7136.0,-36.0,14996.0,-66.0,54.0,-211.0,-0.19635517416061787,0.1945296425858227,0.11038371273920071,-0.9546823030190176
-9807.526963472366,7148.0,-196.0,14968.0,-122.0,51.0,-234.0,-0.21425271117840913,0.1982689863939021,0.12358224803110486,-0.9484263876330172
-9807.542583227158,6944.0,-508.0,15032.0,-139.0,8.0,-511.0,-0.25400482172628774,0.19551962721692112,0.14359594323977495,-0.936287258803532
-9807.558181524277,6948.0,-436.0,15000.0,-130.0,-14.0,-302.0,-0.2762256393176031,0.1931053291940543,0.15957711074603298,-0.9278711514786878
-9807.573801994324,6924.0,-480.0,14944.0,-71.0,-24.0,-318.0,-0.30037948473291254,0.18808244353096634,0.17114900994408846,-0.9192960219549355
-9807.589393377304,6916.0,-588.0,14976.0,-31.0,-21.0,-280.0,-0.32198291088717773,0.1826870052751002,0.1786793354681888,-0.9116063614723638
-9807.604959011078,6888.0,-624.0,14908.0,8.0,-49.0,-234.0,-0.3399507745898635,0.1745907806116706,0.18305905779004064,-0.9057819337689299
-9807.620557546616,6972.0,-768.0,15044.0,-26.0,-70.0,-174.0,-0.3522067128465139,0.16673787505402757,0.18976566496464142,-0.9011869422316595
-9807.636145353317,7024.0,-556.0,14856.0,-45.0,-73.0,-162.0,-0.36310272072327054,0.1593888788205439,0.19782338026472915,-0.8964471594758527
-9807.651767730713,7088.0,-384.0,15152.0,-61.0,35.0,-125.0,-0.37267584140195803,0.16160529355677244,0.20314217942439422,-0.8909150920646026
-9807.66737127304,7120.0,-428.0,15040.0,-31.0,48.0,-114.0,-0.38199882898142856,0.16403149718045837,0.20551962470218255,-0.8859640209691524
-9807.682953834534,7056.0,-492.0,15256.0,-22.0,66.0,-135.0,-0.3933415176707847,0.16715048511966613,0.20686690562263454,-0.8800847965729326
-9807.698605298996,7020.0,-548.0,15196.0,31.0,132.0,-164.0,-0.40877446016812136,0.17295313283333086,0.20224627754158253,-0.8729760006884327
-9807.714190006256,6960.0,-436.0,15196.0,80.0,129.0,-142.0,-0.42307921785787655,0.17711017778260052,0.193598349609806,-0.867269069764939
-9807.72980761528,6668.0,-476.0,15116.0,96.0,142.0,-143.0,-0.4377733159431602,0.1815794118156044,0.1832075670513321,-0.8612888182415703
-9807.74539732933,7152.0,-420.0,15088.0,116.0,94.0,-128.0,-0.45073989655872454,0.1818514845100702,0.17285928841532097,-0.856669860354771
-9807.760972976685,6840.0,-488.0,15068.0,91.0,77.0,-94.0,-0.4604020145499331,0.18230361528302813,0.16446978416154243,-0.8530797541560557
-9807.776643276215,7160.0,-480.0,15020.0,91.0,131.0,-127.0,-0.473179699095598,0.18625413305317706,0.15440552735025345,-0.8470946248254082
-9807.79225063324,6952.0,-432.0,15116.0,82.0,102.0,-149.0,-0.48689718931499887,0.18807804734074865,0.14651480607013256,-0.8402923221997667
-9807.807848215103,7024.0,-424.0,15128.0,27.0,85.0,-151.0,-0.4995097939315142,0.19091534194583307,0.14337758939836842,-0.8327569662479652
-9807.823477506638,7044.0,-432.0,15132.0,26.0,144.0,-142.0,-0.5120526301950594,0.19814404465749091,0.137552862057687,-0.824390836689025
-9807.839077234268,6968.0,-444.0,15124.0,19.0,158.0,-132.0,-0.5237590453901622,0.20675058240871133,0.13139078055427378,-0.8158842576192923
-9807.854634523392,6972.0,-500.0,15064.0,58.0,137.0,-140.0,-0.5363297752619776,0.21192298989787084,0.1235178975709537,-0.8075780751728188
-9807.87019944191,6840.0,-500.0,14996.0,96.0,101.0,-58.0,-0.5433038713986839,0.21361239030276713,0.11310639823284831,-0.8039885525995584
-9807.88581609726,6708.0,-544.0,15028.0,118.0,54.0,-84.0,-0.5519478326635554,0.21066557894657667,0.10384965233911618,-0.80011802477769
-9807.90138554573,6768.0,-520.0,14936.0,104.0,32.0,-63.0,-0.5585814041222403,0.2070135591043224,0.09623475728775614,-0.7974152449041556
-9807.917002677917,6900.0,-508.0,14976.0,101.0,-5.0,-60.0,-0.5645741612351708,0.20093300779572895,0.09057337902735298,-0.7954108409214274
-9807.932730436325,6828.0,-448.0,14864.0,53.0,246.0,-53.0,-0.5710495559112874,0.21463171039068446,0.07573258882069314,-0.7887332936923652
-9807.948327302933,6800.0,-368.0,15072.0,105.0,-30.0,-126.0,-0.5814920621173408,0.20618766952050138,0.07240861112252316,-0.7836521037217565
-9807.963938474655,6812.0,-412.0,15204.0,95.0,-37.0,-155.0,-0.593551513543517,0.19753737204574973,0.07063103035972022,-0.7769728727348101
-9807.979613542557,6832.0,-348.0,15236.0,123.0,-23.0,-113.0,-0.6031867543947763,0.18859404856045311,0.06548843786512969,-0.7722106504550804
-9807.995334863663,6756.0,-420.0,15160.0,63.0,-27.0,-146.0,-0.613905730245163,0.182309486059828,0.06513500428760342,-0.7652714792027783
-9808.010935306549,6768.0,-412.0,15056.0,46.0,-51.0,-137.0,-0.6234984584185257,0.1753473895387827,0.06704780494599295,-0.7589516171559163
-9808.026545524597,6724.0,-464.0,15024.0,72.0,-65.0,-155.0,-0.6344610291192919,0.165897788037627,0.06826077406822761,-0.7518494484780301
-9808.042167663574,6620.0,-472.0,15344.0,56.0,-58.0,-134.0,-0.6437126447145717,0.15787778550699857,0.06981345129857597,-0.7455432367715231
-9808.057780504227,6708.0,-484.0,15192.0,58.0,-83.0,-161.0,-0.654443408316518,0.1479163262353689,0.07299792337102187,-0.7378996469219983
-9808.073367595673,6720.0,-420.0,15124.0,5.0,-110.0,-149.0,-0.6633659299394922,0.1392762451406467,0.08095968287467945,-0.730748452125536
-9808.088952302933,6908.0,-456.0,15256.0,28.0,-154.0,-215.0,-0.6761956244074944,0.12597565583267734,0.09076626565880656,-0.7201743515899749
-9808.104537963867,6836.0,-336.0,15176.0,32.0,-80.0,-227.0,-0.6900734286464613,0.11692560771369863,0.09603088568898561,-0.7077465184165078
-9808.120108127594,6780.0,-388.0,14876.0,100.0,-96.0,-180.0,-0.7013144058731751,0.1031350003490491,0.09753773616153788,-0.6985754546519934
-9808.135753631592,6716.0,-412.0,14932.0,120.0,-28.0,-232.0,-0.7161538780995188,0.09177382595467944,0.094087976452951,-0.6854550608461861
-9808.151316165924,6820.0,-332.0,15352.0,255.0,-15.0,-128.0,-0.725541587183457,0.07355534054381149,0.08086799565499928,-0.6794404936589642
-9808.166887521744,6832.0,-304.0,15404.0,329.0,100.0,-132.0,-0.7358364725211951,0.05738876921705214,0.05596896831252665,-0.6723977167282379
-9808.182454824448,6860.0,-488.0,15740.0,309.0,210.0,-201.0,-0.7497143598059552,0.04857191914260184,0.02550999667791398,-0.6594834246901464
-9808.19802570343,6892.0,-80.0,15740.0,291.0,207.0,-354.0,-0.7710588964520821,0.040354450068574015,-0.0030819836605985485,-0.635476355137212
-9808.213614225388,7016.0,16.0,15780.0,0.0,126.0,-340.0,-0.7895009273243601,0.047172568817950726,-0.010130133866325898,-0.6118499937835594
-9808.229227781296,7108.0,-300.0,15484.0,381.0,-26.0,-199.0,-0.801166785506486,0.01947502677414102,-0.02760046237213654,-0.597487003716562
-9808.24486541748,7212.0,-544.0,15148.0,615.0,-356.0,89.0,-0.7968761070469529,-0.04239536877431056,-0.034584042658301214,-0.6016602419286089
-9808.260476589203,7192.0,-616.0,14624.0,688.0,-514.0,319.0,-0.7766418645239047,-0.11792631657058573,-0.03336730083403868,-0.6179056735165793
-9808.27608203888,7020.0,-632.0,13940.0,616.0,-680.0,460.0,-0.744472010626948,-0.19691989453673472,-0.015374819087085734,-0.6377676657425885
-9808.291686296463,7068.0,-452.0,13416.0,382.0,-963.0,578.0,-0.7032337651288483,-0.2745782029044169,0.035985072353916084,-0.6548084885217722
-9808.30730175972,6996.0,32.0,13336.0,16.0,-1052.0,491.0,-0.6680398661446683,-0.3322502509023679,0.11107611797848126,-0.6565017928624093
-9808.322872161865,7108.0,328.0,13576.0,-348.0,-1416.0,204.0,-0.6474132160622679,-0.387678375036963,0.21778770825470337,-0.6189750554988266
-9808.33846950531,7468.0,724.0,14232.0,-682.0,-1378.0,-336.0,-0.656361401970029,-0.42577344808347556,0.31808889125202494,-0.5354681486074622
-9808.354041576385,8032.0,500.0,15036.0,-745.0,-1365.0,-698.0,-0.6714780480974158,-0.4610388169616109,0.40068039509502457,-0.4195422042708194
-9808.369616270065,8516.0,-68.0,15372.0,-574.0,-1210.0,-1065.0,-0.6837789869699007,-0.5032435260551451,0.4447586179934864,-0.2852753445051376
-9808.38519859314,8824.0,-712.0,15804.0,-280.0,-812.0,-1309.0,-0.690836111321051,-0.5523201832466235,0.4385673614968874,-0.15920600460687068
-9808.400748491287,8568.0,-1144.0,15780.0,84.0,-339.0,-1287.0,-0.687162177657598,-0.6071571381847022,0.39310797958820054,-0.06807692364019557
-9808.416341781616,7948.0,-1396.0,15624.0,342.0,111.0,-850.0,-0.675812970318058,-0.6539555209177793,0.3382572835652603,-0.03465567667916294
-9808.431993484497,7240.0,-1384.0,15612.0,474.0,501.0,-479.0,-0.6633199252944787,-0.6925881955738904,0.2791698468583383,-0.04891282719411844
-9808.447580575943,6688.0,-1292.0,15360.0,426.0,856.0,-46.0,-0.6564305482690381,-0.7121417347060978,0.224225471717208,-0.10805564687787046
-9808.463169813156,6280.0,-1024.0,15516.0,309.0,1102.0,290.0,-0.6526893586831694,-0.7099167029154145,0.17526958672827536,-0.19823079466006285
-9808.478785991669,5948.0,-588.0,15308.0,0.0,1116.0,474.0,-0.6579703088387997,-0.6794483393279576,0.14028474289701257,-0.29282284368090955
-9808.494379520416,5908.0,-4.0,15100.0,184.0,1086.0,510.0,-0.6437971724401609,-0.652235421242934,0.10289113029714803,-0.38668795085996865
-9808.50999879837,5952.0,176.0,15008.0,80.0,962.0,338.0,-0.6340248523183886,-0.6186241675893488,0.06513215061909318,-0.45942837186308244
-9808.525594711304,6168.0,496.0,15336.0,-20.0,701.0,28.0,-0.6368408871813533,-0.5879909518450344,0.028624947725963763,-0.49787642777111185
-9808.54119682312,6336.0,524.0,15140.0,-100.0,576.0,-303.0,-0.655560756987188,-0.5570760994478764,-0.014530405354726217,-0.5096029637301496
-9808.556775569916,6472.0,508.0,15152.0,-137.0,418.0,-462.0,-0.6812467143989672,-0.5290727506312839,-0.05466644801302127,-0.5029875924132713
-9808.572340965271,6492.0,-108.0,15280.0,-179.0,294.0,-497.0,-0.7090005652306096,-0.5022885814999933,-0.08702661654474614,-0.48728918252940356
-9808.587952136993,6152.0,-608.0,15508.0,-206.0,222.0,-405.0,-0.7329158884973782,-0.47639697747533816,-0.10954327744413375,-0.4731601109637816
-9808.603503704071,6452.0,-1208.0,15308.0,-142.0,11.0,-502.0,-0.7587189524759539,-0.461426986151889,-0.12499721622504208,-0.44250015089326883
-9808.619082450867,6408.0,-1356.0,15416.0,-77.0,227.0,242.0,-0.7497225924230332,-0.449848679047832,-0.12711531105775611,-0.4683950235261865
-9808.63464140892,6472.0,-1420.0,15448.0,51.0,241.0,191.0,-0.7370195802349654,-0.44513559638951594,-0.1372765038703997,-0.4897056265373572
-9808.650219917297,6556.0,-1096.0,15348.0,147.0,230.0,421.0,-0.7099277805288352,-0.4492269372855382,-0.1417119668441252,-0.5235603343489907
-9808.665800094604,6416.0,-740.0,14888.0,169.0,107.0,473.0,-0.6797259889591025,-0.46005204008263134,-0.1372294857246784,-0.5545203049457422
-9808.681380987167,6624.0,-452.0,15160.0,116.0,52.0,316.0,-0.6589016661594557,-0.4678488103541442,-0.13303407919630356,-0.5738188030684398
-9808.696964025497,6596.0,-100.0,14992.0,34.0,40.0,173.0,-0.6483434425709822,-0.46960215573474473,-0.12981365199003192,-0.5850410340835068
-9808.712548732758,6692.0,100.0,15124.0,-13.0,43.0,24.0,-0.6471962704769475,-0.46678743390785293,-0.13045662290757737,-0.5884110370871724
-9808.728103637695,6700.0,20.0,15348.0,-102.0,61.0,-43.0,-0.6528645389108293,-0.4572232383618184,-0.13026575350951422,-0.5896996164126956
-9808.743738412857,6672.0,-284.0,15144.0,-119.0,71.0,-142.0,-0.6640527320596484,-0.4449551371241712,-0.1336855294839078,-0.585813173458513
-9808.759315729141,6648.0,-700.0,15152.0,-102.0,122.0,-162.0,-0.6747782403062912,-0.43068055165944763,-0.14165056879188762,-0.5823432880976595
-9808.77487707138,6624.0,-916.0,15272.0,32.0,89.0,-161.0,-0.6806065702141739,-0.4258484597749798,-0.15438904289284394,-0.5758400900625171
-9808.790439605713,6636.0,-1068.0,15080.0,98.0,255.0,-148.0,-0.6807556110862286,-0.41656657676781295,-0.17973222562933341,-0.5751003496476833
-9808.806010723114,6424.0,-872.0,15148.0,178.0,-110.0,-76.0,-0.6797382055362537,-0.4312601872206366,-0.1846893923920497,-0.5637911414616504
-9808.821572065353,6636.0,-764.0,15192.0,13.0,-206.0,-71.0,-0.6859807494500153,-0.44081516520893654,-0.17558160550267657,-0.5516189820110577
-9808.837185382843,6900.0,-560.0,15116.0,239.0,-181.0,247.0,-0.6673252650320015,-0.46722823371351746,-0.1664881891648101,-0.5555685836506041
-9808.85277223587,6640.0,-360.0,15344.0,197.0,-511.0,-29.0,-0.667406454519817,-0.5023529193941324,-0.14714450209365892,-0.5296778873476682
-9808.86836218834,6568.0,-276.0,15320.0,111.0,-329.0,-88.0,-0.6705581578045798,-0.5225072478719095,-0.1367752654922993,-0.5085572334286104
-9808.88398194313,6580.0,-312.0,15208.0,45.0,-289.0,-99.0,-0.6761601877994255,-0.5364560828905806,-0.12620915227127305,-0.48897190251353573
-9808.899552583694,6596.0,-276.0,15004.0,-16.0,-322.0,-149.0,-0.68654374611914,-0.5472136877753416,-0.11333292758642294,-0.4651564383094139
-9808.915177583694,6724.0,-600.0,15160.0,-68.0,-326.0,-191.0,-0.7004384213814852,-0.5540376451866873,-0.0999968191802317,-0.4386672334725258
-9808.930893421173,6692.0,-656.0,15232.0,-15.0,-351.0,-264.0,-0.71387595706684,-0.5637040339594217,-0.09056273052596946,-0.40548399704483895
-9808.94649720192,6812.0,-696.0,15300.0,-254.0,-347.0,-494.0,-0.7454516540409445,-0.5552088525102492,-0.08402385353163487,-0.3591447530168952
-9808.962093353271,6888.0,-680.0,15212.0,119.0,-337.0,-278.0,-0.7503603357002584,-0.5708944215934915,-0.07913882626792497,-0.32369116790262203
-9808.977680206299,6772.0,-632.0,15136.0,148.0,-351.0,-330.0,-0.7540845150708031,-0.5875237651176438,-0.07661041733958227,-0.28337821636017557
-9808.99332499504,6796.0,-660.0,15096.0,170.0,-293.0,-325.0,-0.7548153396537619,-0.6031531858008314,-0.07804594624123386,-0.2457007687350497
-9809.00889968872,6716.0,-648.0,15048.0,202.0,-225.0,-228.0,-0.7502806220463082,-0.6192730665206385,-0.07943415219373365,-0.2174168179538846
-9809.024518728256,6676.0,-580.0,15152.0,7.0,-157.0,-487.0,-0.7595649663352686,-0.6185983171842387,-0.09544026532893504,-0.17688510295350682
-9809.040129423141,6708.0,-568.0,15260.0,242.0,-152.0,-120.0,-0.7494352099912711,-0.6356430259014659,-0.0954672714071642,-0.1587161294205428
-9809.055720567703,6640.0,-620.0,15120.0,155.0,-188.0,-105.0,-0.7437493304334097,-0.647228543140737,-0.09104602133030235,-0.14015266113669053
-9809.071310520172,6636.0,-544.0,15300.0,129.0,-213.0,-36.0,-0.738509491571613,-0.6576564631955044,-0.08074265036143637,-0.12478914892100447
-9809.086887598038,6720.0,-440.0,15156.0,145.0,-288.0,62.0,-0.7313330229189942,-0.6701964543694953,-0.0601074274177367,-0.11124665976084044
-9809.102471590042,6776.0,-372.0,15084.0,191.0,-349.0,68.0,-0.7209771380223877,-0.6856055472880651,-0.03562223390682733,-0.09417035854432668
-9809.11807513237,6760.0,-480.0,15152.0,244.0,-378.0,110.0,-0.7061641276217648,-0.7037344347750765,-0.007196295873697116,-0.07770639290105702
-9809.13367486,6840.0,-468.0,15348.0,270.0,-424.0,64.0,-0.6888330391379794,-0.7224901967338353,0.021065531767581618,-0.05543647884550348
-9809.149287462234,6880.0,-580.0,15148.0,284.0,-460.0,77.0,-0.6690398140335921,-0.7407185536450489,0.05218785466976706,-0.031593976464681275
-9809.164881944656,6888.0,-484.0,14976.0,374.0,-493.0,164.0,-0.6412551417845621,-0.761898761531354,0.09044583741855984,-0.011030449016487066
-9809.180498600006,6924.0,-440.0,15068.0,391.0,-489.0,317.0,-0.6100360466378375,-0.7802118975575806,0.138293310054326,0.0006140898109439627
-9809.196099758148,6912.0,-400.0,14936.0,386.0,-523.0,394.0,-0.5762804633351358,-0.7941641208635876,0.19259635843598222,0.01052708071616434
-9809.21172118187,6952.0,-356.0,14852.0,303.0,-550.0,389.0,-0.5453443260808701,-0.8006329615102812,0.2470123290344355,0.023902641269567863
-9809.227285146713,7084.0,-252.0,14904.0,179.0,-595.0,501.0,-0.5198786108011889,-0.7951217503275549,0.30998428877512546,0.03764801322846773
-9809.242884397507,7192.0,-84.0,15036.0,68.0,-592.0,116.0,-0.4989102930853077,-0.7919562864667298,0.3446472039632682,0.07149870334251358
-9809.258453845978,7496.0,-108.0,15104.0,-37.0,-612.0,-26.0,-0.48229082970190124,-0.7861281165436371,0.3687481933863917,0.11585728220218862
-9809.274023294449,7628.0,-156.0,15296.0,-103.0,-546.0,-214.0,-0.4690742316784448,-0.7820527981651014,0.37550491256868496,0.16540509875513568
-9809.2896027565,7568.0,-152.0,15236.0,-101.0,-462.0,-384.0,-0.45472576424350286,-0.78267909964624,0.36623558184551175,0.21566039251655097
-9809.3051943779,7556.0,-288.0,15092.0,-94.0,-325.0,-462.0,-0.4415944448019956,-0.7865695133208115,0.3453752796402972,0.2588796308087321
-9809.320775032043,7568.0,-496.0,15096.0,-58.0,-185.0,-366.0,-0.43152890203150385,-0.7906232581788727,0.325858768501117,0.2872520379893657
-9809.336376667023,7380.0,-608.0,14872.0,60.0,-96.0,-333.0,-0.41619156786884065,-0.7995250639085667,0.3078590570389529,0.30457684090548554
-9809.352014303207,7288.0,-636.0,14936.0,63.0,-95.0,-5.0,-0.40916549211925035,-0.7993370339138316,0.3126282560121621,0.3096893279004683
-9809.367608308792,7244.0,-636.0,14768.0,94.0,-93.0,-133.0,-0.3964964124572572,-0.8036577500494153,0.3091766002642239,0.3183310313857138
-9809.383253574371,7276.0,-620.0,14976.0,125.0,-101.0,-51.0,-0.3836171190138605,-0.8064235985615311,0.31254131504829624,0.32378513256549907
-9809.398832082748,7332.0,-500.0,14912.0,140.0,-112.0,-24.0,-0.3700549940512452,-0.8084585016043839,0.31852697830579985,0.3286254960478627
-9809.414434432983,7308.0,-404.0,15020.0,136.0,-100.0,-24.0,-0.35702035495190043,-0.8105203030923647,0.32393590883978435,0.3326542219621199
-9809.430007457733,7292.0,-288.0,14932.0,154.0,-27.0,-90.0,-0.34277560493265863,-0.8169407823069056,0.3228482558716681,0.33298895859690736
-9809.445621013641,7260.0,-244.0,14924.0,74.0,-10.0,-139.0,-0.33321300342265703,-0.8226668972805529,0.3153625918919707,0.335759893531105
-9809.461187839508,7192.0,-192.0,14896.0,101.0,51.0,-114.0,-0.32405755143229237,-0.8301208357948593,0.30862913464979813,0.33261713513327623
-9809.476749420166,7188.0,-72.0,14992.0,78.0,134.0,-197.0,-0.31628541318832953,-0.8412904202152353,0.29276470776985075,0.3263170117275447
-9809.492331504822,7208.0,-396.0,15020.0,97.0,116.0,-127.0,-0.30852509320833915,-0.8503613279719182,0.28296358668967614,0.3187938006899373
-9809.507962703705,7200.0,-440.0,14988.0,66.0,74.0,-188.0,-0.30023049393381346,-0.8586653883711498,0.26881314444332316,0.31669369223300603
-9809.523566961288,7156.0,-452.0,15036.0,67.0,50.0,-173.0,-0.2916162424672619,-0.8657142123292088,0.2563592223840038,0.3158778542398338
-9809.539230108261,7152.0,-500.0,14952.0,73.0,-21.0,-141.0,-0.28177014322878347,-0.8700381089621257,0.2482348241542958,0.31940373732241295
-9809.55488204956,7180.0,-376.0,14752.0,89.0,-44.0,-191.0,-0.26873921285991653,-0.8749602252922177,0.2372587493577852,0.3254721577665341
-9809.57046842575,7232.0,-384.0,14884.0,113.0,3.0,-191.0,-0.25474849445697817,-0.8814636036949377,0.22577639769139793,0.3273379571307498
-9809.58625459671,7204.0,-380.0,15080.0,106.0,254.0,-189.0,-0.24614280308044006,-0.894402603743774,0.2085332532186013,0.3097928101330438
-9809.601899385452,7192.0,-400.0,14888.0,81.0,-12.0,-162.0,-0.23523690545118522,-0.8986357912407,0.1983164678284429,0.31271055563092387
-9809.617528676987,6972.0,-420.0,15004.0,121.0,-64.0,-138.0,-0.22088285187144066,-0.901614621451734,0.1920880454207522,0.3184399832621851
-9809.633150339127,7188.0,-480.0,14684.0,75.0,-78.0,-125.0,-0.210217489989783,-0.902877704640603,0.1858269012980877,0.3257127877736185
-9809.648739337921,7216.0,-512.0,14976.0,96.0,-53.0,-132.0,-0.1980560335575178,-0.9051557766698509,0.17911232303241198,0.3307349441329041
-9809.664320707321,7332.0,-768.0,15128.0,115.0,62.0,-166.0,-0.1851512174401261,-0.9113596019756908,0.16822196481526375,0.32687011659196025
-9809.679911375046,7376.0,-404.0,15316.0,97.0,98.0,-195.0,-0.1733073154880354,-0.9183737229602915,0.15386543346469786,0.32074866758741916
-9809.695514917374,7272.0,-368.0,15208.0,108.0,161.0,-287.0,-0.15873643761446468,-0.9279342132384129,0.13139137923083874,0.3106077023174003
-9809.711100578308,7256.0,-284.0,14872.0,111.0,98.0,-222.0,-0.144840731938286,-0.9344121466099596,0.11503523851008232,0.3044043306858125
-9809.726682662964,7156.0,-360.0,14812.0,129.0,97.0,-193.0,-0.13015933014405492,-0.9403234211146224,0.10147485570970213,0.29757900822880373
-9809.742257356644,7068.0,-260.0,14920.0,110.0,28.0,-221.0,-0.11563417887715893,-0.9440286673339695,0.08585811988775238,0.29676083834696765
-9809.757853984833,6940.0,-360.0,14812.0,113.0,-19.0,-13.0,-0.10585819150395541,-0.944719680326776,0.08790573072521302,0.2976093940057209
-9809.773444652557,7004.0,-396.0,14968.0,33.0,-119.0,-243.0,-0.09590232726284782,-0.9435239398690786,0.06980672336383925,0.30934178491226405
-9809.789032936096,7144.0,-412.0,14944.0,26.0,-145.0,-244.0,-0.08627825740240022,-0.9410147405104599,0.0516131044196768,0.3230842117680788
-9809.804688215256,7168.0,-440.0,15052.0,90.0,-63.0,-243.0,-0.07174264625767744,-0.9407482745422836,0.034657919460117585,0.32961265945402934
-9809.8202521801,7212.0,-388.0,14832.0,210.0,32.0,-192.0,-0.04906531704406718,-0.9432634049268978,0.024727023042276385,0.3274680410674411
-9809.83585691452,7248.0,-192.0,15088.0,277.0,127.0,-200.0,-0.02081108871269081,-0.9480258066428966,0.01562684769929575,0.3171273721340701
-9809.851430416107,7392.0,-472.0,15288.0,15.0,227.0,-215.0,-0.013923945837722348,-0.954269163413712,-0.00216234610569068,0.29861649611051533
-9809.86700963974,7304.0,-172.0,15428.0,192.0,257.0,-353.0,0.011309507468122896,-0.9602991815792372,-0.026852220361629642,0.2774464545830891
-9809.88260602951,7508.0,-16.0,15392.0,111.0,196.0,-292.0,0.028134631382707713,-0.9637503029424058,-0.048424158427916586,0.2608618350313598
-9809.898166418076,7520.0,20.0,15352.0,134.0,126.0,-182.0,0.0440804998590005,-0.9652729203338402,-0.06036113395831885,0.25032305588903797
-9809.913813114166,7520.0,-20.0,14912.0,190.0,60.0,-42.0,0.06132464264896778,-0.965477498213997,-0.05951033542575787,0.24607114545174053
-9809.929506778717,7484.0,-416.0,14768.0,222.0,29.0,12.0,0.07992733656565063,-0.9647875767877843,-0.05356815938225747,0.2447999281982605
-9809.945177793503,7468.0,-520.0,14484.0,293.0,131.0,146.0,0.10206645772752719,-0.9657656389658077,-0.03408463857756148,0.23604534778926933
-9809.960770606995,7640.0,-608.0,14180.0,402.0,100.0,378.0,0.12833401799461625,-0.9642120838417285,0.006944087704689273,0.23189915231604222
-9809.976368904114,7620.0,-468.0,13900.0,407.0,-82.0,534.0,0.1515904018516527,-0.9560012181124099,0.0591029783947033,0.24410829354800267
-9809.991999149323,7560.0,20.0,14112.0,508.0,-208.0,526.0,0.18346830001705391,-0.9400609239783072,0.11082289314144236,0.2652227902229818
-9810.007601261139,7532.0,276.0,14000.0,85.0,-16.0,429.0,0.1805585977007789,-0.9334930399809714,0.14762521591144104,0.27238967074856785
-9810.023264408112,7908.0,396.0,14212.0,7.0,-377.0,455.0,0.1749572461094329,-0.9173304758880465,0.17868343215901786,0.30978539525401644
-9810.038857460022,8032.0,112.0,14120.0,-36.0,-489.0,342.0,0.1702423552950264,-0.8980930315580591,0.1973534361349015,0.3542570653864291
-9810.054443597794,8016.0,-144.0,14552.0,11.0,-559.0,433.0,0.16704734832720863,-0.8715126830466853,0.2229016810141903,0.403578576372265
-9810.070017576218,7992.0,-376.0,14728.0,67.0,-579.0,519.0,0.1647645554285913,-0.8380789630260076,0.25570280102439985,0.45287125163333825
-9810.08558678627,7860.0,-752.0,14704.0,178.0,-622.0,736.0,0.16200286798554542,-0.7915858649058616,0.30650901238218153,0.5031889452026909
-9810.10113954544,7740.0,-804.0,14840.0,180.0,-751.0,1072.0,0.14649292103507014,-0.7225467436868434,0.3753691216278018,0.5617508787732551
-9810.116710662842,7492.0,-900.0,14720.0,134.0,-943.0,1229.0,0.12444695726107309,-0.6285114371782413,0.44331401613229476,0.6268644281383796
-9810.132310152054,7184.0,-900.0,14896.0,-103.0,-877.0,1444.0,0.07292734631047945,-0.5200526228157706,0.5018951671226459,0.6872613133892236
-9810.14798116684,7100.0,-608.0,15144.0,-410.0,-896.0,1530.0,0.0017455147720196063,-0.396822395595804,0.534303556953112,0.7463569176734682
-9810.1635556221,6876.0,-252.0,15116.0,-701.0,-597.0,1352.0,-0.0819760231702891,-0.29191824830736346,0.5299274826127475,0.7919851836379648
-9810.179143667221,6052.0,-40.0,14624.0,-714.0,-394.0,869.0,-0.1413043350526116,-0.2180845076367137,0.5027165918450364,0.8244684716275708
-9810.194729804993,5676.0,72.0,13616.0,-358.0,-296.0,133.0,-0.14463227225436243,-0.18624037157015616,0.4825856794415765,0.8435087977121887
-9810.21031999588,5616.0,416.0,13136.0,178.0,-359.0,-619.0,-0.08093657982214139,-0.18760935095240586,0.48902351563544727,0.8480023600423873
-9810.225980997086,5824.0,632.0,13452.0,610.0,-319.0,-1137.0,0.026597090980736423,-0.2152694205540533,0.5142423603897098,0.8297628975234457
-9810.24160194397,6816.0,636.0,14384.0,750.0,-223.0,-1348.0,0.14694169705235297,-0.25541644746139586,0.5376614508064619,0.7899941394404549
-9810.25717496872,8384.0,460.0,15844.0,520.0,-658.0,-1229.0,0.27186333443516775,-0.2587735892296281,0.5331108587664278,0.7582343761478569
-9810.272755146027,9152.0,-4.0,15908.0,73.0,-1163.0,-1044.0,0.39307989216118144,-0.22644592134883995,0.48218631204145374,0.7494710158257563
-9810.288333654404,9160.0,-1464.0,14664.0,-90.0,-1192.0,-732.0,0.4857538895434777,-0.1809095719870233,0.4176879439163322,0.7462249440107198
-9810.303935527802,9048.0,-2472.0,13376.0,165.0,-1009.0,-511.0,0.5557026859741526,-0.1260885637959399,0.37555750574238406,0.7309259598355695
-9810.319511175156,9176.0,-3208.0,12748.0,684.0,-819.0,371.0,0.5637132313206935,-0.02825982037138861,0.38150998586080587,0.7320375031889054
-9810.335095643997,9680.0,-3308.0,13692.0,1260.0,-1270.0,1017.0,0.5355850455014409,0.14648962290952208,0.39549594840984714,0.7316231299012087
-9810.35069155693,10068.0,-2980.0,14856.0,969.0,-1587.0,1736.0,0.45601424831920867,0.34470300003434123,0.3521884651729637,0.7410763335151814
-9810.366287708282,9880.0,-2280.0,15784.0,542.0,-1610.0,2192.0,0.3376405983558138,0.5226754643369499,0.24979056394914445,0.7418988202471077
-9810.3819231987,9560.0,-1468.0,15296.0,57.0,-1655.0,2315.0,0.21466192065856587,0.6617901969231484,0.09601772402268664,0.711852928454396
-9810.397524118423,8752.0,-1172.0,14140.0,-302.0,-1849.0,2741.0,0.0742253077314793,0.7625029985376173,-0.1112255597795095,0.633015525690361
-9810.413150787354,8320.0,-1244.0,13256.0,-524.0,-2140.0,2826.0,-0.06473356404942363,0.8110856779667062,-0.32654340560347933,0.48095633163482665
-9810.428747415543,8104.0,-1664.0,12516.0,-598.0,-2370.0,2920.0,-0.20169458364541445,0.7882917809757155,-0.5171582761070733,0.2654480748248093
-9810.444354772568,8256.0,-1876.0,12092.0,-465.0,-2618.0,3023.0,-0.3377012722367848,0.679907054777401,-0.6508250809518437,0.010533831098112439
-9810.459978818893,8352.0,-2092.0,11808.0,-69.0,-2750.0,3320.0,-0.46133286539293195,0.46407600386723763,-0.7177062885426826,-0.23812419727791279
-9810.475558757782,8700.0,-2136.0,12148.0,467.0,-2584.0,3256.0,-0.5396522717789092,0.17617699610232662,-0.7094117462698507,-0.41769853466655094
-9810.491124868393,8768.0,-2180.0,12156.0,1135.0,-2459.0,3366.0,-0.5489524825500545,-0.16413677791755638,-0.6424794994623667,-0.5088520244703383
-9810.506698131561,8760.0,-2408.0,12164.0,1754.0,-2477.0,3312.0,-0.4800587846575706,-0.5064262952718185,-0.5158807988606108,-0.4969335690988233
-9810.522274255753,8816.0,-2508.0,11980.0,2052.0,-2783.0,3033.0,-0.3555312941860877,-0.788526758491978,-0.3285962369869952,-0.3792724126989543
-9810.537873744965,8764.0,-2368.0,11936.0,2776.0,-3120.0,2574.0,-0.15511204757383473,-0.9668747090039319,-0.13462131353477097,-0.15156071960830572
-9810.55344080925,9140.0,-2304.0,11564.0,3185.0,-3078.0,2163.0,0.09751561185105069,-0.9885216771931614,0.04362768770803833,0.10682801144729925
-9810.569033384323,9544.0,-1040.0,12148.0,3447.0,-3487.0,2066.0,0.3528039149024437,-0.8333030864550862,0.2034883315138977,0.37380190298021015
-9810.584700107574,10100.0,-536.0,13016.0,3465.0,-3432.0,2149.0,0.5401466578218558,-0.522608899296976,0.3328904001253182,0.5694782769552214
-9810.600288152695,10096.0,212.0,13996.0,3142.0,-3338.0,2063.0,0.6208268628721921,-0.13596946712224323,0.3898397863114306,0.6664167249967722
-9810.615903139114,10252.0,-136.0,14576.0,2564.0,-2947.0,2020.0,0.5919405787276212,0.22708959424697944,0.3763006824787106,0.6755993367421314
-9810.631476163864,9808.0,-912.0,14912.0,2434.0,-2423.0,1962.0,0.47979866185272346,0.5295208822785037,0.33606572115343597,0.6135639415586219
-9810.647121191025,10196.0,-1428.0,14824.0,1982.0,-1893.0,2133.0,0.3153171907098912,0.7430452272123435,0.25284423640793585,0.5334122717702199
-9810.662726402283,10812.0,-1984.0,14804.0,1874.0,-1548.0,2330.0,0.11459406385249346,0.8808233349956899,0.14035885277346113,0.4373989546226184
-9810.678297996521,11536.0,-2328.0,14628.0,2085.0,-1299.0,2551.0,-0.12154547108689595,0.9386614945352828,0.010317630311451094,0.3225443281780197
-9810.693915605545,12516.0,-2744.0,14860.0,2420.0,-953.0,2838.0,-0.37813755879969896,0.8932526435279056,-0.13647439837240166,0.20121242517375443
-9810.70951795578,12812.0,-3388.0,15108.0,2778.0,-498.0,3179.0,-0.6155554855939098,0.724138615211084,-0.2991561798291255,0.08497229069210406
-9810.725118160248,12520.0,-3616.0,15564.0,2934.0,437.0,3397.0,-0.7582343613193971,0.44151259933285464,-0.4796954024357907,0.006292759877579982
-9810.740754842758,12112.0,-3476.0,15960.0,2823.0,705.0,3745.0,-0.775812963582431,0.0900323282305489,-0.6181560598012623,-0.08883417777978427
-9810.756309270859,11548.0,-3064.0,16624.0,2580.0,1116.0,4045.0,-0.6473008832804298,-0.270374096227936,-0.6848112628733183,-0.19731434016602337
-9810.771928071976,11076.0,-2316.0,17664.0,2442.0,2158.0,4387.0,-0.34763455394599335,-0.571720976304602,-0.6725925279186924,-0.3160769424428582
-9810.787516832352,9260.0,-1208.0,18992.0,1916.0,2847.0,4119.0,0.02606353170537134,-0.7183646592841987,-0.5490848826736349,-0.4263551339268957
-9810.803117990494,9212.0,440.0,17804.0,1154.0,3175.0,3699.0,0.35577280044880777,-0.7099130743327617,-0.3232505181958948,-0.514740948282051
-9810.818698883057,9644.0,1420.0,15192.0,839.0,2682.0,3829.0,0.6055442834485695,-0.620096783551278,-0.03727377684071037,-0.49740000540022833
-9810.834277629852,10192.0,1256.0,12936.0,861.0,2241.0,3701.0,0.7653820246112074,-0.456519741619561,0.2277337332304468,-0.3923231176754459
-9810.84998011589,10560.0,-72.0,11716.0,887.0,2318.0,4083.0,0.8256193163759198,-0.21843408858619737,0.4750841268033577,-0.21197727668306193
-9810.865574359894,10604.0,-1336.0,12436.0,936.0,2725.0,3704.0,0.7394777564425082,0.049082580821664896,0.6705677109484459,-0.03320381032353198
-9810.881147623062,9496.0,-2408.0,14656.0,932.0,3123.0,2946.0,0.5240973052795981,0.27145644435126204,0.7999671552934224,0.10810163676181408
-9810.896748781204,8552.0,-2300.0,17204.0,1000.0,4246.0,1741.0,0.17349871088188176,0.3689167804607782,0.8904512941013255,0.2022253674741476
-9810.912343978882,7836.0,-1296.0,18420.0,328.0,4960.0,14.0,-0.20444761300563952,0.26366256632645696,0.89065817852948,0.3088870888738987
-9810.928051948547,6952.0,676.0,17940.0,-50.0,5091.0,-950.0,-0.5226175779061756,0.048672666585003056,0.7474224375440864,0.4072610202887625
-9810.943692445755,6612.0,2236.0,16856.0,-699.0,4850.0,-1594.0,-0.7108725840466854,-0.1786075492637412,0.4632526769958613,0.49815305866064563
-9810.959308624268,6840.0,3052.0,15792.0,-1502.0,4765.0,-2061.0,-0.7573827570822436,-0.33986772454181485,0.06330002152580831,0.5539443982604215
-9810.974897146225,6860.0,3196.0,14620.0,-2110.0,4463.0,-2445.0,-0.6548020338876976,-0.38705255898443175,-0.3660606041883769,0.5361196201048586
-9810.990501880646,6396.0,2700.0,14660.0,-2797.0,3858.0,-3045.0,-0.4336834335329209,-0.27829828598807715,-0.7355280429932088,0.43984911215753913
-9811.006158351898,5692.0,2044.0,14544.0,-3287.0,3290.0,-3549.0,-0.1479098025321705,-0.046568937859619054,-0.9551438306730875,0.25229801241520255
-9811.021795511246,4940.0,1196.0,14456.0,-3653.0,2893.0,-4194.0,0.14985624575083312,0.2513967362149019,-0.9561735968274925,-0.008650974507931867
-9811.03739118576,4936.0,988.0,14136.0,-3616.0,2421.0,-4575.0,0.37473005389337755,0.5147675649406056,-0.7193232375087426,-0.27778736611683186
-9811.053004026413,4788.0,480.0,13908.0,-3260.0,2082.0,-5120.0,0.46054272181633576,0.6805644107589489,-0.2984303467476315,-0.485460412732505
-9811.068613290787,4620.0,208.0,13988.0,-2573.0,1825.0,-4967.0,0.4007657043880659,0.6971803410243513,0.15928329521769768,-0.5726737763684473
-9811.084247112274,4456.0,-200.0,14100.0,-1736.0,1338.0,-4557.0,0.23792062662337715,0.5854003017171494,0.521627982717848,-0.5732403595546273
-9811.099905014038,3992.0,-632.0,14304.0,-963.0,820.0,-3727.0,0.05987804776338996,0.41297779886201513,0.7350962394179693,-0.5343196382659818
-9811.115495443344,3656.0,-1092.0,14264.0,-481.0,330.0,-2604.0,-0.06372339362235745,0.2519749491131039,0.8308499892371568,-0.49207341882011374
-9811.131059885025,3404.0,-1520.0,14016.0,-334.0,-89.0,-1313.0,-0.1056161881361565,0.15367841201084073,0.8684535408201186,-0.4593654470271057
-9811.146650314331,3376.0,-1584.0,13664.0,-365.0,-255.0,-237.0,-0.09084354508677416,0.12870746247281425,0.8877217134527119,-0.43258756210096655
-9811.1622402668,3672.0,-1668.0,13604.0,-429.0,-250.0,1182.0,-0.021917601361935452,0.21292047028077749,0.8870545402610188,-0.4090461278245576
-9811.177829027176,4268.0,-1360.0,14532.0,-524.0,-179.0,2044.0,0.07339569431403029,0.35969795096042084,0.8536327540589024,-0.36951532759663674
-9811.193393945694,4948.0,-1164.0,15628.0,-480.0,152.0,2596.0,0.1567435890412276,0.5407392421763557,0.7683599069822957,-0.30439377885754015
-9811.20897436142,5688.0,-1016.0,17080.0,-499.0,459.0,2879.0,0.21883795164349412,0.7157327111786707,0.6312927249327789,-0.20323910183883548
-9811.22457408905,6720.0,-636.0,17864.0,44.0,832.0,2522.0,0.20944245648169216,0.8478243841516048,0.4761955062937521,-0.10278867080813804
-9811.240163326263,7144.0,-432.0,17484.0,1063.0,908.0,2014.0,0.1086518953424846,0.9378892808696516,0.32679529266974316,-0.04199165580434209
-9811.255851507187,6960.0,-36.0,17088.0,1816.0,772.0,840.0,-0.05796029879815084,0.9651400674831683,0.25426706326287335,-0.02221518493033128
-9811.271453380585,6696.0,288.0,16300.0,2390.0,863.0,182.0,-0.27150720184107996,0.9358925802908356,0.22444953282376148,-0.00336522215971898
-9811.287078142166,6588.0,1064.0,15488.0,2499.0,998.0,-245.0,-0.48210705891961364,0.8488380129959805,0.21420376422444035,0.034110978071525286
-9811.30266880989,6680.0,1184.0,14636.0,2345.0,354.0,-688.0,-0.645669597481362,0.7196402282733101,0.2514976254992274,0.044470856830565716
-9811.318263053894,6092.0,1184.0,14572.0,2296.0,-127.0,-922.0,-0.7659041173052232,0.5574919194986295,0.3181304262964653,0.03723808068456016
-9811.333851337433,5392.0,884.0,14252.0,1658.0,-553.0,-1137.0,-0.8142472043299517,0.40998585481848654,0.4090691775154005,0.039692531998932384
-9811.349516868591,5744.0,440.0,14020.0,1306.0,-785.0,-1458.0,-0.8143182685043916,0.26324197136229166,0.5128672554950771,0.06750259501864624
-9811.365139961243,5840.0,128.0,14320.0,947.0,-1231.0,-1996.0,-0.7512396943159442,0.11104681472935954,0.6363608082597504,0.13547120850404842
-9811.380715608597,6380.0,112.0,14156.0,705.0,-1505.0,-2557.0,-0.6226858479857748,-0.05744952394719291,0.7422028809950872,0.2410327163666172
-9811.396291732788,6256.0,96.0,14332.0,451.0,-1713.0,-3213.0,-0.42090850712252015,-0.24196097018945284,0.7891276438579764,0.3762558693708694
-9811.411901712418,6240.0,296.0,13932.0,73.0,-1767.0,-3916.0,-0.1583549869954542,-0.4272628632276842,0.7244161588184093,0.5172923473655221
-9811.427490472794,6340.0,292.0,14204.0,-384.0,-1664.0,-4239.0,0.11508970831951809,-0.5710702825214109,0.531236984253903,0.6151588071552437
-9811.443161010742,6692.0,480.0,15092.0,-836.0,-1360.0,-4285.0,0.34045500756198877,-0.6548473684204849,0.24058170943940252,0.6303854003559624
-9811.458800315857,7172.0,376.0,14948.0,-1268.0,-1247.0,-3999.0,0.4803905819203223,-0.6611940047210509,-0.08863632384772664,0.5693777120839504
-9811.474432945251,7228.0,-124.0,14440.0,-1495.0,-1394.0,-3598.0,0.528782985652951,-0.5893744853942489,-0.40356013379270445,0.45843809665365914
-9811.490028142929,6600.0,-544.0,14100.0,-1736.0,-1722.0,-3253.0,0.47972000276496973,-0.45786409478659107,-0.6783302101771028,0.31638159809559147
-9811.50562953949,6496.0,-1604.0,14336.0,-1799.0,-2054.0,-2950.0,0.34703101205251696,-0.2847174743417041,-0.8793420449919772,0.15894339994983928
-9811.521215200424,7348.0,-2200.0,15284.0,-1676.0,-2263.0,-2638.0,0.1595517599245037,-0.09626351877085552,-0.9824647330109835,0.006294382297228014
-9811.536806821823,8096.0,-2116.0,16784.0,-1299.0,-2189.0,-2461.0,-0.03600620896068535,0.09354717928733387,-0.9882259205109717,-0.11559415293995481
-9811.55244922638,8584.0,-1456.0,17304.0,-548.0,-1717.0,-2726.0,-0.1991826224255077,0.30109391565076804,-0.9184039991869216,-0.161872885806285
-9811.568064451218,8552.0,-744.0,17528.0,298.0,-914.0,-3009.0,-0.31119645439468413,0.5053709277302707,-0.7978557041828641,-0.1057509691685565
-9811.58364033699,7988.0,148.0,16448.0,778.0,-103.0,-2822.0,-0.3669582134598567,0.6586415647834722,-0.656609740228074,0.019915013219945637
-9811.599219322205,7036.0,580.0,15604.0,753.0,560.0,-2836.0,-0.3611770720146284,0.7703338307149642,-0.49365235735461505,0.18012290799668038
-9811.61480808258,6324.0,952.0,14788.0,333.0,878.0,-2511.0,-0.2982251790091898,0.8317442228747124,-0.33808068191378915,0.3239826273678649
-9811.630409479141,5900.0,884.0,14140.0,-89.0,1273.0,-2171.0,-0.18832045528367722,0.8419879627176565,-0.21103829833796373,0.45940669715942906
-9811.646037578583,5512.0,644.0,13788.0,-383.0,799.0,-2077.0,-0.06099395536516823,0.8383165869275359,-0.08520523024058713,0.5350187905398536
-9811.661635398865,5336.0,204.0,13412.0,-372.0,333.0,-1973.0,0.05991082259365117,0.8264089648213311,0.039426283901436626,0.5584840949721055
-9811.677219867706,5404.0,-428.0,13480.0,-342.0,-14.0,-2037.0,0.18102136753947598,0.8052354317635444,0.1669269821928883,0.539409442392967
-9811.69280719757,5996.0,-808.0,13988.0,-424.0,-673.0,-1490.0,0.2876912036011915,0.7998061005183885,0.23845322231943647,0.46977019244471524
-9811.708379983902,6656.0,-1588.0,14664.0,-536.0,-932.0,-1150.0,0.3880448155229586,0.7931263004427436,0.27077266600642447,0.3834762783217927
-9811.72400355339,7188.0,-1584.0,15224.0,-580.0,-962.0,-938.0,0.478484521215009,0.777154501824875,0.28138285834814264,0.2964913662803742
-9811.739597082138,7800.0,-1484.0,15552.0,-481.0,-722.0,-690.0,0.5442141860394453,0.7552333301591188,0.28421164871472077,0.22951530551370972
-9811.755234479904,8064.0,-1188.0,15712.0,-328.0,-434.0,-490.0,0.5852873202153814,0.7346460964184798,0.28868511179503,0.18545827573898774
-9811.770838022232,7980.0,-848.0,15748.0,-237.0,-162.0,-400.0,0.6105471995055062,0.714372015842803,0.3018882803239465,0.16052478425378416
-9811.78646492958,7748.0,-760.0,15580.0,-184.0,-100.0,-225.0,0.6276545228434947,0.6997348364974538,0.30784079028842654,0.14715640108599837
-9811.802059173584,7492.0,-152.0,15192.0,-153.0,-39.0,-226.0,0.6408407228562625,0.6855281994697926,0.317387577271328,0.13652612004522802
-9811.81763958931,7236.0,24.0,15204.0,-498.0,24.0,-267.0,0.6724157845410133,0.6491385121441127,0.3283059405745269,0.1367165466755816
-9811.833225727081,6956.0,76.0,14892.0,-361.0,17.0,-290.0,0.6953572122058712,0.6188678632503981,0.3410741078308561,0.1309555964308173
-9811.848860263824,6888.0,132.0,14788.0,-283.0,-99.0,-239.0,0.7160069995083331,0.595309203605474,0.34446564199879914,0.11951715458479308
-9811.864502429962,6828.0,-24.0,14720.0,-142.0,-136.0,-241.0,0.7298068817439729,0.5803268264800686,0.3467923076292851,0.10167489953703582
-9811.880086183548,6672.0,-160.0,14772.0,24.0,20.0,-318.0,0.7306143747860887,0.5717629339591395,0.36415814920907613,0.08172285525475462
-9811.895714759827,6604.0,-512.0,14844.0,86.0,21.0,-477.0,0.7284964051104067,0.5613681877734322,0.3894828314785692,0.04961722967501602
-9811.911295175552,6604.0,-644.0,14968.0,99.0,-133.0,-638.0,0.7298154962216248,0.5455859083591321,0.4119523294570745,-0.0007977027103410852
-9811.926962137222,6860.0,-604.0,15044.0,96.0,-367.0,-698.0,0.736715188367343,0.5252566109804317,0.42071278726113376,-0.066007382050721
-9811.942622184753,7112.0,-468.0,15056.0,96.0,-575.0,-544.0,0.7485768297810754,0.5068525653939936,0.407051683255376,-0.13054552473144204
-9811.958220720291,7260.0,-400.0,15116.0,54.0,-536.0,-294.0,0.7608848710246419,0.49305232909975366,0.38377536635354054,-0.17512875833319952
-9811.973801612854,7472.0,-260.0,15044.0,-87.0,-429.0,-65.0,0.7775215606620616,0.47810638309728726,0.3590407079734854,-0.19484424334621855
-9811.989434242249,7544.0,-560.0,14704.0,-165.0,-249.0,21.0,0.7923939918489505,0.46308901847560163,0.3438469290465808,-0.19856891003937363
-9812.005039215088,7500.0,-528.0,14828.0,-220.0,-264.0,18.0,0.809254374851908,0.44354571773504,0.3284104151038434,-0.20129866445974473
-9812.02072429657,7516.0,-444.0,14840.0,-217.0,-10.0,-50.0,0.8170095334495573,0.42643174894385416,0.3332682654435046,-0.19895639972994147
-9812.036317110062,7592.0,-468.0,14768.0,-109.0,-231.0,-15.0,0.827418172391713,0.41401065497375455,0.3190384303858611,-0.20539918573618152
-9812.051958084106,7596.0,-416.0,15008.0,-46.0,-95.0,-38.0,0.8311055659682465,0.4078061076421302,0.3142271053400438,-0.21028324482942776
-9812.067551374435,7472.0,-396.0,15224.0,-249.0,118.0,-110.0,0.8345357625057227,0.38865673575769183,0.3310281614606903,-0.207162639414357
-9812.083135128021,7172.0,-440.0,15052.0,37.0,299.0,-138.0,0.8219076127898208,0.39250788815450316,0.35653634881968116,-0.20805591975466806
-9812.098718643188,7232.0,-392.0,15100.0,101.0,203.0,-248.0,0.8073831564613777,0.3954610679774114,0.37746980090773086,-0.22194488455313716
-9812.114302635193,7008.0,-424.0,14756.0,164.0,-253.0,-311.0,0.8035579520244946,0.391501837569774,0.3668083841723303,-0.25782268755595306
-9812.12985610962,7024.0,-492.0,14652.0,163.0,-3.0,-301.0,0.7910576042117379,0.3929616885027956,0.37292281076710454,-0.284143547168292
-9812.145505189896,7164.0,-164.0,14668.0,167.0,-482.0,-2.0,0.8002711916742441,0.39199167608343316,0.3351058049156262,-0.30596183613228056
-9812.161091804504,7380.0,-196.0,14892.0,138.0,-598.0,-162.0,0.8075694782396231,0.38023327148064306,0.2946033404815594,-0.34126685870740037
-9812.176693201065,7436.0,-328.0,14984.0,57.0,-627.0,-37.0,0.8195486100965803,0.3639486955064775,0.24941590767798177,-0.3656133582420989
-9812.192265033722,7576.0,-420.0,14908.0,-29.0,-622.0,14.0,0.8333152339373723,0.34168365459697164,0.2049484040460449,-0.3831894475949711
-9812.207925319672,7628.0,-468.0,14852.0,-63.0,-493.0,48.0,0.8449028655510127,0.32100702230290257,0.1694451054757529,-0.3929147434828861
-9812.223509073257,7620.0,-688.0,14632.0,-36.0,-395.0,13.0,0.8517726747364143,0.30464000212899617,0.14093712256788196,-0.40226173961427864
-9812.239095449448,7556.0,-580.0,14736.0,18.0,-410.0,50.0,0.8576159188128955,0.2918203636243674,0.10825485065764523,-0.40941018365686316
-9812.254722595215,7428.0,-420.0,14716.0,43.0,-424.0,11.0,0.8604025106082036,0.27959733947581333,0.07447765881738871,-0.419506764944533
-9812.27030992508,7448.0,-260.0,14576.0,158.0,-466.0,-18.0,0.858199982203401,0.27381657093075185,0.033934591265518975,-0.43285762040819986
-9812.285937309265,7440.0,-364.0,14808.0,217.0,-544.0,-34.0,0.8522970055100445,0.268833273231912,-0.014336770464267333,-0.448456176916633
-9812.301531791687,7344.0,-440.0,14732.0,208.0,-572.0,-24.0,0.8446410076762203,0.2613270116328014,-0.06450813927461757,-0.4627401658707564
-9812.317157745361,7520.0,-308.0,14792.0,181.0,-572.0,29.0,0.8373865033732817,0.250794923128471,-0.11460122990009011,-0.4719664274147472
-9812.332737207413,7616.0,-296.0,15056.0,215.0,-572.0,88.0,0.8294567379994806,0.24143777617886583,-0.16702599436087853,-0.4751964196296353
-9812.348335981369,7664.0,-472.0,14848.0,146.0,-566.0,104.0,0.8214209932624849,0.22642977681773463,-0.21599889042297263,-0.4768035101947012
-9812.363945245743,7728.0,-556.0,15084.0,243.0,-257.0,153.0,0.8177688929892016,0.22986170428166244,-0.24742165239409752,-0.46604738009189534
-9812.379510641098,7892.0,-624.0,14836.0,493.0,-446.0,158.0,0.8033455028781554,0.24279350285780826,-0.30192751476927665,-0.45224671784406273
-9812.395081996918,7544.0,-520.0,14808.0,291.0,-417.0,121.0,0.7902511513949084,0.24305080805987256,-0.34480615967084366,-0.44445262365465826
-9812.410653591156,7484.0,-556.0,15080.0,254.0,-420.0,113.0,0.7759692811636363,0.2404217435567539,-0.3855780512431503,-0.43749128713044616
-9812.426246404648,7452.0,-420.0,14756.0,238.0,-444.0,123.0,0.7600677946050405,0.23500365517537275,-0.4267930742989886,-0.43002081506464573
-9812.44182920456,7492.0,-312.0,14784.0,256.0,-458.0,166.0,0.7432492634384325,0.22816819155651527,-0.4695496610122518,-0.4183813148353261
-9812.457431554794,7544.0,-348.0,15056.0,305.0,-421.0,270.0,0.7289508985304104,0.22106783372047578,-0.5125992699510017,-0.396234260093122
-9812.47301530838,7600.0,-288.0,14960.0,363.0,-339.0,278.0,0.7156357603260819,0.21959373103507177,-0.5512967815494568,-0.36839640400771817
-9812.48865199089,7656.0,-308.0,14900.0,450.0,-222.0,32.0,0.6968128675355748,0.23867664008473996,-0.5795815091509913,-0.3486697052583842
-9812.504237890244,7640.0,-384.0,15092.0,405.0,-142.0,184.0,0.6863466519278489,0.24936504410140062,-0.6037748913615243,-0.3196892690240296
-9812.519856929779,7596.0,-272.0,15008.0,383.0,-74.0,119.0,0.6771263253085947,0.263709142669174,-0.62099550593281,-0.29380607423608845
-9812.535439491272,7628.0,-192.0,15344.0,293.0,17.0,-230.0,0.6651761239977155,0.2936848579455847,-0.6217885852892812,-0.2909791804937451
-9812.55101442337,7508.0,-116.0,15000.0,145.0,95.0,-56.0,0.6652297531648043,0.3074256173176906,-0.618354873815977,-0.2838945496996335
-9812.56660938263,7584.0,-88.0,15044.0,65.0,138.0,-130.0,0.6677309759321565,0.3214941235931553,-0.6082861021423979,-0.2841916434664593
-9812.58217549324,7592.0,-276.0,14964.0,-9.0,165.0,-159.0,0.6727853341102256,0.33334079302963504,-0.5937830724922835,-0.2892498448231039
-9812.597790718079,7660.0,-260.0,14992.0,-250.0,300.0,-167.0,0.69103531138427,0.3345554713309598,-0.5645239044039165,-0.3030768819608682
-9812.613350391388,7676.0,-352.0,14920.0,15.0,450.0,-124.0,0.7090218987466105,0.3530675849231181,-0.5336309586417817,-0.2964274406214124
-9812.628919839859,7764.0,-372.0,14908.0,61.0,574.0,-70.0,0.7312456660421834,0.37434809299232413,-0.49681092596372306,-0.27986101016504933
-9812.644522428513,7572.0,-348.0,14832.0,76.0,599.0,-137.0,0.7504158801321406,0.3990546775429002,-0.45522184741800914,-0.2653383515626262
-9812.660082578659,7484.0,-360.0,14888.0,22.0,535.0,-130.0,0.7671287055232376,0.41742287648285725,-0.4156175221773454,-0.25403497123463703
-9812.675711631775,7428.0,-340.0,14752.0,26.0,440.0,-96.0,0.7795289885905918,0.43191124166159833,-0.38288628634101235,-0.24328034652485522
-9812.691288232803,7312.0,-364.0,14616.0,-25.0,383.0,-196.0,0.788669140164039,0.4444153324373963,-0.3486183648433319,-0.24281934713163927
