programtime,ax,ay,az,gx,gy,gz,q0,q1,q2,q3
-5070.72087597847,3204.0,-1912.0,15880.0,181.0,-30.0,-14.0,0.9998729810543473,0.015624138146401501,-0.0029010030123474036,-0.0012215752934790472
-5070.736501932144,3160.0,-1880.0,16184.0,175.0,-111.0,-69.0,0.9994203759530482,0.03069111932097561,-0.012768847551725342,-0.0073432865185839
-5070.752095460892,3180.0,-1836.0,16244.0,176.0,-161.0,-12.0,0.9985498266361206,0.0457041770844243,-0.027114326111026776,-0.008613085483979193
-5070.7677257061005,3144.0,-1884.0,16272.0,131.0,-159.0,-252.0,0.9970685127437737,0.05729887251719114,-0.04022858751511855,-0.030868768192404267
-5070.783305168152,3192.0,-1872.0,16364.0,117.0,-128.0,44.0,0.996044348022709,0.06667518481161477,-0.05203558768802994,-0.027246543199360707
-5070.7988839149475,3208.0,-1884.0,16080.0,141.0,-115.0,71.0,0.9947436700989499,0.07801643179510243,-0.06288242027033909,-0.02107767513214177
-5070.81450343132,3208.0,-1844.0,15892.0,126.0,-51.0,243.0,0.9937813489907092,0.08718681214245082,-0.06925994454359176,0.00038764476203349715
-5070.830151319504,3192.0,-1788.0,16180.0,149.0,-50.0,-116.0,0.9922327513556953,0.100480174255487,-0.07276445205209729,-0.009123389515510066
-5070.845747947693,3144.0,-1872.0,16320.0,165.0,-63.0,-136.0,0.9901241113101406,0.11524162280131721,-0.07719162741196108,-0.020373149828049084
-5070.861354827881,3084.0,-1908.0,16016.0,138.0,-87.0,-136.0,0.9877776487370421,0.12758883699602797,-0.0836064262377908,-0.03203702266545571
-5070.876946210861,3000.0,-1788.0,16136.0,155.0,-66.0,-135.0,0.9850629981445171,0.14141111827987177,-0.08822545515801966,-0.043244125329705306
-5070.892528533936,2916.0,-1852.0,16028.0,171.0,46.0,-69.0,0.9829618791118678,0.15648366504994132,-0.08405581864546766,-0.04725913813479457
-5070.908099651337,2968.0,-2032.0,16224.0,118.0,62.0,-255.0,0.9804983827424276,0.16837129714937538,-0.07572619078503774,-0.06737634425307415
-5070.924288272858,2948.0,-1716.0,16292.0,111.0,80.0,-127.0,0.9785758710768979,0.17884985748510665,-0.06767556077282706,-0.07630210677124682
-5070.939964056015,3060.0,-1668.0,16288.0,96.0,37.0,-232.0,0.9755703961497536,0.18831621751338884,-0.061549767001029196,-0.09492644815741204
-5070.955554485321,2928.0,-1632.0,16396.0,58.0,43.0,-394.0,0.9710520305391508,0.19530733035088796,-0.0518925304024758,-0.12735841544801607
-5070.971143007278,2964.0,-1648.0,16300.0,47.0,60.0,-402.0,0.9655019142007906,0.20135174068555162,-0.040491906222702344,-0.16007478167393968
-5070.986764192581,2776.0,-1652.0,15948.0,-249.0,67.0,-760.0,0.957210236746962,0.18324532032430166,-0.018011599266928142,-0.2232606045363052
-5071.002347707748,2712.0,-1732.0,16316.0,-40.0,36.0,-550.0,0.9461476292107138,0.18096110342548768,-0.005484670388285431,-0.26837969590993216
-5071.017987251282,2776.0,-1672.0,16132.0,-33.0,80.0,-545.0,0.9329179550389636,0.1798668217370032,0.01041382708913787,-0.31177486718705394
-5071.033572435379,2764.0,-1668.0,16228.0,-4.0,184.0,-609.0,0.9148923996684298,0.18342029363244816,0.03492285179178747,-0.35792357750706727
-5071.049173593521,2736.0,-1648.0,16492.0,-11.0,183.0,-697.0,0.8910365217125661,0.18548400716178626,0.060812209563174645,-0.4098188322046982
-5071.064777851105,3024.0,-1668.0,16448.0,-38.0,218.0,-1005.0,0.8511826464271062,0.18397996918034967,0.09488685855400193,-0.48232349873865604
-5071.080376148224,2812.0,-1564.0,16376.0,-50.0,232.0,-858.0,0.8115588776164729,0.1821181331165637,0.12747828292001426,-0.5403281050767145
-5071.096009254456,3028.0,-1540.0,16336.0,-76.0,171.0,-833.0,0.7695038155669229,0.17480272192530827,0.15582430974976275,-0.5941604755673844
-5071.111605167389,2712.0,-1588.0,16368.0,-176.0,145.0,-901.0,0.7211752888086599,0.157496762739647,0.18765162472106012,-0.6479875309586008
-5071.127290964127,2668.0,-1864.0,16368.0,-265.0,162.0,-971.0,0.6646669930651621,0.1333272193823284,0.22511466627691434,-0.6998321426803187
-5071.142903804779,2604.0,-1788.0,16228.0,-239.0,406.0,-907.0,0.601723285935741,0.12574602736816504,0.2725400686983872,-0.7401614247700954
-5071.158523082733,2716.0,-1720.0,16264.0,-179.0,460.0,-873.0,0.5343441468655771,0.12465130825728434,0.3164299386516587,-0.7738284551405135
-5071.174147367477,2620.0,-1696.0,16360.0,-144.0,470.0,-851.0,0.4637840690170536,0.1255692574641146,0.35582636554349933,-0.8015761326848496
-5071.189738512039,2724.0,-1640.0,16308.0,-57.0,510.0,-839.0,0.3884692018361766,0.1322697835935987,0.38803254062954506,-0.8252436797609823
-5071.205366373062,2712.0,-1736.0,16420.0,-29.0,566.0,-763.0,0.31361801163282105,0.14559292418121209,0.41650504510156344,-0.8408150751578994
-5071.220985412598,2780.0,-1788.0,16548.0,-70.0,525.0,-902.0,0.22828544173603274,0.1486812668585896,0.4454484255884311,-0.852851298948121
-5071.236585855484,2816.0,-1480.0,16444.0,-139.0,572.0,-1049.0,0.12905321844900086,0.14679508426866308,0.47801137834404256,-0.8563303055574637
-5071.252172231674,2816.0,-1452.0,16456.0,-227.0,660.0,-1162.0,0.017437926476572562,0.14399023480565287,0.5135596582480118,-0.8457063369876071
-5071.267819881439,2716.0,-1424.0,16476.0,-271.0,746.0,-1400.0,-0.11483976764017058,0.1344881882916585,0.5467744699246355,-0.8183901478005543
-5071.283458709717,2604.0,-1288.0,16520.0,-317.0,1003.0,-1648.0,-0.2728089307792306,0.1287339249768385,0.5703183210373398,-0.7640287144710599
-5071.2990918159485,2456.0,-1516.0,16760.0,-216.0,1039.0,-1881.0,-0.4398579480802341,0.10757703590947136,0.5709143314435657,-0.6848423125128329
-5071.314729452133,2484.0,-1112.0,16516.0,-130.0,1004.0,-2194.0,-0.6065510472539337,0.06183961114837216,0.5485158354255185,-0.5721905870036834
-5071.330336809158,2720.0,-1152.0,16276.0,-166.0,1033.0,-2406.0,-0.7557978425873488,0.006813039632141657,0.5019331466897345,-0.42045965310053396
-5071.34601020813,2428.0,-1244.0,16424.0,-297.0,1356.0,-2583.0,-0.8814923756011731,-0.03584311725600337,0.4114477795631205,-0.22890431930164695
-5071.361594438553,2416.0,-1332.0,16164.0,-546.0,1346.0,-2679.0,-0.9520364624284505,-0.06099056941977286,0.2997588665669456,-0.007165651615414119
-5071.37717962265,2392.0,-1632.0,15984.0,-1016.0,1121.0,-2563.0,-0.9566851839974257,-0.04142577139622082,0.18714531447616195,0.21912096078115897
-5071.392767190933,2740.0,-2232.0,15868.0,-834.0,919.0,-2368.0,-0.9051524415475657,-0.02708746965998124,0.08345122728307394,0.4159341524963406
-5071.40836930275,3004.0,-2332.0,15596.0,-711.0,713.0,-2056.0,-0.8211866295577587,-0.011234991451758772,-0.0035326174409835783,0.5705381801568264
-5071.424048662186,3092.0,-2852.0,15328.0,-442.0,753.0,-1812.0,-0.7201677970090435,-0.015927861655984293,-0.07998205218863998,0.6889902166953479
-5071.439640045166,3040.0,-2864.0,15712.0,-507.0,739.0,-1483.0,-0.6195073144906539,-0.01766331794104423,-0.15702596393405807,0.7689223245181996
-5071.455271720886,3096.0,-2504.0,16376.0,-201.0,738.0,-1120.0,-0.5308488638089923,-0.040479034377449846,-0.21044228564690015,0.8199237622976172
-5071.470861673355,2744.0,-1968.0,17076.0,-567.0,422.0,-1064.0,-0.44621165068430757,-0.024543960373779615,-0.27239782694629083,0.8521104275137669
-5071.4864711761475,2700.0,-1688.0,17036.0,-1120.0,43.0,-1232.0,-0.35227506671847936,0.044813555710540194,-0.3560175117493803,0.8643758175243271
-5071.502075433731,2968.0,-1860.0,16724.0,-1360.0,205.0,-1404.0,-0.23129325280965124,0.11318760692313622,-0.4525897094697283,0.8537297884728231
-5071.517699241638,3068.0,-2040.0,16140.0,-1372.0,254.0,-1740.0,-0.0766051858333905,0.1871880872813276,-0.5325732082990723,0.8218625452503738
-5071.533346652985,2960.0,-2436.0,15776.0,-1054.0,622.0,-1890.0,0.10315600859577173,0.2329921439808941,-0.5703920645506648,0.7808497880075307
-5071.548944473267,2720.0,-2696.0,16048.0,-794.0,814.0,-2026.0,0.29200576421026014,0.2657774593038138,-0.5643491470205566,0.7249862178353198
-5071.564547538757,2724.0,-2788.0,16120.0,-578.0,1060.0,-1875.0,0.4675538970093279,0.27117426546867107,-0.520504544168682,0.6610089943704776
-5071.580132007599,2604.0,-2748.0,16376.0,-600.0,965.0,-1860.0,0.6218203123765169,0.27057386767888175,-0.46326389995429906,0.5705399549938592
-5071.595779657364,2716.0,-2656.0,16616.0,-685.0,868.0,-1666.0,0.7448719466534273,0.2535868671911012,-0.4046561641587922,0.46595372375937644
-5071.61132478714,2572.0,-2608.0,16044.0,-715.0,715.0,-1442.0,0.8348643098296284,0.22615178423813864,-0.3510577277883004,0.35862992961926643
-5071.6269562244415,2700.0,-2760.0,15888.0,-553.0,564.0,-1103.0,0.8914327260285493,0.20042257326856905,-0.30322662890008123,0.2706142986163273
-5071.642582178116,2688.0,-2588.0,15772.0,-401.0,598.0,-849.0,0.9300157700210342,0.17653623114285774,-0.24998656469653896,0.20350023114798066
-5071.658176183701,2888.0,-2708.0,15804.0,-329.0,643.0,-553.0,0.9559854087792196,0.14976768518604253,-0.19436471441946437,0.16088473036271336
-5071.673783302307,2788.0,-2652.0,15980.0,-294.0,645.0,-340.0,0.9733001456784373,0.12139223569062076,-0.13978632383475276,0.13568542738677278
-5071.689373016357,2808.0,-2716.0,16276.0,-328.0,379.0,-219.0,0.9829039676830058,0.09130607073086025,-0.10896475922582992,0.11700287606530364
-5071.704993724823,3048.0,-2948.0,15968.0,-315.0,285.0,-3.0,0.9874926603469495,0.061040463701447785,-0.0876432295562127,0.11597832497916895
-5071.720653295517,3072.0,-3044.0,16168.0,-130.0,348.0,345.0,0.9863971814451207,0.04330971291224754,-0.060786477216317754,0.14645775292626434
-5071.736256837845,2952.0,-2848.0,15964.0,66.0,282.0,565.0,0.9789248804421141,0.04201672705760442,-0.03785940182500011,0.19623286878658372
-5071.751915216446,2560.0,-2764.0,16056.0,144.0,286.0,736.0,0.9643818989041554,0.0465826618701081,-0.013777033933711855,0.26001500344230055
-5071.767533540726,2656.0,-2648.0,16036.0,268.0,244.0,857.0,0.9410546009534336,0.062114386367436325,0.009113793402989803,0.33237776670586444
-5071.783142566681,2536.0,-2420.0,16376.0,268.0,83.0,889.0,0.9107570007410917,0.08192294971258261,0.018590568232926243,0.4043076881339976
-5071.798770666122,2384.0,-2236.0,16068.0,302.0,19.0,781.0,0.878686547261264,0.10601097213984413,0.024876438334989752,0.46481478920512953
-5071.814368486404,2392.0,-2092.0,15936.0,213.0,-95.0,579.0,0.852192607588765,0.1270344900833772,0.020621986328060334,0.5071535581854895
-5071.829999446869,2396.0,-1804.0,16028.0,196.0,26.0,377.0,0.8327352077859314,0.1407980462825007,0.026827709117179837,0.534797398928114
-5071.845573663712,2340.0,-2056.0,15948.0,214.0,97.0,284.0,0.8162273923680857,0.1521640013718356,0.04015680901956312,0.5558834332158796
-5071.861178398132,2548.0,-2252.0,16196.0,157.0,52.0,86.0,0.8097082319989075,0.16087176209247628,0.050121524803024974,0.5621215953384863
-5071.876767158508,2432.0,-2556.0,16224.0,205.0,49.0,31.0,0.8049877679189937,0.1728277403202111,0.06299178343549584,0.5640543421481848
-5071.892359495163,2352.0,-2444.0,16348.0,228.0,248.0,103.0,0.7947760798605956,0.17689081890995867,0.08984301569564081,0.5735580647131562
-5071.907965898514,2136.0,-2432.0,16488.0,236.0,-206.0,69.0,0.7890260655698446,0.20381739424722833,0.08606160436207806,0.5731402427925182
-5071.924122810364,2536.0,-2404.0,16316.0,273.0,-307.0,46.0,0.7837077888685732,0.23794780831680773,0.07751017639782742,0.5684849292098579
-5071.939772844315,2200.0,-1944.0,16288.0,233.0,-254.0,-15.0,0.7810270099958565,0.26603334456810207,0.07181328114317317,0.5604158472833303
-5071.955431699753,2088.0,-1844.0,15988.0,161.0,-218.0,-127.0,0.7846530141848072,0.2865413319328864,0.06761238436602228,0.5455660160834485
-5071.971072435379,2188.0,-1988.0,15936.0,42.0,-57.0,-201.0,0.7934273464884521,0.29065979419286325,0.07059265423566446,0.5301005631500688
-5071.986632108688,2060.0,-2240.0,16092.0,-61.0,3.0,-298.0,0.8085146919175084,0.28412448734557033,0.07538443985641086,0.5097984453405957
-5072.002234697342,2300.0,-2460.0,16236.0,-73.0,101.0,-371.0,0.8257420152496503,0.2716466742019753,0.08827569957855291,0.48638010805374166
-5072.017869234085,2364.0,-2580.0,16348.0,-77.0,155.0,-330.0,0.8399945444140396,0.2566104247540515,0.10379848272276365,0.46667561565465104
-5072.033516168594,2388.0,-2608.0,16304.0,-113.0,226.0,-300.0,0.8522547926527074,0.23604196217033785,0.12224976680622565,0.4505562728573323
-5072.049144744873,2416.0,-2544.0,16288.0,-186.0,-121.0,-323.0,0.8696255461367809,0.22317466114480958,0.11234228048912809,0.42582119738654006
-5072.064734697342,2344.0,-2532.0,16288.0,-179.0,-233.0,-501.0,0.8929233293248638,0.21284254627631524,0.09745691061974515,0.3845622563571081
-5072.0803463459015,2380.0,-2784.0,16196.0,-95.0,-188.0,-259.0,0.9046498537289437,0.20922791278966413,0.08421507032011118,0.3615800666365063
-5072.09596991539,2312.0,-2536.0,15964.0,-37.0,-237.0,-283.0,0.9155721504373684,0.21135780688818753,0.0692950792904246,0.33504284322611955
-5072.111587047577,2380.0,-2436.0,16012.0,-8.0,-197.0,-244.0,0.9237541586120981,0.2146777672172201,0.05763708397404025,0.3118808703021927
-5072.127178430557,2344.0,-2384.0,15972.0,-26.0,-198.0,-127.0,0.9285504490735595,0.21703303055002007,0.04318667965391537,0.29803630294988354
-5072.142827749252,2404.0,-2384.0,15896.0,-49.0,-195.0,-80.0,0.9321815430387875,0.21753415617873856,0.02748041320917227,0.2880300133723612
-5072.158454418182,2360.0,-2436.0,16360.0,-67.0,-233.0,-4.0,0.9339562804009559,0.21761318584454634,0.0067913928392338814,0.2834149689580655
-5072.174032926559,2496.0,-2612.0,16332.0,-95.0,-126.0,2.0,0.9357475691403069,0.21269100568229327,-0.005975039150887502,0.281253127728398
-5072.189618110657,2524.0,-2584.0,16536.0,30.0,-156.0,-63.0,0.9366038365087966,0.2186980475658453,-0.016906391033807495,0.2732372437463508
-5072.205204248428,2520.0,-2696.0,16572.0,190.0,-145.0,-44.0,0.9336602977952755,0.2374166037699293,-0.023468420900013644,0.26713486817645044
-5072.220802307129,2312.0,-2812.0,16256.0,322.0,-257.0,-37.0,0.9267867779592799,0.2692692523286038,-0.03618197706581863,0.2593283680700197
-5072.236396789551,2384.0,-2520.0,15912.0,356.0,-298.0,112.0,0.9142236252938825,0.30392266425403686,-0.054867261834556,0.2623275827777498
-5072.252077579498,2392.0,-2452.0,15988.0,243.0,-230.0,294.0,0.8993421408624559,0.32666296001682293,-0.07543168736254637,0.28068680903031606
-5072.267689466476,2416.0,-2472.0,16208.0,171.0,-102.0,463.0,0.8816764948666785,0.338954750872327,-0.09237855422321083,0.31499593327583697
-5072.283294677734,2480.0,-2720.0,16244.0,95.0,-102.0,642.0,0.8590555972703153,0.3430804255942827,-0.1164288932617477,0.3616125207821656
-5072.298888683319,2452.0,-2700.0,16136.0,158.0,-82.0,793.0,0.8264571684610421,0.3483357819716994,-0.14097948136848046,0.4192320568976036
-5072.314488649368,2544.0,-2616.0,16172.0,231.0,-175.0,869.0,0.7830533922277049,0.3593229155888425,-0.17101001518960185,0.47798535747266335
-5072.330153465271,2516.0,-2356.0,15940.0,242.0,-367.0,808.0,0.7339843278734355,0.3776706650952409,-0.21062760527750302,0.5237059165770077
-5072.345769882202,2540.0,-2188.0,16236.0,222.0,-392.0,586.0,0.6913067641741921,0.39800227772782903,-0.2443496765843312,0.5513459714948505
-5072.361367702484,2640.0,-1948.0,16024.0,223.0,-296.0,458.0,0.654411940799184,0.4151944986529859,-0.2669720777311638,0.5727865656068116
-5072.376954078674,2656.0,-1912.0,16036.0,177.0,-139.0,234.0,0.6328736510962056,0.42645027228537075,-0.2743628464244186,0.5850949799116227
-5072.392543554306,2688.0,-2180.0,16100.0,158.0,-101.0,165.0,0.6160659385683471,0.43610526923844095,-0.2778823676695537,0.5941854451404305
-5072.408121585846,2736.0,-2452.0,16380.0,180.0,-130.0,124.0,0.5995452159756068,0.4492355955308921,-0.28012624641924705,0.600218460042534
-5072.42377948761,2792.0,-2492.0,16284.0,202.0,-106.0,152.0,0.5809642590542706,0.46134218113164743,-0.28091108974563583,0.608878379701674
-5072.43936252594,2700.0,-2424.0,16468.0,201.0,-166.0,156.0,0.5603731085788427,0.47620065982348847,-0.28477043686765924,0.6149152047653087
-5072.45495891571,2680.0,-2556.0,16388.0,174.0,-145.0,103.0,0.5439383420202992,0.4896590495136428,-0.2866829337303694,0.6182054600352155
-5072.470640659332,2640.0,-2344.0,16344.0,157.0,-172.0,-244.0,0.5459139988988093,0.5121253098738836,-0.27577504736505354,0.6030370602572381
-5072.486243963242,2684.0,-2276.0,16088.0,242.0,-130.0,-6.0,0.5321898329313,0.5303415664758739,-0.26883941139733214,0.6026916089278224
-5072.501840353012,2512.0,-2368.0,16116.0,257.0,-71.0,30.0,0.516964866126559,0.5450153535430542,-0.2598935455337855,0.606762669074958
-5072.517495632172,2476.0,-2548.0,15880.0,235.0,-81.0,55.0,0.5009661699354108,0.558379774187504,-0.2536211470253931,0.610672775011365
-5072.533154249191,2436.0,-2484.0,16216.0,179.0,-56.0,146.0,0.4831692779213141,0.5656968943709498,-0.25355677604452403,0.6182583876454613
-5072.548761129379,2436.0,-2484.0,16180.0,203.0,-110.0,206.0,0.45947785413249465,0.5752870738534325,-0.25728702521618446,0.6258819943682356
-5072.564334630966,2532.0,-2320.0,16016.0,259.0,-155.0,301.0,0.42630144556251426,0.5868424749909864,-0.26425366473679907,0.6356516245011379
-5072.580000400543,2516.0,-2400.0,16020.0,264.0,-166.0,398.0,0.38653502644755516,0.5959867441856396,-0.27586974000887804,0.6475232510355308
-5072.595549821854,2532.0,-2500.0,16276.0,235.0,-222.0,516.0,0.33935981897554085,0.6030626852544031,-0.2964704955893488,0.6582215099521155
-5072.611146211624,2560.0,-2436.0,16444.0,163.0,-175.0,518.0,0.2961568358843822,0.6036745628728327,-0.319125301208668,0.6678526729958655
-5072.626784801483,2664.0,-2300.0,16584.0,60.0,-47.0,552.0,0.25923105348439623,0.5917755252304808,-0.34547947643626925,0.6806209811700487
-5072.642382860184,2580.0,-2232.0,16584.0,113.0,49.0,480.0,0.2261702790175278,0.5762962571608807,-0.36206420681580825,0.6968781378507533
-5072.658012151718,2544.0,-2328.0,16136.0,207.0,-255.0,347.0,0.18645138164246883,0.5843117390669699,-0.3715862703861829,0.696950010784586
-5072.673599243164,2380.0,-2528.0,16220.0,292.0,-104.0,508.0,0.13711143850524293,0.5780285544785628,-0.380858902560975,0.7085407115886116
-5072.689208269119,2292.0,-2396.0,15912.0,282.0,-100.0,163.0,0.10944008120501428,0.5818085241744221,-0.37261745639706956,0.7146173388688515
-5072.704810380936,2220.0,-2300.0,15936.0,494.0,84.0,111.0,0.08008728235516785,0.5769922775483811,-0.34623191378155554,0.7353838458476345
-5072.7204468250275,2344.0,-1788.0,16372.0,151.0,193.0,84.0,0.07291167837937483,0.5628647726791998,-0.3392726338249344,0.7501741229675863
-5072.736088275909,2168.0,-2004.0,16388.0,19.0,150.0,13.0,0.07556714494828519,0.5526131097219541,-0.33762098517865813,0.7582350743237803
-5072.751723766327,2204.0,-2192.0,16452.0,-107.0,94.0,-226.0,0.0984343460615172,0.5520768089227591,-0.33302785984575894,0.7580331926318651
-5072.76731801033,2224.0,-2296.0,16356.0,-94.0,168.0,-478.0,0.1393419059706466,0.5533666600995258,-0.31438958473677825,0.7586358558226729
-5072.782910108566,2248.0,-2420.0,16264.0,-230.0,168.0,-649.0,0.19767150039698317,0.5560639678400519,-0.29560647774,0.7512227711664059
-5072.798489332199,2156.0,-2380.0,16092.0,147.0,122.0,-775.0,0.24392876776529235,0.5690862240116206,-0.24559748703840434,0.745869626849842
-5072.814085245132,2192.0,-2172.0,16128.0,186.0,112.0,-1012.0,0.30177080723284827,0.5849287530473122,-0.18005779188998355,0.731007472834755
-5072.829692840576,2220.0,-2000.0,16112.0,112.0,80.0,-730.0,0.3431980226833802,0.5928578598401077,-0.13322871340463532,0.7162295617862828
-5072.845350265503,2276.0,-1992.0,16292.0,-35.0,42.0,-678.0,0.38723671073893695,0.5958715476146259,-0.09888848319421414,0.696567223239069
-5072.860938310623,2396.0,-2212.0,16248.0,-150.0,27.0,-638.0,0.43339042308623227,0.5935456340703932,-0.07379418626222199,0.6741147821602845
-5072.876519680023,2528.0,-2416.0,16360.0,-164.0,37.0,-706.0,0.48274166922787254,0.5883820058236512,-0.045388584138075984,0.6470757084329198
-5072.892087459564,2472.0,-2716.0,16324.0,-84.0,147.0,-666.0,0.5243581465668629,0.5779873395321777,-0.009739197001835852,0.6252074195906819
-5072.907699584961,2516.0,-2660.0,16252.0,89.0,110.0,-607.0,0.5523220312975692,0.5755699408271934,0.030697897087118894,0.6022601232639737
-5072.923591375351,2132.0,-2668.0,16168.0,145.0,-48.0,-457.0,0.5687453345418646,0.5831954113907394,0.05887328494982244,0.5770145517132697
-5072.939272642136,2436.0,-2608.0,16228.0,84.0,-233.0,-266.0,0.5788335623095743,0.597291834937945,0.06499699336546205,0.5513343467569572
-5072.954878568649,2412.0,-2352.0,16048.0,39.0,-9.0,-170.0,0.5850272966489656,0.5985231505541775,0.07522781776190667,0.5420829049703431
-5072.970479488373,2548.0,-2160.0,16096.0,16.0,-156.0,-105.0,0.5901686327235445,0.6058137399747878,0.07344632018803637,0.5284849434542281
-5072.986075639725,2588.0,-2232.0,15920.0,15.0,49.0,-157.0,0.5963064512157606,0.6031222244705173,0.0849090546228662,0.5229270035399315
-5073.001664876938,2508.0,-2540.0,16376.0,68.0,141.0,-155.0,0.5987110661273755,0.5988327697855356,0.10344414635550736,0.5217697592927226
-5073.017349243164,2500.0,-2848.0,16532.0,155.0,103.0,-46.0,0.5917563713853426,0.6016121043164038,0.1182208734504538,0.5233651669202419
-5073.032980442047,2332.0,-2744.0,16404.0,200.0,-159.0,112.0,0.5776727985935193,0.6200526258432286,0.11317539964420344,0.5186715799669608
-5073.048568248749,2364.0,-2224.0,15900.0,224.0,-404.0,211.0,0.5595050573416681,0.6509635575708485,0.09138579739530162,0.5048258843980031
-5073.0641412734985,2064.0,-1972.0,16068.0,165.0,-383.0,9.0,0.5524904769942548,0.6754100885143158,0.07934947792134854,0.4819534682076209
-5073.0797662734985,2364.0,-1840.0,15924.0,98.0,-291.0,-22.0,0.549523352548082,0.6918692088360467,0.07067552462412513,0.4629752186543072
-5073.095330715179,2628.0,-1944.0,16088.0,78.0,66.0,-476.0,0.5632008096164717,0.6892813313791036,0.1056139167291942,0.4433303450619188
-5073.110904455185,2500.0,-2016.0,16244.0,123.0,293.0,-649.0,0.5771365644985142,0.6765610349068074,0.16346719641167218,0.4271498889874487
-5073.1265115737915,2552.0,-2468.0,16144.0,235.0,264.0,-625.0,0.5817240461666329,0.6682327476170292,0.2219613540789184,0.4071796733865405
-5073.142078399658,2544.0,-2764.0,16368.0,212.0,69.0,-479.0,0.5844965993864598,0.6664703130842772,0.2606152079333973,0.3824405319482256
-5073.15766954422,2352.0,-2868.0,16324.0,149.0,-144.0,-326.0,0.5897251869996016,0.6710023229952559,0.27700167013807375,0.3539069949774554
-5073.17329454422,2368.0,-2628.0,16352.0,93.0,-180.0,-221.0,0.5953287150241828,0.6756987250740458,0.28340812028488105,0.3296889312026632
-5073.188881397247,2484.0,-2440.0,16244.0,63.0,-168.0,-193.0,0.6012404612286467,0.6787786609836092,0.28775069322229124,0.30817036801897973
-5073.2044978141785,2376.0,-2344.0,16084.0,42.0,-70.0,-274.0,0.607769596936844,0.6756995564155563,0.30130176864881825,0.2885541036064825
-5073.220074176788,2300.0,-2408.0,15972.0,158.0,-14.0,-229.0,0.6044877356529911,0.6781400890064322,0.31790645997010547,0.2713965361546526
-5073.235688686371,2352.0,-2484.0,16048.0,253.0,-70.0,-163.0,0.5951787233459723,0.6883083926239776,0.32969130536310554,0.25158991849362
-5073.251291036606,2320.0,-2660.0,16124.0,340.0,-141.0,27.0,0.5779942009352659,0.7094177095371648,0.32799910036236635,0.23466104755950623
-5073.266887426376,2384.0,-2604.0,16000.0,400.0,-267.0,238.0,0.5554606243339649,0.7410155157986599,0.30760804167056416,0.21848751190804597
-5073.282474994659,2376.0,-2760.0,15928.0,414.0,-431.0,524.0,0.5290612103135633,0.7814516048190808,0.2600532571749761,0.2044503081433638
-5073.298057079315,2784.0,-2568.0,15764.0,277.0,-485.0,514.0,0.5109500668159108,0.8127403067401943,0.20705319597952104,0.1884468016585512
-5073.313653230667,2252.0,-2620.0,16048.0,627.0,-249.0,929.0,0.4534807520569382,0.8572567531999484,0.1396312636760537,0.19992292717741145
-5073.329355716705,2396.0,-2476.0,16300.0,626.0,-261.0,982.0,0.39062395188246035,0.8936901584026532,0.06636322309498618,0.21053919257567005
-5073.3449511528015,2640.0,-2168.0,16488.0,553.0,-313.0,768.0,0.3339698055616786,0.9192458987847798,0.0059053882775467375,0.2083657191808392
-5073.360534906387,2772.0,-2164.0,16296.0,325.0,-477.0,838.0,0.29178725040547904,0.9341272082762023,-0.06907126550037572,0.19363811489759816
-5073.3761122226715,3100.0,-2100.0,16484.0,397.0,-566.0,792.0,0.24163585742655044,0.9450409348319884,-0.14077502374921777,0.16938753373853802
-5073.391756772995,3100.0,-2112.0,16476.0,431.0,-588.0,711.0,0.1876311596049171,0.9503281996527053,-0.20465752107540433,0.14066328574803047
-5073.407351016998,3144.0,-2240.0,16840.0,475.0,-406.0,742.0,0.13141346321075573,0.9464407222052581,-0.2660807211987849,0.12720656761692486
-5073.42293715477,2876.0,-2380.0,16528.0,366.0,-565.0,683.0,0.08019987441737501,0.9377630053116158,-0.32379643740749986,0.09656289729795063
-5073.438563346863,2776.0,-2152.0,16188.0,310.0,-526.0,716.0,0.03381261473510913,0.9210237876059237,-0.3821929677472841,0.06708520815602363
-5073.454169988632,2580.0,-2292.0,16168.0,229.0,-398.0,433.0,-0.00041327899652505155,0.9082051619448885,-0.4162094620082097,0.043964721675074765
-5073.4698033332825,2528.0,-1832.0,16352.0,235.0,-428.0,501.0,-0.03645313349032148,0.889977826666634,-0.4541661563956874,0.018540212653565456
-5073.485392093658,2504.0,-1680.0,16220.0,341.0,-283.0,47.0,-0.07419336215996751,0.8868161664633454,-0.4560194542267396,0.009934247701887425
-5073.500983715057,2256.0,-1860.0,16156.0,296.0,-170.0,-230.0,-0.10362443211467709,0.893624635231509,-0.43657285715152805,0.01005628036674766
-5073.516570091248,2232.0,-2120.0,16280.0,288.0,-29.0,-385.0,-0.12676768488027912,0.9049157011749268,-0.40566302928482934,0.022249370971793154
-5073.532195806503,2344.0,-2548.0,16360.0,296.0,-21.0,-439.0,-0.14990800816555855,0.9162435234767997,-0.3697779564128823,0.03591180482468631
-5073.547856092453,2420.0,-2268.0,16344.0,334.0,-8.0,-397.0,-0.1754862376793277,0.9237604816341557,-0.3365232824605759,0.05121750987842792
-5073.563446044922,2464.0,-2296.0,16268.0,405.0,-154.0,-281.0,-0.21123292484307074,0.9255521082128758,-0.3093740581298653,0.05496943333527634
-5073.579069375992,2244.0,-2288.0,16252.0,392.0,-127.0,-130.0,-0.2455771888876981,0.9217783269230572,-0.2944320053530283,0.057674557100506535
-5073.594631433487,2240.0,-2216.0,16032.0,337.0,-215.0,-45.0,-0.27786868031459716,0.9162152601725152,-0.28432238404651533,0.04999375418330282
-5073.610215187073,2188.0,-1920.0,15960.0,245.0,-505.0,31.0,-0.3098106355240627,0.9105963174224759,-0.27314578142640417,0.014936495631857354
-5073.625796079636,2372.0,-1820.0,16036.0,154.0,-79.0,70.0,-0.3240387154357445,0.904728458329362,-0.27632606296004647,0.010451531788635157
-5073.641377925873,2552.0,-2040.0,16324.0,70.0,92.0,66.0,-0.32744356427656396,0.9009938288085633,-0.28404688937591055,0.01755554894083841
-5073.656934738159,2536.0,-2148.0,16316.0,133.0,106.0,38.0,-0.3353535355002577,0.8959651825806455,-0.289816606124241,0.028119968800382197
-5073.6725261211395,2652.0,-2156.0,16524.0,150.0,20.0,-22.0,-0.3465535107271058,0.8919823402080783,-0.2882751264405377,0.034141183859521904
-5073.6881108284,2520.0,-2284.0,16232.0,224.0,-156.0,-86.0,-0.3676111701564937,0.8875360543149674,-0.2760923831088827,0.0302452617190005
-5073.703736305237,2236.0,-2052.0,16136.0,318.0,-173.0,-59.0,-0.39612337613113074,0.878734537029904,-0.26498045797854314,0.02640532527344242
-5073.719323158264,2292.0,-2116.0,15972.0,368.0,-190.0,141.0,-0.4288275626284817,0.8625276428556149,-0.2681669105914203,0.01547562289234081
-5073.734935045242,2324.0,-1932.0,15984.0,305.0,-103.0,208.0,-0.45430224508028566,0.845873921000701,-0.27938600684463943,0.007087952124476318
-5073.750561952591,2412.0,-1804.0,15984.0,89.0,-83.0,292.0,-0.46297814585794744,0.8349212392966879,-0.29746713695897786,-0.008429890785105141
-5073.766156673431,2608.0,-2204.0,16172.0,73.0,50.0,442.0,-0.4663922271870542,0.8198607934328382,-0.33147730879798887,-0.020721089817359435
-5073.781781435013,2604.0,-2344.0,16484.0,115.0,-46.0,541.0,-0.47449704323983743,0.798470054540181,-0.36807524995853874,-0.042646668418661826
-5073.797355890274,2620.0,-2348.0,16412.0,130.0,-5.0,558.0,-0.4811193521295944,0.7741359721916675,-0.40671028851980406,-0.06184178827782261
-5073.812958240509,2652.0,-2232.0,16232.0,119.0,-503.0,562.0,-0.5029477264014924,0.7447828339366351,-0.4232366003256891,-0.11494735719292033
-5073.82857966423,2744.0,-1932.0,16108.0,112.0,-520.0,285.0,-0.5259320596019792,0.7230777883001485,-0.4194434537807476,-0.1569113438546229
-5073.844143629074,2952.0,-1864.0,16076.0,206.0,-371.0,399.0,-0.5464302204647318,0.6929918611622743,-0.4298229556035174,-0.19086257192537381
-5073.859775304794,2916.0,-2092.0,16208.0,211.0,-196.0,304.0,-0.5611949136537179,0.6677636706105656,-0.44203929660629643,-0.2091726783251365
-5073.875354766846,2836.0,-2252.0,16140.0,184.0,-372.0,322.0,-0.5798739599828544,0.6388122699184964,-0.44542661324041183,-0.23929104987976013
-5073.890953063965,2924.0,-2208.0,15912.0,280.0,-585.0,312.0,-0.610601391832192,0.5990526227313792,-0.43813993320046235,-0.2762884261534316
-5073.906570196152,2948.0,-2116.0,15812.0,300.0,-811.0,9.0,-0.6553144904100969,0.5614968772266286,-0.4014074978678516,-0.3068488164858549
-5073.922794103622,2852.0,-2216.0,15848.0,404.0,-683.0,303.0,-0.6891345795935946,0.5080025184261229,-0.38686475941676857,-0.34258229726954953
-5073.938512802124,3084.0,-2168.0,15988.0,471.0,-538.0,351.0,-0.7160597685938419,0.4505518814535291,-0.3831263723441713,-0.3707770121439759
-5073.954150438309,3320.0,-2240.0,16056.0,419.0,-640.0,375.0,-0.7398577282441475,0.38993688864274484,-0.37029099225891593,-0.4042825075178648
-5073.969800949097,3464.0,-2440.0,15852.0,358.0,-1107.0,509.0,-0.7652632272824919,0.30930476956888436,-0.3266125424756005,-0.4604638960751958
-5073.985664606094,3284.0,-2580.0,15776.0,691.0,-1077.0,922.0,-0.7703832359781456,0.19165892436473514,-0.30428516276806683,-0.5264855801960813
-5074.001437902451,1884.0,-3336.0,16408.0,643.0,-960.0,890.0,-0.7596846761399837,0.07994883397954154,-0.2816598710104734,-0.5806505780981909
-5074.017063856125,3428.0,-2116.0,16628.0,921.0,-1031.0,1552.0,-0.7014122952991014,-0.07043288443320081,-0.26619610611189964,-0.6574189181066574
-5074.03272485733,3280.0,-1272.0,16916.0,240.0,-1028.0,1218.0,-0.64759240773075,-0.17070708884785346,-0.20722816393297605,-0.7131196613048535
-5074.048339366913,3512.0,-1384.0,16572.0,-33.0,-1096.0,890.0,-0.6079342223482581,-0.2511542155313718,-0.12872726962659367,-0.7421366662368343
-5074.063993692398,3300.0,-2080.0,15980.0,156.0,-1277.0,587.0,-0.5764903478063991,-0.3459411459863492,-0.057557069212689056,-0.7380181475975738
-5074.079573392868,3004.0,-2320.0,16164.0,437.0,-952.0,244.0,-0.5499807177944434,-0.4283850240986511,-0.030180783376012876,-0.7163076165287631
-5074.095224142075,2864.0,-2116.0,16616.0,461.0,-893.0,70.0,-0.5287274271629708,-0.5043897870074988,-0.013392247240805188,-0.6825385690508606
-5074.110846996307,3056.0,-1688.0,16444.0,389.0,-779.0,-61.0,-0.5147078043366539,-0.5668649640228101,-0.0032435720956715645,-0.6432180563062725
-5074.12647485733,3024.0,-1440.0,16308.0,150.0,-680.0,-317.0,-0.5241660632963475,-0.6101807722485155,0.0032271400973299382,-0.5940698181471659
-5074.142089366913,2740.0,-1784.0,16216.0,48.0,-419.0,-421.0,-0.5426488518112114,-0.63322873784724,-0.002482833251845433,-0.5518581563512576
-5074.157690286636,2596.0,-1684.0,16156.0,-81.0,-371.0,-582.0,-0.5742512701355524,-0.6458202620230349,-0.013127099540578212,-0.5029705231580227
-5074.173358440399,2716.0,-1864.0,16428.0,-156.0,-253.0,-800.0,-0.6168186132555872,-0.6462758085321613,-0.03856012441521623,-0.4476332141973367
-5074.188964128494,2588.0,-2080.0,16476.0,-156.0,-448.0,-1111.0,-0.6669175429509953,-0.6479290533036246,-0.07059528263980197,-0.36114434629145536
-5074.2045793533325,2656.0,-1992.0,16196.0,-39.0,-640.0,-1342.0,-0.7095058840902917,-0.6519779497518627,-0.10707376547281607,-0.24507419738945005
-5074.2201635837555,2920.0,-2012.0,16028.0,218.0,-399.0,-1272.0,-0.7231262115107273,-0.6574643347209598,-0.15828060916652031,-0.14062851616206473
-5074.235811948776,2908.0,-2216.0,16020.0,322.0,-144.0,-1163.0,-0.7169889337322392,-0.6596896812382278,-0.21862054002058823,-0.054235162527814545
-5074.251441240311,2980.0,-2512.0,15976.0,269.0,81.0,-789.0,-0.7019133241858414,-0.6592381890664163,-0.26963566480277723,-0.00439359456234298
-5074.267055511475,2980.0,-2812.0,16316.0,105.0,-119.0,-508.0,-0.6982081553796606,-0.6529751042736522,-0.29126050891860156,0.036002790233839094
-5074.282649517059,3160.0,-2776.0,16484.0,147.0,-65.0,-103.0,-0.6911564008886663,-0.6589412195047653,-0.29262263282846473,0.04971210621906336
-5074.298240661621,3280.0,-2544.0,16428.0,235.0,-165.0,101.0,-0.6821452095654889,-0.6746686436687138,-0.27569673197111644,0.059088461627629374
-5074.313844203949,3528.0,-1760.0,16256.0,302.0,-123.0,40.0,-0.6673466508163018,-0.6926207579683026,-0.26430620055567633,0.07118402646311653
-5074.32951259613,3380.0,-1564.0,16136.0,298.0,75.0,-50.0,-0.6471441514678915,-0.7089603127101389,-0.2697069280003747,0.07640612024861329
-5074.345143079758,3328.0,-1528.0,16248.0,330.0,765.0,-223.0,-0.6056037420381476,-0.7253387584043567,-0.3235714961308961,0.049287727452502116
-5074.360746622086,3240.0,-1804.0,16352.0,410.0,881.0,-267.0,-0.551567714310119,-0.7403541203883771,-0.38377486583075404,0.019122900178850894
-5074.376339912415,3004.0,-2016.0,16308.0,626.0,975.0,-44.0,-0.4760192385490785,-0.7666962053435551,-0.43029537827587594,-0.02070025790587547
-5074.391981124878,2788.0,-1720.0,16140.0,755.0,605.0,282.0,-0.40077180857371797,-0.8044385866072337,-0.43622234355727524,-0.04439126953924555
-5074.407575368881,2972.0,-1448.0,16148.0,513.0,366.0,632.0,-0.3473614856765066,-0.8424649152101171,-0.4053904734147749,-0.07246674391170857
-5074.423212766647,3324.0,-1732.0,16152.0,406.0,309.0,443.0,-0.3032808421733082,-0.8669794184634858,-0.38406954566330204,-0.09411696353659908
-5074.438821077347,3300.0,-1748.0,16572.0,137.0,661.0,280.0,-0.26794071674047526,-0.872778308850996,-0.38071938881956946,-0.14669200008401664
-5074.454437494278,3364.0,-1356.0,16472.0,157.0,737.0,195.0,-0.22849130322280414,-0.8714728208222142,-0.38421421027367575,-0.20175799251452933
-5074.470032453537,3248.0,-1196.0,16196.0,115.0,593.0,29.0,-0.19908958158997578,-0.8630804660085182,-0.3952990959506319,-0.24329831984101508
-5074.485621929169,3176.0,-1524.0,16004.0,64.0,432.0,-251.0,-0.1845304803247195,-0.8455257743567522,-0.42265588970142143,-0.2690662848263276
-5074.501192569733,3220.0,-1524.0,15896.0,41.0,278.0,58.0,-0.1698460630383109,-0.8415182308503755,-0.42366872127510014,-0.2889709269631841
-5074.51677274704,3212.0,-1716.0,15904.0,-9.0,259.0,134.0,-0.157507970949402,-0.8395195864107199,-0.41728733693492065,-0.3102730757799296
-5074.53239274025,3496.0,-1740.0,15992.0,-13.0,313.0,302.0,-0.1387871873468339,-0.841239816609722,-0.39880174360578735,-0.3376549375853699
-5074.548058986664,3368.0,-1536.0,15884.0,-5.0,316.0,422.0,-0.11559845692129143,-0.8456400286932669,-0.3710819200347136,-0.3658252960805438
-5074.563656806946,3560.0,-1484.0,16448.0,99.0,371.0,550.0,-0.07857662121434485,-0.8511247749141556,-0.3367902460944778,-0.39494893627086347
-5074.579267978668,2940.0,-1568.0,16796.0,-92.0,444.0,366.0,-0.05966146049809625,-0.8448246112390063,-0.30905225972904865,-0.43266452030697505
-5074.594876527786,2828.0,-1800.0,16964.0,-361.0,474.0,247.0,-0.06406117377373695,-0.8303546574919156,-0.2792072171649839,-0.4779651019469937
-5074.610467672348,2896.0,-1776.0,16724.0,-317.0,352.0,213.0,-0.06949618371039522,-0.8182024574856682,-0.25222710432301104,-0.511953617878547
-5074.626072645187,2736.0,-1620.0,16704.0,-163.0,52.0,262.0,-0.06825615957220042,-0.820303433262881,-0.22643613765562615,-0.5207399059234722
-5074.641713857651,2636.0,-1380.0,16328.0,-251.0,-31.0,24.0,-0.08572870364036836,-0.8204383693176724,-0.21304800082338127,-0.5235857340194258
-5074.6573894023895,2484.0,-1520.0,16128.0,-580.0,246.0,-178.0,-0.13061533683162233,-0.8001834475825355,-0.20077695783816954,-0.5498497041924632
-5074.672991514206,2280.0,-1400.0,15936.0,-799.0,635.0,-215.0,-0.18485818160527875,-0.7536432608824775,-0.18389756627361978,-0.603349793352625
-5074.68857884407,2260.0,-1760.0,15868.0,-1014.0,963.0,-314.0,-0.25070071284571277,-0.6761644756426833,-0.16536526129159856,-0.6727593067475676
-5074.704169988632,2172.0,-2052.0,16096.0,-362.0,1136.0,-511.0,-0.28387920321315513,-0.5902712632148401,-0.19781572495687813,-0.7292882645193229
-5074.719786167145,2088.0,-2520.0,16248.0,-121.0,1049.0,-282.0,-0.2886564689680346,-0.5131678613445816,-0.22952254608464895,-0.775019735132438
-5074.73543548584,2248.0,-2296.0,16284.0,11.0,853.0,-329.0,-0.2924152352014772,-0.44758843158486045,-0.2655541884700694,-0.8022710882983832
-5074.751066446304,2388.0,-1884.0,16228.0,-248.0,633.0,-310.0,-0.30849785661248297,-0.388781927003141,-0.27574508853468843,-0.8231903375588328
-5074.766668558121,2608.0,-1540.0,16236.0,-149.0,545.0,-269.0,-0.31930224310774513,-0.33849471840695433,-0.28826414199716227,-0.8368818241517729
-5074.782266616821,2668.0,-1824.0,16060.0,-435.0,258.0,-242.0,-0.34294001625531173,-0.300949090363666,-0.27033109537437994,-0.8477870541201821
-5074.7978637218475,2768.0,-2264.0,16024.0,-602.0,442.0,-117.0,-0.35621358293544075,-0.2467984048591288,-0.24136701450295414,-0.8682997149609206
-5074.813513755798,2748.0,-2328.0,15792.0,-606.0,316.0,57.0,-0.3576528243308759,-0.20471997077035206,-0.20344772947570228,-0.8881346813333636
-5074.829128026962,2720.0,-2636.0,15840.0,-400.0,99.0,202.0,-0.34710470305707974,-0.18787600124578047,-0.171535771942111,-0.9026607403757937
-5074.844784975052,2832.0,-2460.0,15820.0,-169.0,-113.0,186.0,-0.3368124504256266,-0.19426670692167483,-0.15144352544417744,-0.9087808748103867
-5074.860402107239,2988.0,-1776.0,15696.0,-104.0,-116.0,148.0,-0.32830538370243273,-0.20219858199608193,-0.13699237255119467,-0.9124496689316989
-5074.876055955887,2788.0,-1836.0,16300.0,-228.0,-79.0,179.0,-0.3189019274651712,-0.20387134436964607,-0.11312719610164955,-0.918662219265651
-5074.891659021378,2496.0,-2124.0,16332.0,-399.0,-203.0,221.0,-0.3099833009968441,-0.2108461028645897,-0.07125023406314458,-0.9243255260761015
-5074.9072687625885,2516.0,-2252.0,16200.0,-336.0,-368.0,546.0,-0.27382631707713917,-0.23414302705337445,-0.023877052876855938,-0.9325374401621465
-5074.923015356064,2344.0,-2192.0,15996.0,-274.0,-731.0,1023.0,-0.19644128261874297,-0.2871667905969967,0.036721351644806874,-0.9368017929074977
-5074.938648700714,2620.0,-2016.0,15760.0,-320.0,-845.0,920.0,-0.12572843476572934,-0.3453765148435913,0.09985647700027152,-0.924627550793804
-5074.954241037369,2676.0,-2060.0,15924.0,-477.0,-821.0,1007.0,-0.051304977269290425,-0.3945141694195491,0.17641682133085673,-0.9003352012368047
-5074.969876766205,2676.0,-2080.0,15788.0,-552.0,-935.0,871.0,0.01244615028104848,-0.44861006166629575,0.2520585600349018,-0.8573567450181258
-5074.98552942276,3032.0,-2204.0,16100.0,-388.0,-969.0,882.0,0.08398985875576871,-0.49845226909634255,0.31228523131065555,-0.8043438153949739
-5075.0011739730835,2872.0,-2076.0,15924.0,-78.0,-1189.0,975.0,0.17985988197601502,-0.5508499903933419,0.34825573038777746,-0.736839641435845
-5075.016774177551,2160.0,-2388.0,16372.0,-243.0,-1213.0,871.0,0.2588564307862553,-0.600884761011609,0.38332912920280654,-0.6519122877575173
-5075.032409191132,1924.0,-2060.0,16260.0,-78.0,-1277.0,869.0,0.34387026902663753,-0.6403460744320718,0.40080141103653993,-0.5577350374058473
-5075.048076868057,1720.0,-1416.0,15948.0,-162.0,-1261.0,915.0,0.41963059559676846,-0.6683021342114326,0.4180441184316237,-0.4500239279108084
-5075.063684940338,1704.0,-1128.0,15876.0,-352.0,-1369.0,767.0,0.4745960875323577,-0.7000651802408436,0.42228567203593603,-0.3261013773452846
-5075.079298019409,1884.0,-1524.0,15956.0,-416.0,-1320.0,569.0,0.5097745886182338,-0.7276697516738538,0.4106858845254215,-0.2048504467888579
-5075.094902038574,2100.0,-1984.0,15952.0,-317.0,-1273.0,306.0,0.5371280821615361,-0.748367518334805,0.3765123610327203,-0.09837643439585621
-5075.110492706299,2128.0,-2196.0,16320.0,-201.0,-1219.0,-84.0,0.5601634061570987,-0.7665071770178516,0.31373126632271925,-0.016012448724159137
-5075.126052856445,2556.0,-2200.0,16224.0,-134.0,-1002.0,-400.0,0.5755823611458738,-0.7818480390967283,0.23705710079425993,0.034964557216731335
-5075.1416919231415,2976.0,-1828.0,16376.0,-3.0,-782.0,-728.0,0.5913056650840613,-0.7911830938296399,0.1473982102666505,0.05158187751374884
-5075.157354831696,3816.0,-1896.0,16276.0,-408.0,-689.0,-688.0,0.5727584745685025,-0.8144783173839539,0.06218638948309788,0.06859776442728863
-5075.17293715477,4524.0,-2544.0,15744.0,-359.0,-248.0,-436.0,0.5504906520322658,-0.832041920105549,0.01658822799474796,0.06626549557768663
-5075.188517808914,4420.0,-3556.0,15268.0,44.0,-205.0,-12.0,0.5540571796813605,-0.8285566206968239,0.00609752748472314,0.08048222227032042
-5075.204127788544,4476.0,-4448.0,15384.0,573.0,-802.0,736.0,0.5874786709282185,-0.7902050372171432,0.024404598071334903,0.17276928533175087
-5075.219757795334,4388.0,-5236.0,15672.0,789.0,-1189.0,1275.0,0.6167655487959883,-0.7190492914755615,0.062381615933748406,0.31412880835792617
-5075.235351085663,4476.0,-5472.0,15980.0,658.0,-1444.0,1666.0,0.6082082462371676,-0.6224262698148656,0.10510225561288385,0.48127100859967126
-5075.250953197479,4352.0,-5116.0,16144.0,295.0,-1664.0,1940.0,0.5445416214106638,-0.5063267779320674,0.13121173663890365,0.6556608091601779
-5075.266626834869,5168.0,-2848.0,16176.0,403.0,-1543.0,2491.0,0.4236503695309184,-0.3584248456545324,0.18487316874190024,0.8110942644928328
-5075.2822251319885,5148.0,-1896.0,16432.0,319.0,-1804.0,2583.0,0.26980149465160524,-0.17064279891104547,0.21342454207178516,0.9233299266811474
-5075.297831296921,5000.0,-2360.0,16140.0,192.0,-1982.0,2550.0,0.10017379088458182,0.03973747185308549,0.21171543724002567,0.9713715656661986
-5075.313418149948,4488.0,-3008.0,15796.0,70.0,-2153.0,2213.0,-0.046272757436264356,0.25475750114149026,0.1842834815023698,0.9481545475167822
-5075.328998327255,4304.0,-3120.0,15328.0,-24.0,-2171.0,1792.0,-0.1545746135981043,0.4498652078374484,0.14660539648875115,0.8673147302615944
-5075.344630241394,4092.0,-2992.0,14392.0,123.0,-2046.0,1527.0,-0.24291438997431253,0.6075538703307877,0.12047575143769959,0.7465631166251181
-5075.360251426697,3992.0,-2824.0,14200.0,434.0,-2132.0,1458.0,-0.33007422968572314,0.733576070768675,0.11365836641598065,0.5830942694252955
-5075.375906229019,4052.0,-2812.0,14544.0,595.0,-2091.0,1518.0,-0.4138277478350154,0.8162607690218572,0.10420879245505572,0.3893654833863735
-5075.391496419907,4232.0,-3004.0,15248.0,738.0,-1924.0,1188.0,-0.4791517851140072,0.8476595107511011,0.11175612495349803,0.19848800767462582
-5075.407106161118,4588.0,-3172.0,15448.0,938.0,-1964.0,1170.0,-0.5374006844922667,0.8346160216439132,0.12080521331892471,-0.004764573170715344
-5075.422698974609,4744.0,-3144.0,15276.0,1170.0,-2082.0,1041.0,-0.5854010823767478,0.7701113805905213,0.13861303141827727,-0.2121802577011562
-5075.4383289813995,4712.0,-3336.0,15420.0,1398.0,-2218.0,785.0,-0.6206355286499704,0.6487395083404706,0.1685566146832096,-0.4068627023236124
-5075.4539914131165,4780.0,-3488.0,15624.0,1443.0,-2310.0,1034.0,-0.6122485927997545,0.48806427540248704,0.17823450420644135,-0.5959676041538247
-5075.469591856003,4840.0,-3252.0,15448.0,1303.0,-2729.0,1425.0,-0.5291890812170995,0.28648930494384794,0.1877598919372626,-0.7762918378117217
-5075.48518538475,4596.0,-2956.0,15340.0,1192.0,-2844.0,1575.0,-0.3883875699495687,0.061531961152044644,0.1904417993548667,-0.8995003248047956
-5075.500773668289,4676.0,-2628.0,14848.0,1092.0,-2933.0,1751.0,-0.19859840615975463,-0.16884221927098575,0.18574588001986697,-0.9473908623784055
-5075.516355037689,4776.0,-2424.0,14696.0,1037.0,-2893.0,1962.0,0.024564833539213505,-0.3755600241867303,0.17037961914943617,-0.910671193441709
-5075.531992673874,5020.0,-2476.0,14648.0,768.0,-3211.0,1981.0,0.24169092355520275,-0.5682747389310006,0.15858463490808022,-0.770389662531246
-5075.54762339592,4940.0,-2704.0,15036.0,1083.0,-3310.0,1604.0,0.42592058885235595,-0.7071253263675852,0.09050988506987735,-0.557111645458822
-5075.563277482986,5368.0,-3068.0,15048.0,1179.0,-3340.0,1238.0,0.5562866936971496,-0.7753150729910749,-0.01388915435691243,-0.2987285446682119
-5075.578851938248,5356.0,-2680.0,15100.0,1443.0,-2965.0,1038.0,0.6486207244051934,-0.7503146143136474,-0.11992292722294497,-0.04401848413706436
-5075.594439029694,5736.0,-2668.0,15216.0,1773.0,-2443.0,1050.0,0.71596462600084,-0.6455548407979254,-0.18907821522267607,0.18682352733542473
-5075.6100335121155,5760.0,-2756.0,15396.0,1890.0,-2264.0,1148.0,0.7388072725876238,-0.49093471465408006,-0.22657705312677878,0.40225583764009976
-5075.6256375312805,5996.0,-3000.0,15340.0,1763.0,-2385.0,1450.0,0.6883610262642919,-0.3093939493464211,-0.2463168060268056,0.6080810083343731
-5075.641295909882,5852.0,-3284.0,15200.0,1381.0,-2720.0,1791.0,0.5467375229020925,-0.11495669523406661,-0.27522795886036006,0.7823762585439986
-5075.656898975372,5904.0,-3292.0,14644.0,1164.0,-3088.0,1641.0,0.35437698339450313,0.10690283602222288,-0.3108370860364339,0.8754250643173271
-5075.6725244522095,6376.0,-2628.0,15208.0,1567.0,-3384.0,1810.0,0.10318345557729008,0.3431300296015165,-0.2937628715398431,0.8861818845956272
-5075.688123226166,6304.0,-2652.0,15752.0,1545.0,-3456.0,1350.0,-0.12843239197205647,0.5563887904429708,-0.2318080358013762,0.787528836995606
-5075.703735113144,6536.0,-2464.0,16040.0,1334.0,-3055.0,890.0,-0.30279975226944866,0.7021614476158353,-0.14267852470932754,0.6284301473468352
-5075.719329833984,6444.0,-2092.0,16256.0,1134.0,-2584.0,717.0,-0.430189719146099,0.7801125816522525,-0.054353208845309364,0.45100653451704736
-5075.7349371910095,6108.0,-2232.0,16236.0,927.0,-2233.0,583.0,-0.514936983100252,0.8114664944804678,0.02571836685501712,0.275137415444542
-5075.750562667847,5384.0,-2656.0,15512.0,1076.0,-1795.0,962.0,-0.5983414123286278,0.7924380029780712,0.06285897952586904,0.10039080845214866
-5075.766152620316,5600.0,-3128.0,14992.0,1831.0,-1123.0,1843.0,-0.713622956729123,0.6957493913216809,0.009795248505221323,-0.0811117328838174
-5075.781736135483,6784.0,-3436.0,14652.0,2371.0,-9.0,2475.0,-0.804933734923467,0.5269112107574896,-0.1501172993345227,-0.2278399763007876
-5075.797355413437,7388.0,-3208.0,15268.0,2878.0,673.0,3266.0,-0.8061083421787493,0.27550074934855406,-0.3777722743006538,-0.3627351465572715
-5075.812939882278,7116.0,-2928.0,15620.0,2445.0,478.0,2651.0,-0.7294245367589746,0.029650845645158106,-0.5264954349561829,-0.4357329795835769
-5075.828544855118,7452.0,-2748.0,15884.0,2214.0,811.0,2486.0,-0.5781203157593833,-0.18657928219013317,-0.6405973879893723,-0.46968080487164826
-5075.844179391861,7648.0,-2388.0,15564.0,1758.0,1420.0,2491.0,-0.35310694851958424,-0.34194761783648336,-0.7135542407265787,-0.4992270576644035
-5075.859795093536,6504.0,-2704.0,15820.0,1296.0,2664.0,2340.0,-0.04418965250748377,-0.3908757085968774,-0.7429340714390058,-0.5415832535586926
-5075.87543296814,4104.0,-2948.0,17256.0,601.0,4842.0,1907.0,0.3460421740702049,-0.2618595141802297,-0.6592310805478973,-0.6140837003517613
-5075.891038656235,2948.0,-1696.0,18176.0,-213.0,4572.0,1956.0,0.6504190594850434,-0.12450078986892926,-0.42636633570785126,-0.6161707134842294
-5075.906653642654,4152.0,-580.0,17836.0,-361.0,4435.0,2056.0,0.8478098639861075,0.0156612060898565,-0.12190699435608213,-0.515860296862179
-5075.922813177109,3396.0,-600.0,17164.0,18.0,4274.0,2259.0,0.9167357001085926,0.17053517328733414,0.1755966465930559,-0.3157201744005934
-5075.938493728638,3396.0,-1600.0,16284.0,64.0,2870.0,1376.0,0.8766294504671918,0.2655882193064246,0.3688356862206192,-0.15793650910855578
-5075.954133987427,4968.0,-2256.0,15136.0,441.0,3170.0,1394.0,0.7496740296149361,0.3709808669134343,0.5479994526198145,0.007658043708678749
-5075.969720363617,4440.0,-2772.0,15520.0,766.0,4221.0,1044.0,0.48742306308150835,0.43686558275689125,0.7379605406640704,0.1642603439711318
-5075.985414505005,3924.0,-2924.0,16528.0,1087.0,4859.0,1438.0,0.10240156228162199,0.46108163751226716,0.8249428145886581,0.31046255208934953
-5076.000999212265,3520.0,-2572.0,17640.0,1528.0,5019.0,2155.0,-0.3395959999497022,0.44261910478567895,0.7388562222715608,0.37796080181347363
-5076.016602516174,2728.0,-1664.0,18392.0,1291.0,4191.0,2368.0,-0.6766937367680793,0.38400170382505694,0.5186891594360634,0.35438656007503533
-5076.032198905945,3288.0,-212.0,18328.0,1312.0,3648.0,2011.0,-0.8859101532120359,0.26593854509723003,0.25813952247152694,0.2789334644777632
-5076.047912359238,3112.0,880.0,17512.0,1278.0,3382.0,947.0,-0.96481032087967,0.10067842774128898,0.005350112154360511,0.24285031441516816
-5076.063502788544,2752.0,668.0,16504.0,749.0,3934.0,-302.0,-0.9124485323942203,-0.04355990769800348,-0.28987842430456345,0.28550080436958203
-5076.07913517952,1848.0,-116.0,15568.0,46.0,4390.0,-1029.0,-0.7218160970937172,-0.12147520503088677,-0.5974528352891169,0.3275292447157857
-5076.094777584076,1084.0,-1220.0,14712.0,-320.0,4678.0,-1580.0,-0.4004343180275004,-0.14011448355084966,-0.8427756262272402,0.33128466955537206
-5076.110382080078,532.0,-2252.0,15032.0,-359.0,4867.0,-1050.0,-0.015085617173970804,-0.17514918029338633,-0.9498447635400343,0.2586312316264445
-5076.12601184845,172.0,-3140.0,15628.0,-301.0,4930.0,-426.0,0.36591623895203634,-0.23010899521942715,-0.8898791784610645,0.14584308050697078
-5076.1416211128235,544.0,-2952.0,16524.0,67.0,4253.0,198.0,0.6516100328596857,-0.27884604499492793,-0.7022089894827409,0.06746690564205383
-5076.15718793869,1256.0,-1864.0,16668.0,408.0,3736.0,377.0,0.8437211530371602,-0.28558831054753453,-0.45397893700016106,0.021841647292584986
-5076.172784805298,1884.0,-668.0,16596.0,482.0,3479.0,-63.0,0.9501180181233078,-0.2429498057678819,-0.1895446537453158,-0.04820754869680131
-5076.18837761879,2188.0,-428.0,16392.0,371.0,3416.0,-542.0,0.9685923246011681,-0.1804658395048416,0.07732050821475557,-0.152586134707352
-5076.204055070877,1716.0,-936.0,16216.0,226.0,3110.0,-869.0,0.9042810797869087,-0.12085483094962048,0.31116071237322274,-0.2661744722000019
-5076.219645023346,1340.0,-1296.0,15864.0,268.0,2712.0,-701.0,0.7936975029072015,-0.054080847443121124,0.49660856742889414,-0.3471303308196047
-5076.235281944275,1112.0,-1944.0,15736.0,545.0,2175.0,-86.0,0.6864519896376168,0.044988662095583214,0.6184541696438316,-0.37983434054277615
-5076.250885725021,868.0,-1624.0,15432.0,738.0,1935.0,644.0,0.5900662812241755,0.1848284651684838,0.6949396888002011,-0.36704093934602766
-5076.266476392746,1028.0,-660.0,16016.0,934.0,2402.0,1202.0,0.4541081781545788,0.37151728634484366,0.7466103779333984,-0.31358190643313744
-5076.282091856003,1752.0,460.0,16788.0,951.0,2477.0,1455.0,0.29172309492996945,0.5528732101089459,0.7459600820259195,-0.22972245308674713
-5076.297693014145,1756.0,408.0,16904.0,869.0,2248.0,1189.0,0.1239192225321273,0.6790679413997592,0.7091334135924662,-0.143668225355583
-5076.313322305679,1128.0,-256.0,16712.0,944.0,2098.0,1057.0,-0.04749695797336524,0.7626201663456353,0.6418414644573189,-0.06476152692390967
-5076.328917264938,624.0,-664.0,16536.0,934.0,1920.0,1106.0,-0.20651218010451516,0.8138326700418446,0.543132675070575,0.006000159308187055
-5076.344554901123,256.0,-796.0,16628.0,802.0,2031.0,996.0,-0.35268443887510875,0.8275548445737091,0.4269034610890652,0.09230439159710142
-5076.360140323639,352.0,-940.0,16680.0,805.0,2283.0,649.0,-0.4896215739221513,0.7898474732647862,0.30889549266857275,0.20247285728281608
-5076.375773191452,188.0,-576.0,16852.0,1040.0,2092.0,284.0,-0.6100844335879285,0.7013687040659854,0.213792131149961,0.30028627925507073
-5076.391421794891,312.0,-548.0,16800.0,1293.0,1987.0,-157.0,-0.7072380211481885,0.565356392765578,0.14828968206778176,0.39773948860243186
-5076.407031297684,180.0,-764.0,16772.0,2034.0,1754.0,-503.0,-0.7907381586852676,0.3620597281727073,0.13170436157435392,0.47570986827774525
-5076.422663927078,476.0,-920.0,16892.0,1923.0,1552.0,167.0,-0.8565388106521148,0.16282494628176972,0.09682566889684655,0.4800563431074294
-5076.438265323639,40.0,-564.0,17064.0,1926.0,1522.0,703.0,-0.9040468961934632,-0.03828842805981546,0.052291896520576656,0.4224911399283487
-5076.4538605213165,-32.0,-484.0,17396.0,1429.0,1606.0,1102.0,-0.9268947106861127,-0.20059864577831554,-0.017899799203961515,0.3167111867340195
-5076.46949505806,160.0,-364.0,17088.0,736.0,1618.0,1191.0,-0.9284429660930327,-0.3012292023021824,-0.10574427441019048,0.18992834128224506
-5076.485100746155,188.0,-576.0,16720.0,432.0,1563.0,1152.0,-0.9082787140054409,-0.36705394614472064,-0.19200536739827478,0.05860987284122341
-5076.500730752945,-16.0,-544.0,16376.0,616.0,1320.0,761.0,-0.8616159353392504,-0.4307994747177631,-0.26630476879626264,-0.03334010600968512
-5076.516309976578,-4.0,-624.0,16256.0,1062.0,1251.0,312.0,-0.7835377511621071,-0.5087602879032525,-0.347986900039085,-0.07833696035470937
-5076.531913995743,-88.0,-564.0,16340.0,1329.0,1351.0,-148.0,-0.6753832140963265,-0.5779219302900378,-0.44983589023812093,-0.08666849750878057
-5076.547521352768,-292.0,-596.0,16444.0,1298.0,1315.0,-400.0,-0.5539110804997021,-0.6203378420231292,-0.5498813835990969,-0.07742054394592505
-5076.563089847565,-280.0,-652.0,16256.0,1173.0,1213.0,-566.0,-0.43091317482735497,-0.6340469081916603,-0.6394123935996091,-0.05873793394412285
-5076.578679800034,-444.0,-924.0,16000.0,1271.0,1102.0,-476.0,-0.29811428188737377,-0.6421844454310052,-0.7055456573149679,-0.03053421728549835
-5076.594263315201,-484.0,-1244.0,15820.0,1097.0,1001.0,-130.0,-0.1738925188199424,-0.6545315967867337,-0.7356000201534457,-0.015568913144949539
-5076.609857797623,-444.0,-1100.0,16292.0,1206.0,968.0,220.0,-0.04216287843229128,-0.6793622384976433,-0.7325837906548511,0.0031984770663955058
-5076.625496864319,-468.0,-916.0,17044.0,1149.0,949.0,445.0,0.08575177709773099,-0.7058390941431004,-0.7029168134568676,0.018594603073771348
-5076.641143083572,-392.0,-424.0,17236.0,769.0,783.0,437.0,0.17953329218515823,-0.7243257052889646,-0.6653506233798663,0.02070308244745284
-5076.656744718552,-480.0,-104.0,17264.0,409.0,694.0,25.0,0.24508015382826265,-0.718840199231554,-0.6505409609790423,0.0009717287270809866
-5076.672337293625,-640.0,-128.0,16824.0,149.0,375.0,-109.0,0.2755900495878399,-0.709014839303051,-0.6489056800330871,-0.01641647456178412
-5076.6879670619965,-824.0,-344.0,16280.0,260.0,309.0,-479.0,0.308082294100883,-0.6741666040131066,-0.6704791045083824,-0.03228715708466867
-5076.703555107117,-640.0,-392.0,15916.0,258.0,404.0,-607.0,0.344465404476426,-0.629117785213998,-0.6944690992689082,-0.05715826805421736
-5076.719156503677,-704.0,-400.0,16384.0,758.0,614.0,-728.0,0.41738756608917327,-0.5559821546252259,-0.7157207395801995,-0.06644762108021378
-5076.734723567963,-756.0,-336.0,17060.0,722.0,672.0,-717.0,0.4875640956452409,-0.4782582201733966,-0.7260914087844668,-0.07963412311064806
-5076.750355958939,-616.0,-348.0,17348.0,530.0,671.0,-886.0,0.543007631296068,-0.3925918346998563,-0.7339372553873299,-0.11113266322619748
-5076.765980243683,-636.0,-428.0,17552.0,286.0,595.0,-979.0,0.5784482908637559,-0.3088769913926968,-0.7380935794801292,-0.15877797994434095
-5076.781558036804,-636.0,-492.0,17192.0,220.0,475.0,-852.0,0.6009762069706357,-0.2353692588416163,-0.7372595615788138,-0.1996928879758895
-5076.797168016434,-836.0,-420.0,16972.0,189.0,155.0,-1021.0,0.5946344139445722,-0.15636577989656011,-0.7501815499304514,-0.24328439895332682
-5076.8127517700195,-788.0,-356.0,16784.0,145.0,250.0,-715.0,0.5965375889016842,-0.09647374291908567,-0.7482697355900481,-0.27373002165372196
-5076.828355789185,-832.0,-264.0,16776.0,174.0,334.0,-753.0,0.6002938387986033,-0.03015495074602681,-0.739296534181795,-0.3036093223086658
-5076.844043970108,-776.0,-412.0,16732.0,251.0,433.0,-878.0,0.603371480059142,0.050940866124058626,-0.7226713273380594,-0.3333077224626195
-5076.85963511467,-732.0,-408.0,16608.0,434.0,189.0,-874.0,0.5858225173049402,0.13392444998045203,-0.7186627918139852,-0.34985713023756615
-5076.8752908706665,-892.0,-576.0,16516.0,570.0,-195.0,-965.0,0.534911501059058,0.21657614990058977,-0.7310783982424693,-0.3639901550209952
-5076.890872478485,-592.0,-568.0,16556.0,583.0,-484.0,-899.0,0.46209226160384576,0.28427911896726343,-0.7511883643642556,-0.37599490093456556
-5076.906466245651,-612.0,-508.0,16384.0,382.0,-663.0,-892.0,0.3779472254639704,0.33464236809942854,-0.7642654561916239,-0.40133364263303695
-5076.922233343124,-300.0,-488.0,16568.0,242.0,-722.0,-590.0,0.3010352287213021,0.3554193683624062,-0.7765402544448401,-0.4243113207166699
-5076.937849521637,-260.0,-524.0,16420.0,97.0,-875.0,-430.0,0.22202009516442567,0.3533978089922837,-0.7868700518550011,-0.4545905712136367
-5076.953511714935,-296.0,-592.0,16440.0,112.0,-993.0,-208.0,0.14157454157469077,0.3291290344055637,-0.8009289653744175,-0.4797327592664926
-5076.969131708145,-320.0,-584.0,16264.0,178.0,-1242.0,-118.0,0.04443434152281701,0.285826549592237,-0.8153817203549518,-0.5014792348169853
-5076.984714984894,-8.0,-428.0,16612.0,242.0,-1382.0,-108.0,-0.06421074324897207,0.2321935435817698,-0.8224159848279697,-0.5153591821921832
-5077.000309705734,-140.0,-212.0,16360.0,264.0,-1527.0,-100.0,-0.18203281411589467,0.16765003274256263,-0.8161915038660835,-0.5221005172601221
-5077.015944480896,-116.0,92.0,16316.0,110.0,-1486.0,-119.0,-0.29248898991550526,0.10574598522210939,-0.7890992013197023,-0.5297078703060969
-5077.031533479691,-176.0,272.0,15876.0,-81.0,-1434.0,-156.0,-0.3946488262139996,0.05183106776512638,-0.7413498513330399,-0.5403390068380394
-5077.047158718109,-496.0,148.0,16016.0,-151.0,-1441.0,-231.0,-0.4941340340272751,0.003976177613170572,-0.6779026129029279,-0.5443011977268682
-5077.062779903412,-60.0,-304.0,16096.0,-173.0,-1359.0,-159.0,-0.5779390888672388,-0.04340783306367749,-0.6065054876188636,-0.5442915239797753
-5077.078421592712,-132.0,-396.0,16128.0,-232.0,-1407.0,-183.0,-0.656919475274305,-0.08815748671513153,-0.5209573049363262,-0.5378555075249141
-5077.094022512436,-20.0,-540.0,16724.0,-254.0,-1487.0,-68.0,-0.7234988535491316,-0.13907419970831048,-0.4204710099319788,-0.529539333473319
-5077.109627485275,212.0,-468.0,16912.0,-244.0,-1514.0,37.0,-0.7734812695834024,-0.1932071337696766,-0.31015842331541355,-0.5178797944606945
-5077.125233411789,380.0,-468.0,16916.0,-289.0,-1393.0,4.0,-0.8097288589838547,-0.2348387818536106,-0.2012264935398347,-0.4986961196599389
-5077.140892505646,184.0,-668.0,16536.0,-222.0,-1759.0,617.0,-0.8076105789863436,-0.3023171486980077,-0.05371017480625133,-0.5034726521219711
-5077.1565408706665,116.0,-1272.0,16192.0,65.0,-2383.0,1174.0,-0.7457640218330112,-0.40609373866629067,0.13876892979850475,-0.5095753950869921
-5077.172096729279,144.0,-1204.0,15844.0,392.0,-2949.0,1631.0,-0.5980396835465552,-0.520496504173823,0.3558025407181397,-0.4948095371603927
-5077.187733888626,256.0,-1156.0,15740.0,537.0,-3281.0,1798.0,-0.37432650483771396,-0.6023727746212673,0.5560540272292508,-0.4333943088841715
-5077.203327178955,552.0,-624.0,15988.0,607.0,-3349.0,1936.0,-0.100930964061984,-0.6197033278684648,0.7042964887498779,-0.33128112209551214
-5077.218916893005,832.0,148.0,16500.0,339.0,-3280.0,1636.0,0.15838454226566634,-0.5873762798080399,0.7729627295563166,-0.1800890374426253
-5077.234510183334,1396.0,964.0,17076.0,83.0,-3165.0,1208.0,0.37897638986694676,-0.5316950888318678,0.7573873220644768,-0.006455448202001288
-5077.2501718997955,1524.0,1372.0,17152.0,-154.0,-3104.0,722.0,0.5563302783015017,-0.4727892981848673,0.6630344370940079,0.16538511479049783
-5077.265835046768,1740.0,1440.0,17628.0,-156.0,-3072.0,300.0,0.6984539170608217,-0.40415410068725555,0.5058301673191874,0.30488921015659637
-5077.281438827515,976.0,688.0,17308.0,-233.0,-3485.0,-145.0,0.8111076115180067,-0.31746517245033096,0.26965307375924596,0.41061846844829863
-5077.297043323517,908.0,-192.0,17148.0,-219.0,-3954.0,-200.0,0.8555128467949358,-0.18501781777985482,-0.02251218852380997,0.4830728489996861
-5077.31266450882,736.0,-736.0,16140.0,-494.0,-4514.0,-353.0,0.7931930544006299,-0.028426538319549593,-0.35877367674499083,0.49124144699388633
-5077.328274965286,528.0,-996.0,15836.0,-663.0,-4389.0,-380.0,0.6249453010657819,0.11722737661818154,-0.6447857784841602,0.42420798284755773
-5077.343986034393,744.0,-336.0,15516.0,-709.0,-4002.0,-437.0,0.3986283796191103,0.23671078735566398,-0.8333438366897661,0.30100077734598085
-5077.359601259232,768.0,144.0,15688.0,-319.0,-3478.0,-369.0,0.15486172678414728,0.32873494526620595,-0.9131556950434292,0.1846560531041657
-5077.3752591609955,540.0,16.0,16292.0,130.0,-3089.0,-509.0,-0.08379519893914113,0.40594884183658675,-0.9049686035259773,0.09599858894028616
-5077.390855312347,396.0,-924.0,16884.0,497.0,-3283.0,353.0,-0.3492012180195302,0.38587797067823715,-0.8537622889086219,0.01570525760478921
-5077.406444787979,460.0,-2004.0,16696.0,518.0,-3354.0,987.0,-0.5905531631338139,0.28773214755246046,-0.749177288621507,-0.08479718740160906
-5077.422031402588,328.0,-2368.0,16572.0,486.0,-3923.0,1460.0,-0.7964016686193494,0.1296448470608818,-0.5510237047295642,-0.21286021863416077
-5077.437611818314,956.0,-2200.0,16488.0,531.0,-3809.0,2245.0,-0.8798330748575341,-0.08018954405106862,-0.2994975426625971,-0.3602285654285129
-5077.4532108306885,956.0,-1232.0,16716.0,512.0,-3504.0,2691.0,-0.8234069415546618,-0.2796037024116667,-0.02556486785168311,-0.49312190757358554
-5077.468804359436,1368.0,-740.0,17172.0,564.0,-3405.0,3132.0,-0.6322130736146221,-0.43853064514214846,0.2513780817529312,-0.5872023184867204
-5077.484416246414,1392.0,-656.0,17464.0,571.0,-3604.0,3458.0,-0.324279339047077,-0.5299727317234328,0.5066762476307805,-0.5977047715917829
-5077.500056266785,1320.0,-1500.0,17236.0,592.0,-3562.0,3735.0,0.05052962213087611,-0.5166798059795934,0.6824725688901356,-0.5145094052519349
-5077.5156686306,824.0,-2352.0,16948.0,327.0,-4120.0,3815.0,0.43274526546442266,-0.4245580491264392,0.7375442102575969,-0.29750720336754277
-5077.531293153763,1408.0,-3292.0,17332.0,192.0,-4412.0,3274.0,0.7293670726836696,-0.2894679373740926,0.6195253856120791,-0.02050080728770721
-5077.546891450882,1784.0,-2924.0,18384.0,113.0,-4684.0,2301.0,0.900623034579157,-0.15122446754812416,0.3449933169372383,0.21676928119283648
-5077.5624759197235,2464.0,-1148.0,19256.0,72.0,-5124.0,1617.0,0.9282469966212563,0.00013482522712983923,-0.03198013214843441,0.3705870562142505
-5077.578075647354,4688.0,2300.0,18820.0,-317.0,-5731.0,1727.0,0.7587897714866044,0.1375614090297725,-0.44890407157914897,0.45144221773413346
-5077.593685865402,5644.0,4068.0,18024.0,-1337.0,-5090.0,1601.0,0.46198026665705505,0.16847294511954122,-0.7732825995791291,0.40028130254905553
-5077.609339475632,6264.0,3976.0,16584.0,-2661.0,-3321.0,728.0,0.2354486672511524,0.11985017502274313,-0.9459097617520504,0.1882938747247318
-5077.624933958054,6272.0,2744.0,16044.0,-2826.0,-671.0,-1102.0,0.21985177017437668,0.15808821749250515,-0.9599344657374156,-0.0721050354043177
-5077.640521287918,5204.0,1324.0,16288.0,-2994.0,1535.0,-3057.0,0.3444802242406612,0.34061014408640466,-0.8081126782836683,-0.33507014795373596
-5077.656128168106,4872.0,1388.0,16296.0,-2121.0,2591.0,-4189.0,0.4237328349707865,0.5869478838056081,-0.49228667268029064,-0.483318216256233
-5077.671760797501,5276.0,1608.0,16860.0,-861.0,3380.0,-5331.0,0.3393306404843027,0.8099096859372151,-0.05048491606467723,-0.4757649527902792
-5077.687331199646,5272.0,1612.0,17840.0,-873.0,3416.0,-7256.0,0.09387930006820631,0.7831538705755066,0.4905308798389264,-0.37045397547570613
-5077.702958583832,6512.0,1356.0,17352.0,-1873.0,3320.0,-8255.0,-0.1466177425670445,0.40860276240606386,0.8949998798767453,-0.1025779466517504
-5077.718615293503,6844.0,412.0,16388.0,-2937.0,3522.0,-8413.0,-0.30099915171049596,-0.13774220036901597,0.9022721434934398,0.2762816967929967
-5077.734231233597,6728.0,-1784.0,16224.0,-3538.0,4082.0,-8575.0,-0.343262396297326,-0.6130993612045196,0.4542808283104457,0.5476395069828354
-5077.7498025894165,6804.0,-3968.0,15532.0,-3652.0,3931.0,-8374.0,-0.22226583364065666,-0.7729486424845924,-0.21618527011244604,0.5535451420287765
-5077.765419006348,6736.0,-5256.0,14548.0,-3529.0,3825.0,-7942.0,-0.003411052182303708,-0.569251206021239,-0.7674506410722215,0.2948914082916129
-5077.781022787094,6504.0,-5844.0,13936.0,-3305.0,3776.0,-6921.0,0.21120806085448668,-0.16171554106281272,-0.9597782512733828,-0.08980505103532006
-5077.7966985702515,6384.0,-5368.0,13796.0,-2396.0,3919.0,-5750.0,0.3876224178447373,0.2579349038362815,-0.7991764653435831,-0.38017814746261375
-5077.812294006348,5580.0,-4064.0,13924.0,-1991.0,3903.0,-4456.0,0.48891494711953287,0.5538582261147934,-0.43951345916701734,-0.5109120854502479
-5077.8279275894165,5380.0,-3576.0,14148.0,-1862.0,3739.0,-3489.0,0.5120214137262196,0.6999410565658054,-0.025450917897029288,-0.49726133973751296
-5077.843565940857,5264.0,-3692.0,14792.0,-1811.0,3308.0,-2861.0,0.4675620985909424,0.7105873324794517,0.34733454805047254,-0.39472780319043305
-5077.859178543091,5252.0,-4040.0,15104.0,-1712.0,2897.0,-2470.0,0.37663806040709574,0.6253743287261523,0.6368121028069537,-0.24803440515718975
-5077.874802350998,5204.0,-3996.0,15324.0,-1786.0,2370.0,-2433.0,0.2747370104397826,0.45770014487966787,0.8403254217089596,-0.09425146206505612
-5077.890422821045,5344.0,-3584.0,15032.0,-1715.0,2025.0,-2311.0,0.16796607015821163,0.2520731119130341,0.9514597350488067,0.05450612907683261
-5077.906012058258,4840.0,-3068.0,14856.0,-1737.0,1806.0,-2320.0,0.06442201349710949,0.024261557267838654,0.9781889325139583,0.19597855322233687
-5077.922092676163,4596.0,-2340.0,14612.0,-1900.0,1613.0,-2479.0,-0.02571062551287489,-0.2157679164756032,0.91775952338884,0.33241634614531657
-5077.937723398209,4416.0,-2564.0,14560.0,-1913.0,1769.0,-2445.0,-0.12653007005541345,-0.4378720028739824,0.775367083130776,0.4371088386982942
-5077.9533796310425,4644.0,-3000.0,14912.0,-1610.0,2021.0,-2142.0,-0.23335459363339808,-0.6162554759238645,0.585117367730845,0.47266530230573317
-5077.968988656998,4536.0,-3216.0,15756.0,-1338.0,2303.0,-1866.0,-0.33286130392723207,-0.749672961944852,0.3680494884330667,0.43787369930249675
-5077.9845769405365,4152.0,-3444.0,16180.0,-1345.0,2192.0,-2043.0,-0.39725942123163344,-0.8266658636854682,0.11461610149334904,0.38166955778308137
-5078.000187635422,3736.0,-3452.0,16652.0,-1676.0,1699.0,-1912.0,-0.4555991897047009,-0.8156723049808983,-0.13344878019649115,0.3306047372492369
-5078.015860319138,3412.0,-3144.0,15884.0,-2133.0,945.0,-2146.0,-0.5152278033244534,-0.7065122150383794,-0.3714253479043736,0.3121281974079504
-5078.031485080719,3232.0,-2916.0,14556.0,-2053.0,316.0,-2288.0,-0.5496689960158183,-0.5296129175763211,-0.5625497081081517,0.31766645756625356
-5078.047104597092,3792.0,-2696.0,13792.0,-1797.0,479.0,-1858.0,-0.5436352771300716,-0.3561206993273297,-0.7029489643942335,0.28896623752161515
-5078.062691450119,3620.0,-2612.0,14156.0,-1052.0,1126.0,-1486.0,-0.4618318564840725,-0.23923514298659482,-0.8149649055055906,0.25555837980962864
-5078.078284740448,3748.0,-2788.0,15480.0,-639.0,1597.0,-1467.0,-0.32266780201996337,-0.14197485258791503,-0.9067227945532227,0.23147873468169816
-5078.09387922287,3644.0,-3024.0,16540.0,-670.0,1737.0,-1770.0,-0.15392810167795334,-0.01765153300754925,-0.9670912911165186,0.20181426496382843
-5078.109528303146,3680.0,-3276.0,16756.0,-945.0,1331.0,-2205.0,-0.0040632199850013685,0.15341737284315407,-0.9773755592842412,0.14554592425442403
-5078.125173807144,3332.0,-3156.0,16328.0,-1193.0,594.0,-2684.0,0.09356101322531514,0.3630770467470034,-0.925646379146398,0.05099191801539892
-5078.140784502029,2964.0,-3084.0,15196.0,-1032.0,-46.0,-2695.0,0.13049527618744752,0.5552665187205258,-0.8195842189294309,-0.05414595241183357
-5078.156427621841,3108.0,-3032.0,14816.0,-608.0,-184.0,-2342.0,0.1328109725079571,0.6995055325396325,-0.6899749677074563,-0.1303372527907141
-5078.172053575516,3116.0,-2824.0,15016.0,-106.0,-113.0,-2189.0,0.10567289562695072,0.8140322047867611,-0.5464750018948951,-0.1659815682652588
-5078.187654018402,3276.0,-3044.0,15404.0,129.0,-253.0,-2095.0,0.05319696561767011,0.8963579441220694,-0.39513259405488943,-0.19386271424331103
-5078.203251361847,3028.0,-2824.0,15700.0,197.0,397.0,-2286.0,0.012534817626770814,0.9631439133592308,-0.2133833691718022,-0.1632918193511866
-5078.21885228157,2768.0,-3068.0,16072.0,194.0,869.0,-2032.0,-0.016262281614220865,0.9951035961474066,-0.04354054566695103,-0.0872272435321815
-5078.234488248825,2408.0,-3556.0,16160.0,206.0,621.0,-1391.0,-0.042031630999066226,0.995899310126702,0.07417917245629048,-0.030254858426662215
-5078.250130653381,2492.0,-3856.0,15960.0,309.0,253.0,-1271.0,-0.07342259799108747,0.9805919017863847,0.18170801726341843,-0.0055534419414778715
-5078.265727996826,2404.0,-3652.0,15748.0,583.0,-614.0,-907.0,-0.11339743842071993,0.9565722906972017,0.2614715482617917,-0.06118090453326743
-5078.281367778778,2764.0,-3300.0,15744.0,889.0,-816.0,-789.0,-0.1719028989162138,0.9181542193910545,0.3280977213423158,-0.14069153495710152
-5078.296960353851,2984.0,-3012.0,15864.0,954.0,-262.0,-843.0,-0.24965988074112233,0.8708727637145899,0.3854054309974221,-0.17525189621265752
-5078.312563419342,3128.0,-1840.0,16376.0,1218.0,142.0,-678.0,-0.35481332138075783,0.8175721541561267,0.4121439371847347,-0.18926345331608865
-5078.328165531158,3204.0,-1324.0,16592.0,1163.0,-253.0,-278.0,-0.430926773732432,0.7630013277385114,0.4182222596033476,-0.2392095966346168
-5078.343814373016,3524.0,-1492.0,16904.0,865.0,-485.0,90.0,-0.46727120991418536,0.7208512880057101,0.4108446900482913,-0.3053484527960893
-5078.359449863434,3320.0,-1944.0,16544.0,545.0,-1133.0,345.0,-0.4489238556177233,0.6763643282811915,0.41810321702760955,-0.4076620747594923
-5078.375082492828,3072.0,-2768.0,15624.0,444.0,-1656.0,469.0,-0.39338772319179044,0.6097781736277817,0.4342831012867171,-0.5336804906926399
-5078.390672206879,2828.0,-3380.0,15064.0,759.0,-1669.0,657.0,-0.3351796154641789,0.5232642171494176,0.4152662718207295,-0.6643817486328205
-5078.40625333786,3508.0,-3076.0,15048.0,1261.0,-1239.0,777.0,-0.29866101757367486,0.4363982225417012,0.338073116534797,-0.778501609388671
-5078.421856164932,3392.0,-2572.0,15612.0,1642.0,-960.0,1154.0,-0.24985411870235882,0.35559909274528817,0.20368761712295172,-0.8772876148886234
-5078.437450408936,3440.0,-2264.0,15892.0,1911.0,-716.0,1135.0,-0.2053559440411979,0.2734234789327641,0.03693348014420982,-0.9389911902992968
-5078.453082561493,3328.0,-1524.0,16516.0,1963.0,-653.0,971.0,-0.16725397369099318,0.18395114248072802,-0.1327699318261034,-0.9594583006402619
-5078.468730211258,3216.0,-920.0,16712.0,1679.0,-659.0,713.0,-0.14015407905436292,0.09440691948179407,-0.2711832646565742,-0.9475778620507045
-5078.484328985214,3192.0,-808.0,16940.0,1314.0,-753.0,444.0,-0.13084339398244366,0.005353795616866069,-0.37058036584421294,-0.9195224497392205
-5078.499975681305,3048.0,-1092.0,16852.0,1069.0,-723.0,268.0,-0.1323411127658256,-0.07312593117453435,-0.44508493392276516,-0.8826311968521894
-5078.515577077866,2956.0,-1276.0,16556.0,1122.0,-631.0,189.0,-0.13426631559787075,-0.14114815152970694,-0.5194954504531573,-0.8319700912737134
-5078.53130364418,2892.0,-1412.0,16448.0,1308.0,-897.0,70.0,-0.15228740973502336,-0.22265926261017258,-0.5972459665867081,-0.755333471392603
-5078.546906709671,2568.0,-2020.0,15980.0,1477.0,-1149.0,-53.0,-0.1845359546060079,-0.3111457674668327,-0.6713706816827387,-0.6468355282619992
-5078.562499046326,2896.0,-2292.0,15428.0,1622.0,-1218.0,-137.0,-0.21623101502231223,-0.3918833507805061,-0.7354931005283798,-0.5086467208177147
-5078.57809305191,2880.0,-2044.0,15552.0,1742.0,-1256.0,-15.0,-0.23388882811493444,-0.4713517498968154,-0.7760860973581618,-0.3475829590753987
-5078.59366941452,3096.0,-1652.0,15636.0,1576.0,-1389.0,187.0,-0.25323569205388774,-0.54911243671314,-0.7748097010235999,-0.1844373696317152
-5078.609287977219,3284.0,-1280.0,16268.0,1048.0,-1706.0,434.0,-0.3065626661191721,-0.619274299440621,-0.7217044687595094,-0.04075945984415557
-5078.624875307083,3520.0,-944.0,16464.0,432.0,-2034.0,718.0,-0.4014962669805013,-0.671039317603013,-0.6186771274866308,0.07579969496307841
-5078.640516996384,3844.0,-588.0,16252.0,-85.0,-2284.0,1043.0,-0.5243154495505603,-0.6927915509699419,-0.4669706311496532,0.16453451282618675
-5078.656125307083,3664.0,-512.0,15816.0,-418.0,-2430.0,1176.0,-0.6474495217311116,-0.667919782545717,-0.28266957377058244,0.2340730504748335
-5078.671751499176,3620.0,-800.0,15724.0,-567.0,-2155.0,1415.0,-0.7431963431526348,-0.6106637897736986,-0.08761459587139758,0.258983810254747
-5078.687351226807,3544.0,-1364.0,15476.0,-667.0,-1690.0,1732.0,-0.8116590884554286,-0.5297259921022761,0.09700554728243876,0.22625167671289534
-5078.702943086624,3604.0,-1896.0,15588.0,-527.0,-940.0,2031.0,-0.8512950126812717,-0.4475263724245813,0.24227964784506847,0.12774004700389818
-5078.718516111374,3296.0,-2256.0,15976.0,-447.0,-753.0,2145.0,-0.8594461953937793,-0.3532173040028321,0.36951305856810224,0.007062076449237065
-5078.734146118164,3248.0,-2620.0,16476.0,-368.0,-471.0,2359.0,-0.8384447603533375,-0.2436325885645003,0.4668379219582516,-0.14041331933651005
-5078.749769449234,3284.0,-2524.0,16924.0,-141.0,-672.0,2591.0,-0.7618326432138055,-0.13227518847278155,0.5576506773967863,-0.3018940546735921
-5078.765367507935,3356.0,-2360.0,17056.0,118.0,-1049.0,2811.0,-0.6146782525088128,-0.029868320471360923,0.6351543100894572,-0.4667521094753809
-5078.780955553055,3340.0,-2024.0,16904.0,412.0,-1447.0,2965.0,-0.39632039816867914,0.05134532497298372,0.6757237545195397,-0.61942812914563
-5078.796517133713,3568.0,-1664.0,16664.0,552.0,-1640.0,2953.0,-0.13650259131524514,0.11280222923807301,0.6604181992351293,-0.7297194678519776
-5078.8121066093445,3336.0,-1164.0,16280.0,398.0,-1343.0,2720.0,0.10648612673264267,0.17320316290171037,0.6030375068021571,-0.7713670556642679
-5078.827721834183,3132.0,-868.0,16244.0,132.0,-968.0,2443.0,0.31181575483370955,0.2317538836550635,0.5341872119328726,-0.7508029668665832
-5078.843311071396,3204.0,-484.0,15968.0,-64.0,-846.0,2130.0,0.4826069015430258,0.26848130415370175,0.4629566177307886,-0.6933105638905526
-5078.858913898468,3176.0,-632.0,15852.0,-175.0,-760.0,1805.0,0.6176699905445938,0.28380395332932185,0.3933419719879532,-0.6190486183878594
-5078.874520301819,3152.0,-824.0,16184.0,-172.0,-848.0,1354.0,0.717247203859544,0.27240391917752976,0.3200935894240116,-0.5557811146324061
-5078.890149831772,3312.0,-1092.0,16176.0,-283.0,-997.0,737.0,0.7828362299572126,0.2253731093063384,0.2521723265732989,-0.5222868142874956
-5078.905747652054,3216.0,-1028.0,16372.0,-450.0,-959.0,30.0,0.8107561387428043,0.15074644229662654,0.20550859712479672,-0.5269878652621582
-5078.921584606171,3828.0,-456.0,16456.0,-271.0,-687.0,-675.0,0.7926277078812088,0.08735876892788252,0.17733967705773243,-0.5767671983837542
-5078.937192201614,3632.0,12.0,16584.0,-582.0,-556.0,-1536.0,0.7201851827436468,-0.004759699519546871,0.17760006535649026,-0.670648092968551
-5078.952852725983,3556.0,-276.0,16436.0,-516.0,-490.0,-2071.0,0.59558674159622,-0.09632019425013816,0.17272182083245152,-0.7785666484140812
-5078.968509435654,3588.0,-736.0,16032.0,-881.0,-332.0,-3022.0,0.37384283191962103,-0.20264966375431828,0.18277242435889324,-0.8864360618209033
-5078.98411488533,3624.0,-972.0,15988.0,-848.0,-126.0,-3545.0,0.08250413955193113,-0.28253600084397085,0.17276705972182327,-0.9399563916794049
-5078.999714374542,3396.0,-1000.0,15808.0,-762.0,103.0,-4047.0,-0.2539539635073414,-0.32032809652343114,0.12803014274528957,-0.9036069817930847
-5079.015304327011,3472.0,-1008.0,16040.0,-667.0,165.0,-4499.0,-0.5848452730233129,-0.318365082860112,0.047505163665393514,-0.7445421009337785
-5079.03089594841,3476.0,-736.0,16284.0,-741.0,303.0,-4979.0,-0.8514573695789827,-0.2574027131622734,-0.053198822773019246,-0.4537995992747296
-5079.046461820602,3768.0,-1184.0,16216.0,-877.0,487.0,-5301.0,-0.9761097885605137,-0.13398923665028603,-0.15703682609637115,-0.06779380788686377
-5079.06209230423,3712.0,-1644.0,15888.0,-927.0,476.0,-5561.0,-0.9086499463080887,0.021678550480945052,-0.23033366469692595,0.3476085707094067
-5079.077696800232,3672.0,-2252.0,15888.0,-911.0,456.0,-5416.0,-0.6610032930115873,0.1703675009148549,-0.2555779988410872,0.6846381874890194
-5079.093370914459,3596.0,-2932.0,16192.0,-696.0,537.0,-4974.0,-0.3124539372884994,0.26476923773378575,-0.23233572123617546,0.8822074021795842
-5079.108970880508,3888.0,-3312.0,16096.0,-588.0,582.0,-4440.0,0.05099567084301013,0.3031762274917442,-0.17738194691377304,0.9348899729637842
-5079.124566555023,3976.0,-3820.0,16408.0,-427.0,590.0,-3844.0,0.3644220730111169,0.2956419970530136,-0.10201923498625122,0.8771456195943785
-5079.140158176422,4076.0,-3456.0,15956.0,-7.0,545.0,-3172.0,0.5894751962106525,0.2711780970189935,-0.0032957961241247345,0.760901156838047
-5079.155814409256,3964.0,-3292.0,15892.0,-229.0,514.0,-2586.0,0.7471204035820578,0.2199766420349275,0.06721735508539955,0.6236210441331688
-5079.171447992325,3936.0,-3136.0,16028.0,-190.0,263.0,-1861.0,0.8392158821996927,0.1797278783948312,0.10807996621936194,0.5017303196872858
-5079.187080144882,3768.0,-2928.0,15908.0,-202.0,474.0,-1193.0,0.8845257132437596,0.13189885973917465,0.151456274253233,0.42104388179791097
-5079.202677488327,3620.0,-2588.0,15828.0,-140.0,422.0,-1019.0,0.9137664847522976,0.09154458980074473,0.18946687863033282,0.3474948939534525
-5079.218250751495,3936.0,-2332.0,16112.0,-102.0,360.0,-283.0,0.9165050704933465,0.06765916756146606,0.21688553011326986,0.32924361745121383
-5079.233829259872,3920.0,-2380.0,15936.0,-70.0,340.0,26.0,0.9093837742195696,0.05268306078614496,0.24152789937683086,0.33452940097245526
-5079.249433517456,3756.0,-2204.0,16100.0,76.0,212.0,198.0,0.8985487177280558,0.056623764634711325,0.2592986566812573,0.3495256182186862
-5079.265028953552,3920.0,-2152.0,16236.0,92.0,255.0,316.0,0.882176178498338,0.06311951455883107,0.28008752794210573,0.37327214423689087
-5079.280689001083,3944.0,-2108.0,16104.0,122.0,122.0,324.0,0.867596408028239,0.07637355828859133,0.2912586196227002,0.39574230108280795
-5079.29625415802,3800.0,-2000.0,15936.0,178.0,3.0,336.0,0.8543322719830044,0.09818760379742551,0.294974260804657,0.4164921955710859
-5079.311906337738,3812.0,-1896.0,15944.0,316.0,40.0,306.0,0.8389235038927676,0.12802477808649154,0.30634258894107286,0.43124381620269864
-5079.327497243881,3612.0,-1900.0,16044.0,362.0,102.0,445.0,0.8144274775358018,0.16231360894722308,0.321809182489745,0.4547538083957966
-5079.34312081337,3524.0,-2228.0,15956.0,254.0,54.0,483.0,0.7893148652864196,0.19149383529095274,0.32828682698712086,0.4822239248628906
-5079.358784914017,3600.0,-2088.0,15724.0,506.0,43.0,611.0,0.752179679349398,0.24139143414893743,0.34130124043506943,0.5093813588764698
-5079.374388217926,3712.0,-1980.0,16036.0,281.0,160.0,823.0,0.7028831055039901,0.2763346168860395,0.34573419287649937,0.5568324589888308
-5079.390018939972,3584.0,-2184.0,16168.0,268.0,84.0,901.0,0.6479640805758566,0.31472537098770276,0.34084293412878786,0.6040832603165035
-5079.405622005463,3540.0,-2380.0,16060.0,265.0,-14.0,837.0,0.5952802964704542,0.3542163386661916,0.3298910929857875,0.6413610689967147
-5079.421194791794,3808.0,-2180.0,16172.0,244.0,46.0,789.0,0.5408832806518373,0.38593314530626877,0.3205489369889497,0.6750920404363915
-5079.436774015427,3456.0,-1928.0,16104.0,252.0,-47.0,753.0,0.48820624826719056,0.4205487372161893,0.3069234932455254,0.7004222926725752
-5079.4523775577545,3568.0,-1812.0,15872.0,263.0,-97.0,751.0,0.4342107471197315,0.4565794654849898,0.2904502813907906,0.7201630737709177
-5079.467990636826,3568.0,-2012.0,16076.0,262.0,-122.0,691.0,0.3826376165576418,0.49053643558612003,0.27404434286631535,0.733390862978617
-5079.4835777282715,3656.0,-2224.0,16012.0,340.0,-179.0,571.0,0.33522640689234234,0.5259485759113481,0.26478883454414104,0.7354510348892235
-5079.499213218689,3608.0,-2148.0,15732.0,338.0,-161.0,525.0,0.28928680727585393,0.5573153370849835,0.2571633714676045,0.7345609291007855
-5079.514809846878,3800.0,-2260.0,15796.0,348.0,-250.0,578.0,0.24044590546761319,0.5938301123865303,0.24446990947911962,0.7278640171942362
-5079.530437469482,3344.0,-2256.0,15940.0,414.0,170.0,573.0,0.17860084642798008,0.6026262386917917,0.24406933907735284,0.7384940838068624
-5079.546020746231,3384.0,-2088.0,16044.0,535.0,150.0,677.0,0.10331930356301945,0.6138227804948574,0.24449398729710714,0.7434846372537744
-5079.561635255814,3420.0,-1868.0,16300.0,468.0,34.0,723.0,0.030501448359979234,0.6293820383532994,0.23569760270066875,0.7398611704416899
-5079.577244520187,3532.0,-2284.0,16248.0,327.0,-154.0,661.0,-0.026946360333940482,0.6522855672592316,0.21954982411205318,0.7249795218779786
-5079.59286904335,3540.0,-1968.0,16076.0,190.0,-314.0,557.0,-0.06690777206909063,0.6811290294124275,0.20020138333780874,0.7010748900353394
-5079.6084978580475,3688.0,-2292.0,16000.0,106.0,-255.0,531.0,-0.1011431687117486,0.7043362554093691,0.1763155271766405,0.6801421422138744
-5079.624098300934,3712.0,-2068.0,16060.0,89.0,-36.0,447.0,-0.13252702568375657,0.7119024700312677,0.15427095195945967,0.6721844493948956
-5079.63972902298,3800.0,-1776.0,16192.0,188.0,13.0,488.0,-0.1728727307910153,0.7146908836780489,0.13465148074627264,0.6642295826513471
-5079.655344486237,3692.0,-1820.0,16184.0,205.0,-165.0,411.0,-0.20740392028925383,0.7252364492631779,0.12324562274631544,0.6448458908783242
-5079.670930624008,3764.0,-2024.0,16072.0,199.0,-125.0,236.0,-0.23188782829894128,0.7308005688625125,0.12169214650648234,0.6303567125966644
-5079.6865248680115,3732.0,-2108.0,15980.0,199.0,-71.0,153.0,-0.2522294249354869,0.7320162653991401,0.12426170472863234,0.6205574374107067
-5079.7021543979645,3756.0,-2128.0,16080.0,265.0,-50.0,126.0,-0.2754028365744641,0.7299120570162635,0.13159725460277338,0.6116075777899082
-5079.7177839279175,3844.0,-2080.0,16000.0,235.0,-242.0,79.0,-0.29173391868660703,0.7376556950019966,0.1448372526437591,0.5914199578687594
-5079.733362436295,3780.0,-2044.0,16052.0,314.0,-28.0,54.0,-0.3143191842501517,0.7314073211553347,0.15819750880364455,0.584140675848735
-5079.748962640762,3684.0,-1920.0,15828.0,266.0,-87.0,38.0,-0.33199546997846263,0.7287529325195219,0.17164404588080848,0.5737913320813098
-5079.7645897865295,3592.0,-2056.0,15896.0,233.0,-64.0,98.0,-0.35073763178104034,0.7263914874950248,0.17886053729978543,0.5633359821138931
-5079.780193567276,3660.0,-2172.0,15904.0,154.0,57.0,142.0,-0.36837303662084403,0.7208653071105543,0.17562337205673748,0.5601883130542491
-5079.7957808971405,3768.0,-1980.0,16076.0,200.0,54.0,183.0,-0.3906855082315178,0.7142921731742253,0.17207353364338082,0.5545648961297526
-5079.811412096024,3836.0,-1928.0,16292.0,208.0,99.0,142.0,-0.4119671061605752,0.7042401530017828,0.16983786717273874,0.5527060785045901
-5079.827000617981,3968.0,-1808.0,16160.0,272.0,100.0,33.0,-0.4316904183200941,0.689792549388452,0.1772521655311538,0.5535442993594268
-5079.858232021332,3736.0,-1868.0,16020.0,131.0,43.0,-289.0,-0.4261838317925669,0.6779323329889719,0.19925565936799478,0.5648648295092907
-5079.873825550079,3696.0,-1900.0,15988.0,83.0,84.0,-277.0,-0.41882479958410085,0.6655447704044062,0.2165047570032039,0.5785858933949802
-5079.889403820038,3624.0,-1968.0,15948.0,76.0,159.0,-140.0,-0.4191641180825271,0.651852976974747,0.22257860796097015,0.5914794179000771
-5079.9049689769745,3488.0,-2076.0,15920.0,64.0,206.0,-91.0,-0.4220928001684023,0.6368602688775336,0.2234298343082289,0.6052485234283768
-5079.92077088356,3572.0,-2100.0,15932.0,132.0,204.0,52.0,-0.4361255141131025,0.6219681163340428,0.21989406184623814,0.6120431355453858
-5079.936367034912,3520.0,-2104.0,15964.0,100.0,302.0,91.0,-0.45209628675705726,0.6033970805577284,0.20865832598290887,0.6228825039065562
-5079.9520473480225,3484.0,-1908.0,16184.0,147.0,168.0,46.0,-0.4653796123335119,0.5890508475327328,0.20750358736325095,0.6272026599725651
-5079.9676678180695,3568.0,-1848.0,16184.0,125.0,37.0,-53.0,-0.4696133197672418,0.5808077282586204,0.21549783354531207,0.6290360851569072
-5079.985092878342,3612.0,-1588.0,16076.0,47.0,-107.0,-10.0,-0.46948328663768935,0.5844017781152534,0.22290428878601717,0.6231963441359418
-5080.000725507736,3560.0,-1544.0,16052.0,-6.0,-154.0,-508.0,-0.4381502386416509,0.5823834541729349,0.2544747455704512,0.6356858379346827
-5080.016344308853,3500.0,-1876.0,15832.0,-44.0,-140.0,-240.0,-0.41943429040725294,0.5862036743860813,0.26944120566567575,0.6386247449451425
-5080.031970024109,3504.0,-1984.0,15860.0,-244.0,-70.0,-260.0,-0.3906856006744986,0.592508333658213,0.27150109160830954,0.6500659914398464
-5080.0475742816925,3568.0,-2112.0,15720.0,69.0,22.0,-263.0,-0.37981501065783746,0.5823928120476428,0.28811705757315803,0.6584434154045519
-5080.063221693039,3700.0,-2124.0,16024.0,156.0,94.0,-210.0,-0.37799818898855087,0.5662554341284795,0.3044777701807004,0.6661572186106908
-5080.078819274902,3716.0,-1992.0,16320.0,206.0,91.0,-234.0,-0.37690975601971755,0.5476138933949376,0.32480933413833984,0.6727235361087072
-5080.094442844391,3872.0,-1888.0,16368.0,166.0,55.0,-246.0,-0.37189885242079623,0.5316521325934249,0.34430036884653004,0.6785974576205701
-5080.110038757324,3884.0,-1920.0,16364.0,99.0,74.0,-285.0,-0.36177207915095777,0.515192682737902,0.36076238655828896,0.6881482128472648
-5080.125627040863,4084.0,-1872.0,16176.0,-21.0,235.0,-413.0,-0.34319292487790864,0.488208059959236,0.3702327366865464,0.711898326441477
-5080.141227245331,3712.0,-2000.0,15888.0,-71.0,17.0,-464.0,-0.31168989043156226,0.4737846186986433,0.38465148002588095,0.728299928739006
-5080.156875133514,3812.0,-2032.0,15836.0,94.0,242.0,-339.0,-0.30200750002091764,0.44405536712696686,0.3976693900205659,0.7439525234163272
-5080.172507047653,3808.0,-1992.0,15832.0,271.0,506.0,-178.0,-0.3181437178524559,0.39723370181383993,0.40813819073025054,0.7579005067960621
-5080.188088655472,3748.0,-2096.0,16184.0,301.0,289.0,-75.0,-0.3337537506428007,0.3667468318998709,0.4221938276162985,0.7588527967570327
-5080.203702449799,3808.0,-2064.0,16236.0,192.0,93.0,-56.0,-0.33962550290362964,0.35278664137707233,0.43376349026424654,0.7563367887106381
-5080.219291687012,3796.0,-1940.0,16216.0,73.0,-4.0,-140.0,-0.33251852330940584,0.345480442775932,0.4428176053416779,0.757619471578536
-5080.234870195389,3692.0,-1944.0,16036.0,18.0,-63.0,-141.0,-0.32134233269086776,0.3435741992586785,0.44989393406887135,0.7591385399995073
-5080.250439167023,3704.0,-1944.0,16044.0,98.0,-5.0,-116.0,-0.3164397834648052,0.33650586950635974,0.45981410909415854,0.7584198364405175
-5080.266064167023,3696.0,-1960.0,15868.0,178.0,84.0,-157.0,-0.3146392913893737,0.31958827156014336,0.4736223609636352,0.7579889921301133
-5080.281620979309,3580.0,-1980.0,16020.0,207.0,125.0,-26.0,-0.32385687824732534,0.3044335413008643,0.4843475084723775,0.7535545317888496
-5080.29719042778,3664.0,-2016.0,16164.0,218.0,118.0,-53.0,-0.3311417317777772,0.2881483201752355,0.4964826303998697,0.7488796276883428
-5080.312762737274,3536.0,-2064.0,16104.0,157.0,114.0,-11.0,-0.3393339125954116,0.2755978431773889,0.5034984402612162,0.7452433463327153
-5080.3283677101135,3524.0,-2032.0,15988.0,207.0,-23.0,93.0,-0.34935575501967053,0.27495622064238295,0.5151497808534121,0.7327825983546379
-5080.344003915787,3524.0,-2124.0,16156.0,506.0,-67.0,175.0,-0.3693467615405622,0.2713437760071348,0.5446043088989317,0.702397089750809
-5080.359616518021,3524.0,-1816.0,15912.0,284.0,-177.0,240.0,-0.38220381583609575,0.28423284245340763,0.5615337652717743,0.6766178869132029
-5080.375283718109,3320.0,-2028.0,15992.0,216.0,-131.0,266.0,-0.39672661349246885,0.2976167650727385,0.5716346484279009,0.6536559370273826
-5080.390872001648,3424.0,-2032.0,15848.0,28.0,18.0,364.0,-0.4189867420749239,0.3135892528653969,0.5627351110267981,0.6398758358231859
-5080.406460523605,3544.0,-1924.0,16168.0,342.0,202.0,567.0,-0.4691653458692657,0.3170317567161059,0.5577808995507907,0.6068403509698272
-5080.422055006027,3368.0,-1972.0,16484.0,296.0,186.0,553.0,-0.5149519330409763,0.32141417680207623,0.5495133763986416,0.5740666187534076
-5080.437645673752,3436.0,-2012.0,16344.0,265.0,54.0,523.0,-0.5505490928830286,0.3313990806079149,0.5448411904703605,0.5387192430800513
-5080.453232526779,3396.0,-1860.0,16236.0,206.0,-70.0,408.0,-0.5719944707117198,0.34386390178402476,0.545517041906483,0.5069428957137939
-5080.46888923645,3300.0,-1848.0,16004.0,228.0,-190.0,319.0,-0.5835832007199205,0.35576750187892514,0.5549930768208415,0.47417593478081266
-5080.4845106601715,3300.0,-1908.0,15984.0,345.0,-135.0,290.0,-0.5993552052847595,0.35747527045671623,0.5665483840886585,0.4381868293279608
-5080.50009560585,3264.0,-1948.0,16048.0,410.0,-27.0,396.0,-0.6252862350006821,0.356147611862274,0.5704636066321235,0.39591321825842196
-5080.515723466873,3148.0,-1944.0,16176.0,412.0,80.0,524.0,-0.6591588080900913,0.3563233865780326,0.5629641547863468,0.34873294986351117
-5080.5313086509705,3140.0,-1760.0,16172.0,367.0,96.0,558.0,-0.6911841412262225,0.35902435559344353,0.5501870081129789,0.30109840768720547
-5080.546899557114,3148.0,-1880.0,16148.0,333.0,1.0,476.0,-0.7133705850637138,0.3612401295713973,0.5431461824322058,0.2561253631767378
-5080.562529563904,3308.0,-1948.0,16308.0,392.0,83.0,525.0,-0.7402841529255194,0.35920148986740874,0.5291897224158171,0.20715187736018875
-5080.57815861702,3448.0,-1868.0,16376.0,423.0,85.0,502.0,-0.765384809714378,0.35285616515800294,0.5146265733043017,0.15760110982333092
-5080.59378528595,3336.0,-1836.0,16376.0,430.0,11.0,420.0,-0.7839346350684672,0.34229232910300605,0.5060507908164502,0.11043118441524666
-5080.609375238419,3380.0,-1884.0,16328.0,442.0,50.0,453.0,-0.8025970104730644,0.33098296854450876,0.4924712167191931,0.061322214704639284
-5080.624968290329,3380.0,-1664.0,16332.0,377.0,69.0,492.0,-0.817989743882949,0.32477953297349277,0.4746066318389456,0.012632453376874178
-5080.640565156937,3308.0,-1612.0,16088.0,259.0,46.0,456.0,-0.8269811612164674,0.32468588076549115,0.4580631243264073,-0.029315728831651282
-5080.65614938736,3080.0,-1676.0,16092.0,4.0,25.0,457.0,-0.8263802559080367,0.34235728595721004,0.4428085949613706,-0.06170664166617757
-5080.671764373779,3440.0,-1784.0,16016.0,288.0,277.0,443.0,-0.84227584971391,0.33962130794675227,0.4073557426600646,-0.0963849526591942
-5080.6873433589935,3464.0,-1844.0,16180.0,348.0,355.0,444.0,-0.8601317955671881,0.33211628180768116,0.3644180043972353,-0.13065828593603396
-5080.702924013138,3580.0,-1508.0,16536.0,485.0,764.0,466.0,-0.8897722530823177,0.31783034020362033,0.28675892831191324,-0.15829886141179317
-5080.718498945236,3296.0,-1424.0,16644.0,479.0,382.0,472.0,-0.9041375548537017,0.29685331501100953,0.236720879769269,-0.19589950574569384
-5080.7340841293335,3244.0,-1392.0,16632.0,273.0,511.0,384.0,-0.9136154226720478,0.29122531983956607,0.18133855089203404,-0.21819945577497463
-5080.749676704407,3304.0,-1456.0,16188.0,141.0,189.0,404.0,-0.9118285609843195,0.28948620423865135,0.1531201872392111,-0.2476300086592733
-5080.765346050262,3260.0,-1488.0,15920.0,93.0,148.0,463.0,-0.9053957334959716,0.29094101163041763,0.1274748231987129,-0.2817127312870642
-5080.780922412872,3260.0,-1708.0,15764.0,113.0,260.0,465.0,-0.8987994638579508,0.2929814161812008,0.09222654162014758,-0.3127549816740016
-5080.796504020691,3244.0,-1780.0,15788.0,254.0,484.0,498.0,-0.8938249102362971,0.2894054785426385,0.03454221312700965,-0.34077607654128295
-5080.812091827393,3108.0,-1624.0,16060.0,470.0,622.0,660.0,-0.8845188793644748,0.27188663287441084,-0.044383026252655014,-0.3764759725303661
-5080.8276953697205,3484.0,-900.0,16412.0,644.0,311.0,790.0,-0.8689660368511581,0.22809980810210215,-0.10770163317835683,-0.42575681151766726
-5080.843289375305,3376.0,-1004.0,16384.0,274.0,83.0,769.0,-0.8429802419632769,0.20244417631228898,-0.13894286229199537,-0.4786392672513212
-5080.858895301819,3476.0,-1156.0,16048.0,-33.0,-126.0,692.0,-0.8135507920863536,0.19066889304329226,-0.14004121728473878,-0.5311957637093133
-5080.874484777451,3356.0,-1128.0,15908.0,-329.0,-69.0,634.0,-0.7780676903725957,0.20249673789684566,-0.12996646007910737,-0.5802710225350707
-5080.890066146851,3428.0,-1036.0,15920.0,-358.0,142.0,560.0,-0.7405360072941133,0.22704720528032846,-0.13094346438326782,-0.6187970568858526
-5080.905633687973,3600.0,-1048.0,15912.0,-348.0,310.0,585.0,-0.6970922711400723,0.25884020820270753,-0.14328825764140782,-0.6530946235856214
-5080.921294927597,3808.0,-1336.0,16044.0,-172.0,629.0,701.0,-0.6432205977659436,0.2951674314304128,-0.1867693405200753,-0.681366761351103
-5080.936908245087,3960.0,-1084.0,16256.0,74.0,590.0,825.0,-0.5842266636891326,0.31124597055258435,-0.2444344998855104,-0.7085597550772731
-5080.952533960342,3788.0,-752.0,16436.0,230.0,56.0,649.0,-0.5482126174067814,0.28844197566661717,-0.2784925366888168,-0.7339659800005532
-5080.968176841736,3976.0,-1240.0,16052.0,-268.0,-20.0,292.0,-0.5229920740873362,0.292559196143642,-0.26739516338554364,-0.7545781826899255
-5080.983796596527,4192.0,-1280.0,15752.0,-730.0,-372.0,174.0,-0.5002910249626819,0.29636961007738327,-0.20606524046611274,-0.7870267220596846
-5080.999444961548,4024.0,-1096.0,15776.0,-730.0,-349.0,125.0,-0.47792892381798485,0.3010671407661854,-0.1433947902870242,-0.812637960378173
-5081.015065670013,4120.0,-1136.0,16048.0,-707.0,-177.0,109.0,-0.452949622340994,0.31577450336015656,-0.08841254400597628,-0.8290393987689542
-5081.030675172806,4036.0,-1180.0,16348.0,-681.0,-334.0,187.0,-0.42229671864559365,0.3161196781239693,-0.030906296371760945,-0.848986826381036
-5081.046272754669,3496.0,-1528.0,16372.0,-719.0,-649.0,249.0,-0.38434650457429903,0.29249575807309375,0.039354613023951025,-0.8747429395911118
-5081.061880111694,3476.0,-1800.0,15720.0,-775.0,-770.0,342.0,-0.3341922964898752,0.25932061454178673,0.11509672856476122,-0.8987886686614286
-5081.077522277832,3244.0,-1668.0,15560.0,-662.0,-1248.0,339.0,-0.27790085904509987,0.1823955223119958,0.19418145025718273,-0.9229282476761382
-5081.093134880066,3000.0,-1524.0,15408.0,-530.0,-1531.0,429.0,-0.20680476067436956,0.07810353003803296,0.26424938384777347,-0.9387778718600512
-5081.108723640442,2568.0,-1756.0,15692.0,-635.0,-1491.0,316.0,-0.140786353299816,-0.025224020863196153,0.3373311678163785,-0.9304572181006877
-5081.1243052482605,2056.0,-1864.0,15476.0,-944.0,-1576.0,83.0,-0.08862036798638176,-0.13744621261794798,0.4278257777666208,-0.8889432337856711
-5081.13994717598,2128.0,-1604.0,15560.0,-1001.0,-1730.0,-129.0,-0.045371158041150314,-0.26470837734631386,0.5094118523809134,-0.8175392942449513
-5081.155542850494,2452.0,-1288.0,15560.0,-900.0,-1162.0,-283.0,-0.03441899913630903,-0.35359457793331783,0.5667458133810229,-0.7433608746562442
-5081.171168804169,2732.0,-1348.0,16332.0,-559.0,-160.0,-662.0,-0.08647475279112182,-0.3938308227454092,0.5812411191201303,-0.7068084334735734
-5081.186811685562,2896.0,-1280.0,16740.0,-459.0,449.0,-1272.0,-0.20198188244017065,-0.42387919777176436,0.5580434185759466,-0.6841909732277688
-5081.202443599701,3684.0,-1408.0,17608.0,-512.0,721.0,-1563.0,-0.345217808766721,-0.4424585656973185,0.5117293221309724,-0.6505291561665403
-5081.218039989471,4220.0,-1840.0,17572.0,-887.0,443.0,-2381.0,-0.5214706971636992,-0.4847143240098531,0.4455405032412351,-0.5427835628229946
-5081.233630657196,4844.0,-2648.0,16620.0,-1203.0,-109.0,-2858.0,-0.6791459824552555,-0.527168066617684,0.3730641726617635,-0.3488232892592652
-5081.249231338501,5316.0,-3468.0,15576.0,-977.0,-110.0,-2750.0,-0.7794148440572508,-0.5446038936697967,0.2739915360315725,-0.14438745806325337
-5081.264873504639,5808.0,-3968.0,14760.0,-491.0,-82.0,-2252.0,-0.8129668555317906,-0.5548170090666554,0.175187852402386,0.023920590037107028
-5081.280483961105,5712.0,-4784.0,14780.0,-312.0,-18.0,-2012.0,-0.8109971919684502,-0.5545695967609104,0.07718158211553629,0.16964409907177092
-5081.296094179153,5652.0,-5728.0,15524.0,-262.0,-223.0,-958.0,-0.8049217325000122,-0.5369094508622696,0.04257037276387164,0.24903214548869013
-5081.31173491478,5072.0,-5760.0,16380.0,-883.0,-164.0,-370.0,-0.83474731715828,-0.47082560899789605,0.017514708318221973,0.28497964383678676
-5081.327320814133,5036.0,-4540.0,16124.0,-1201.0,-410.0,-247.0,-0.8718811291576797,-0.3709449137289526,0.007347942811133162,0.31963913298248353
-5081.342891931534,4884.0,-3284.0,15384.0,-1473.0,-989.0,-287.0,-0.899985531173384,-0.22840638716366576,0.031886416291852765,0.36991867003094925
-5081.358489513397,4536.0,-2920.0,14840.0,-1255.0,-1384.0,-295.0,-0.8994827267408001,-0.08453106881417909,0.09299610447718486,0.41849378400656856
-5081.374078273773,4672.0,-2840.0,14888.0,-647.0,-1429.0,-129.0,-0.8796945696921215,0.017558559404307974,0.17891773523490556,0.4402472090362993
-5081.389662981033,4700.0,-2644.0,14772.0,-268.0,-1261.0,-385.0,-0.839084244197696,0.08029252294611373,0.26403953472347735,0.46880045435253004
-5081.405337810516,4832.0,-2904.0,14428.0,-48.0,-1333.0,-578.0,-0.7782424784142955,0.1241640723552511,0.36060099509664834,0.49888761285788785
-5081.420936346054,4640.0,-3504.0,14268.0,155.0,-1360.0,-462.0,-0.7114903042817412,0.15712769310282812,0.46085754772561155,0.5066584211059698
-5081.436537265778,4368.0,-3672.0,14444.0,370.0,-1501.0,-151.0,-0.6437476394971345,0.19271756008754773,0.5671330108333841,0.4762447550355073
-5081.452132225037,4692.0,-4352.0,14212.0,625.0,-1682.0,31.0,-0.565518733136204,0.22631444760128847,0.6786920396295848,0.41030165564177373
-5081.4677975177765,5360.0,-4184.0,14016.0,684.0,-2095.0,256.0,-0.4557421820778982,0.27760527755594355,0.7868388200019841,0.310030715713538
-5081.483423471451,4888.0,-4056.0,14688.0,900.0,-2506.0,698.0,-0.31544375055733603,0.34767568566128865,0.8691896386207262,0.15532620496440794
-5081.499027013779,5024.0,-3968.0,15324.0,936.0,-2434.0,1095.0,-0.16902495432152523,0.4252231018619605,0.8889599926415814,-0.019131386310942293
-5081.514646530151,5148.0,-3468.0,15300.0,879.0,-2741.0,1389.0,0.012824450985830549,0.4965023015551914,0.84413534706633,-0.2018824257842092
-5081.530220508575,4996.0,-3492.0,14708.0,885.0,-2947.0,1355.0,0.2067547993120813,0.523321827384373,0.7354850331370446,-0.3774234809546191
-5081.545808553696,4896.0,-3300.0,14420.0,1081.0,-3113.0,1336.0,0.38321306587245224,0.5023663565876244,0.5564404693355227,-0.5395829815692622
-5081.561424970627,5180.0,-2960.0,14228.0,1426.0,-3266.0,1268.0,0.5118753847615533,0.4346641089004735,0.30800719130412363,-0.6739304660081145
-5081.57701086998,5496.0,-2492.0,14132.0,1575.0,-3462.0,1224.0,0.5827924577521425,0.3154889953691448,0.013363249557541996,-0.7487596867817121
-5081.5925941467285,5820.0,-2128.0,14268.0,1351.0,-3559.0,1156.0,0.5907161340084175,0.1442548891663719,-0.27190173152237607,-0.7458648834533511
-5081.608172178268,5916.0,-2068.0,15284.0,1217.0,-3287.0,1330.0,0.5550899332914152,-0.036858620442583936,-0.5105706613033335,-0.6556174249315514
-5081.623804092407,6124.0,-2412.0,16260.0,1333.0,-2970.0,1496.0,0.4893787566397013,-0.19945783282718973,-0.6927072387255399,-0.4907969915259248
-5081.639432668686,6740.0,-3432.0,16428.0,1411.0,-2614.0,1400.0,0.39987638777433415,-0.32284313583053875,-0.8078275747112247,-0.28859278175975833
-5081.655052900314,7384.0,-4328.0,15908.0,1937.0,-2118.0,1207.0,0.3238702917921192,-0.3799227043908687,-0.86511236424263,-0.048449664780505323
-5081.670660972595,7676.0,-4132.0,15496.0,2384.0,-1615.0,1501.0,0.2765170841979063,-0.41629760697349305,-0.838028866906912,0.21895712549617552
-5081.6862597465515,7976.0,-3648.0,16012.0,2915.0,-949.0,1865.0,0.264773788872989,-0.44297770902653283,-0.7037003892227113,0.48833528670294857
-5081.701859712601,7276.0,-2752.0,16184.0,2633.0,-668.0,1906.0,0.23473161988065225,-0.4520796996671085,-0.5120996643373279,0.6915771436092274
-5081.717489957809,6324.0,-2324.0,15364.0,1665.0,-557.0,1817.0,0.1620254777165692,-0.4545265791268478,-0.34299785745017375,0.8059192287211872
-5081.733105897903,5432.0,-1976.0,15016.0,1274.0,-398.0,2121.0,0.050313043578801904,-0.4609594706325451,-0.17076546283640898,0.8693814587292902
-5081.748712778091,5108.0,-1844.0,14788.0,766.0,-423.0,2498.0,-0.11176121279098039,-0.4506742438526512,-0.013605070449705011,0.885560308110853
-5081.7643320560455,5264.0,-2940.0,14920.0,839.0,236.0,2640.0,-0.27457566043080917,-0.46650670485781837,0.14846725257995683,0.8276093135852475
-5081.779913902283,6312.0,-3560.0,15408.0,1274.0,1421.0,2736.0,-0.421315552452611,-0.5415907077820307,0.3051480228724009,0.6603464201786626
-5081.795509338379,6480.0,-3540.0,15996.0,1547.0,2018.0,2563.0,-0.5243310660530938,-0.6165400251682562,0.420844888465714,0.40968879700259453
-5081.811075687408,6908.0,-3820.0,16204.0,1831.0,1721.0,2482.0,-0.5522171169913631,-0.6408691959004208,0.5171047860780172,0.13017514994384832
-5081.826668977737,6616.0,-3716.0,16348.0,1681.0,1336.0,1999.0,-0.5243640056868235,-0.6265649239650231,0.5653759045586981,-0.11317628789286088
-5081.842263460159,6420.0,-2828.0,16628.0,1466.0,1450.0,1672.0,-0.48641424990534765,-0.5813538037197665,0.5610728860777248,-0.33260509451598863
-5081.857867479324,6404.0,-1992.0,16720.0,1421.0,1774.0,1339.0,-0.4505872221302684,-0.5111476606664581,0.4993194205627055,-0.5351442240154138
-5081.873535871506,6156.0,-1728.0,16916.0,1447.0,2126.0,313.0,-0.45269061669008454,-0.44379685658036283,0.3530686595345818,-0.6880829000233862
-5081.8891661167145,6372.0,-2232.0,17812.0,1823.0,3392.0,-19.0,-0.4623533873856481,-0.29623605740673237,0.10304273993304515,-0.8293706874565936
-5081.904766082764,6236.0,-2244.0,19276.0,1796.0,4703.0,-752.0,-0.46847303004115565,-0.03176854911718735,-0.2158135273919893,-0.856123998498859
-5081.920433759689,6572.0,-2168.0,21032.0,1439.0,3877.0,-1251.0,-0.4537909091799021,0.2082795473434124,-0.4538833984861359,-0.7380266265405175
-5081.936082363129,6972.0,-2036.0,20980.0,590.0,3108.0,-1500.0,-0.41895272765408154,0.4250851721482076,-0.5619526029286087,-0.5727045315629126
-5081.951724052429,7324.0,-2388.0,20304.0,313.0,2581.0,-1507.0,-0.3669444969057719,0.5963805303969636,-0.595855727508281,-0.3932403223851586
-5081.967369318008,6672.0,-2936.0,18728.0,1013.0,2153.0,-1528.0,-0.349704947124436,0.6963997490542023,-0.601950985471042,-0.17432398161004933
-5081.9829621315,6460.0,-3688.0,17288.0,2193.0,2348.0,-1542.0,-0.36586134103739965,0.7125209441751019,-0.5855570391241105,0.12482923206661897
-5081.9986181259155,5668.0,-4016.0,15636.0,3646.0,3074.0,-1505.0,-0.3841434855835459,0.5860718653906335,-0.5043856280650135,0.5045281848249205
-5082.014185428619,5116.0,-3536.0,15628.0,4747.0,4159.0,-1134.0,-0.3437697391722952,0.2561818593624091,-0.3286848975515246,0.8415221087318947
-5082.0298092365265,4068.0,-2208.0,15708.0,4950.0,4665.0,-1269.0,-0.19465146995239044,-0.17004809342046676,-0.06546233320218656,0.9637993225257858
-5082.045396089554,2544.0,-944.0,15584.0,4760.0,4794.0,-707.0,-0.031958099764236365,-0.5590379452163741,0.20909793794513024,0.8017064974258397
-5082.060995578766,1240.0,-16.0,15000.0,4557.0,4366.0,-418.0,0.1225464780726181,-0.7746276634205093,0.4337055028150115,0.44365964500240207
-5082.076655387878,244.0,680.0,14620.0,3713.0,4130.0,-529.0,0.2137677399211205,-0.8225251260465003,0.5267706183534245,0.016385543346375465
-5082.0922565460205,496.0,1036.0,14752.0,3353.0,4513.0,-717.0,0.22232386583919875,-0.7164762645045988,0.5057769877711308,-0.42593837549698604
-5082.107917308807,36.0,1440.0,15504.0,3088.0,5239.0,-833.0,0.13503957686224505,-0.43938164253051454,0.3882730909461289,-0.7987190317847647
-5082.123512506485,-348.0,1020.0,16024.0,2837.0,5478.0,-35.0,0.049091983208350704,-0.022087250984474713,0.22327183274252105,-0.9732686264502803
-5082.139101028442,-1404.0,-416.0,15692.0,2131.0,4941.0,1471.0,0.07361996541079328,0.3915409068445013,0.05931889379681927,-0.9152907121778419
-5082.15469288826,-1596.0,-2172.0,15000.0,1103.0,4569.0,2812.0,0.213757726164478,0.7019536107891986,-0.08619402681581845,-0.673898621861087
-5082.170309305191,-1432.0,-2940.0,14700.0,-192.0,4806.0,3707.0,0.42390939586884635,0.8421430601466956,-0.18761493743581192,-0.27549324055559904
-5082.1859431266785,-1100.0,-2700.0,14760.0,-1277.0,5249.0,4449.0,0.6065721667709262,0.7238390904622817,-0.24723274371559711,0.21680209420671775
-5082.201542139053,-760.0,-1120.0,15452.0,-730.0,5623.0,4617.0,0.578867628850698,0.40378926978472246,-0.21495351337963095,0.6750270223933588
-5082.217175960541,300.0,1096.0,16604.0,480.0,4800.0,4705.0,0.32309216081179176,0.048929345401820805,-0.09468719894571458,0.940346589899879
-5082.232770681381,1232.0,2168.0,17340.0,2007.0,3530.0,4289.0,-0.007343188180184549,-0.1951851124151675,0.13470981118497763,0.9714433160248396
-5082.248363494873,1380.0,2160.0,16740.0,2847.0,2597.0,3668.0,-0.2724728211356638,-0.3390487420724097,0.39623184082121327,0.8085819937154932
-5082.264004230499,1160.0,1724.0,16084.0,2824.0,2609.0,3242.0,-0.46517785204317375,-0.43779194442036834,0.5762729883453829,0.5097619270528297
-5082.279612541199,988.0,1220.0,15840.0,2270.0,2567.0,3126.0,-0.599475217076354,-0.4512997458762937,0.6418324378035235,0.15814273700185277
-5082.29523062706,988.0,1116.0,15608.0,1597.0,2315.0,3242.0,-0.6659136202166447,-0.3606600893703266,0.627775779870568,-0.1799469937321837
-5082.310821056366,768.0,1292.0,15900.0,1276.0,1682.0,3262.0,-0.6314376940903232,-0.2174399722995852,0.5800975463758513,-0.4663615910610222
-5082.326453924179,1008.0,1356.0,16168.0,490.0,728.0,2918.0,-0.5221484785510905,-0.06476474493429814,0.5559389491218492,-0.6435047622276551
-5082.342026948929,912.0,1608.0,16456.0,230.0,-57.0,1920.0,-0.4045839868997084,0.014518324406583231,0.5485441423933001,-0.7315738784611989
-5082.357583284378,1072.0,2656.0,16400.0,160.0,-565.0,569.0,-0.3405964652048473,5.8646529077757554e-06,0.5559846854030568,-0.7582051684424428
-5082.373226642609,1652.0,3372.0,16160.0,406.0,-224.0,-709.0,-0.37568191582620897,-0.06116021158208069,0.5341545804529106,-0.7548519131734114
-5082.388864517212,1116.0,4040.0,16008.0,251.0,-505.0,-2103.0,-0.48081922838020974,-0.1972034160163677,0.5135865292845944,-0.6827536592862316
-5082.404497385025,836.0,3452.0,16240.0,72.0,-33.0,-2592.0,-0.617040391415933,-0.31050947538545437,0.454398963488501,-0.5624647571516794
-5082.4200892448425,512.0,2440.0,16388.0,-156.0,-658.0,-3393.0,-0.7293187072115861,-0.44890028173700136,0.3880726395093978,-0.3405618693157979
-5082.4357323646545,608.0,1100.0,16784.0,-567.0,-2060.0,-3824.0,-0.7430841817306838,-0.5636823121037475,0.36066808282669677,0.002585326503277288
-5082.451329469681,768.0,-20.0,16232.0,-911.0,-3707.0,-3758.0,-0.6073536998669108,-0.563421557302758,0.37679414073583634,0.4143715814720554
-5082.4669580459595,364.0,-500.0,14540.0,-1047.0,-4898.0,-3734.0,-0.31848742302600164,-0.3981089863729667,0.36424605509898617,0.7793585873576888
-5082.482618331909,852.0,40.0,13616.0,-2174.0,-5020.0,-3727.0,0.01651375604466444,-0.0991597239605679,0.1959202298256812,0.9754536936986877
-5082.498216152191,1292.0,676.0,13068.0,-3191.0,-4450.0,-3621.0,0.32382660459664275,0.1851187636115457,-0.09866202015584545,0.9225687937997414
-5082.513789653778,1372.0,1220.0,13968.0,-3922.0,-3160.0,-3280.0,0.5527403423355362,0.31594352198039777,-0.3990314857210548,0.6598724712220264
-5082.529377698898,1244.0,972.0,14824.0,-4613.0,-2468.0,-3357.0,0.6921483553787613,0.30971905948186296,-0.6074495628207756,0.2366638691667885
-5082.544954299927,1448.0,140.0,15848.0,-5272.0,-1946.0,-3520.0,0.6961188087065896,0.18866412219961842,-0.6392996391090764,-0.2666841288764119
-5082.560542583466,1476.0,-1044.0,17076.0,-5019.0,-2200.0,-3529.0,0.49885660381020475,0.025518540880828895,-0.5196794897659335,-0.6931263382839243
-5082.576160907745,1144.0,-1828.0,17740.0,-4426.0,-3079.0,-3502.0,0.1371193263662409,-0.16975782293030672,-0.32962654474267117,-0.9185460864278062
-5082.5917801856995,1100.0,-2680.0,18016.0,-3388.0,-4031.0,-3155.0,-0.2485474510574822,-0.39016738039148363,-0.13464720077182368,-0.8762783297420904
-5082.607376098633,700.0,-2076.0,18144.0,-2422.0,-4531.0,-2676.0,-0.5256243113818428,-0.5823492945026151,0.05164642286669442,-0.6179975966634049
-5082.622979402542,392.0,-824.0,17816.0,-2377.0,-4993.0,-2625.0,-0.6752886865432198,-0.6653216239589621,0.24301252792270403,-0.20561429374428067
-5082.638633728027,596.0,-32.0,17204.0,-2899.0,-5073.0,-2707.0,-0.6840657422361248,-0.5603533358951175,0.38080142190551974,0.2702748162979448
-5082.654236793518,1120.0,288.0,16652.0,-3373.0,-4377.0,-2890.0,-0.5581295468140327,-0.3088395888774854,0.3699032038781949,0.6754858526096567
-5082.6698479652405,1000.0,-212.0,16520.0,-3536.0,-3407.0,-3123.0,-0.3203998124229478,-0.03244386050447289,0.21670038289543814,0.9215922635134676
-5082.685447692871,1184.0,-864.0,16528.0,-3153.0,-2140.0,-3348.0,-0.01791165576613656,0.15052607401491525,0.012044015617551636,0.9883703836706034
-5082.70103931427,1108.0,-1688.0,17240.0,-2669.0,-1100.0,-3610.0,0.30574539959906144,0.22768309011392374,-0.15689718380925094,0.9110781716257453
-5082.71670126915,1172.0,-2396.0,17244.0,-2227.0,-543.0,-4190.0,0.6237501428836661,0.24788276292465808,-0.24471334307021156,0.6997179966392496
-5082.73228931427,1128.0,-2840.0,17056.0,-1669.0,-449.0,-4231.0,0.8440500715791811,0.25505144010173814,-0.2595407032208546,0.39391225284425074
-5082.747911930084,1596.0,-2464.0,16392.0,-1056.0,-212.0,-3731.0,0.9386599351573104,0.25462467002057565,-0.21620266065881988,0.08567504345744004
-5082.763480901718,1992.0,-2292.0,16580.0,-752.0,888.0,-2875.0,0.959175093570618,0.23203835304738474,-0.08211569950492996,-0.13927797558720323
-5082.779121637344,2284.0,-1880.0,16924.0,-439.0,1666.0,-2058.0,0.929885684498796,0.2239400076207382,0.10163824607130109,-0.2735564908507546
-5082.794726133347,2676.0,-1800.0,17636.0,-451.0,2028.0,-1491.0,0.8639496954413308,0.21694984671421544,0.29866465771078454,-0.3425246122426973
-5082.810291290283,2760.0,-1312.0,18028.0,-113.0,1873.0,-1389.0,0.7602271099451473,0.22348506345555072,0.4599666972323711,-0.40067418828003104
-5082.82589507103,2620.0,-2364.0,17736.0,-19.0,1389.0,-1589.0,0.6386072621416266,0.20348483994887517,0.574006616891017,-0.47041586752179804
-5082.841510057449,2312.0,-2428.0,16700.0,-25.0,313.0,-1835.0,0.5409946911179191,0.12133893121300222,0.6168612526260828,-0.5586446123994158
-5082.857168912888,2356.0,-1808.0,15408.0,243.0,221.0,-1912.0,0.427257521364228,0.04001773320830831,0.6266506679113318,-0.6505063657435235
-5082.8727786540985,2604.0,-1524.0,15084.0,284.0,445.0,-1888.0,0.29053269326455655,-0.027039140256061744,0.624504224563163,-0.7244681584040934
-5082.888377428055,2916.0,-1380.0,15060.0,60.0,777.0,-1568.0,0.14746353167492762,-0.06117089851731936,0.629268997919678,-0.7606136708327729
-5082.903987646103,3072.0,-1624.0,15672.0,-50.0,1641.0,-1271.0,-0.02689385381930377,-0.022328108568845723,0.6364204213610855,-0.7705499487178377
-5082.919646978378,3180.0,-1588.0,16248.0,-23.0,1586.0,-568.0,-0.15164558215607035,0.05226482720232009,0.626264015081346,-0.762932099642065
-5082.935292959213,3036.0,-2020.0,16252.0,-184.0,768.0,-186.0,-0.2047067629913546,0.09540318171867937,0.6274927440843368,-0.7451484618685482
-5082.950896263123,2928.0,-2440.0,16124.0,-411.0,510.0,-50.0,-0.23213981313067236,0.1329195323741686,0.6443415679977199,-0.7164268621592358
-5082.966482162476,2784.0,-2228.0,15744.0,-564.0,-603.0,-20.0,-0.19248529323910446,0.1051943021245097,0.6901572048153151,-0.6896133723534548
-5082.9821610450745,2788.0,-2060.0,15872.0,-442.0,-830.0,23.0,-0.13662647278274767,0.06379361037437328,0.7279458739381929,-0.6688485529824435
-5082.997788667679,2984.0,-2156.0,16160.0,-216.0,-503.0,188.0,-0.0924063215704877,0.04886053639221511,0.7444636076914748,-0.6594297965214116
-5083.013386487961,2888.0,-2324.0,16272.0,159.0,-118.0,436.0,-0.06029803682077649,0.06903721106146771,0.7336680384566906,-0.6732972743087012
-5083.028957605362,2676.0,-2360.0,16192.0,456.0,33.0,876.0,-0.013650139131546462,0.1241918011665752,0.6987210166434658,-0.7043997523604142
-5083.0445675849915,2660.0,-2512.0,16208.0,360.0,175.0,1361.0,0.05501656417429157,0.21584689402942198,0.656504505606687,-0.7206837934367797
-5083.060165166855,2608.0,-2548.0,16312.0,262.0,66.0,2000.0,0.16949341868914378,0.3307226063010852,0.5934197246359431,-0.7139660840092373
-5083.075813531876,2724.0,-2648.0,16432.0,-4.0,81.0,2231.0,0.2988376375577646,0.4428728097466043,0.5205845692128847,-0.6659965818707159
-5083.091449975967,2772.0,-2196.0,16528.0,-49.0,213.0,2150.0,0.40886108934513077,0.5420376785919747,0.4380796490024343,-0.5891638021264034
-5083.107080221176,2816.0,-1436.0,16488.0,137.0,418.0,1744.0,0.47037627298627194,0.6273514645460554,0.3589827331738524,-0.5062684061113177
-5083.12267780304,2492.0,-1140.0,16820.0,239.0,567.0,1244.0,0.4909734061303102,0.6960402714243891,0.3013322545397108,-0.42856962958459743
-5083.138281583786,2400.0,-1036.0,16424.0,343.0,608.0,716.0,0.4791765020123229,0.7494047912079775,0.2699980869524545,-0.3686236181741164
-5083.153881311417,2420.0,-1852.0,16420.0,471.0,970.0,393.0,0.43603505244935703,0.8054978761120875,0.2683456858521551,-0.29839101444068167
-5083.169543266296,2604.0,-1964.0,16836.0,673.0,1145.0,308.0,0.3673834649172528,0.8620366020125259,0.2708181729134646,-0.22040826598815344
-5083.18516087532,2440.0,-2016.0,16592.0,783.0,735.0,176.0,0.2932015104166291,0.9013723812022257,0.26488136575849247,-0.17719640732574807
-5083.200745582581,2444.0,-1456.0,16400.0,654.0,418.0,30.0,0.2320462703258005,0.923139300489031,0.26249581334380223,-0.15831711309104882
-5083.216337442398,2604.0,-1224.0,15908.0,307.0,237.0,-174.0,0.1993629465589339,0.9279998908550134,0.2768817568317881,-0.14969004925567117
-5083.231948375702,2624.0,-1044.0,15976.0,112.0,498.0,-248.0,0.17482229813610392,0.9293171739794299,0.30380043024765446,-0.11624135581899013
-5083.2475299835205,2440.0,-1768.0,16192.0,4.0,748.0,-368.0,0.1505452195823151,0.9247604530122254,0.34411808226508594,-0.06113089941867142
-5083.263115167618,2256.0,-2204.0,15884.0,141.0,972.0,-265.0,0.10813465157814378,0.9202174731003292,0.3760518374855576,0.009576787178085196
-5083.278781175613,2240.0,-2080.0,16104.0,444.0,917.0,-90.0,0.04227585929609857,0.9170392099762787,0.3907534432486457,0.06755431648818808
-5083.294379711151,2356.0,-2452.0,16256.0,656.0,790.0,81.0,-0.03752191531935704,0.9138758654096403,0.38947971606747367,0.10829847304809231
-5083.309997320175,2424.0,-2184.0,16676.0,675.0,656.0,232.0,-0.1154761150878963,0.9100932619871571,0.3738643632044648,0.13645863569412706
-5083.325579166412,2552.0,-1804.0,16736.0,767.0,429.0,232.0,-0.19260209601945397,0.9019786183372184,0.35911143715517096,0.142751463655346
-5083.341167449951,2652.0,-1736.0,16608.0,323.0,434.0,276.0,-0.23479236309089474,0.8985152886315178,0.33363339435069905,0.16196166368509823
-5083.3567633628845,2416.0,-1424.0,16368.0,262.0,532.0,255.0,-0.2740546222824582,0.8916164095865098,0.30594046384411094,0.19056409615804026
-5083.372378110886,2344.0,-1488.0,16268.0,366.0,625.0,203.0,-0.32196979057878294,0.8759722341715356,0.2806636504515107,0.22413392030305346
-5083.388003587723,2096.0,-1784.0,15904.0,530.0,645.0,80.0,-0.37891151441737736,0.8481109153807538,0.266063813098201,0.25757326494338467
-5083.403596639633,2060.0,-1884.0,16148.0,566.0,642.0,246.0,-0.43999738794455606,0.8181523726795635,0.23860707005775228,0.2830117661851242
-5083.419221162796,2124.0,-1812.0,16036.0,540.0,287.0,-60.0,-0.4824414606131865,0.7878797176128965,0.24484044795572932,0.29419201671778117
-5083.434815406799,2248.0,-1564.0,16312.0,484.0,563.0,-1.0,-0.5267099210769381,0.7513704509855808,0.2331192109192553,0.3219853070020966
-5083.450438499451,2452.0,-1352.0,16216.0,456.0,605.0,152.0,-0.5719840608683031,0.7147841801546752,0.20765491757024898,0.3446697624133965
-5083.466023921967,2396.0,-1368.0,16408.0,438.0,427.0,497.0,-0.6206251233286475,0.6873527344468486,0.16808047366924042,0.33781596929817387
-5083.481627225876,2336.0,-2008.0,16440.0,340.0,170.0,258.0,-0.6506982041077084,0.6670568307517488,0.15326869117053152,0.3288399915237013
-5083.49720954895,2352.0,-2196.0,16276.0,302.0,-92.0,332.0,-0.67614021836697,0.6563410808934448,0.14768888690273538,0.30039770858600406
-5083.512783527374,2268.0,-2216.0,16180.0,380.0,-227.0,457.0,-0.7059816084325556,0.6446391450301547,0.1446214061697369,0.2551763902230397
-5083.528357505798,2292.0,-2132.0,15948.0,518.0,-294.0,739.0,-0.7454280554608685,0.6263185982807317,0.13221777341645846,0.1859582963254977
-5083.543969154358,2236.0,-1840.0,15992.0,268.0,-269.0,1040.0,-0.7703755263431417,0.622214341821589,0.09674448236738488,0.10005681573246822
-5083.559548139572,2164.0,-1576.0,16092.0,324.0,-313.0,1044.0,-0.7906719282752986,0.6088440708748479,0.06359991738307035,0.010092061574856393
-5083.575137138367,2336.0,-1344.0,16132.0,161.0,-285.0,1781.0,-0.7895256591179449,0.6002731349147722,-0.011098318199263865,-0.1272722453134
-5083.590776205063,2544.0,-1464.0,16232.0,64.0,-374.0,1689.0,-0.7658965550918769,0.5833040085363422,-0.07366880668228135,-0.2602533524199811
-5083.606366634369,2312.0,-1768.0,16228.0,47.0,-484.0,1834.0,-0.7200404114677543,0.5497382522114869,-0.13388900183794777,-0.40175041393338307
-5083.62198638916,2248.0,-2152.0,16068.0,114.0,-589.0,2065.0,-0.6487524635963591,0.48909520698468534,-0.19645822807137966,-0.5489173745704505
-5083.637570858002,2360.0,-2188.0,16216.0,202.0,-586.0,2236.0,-0.5492299543554928,0.4029052237481071,-0.2629761784313536,-0.6832696155199585
-5083.653163433075,2496.0,-1980.0,16368.0,323.0,-588.0,2407.0,-0.4207141376792038,0.29013333094858323,-0.3307965661969224,-0.7933447525646397
-5083.668748140335,2796.0,-1848.0,16144.0,315.0,-575.0,2547.0,-0.26214862562811375,0.1608903609423273,-0.38579712154919865,-0.869800535089219
-5083.684366226196,2644.0,-1668.0,16612.0,293.0,-540.0,2315.0,-0.10641005580618587,0.034390592188894044,-0.41894317083892585,-0.9010997762732206
-5083.699985742569,2592.0,-1484.0,16636.0,275.0,-663.0,2589.0,0.0702520758172565,-0.11199855341004729,-0.4302993596321174,-0.8929520877278987
-5083.715575933456,2444.0,-1304.0,16500.0,208.0,-764.0,2442.0,0.22829391244487166,-0.2556406469029438,-0.4167775352195944,-0.8419181880253791
-5083.731206417084,2256.0,-1176.0,16444.0,83.0,-773.0,2252.0,0.35987096420169173,-0.38442665655755426,-0.3797262180786907,-0.7606030726707456
-5083.746810913086,2300.0,-1196.0,16268.0,76.0,-675.0,2099.0,0.47081867377494624,-0.48736892636801565,-0.3293537610247375,-0.6575160881184191
-5083.76239156723,2380.0,-1252.0,16212.0,318.0,-460.0,2019.0,0.5775012322622538,-0.5495133027939307,-0.27594436409133444,-0.5370122575084417
-5083.778010845184,2328.0,-1428.0,16112.0,488.0,-247.0,1933.0,0.6753524223029365,-0.5741624544563529,-0.21519660946071764,-0.40978897112882834
-5083.79359459877,2396.0,-1476.0,16188.0,560.0,-217.0,1770.0,0.7527977211995572,-0.5744244432182273,-0.1571828874190806,-0.2804027280409084
-5083.809178352356,2324.0,-1244.0,16352.0,473.0,-3.0,1567.0,0.8067347457429318,-0.559084874083942,-0.08944784849093493,-0.16912195594296006
-5083.824767589569,2512.0,-1192.0,16392.0,377.0,-203.0,1444.0,0.8377613612619165,-0.5419782872670074,-0.0385021704387553,-0.05415736865105762
-5083.840355396271,2604.0,-1148.0,16436.0,240.0,-292.0,1206.0,0.8487944480352042,-0.5264942511506164,-0.003928397251282555,0.04833586851397685
-5083.855980873108,2704.0,-1240.0,16572.0,112.0,-348.0,907.0,0.8470254652811392,-0.5149894618697249,0.012366133887184314,0.1310755280786045
-5083.871580839157,2624.0,-1304.0,16304.0,66.0,-313.0,696.0,0.8406001042239364,-0.5044713793540193,0.021178668945923382,0.1960906835447306
-5083.887214422226,2688.0,-1356.0,16320.0,67.0,-249.0,436.0,0.8358399498782779,-0.4938223216501622,0.023184967579619173,0.23869132809101773
-5083.902799367905,2484.0,-1536.0,16352.0,53.0,-248.0,168.0,0.8349388426982759,-0.48409067287713764,0.013384517317650366,0.2614463694205705
-5083.918473482132,2640.0,-1428.0,16360.0,21.0,-154.0,-27.0,0.8366495767007341,-0.4788407348572529,0.001452263553057383,0.2659453466004265
-5083.934136867523,2432.0,-1700.0,16308.0,-53.0,-166.0,-146.0,0.8377868563156761,-0.4785872936987107,-0.018041877317631853,0.2621867204068434
-5083.949777126312,2588.0,-1604.0,16300.0,-46.0,-112.0,-156.0,0.8392419777260802,-0.47887517899092047,-0.033832261479215725,0.2553563076409773
-5083.965360879898,2796.0,-1632.0,16232.0,-64.0,-99.0,-191.0,0.8404788130053249,-0.48050417402958906,-0.050516827855311974,0.24527363032486596
-5083.98096036911,2620.0,-1896.0,16212.0,-77.0,-61.0,-113.0,0.8394375740110768,-0.48411098516803047,-0.061397760353040266,0.23918910594269926
-5083.996533155441,2584.0,-1964.0,16220.0,-96.0,8.0,-151.0,0.8385846069462096,-0.49024795355634165,-0.06920589212405208,0.22725172281416103
-5084.012112379074,2528.0,-1864.0,16432.0,-138.0,8.0,-2.0,0.8328186873848351,-0.5002678183379801,-0.07145028295275604,0.2259203420321623
