programtime,ax,ay,az,gx,gy,gz,q0,q1,q2,q3
-5070.713049173355,-1904.0,-2560.0,-16076.0,625.0,2.0,1504.0,0.9900639054357413,0.05373744798320207,0.0003677811801273062,0.12994465966165616
-5070.728715658188,-2072.0,-2476.0,-16036.0,480.0,342.0,1210.0,0.9674391469825399,0.09058803644202201,0.02976567975824716,0.23445534510393212
-5070.744284152985,-2244.0,-2316.0,-16064.0,400.0,171.0,941.0,0.9407291439352312,0.1228225485914716,0.04508792425682694,0.3129063412502109
-5070.75993180275,-1912.0,-2528.0,-16004.0,240.0,237.0,571.0,0.9200688857387028,0.1381857461856028,0.06516541880578078,0.3607373188880475
-5070.775523662567,-1848.0,-2676.0,-16100.0,472.0,236.0,955.0,0.8789609491818897,0.1734353717696359,0.08734922259947804,0.4355662233732852
-5070.791108608246,-1792.0,-2464.0,-16128.0,456.0,193.0,1337.0,0.8134458972925384,0.20984636953050956,0.09873689255932679,0.5334053800071102
-5070.806701898575,-2112.0,-2564.0,-16048.0,695.0,190.0,1355.0,0.7294344271817249,0.25991111800704364,0.11892124030907551,0.6214735439113629
-5070.82231760025,-1952.0,-2272.0,-15956.0,343.0,205.0,740.0,0.6775062198395764,0.27780921504346795,0.13360849892644155,0.6677994692497463
-5070.837954282761,-2184.0,-2624.0,-16044.0,102.0,171.0,560.0,0.6394849013117446,0.280272489712169,0.13608054754936938,0.7028431383200054
-5070.853538990021,-1872.0,-2532.0,-16092.0,259.0,266.0,751.0,0.5823097728276175,0.2868197984937427,0.14820941731549497,0.7461123911854425
-5070.869157791138,-1660.0,-2548.0,-16048.0,33.0,407.0,994.0,0.5092032622188333,0.27391120479214154,0.14567658419007634,0.8027845429838116
-5070.884741306305,-1948.0,-3032.0,-16196.0,316.0,276.0,1294.0,0.4045855365048325,0.283336922613202,0.1482541842253857,0.8567680134055209
-5070.900321483612,-1812.0,-2572.0,-15928.0,237.0,541.0,1695.0,0.26174766985412656,0.270159306042052,0.14157392306100272,0.9156740309705903
-5070.916410207748,-2492.0,-2528.0,-16076.0,464.0,326.0,886.0,0.17520869757496887,0.2648061745653314,0.16465282044984067,0.933846374370041
-5070.932120323181,-2336.0,-2200.0,-15764.0,16.0,276.0,-267.0,0.19250746972832522,0.23884345587864056,0.17640687016874146,0.9352942284864237
-5070.947771549225,-2064.0,-2468.0,-16024.0,-6.0,96.0,-890.0,0.26298150369544476,0.21679044303670705,0.19566162156824543,0.9195429094758526
-5070.963358163834,-1796.0,-2780.0,-15956.0,-245.0,244.0,-392.0,0.29458131472240096,0.18492313625031506,0.18902567547427607,0.9183107190419062
-5070.978942632675,-1960.0,-2896.0,-16268.0,74.0,179.0,30.0,0.2879690489335557,0.17314051607418782,0.1992777881445084,0.9205349269322157
-5070.994568824768,-1892.0,-2560.0,-15876.0,254.0,203.0,-315.0,0.3056526673949111,0.15778135239525515,0.22961963603575777,0.9104703809007224
-5071.010156393051,-1856.0,-2368.0,-15988.0,-19.0,36.0,-751.0,0.3640704448640202,0.139190360839188,0.23917758848591128,0.8893103146776355
-5071.025785684586,-2084.0,-2580.0,-16020.0,-274.0,84.0,-487.0,0.40294525366259454,0.11373925762968697,0.2265203984434257,0.8794242508105327
-5071.041386127472,-2092.0,-2736.0,-15976.0,-336.0,-86.0,-672.0,0.4585560891728347,0.09506705723095638,0.20424342341143034,0.8596354993281399
-5071.056996107101,-1712.0,-2840.0,-15792.0,-585.0,-251.0,-358.0,0.4937412550862382,0.08394853235260273,0.15328258276269677,0.8518665780292753
-5071.072588443756,-1932.0,-2824.0,-16096.0,-103.0,91.0,466.0,0.45822722073339367,0.0788775786036666,0.14631288647243754,0.8731544428247936
-5071.088196277618,-1952.0,-2500.0,-15964.0,-197.0,61.0,477.0,0.4220301753189419,0.07233665209884983,0.13063772094155682,0.8941989296295255
-5071.103815317154,-2248.0,-2468.0,-16028.0,-241.0,-66.0,-329.0,0.4497035023813815,0.06474182821376773,0.11171084548022087,0.8837963241763069
-5071.119464159012,-1876.0,-2184.0,-16016.0,-697.0,-101.0,-870.0,0.5192767345745797,0.03645186481778538,0.05893329022106165,0.8517921118351518
-5071.1351108551025,-1820.0,-2680.0,-16100.0,-639.0,-98.0,-846.0,0.5822138130457346,0.010077005176251343,0.009739433811735176,0.8129149237739771
-5071.150736808777,-1700.0,-2856.0,-16004.0,-680.0,-73.0,-219.0,0.5972332036216409,-0.019749870104434082,-0.04204937052443357,0.8007211084773453
-5071.166324853897,-1808.0,-3104.0,-16196.0,-358.0,-178.0,484.0,0.5612829386910084,-0.027973731318602205,-0.07558212996645298,0.8236906426081545
-5071.181953430176,-1824.0,-2804.0,-16068.0,-541.0,-98.0,754.0,0.5034214343564783,-0.05246706541724389,-0.11726122363220663,0.854437751921839
-5071.197546243668,-2028.0,-2636.0,-16108.0,-151.0,-302.0,1090.0,0.41627438258635535,-0.04772633584238974,-0.1363563961377329,0.8976885698847555
-5071.213189840317,-1988.0,-2188.0,-15788.0,-728.0,-240.0,500.0,0.3700002528726406,-0.061324943728732303,-0.19963703862300464,0.9052536202416904
-5071.228800773621,-2120.0,-2388.0,-16008.0,-677.0,-746.0,337.0,0.32531774506389644,-0.030165582422580318,-0.27449025694205226,0.9043857037943127
-5071.244393587112,-1980.0,-2044.0,-16184.0,-792.0,-1098.0,642.0,0.24413093077997325,0.018362857699341,-0.36366854217698275,0.8987814448042893
-5071.2600173950195,-2376.0,-3152.0,-15608.0,-1321.0,-1486.0,-1997.0,0.345356180551549,0.16515470680419664,-0.48166661710608344,0.7883211917364948
-5071.275631427765,-2268.0,-2588.0,-15048.0,-839.0,-1200.0,-3884.0,0.5397723424569255,0.3626386447504336,-0.48877122140710266,0.5815855266221309
-5071.291296482086,-1928.0,-3468.0,-16552.0,-490.0,-1400.0,-1087.0,0.5435927287787411,0.45129130566381975,-0.5385191728521863,0.45917339112989103
-5071.30689740181,-2144.0,-3236.0,-16356.0,305.0,-719.0,-1684.0,0.5577931457519387,0.5664363846772312,-0.4879199089692584,0.3604868806175541
-5071.3225338459015,-3484.0,-3264.0,-17148.0,1548.0,-1054.0,-875.0,0.45631696575511366,0.7010147066195801,-0.44030414302278115,0.3263211140948203
-5071.338177442551,-2816.0,-2924.0,-15720.0,580.0,-778.0,-4687.0,0.4836785679396563,0.8549151849761549,-0.15513534835134346,0.10539493870645567
-5071.353795289993,-2892.0,-4340.0,-16744.0,1722.0,-809.0,-5258.0,0.3525808717794789,0.904396854330468,0.19667072501845045,-0.13810751121171463
-5071.369393587112,136.0,-1608.0,-16692.0,3342.0,98.0,591.0,0.09008390688599338,0.9766255854619743,0.10813957435981882,-0.1624598042547406
-5071.384989023209,-1952.0,-2188.0,-15816.0,4024.0,651.0,565.0,-0.23647280228669154,0.9625903270224625,0.007612968891048635,-0.13207012836418405
-5071.40057516098,-3148.0,-2800.0,-15480.0,1332.0,343.0,-2505.0,-0.36595737830679154,0.9096590892263788,0.18976706948303895,-0.05083304034261865
-5071.416236400604,-1744.0,-3436.0,-15148.0,-725.0,99.0,-4009.0,-0.3085982092077055,0.8168704863105697,0.4786784669886372,0.09141487357065432
-5071.431855201721,-36.0,-4436.0,-16436.0,-14.0,327.0,-355.0,-0.31790925311233736,0.799214281310421,0.49464598999901194,0.12456156675684568
-5071.447455406189,-452.0,-3156.0,-16920.0,2683.0,595.0,4841.0,-0.5244906403988855,0.8341854728011336,0.15264996209243403,-0.07577700294082831
-5071.463073015213,-2540.0,-1600.0,-15848.0,2084.0,411.0,3131.0,-0.6274009672248122,0.7439338132258758,-0.10242960219833622,-0.20600651557188251
-5071.478682041168,-4400.0,-2324.0,-15420.0,-420.0,-335.0,-2383.0,-0.6315422719740423,0.7652197025812894,0.07637095177202162,-0.09879596761357769
-5071.494288682938,-2356.0,-1732.0,-15040.0,-1620.0,-401.0,-3799.0,-0.520131159623141,0.7765710644809154,0.34422586706245945,0.08893543188832051
-5071.50989151001,-1692.0,-2904.0,-16216.0,-1535.0,204.0,-292.0,-0.415786154544779,0.8282417239635624,0.33967061576721536,0.16050356120364462
-5071.525516271591,-2528.0,-3556.0,-16048.0,-234.0,191.0,1351.0,-0.42017339159576145,0.8679313129395315,0.23014727412724587,0.13107932417347193
-5071.541152000427,-2380.0,-3184.0,-15784.0,-75.0,-249.0,1503.0,-0.42270654306441635,0.8959435436415477,0.1234827585545262,0.05793404350916391
-5071.55676150322,-1908.0,-2764.0,-16036.0,135.0,-50.0,2096.0,-0.4357751740605984,0.898951943795738,-0.037254576595208526,-0.024443750551645566
-5071.572338342667,-1904.0,-2484.0,-16216.0,631.0,226.0,3444.0,-0.45600862236964507,0.826516773230109,-0.303481193157095,-0.1297124716200157
-5071.587989807129,-2108.0,-2412.0,-15840.0,606.0,209.0,3536.0,-0.4330890849331759,0.6786890394712588,-0.5474578742263534,-0.22826499547869136
-5071.603537559509,-2304.0,-2556.0,-15500.0,307.0,-69.0,2983.0,-0.38205148293130997,0.5062946398183402,-0.7040052663598333,-0.31949802349752354
-5071.6191737651825,-2416.0,-2536.0,-15812.0,-338.0,-171.0,3315.0,-0.2736669181481644,0.2969397773478825,-0.8021588326118827,-0.4398572425260464
-5071.634797811508,-2328.0,-3064.0,-16020.0,-82.0,-39.0,3329.0,-0.14059228374732258,0.061901591299647674,-0.8493620415870051,-0.5049615084899426
-5071.650384426117,-2696.0,-2760.0,-15884.0,905.0,-107.0,3801.0,0.013347695231470056,-0.22299581811123298,-0.8599700303006914,-0.4588531912513386
-5071.666005849838,-2240.0,-1568.0,-15400.0,63.0,236.0,2661.0,0.13517398631881045,-0.40240598159858504,-0.7894055743937445,-0.4434368709438174
-5071.681594848633,-3336.0,-2876.0,-16072.0,-994.0,-205.0,-99.0,0.08189885212691624,-0.41368015657783586,-0.7539964636076183,-0.5036374082028026
-5071.697188138962,-2896.0,-3016.0,-15644.0,-1263.0,-472.0,-2193.0,-0.08898662595439145,-0.29194622929839287,-0.7621879062223892,-0.5708926126760041
-5071.712812900543,-1584.0,-2644.0,-16344.0,-961.0,-260.0,-104.0,-0.13541058065154202,-0.28948010579258693,-0.7124216659270015,-0.6247564428765185
-5071.728466272354,-2128.0,-2568.0,-16044.0,-157.0,-206.0,877.0,-0.10400955760967527,-0.352323623797953,-0.6773198255821982,-0.6374071931764019
-5071.74409532547,-2588.0,-2420.0,-15716.0,-593.0,-194.0,-618.0,-0.16758588551624032,-0.3203422389594488,-0.659840377699517,-0.6587157937013077
-5071.759720563889,-2772.0,-2688.0,-15956.0,-1030.0,-301.0,-770.0,-0.25626291024115044,-0.2764845453440242,-0.6139096724006883,-0.6935420183042436
-5071.775346040726,-2564.0,-2540.0,-15804.0,-557.0,-497.0,-989.0,-0.3540875548655048,-0.23979001924458387,-0.5897436628079936,-0.6850731072942958
-5071.790945053101,-2512.0,-2356.0,-16096.0,-747.0,-103.0,-1229.0,-0.4449349402965804,-0.1584171636266166,-0.5634300469921374,-0.6778521102115225
-5071.8065848350525,-2420.0,-2016.0,-15556.0,-567.0,-165.0,-1736.0,-0.5564336769394151,-0.06005861851933387,-0.5408702039035226,-0.6278805205121384
-5071.822217226028,-3060.0,-3524.0,-15832.0,-1318.0,-184.0,-3259.0,-0.7174416378369693,0.14123140144627283,-0.45603434628785516,-0.5073104203041147
-5071.837801218033,-1736.0,-2972.0,-15972.0,-642.0,-122.0,-843.0,-0.7483676471940757,0.20881938898914743,-0.40807017286668423,-0.4793944737186245
-5071.853402376175,-2252.0,-3240.0,-15976.0,161.0,183.0,1503.0,-0.6758669373549673,0.15130085943588462,-0.45040854822016685,-0.5634217537640707
-5071.868990182877,-2896.0,-2656.0,-15452.0,-161.0,25.0,272.0,-0.6590427376803859,0.15143395971437656,-0.4476311249835475,-0.585112640183008
-5071.884563922882,-2840.0,-2652.0,-16120.0,-742.0,-74.0,-810.0,-0.6902217611567593,0.22110785784752385,-0.39321991201759166,-0.5657590798357709
-5071.9001569747925,-2436.0,-2796.0,-15644.0,-1027.0,161.0,-1909.0,-0.7457318328491414,0.35036464382400734,-0.31006406664678504,-0.4743299741825251
-5071.91626906395,-2804.0,-3204.0,-16160.0,-952.0,-364.0,-909.0,-0.7586137780482421,0.4191170977008341,-0.21779669217327374,-0.44878791767223625
-5071.931977987289,-1616.0,-2616.0,-16028.0,-813.0,255.0,199.0,-0.714023473866012,0.4780069293046614,-0.20961120014341714,-0.4666294022878084
-5071.947600364685,-2720.0,-2860.0,-16308.0,398.0,-81.0,1538.0,-0.6629949521130694,0.4180344611381194,-0.2823152140742484,-0.5531573037353501
-5071.963283061981,-2388.0,-1332.0,-15572.0,-412.0,221.0,-207.0,-0.6517364437349802,0.4574180264082146,-0.26754199512966453,-0.5426137096190378
-5071.978867530823,-3268.0,-2424.0,-15832.0,-1280.0,-122.0,-2561.0,-0.702975589214716,0.5670047812024104,-0.0949709348249354,-0.4187020666300889
-5071.994448661804,-2204.0,-2420.0,-15772.0,-1589.0,-102.0,-2732.0,-0.6987239402112236,0.6590060378474568,0.1007031047065772,-0.2595279987954185
-5072.010045289993,-2300.0,-3448.0,-16108.0,-1572.0,98.0,-2256.0,-0.6418066523264,0.7170837531315848,0.25287865303336415,-0.09963683487712433
-5072.025700092316,-1796.0,-3532.0,-16212.0,-170.0,-59.0,794.0,-0.62114525471551,0.7419442809072834,0.20749135954728729,-0.1436822615586102
-5072.041355371475,-1868.0,-2804.0,-15960.0,545.0,369.0,2782.0,-0.6093106788569322,0.7447867804845049,0.0005528217755122054,-0.27208976944110724
-5072.056948423386,-2984.0,-1824.0,-15816.0,568.0,229.0,1808.0,-0.5948834728636413,0.7105401730459425,-0.1407035634583933,-0.34849508379838773
-5072.072553157806,-3292.0,-1568.0,-15732.0,-816.0,221.0,-1092.0,-0.5704334880391069,0.7676733650797729,-0.05928750238977656,-0.28595145100351904
-5072.088165998459,-2812.0,-2668.0,-16008.0,-1167.0,-211.0,-2488.0,-0.5397990176800771,0.8104467742652025,0.14289252971123476,-0.17712925096515186
-5072.103794336319,-1320.0,-2500.0,-16204.0,-688.0,33.0,-186.0,-0.49320463140223864,0.839587724901315,0.16482408072061674,-0.15708171813747013
-5072.119383573532,-1772.0,-2864.0,-16116.0,391.0,147.0,2166.0,-0.48509905281616306,0.8406668253885997,-0.005437691653605265,-0.24068367031727672
-5072.135005712509,-2516.0,-2612.0,-16024.0,623.0,100.0,2113.0,-0.4773695772685055,0.8008825929805854,-0.17457366515914413,-0.31659026262992573
-5072.150661706924,-2716.0,-1968.0,-15964.0,637.0,128.0,1587.0,-0.47063212660772397,0.7455932426377953,-0.30506402071737904,-0.3599056281878566
-5072.166247844696,-2852.0,-1912.0,-15744.0,60.0,50.0,150.0,-0.4682380834999356,0.7408040321733796,-0.31879603148350194,-0.36101464428238905
-5072.181842803955,-2944.0,-3036.0,-15960.0,-929.0,-17.0,-2029.0,-0.46366782663229816,0.8194443849293751,-0.15482492768599723,-0.2992528835630912
-5072.197421073914,-1656.0,-2828.0,-16260.0,120.0,-37.0,863.0,-0.44869807318515553,0.7998320829519028,-0.21756650907885422,-0.33407108873410457
-5072.213005781174,-1860.0,-2964.0,-16244.0,1144.0,380.0,3421.0,-0.4017629232485478,0.6686654746926178,-0.48107953244276214,-0.400044397437998
-5072.228614330292,-2712.0,-2168.0,-16040.0,1957.0,254.0,4046.0,-0.3386928767300143,0.40882756752214966,-0.7394710174820568,-0.4139200038537896
-5072.2442400455475,-3052.0,-1656.0,-15712.0,700.0,266.0,1741.0,-0.2796855313550498,0.2816875480432788,-0.823668179795267,-0.40496772515937673
-5072.259890317917,-3232.0,-2068.0,-15668.0,-342.0,-31.0,-1412.0,-0.3207441996401691,0.3874193563522541,-0.7700810237433421,-0.3924342207188344
-5072.275498390198,-2408.0,-3056.0,-16104.0,-920.0,-133.0,-2210.0,-0.36621862395668875,0.5454350214264061,-0.6462662905938127,-0.38823245422164193
-5072.291096448898,-1300.0,-2620.0,-16224.0,464.0,56.0,1386.0,-0.3353200417099404,0.45081841262902667,-0.7239847750773545,-0.40021153646350716
-5072.306695699692,-2448.0,-2912.0,-15748.0,533.0,278.0,1574.0,-0.2806162373093515,0.34193556242808537,-0.8041267609782274,-0.3971331650517183
-5072.322327136993,-3320.0,-2512.0,-15836.0,372.0,-12.0,491.0,-0.2750542273407181,0.29762787269323654,-0.8302968838149656,-0.382583201598367
-5072.337990522385,-2952.0,-2296.0,-15628.0,-349.0,65.0,-723.0,-0.28461867875733576,0.35976467176829746,-0.7995807027268267,-0.3875981017455476
-5072.353583097458,-2972.0,-2404.0,-16036.0,-264.0,84.0,-885.0,-0.2993215974876557,0.4296101510003441,-0.7625794726731698,-0.37988715073349044
-5072.369180202484,-2348.0,-2284.0,-15820.0,-489.0,226.0,-917.0,-0.29495851790546684,0.508817868400652,-0.714935460418146,-0.37811524294574583
-5072.384756326675,-2680.0,-2916.0,-15888.0,-755.0,216.0,-1968.0,-0.3075707577102517,0.6473042768505732,-0.5981535554541467,-0.3586219824133221
-5072.400342226028,-2324.0,-2836.0,-16284.0,-741.0,-43.0,-1716.0,-0.3173306385689513,0.7456892600058478,-0.4707298206749481,-0.3488011313982281
-5072.415959119797,-2064.0,-2588.0,-16088.0,-491.0,171.0,-1195.0,-0.3125584312972753,0.8085008801173531,-0.38036230511001196,-0.32242529479842297
-5072.431592702866,-2548.0,-2684.0,-15868.0,-697.0,148.0,-1408.0,-0.2951309324363262,0.8703236043227169,-0.26300814317390225,-0.29370269508841007
-5072.447165727615,-2568.0,-2424.0,-16184.0,-264.0,49.0,-1273.0,-0.3044355762836989,0.9019264189627593,-0.15982507176867636,-0.2613496912260709
-5072.462809562683,-2324.0,-1904.0,-16128.0,-180.0,121.0,-421.0,-0.2977009983797645,0.9146814215148744,-0.12571501671641466,-0.2427503805789224
-5072.47846364975,-2888.0,-2280.0,-15644.0,-1006.0,159.0,-2156.0,-0.2556149530004318,0.9476403732865892,0.0621915865461939,-0.1810274158317132
-5072.494059801102,-2704.0,-2580.0,-15704.0,-1388.0,39.0,-3575.0,-0.18704826011682849,0.9102705787246347,0.3592676520037273,-0.08571567020862925
-5072.509655714035,-2236.0,-3276.0,-16512.0,-1507.0,43.0,-2345.0,-0.08347484635258061,0.8372988584729473,0.5403267144529752,0.0031005281430447197
-5072.525364160538,-1452.0,-2476.0,-16348.0,466.0,165.0,386.0,-0.12506768029292376,0.8508136941537696,0.5102706086791517,-0.009901469828809671
-5072.540969610214,-2064.0,-2108.0,-16148.0,659.0,279.0,1391.0,-0.18326281563962904,0.8975269705704229,0.3996636323568376,-0.03360146535276497
-5072.556573390961,-2788.0,-1224.0,-15740.0,129.0,139.0,-65.0,-0.19807073643696996,0.8935337725698377,0.40208818738847774,-0.026276799787615004
-5072.572169303894,-3064.0,-2264.0,-15772.0,-957.0,-13.0,-2794.0,-0.12502712810444977,0.7863724362165931,0.6026675865221467,0.052710425461236665
-5072.587804079056,-2544.0,-2828.0,-16032.0,-1393.0,46.0,-3093.0,-0.016736064666091583,0.6124576823933084,0.7747935339428761,0.15591815538037604
-5072.603359699249,-1992.0,-3648.0,-16552.0,-273.0,229.0,-291.0,-0.013664025036954068,0.5896300110288679,0.7857086492142062,0.18657883873546305
-5072.618980169296,-1600.0,-2796.0,-16108.0,834.0,288.0,2146.0,-0.10905632401535857,0.7165826842258689,0.6748540975330095,0.13852047467003936
-5072.634590148926,-2744.0,-2224.0,-16088.0,945.0,193.0,1868.0,-0.1986525063837457,0.8019312004763051,0.5583257483629338,0.07560350603681068
-5072.6502006053925,-3072.0,-1668.0,-15644.0,-180.0,168.0,-899.0,-0.1874558177068559,0.7577087622919317,0.6151310901108499,0.11113725717742141
-5072.665821552277,-2804.0,-2668.0,-15972.0,-778.0,-235.0,-1919.0,-0.10290384377146496,0.6589569056254857,0.7264312197066186,0.16578383063826593
-5072.68140912056,-1712.0,-2700.0,-16080.0,-314.0,119.0,-317.0,-0.08763743524845453,0.6394972344757168,0.7384910988990041,0.19492014746537745
-5072.697014808655,-1924.0,-2960.0,-16016.0,401.0,204.0,1247.0,-0.14335047828197048,0.7086531044594145,0.6697285930266875,0.16948459988700393
-5072.712616443634,-2612.0,-2840.0,-15960.0,519.0,180.0,1220.0,-0.20250877369811035,0.7656639206018803,0.5956849449121853,0.1338222839022396
-5072.728255271912,-2536.0,-2448.0,-15872.0,273.0,288.0,1028.0,-0.24640156190363877,0.807270985077889,0.5227077789293229,0.1199016463172876
-5072.743926525116,-2680.0,-2364.0,-15892.0,250.0,116.0,881.0,-0.27740760929257896,0.8382417321575081,0.4592942144537877,0.09718354462271203
-5072.759526729584,-2272.0,-2108.0,-15816.0,14.0,142.0,556.0,-0.28822981504232414,0.8580041917445979,0.4147997340235974,0.09323926921270909
-5072.775119066238,-2380.0,-2636.0,-16336.0,126.0,100.0,521.0,-0.3049344146746303,0.8719944525701672,0.37388473006591166,0.08277007948187214
-5072.790697336197,-2112.0,-2612.0,-15996.0,-78.0,219.0,494.0,-0.30910637835365745,0.887704160986933,0.32953424430793,0.08855366314259788
-5072.806298971176,-2528.0,-2940.0,-15884.0,123.0,141.0,750.0,-0.32749793614402434,0.9029188345298654,0.26796710014130576,0.07534131213678961
-5072.821902275085,-2424.0,-2848.0,-15968.0,0.0,142.0,1323.0,-0.33699317067490125,0.9268009469202932,0.15858854519093693,0.0482211679695424
-5072.83753991127,-2216.0,-2304.0,-15640.0,431.0,396.0,1547.0,-0.3796310969649223,0.92440746238121,0.023381597045415158,0.028361499092034486
-5072.8531584739685,-2880.0,-2616.0,-15980.0,-16.0,143.0,386.0,-0.3790606938194009,0.9248922759499475,-0.012560608547583226,0.027009246605468322
-5072.868736028671,-2448.0,-2364.0,-15720.0,-402.0,52.0,-402.0,-0.34489356000300453,0.9374572212509099,0.017161211342230708,0.04390766924175979
-5072.884317874908,-1972.0,-2780.0,-16280.0,152.0,139.0,951.0,-0.35960163695271796,0.9305368845273345,-0.06403422173338677,0.026218079298211062
-5072.899924755096,-2036.0,-2224.0,-16164.0,369.0,278.0,1561.0,-0.38740227908764896,0.9006742269348599,-0.19672899661307827,0.0017643652114510042
-5072.91571187973,-2584.0,-2544.0,-15756.0,232.0,48.0,-456.0,-0.4040460312655278,0.8998701536231102,-0.16236764146196367,0.024844722638328546
-5072.931468486786,-2592.0,-2384.0,-16152.0,-71.0,19.0,167.0,-0.39822469411815153,0.8999715219824163,-0.17633401161294374,0.01935636752192603
-5072.94709444046,-2232.0,-2260.0,-15832.0,-106.0,239.0,186.0,-0.3860923677993915,0.900153996580205,-0.19939541033975772,0.029948894857460454
-5072.962696075439,-2752.0,-2572.0,-15892.0,312.0,135.0,74.0,-0.40797439161785143,0.8877133801260436,-0.20890353079338883,0.043372403107209065
-5072.978293895721,-2416.0,-2296.0,-15892.0,-111.0,137.0,-219.0,-0.39564545548592084,0.8949892533965492,-0.19723314314592483,0.05964894888264842
-5072.993886947632,-2516.0,-2804.0,-15736.0,-347.0,37.0,-1328.0,-0.35815618691571577,0.9231445940411512,-0.0959722806344772,0.10157522146867183
-5073.009523630142,-2304.0,-3192.0,-16260.0,-156.0,247.0,-265.0,-0.34071425808807293,0.9276134179079027,-0.08372513389975163,0.12820781257856823
-5073.0251886844635,-1644.0,-2436.0,-16252.0,872.0,309.0,2122.0,-0.42397162048909875,0.8653739932378803,-0.2499199146368383,0.09442432480716159
-5073.04078912735,-2856.0,-1876.0,-15932.0,1188.0,72.0,2310.0,-0.5177487786773285,0.7515088154274123,-0.4069834373408718,0.039181427274043036
-5073.056368589401,-3000.0,-1704.0,-14940.0,-426.0,252.0,-1852.0,-0.4677582525432845,0.8243403635467352,-0.29438676514150236,0.12248107900737636
-5073.07199883461,-3088.0,-3256.0,-16132.0,-918.0,-15.0,-2642.0,-0.3629615558897121,0.903443128793666,-0.11038244469905521,0.19966256004542024
-5073.087547779083,-1076.0,-2332.0,-15832.0,53.0,188.0,220.0,-0.36880814346849583,0.8962074564921525,-0.1327539447256563,0.20777184217060107
-5073.103139162064,-2680.0,-3748.0,-16028.0,199.0,487.0,511.0,-0.3870112303631626,0.8733962582219013,-0.18447306725063828,0.23102158158041142
-5073.118718862534,-2104.0,-2500.0,-16172.0,501.0,96.0,1164.0,-0.444185124760418,0.8308499278007188,-0.26477264898964226,0.20562931882910035
-5073.134320020676,-2308.0,-2096.0,-15884.0,360.0,502.0,947.0,-0.4731558105063606,0.7823556580498809,-0.34483843617000165,0.2124374172344279
-5073.1498856544495,-3304.0,-2216.0,-15640.0,-361.0,-39.0,-1611.0,-0.41530889718436464,0.837939903141922,-0.23758646829624325,0.26254125147209073
-5073.165509223938,-2264.0,-2780.0,-15972.0,-1188.0,178.0,-2334.0,-0.2642283432816102,0.9020703744426188,-0.09812376614931788,0.326839637553775
-5073.181101322174,-2048.0,-3016.0,-16464.0,470.0,-45.0,1001.0,-0.3285199744803813,0.879978153012606,-0.16178081837439443,0.30255585169360655
-5073.196710586548,-2184.0,-1904.0,-15780.0,460.0,197.0,1133.0,-0.3885514487911858,0.8408374428062333,-0.24094647691848287,0.2897670817707148
-5073.212297677994,-3324.0,-2216.0,-15404.0,-641.0,124.0,-1947.0,-0.2849661721171276,0.88638875373535,-0.11672313924944876,0.3456659757108853
-5073.22789645195,-2208.0,-2528.0,-16412.0,-947.0,-69.0,-1789.0,-0.15590799723833965,0.9161728361561362,-0.005165256873183392,0.3691792935799429
-5073.243505954742,-1664.0,-2184.0,-16324.0,408.0,135.0,1409.0,-0.2318978879361943,0.898373512379242,-0.10566978069126005,0.35774613802915783
-5073.25909948349,-2684.0,-2016.0,-15544.0,342.0,204.0,1250.0,-0.29384274485325845,0.8680187885505849,-0.19589315497454785,0.3490353790869853
-5073.274694681168,-3220.0,-1372.0,-16252.0,182.0,-318.0,1888.0,-0.3653305775597252,0.8292856926081902,-0.3207892099463389,0.27552330557910293
-5073.290279388428,-2508.0,-232.0,-16028.0,695.0,-495.0,5044.0,-0.5027391394778538,0.6190594780014606,-0.5966487497441079,0.08960463025100472
-5073.30587220192,-4644.0,-1340.0,-13536.0,-2176.0,190.0,-4073.0,-0.31828762325350013,0.8580020129667957,-0.3729253640410865,0.15314113583027897
-5073.321506500244,-3224.0,-5324.0,-16088.0,-5773.0,-434.0,-12391.0,0.1705687243365122,0.9167607817991406,0.31444852369957416,0.17770229367231533
-5073.337156534195,1876.0,-4512.0,-19428.0,1564.0,243.0,5230.0,-0.03846368081731179,0.97466994635672,-0.06870188560887626,0.20933010256711157
-5073.352757692337,-1508.0,-4180.0,-15348.0,3457.0,1305.0,4869.0,-0.3650661523628826,0.802969658295722,-0.37421040964542696,0.2862394130241568
-5073.368326187134,-4576.0,-2128.0,-16112.0,3553.0,-190.0,2490.0,-0.6380439440064125,0.5735417450916431,-0.4245567026050826,0.28931193965523416
-5073.383957147598,-1680.0,72.0,-14636.0,-985.0,447.0,-2148.0,-0.5066993401625632,0.6819787357765531,-0.3591302299300292,0.38624637289927016
-5073.399560451508,-3784.0,-4336.0,-16164.0,-1099.0,-109.0,-4688.0,-0.2641744241580677,0.8124742099554948,-0.1037219644091807,0.5092536557326304
-5073.415158987045,-2060.0,-4184.0,-16528.0,-1186.0,-285.0,-4644.0,0.021923023429325825,0.8251876011869133,0.1654022986794999,0.5396544111583286
-5073.430782079697,-528.0,-3808.0,-16412.0,1075.0,106.0,2907.0,-0.18726048693127814,0.8343540367035746,0.006643776696363233,0.5184040043266637
-5073.446371793747,-1832.0,-2848.0,-15264.0,1187.0,788.0,3211.0,-0.4009659567390173,0.7470366422089442,-0.1781916839032018,0.4994099323414504
-5073.462012529373,-4048.0,-3520.0,-16044.0,574.0,165.0,-307.0,-0.4216382284873136,0.7234844558171983,-0.13881182174871456,0.5286990870162113
-5073.477604866028,-2524.0,-1484.0,-16316.0,969.0,224.0,1775.0,-0.5532394035967058,0.6461051140000161,-0.21119337259119933,0.48153058401781934
-5073.493195295334,-2984.0,-2284.0,-15156.0,-743.0,745.0,-1675.0,-0.42087701852170434,0.6718112038163674,-0.18138574501224952,0.5819204870198634
-5073.508779287338,-2512.0,-3108.0,-15752.0,-716.0,-38.0,-2603.0,-0.2406424961246634,0.7216877814977198,-0.06215895128568893,0.6460605233806304
-5073.524405002594,-1108.0,-3336.0,-16724.0,-471.0,326.0,701.0,-0.2479243358549615,0.707409468997421,-0.13933916433479174,0.6470625658668143
-5073.540060520172,-1812.0,-2124.0,-16532.0,1958.0,179.0,4046.0,-0.5538988346057226,0.5640554413010719,-0.26297050416297346,0.5530678566878995
-5073.555661916733,-3212.0,-1660.0,-15104.0,-227.0,283.0,-680.0,-0.5021698329998618,0.5758752246139807,-0.25372217252834434,0.5931426840720412
-5073.571280002594,-2960.0,-1804.0,-15280.0,-1048.0,-177.0,-2983.0,-0.288120477728821,0.6720217843575004,-0.14501862781429783,0.6665905109204117
-5073.5868327617645,-2108.0,-4132.0,-16348.0,-2348.0,296.0,-4011.0,0.08029934734213956,0.7085320920280036,-0.04996486548387179,0.6993123776968528
-5073.602439403534,-1376.0,-3540.0,-16948.0,1294.0,-134.0,3313.0,-0.1934368690085907,0.6795125103889367,-0.16888518889726917,0.6872573891230362
-5073.618013858795,-2168.0,-2044.0,-14880.0,459.0,625.0,1446.0,-0.2951436194547134,0.6069977719085948,-0.23535606150985117,0.6993221525904524
-5073.633594512939,-3760.0,-3216.0,-15768.0,-613.0,-78.0,-3200.0,-0.06633250044863304,0.6670214048900895,-0.09753766161886541,0.7356417941964736
-5073.649173259735,-1436.0,-2408.0,-16564.0,-369.0,28.0,-1120.0,0.02712806685450776,0.6735681765274443,-0.055971783273829324,0.7365033190932535
-5073.664741516113,-1940.0,-2172.0,-16072.0,693.0,203.0,1100.0,-0.08281398568670609,0.6527349608569666,-0.07516928280565624,0.7492853218715949
-5073.680334806442,-3288.0,-1812.0,-15404.0,4.0,-141.0,719.0,-0.13072764335176412,0.6560987607702945,-0.11467952005715028,0.734365921771183
-5073.6959545612335,-2244.0,-2524.0,-14864.0,-1502.0,437.0,-3319.0,0.16413898425748386,0.6463538996868566,-0.024742228428273193,0.7447636217880931
-5073.7115483284,-2252.0,-4148.0,-17308.0,-860.0,-138.0,-660.0,0.25401067422771884,0.6417581351680931,-0.04524430115537399,0.7222035907809605
-5073.7271502017975,-1764.0,-2284.0,-16208.0,1690.0,148.0,2263.0,0.01671936711266347,0.6419291429360701,-0.06042148814916317,0.7641967560664956
-5073.742777347565,-3288.0,-2612.0,-15428.0,-6.0,168.0,-700.0,0.0644566893440721,0.6333990136295414,-0.02138738058338253,0.7708395453553921
-5073.758371353149,-2336.0,-2416.0,-15492.0,-627.0,-103.0,-2687.0,0.2718569873140738,0.6242021544635596,0.08199149243291977,0.7278343520198729
-5073.774001836777,-1596.0,-3328.0,-16548.0,-129.0,176.0,240.0,0.26217941335517947,0.611688611785674,0.06487105421038913,0.7435662335999946
-5073.789577722549,-2236.0,-2776.0,-16236.0,1452.0,113.0,1736.0,0.06993163341963946,0.6353448742181516,0.06769560041479768,0.7660703382434686
-5073.805149555206,-2904.0,-2144.0,-15348.0,88.0,213.0,-592.0,0.10317565160361046,0.6174465042997216,0.10754039682129928,0.7723662747011562
-5073.820786714554,-2544.0,-2324.0,-15924.0,-101.0,-103.0,-440.0,0.13908405586764164,0.6190948115245922,0.12343283442471759,0.7629820280534901
-5073.836364984512,-1800.0,-2532.0,-16092.0,-27.0,-47.0,-59.0,0.14491529939736256,0.6214962554637775,0.12427077158427294,0.7598017740009069
-5073.851994514465,-2540.0,-2672.0,-15568.0,-202.0,-18.0,-1600.0,0.25954839472673324,0.597146225215722,0.19552947941640828,0.7333616019294563
-5073.86757683754,-2132.0,-3560.0,-16216.0,-362.0,-177.0,-797.0,0.3313565543376233,0.5851437316538249,0.20930586837460177,0.7099300674486804
-5073.883155822754,-1228.0,-2192.0,-16348.0,1750.0,296.0,3873.0,-0.0032493874577921855,0.645226288881372,0.12052069336138746,0.7544184780936982
-5073.898784399033,-2792.0,-1232.0,-15440.0,1686.0,237.0,4895.0,-0.3853870673898719,0.620361582992906,-0.04022362889500216,0.6819166916227284
-5073.914923667908,-4304.0,-1772.0,-14664.0,-989.0,109.0,-2572.0,-0.17339462662714536,0.6381854593972187,0.035407216548651504,0.7492662756904721
-5073.930710554123,-2496.0,-3372.0,-16104.0,-2522.0,-117.0,-5251.0,0.277031914724801,0.5954715855059589,0.146790581374029,0.7396752221744384
-5073.946318864822,-216.0,-3368.0,-17896.0,938.0,200.0,4155.0,-0.039910966838768526,0.6173455898751324,-0.0034913712284339203,0.7856712720436356
-5073.961997747421,-1700.0,-628.0,-16380.0,3173.0,145.0,11359.0,-0.6895999619333579,0.4133152742969879,-0.2776281442102003,0.5258754511067397
-5073.977657556534,-3116.0,3944.0,-14832.0,3643.0,87.0,14079.0,-0.906632632028824,-0.09338437446205669,-0.3860082099752734,-0.14245803234111615
-5073.993615865707,-4296.0,-3704.0,-8648.0,-13597.0,2253.0,-32512.0,-0.4153373329555949,0.6499105470860574,-0.20385501121630775,0.6029546542167444
-5074.009274482727,-3932.0,-12844.0,-23316.0,-13484.0,-4155.0,-15820.0,0.5268397545526741,0.7793337322066554,0.06386802020229664,0.33316614903552616
-5074.0249235630035,5440.0,-4940.0,-22336.0,11951.0,952.0,19894.0,-0.38485519937626006,0.624736468960886,-0.3972454667276301,0.5511686303008277
-5074.040547847748,-652.0,744.0,-13056.0,7822.0,3758.0,24289.0,-0.750807972911737,-0.26820638617724174,-0.5974912488474731,0.08577254675360844
-5074.056155920029,-10992.0,556.0,-13588.0,6080.0,-70.0,7186.0,-0.5144664002588618,-0.8041850704076249,-0.2932244745488891,-0.051284530452174085
-5074.071803569794,-1292.0,3696.0,-11268.0,-8665.0,1962.0,-11798.0,-0.6896297316669889,-0.064195080132269,-0.7176119250046319,0.07295854973116608
-5074.087419509888,-2816.0,-7492.0,-17948.0,-11734.0,377.0,-15963.0,-0.3153252904836781,0.8206166275312318,-0.4528666515781323,0.14856011473158667
-5074.1030440330505,32.0,-7988.0,-20048.0,-1674.0,-1591.0,-565.0,-0.24549552737616168,0.8907231491938994,-0.3822259160593123,-0.015734249935163744
-5074.118669748306,2680.0,-3596.0,-15904.0,2574.0,1424.0,9581.0,-0.28955961764772015,0.389947059718075,-0.8739355210478202,-0.018254410311188265
-5074.134298324585,-3192.0,-3976.0,-15544.0,4895.0,416.0,14129.0,-0.24425514310314578,-0.4929135760607548,-0.835056380622599,0.007514837599403632
-5074.149903297424,-2916.0,520.0,-14420.0,2517.0,1163.0,8189.0,-0.044948240667548676,-0.913278815582929,-0.40395889292978276,-0.02680808630392716
-5074.1655356884,-5572.0,-864.0,-16288.0,-487.0,417.0,636.0,-0.067368446704705,-0.9299493520012427,-0.3526904374869695,-0.07915270308911723
-5074.181175470352,-3972.0,-76.0,-15944.0,-1095.0,33.0,-4750.0,-0.1729908672618548,-0.7150765003746569,-0.6725235602620048,-0.08032321799107792
-5074.196790933609,-2696.0,-2072.0,-15904.0,-2532.0,142.0,-5442.0,-0.31942811751365763,-0.3157727844219871,-0.8827836283707526,-0.1376455296790812
-5074.212386369705,-1272.0,-3588.0,-15876.0,-1023.0,171.0,-1319.0,-0.346366985113426,-0.18165424567200503,-0.9021152601037933,-0.18226273382300645
-5074.228028297424,-276.0,-3448.0,-16228.0,553.0,734.0,3295.0,-0.21767769233735446,-0.42745687917237785,-0.8441672763492611,-0.23932958080430722
-5074.243619918823,-1692.0,-2108.0,-15976.0,1464.0,683.0,4119.0,-0.024773727898838263,-0.6944876500453824,-0.6848662558752469,-0.21916062124354732
-5074.259275436401,-3112.0,-1624.0,-15760.0,336.0,307.0,974.0,0.032417895879427304,-0.7443330998624235,-0.6302123595924439,-0.21851704348373002
-5074.274866819382,-3208.0,-1972.0,-15668.0,-248.0,-224.0,-1018.0,-0.015405540416673658,-0.6903570168008336,-0.6892839379833948,-0.21922023518924397
-5074.290456056595,-2356.0,-3040.0,-15696.0,-938.0,191.0,-1182.0,-0.08229565557711177,-0.6090597075089543,-0.7364163625387088,-0.2827801951118531
-5074.306047916412,-2280.0,-3764.0,-16496.0,122.0,154.0,848.0,-0.04478461876890581,-0.6587939265851419,-0.6935339353361191,-0.2880895360013108
-5074.321655988693,-1844.0,-1984.0,-16388.0,1014.0,539.0,2161.0,0.09828855550893528,-0.7628512765309889,-0.5837888761944141,-0.25997661006842704
-5074.337347269058,-2360.0,-1900.0,-15772.0,74.0,187.0,240.0,0.118065140477253,-0.7699937001258527,-0.5677228216380596,-0.26619752471032654
-5074.352949857712,-2616.0,-2292.0,-15528.0,-338.0,-121.0,-633.0,0.07441907986186927,-0.7435106115332933,-0.6024853691054821,-0.2804730844550539
-5074.368551492691,-2084.0,-2972.0,-15956.0,-895.0,34.0,-556.0,0.004473314738952596,-0.7163235082071958,-0.6138981639612371,-0.3316468985683474
-5074.384148597717,-1704.0,-2944.0,-16652.0,352.0,48.0,2094.0,0.08817865111904319,-0.813213176052832,-0.4849579638840265,-0.30939397060439117
-5074.399784564972,-1984.0,-2152.0,-16172.0,835.0,348.0,3268.0,0.2400693861850304,-0.8973263268064497,-0.26171622466400823,-0.2620625322025375
-5074.4154188632965,-2992.0,-2220.0,-15912.0,839.0,30.0,1885.0,0.34389714443585157,-0.9076294565039862,-0.1305615712788274,-0.20223056109388973
-5074.431035280228,-2424.0,-1880.0,-16088.0,70.0,-66.0,131.0,0.3507522810525331,-0.9082246483035843,-0.12337445973007743,-0.1920405380032743
-5074.446663141251,-2096.0,-2356.0,-16160.0,299.0,-263.0,535.0,0.37972290887023513,-0.9078323760158028,-0.09385655269302427,-0.15113516153830833
-5074.462247848511,-1760.0,-1804.0,-15956.0,444.0,212.0,1176.0,0.42924929971133896,-0.894578906396191,0.0004895598068224695,-0.12439203856965873
-5074.477835893631,-2708.0,-2732.0,-16168.0,813.0,-7.0,1179.0,0.501371053399552,-0.8576317527032445,0.0828380083789686,-0.07894750113835372
-5074.49341917038,-2296.0,-2080.0,-15908.0,778.0,249.0,1610.0,0.5617021213428103,-0.8005379179108157,0.20636888038424228,-0.03227466614788364
-5074.508989095688,-2212.0,-1884.0,-15872.0,578.0,117.0,266.0,0.5995100581323988,-0.7660496399103461,0.22876553973648073,-0.037708980633175036
-5074.524582624435,-2820.0,-2584.0,-16020.0,271.0,-15.0,-508.0,0.6152282771356532,-0.7612861601615174,0.19297215724780248,-0.06855141053514291
-5074.54024887085,-1892.0,-2332.0,-15896.0,-219.0,-98.0,-758.0,0.5961099028489134,-0.7846943491675301,0.13840237907540295,-0.09875496734986942
-5074.555875778198,-2164.0,-3188.0,-16200.0,352.0,-247.0,949.0,0.6285380800479262,-0.7541322775803805,0.1867944515510774,-0.03649962617379658
-5074.571471452713,-1972.0,-2328.0,-15908.0,837.0,-187.0,1423.0,0.6838129377423718,-0.67873603435022,0.2648214238678776,0.03983560356356884
-5074.587091207504,-2072.0,-644.0,-16568.0,1317.0,-329.0,1260.0,0.7550293462228408,-0.5628026544827289,0.3203521883568793,0.10275375352979645
-5074.602694749832,-3240.0,-1864.0,-15720.0,-1072.0,-29.0,-3266.0,0.7013823329180797,-0.6941076732670259,0.14230806304410612,-0.07762587310209187
-5074.61828494072,-3572.0,-3328.0,-16464.0,-816.0,-1232.0,-4091.0,0.5977199094447933,-0.7511244120918686,-0.16386002731603866,-0.22736076807782796
-5074.633932590485,-1388.0,-2872.0,-15764.0,-1161.0,-512.0,-2194.0,0.45943906822581976,-0.7720031003519807,-0.3039935436198161,-0.3170408192523276
-5074.649527549744,-2012.0,-3676.0,-16376.0,236.0,-744.0,869.0,0.4769866700809974,-0.8021879149853827,-0.2803682524027506,-0.2244368701017586
-5074.665208816528,-1488.0,-2396.0,-15480.0,342.0,-21.0,1847.0,0.5292971753917106,-0.822741192585395,-0.15657709383474752,-0.1357388810613353
-5074.680785655975,-2888.0,-2752.0,-15612.0,366.0,-440.0,1291.0,0.5603724412773219,-0.8226388637819915,-0.0878662816572491,-0.03908379971416832
-5074.6963794231415,-3208.0,-2636.0,-15164.0,-588.0,-381.0,-792.0,0.5101083543307793,-0.8432081179948823,-0.16063338675682998,-0.05464843683494824
-5074.71200633049,-2792.0,-2860.0,-15880.0,-875.0,-523.0,-951.0,0.4304112210972107,-0.8650926196123142,-0.24787274148034877,-0.0701430272865961
-5074.72758936882,-1956.0,-2828.0,-16024.0,-338.0,-207.0,546.0,0.40278496629184185,-0.8894556732504159,-0.2119936754026585,-0.041128552627118474
-5074.743282556534,-2420.0,-2872.0,-15972.0,772.0,-148.0,2858.0,0.4549736201754547,-0.8866734498286226,0.0018146564206748981,0.08249791109794885
-5074.7588839530945,-2616.0,-2040.0,-15864.0,603.0,130.0,2077.0,0.4779034436733958,-0.8484629540644273,0.16905675461035277,0.15211419337454926
-5074.774478673935,-3120.0,-1548.0,-16348.0,1183.0,-159.0,1182.0,0.5460476997019786,-0.771510565176425,0.2628966221181306,0.19362004945306552
-5074.790077924728,-2616.0,-1484.0,-15776.0,-202.0,185.0,-1167.0,0.5446902665537997,-0.8068004926487429,0.18877645657806755,0.1294176495889399
-5074.805678844452,-3344.0,-3248.0,-15420.0,59.0,-458.0,-2043.0,0.5697651181645333,-0.8190882888705664,0.023517251325196546,0.06252218844658641
-5074.821351528168,-1720.0,-2812.0,-15816.0,-351.0,-213.0,-841.0,0.5476094189368679,-0.8345042051905901,-0.04891204424513802,0.036527629797309245
-5074.836980342865,-1484.0,-3100.0,-16456.0,733.0,-27.0,2458.0,0.5784587201033778,-0.7905105186585016,0.12796965471727495,0.15524946537160772
-5074.852610588074,-2440.0,-3036.0,-16380.0,1841.0,-54.0,3848.0,0.6126239505271008,-0.612997982208633,0.3895629102259609,0.31171478634320965
-5074.868241786957,-2904.0,-1820.0,-15820.0,1402.0,-135.0,1886.0,0.6276096736482296,-0.4608436803441959,0.510830297665572,0.3643921058652102
-5074.883862257004,-3232.0,-2024.0,-15908.0,985.0,-364.0,25.0,0.6796295398338076,-0.3927417771514098,0.5212056355425961,0.33496607372072434
-5074.899465084076,-2648.0,-1844.0,-15960.0,917.0,-203.0,-100.0,0.720593840799977,-0.3360011319874619,0.5309328687551017,0.2931860241890111
-5074.915166139603,-3476.0,-3128.0,-15880.0,1522.0,-336.0,164.0,0.7692684044614589,-0.22220476192932545,0.548645443620078,0.24049811406366794
-5074.930854797363,-2908.0,-2796.0,-16208.0,2402.0,-327.0,815.0,0.7946885615724193,-0.014852050657075464,0.5789029021065623,0.18199158395332127
-5074.9464564323425,-2160.0,-2172.0,-16244.0,3088.0,-148.0,2289.0,0.7296289185356906,0.3007377735920255,0.5886329765645568,0.17524169501605555
-5074.962071657181,-3128.0,-2756.0,-16112.0,3569.0,-269.0,1409.0,0.5953688041076978,0.5730793030623375,0.5586889918452121,0.07058831268656339
-5074.9776837825775,-3276.0,-1808.0,-16048.0,4371.0,-437.0,51.0,0.37114432262245417,0.7520250803461019,0.5233400253885393,-0.15108073385406107
-5074.993371486664,-2636.0,-1888.0,-15600.0,2624.0,250.0,-3156.0,0.1370489620683484,0.6553005876958332,0.6626431389539268,-0.3357123652157766
-5075.00897860527,-2968.0,-3340.0,-17284.0,2841.0,-206.0,-2138.0,-0.07286049370269725,0.5344703651883406,0.6678106299100957,-0.5128954472130967
-5075.024578809738,-2632.0,-3160.0,-18612.0,6059.0,-164.0,1057.0,-0.263047637746435,0.4849098924839281,0.30708839782431335,-0.7754773061598527
-5075.04024887085,-2636.0,-1992.0,-17652.0,7203.0,405.0,1088.0,-0.42603439640730467,0.3175157218197124,-0.19870865439384772,-0.8235249420291756
-5075.0558869838715,-4068.0,-1836.0,-17728.0,7625.0,-312.0,-1119.0,-0.5998734811510535,0.025969062811053704,-0.5841884382387417,-0.5460780924159219
-5075.071470499039,-3652.0,-1288.0,-18192.0,7054.0,182.0,-5063.0,-0.6755607450430119,-0.06092427320739922,-0.7320723866559323,0.06305500287025566
-5075.087110519409,-3680.0,-2208.0,-19520.0,6346.0,879.0,-7470.0,-0.41294770239928463,0.02832982636616566,-0.59849227415641,0.6859144362063706
-5075.1027135849,-4292.0,-3496.0,-21128.0,6777.0,878.0,-10233.0,0.15588998830211784,0.18128847835236014,-0.13595319457244748,0.9614309793476585
-5075.11829328537,-3652.0,-2712.0,-23392.0,8616.0,633.0,-7593.0,0.4687830527422237,0.23690935641812358,0.5049878293907902,0.6849114530144828
-5075.133895874023,-4692.0,-3276.0,-22572.0,10085.0,636.0,-8463.0,0.48414479776810665,0.15649417303887994,0.8587248614965676,-0.06086871812891149
-5075.14953660965,-4948.0,-1420.0,-20588.0,10922.0,-585.0,-11146.0,0.18893461565816325,-0.13038468316633975,0.5492420809578825,-0.8035152032829063
-5075.165158510208,-3260.0,-1172.0,-17496.0,8632.0,-799.0,-14982.0,-0.4003014941454402,-0.420784753249834,-0.13216209187428904,-0.8032633980761332
-5075.180748939514,-1204.0,-852.0,-16192.0,6757.0,-799.0,-13054.0,-0.6611486922819494,-0.34553355309943995,-0.6494533667110317,-0.14730680515186972
-5075.196342468262,1164.0,1480.0,-15976.0,7582.0,-688.0,-2225.0,-0.4109908603133327,-0.5474534014607784,-0.6367797958396423,0.35481372236478387
-5075.211969137192,1048.0,6648.0,-12572.0,7769.0,705.0,6727.0,-0.1553013653536098,-0.9087016323555749,-0.07447659962420328,0.3802578932540839
-5075.227568864822,-3772.0,7424.0,-10740.0,717.0,73.0,3550.0,-0.20588156005757208,-0.9000506659592645,0.219242180687408,0.31536399309682545
-5075.243164539337,-4736.0,6512.0,-11920.0,-5110.0,-1397.0,-1347.0,-0.4904584877220199,-0.7182354232408518,-0.0017988305195566494,0.49354342547766317
-5075.258804321289,-1768.0,5104.0,-12672.0,-8271.0,-1394.0,-1192.0,-0.7701118781029014,-0.24469532185525525,-0.29997956559111827,0.5070149454352791
-5075.274439573288,-1480.0,3280.0,-13412.0,-9011.0,-1491.0,1639.0,-0.8347098965817229,0.29820073836422023,-0.43806281444083495,0.14978878059366751
-5075.2900450229645,-2224.0,3040.0,-13368.0,-9826.0,-2043.0,2501.0,-0.5119015105923921,0.7015475885637464,-0.3585453360358741,-0.34239314601863974
-5075.305633306503,-1808.0,3436.0,-12864.0,-11535.0,-1804.0,2547.0,0.14824975028827628,0.7497905992338225,-0.061847755872606124,-0.6418807708083892
-5075.32120680809,-1816.0,1676.0,-14468.0,-13818.0,-1426.0,3407.0,0.7725259735164958,0.29575864819940284,0.29434979776977516,-0.47863204950206273
-5075.336848497391,-2744.0,164.0,-15024.0,-13900.0,-1222.0,4449.0,0.8309426558808076,-0.3560983448459868,0.4177784964096098,0.09049530028362832
-5075.352443695068,-3916.0,-1052.0,-16344.0,-15165.0,-1824.0,3627.0,0.2342841308957136,-0.7718643477172188,0.1643050188156179,0.5677501523782374
-5075.368096590042,-4048.0,-2860.0,-17872.0,-15760.0,-2053.0,3739.0,-0.5647809382943294,-0.5394255567647492,-0.2335940565770112,0.5792032261480535
-5075.38370680809,-3840.0,-4732.0,-18328.0,-15429.0,-2726.0,5503.0,-0.9227822357977858,0.13995955007101227,-0.35228637439786115,0.06912727431028436
-5075.399307489395,-3556.0,-6716.0,-17948.0,-13763.0,-2892.0,7654.0,-0.517768819565999,0.5997561447231983,-0.17235900470110863,-0.5852353286075964
-5075.41490650177,-2548.0,-6400.0,-17844.0,-11127.0,-2337.0,10217.0,0.33067604323857347,0.49770563763151576,-0.019946927021128876,-0.8015887803607914
-5075.430503368378,-1084.0,-4292.0,-17048.0,-8778.0,-1698.0,12533.0,0.9467982393301677,0.06214419439595553,0.0004882176228069703,-0.3157704146175273
-5075.446169614792,-2148.0,-2484.0,-16988.0,-8727.0,-1575.0,12144.0,0.8054316516779108,-0.42535254138557416,0.02746080745513118,0.41182638825861856
-5075.461800813675,-4936.0,-3444.0,-16440.0,-10565.0,-1076.0,4217.0,0.1870747824294189,-0.7926030524920907,-0.19205849021760402,0.5476284902144338
-5075.477392196655,-6204.0,-3280.0,-17292.0,-14062.0,-2388.0,-3583.0,-0.4021942013872195,-0.5213184581606505,-0.7073419032381028,0.2571659415144187
-5075.492984294891,-3088.0,-3652.0,-17076.0,-15954.0,-1759.0,-5520.0,-0.6224714937941876,0.23432929306298161,-0.702211708255847,-0.254003422446709
-5075.508569717407,-2724.0,-5848.0,-18268.0,-13990.0,-2152.0,-1333.0,-0.3122963790792456,0.6453819823839085,-0.1557243677803528,-0.6794872991510716
-5075.524157047272,-780.0,-4332.0,-17432.0,-10664.0,-1128.0,3411.0,0.339099129682514,0.5872185416733252,0.22492039659631868,-0.6997120691817238
-5075.539841175079,-996.0,-2604.0,-16988.0,-10462.0,-243.0,4120.0,0.8075184297543114,0.24543243876671095,0.46073724562443824,-0.27458713389844364
-5075.555460691452,-2692.0,-3112.0,-17140.0,-10549.0,155.0,1954.0,0.7839063524138644,-0.3033602886943278,0.49846868925479665,0.21211395927917914
-5075.5710599422455,-3440.0,-3752.0,-16196.0,-10365.0,12.0,530.0,0.3698663605541892,-0.7335461609550936,0.23841513877741233,0.5179451000638867
-5075.586659908295,-3544.0,-3680.0,-15520.0,-8677.0,137.0,680.0,-0.1745735921271102,-0.8009440489089734,-0.08422518637177139,0.566496963301462
-5075.602248430252,-3832.0,-3716.0,-16020.0,-6141.0,160.0,3115.0,-0.6483836275078196,-0.632892087144665,-0.14794075825677075,0.3964338654250952
-5075.61784696579,-3016.0,-2340.0,-15268.0,-3257.0,-433.0,5244.0,-0.8932299541981739,-0.44134656885594814,0.046985636435815936,0.07173426692266135
-5075.63348698616,-3320.0,-320.0,-15076.0,-3202.0,850.0,3122.0,-0.966095970228491,-0.1715387204639706,0.07517138671396709,-0.1777141139846618
-5075.649116754532,-4124.0,112.0,-15172.0,-4592.0,598.0,1528.0,-0.9340784215517961,0.2159128402636427,0.10926257841728766,-0.26256587127461556
-5075.66474199295,-4768.0,-876.0,-15584.0,-4450.0,188.0,-139.0,-0.7969108799136935,0.5423283095767502,0.184969016925505,-0.19131000205012658
-5075.680341720581,-4404.0,-2028.0,-15540.0,-3222.0,-360.0,-813.0,-0.6258705130985777,0.7175721097082697,0.29016576768375557,-0.09581333658235143
-5075.695967435837,-1860.0,-1792.0,-15236.0,-3510.0,582.0,-1358.0,-0.40984302901611425,0.8349881319561312,0.3537585533286479,0.09837884430165449
-5075.711549520493,-2260.0,-4084.0,-16032.0,-536.0,234.0,2580.0,-0.38965604758688244,0.9080304886007458,0.14887961177365555,0.03851827551417449
-5075.727155208588,-728.0,-3068.0,-15724.0,1921.0,1208.0,5441.0,-0.5118276108607264,0.8087585879480184,-0.28177669044910747,-0.0674087524026104
-5075.742777824402,-2196.0,-3456.0,-15772.0,4103.0,1778.0,7943.0,-0.5562158186560121,0.3450144464388934,-0.7403457546991205,-0.15322257772363762
-5075.758366107941,-3476.0,-2892.0,-15308.0,5183.0,1311.0,6953.0,-0.42434519100019763,-0.26848824364085716,-0.8598369643894656,-0.09233426542276993
-5075.773956298828,-4168.0,-2788.0,-15440.0,5280.0,1159.0,3912.0,-0.15718817838986415,-0.6465186904864377,-0.7377640954710815,0.11405962852786733
-5075.789543867111,-3380.0,-2452.0,-15116.0,4415.0,1639.0,336.0,0.17972216609476988,-0.6887760564959495,-0.6447570255477432,0.27852444240841695
-5075.805153608322,-3632.0,-3160.0,-16064.0,5503.0,1280.0,-372.0,0.5301723414531729,-0.5494253942280382,-0.46028005763664215,0.4529804555137386
-5075.820754528046,-3396.0,-1672.0,-15156.0,7083.0,1395.0,458.0,0.7674972522697231,-0.2498928569440655,-0.07941751565523085,0.5849738336147258
-5075.836380004883,-6104.0,-1288.0,-14164.0,6829.0,664.0,-991.0,0.8313300733641276,0.1541416101722223,0.249947528521815,0.471865347445376
-5075.852021455765,-7508.0,524.0,-14400.0,7304.0,-922.0,-2774.0,0.715018019675077,0.5452904474890249,0.42984752759800016,0.08147798742627843
-5075.8676064014435,-6316.0,9552.0,-23800.0,11946.0,-3682.0,1632.0,0.18356005825607227,0.9269542574906537,0.13959654869359014,-0.29592957460486463
-5075.8832404613495,-336.0,19584.0,-22540.0,4870.0,3730.0,911.0,-0.20419576581769905,0.9783394217082835,-0.00019180617074308396,-0.0340004171153494
-5075.898844003677,-21816.0,-2352.0,-16812.0,-5095.0,-688.0,-32768.0,0.04364728595422684,0.3485766597248059,0.922440156453799,0.16029156086774463
-5075.914901018143,-3680.0,-2584.0,-11412.0,-12863.0,-1696.0,-32768.0,0.3184570165308074,-0.7156876239102978,0.5358061493479113,0.3151001807757223
-5075.930671453476,11644.0,-8076.0,-18676.0,-9679.0,-1507.0,-32661.0,0.21737219012358755,-0.7869505457179666,-0.5772710769075438,-0.014706234088788857
-5075.946310520172,10376.0,-12876.0,-26752.0,16859.0,9469.0,29629.0,0.5824757115115007,-0.6000337839642315,0.49779177769572436,0.2299670621181821
-5075.961946249008,-7416.0,-1460.0,-18132.0,28737.0,4774.0,31114.0,0.3259051998415221,0.5494602736677814,0.7650287809004199,0.08130296901836674
-5075.977651357651,-12256.0,4212.0,-6404.0,5063.0,2221.0,-16764.0,0.029350441336939086,-0.24050600984570975,0.9081169541914058,-0.34149525374673434
-5075.99321770668,-6488.0,-1284.0,-15908.0,-3906.0,-140.0,-23560.0,-0.32165459186623857,-0.9178962557639005,0.2291724256126382,-0.038532927799417825
-5076.008803606033,3728.0,0.0,-19820.0,6679.0,2749.0,-2910.0,0.12313084318307731,-0.9547235306960089,-0.08558649300682589,-0.2569372055720302
-5076.024411916733,-828.0,-3424.0,-16724.0,4525.0,4069.0,-2396.0,0.4141286840870148,-0.6923147410854898,-0.29785981431908626,-0.5103697319648651
-5076.040104627609,-7808.0,-7440.0,-16156.0,7906.0,1405.0,-802.0,0.7298031385854644,-0.2643454293044278,-0.5295543724207455,-0.3421710676938271
-5076.055727481842,-2996.0,1356.0,-14356.0,6043.0,2499.0,-1911.0,0.7972320468835262,0.24360598438459108,-0.5116014359316052,-0.2081853946525482
-5076.071345567703,-3284.0,-1240.0,-15716.0,4738.0,2901.0,-2084.0,0.6997116159899744,0.638590943485798,-0.3123583380699669,-0.07097555906638008
-5076.086938858032,-3000.0,-1768.0,-15036.0,4583.0,1841.0,-5375.0,0.3887372060218961,0.9079211259773154,0.06001193518727915,-0.14477976824629626
-5076.102591514587,-1988.0,-2076.0,-14552.0,2289.0,2227.0,-8826.0,0.06489789058484433,0.7485001415788604,0.6234781466226031,-0.2163580424622749
-5076.118197441101,-276.0,-2332.0,-16488.0,1330.0,1558.0,-7775.0,-0.20768832118009325,0.2966989341883632,0.9127796211472538,-0.18886150194033624
-5076.133816242218,1644.0,-1456.0,-17372.0,2003.0,2750.0,-2510.0,-0.48765312298007985,0.09927927860906792,0.8397421860572798,-0.21718912827850978
-5076.149406194687,-2680.0,-4068.0,-19136.0,4394.0,2436.0,2661.0,-0.5854772222107283,0.13754252623961954,0.5643094159780149,-0.5655557963513279
-5076.164999723434,-4052.0,-2700.0,-15644.0,4056.0,1212.0,-3053.0,-0.7684924239932278,-0.14569589046126674,0.3086117409606168,-0.541249383472137
-5076.180584430695,-2160.0,-952.0,-15192.0,3496.0,1323.0,-3177.0,-0.836278425359601,-0.37079393888026435,0.013464840653560408,-0.403694127073827
-5076.196193218231,-2224.0,-1480.0,-15284.0,2481.0,2352.0,-4320.0,-0.8208713768395198,-0.4275138667410913,-0.3473506316691595,-0.15082975538237509
-5076.211856603622,-3276.0,-4580.0,-14856.0,1598.0,1140.0,-7181.0,-0.6884551313193663,-0.25945614771279696,-0.602214534506708,0.30991885067374997
-5076.227463722229,540.0,-4296.0,-15560.0,2410.0,1533.0,-2717.0,-0.45351187466433923,-0.28646080898930626,-0.6532874750228393,0.534305773345106
-5076.243102788925,1488.0,-3492.0,-14724.0,3178.0,2101.0,607.0,-0.26763586154893043,-0.5163606498960449,-0.5433413606389963,0.60541134005803
-5076.258698225021,-1312.0,-4528.0,-14208.0,2731.0,1812.0,647.0,-0.08898924821320903,-0.6784003337180021,-0.3959324062904958,0.6124470838878809
-5076.274297475815,-2420.0,-3324.0,-16172.0,1899.0,1665.0,-1011.0,0.13140104188658872,-0.7271288631802525,-0.35740554780100486,0.5712080679773143
-5076.289913415909,-3472.0,-4000.0,-18192.0,2956.0,1734.0,-351.0,0.37395912451537877,-0.7363387908188173,-0.20355395314882913,0.5258569639024075
-5076.305530786514,-3216.0,-2176.0,-17484.0,4963.0,2511.0,-458.0,0.6818002507006868,-0.6128987530366772,0.06891754993546703,0.3933877323728579
-5076.321127653122,-1172.0,1140.0,-14204.0,1295.0,1978.0,-8152.0,0.8187156412558068,-0.5247630941627306,-0.16464889296976276,-0.16498222877534985
-5076.336751937866,-1408.0,-4424.0,-14760.0,-1418.0,1566.0,-8688.0,0.5133022564218617,-0.37763511795808696,-0.33919654382691083,-0.6919958207192335
-5076.352358341217,-224.0,-4980.0,-16160.0,862.0,1376.0,-8172.0,0.07190019194239289,-0.011557039054147398,-0.48453574142968314,-0.8717350013187123
-5076.36798620224,1236.0,-3508.0,-17644.0,941.0,1801.0,-4329.0,-0.1664182423539935,0.29012904394237854,-0.5070764416871688,-0.7943573432396583
-5076.383579492569,-164.0,-4072.0,-16800.0,2100.0,1461.0,-1486.0,-0.24974081502220716,0.41326117980550425,-0.6161985309394943,-0.6222090428833507
-5076.399234056473,216.0,-2216.0,-15176.0,1547.0,996.0,-3980.0,-0.4370897674808238,0.6049819624881319,-0.5403009686524546,-0.3886183519866085
-5076.414834499359,-440.0,-2892.0,-15824.0,419.0,630.0,-6136.0,-0.5609732369030571,0.7919052694777794,-0.2241438888606038,-0.08918850115501135
-5076.4304711818695,-164.0,-3292.0,-15680.0,-937.0,174.0,-6719.0,-0.4688033393862354,0.835233172781118,0.20555363402305502,0.20088972001129735
-5076.446071147919,-500.0,-5240.0,-16528.0,-359.0,483.0,-4276.0,-0.35197719228814894,0.7158097942916812,0.4596144605203249,0.3904906428913032
-5076.461664915085,-188.0,-4132.0,-16572.0,1012.0,644.0,-1886.0,-0.3696750395019829,0.5764541543919841,0.5812463652624079,0.43953798006846856
-5076.477300167084,-984.0,-3952.0,-16176.0,1074.0,46.0,-2111.0,-0.3378045852375464,0.4241547746646897,0.712201702345423,0.4458133292062016
-5076.492909669876,84.0,-3092.0,-15712.0,1123.0,283.0,-2475.0,-0.2923544088955716,0.22015947819193799,0.8164129071530101,0.446686320358644
-5076.50853395462,260.0,-3136.0,-15296.0,126.0,651.0,-3626.0,-0.1901077139298867,-0.0635046286356665,0.8325442563932746,0.516426452065314
-5076.52410697937,-724.0,-4504.0,-16536.0,4.0,-618.0,-1073.0,-0.09617676917900983,-0.11303058895257781,0.8323557745079067,0.5340018536247452
-5076.53974032402,580.0,-3088.0,-15328.0,397.0,-771.0,-1574.0,0.0366870449791897,-0.19243076703129408,0.8318005915067811,0.5193575229063424
-5076.555327653885,944.0,-4812.0,-17016.0,332.0,236.0,3311.0,-0.11997569181361595,0.036731180045990366,0.8673497357156319,0.4816233899431141
-5076.57089304924,-120.0,-3048.0,-16456.0,2870.0,225.0,3786.0,-0.28194131209413953,0.2621169085961945,0.8991970141268901,0.2079628633864582
-5076.586485624313,-792.0,-2184.0,-15120.0,854.0,846.0,-378.0,-0.35863109997876524,0.19496374386906387,0.8972319620594003,0.16836768978523745
-5076.602068901062,-1372.0,-3504.0,-14988.0,74.0,278.0,-3732.0,-0.310453683157319,-0.09848721181484511,0.9061332115268806,0.2698914275981626
-5076.617675304413,-600.0,-5268.0,-15584.0,-747.0,-20.0,-3134.0,-0.23229808486879455,-0.3134609935387312,0.830101764876341,0.39838532257750836
-5076.63333773613,-576.0,-6708.0,-16924.0,872.0,686.0,863.0,-0.28587111044252117,-0.2903316635619236,0.8637623112432804,0.29647917806043717
-5076.648960351944,-92.0,-4724.0,-15768.0,1334.0,508.0,2357.0,-0.3414345397697585,-0.15468647750107398,0.9192163141474037,0.12056498884744475
-5076.664554834366,-184.0,-4100.0,-15344.0,967.0,1443.0,2582.0,-0.45459541887319166,0.008166600377734014,0.8891570926049362,-0.051729840982885245
-5076.680150270462,-924.0,-3800.0,-15560.0,1183.0,689.0,1706.0,-0.4920311732990544,0.09505221684685816,0.8402434106232475,-0.20702997724645308
-5076.69576883316,-196.0,-3620.0,-14932.0,-350.0,943.0,-483.0,-0.5640683257901873,0.09133388001410145,0.8064527539791337,-0.15204934002255888
-5076.711373567581,-640.0,-4652.0,-16632.0,379.0,-309.0,2450.0,-0.5007911180040073,0.2355358523222307,0.7789676230545846,-0.2948568476936348
-5076.726938247681,1012.0,-2800.0,-15400.0,285.0,-683.0,1026.0,-0.43096245832285124,0.2736541515644827,0.7758491262281489,-0.3707329202793648
-5076.742559432983,-40.0,-4948.0,-16748.0,-540.0,59.0,2761.0,-0.32291449123803545,0.46894178253129776,0.7043884427476385,-0.42385936071815905
-5076.75815987587,-1360.0,-4680.0,-15920.0,431.0,-428.0,2522.0,-0.21532719081029483,0.5813860038798063,0.5826955306349323,-0.5254430834719315
-5076.773780822754,-768.0,-3948.0,-15212.0,-880.0,-184.0,-169.0,-0.168452310589642,0.5791576399358337,0.6331845365620461,-0.4850542132789621
-5076.789381742477,-24.0,-4452.0,-15520.0,-1261.0,147.0,-45.0,-0.11399796548861936,0.5978397276541104,0.6826042390747546,-0.4045288329650804
-5076.80496263504,40.0,-4360.0,-15836.0,-933.0,175.0,1684.0,-0.016055224724974986,0.7037184347954681,0.6173327880648622,-0.3513158451708534
-5076.820561170578,-536.0,-4760.0,-15556.0,-1382.0,673.0,1220.0,0.06885062365363949,0.7806753063154834,0.5755496887168928,-0.23355558984879535
-5076.836159944534,-560.0,-4228.0,-15604.0,-1370.0,-129.0,1018.0,0.1870941701594086,0.8119782575662128,0.5275758323295361,-0.1653808388958542
-5076.851846933365,228.0,-3360.0,-15468.0,-2242.0,260.0,58.0,0.3282347450945899,0.7671155599637928,0.5495841841477306,-0.041867580641824616
-5076.867473602295,-1156.0,-4404.0,-16076.0,-2066.0,-475.0,20.0,0.4809694468641244,0.6954561292317912,0.5332526511552858,0.025510263287766975
-5076.883074760437,332.0,-3840.0,-15284.0,-2285.0,-311.0,-262.0,0.6218444603719273,0.5764765472956261,0.5205799903251654,0.09990360952393508
-5076.898677825928,524.0,-4156.0,-16076.0,-1740.0,563.0,2500.0,0.6388634697034165,0.5704002604767172,0.39613171989868323,0.3310236704779825
-5076.914379358292,-872.0,-3244.0,-16724.0,-1748.0,537.0,2405.0,0.6166023714140271,0.5229060576752765,0.2475515335039484,0.5339372703538703
-5076.930060625076,-1928.0,-4244.0,-16252.0,-2508.0,-163.0,-158.0,0.7245667393837228,0.38322302187916124,0.12623377731407448,0.5587559298527978
-5076.945673942566,-80.0,-3216.0,-15636.0,-1612.0,-1275.0,1499.0,0.702237134494857,0.3517078195345396,-0.08109919433662949,0.6136672854997743
-5076.961350440979,1288.0,-2328.0,-14964.0,-2847.0,574.0,472.0,0.7441887215416979,0.13892808453913694,-0.20633567597045918,0.6199255784997367
-5076.97692656517,-1172.0,-4520.0,-16660.0,-1602.0,20.0,2292.0,0.6216260426729343,-0.007240523262663805,-0.31068137242611543,0.7190310999679327
-5076.992519378662,-920.0,-3048.0,-16132.0,-2022.0,-359.0,820.0,0.5489231479977417,-0.11459061271212949,-0.4485109404224809,0.6959815409849962
-5077.00811457634,-600.0,-3616.0,-16624.0,-2179.0,-269.0,2353.0,0.3596570818078287,-0.283828923731179,-0.5491918525729822,0.6989107486843603
-5077.023758172989,-684.0,-3552.0,-16020.0,-1458.0,-927.0,2067.0,0.14889616759462987,-0.36234179436168173,-0.5998551379891434,0.6976475963997971
-5077.039350509644,-392.0,-2224.0,-15472.0,-1587.0,-554.0,1380.0,-0.014085341980353149,-0.4141793835328308,-0.648634909698231,0.6383806038081268
-5077.054966688156,-1364.0,-2792.0,-15364.0,-1841.0,-1839.0,-736.0,-0.13985574616673038,-0.2607563762423939,-0.7549616794988329,0.5852173485136816
-5077.070632457733,-1032.0,-3372.0,-16452.0,-2351.0,-1778.0,-21.0,-0.29957477786577896,-0.13552160631304583,-0.8270434233813356,0.45594739009087637
-5077.086238861084,-284.0,-2872.0,-16272.0,-1983.0,-2380.0,-68.0,-0.47485854063720206,0.015360454384992634,-0.8154303975004374,0.33067610989799656
-5077.101838827133,92.0,-3660.0,-16504.0,-2623.0,-2126.0,2161.0,-0.6463434998823795,0.029894286068320522,-0.7609078916683233,0.04863735413372381
-5077.1174483299255,-1196.0,-3816.0,-16248.0,-1602.0,-2540.0,4011.0,-0.7583387021752952,-0.12392512241173874,-0.5819630121188432,-0.2662405478958605
-5077.133048772812,-2320.0,-3396.0,-15988.0,-1322.0,-3519.0,3585.0,-0.7905554311238063,-0.2734963964254624,-0.25492365340335416,-0.4850110951292
-5077.148755073547,-484.0,-1848.0,-15880.0,-2633.0,-2706.0,2767.0,-0.7373025697677197,-0.24824686917381455,0.10094362563500127,-0.6201361116746682
-5077.164346694946,240.0,-2540.0,-16436.0,-984.0,-1555.0,6034.0,-0.3664148043285545,-0.18936787631293903,0.3374029215569278,-0.8461910346455134
-5077.179939508438,-504.0,-400.0,-15576.0,-1076.0,-908.0,5362.0,0.034700697082507725,-0.05785044288495738,0.481382219863848,-0.8739109487121421
-5077.195536375046,-2416.0,-1004.0,-15844.0,-2349.0,-1198.0,1400.0,0.17413181307313688,-0.09434197057232258,0.6427495271579844,-0.7400342894775759
-5077.211137533188,-2448.0,-2436.0,-15976.0,-3996.0,-1481.0,-518.0,0.17868557696764412,-0.2619528449416704,0.8186411399093824,-0.4788307171209594
-5077.226730823517,-1488.0,-3928.0,-16608.0,-4339.0,-1592.0,1147.0,0.2226043794152476,-0.2901381622731855,0.9247283559777213,-0.10556800987340711
-5077.242347717285,-1052.0,-4084.0,-16504.0,-2044.0,-659.0,5406.0,0.2438989077292767,0.0894078697649451,0.9520767041809527,0.16146053693858214
-5077.2580308914185,-1440.0,-1884.0,-15712.0,-2826.0,27.0,5831.0,0.15785729059335454,0.44686830379939824,0.755119915200866,0.45297208361334007
-5077.273643732071,-2624.0,-2664.0,-15352.0,-3360.0,-615.0,3952.0,0.15755326728031743,0.6236958827743304,0.41844291627234653,0.6411598393545399
-5077.289246082306,-3264.0,-2880.0,-16480.0,-3951.0,-705.0,4943.0,0.10640030003410489,0.690148184311996,-0.07104838248878156,0.7122686201070741
-5077.304863214493,-2312.0,-2032.0,-16192.0,-3354.0,-1751.0,3203.0,0.09030188682771263,0.6866738645276115,-0.44856087432776326,0.5649050495723889
-5077.320472002029,-16.0,-800.0,-16360.0,-4626.0,-1596.0,5597.0,0.024378675858930172,0.4277795248775293,-0.8595559782763105,0.27852087618053906
-5077.3361139297485,-1256.0,-1404.0,-16152.0,-3433.0,-1636.0,5851.0,-0.09606649453226927,0.018257055021052293,-0.9949218552776258,-0.023841360304454395
-5077.3518006801605,-2840.0,-1032.0,-16136.0,-3747.0,-2290.0,4472.0,-0.24530355231599807,-0.30126030791260544,-0.8555558418999881,-0.3421879534530066
-5077.367443084717,-1328.0,412.0,-15976.0,-4590.0,-2366.0,3014.0,-0.40119313213494345,-0.4421993400242362,-0.5220255624815644,-0.6090920509460701
-5077.383062362671,-756.0,-460.0,-16336.0,-5420.0,-2211.0,4326.0,-0.4060716248863118,-0.47881770589747,0.00863357459058464,-0.7783090012142112
-5077.398666381836,-1772.0,-932.0,-16272.0,-4297.0,-2966.0,5367.0,-0.1831391404538709,-0.43884802275305856,0.527279945761191,-0.7041649856089295
-5077.414254188538,-2072.0,192.0,-16288.0,-4624.0,-3071.0,4468.0,0.047315062615551726,-0.29566278441748134,0.8761239175857336,-0.3778249380260854
-5077.42983341217,-2340.0,440.0,-16032.0,-6775.0,-3282.0,829.0,0.12578032839857098,-0.3073635813476073,0.9237702401917495,0.19067113359184193
-5077.445430755615,-2716.0,-1284.0,-16160.0,-7143.0,-4229.0,1440.0,0.202331745833646,-0.16065217226996809,0.6423718739989254,0.7215338659189588
-5077.461021900177,-2964.0,-1836.0,-16388.0,-7087.0,-4151.0,2204.0,0.15812638379256233,0.07953632482734503,0.12365255244916187,0.9764118321970774
-5077.4766228199005,-2484.0,-140.0,-15772.0,-6173.0,-3859.0,3972.0,-0.07763463339971605,0.2965719370442469,-0.3912079222983525,0.8677409241160182
-5077.492233514786,-3608.0,-2160.0,-16220.0,-8080.0,-3733.0,2610.0,-0.15048398140877653,0.4235404225965801,-0.8125861228650153,0.37104160776559214
-5077.507875919342,-3932.0,-2640.0,-17152.0,-6622.0,-3589.0,1423.0,-0.17144667795655225,0.43698862602007194,-0.8581509180741101,-0.20790377378805308
-5077.523482561111,-2628.0,-1856.0,-18388.0,-7295.0,-3070.0,1591.0,-0.07700645993364955,0.3036233185507727,-0.6055273010208896,-0.7315870237224414
-5077.539101839066,128.0,-1300.0,-18264.0,-7941.0,-1454.0,-2247.0,-0.07013218632742205,0.3092063732642232,-0.023768813187315687,-0.9481075565005206
-5077.554689645767,824.0,-3356.0,-19140.0,-8302.0,-273.0,2260.0,0.2720618433161334,0.2662719664004354,0.4828139471299237,-0.7886521956968715
-5077.5702912807465,-6016.0,-5952.0,-19064.0,-2673.0,-957.0,13283.0,0.8308968187453349,0.4492583130469764,0.21644546192626352,-0.24683761214327382
-5077.585904836655,-7600.0,-2540.0,-14536.0,-4933.0,-1017.0,5915.0,0.9691537842764943,0.15030378966574964,0.014320393846291949,0.19479383859545338
-5077.601528167725,-4748.0,-3144.0,-15860.0,-9240.0,-1148.0,6836.0,0.6871104454840019,-0.4247764186570599,-0.23187506119918508,0.5419208298760373
-5077.617144346237,740.0,160.0,-16616.0,-4244.0,629.0,15385.0,-0.10794859454555598,-0.5949045656781845,0.1021793569437965,0.78993356536195
-5077.6327402591705,-756.0,416.0,-17580.0,-5638.0,1601.0,13833.0,-0.8299344031552606,-0.3208690052124085,0.2526758423060637,0.3800090612975459
-5077.648346662521,-6600.0,-3248.0,-22232.0,-5878.0,856.0,7609.0,-0.9680555143957087,0.18663606917458303,0.15977279642286332,-0.05008145619227228
-5077.66397356987,-8640.0,-9800.0,-20200.0,-5864.0,-1335.0,1362.0,-0.746587675473638,0.6123661547526343,0.2429773154527162,-0.0926097161194959
-5077.6795654296875,-4948.0,-15928.0,-15316.0,-3563.0,40.0,-12202.0,-0.43892259640769443,0.39262606931250466,0.6168145875836427,0.5222370042451618
-5077.695146083832,3568.0,-13312.0,-19120.0,6886.0,984.0,8496.0,-0.8050013027177407,0.390971935970215,0.43455548795664195,-0.1013675282978108
-5077.710808038712,1136.0,-7956.0,-19156.0,16136.0,5308.0,20146.0,-0.5497438422602309,0.02735742043299341,-0.30637161374609867,-0.7766400155379725
-5077.726428747177,-10936.0,-3196.0,-17028.0,19318.0,985.0,7047.0,-0.04471679962971832,-0.4964796152694965,-0.8170340365235393,-0.2897650472620533
-5077.742033481598,-9556.0,2240.0,-14596.0,11116.0,-89.0,-14371.0,0.03573493340909153,0.25745842848429384,-0.9177347586652286,0.3003349544663761
-5077.757616519928,-6272.0,-1428.0,-15068.0,7421.0,-940.0,-24382.0,0.17729168413316632,0.9254416392733117,-0.07311327237827027,0.32677190888828295
-5077.773223400116,-776.0,-4624.0,-14944.0,6891.0,572.0,-22029.0,0.11220169602314765,0.5140802138375471,0.8497025065761067,0.03373371412329779
-5077.788863182068,884.0,-7092.0,-16076.0,10362.0,2687.0,-11526.0,-0.30511090513282324,-0.14548067021869507,0.8381306685055919,-0.42811177590918736
-5077.804493188858,-928.0,-7564.0,-16556.0,14623.0,3641.0,-1937.0,-0.2757548498267054,-0.32545809122617053,0.10266612651073471,-0.8986077899282592
-5077.820100069046,-3108.0,-2828.0,-17228.0,18480.0,3118.0,6947.0,0.3810266909929245,-0.2306157486163332,-0.608856245971811,-0.6564519091161394
-5077.835746049881,-5808.0,-444.0,-14756.0,15816.0,2934.0,313.0,0.5064200717241785,0.25915318984292873,-0.8186581783760589,0.07859466983902683
-5077.851383686066,-7596.0,-1708.0,-15380.0,13009.0,1052.0,-7833.0,0.2049636404910035,0.8339111672069711,-0.30422870724247636,0.41234326109899433
-5077.866983652115,-2740.0,492.0,-16292.0,13472.0,1111.0,-2054.0,-0.43175273670325454,0.6998570772949916,0.2247347669119929,0.5227656551939641
-5077.882637500763,-2248.0,812.0,-15656.0,15067.0,1720.0,3977.0,-0.924731339738906,0.07782480365375,0.3567145692437559,0.10756377331697385
-5077.898234605789,-4788.0,560.0,-15564.0,15609.0,439.0,3999.0,-0.6267915077245364,-0.6150176696903061,0.25545869109388,-0.4045077613071344
-5077.914217710495,-3892.0,2152.0,-15184.0,13529.0,97.0,-517.0,0.05108648273744728,-0.8807029594123954,-0.16482452257276473,-0.44111828948982057
-5077.929936170578,-2488.0,1120.0,-16672.0,11475.0,-169.0,-2055.0,0.596825950684825,-0.5654080134530218,-0.5364482433036092,-0.19061963479330776
-5077.945548534393,-1388.0,168.0,-17072.0,11663.0,-196.0,-1474.0,0.7945917669927939,0.07513487103109427,-0.5678583528993244,0.2012847883593713
-5077.961200475693,-1132.0,392.0,-16836.0,12002.0,-323.0,228.0,0.4802889534360765,0.6225739349040362,-0.2631624577892162,0.558989926202362
-5077.976797819138,708.0,2980.0,-16536.0,11773.0,611.0,2824.0,-0.19451128871858536,0.7017586951367691,0.12587948629809567,0.6736872028547833
-5077.9923985004425,-580.0,3132.0,-16368.0,9469.0,1334.0,3171.0,-0.7325616789988378,0.3737575950715104,0.3498529496919309,0.44862184541172306
-5078.008067369461,-3416.0,1704.0,-16168.0,6686.0,826.0,576.0,-0.8597978996555584,-0.05879883384139381,0.46528744354062374,0.2019848107413366
-5078.023681640625,-3808.0,92.0,-15864.0,4024.0,777.0,-1929.0,-0.7779429681626825,-0.4211267416732076,0.43548492461326305,0.16676296401936347
-5078.03932261467,-2620.0,-716.0,-16848.0,4069.0,458.0,1294.0,-0.6221361551002158,-0.6133567529120778,0.4787748574290625,-0.08668756582148157
-5078.054908514023,-2252.0,1252.0,-16756.0,6686.0,234.0,8550.0,-0.15179207815326753,-0.448269481298173,0.6338907825332902,-0.611715712538032
-5078.070494174957,-2732.0,6944.0,-15380.0,6449.0,-91.0,9180.0,0.4256514978564272,-0.022017427180913453,0.4645126748686933,-0.7762499662861473
-5078.086091756821,-3752.0,9048.0,-14772.0,-176.0,-249.0,-1207.0,0.3515965153791188,-0.09365681323382209,0.46235161004244435,-0.8086032898766278
-5078.1016936302185,-1272.0,9412.0,-15496.0,-6306.0,127.0,-7941.0,-0.19884295750416792,-0.4482542922104314,0.63391033887259,-0.5980696030031613
-5078.1173803806305,80.0,5284.0,-16608.0,-10370.0,1080.0,-6950.0,-0.693000958488268,-0.4025553243726433,0.5969584699908598,0.036598735767093396
-5078.132991313934,-1984.0,128.0,-16920.0,-8966.0,480.0,-1683.0,-0.8034129602650825,0.0393621010230969,0.37563264140072294,0.46030246468540703
-5078.148635149002,-2860.0,160.0,-18032.0,-6622.0,-243.0,4839.0,-0.7862408592743799,0.5464409752693585,0.08971293815064213,0.2741881844327651
-5078.164239406586,-3812.0,1988.0,-17852.0,-4699.0,255.0,8311.0,-0.5859396013710954,0.7128637229684274,-0.3353241740774436,-0.18988889988610524
-5078.179858922958,-5776.0,3680.0,-17836.0,-7229.0,-1084.0,481.0,-0.13455602049123283,0.885094009745413,-0.160214557008523,-0.41573376935836287
-5078.195441961288,-4200.0,2644.0,-18512.0,-9999.0,-1733.0,-6386.0,0.26392192588764224,0.710999632936665,0.4947368901179518,-0.42433494854431103
-5078.211070537567,696.0,1932.0,-19140.0,-11920.0,-574.0,-4267.0,0.5835940619277605,0.1550048018776919,0.7965846433908945,-0.029058358372693945
-5078.226693868637,-804.0,-3508.0,-19604.0,-10535.0,108.0,-734.0,0.5268551311387231,-0.3178754899527889,0.6169043466123276,0.4907217855474634
-5078.242299318314,-1040.0,-5288.0,-18324.0,-7999.0,-582.0,-1074.0,0.3121934563312992,-0.5871145298984094,0.1780604838420887,0.7253455994903452
-5078.257935523987,2152.0,-5748.0,-17392.0,-7015.0,-445.0,1759.0,-0.12819967120961942,-0.6110681714026506,-0.1589014305440917,0.764794658435457
-5078.273536205292,1120.0,-6224.0,-18664.0,-537.0,262.0,14849.0,-0.6986882073226993,-0.5060320503551392,0.3627519246721195,0.35238812991960955
-5078.289177179337,-932.0,776.0,-16936.0,4370.0,2164.0,23144.0,-0.5605905393856941,-0.046479075395532574,0.6048947768355258,-0.5636313082669667
-5078.304769515991,-6052.0,3768.0,-16252.0,1580.0,2984.0,14315.0,-0.004533453226349881,0.4785989689487362,0.27007315639151663,-0.8354537479237102
-5078.320370197296,-12108.0,636.0,-17744.0,-543.0,1533.0,-637.0,-0.06362970621949089,0.56921946720135,0.33186108701524797,-0.7495389766853293
-5078.3360159397125,-9812.0,1500.0,-16720.0,-1416.0,-505.0,-11359.0,-0.5102555619429114,0.15230134219027297,0.7012051054090378,-0.4740832867984962
-5078.3516497612,-5988.0,-2368.0,-14320.0,-5811.0,-138.0,-19200.0,-0.6044881035151487,-0.38164829878074896,0.5967613012436901,0.3644374542831138
-5078.367295503616,-2920.0,-5328.0,-16220.0,-2197.0,-962.0,-13364.0,-0.13047325511933502,-0.6006324970887793,0.08555888969715106,0.7841536899953051
-5078.382887125015,3460.0,-2928.0,-15668.0,-905.0,773.0,-6291.0,0.21553342260259242,-0.6027215682385864,-0.274931368314788,0.7174153592151412
-5078.398477315903,2368.0,-4896.0,-16724.0,-404.0,1329.0,1079.0,0.15678082558586065,-0.7112471848978328,-0.21610424262595807,0.6502662308797722
-5078.414062738419,40.0,-4988.0,-16612.0,1316.0,1042.0,4999.0,-0.023211711796984925,-0.7693052835442011,0.1662288066617569,0.6164402493204337
-5078.4296588897705,-1356.0,-3376.0,-15372.0,-230.0,1136.0,4598.0,-0.27943003405170813,-0.7054428906151649,0.42526376725575654,0.49337603550418174
-5078.445291757584,-2836.0,-2768.0,-15952.0,-184.0,868.0,4790.0,-0.48686668236247443,-0.5160515064522796,0.6360415164918338,0.30348453929724045
-5078.460896015167,-3480.0,-1768.0,-16184.0,-88.0,892.0,2652.0,-0.5929141839087958,-0.3777661881920031,0.6949474211363776,0.15097536035575254
-5078.4765503406525,-4676.0,-784.0,-16096.0,-125.0,664.0,-1244.0,-0.6159890816947831,-0.45218181780872124,0.6134241230576402,0.19949912312334553
-5078.492144823074,-5096.0,-312.0,-16008.0,-1182.0,600.0,-6556.0,-0.5012163063497661,-0.6479079145634905,0.2608134303594935,0.5108560492342241
-5078.507781744003,-3976.0,-2204.0,-15228.0,-3670.0,40.0,-11321.0,-0.14199753336898452,-0.518168372112202,-0.3777605993366547,0.7540790198968049
-5078.52345085144,-1772.0,-4784.0,-16288.0,-2906.0,235.0,-7075.0,0.16630223691055832,-0.22001380090583308,-0.7417641967531695,0.6113291828668399
-5078.539114952087,1728.0,-3988.0,-16796.0,781.0,1024.0,3503.0,0.05769087841908059,-0.46600236899515773,-0.5878204510355861,0.6587720941133253
-5078.554720163345,356.0,-2904.0,-16640.0,3316.0,2267.0,9600.0,-0.17993217078117194,-0.7937686658784351,0.0032688304841700542,0.5809862595060317
-5078.570307016373,-2812.0,-1632.0,-16612.0,4654.0,792.0,7701.0,-0.19484821954463286,-0.7107297969543629,0.596999020776918,0.3170007827323109
-5078.58588385582,-4000.0,-1020.0,-15164.0,768.0,690.0,-574.0,-0.16615242652755619,-0.7688041148700939,0.5679239538556602,0.24247883774624637
-5078.601508140564,-4556.0,-3016.0,-15628.0,-943.0,-303.0,-5794.0,-0.08142998959781729,-0.9217612240008759,0.1455833577082711,0.35004412390567585
-5078.617092132568,-968.0,-2648.0,-16100.0,-549.0,625.0,-2141.0,-0.0666599419612582,-0.9454485236787615,-0.04692788907908557,0.31540658591404347
-5078.632721662521,-996.0,-3824.0,-16164.0,657.0,1219.0,1803.0,-0.055822629965777956,-0.9713456562901758,0.11062169711754773,0.20281590203123973
-5078.64834189415,-3032.0,-3232.0,-16528.0,1990.0,589.0,2479.0,0.06116963224621564,-0.931204909152745,0.33979963526632234,0.11684135027277287
-5078.663966417313,-2968.0,-1820.0,-15476.0,-310.0,674.0,-1876.0,0.03473795135769147,-0.9803033127467118,0.18491731662065433,0.060035620818891786
-5078.679568529129,-3048.0,-2824.0,-16108.0,-802.0,-108.0,-3212.0,-0.014402049041295752,-0.9933302612075269,-0.09071671540190729,0.06969971807323265
-5078.695160150528,-1360.0,-2528.0,-15592.0,-1296.0,616.0,-3409.0,-0.09594452178773615,-0.9216575454460737,-0.375828054124826,0.009761731095873919
-5078.710731744766,-2264.0,-3148.0,-16040.0,-1049.0,103.0,-3768.0,-0.1641517566748391,-0.7470499263431691,-0.644181094229408,-0.001151593953034217
-5078.726326704025,-1572.0,-2036.0,-15668.0,-1328.0,486.0,-4302.0,-0.20790297328066426,-0.4521334310670921,-0.8663388339043333,-0.04252927323430948
-5078.741974115372,-2560.0,-2568.0,-16028.0,-1463.0,342.0,-4712.0,-0.23597886572560164,-0.06249701775699523,-0.9668955717668846,-0.07430377513915193
-5078.757583856583,-2116.0,-2084.0,-16148.0,-1666.0,431.0,-5505.0,-0.2180801403408246,0.3922428909229885,-0.8888269803894489,-0.092591391830327
-5078.773163795471,-2080.0,-2480.0,-16256.0,-1889.0,257.0,-5906.0,-0.1591455877065481,0.7811953514722846,-0.5947253280336093,-0.10348086270874869
-5078.788757801056,-1676.0,-2404.0,-16268.0,-1204.0,244.0,-5321.0,-0.10135562336309362,0.9716190502119922,-0.20268037654467974,-0.06785369438380937
-5078.804329395294,-1648.0,-2568.0,-15932.0,-1432.0,358.0,-5387.0,-0.0048445680363693715,0.9723339251599957,0.23316175821394813,-0.013373954167610719
-5078.8199281692505,-1676.0,-3240.0,-16116.0,-1064.0,66.0,-4869.0,0.07167499304346418,0.8012712374049498,0.5938170461194795,0.014436593008598108
-5078.835523366928,-836.0,-2548.0,-16008.0,-827.0,437.0,-3325.0,0.10606802787398933,0.5967363192378703,0.7928153630279623,0.06402451805520497
-5078.851115703583,-1284.0,-2908.0,-16164.0,-465.0,398.0,-2383.0,0.1132798277834469,0.4158637679451081,0.8975899026382732,0.09250607444738486
-5078.866723060608,-2020.0,-2992.0,-16084.0,-650.0,123.0,-2823.0,0.14531273944850923,0.1815845739946043,0.965633514974685,0.1160308795054253
-5078.882319688797,-1768.0,-2584.0,-15768.0,-1110.0,56.0,-2778.0,0.1801335164036077,-0.064999961352116,0.9667858513036132,0.16926913189191592
-5078.897956371307,-1540.0,-3320.0,-15844.0,-823.0,304.0,-1203.0,0.16606397166224285,-0.18243198133250169,0.9447218230200206,0.21596760547033064
-5078.9137172698975,-2144.0,-3192.0,-16060.0,-384.0,308.0,-947.0,0.15167136171703186,-0.27075627268696634,0.9229497039608385,0.22770745001901696
-5078.929401874542,-1804.0,-2392.0,-16196.0,-300.0,199.0,-715.0,0.1423360582377811,-0.3355053495743334,0.9006066375472989,0.23682122231354927
-5078.945006608963,-1900.0,-2372.0,-16016.0,-466.0,170.0,-1724.0,0.14908264625552547,-0.4745812821130055,0.8325389196952327,0.2437743186763536
-5078.960705757141,-1664.0,-2392.0,-15856.0,-1127.0,-91.0,-2788.0,0.16274710842980403,-0.6673264670337637,0.6692984113704172,0.28324618555420755
-5078.976322412491,-1280.0,-2440.0,-15980.0,-1666.0,-96.0,-2482.0,0.12831226119521355,-0.8066629812994801,0.46664064235408276,0.33923046610140245
-5078.991928815842,-1012.0,-2860.0,-16472.0,-1451.0,-70.0,-948.0,0.05641418400980347,-0.849885931314114,0.35218937336031414,0.38790976900423413
-5079.007516384125,-1256.0,-3160.0,-16204.0,-532.0,3.0,423.0,0.0025846846317636426,-0.8382686554494452,0.3649430737289981,0.40511175449937864
-5079.023106575012,-1380.0,-2636.0,-15908.0,-101.0,78.0,1313.0,-0.05328208161407848,-0.7941252957057254,0.45446311101150016,0.3999866438131573
-5079.0386872291565,-1596.0,-1824.0,-15644.0,-452.0,74.0,795.0,-0.11482377989919189,-0.7607777179924595,0.4919079263686633,0.40750381022946225
-5079.054311037064,-2204.0,-2256.0,-16260.0,-409.0,-99.0,49.0,-0.13922903126819092,-0.7506829930609377,0.4813301218753161,0.4305945129198541
-5079.069909572601,-1920.0,-2140.0,-15968.0,-880.0,-187.0,-865.0,-0.15545558205533558,-0.7649290871364506,0.39161153297735,0.4871934532601636
-5079.085556983948,-1664.0,-2884.0,-16060.0,-1017.0,-160.0,-273.0,-0.2052477015609922,-0.7506040767453502,0.330942222772559,0.5338015981275704
-5079.101187705994,-920.0,-2508.0,-16316.0,219.0,271.0,2171.0,-0.2943588580326691,-0.6920069015477456,0.469974361102236,0.46217249032643287
-5079.116787195206,-1536.0,-1780.0,-16308.0,725.0,428.0,3216.0,-0.38191130170005744,-0.5725398735715841,0.6554821413731897,0.31094213793762304
-5079.132375240326,-2120.0,-2164.0,-16004.0,396.0,224.0,1853.0,-0.4192095995147888,-0.4793330505633476,0.7412480923026096,0.21226022700927202
-5079.148009300232,-2284.0,-2264.0,-15808.0,196.0,-127.0,452.0,-0.4104995539200127,-0.4545499711372757,0.7677950946675063,0.1880561952584592
-5079.163630485535,-1240.0,-2244.0,-16028.0,-407.0,83.0,946.0,-0.44566680543188747,-0.37649263573459674,0.7925897136016632,0.17730183210160505
-5079.179292201996,-1648.0,-3476.0,-16520.0,684.0,94.0,3261.0,-0.46079059231229147,-0.17190850117347614,0.8707005765832767,-5.655374331650738e-05
-5079.194892168045,-1216.0,-2788.0,-15920.0,1463.0,191.0,4918.0,-0.41342678653252607,0.13045634007701898,0.8550106171793844,-0.2846335890607899
-5079.210476636887,-1484.0,-2432.0,-16064.0,1723.0,386.0,5790.0,-0.28097281429461995,0.45090934734827753,0.6477154358540951,-0.5460766908206677
-5079.226052761078,-1980.0,-2368.0,-16112.0,1725.0,322.0,5565.0,-0.09064922806772541,0.6582319414297421,0.3019251162699113,-0.6836334199684497
-5079.241629123688,-2004.0,-2356.0,-16148.0,1746.0,8.0,5216.0,0.10821423208330036,0.7054845609635925,-0.0917691156723583,-0.6943771623731171
-5079.257246732712,-2032.0,-2704.0,-16056.0,1553.0,171.0,4956.0,0.2861577910603627,0.6293733192219937,-0.44567676425102465,-0.5686608527705076
-5079.272882699966,-1584.0,-2388.0,-16192.0,2197.0,87.0,6047.0,0.40877050632927725,0.39546092811010025,-0.771438720855892,-0.285306199473179
-5079.288455247879,-1380.0,-2100.0,-16220.0,2416.0,337.0,6641.0,0.43665260599715167,0.03659990126162435,-0.8924645246163877,0.10724747644947494
-5079.304085969925,-1964.0,-2656.0,-15988.0,2603.0,18.0,6242.0,0.319518178862886,-0.3018954840403707,-0.7642912317034088,0.47183277041072635
-5079.319709300995,-1956.0,-2540.0,-15868.0,2374.0,116.0,5710.0,0.13597159234293887,-0.5468570583389937,-0.4514960958810272,0.6918167092696867
-5079.335328102112,-2008.0,-2716.0,-16004.0,2087.0,113.0,5887.0,-0.10134325458631344,-0.6682197235346686,-0.03809804127765512,0.7360438064951779
-5079.350960731506,-2092.0,-2564.0,-16208.0,2806.0,248.0,6376.0,-0.29592071266310654,-0.6240306043918493,0.4371612068054235,0.576113544246035
-5079.366593837738,-2316.0,-2364.0,-15848.0,2384.0,219.0,5371.0,-0.3953029826074589,-0.4376223413284529,0.7508312890404752,0.2974468250119146
-5079.38219165802,-2864.0,-2752.0,-15648.0,1682.0,248.0,3249.0,-0.4108767925184434,-0.27550923874862593,0.8668220678118914,0.06240531618560703
-5079.3978266716,-2816.0,-2984.0,-15888.0,1079.0,-87.0,1726.0,-0.38147837609517876,-0.1803489872702987,0.9032633329753095,-0.07787067910772286
-5079.413421869278,-2196.0,-2908.0,-15796.0,225.0,53.0,949.0,-0.3740084127433558,-0.11225995022729021,0.9117230962636504,-0.12757902065615728
-5079.428994894028,-2560.0,-2964.0,-16084.0,286.0,-87.0,881.0,-0.35301253323814846,-0.05227535038998424,0.9171130532432239,-0.17763188533954416
-5079.4445695877075,-1936.0,-2412.0,-15656.0,87.0,76.0,478.0,-0.3506712101557006,-0.01548188692933395,0.914889381933296,-0.19941773334073173
-5079.4601793289185,-2720.0,-2956.0,-15852.0,-430.0,-72.0,-1094.0,-0.3623413669454494,-0.09040935544529043,0.9183885223584612,-0.13075704282489936
-5079.475799322128,-2628.0,-2804.0,-15844.0,-601.0,-132.0,-1836.0,-0.37188443526239084,-0.21696838527865286,0.9022701710964052,-0.02313492919397794
-5079.4914290905,-2560.0,-2660.0,-15716.0,-1490.0,76.0,-3076.0,-0.39480625012558546,-0.3935454456622347,0.8094454214913801,0.1845213177032093
-5079.5070271492,-2804.0,-3080.0,-16024.0,-1620.0,-155.0,-4019.0,-0.35028272380572834,-0.5791455143816389,0.6086772609038206,0.41401023976888474
-5079.522655963898,-1872.0,-2812.0,-15816.0,-1767.0,-62.0,-4233.0,-0.2628770952500681,-0.6943294359864346,0.30905254178137054,0.5943810171380983
-5079.538233995438,-2008.0,-2892.0,-15724.0,-1913.0,-45.0,-4208.0,-0.14760222511157922,-0.7064992833402505,-0.04087689170354159,0.69094241837253
-5079.553852558136,-2236.0,-2900.0,-15896.0,-1977.0,13.0,-4303.0,-0.009151467260176314,-0.6161494914748589,-0.39332810851707656,0.6823262078013989
-5079.569453716278,-2332.0,-2660.0,-16380.0,-1669.0,-82.0,-4259.0,0.14107003703781398,-0.4308556001754789,-0.670294564432538,0.5875099091417708
-5079.58505654335,-2000.0,-2248.0,-15916.0,-1851.0,61.0,-4699.0,0.28903163182856073,-0.1665706535940599,-0.8612898218618199,0.3832685428273518
-5079.600714206696,-2304.0,-2760.0,-15924.0,-2295.0,-75.0,-5741.0,0.3888242064497367,0.1843532707156077,-0.9007579992554886,0.05886114875229433
-5079.616319179535,-2300.0,-3028.0,-15924.0,-2618.0,-225.0,-6041.0,0.3849222888663188,0.4955159796592083,-0.7150464362492115,-0.30823260606819575
-5079.631942749023,-1584.0,-2880.0,-15956.0,-2580.0,-101.0,-5085.0,0.3161956509035276,0.6477861237710208,-0.3843149645541293,-0.5767975868700982
-5079.647527456284,-1348.0,-3144.0,-16412.0,-1492.0,-126.0,-2496.0,0.2622018401912643,0.6631444221229119,-0.16638107860018247,-0.6810337782308773
-5079.663153886795,-1452.0,-2428.0,-16324.0,-503.0,222.0,-949.0,0.23693429936519392,0.6757586578773699,-0.07615740660677536,-0.6938389031374869
-5079.678737640381,-2212.0,-2296.0,-15828.0,-862.0,55.0,-2286.0,0.14631801735164432,0.6618157419621145,0.10953303527734927,-0.7270443423013142
-5079.6943237781525,-2380.0,-2500.0,-15816.0,-1413.0,-204.0,-3469.0,0.009225028410980022,0.5682294137157347,0.3772904036221577,-0.7312196548053933
-5079.710004091263,-1704.0,-2376.0,-16064.0,-1469.0,0.0,-2980.0,-0.1038213302413759,0.45055958263719087,0.5944373346683127,-0.6579220691184814
-5079.7255859375,-1740.0,-2864.0,-16196.0,-1126.0,38.0,-1881.0,-0.1664481921741027,0.35898341905599385,0.7197867205148564,-0.570379681558968
-5079.74117231369,-1660.0,-2560.0,-16152.0,-224.0,69.0,-406.0,-0.18372460815378272,0.3399841369720181,0.7421925052174141,-0.5475457425322836
-5079.756803512573,-1592.0,-2296.0,-16080.0,-567.0,261.0,-592.0,-0.2113865795674116,0.3223860888118073,0.7806181153013378,-0.49195353620316945
-5079.7724051475525,-2200.0,-2672.0,-16192.0,-321.0,-28.0,-1010.0,-0.24262104604637424,0.2572977670700704,0.819971805397703,-0.4500879085567069
-5079.788009643555,-1684.0,-2096.0,-16032.0,-453.0,56.0,-918.0,-0.27125656076215715,0.2026647433092825,0.853923054386464,-0.39517375577100367
-5079.803587675095,-1684.0,-2596.0,-16184.0,-447.0,205.0,-736.0,-0.3028973601556365,0.16504365397991286,0.8750337001925347,-0.33960242198645535
-5079.819214820862,-1656.0,-2396.0,-16220.0,-130.0,179.0,48.0,-0.3129730714014392,0.17747321294315893,0.8734315144813731,-0.32812879297001146
-5079.834802865982,-1744.0,-2400.0,-16080.0,-373.0,141.0,141.0,-0.3134462328304835,0.2023668740004583,0.8776108400767907,-0.30099554948764706
-5079.8504185676575,-1904.0,-2708.0,-16108.0,-194.0,71.0,299.0,-0.30718922961432005,0.23238563747311294,0.8751674306668817,-0.29276895498857824
-5079.866040468216,-1676.0,-2308.0,-15892.0,-137.0,132.0,559.0,-0.29955525948793654,0.2818128211945087,0.8627692148417913,-0.2940705055676034
-5079.881623029709,-1956.0,-2692.0,-16048.0,-219.0,196.0,944.0,-0.28338659368807734,0.3623671964500599,0.8370510969481583,-0.29618830927752243
-5079.897206783295,-1964.0,-2464.0,-16192.0,117.0,150.0,1278.0,-0.2630901155873685,0.4539069400624612,0.7850367803383893,-0.32934682989106445
-5079.912926673889,-1540.0,-2208.0,-16020.0,108.0,146.0,1381.0,-0.23572272307090947,0.5462960067305007,0.7186965074807926,-0.3598205121908072
-5079.9285798072815,-1912.0,-2304.0,-16028.0,171.0,116.0,1177.0,-0.2128401515981348,0.6169936346327963,0.6513976693787261,-0.38690955146940775
-5079.94417142868,-1840.0,-2264.0,-15984.0,108.0,162.0,980.0,-0.19387233262771741,0.6737165978576833,0.5898344804023523,-0.40076770097032943
-5079.959871768951,-1872.0,-2472.0,-16144.0,342.0,114.0,1600.0,-0.16209612662230222,0.7467791528858654,0.47711099199681106,-0.43406317957750673
-5079.977092266083,-1836.0,-2272.0,-16376.0,658.0,217.0,2211.0,-0.12757965423487178,0.8212610693814664,0.29906976929691004,-0.46884001624905475
-5079.992924928665,-2032.0,-2440.0,-15972.0,670.0,139.0,1865.0,-0.1013558876337043,0.8555532757805848,0.13451659626461338,-0.48955169458646286
-5080.00853395462,-1940.0,-2440.0,-15980.0,712.0,141.0,1950.0,-0.07167139327812877,0.8642031415079335,-0.04199690477135121,-0.4962382508261696
-5080.024156093597,-2036.0,-2524.0,-16060.0,838.0,203.0,2496.0,-0.02538354124776526,0.8368411066481027,-0.26092758224416085,-0.48059279528715226
-5080.039775848389,-1844.0,-2548.0,-16168.0,1155.0,164.0,2922.0,0.01591304108519316,0.747135459402069,-0.5044601924277667,-0.43249889558612814
-5080.0554230213165,-1768.0,-2340.0,-15932.0,1332.0,11.0,3222.0,0.048866945602343496,0.581372473491479,-0.7317192773592407,-0.3524272518332934
-5080.071027040482,-1884.0,-2576.0,-16048.0,1342.0,8.0,3180.0,0.07562180385738379,0.36802811261505913,-0.8946482655846657,-0.24174600719081646
-5080.086662530899,-2140.0,-2548.0,-16072.0,1382.0,288.0,3089.0,0.11383215158448362,0.13623053511805913,-0.9790575006803182,-0.09964884810524884
-5080.102246284485,-2180.0,-2504.0,-15964.0,1151.0,286.0,2792.0,0.1436731300122836,-0.08545689632373123,-0.9855006819219839,0.029044044389390285
-5080.117821931839,-2156.0,-2584.0,-16080.0,1072.0,212.0,2333.0,0.15969025394427883,-0.26657311609415885,-0.9393107743302631,0.14537216307857387
-5080.133429527283,-1896.0,-2508.0,-15688.0,1049.0,1.0,2206.0,0.15245291481973994,-0.4233340296817461,-0.8555039845715383,0.2562407860950336
-5080.1490314006805,-2300.0,-2656.0,-15928.0,966.0,163.0,1985.0,0.1528571432518255,-0.5521881895463864,-0.7447193495003032,0.3422221319000571
-5080.164712190628,-2140.0,-2768.0,-16044.0,695.0,110.0,1270.0,0.15417117391541066,-0.6238443702291012,-0.6561517911117392,0.3956188543129068
-5080.180307149887,-2088.0,-2776.0,-15920.0,586.0,186.0,1064.0,0.15895041018278316,-0.6795183076089989,-0.5723151315152406,0.43063328594712674
-5080.195922136307,-1960.0,-2492.0,-16044.0,483.0,203.0,1020.0,0.15849780207531355,-0.7278760911113565,-0.48852357187779527,0.45433419686999943
-5080.211512327194,-2136.0,-2532.0,-15828.0,240.0,219.0,-78.0,0.18599299278009507,-0.7297360151502573,-0.4808151355675705,0.44911998423413085
-5080.227086782455,-2148.0,-2384.0,-15840.0,-63.0,122.0,-1128.0,0.23006019908196504,-0.6849868109507061,-0.5505131411974916,0.41809168251810386
-5080.242660284042,-2288.0,-3056.0,-16028.0,-761.0,-78.0,-1571.0,0.23526132540005693,-0.6149608767983428,-0.6661215642002953,0.3503673650410003
-5080.258285045624,-1708.0,-2844.0,-15996.0,-229.0,25.0,-919.0,0.25147122630179963,-0.5651819181045693,-0.7195563963810008,0.31554748330021115
-5080.2738580703735,-1840.0,-2896.0,-15956.0,-504.0,193.0,-305.0,0.2465415641413922,-0.5616760959706487,-0.7432322245295727,0.2671012556816407
-5080.289421319962,-2312.0,-2636.0,-16040.0,-134.0,99.0,-771.0,0.2634815279000618,-0.5157370202001904,-0.7802422124083779,0.23625177338288295
-5080.304990530014,-2276.0,-2232.0,-15832.0,-275.0,73.0,-2060.0,0.29347493232059896,-0.3772341253001553,-0.8629304835268692,0.16406663100256005
-5080.320583105087,-2368.0,-2500.0,-15620.0,-1179.0,-23.0,-3756.0,0.28977737816829074,-0.11758281790537993,-0.9496515916521171,-0.019110376970182575
-5080.336181402206,-2160.0,-2572.0,-15940.0,-1118.0,-66.0,-3854.0,0.25115516056355996,0.16366179733952937,-0.9335034258557467,-0.1967415953210496
-5080.351819753647,-1736.0,-2452.0,-16040.0,-1066.0,185.0,-3639.0,0.20764014295475725,0.41763691230143335,-0.8156880016245847,-0.3422251664076513
-5080.3674647808075,-1968.0,-2848.0,-15952.0,-1320.0,31.0,-4027.0,0.12896545678457716,0.6390905514760057,-0.589987188781506,-0.476283838739187
-5080.383096694946,-1920.0,-3060.0,-15844.0,-1500.0,-80.0,-3844.0,0.04572188102402444,0.7686228204435068,-0.29564033480432783,-0.5654425363605734
-5080.398684263229,-1624.0,-3096.0,-16024.0,-1176.0,-77.0,-3037.0,-0.026284864582759405,0.806705037534009,-0.03293059304541098,-0.5894503069409637
-5080.414274692535,-1472.0,-2760.0,-16112.0,-948.0,69.0,-1779.0,-0.05012450284333124,0.805345930333685,0.13880275785663432,-0.57414219590714
-5080.429871559143,-2052.0,-2680.0,-16232.0,-397.0,-66.0,-1269.0,-0.08445001928584808,0.7833122075910148,0.2465609195115272,-0.5643561753459788
-5080.445448637009,-1800.0,-1924.0,-15896.0,-501.0,29.0,-2003.0,-0.1470786702201852,0.7336875117777065,0.40152970583469216,-0.5280571892891954
-5080.461069822311,-2076.0,-2092.0,-16128.0,-828.0,-60.0,-2812.0,-0.214553836816452,0.6230986450734446,0.6011973909716066,-0.45196949753706844
-5080.47672867775,-1848.0,-2260.0,-15932.0,-776.0,-123.0,-3419.0,-0.2874418742222283,0.433664777169607,0.7841790010172802,-0.33819421099360675
-5080.492321968079,-1556.0,-3080.0,-16048.0,-1222.0,-138.0,-3167.0,-0.31157965204118127,0.23356764070338928,0.9047237964754237,-0.17274006408834314
-5080.507930994034,-1316.0,-3000.0,-16112.0,-615.0,-91.0,-1595.0,-0.3121371037140989,0.12170120495458868,0.9386607889698448,-0.0817017040708675
-5080.523531198502,-1380.0,-2996.0,-15880.0,-145.0,213.0,-64.0,-0.32810431008193824,0.12194149337042227,0.934422426040756,-0.06582221215026585
-5080.539111375809,-1864.0,-2508.0,-16044.0,406.0,180.0,428.0,-0.34383976047475256,0.1460838085225471,0.9211534071049191,-0.10913359053569106
-5080.5547025203705,-2124.0,-2100.0,-15896.0,157.0,161.0,-19.0,-0.35859150870203066,0.14139832644999062,0.9150061504841929,-0.11908983054838077
-5080.570332765579,-2100.0,-2488.0,-15972.0,-212.0,193.0,-1274.0,-0.38185575129942834,0.04804734515738217,0.9210517008417566,-0.059509681560094875
-5080.585995674133,-1732.0,-2504.0,-15992.0,-146.0,-71.0,-1246.0,-0.3794324864824647,-0.047291075773326904,0.923986944541305,-0.006532126082595904
-5080.6015882492065,-1784.0,-3220.0,-16008.0,-656.0,43.0,-1280.0,-0.38303900308992156,-0.12773403040867942,0.9106335147235064,0.08781652150789969
-5080.617176055908,-1368.0,-3492.0,-15968.0,313.0,-13.0,528.0,-0.3817421336330872,-0.09598916517251799,0.9181567335300195,0.045246394908613985
-5080.632775783539,-1284.0,-2644.0,-16012.0,-98.0,430.0,1578.0,-0.4187044317913082,0.03170669910732607,0.9075634874378582,-0.003130543030785725
-5080.648358345032,-2008.0,-2692.0,-16220.0,562.0,114.0,2136.0,-0.42064745077274235,0.17714230255529761,0.8811966752873214,-0.12316146421008523
-5080.6639902591705,-2024.0,-2268.0,-15792.0,-38.0,223.0,1100.0,-0.4230639028597342,0.2643179767826615,0.8524613690951354,-0.1564051004509029
-5080.6795608997345,-2504.0,-3080.0,-15952.0,-142.0,-272.0,303.0,-0.3948407076994416,0.28826568842456035,0.856959587814372,-0.16316854253666713
-5080.695144414902,-1384.0,-2888.0,-15984.0,-494.0,-52.0,1674.0,-0.3503428783275358,0.42489934975738136,0.8143775115517445,-0.18305649089753667
-5080.710725069046,-1320.0,-2960.0,-16340.0,697.0,190.0,3541.0,-0.31741833839200745,0.6278746854638964,0.6353866756198931,-0.31828092976295447
-5080.726305246353,-1528.0,-2172.0,-16436.0,1328.0,296.0,4331.0,-0.2659672623409089,0.7805652212422199,0.3282843582706426,-0.46066118879801315
-5080.741889953613,-2240.0,-1944.0,-15964.0,844.0,121.0,2344.0,-0.22723150380927143,0.8141026972164946,0.12893389973456443,-0.5186315566571732
-5080.757520914078,-2312.0,-2252.0,-15772.0,284.0,-193.0,776.0,-0.20944940313137148,0.8064475351674141,0.06464224734556459,-0.5491763836951016
-5080.773153543472,-1372.0,-2364.0,-15780.0,-281.0,-8.0,704.0,-0.15548469552015287,0.8135813408758986,0.028685371304677174,-0.5595418310642136
-5080.78871512413,-1332.0,-3096.0,-16616.0,879.0,53.0,3086.0,-0.06482102414655312,0.7820799138791998,-0.22534242075936697,-0.5773820542254529
-5080.804317712784,-1660.0,-2612.0,-15904.0,1299.0,140.0,3783.0,0.03763438832062558,0.6680196540228123,-0.5190423792503956,-0.5319101457925606
-5080.819910287857,-2604.0,-2648.0,-16260.0,1468.0,-204.0,2953.0,0.0766766295497769,0.5090337870377253,-0.7303156833938925,-0.44904821647995635
-5080.835508346558,-2328.0,-2096.0,-15848.0,973.0,-179.0,1293.0,0.07188056663888898,0.4219868337468574,-0.81894400772751,-0.3822185349916697
-5080.851112365723,-2280.0,-2560.0,-15932.0,195.0,-376.0,286.0,0.04719906355640423,0.3899209613841822,-0.8376016310176218,-0.37968065527394607
-5080.866699695587,-1740.0,-2620.0,-15944.0,79.0,-339.0,107.0,0.023170664568131157,0.371078057214514,-0.844931113177997,-0.38451997313685027
-5080.882276058197,-1668.0,-2996.0,-15644.0,421.0,-347.0,516.0,0.0011849121558751053,0.3216160453926572,-0.8746903204275563,-0.36259972239304017
-5080.897861242294,-2260.0,-2712.0,-16300.0,841.0,-368.0,1474.0,-0.0038970051077171397,0.19537325981123363,-0.9321543388609274,-0.3047989357669578
-5080.9134521484375,-2088.0,-2344.0,-16072.0,589.0,-366.0,527.0,-0.0296768042883342,0.14219604943957326,-0.9540072784975557,-0.2622397440982151
-5080.929124116898,-2228.0,-2488.0,-16188.0,578.0,-765.0,-431.0,-0.10999268119189146,0.15844252095183592,-0.9559527332317974,-0.22125087449612932
-5080.944751739502,-1908.0,-1752.0,-15788.0,336.0,-481.0,-993.0,-0.17301730101814689,0.22765592011259456,-0.9394102459668449,-0.1890666161928003
-5080.960382699966,-2676.0,-3076.0,-16236.0,81.0,-575.0,-2535.0,-0.25697505816883737,0.414283919232295,-0.8598875119108207,-0.15141373981402706
-5080.976013660431,-1956.0,-2556.0,-16096.0,158.0,-590.0,-2048.0,-0.3281598862902618,0.5472583165741587,-0.7616434801508714,-0.11277691747006409
-5080.991618156433,-1928.0,-3136.0,-16220.0,-250.0,-369.0,-1595.0,-0.3525296176625088,0.6501313113680287,-0.665603116655054,-0.10012311295945282
-5081.007264614105,-1720.0,-3132.0,-16220.0,260.0,-727.0,-912.0,-0.4149635493674404,0.6851494271967096,-0.590644936046932,-0.0975401180566863
-5081.022858142853,-1852.0,-3380.0,-16096.0,1247.0,-89.0,1314.0,-0.47672743341189144,0.5646174885806566,-0.668365595336581,-0.08500280461114389
-5081.0384776592255,-2828.0,-2344.0,-16580.0,2634.0,-387.0,1552.0,-0.596134830585297,0.34936950988373033,-0.7227418649632886,-0.014436272234497045
-5081.054070711136,-2836.0,-1448.0,-16080.0,2183.0,-129.0,-1255.0,-0.6564602967206885,0.3075370557042369,-0.6648121154703578,0.180293342422793
-5081.069685220718,-3320.0,-1984.0,-16376.0,2448.0,-279.0,-3476.0,-0.6406183757627679,0.3500396795554743,-0.48483892757910724,0.48167575574831994
-5081.085356235504,-2004.0,-1792.0,-16460.0,2795.0,146.0,-3458.0,-0.5354317207987509,0.31147103672789156,-0.2518276829161468,0.7435600068314768
-5081.100941419601,-2144.0,-2632.0,-17020.0,4323.0,598.0,-2463.0,-0.43976601251264386,0.11454141916644907,0.06180283096478818,0.8886318290601585
-5081.116523504257,-1852.0,-2492.0,-18036.0,5767.0,965.0,-1619.0,-0.3332765117668796,-0.16796749540577624,0.4314230516249521,0.821332963978815
-5081.1321058273315,-2344.0,-2224.0,-18860.0,7519.0,1432.0,-696.0,-0.18849840248771382,-0.42817943830783073,0.7629099370355124,0.44620527657395626
-5081.1477608680725,-2976.0,-2096.0,-19372.0,8088.0,2290.0,-1944.0,0.02964813726353118,-0.6229693312904946,0.7729223586457378,-0.11671001556758598
-5081.163380622864,-2732.0,-2076.0,-21348.0,8065.0,2883.0,-4126.0,0.1783776886528398,-0.6550549645915815,0.36481501284168727,-0.6371768984827619
-5081.178981304169,-2336.0,-1964.0,-25640.0,9406.0,2940.0,-4444.0,0.2730474517080919,-0.3541567938781455,-0.2665159341352967,-0.8538075376322583
-5081.194654464722,-3244.0,-1028.0,-27552.0,11628.0,3509.0,-478.0,0.46533767298917883,0.13394672540788946,-0.7300324510863913,-0.4822569286286257
-5081.210258722305,-5984.0,-2712.0,-25424.0,14981.0,2832.0,-52.0,0.2812988519908558,0.5195773233981092,-0.7479820438345837,0.30237927008993526
-5081.225851774216,-5988.0,704.0,-20336.0,15060.0,1217.0,-1870.0,-0.16418301182788955,0.5889313715707014,-0.14190912207777234,0.7785021382617336
-5081.2414445877075,-5084.0,1476.0,-16504.0,11026.0,642.0,-3762.0,-0.32746321324740574,0.3042077158659694,0.5545070789469085,0.7019596918449524
-5081.257043600082,-3092.0,4632.0,-14832.0,11508.0,-947.0,5041.0,-0.6026797531430707,0.1865817688154658,0.7756919311230276,-0.01632135679800261
-5081.272692680359,-1404.0,13008.0,-9808.0,9735.0,352.0,12946.0,-0.44258360172288713,0.3183963869672554,0.30753636442051524,-0.7798492680070981
-5081.288311481476,-5492.0,13196.0,-8352.0,-670.0,32.0,7327.0,0.06227910384090304,0.45708351768024924,0.12464047682456267,-0.8784422135956177
-5081.303939580917,-7144.0,9512.0,-10904.0,-7057.0,-2259.0,709.0,0.3545642900458567,0.21263164943577964,0.5240926191883276,-0.7445796615506066
-5081.319533586502,-2608.0,6884.0,-12304.0,-11978.0,-1873.0,-410.0,0.43663202501095355,-0.2048078792008792,0.8598504448704996,-0.16752140104498978
-5081.335107326508,-1796.0,3744.0,-15264.0,-12535.0,-2029.0,5016.0,0.2815155661374567,-0.2157956052217249,0.6785477061336552,0.6432373226811793
-5081.350699186325,-2948.0,3064.0,-15404.0,-12803.0,-2246.0,5548.0,-0.08697408992821067,-0.04775354233282001,0.005948020225851667,0.9950476008368745
-5081.366290330887,-3236.0,1736.0,-15744.0,-14576.0,-2786.0,4826.0,-0.3346405498547614,0.18171696448473504,-0.721202041511933,0.5786728458553904
-5081.381885766983,-1384.0,92.0,-16164.0,-14729.0,-2671.0,7361.0,-0.3627832686617584,0.1604957030819574,-0.8514553082351803,-0.3430062497236057
-5081.397506952286,-1140.0,-1140.0,-16120.0,-13627.0,-2440.0,10771.0,-0.016756912135220823,-0.15392052677990484,-0.2829702516817113,-0.9465492665438382
-5081.413145780563,-2800.0,-1612.0,-16168.0,-14507.0,-2381.0,10885.0,0.3338054899101979,-0.3176411505315645,0.5653346569745885,-0.6841598643725172
-5081.428743362427,-3232.0,-3132.0,-16028.0,-16689.0,-1974.0,7149.0,0.21010613367287148,-0.30239772154046124,0.9048198758029283,0.2138037019140416
-5081.444340467453,-2668.0,-5912.0,-17116.0,-18798.0,-1636.0,4319.0,-0.1209719517998358,-0.1403976046049634,0.325090142342502,0.9273460512940453
-5081.460001468658,-872.0,-7172.0,-18776.0,-15928.0,-1633.0,9950.0,-0.5584472249599902,0.22963500022230177,-0.4284013174604589,0.6722178031007009
-5081.475594997406,-1060.0,-6512.0,-18448.0,-12973.0,-519.0,16062.0,-0.611268906309609,0.14164256323304353,-0.7210159738927047,-0.2939790364148137
-5081.491231441498,-4700.0,-6200.0,-17240.0,-11381.0,-735.0,16228.0,-0.05021352135375851,-0.1456117419043823,-0.2954779335134838,-0.9428513210996887
-5081.5068283081055,-6676.0,-4688.0,-16808.0,-13117.0,-859.0,10407.0,0.3483283252840172,-0.2410260686155368,0.5189954294777491,-0.7424402711557188
-5081.522440910339,-6616.0,-3216.0,-16420.0,-14006.0,-1248.0,6222.0,0.30672157511466774,-0.27832534759345856,0.907929521066884,0.06419393290192248
-5081.538026094437,-4308.0,-2900.0,-15968.0,-14899.0,-1210.0,4690.0,0.008390528542701363,-0.17642453581056156,0.5349677625908218,0.8262042575437215
-5081.553607702255,-3016.0,-4236.0,-15768.0,-16340.0,82.0,-2347.0,-0.044335519414944374,-0.1733846391991266,-0.38727469748283944,0.9044282377820648
-5081.56923365593,-3004.0,-7536.0,-17800.0,-15072.0,-802.0,-5340.0,0.07098666318114068,0.07482244134541848,-0.9630089638649181,0.24895025896217857
-5081.584807395935,1172.0,-6588.0,-17956.0,-9312.0,-881.0,2604.0,0.0007682168689421457,-0.13927016678788848,-0.9061790367965152,-0.39930287221137745
-5081.600391387939,224.0,-6108.0,-16448.0,-4406.0,194.0,11102.0,0.24192445087316705,-0.6997683814988359,-0.427661699424993,-0.5185578493949765
-5081.616016864777,-3492.0,-5252.0,-15412.0,-2851.0,-24.0,13907.0,0.43728629089895993,-0.8040790008561575,0.3455190003645239,-0.207012754585542
-5081.631617307663,-6552.0,-4744.0,-16084.0,-1058.0,-587.0,13983.0,0.4004240798461125,-0.2741675177937243,0.836980934825554,0.2528945298039554
-5081.647275686264,-4352.0,-912.0,-14664.0,-2225.0,497.0,11168.0,0.04554654557484577,0.3209806045191585,0.7604808267087628,0.562641871812853
-5081.662880182266,-4356.0,-1864.0,-14104.0,-4041.0,493.0,5686.0,-0.1307270673823582,0.5618168851048789,0.3456565599098024,0.7401309100800892
-5081.678478479385,-6780.0,-4196.0,-14092.0,-6607.0,461.0,-9415.0,0.5556148956220489,0.22825473719717465,0.26479511241779946,0.7543708710903366
-5081.6940751075745,-4588.0,-3064.0,-15212.0,-6805.0,-870.0,-12315.0,0.9600397766987888,-0.20751248835984715,0.012742574131953814,0.1873494625968688
-5081.709668874741,1592.0,240.0,-15556.0,-4577.0,1726.0,-301.0,0.8091016747582803,-0.5698468118480855,0.07079229608802716,0.12497016341712625
-5081.725308179855,-3448.0,-2732.0,-16088.0,-1248.0,1768.0,5293.0,0.6068250527024419,-0.5769255843467181,0.39840940481895526,0.374419780047318
-5081.740902423859,-7372.0,-2008.0,-15740.0,1507.0,-677.0,2520.0,0.6032154985299163,-0.37485022730590317,0.5210966600688695,0.4733673418045296
-5081.756520986557,-5012.0,1076.0,-15856.0,2373.0,-1453.0,1672.0,0.6520395114733296,-0.10972010633387876,0.5749290341515523,0.4819362815074906
-5081.7721292972565,-1956.0,2460.0,-15044.0,1566.0,-1211.0,349.0,0.7022331186022637,0.04707548561402099,0.5668381405916948,0.4281904578139189
-5081.787720680237,-1876.0,-496.0,-14280.0,461.0,-997.0,-3384.0,0.8365666574169113,-0.05235171916086347,0.5129878013828716,0.18509197938205157
-5081.803313732147,-2008.0,-1620.0,-15784.0,944.0,-891.0,-3049.0,0.893265529266655,-0.10144368825776291,0.4318478292569112,-0.07275523831806381
-5081.818878173828,-2604.0,-2152.0,-15652.0,1848.0,-107.0,-3385.0,0.8454088914351616,-0.0812464144974831,0.3621216118941631,-0.3841233716045504
-5081.834476232529,-4244.0,-3820.0,-15540.0,1325.0,614.0,-7908.0,0.4667730779356428,-0.17425560398993514,0.2514892309185948,-0.8297656566311737
-5081.850063562393,-2948.0,-5356.0,-15404.0,2071.0,774.0,-6902.0,-0.015630360909909984,-0.15672911034814888,0.02400588336190828,-0.9872261115627555
-5081.865704774857,-2528.0,-6168.0,-17244.0,5793.0,935.0,3028.0,0.2795099157097587,-0.0674629211311199,-0.37662816775087166,-0.8806101206260358
-5081.881370067596,-4220.0,-2188.0,-20536.0,12194.0,-1018.0,13225.0,0.7158980853435329,-0.15181532439878212,-0.676660203843309,-0.0810740847243283
-5081.896973848343,-1704.0,20832.0,-28692.0,23466.0,-4161.0,32767.0,0.2756008855965882,-0.17690892667035482,-0.18198512338249223,0.9271616894534515
-5081.91259431839,-8888.0,23892.0,-12432.0,-262.0,5762.0,-18197.0,0.944658701956252,-0.1855567461312424,-0.17770138237192343,0.20398737580208762
-5081.928249835968,-17424.0,6380.0,-13168.0,-25445.0,1559.0,-32768.0,0.3033165349412594,-0.4796829949163889,-0.2747100449885153,-0.7761685997266826
-5081.943930387497,-5488.0,-15264.0,-19664.0,-27564.0,-1522.0,-32768.0,-0.8026365476444857,-0.13616210367149373,0.0466190399227186,-0.5788446415280862
-5081.959540605545,9608.0,-19920.0,-28512.0,7690.0,-1235.0,-1267.0,-0.6343997835721289,-0.6114227235012003,-0.22244784066822,-0.417392053077268
-5081.975172996521,12360.0,4940.0,-18352.0,32767.0,10713.0,32767.0,0.5891879186706993,-0.6257291392606059,-0.061056976336680856,-0.5075358966746024
-5081.990809440613,-11324.0,5316.0,-9852.0,20864.0,5631.0,29203.0,0.9180194803509216,0.16271600023858318,0.27046462528073906,0.24002629738078782
-5082.0064153671265,-16980.0,5896.0,-11188.0,3951.0,617.0,-17242.0,0.6567431893134825,0.032292661769901816,0.35203078242859365,-0.6661230333120767
-5082.022015333176,-2204.0,7128.0,-15140.0,-6456.0,1446.0,-24518.0,-0.3269110218780829,-0.4140575081055151,0.3617464841226231,-0.7686514457027968
-5082.037611961365,1804.0,-2368.0,-18012.0,-4644.0,1531.0,-14340.0,-0.9077785361003162,-0.38110264119947806,0.06734375818445092,-0.1617520463547304
-5082.053205728531,2732.0,-5584.0,-18884.0,4586.0,1245.0,2768.0,-0.6520914851240825,-0.6407917374228187,-0.0034321616267217136,-0.4051553585303813
-5082.068860530853,864.0,460.0,-17532.0,10625.0,2471.0,16560.0,0.26439655573960325,-0.581991075633457,0.20328710207039613,-0.7416570658517769
-5082.084475517273,-6296.0,840.0,-14616.0,8343.0,1127.0,9412.0,0.8584099551090884,-0.10060784725510408,0.11253186675529354,-0.4902519648149057
-5082.100106239319,-7104.0,3276.0,-13352.0,2188.0,272.0,-5525.0,0.5667782062313921,0.018479755637987313,-0.007914712488804364,-0.823625109439304
-5082.11573433876,-3820.0,644.0,-15464.0,-2135.0,1425.0,-8710.0,-0.04296987367763781,0.0169531694643185,0.1803960864576558,-0.9825087439773775
-5082.131307601929,-1500.0,-932.0,-17236.0,1026.0,1534.0,-3768.0,-0.36781548820996923,0.0802018831548847,0.08691982025398065,-0.922347206543332
-5082.146904230118,-3076.0,-1708.0,-17188.0,3735.0,1923.0,1385.0,-0.2771237755177896,0.11744800657955115,-0.2658541066067174,-0.9158220202602684
-5082.162514209747,-3824.0,620.0,-15872.0,4041.0,1539.0,-715.0,-0.3175075955813744,0.14895372128444798,-0.5780467731077613,-0.7367928092505747
-5082.178154706955,-3528.0,-152.0,-16076.0,1172.0,1766.0,-3182.0,-0.4251364706864155,0.37053983940635216,-0.6271811177309974,-0.5372178834204145
-5082.193753957748,-2348.0,-1592.0,-16200.0,2499.0,1454.0,-1191.0,-0.46504375269677867,0.396784451974817,-0.7330898261865865,-0.2981203003662479
-5082.209395647049,-1140.0,-640.0,-17712.0,5131.0,2068.0,5569.0,-0.30136529469849477,-0.09389186100081504,-0.9433344399514307,-0.10238853446853026
-5082.224989414215,-1344.0,1300.0,-16988.0,7323.0,1864.0,6138.0,-0.024980422181900323,-0.5906758996543056,-0.7678432415147861,0.24676854851308871
-5082.240585327148,-2300.0,2008.0,-15396.0,5209.0,1740.0,-474.0,0.33367362860152106,-0.5477834988461647,-0.6163882308218609,0.45679393261299367
-5082.2561683654785,-3824.0,1160.0,-15784.0,4287.0,1018.0,-5835.0,0.6962021128310407,-0.1263048069184793,-0.5858598469887691,0.395117645170621
-5082.271824121475,-2948.0,-1228.0,-15796.0,298.0,957.0,-10690.0,0.815013127835874,0.2957333519931663,-0.4637651128185133,-0.18225615519510643
-5082.287444353104,-1864.0,-4264.0,-16960.0,1703.0,305.0,-4757.0,0.6472229249658619,0.561972375692864,-0.3170537368162918,-0.40591435343872506
-5082.3030388355255,1276.0,-1420.0,-16668.0,5479.0,1786.0,4270.0,0.4907478551462996,0.6922489180074056,-0.5253211854055108,0.06321099865554902
-5082.318669319153,-2028.0,-692.0,-15508.0,4112.0,2444.0,1702.0,0.3151486437480211,0.7103541654890101,-0.4579272706903855,0.4317185503012922
-5082.334248304367,-6404.0,-1424.0,-15604.0,1986.0,295.0,-8933.0,0.4220447386902748,0.8679473895615591,0.13964809824318003,0.22145874594198342
-5082.3498277664185,-3500.0,-888.0,-15264.0,-2858.0,675.0,-14855.0,0.5534501842818202,0.343189538536895,0.7449540069619656,-0.14476657648975372
-5082.365426540375,-1588.0,-3356.0,-16516.0,-3689.0,91.0,-11496.0,0.35281073212220965,-0.40004950048655397,0.785062495756642,-0.3148997653479619
-5082.38103723526,1144.0,-2436.0,-16652.0,-107.0,454.0,-4510.0,0.18020218855073844,-0.6508223114550625,0.5994352073910184,-0.42969165955822386
-5082.396707773209,-28.0,-1236.0,-16160.0,909.0,1291.0,-2695.0,0.06092104320401054,-0.7035639491856612,0.4174881338293998,-0.5718304416633103
-5082.412292480469,-3460.0,-1268.0,-15420.0,-415.0,116.0,-7583.0,-0.28939257275813896,-0.8138712016458729,-0.02222284564939425,-0.5033604584144161
-5082.427930593491,-3184.0,-1452.0,-16264.0,-2586.0,-9.0,-11182.0,-0.6812343047657252,-0.5139728011201952,-0.49644672048242056,-0.15903595644151872
-5082.443536520004,-2088.0,-3068.0,-16672.0,-3552.0,488.0,-8076.0,-0.7375012873819004,0.042550860072238045,-0.664094218767801,0.11515269869324256
-5082.459133386612,-2536.0,-4280.0,-17028.0,-697.0,567.0,-3090.0,-0.6457874349659446,0.25111858302940404,-0.6703945832990614,0.26546025838284754
-5082.4747977256775,-1316.0,-1876.0,-16188.0,1588.0,1514.0,919.0,-0.6002887916653651,0.0713614702495127,-0.7238471773403475,0.3325750607324235
-5082.490431070328,-2588.0,-736.0,-15492.0,1014.0,1398.0,-1786.0,-0.45567486877925917,0.08843942434529456,-0.739562313319897,0.48742842233644956
-5082.506021022797,-3720.0,-956.0,-15460.0,-187.0,519.0,-5382.0,-0.17334020256283836,0.38081970485154737,-0.6572760584970544,0.626831484131765
-5082.521591663361,-2156.0,-264.0,-16536.0,-611.0,410.0,-7446.0,0.23262977492690437,0.6655089211952746,-0.3764965100205107,0.6010254916135712
-5082.537177801132,-936.0,-704.0,-16496.0,-1088.0,390.0,-8868.0,0.6099093723777285,0.7209511746629202,0.07037826635338681,0.32138273267718115
-5082.552758216858,-1336.0,-2800.0,-16372.0,-228.0,577.0,-5375.0,0.697423669394955,0.5966684731813869,0.3914644805450517,0.06589779169791873
-5082.568372964859,-1632.0,-2076.0,-16440.0,1500.0,1045.0,-4513.0,0.5607783776523169,0.48587236540950823,0.6431419556371509,-0.18927250351867145
-5082.584002256393,-996.0,-760.0,-16440.0,1227.0,1105.0,-4303.0,0.3482772753591343,0.29944761014093246,0.7974407961599197,-0.39130837566954196
-5082.599586725235,-1324.0,-1084.0,-16860.0,937.0,1219.0,-4980.0,0.06255485633324559,0.02099076773822823,0.8490771144505471,-0.524131978928227
-5082.61519742012,-1864.0,-2112.0,-17200.0,826.0,420.0,-6006.0,-0.21625927175645712,-0.353634397029918,0.7286693574353185,-0.5451748418181578
-5082.630822181702,-832.0,-1972.0,-16960.0,219.0,-115.0,-6107.0,-0.4346482630560875,-0.66320567595639,0.46953801251772803,-0.38829521449852533
-5082.646455049515,-324.0,-2700.0,-15652.0,-18.0,-365.0,-5774.0,-0.5500404381052807,-0.8137899559696137,0.13385424050354522,-0.13147040089367723
-5082.6620507240295,-204.0,-3892.0,-15244.0,-554.0,-96.0,-2223.0,-0.6015944263314987,-0.7986210510055961,-0.012766698274251356,-0.011206003425218958
-5082.677657365799,-164.0,-4488.0,-15204.0,580.0,353.0,2454.0,-0.5448261804751934,-0.8118359114769622,0.1358548285088798,-0.16009482026600622
-5082.693259716034,-676.0,-3484.0,-15168.0,1587.0,1095.0,7096.0,-0.29115758614514264,-0.6631995714204459,0.4750040806555064,-0.4997646564719115
-5082.70888543129,-2496.0,-2428.0,-14900.0,2025.0,1125.0,7848.0,0.09918041716726471,-0.2770035610182673,0.6611773804903563,-0.690128063160481
-5082.724511146545,-3632.0,-2408.0,-15444.0,1975.0,643.0,4255.0,0.3383651573876891,0.02244654246443975,0.601568084582448,-0.7232710505814548
-5082.74010848999,-1356.0,-396.0,-15648.0,2529.0,570.0,3478.0,0.48908806488737117,0.2952710371522429,0.42295684335745304,-0.7033600699932179
-5082.755710363388,-388.0,-124.0,-16872.0,1045.0,1489.0,1827.0,0.5065682828468526,0.48668208008579616,0.36635356860539803,-0.6101755407315533
-5082.771339893341,-1624.0,-2328.0,-18192.0,346.0,229.0,75.0,0.48806531047254104,0.5164014791006278,0.354808895287837,-0.607644972760123
-5082.7869465351105,-1148.0,-3276.0,-17204.0,1145.0,-181.0,2685.0,0.5661523684963674,0.6190534617389613,0.16043213844640655,-0.5201017555329678
-5082.802512168884,-480.0,-2836.0,-15040.0,1026.0,102.0,4536.0,0.6624971645013317,0.6839108686189187,-0.11678926229945205,-0.28235385427537796
-5082.818095207214,120.0,-2552.0,-14840.0,2365.0,839.0,6782.0,0.5892384169506639,0.6531935980209728,-0.4493539965295732,0.15561875624998386
-5082.8336889743805,-1032.0,-1904.0,-15952.0,1919.0,916.0,5426.0,0.3938096178969295,0.46956006840392583,-0.6111066548954459,0.5009750326661732
-5082.849372148514,-3144.0,-3060.0,-16456.0,700.0,273.0,2232.0,0.27613209710022363,0.3553041883140725,-0.649201445386081,0.6132271047712538
-5082.864964008331,-2772.0,-2964.0,-16180.0,-723.0,-227.0,594.0,0.25285394128932026,0.31531504069336436,-0.7094802732981095,0.5773032576452682
-5082.880588769913,-464.0,-2948.0,-16140.0,-750.0,-6.0,3439.0,0.09533302561357353,0.08240365344339375,-0.8050787610688367,0.5796287092634472
-5082.89616894722,-576.0,-2880.0,-16684.0,926.0,577.0,6459.0,-0.1715095149557062,-0.34105677544373464,-0.6946154713797172,0.6097328178173727
-5082.911808729172,-2704.0,-2248.0,-16204.0,1739.0,40.0,3890.0,-0.30392070971943064,-0.5671686391212222,-0.4565720633224612,0.6144053124725477
-5082.927469968796,-1888.0,-924.0,-15516.0,-271.0,-186.0,-206.0,-0.31340817915843056,-0.5416634889528126,-0.4762394018908018,0.6177151528485885
-5082.943102359772,-836.0,-1816.0,-15920.0,-695.0,124.0,432.0,-0.3633163895140476,-0.5460227670629189,-0.49554676712000667,0.5694679451526138
-5082.958701848984,-800.0,-2536.0,-16796.0,56.0,427.0,2512.0,-0.4557215189832554,-0.661621109116655,-0.37755411841503467,0.4604653002938308
-5082.9743309021,-1472.0,-2132.0,-16440.0,2276.0,431.0,4813.0,-0.4561829561238122,-0.8412851420145065,-0.023098630260859822,0.28914161521276005
-5082.989998102188,-1844.0,-1756.0,-15920.0,2356.0,931.0,3659.0,-0.34806017686496366,-0.9005414936839464,0.24970130537337037,0.0743531406804856
-5083.005581140518,-3096.0,-2024.0,-15972.0,2275.0,429.0,935.0,-0.18014000079761913,-0.9302916417191511,0.3174534148522229,-0.03647424925591571
-5083.0211799144745,-2388.0,-1392.0,-15664.0,615.0,378.0,-2663.0,-0.14472233264552015,-0.9844452050892737,0.09076470419704505,-0.041046961914375915
-5083.036778450012,-1856.0,-2432.0,-16168.0,357.0,142.0,-3663.0,-0.12185907474976984,-0.9686884471957662,-0.21612028041878759,-0.00922402093936639
-5083.052384138107,-340.0,-2664.0,-15952.0,418.0,396.0,-2678.0,-0.07867348025245385,-0.8970544403744067,-0.4348178276530859,-0.006105019621414189
-5083.068025112152,-704.0,-3944.0,-15948.0,970.0,418.0,-1253.0,0.012624438700609841,-0.8473138671949284,-0.5309008119519275,0.006645440200155218
-5083.083631038666,-452.0,-3544.0,-15560.0,1087.0,544.0,279.0,0.1175940675656775,-0.8542865807368935,-0.5060338739382236,0.017198595096688366
-5083.0992975234985,-532.0,-3464.0,-15928.0,843.0,726.0,1797.0,0.20614910670817652,-0.9107611842467875,-0.3573050255841678,0.018701063207942067
-5083.114892482758,-1644.0,-2996.0,-16268.0,974.0,659.0,1653.0,0.29651153356510007,-0.9314616646316658,-0.20922711612746273,0.02615514598437231
-5083.130491495132,-2796.0,-2428.0,-16220.0,545.0,308.0,249.0,0.34497586289614307,-0.9211298696506263,-0.17945050026709075,0.017576552858068136
-5083.146098852158,-2372.0,-1328.0,-15612.0,-97.0,-14.0,-3590.0,0.3265085583029684,-0.8282136950539568,-0.4471490612479061,-0.086671527649539
-5083.161685705185,-2040.0,-3104.0,-15808.0,-1743.0,229.0,-5419.0,0.15064144085092734,-0.5952966585004374,-0.733481258847153,-0.2914348771107638
-5083.177376270294,-1388.0,-3716.0,-16316.0,-1434.0,130.0,-4118.0,-0.019019427882766782,-0.32460563525367525,-0.8498316183783469,-0.41479592974016766
-5083.192960262299,-696.0,-3428.0,-16208.0,-1213.0,356.0,-1936.0,-0.09512740837165946,-0.16289109437397378,-0.8444886919930759,-0.501254542768407
-5083.2085592746735,-656.0,-3140.0,-16400.0,-560.0,209.0,-284.0,-0.09990301347363127,-0.12798163520556502,-0.8245655776831956,-0.5419701994104241
-5083.224134922028,-888.0,-2520.0,-16076.0,72.0,75.0,-49.0,-0.09598142014703127,-0.12154624918598131,-0.8293073933344698,-0.5369015958778343
-5083.239746570587,-1288.0,-1924.0,-15456.0,-1197.0,20.0,-2678.0,-0.22542294214728995,0.080626701563157,-0.776939800290809,-0.5822786093209871
-5083.255317926407,-1828.0,-2740.0,-15740.0,-1957.0,-741.0,-4082.0,-0.4356785519700598,0.33265074340541034,-0.5889717097806213,-0.5938350000995152
-5083.27095413208,-1400.0,-2360.0,-15896.0,-2520.0,-466.0,-4955.0,-0.5782792136556629,0.5926532334908915,-0.26705279005842725,-0.4929889483635395
-5083.28658914566,-1588.0,-3104.0,-16352.0,-2815.0,-433.0,-4378.0,-0.5741445362358552,0.7446203508650577,0.09302868587176774,-0.3274816761180465
-5083.302179813385,-1340.0,-3236.0,-16176.0,-1937.0,-323.0,-3195.0,-0.5101111031771118,0.7666681734537497,0.35371499193558087,-0.16398865420672587
-5083.317783117294,-1064.0,-2748.0,-16060.0,-1748.0,60.0,-2498.0,-0.41600280502712306,0.7425288393750672,0.5249447967047165,0.005054633371941123
-5083.333384513855,-1216.0,-2448.0,-16192.0,-1819.0,45.0,-1809.0,-0.2918736774370098,0.7082445302818753,0.6243055204499325,0.15310799744278927
-5083.34895324707,-1488.0,-2480.0,-16108.0,-1481.0,99.0,-2235.0,-0.1710162027531621,0.6065737503405781,0.7206963917180478,0.28882253159724464
-5083.364579677582,-964.0,-2128.0,-15780.0,-1620.0,-15.0,-2188.0,-0.028265407500242652,0.4802411837474113,0.7744439153483968,0.4108601880829723
-5083.380168676376,-808.0,-2272.0,-16424.0,-1503.0,216.0,-1490.0,0.07232657752693834,0.36928089136752973,0.7694592447557009,0.5160745683658794
-5083.3958196640015,-844.0,-2172.0,-16604.0,-628.0,97.0,-396.0,0.10363148986941206,0.3337228384864018,0.7531109548011987,0.5574167840480331
-5083.411435842514,-1240.0,-2336.0,-15960.0,-559.0,48.0,-185.0,0.12555415847238463,0.3138286551679271,0.7309517908013213,0.5928382646305168
-5083.427035570145,-792.0,-2524.0,-15936.0,-445.0,135.0,426.0,0.10688035546586726,0.328724472677458,0.6968771886381393,0.6283939804248766
-5083.442657232285,-596.0,-2284.0,-16380.0,199.0,503.0,2167.0,-0.04740922572149801,0.4268418398369686,0.6384858707665206,0.6386659548720267
-5083.458249092102,-1080.0,-1840.0,-16444.0,1109.0,667.0,3581.0,-0.3088543812947884,0.5548912019396255,0.5355159593741036,0.5567112199521803
-5083.473846673965,-1892.0,-1836.0,-16280.0,819.0,410.0,1819.0,-0.4489124988863715,0.5888395961784074,0.4689523357479125,0.4814864537166343
-5083.489427804947,-1632.0,-2036.0,-15920.0,130.0,230.0,221.0,-0.4739378385468394,0.5830523051367964,0.45395594573019393,0.4789122403994528
-5083.504990339279,-848.0,-2320.0,-16272.0,-45.0,235.0,875.0,-0.5157709735338437,0.6080485119249268,0.3967036287573574,0.4548445239162257
-5083.520582914352,-656.0,-2644.0,-16396.0,736.0,414.0,2768.0,-0.6582122891008384,0.6345998318671603,0.252568961322828,0.31662052309841526
-5083.536153316498,-980.0,-2444.0,-16592.0,1760.0,460.0,3951.0,-0.8178803541231215,0.5685484444658389,0.052385159888214704,0.07127543516807468
-5083.55176615715,-1356.0,-1964.0,-16000.0,1842.0,426.0,3570.0,-0.8801830346035072,0.42538199573913454,-0.13551882007562163,-0.16112924223263625
-5083.567344665527,-1592.0,-2168.0,-15728.0,936.0,282.0,1572.0,-0.8779797764031126,0.3348077726441338,-0.22586387371243108,-0.2569840036963957
-5083.582946062088,-1616.0,-2632.0,-15828.0,354.0,183.0,896.0,-0.8613550092549517,0.29331866330962036,-0.27315181404141925,-0.31212144474794046
-5083.598578453064,-1168.0,-2756.0,-16060.0,359.0,305.0,1036.0,-0.8308547090225389,0.24896979170782263,-0.3309160772771722,-0.37173787150561416
-5083.61416721344,-696.0,-2500.0,-16476.0,731.0,482.0,1817.0,-0.762048343819156,0.156941036802195,-0.4227601549465263,-0.4646780434231021
-5083.629781961441,-948.0,-2172.0,-16592.0,1151.0,339.0,2586.0,-0.6407959686386048,-0.0010786302248322768,-0.5120406055796619,-0.5720085500855415
-5083.645371437073,-1760.0,-2724.0,-15856.0,401.0,211.0,1278.0,-0.5635039324288791,-0.06952791866454477,-0.5402412295522125,-0.6211027294701571
-5083.660959720612,-1476.0,-2508.0,-15912.0,164.0,-218.0,341.0,-0.5538088597280568,-0.10539366945059822,-0.536227981660789,-0.6282097364817293
-5083.676578760147,-552.0,-2132.0,-16204.0,-515.0,401.0,293.0,-0.5225996777466555,-0.07211395324004483,-0.5239366977049377,-0.6687148057021239
-5083.69216299057,-1968.0,-3000.0,-16372.0,18.0,-40.0,-59.0,-0.5276740532736623,-0.07254536875565257,-0.5238004570950762,-0.664778417309738
-5083.70779466629,-1192.0,-1952.0,-15876.0,247.0,-7.0,-906.0,-0.5769644176220474,-0.042765220952364826,-0.5420007320786037,-0.6095230948054426
