programtime,ax,ay,az,gx,gy,gz,q0,q1,q2,q3
-9060.397859811783,-3776.0,104.0,-16164.0,3224.0,176.0,-4351.0,0.9040332187818035,0.25435531581596993,0.014183171341567985,-0.34325813946047323
-9060.413447618484,-2340.0,2296.0,-16480.0,4417.0,487.0,-2452.0,0.6691050357116329,0.5619593465536484,-0.02306352952543386,-0.48576559945323455
-9060.429032802582,-3980.0,2784.0,-16040.0,3035.0,648.0,-3610.0,0.3401921153302104,0.7148730315620693,0.058325807638791825,-0.6081315429869563
-9060.444618940353,-3864.0,4000.0,-15388.0,2848.0,-50.0,-828.0,0.1149768566340585,0.7674564814427284,-0.04128700179674308,-0.6293538392770271
-9060.460248708725,-4940.0,2928.0,-14664.0,-71.0,-115.0,-1649.0,0.028452356932533986,0.7587089367508705,0.07111376483620328,-0.6469111570611288
-9060.475863695145,-3776.0,664.0,-15192.0,-199.0,-152.0,-3279.0,-0.1369966452926649,0.7012023544311742,0.28746480723371937,-0.6378958864272557
-9060.491456985474,-568.0,8784.0,-15204.0,981.0,96.0,-2648.0,-0.3366528128561775,0.6103218774794611,0.38230715529450976,-0.6066410210961576
-9060.507107019424,-6636.0,-1196.0,-16468.0,-3762.0,608.0,-10458.0,-0.5093181149905555,0.2900557580054927,0.8038522840112172,-0.1014111457398827
-9060.522703886032,-2572.0,164.0,-16728.0,1835.0,-323.0,-33.0,-0.526219487161624,0.20075436941135263,0.7925602551462617,-0.233749815948805
-9060.538282871246,-3516.0,2464.0,-15112.0,-2880.0,506.0,-5864.0,-0.5470034032753137,-0.054015554632409105,0.8081491729823796,0.2115762530882747
-9060.55388712883,-2576.0,1168.0,-15140.0,-563.0,64.0,-67.0,-0.5519962037621634,-0.033045692006735274,0.7935929225125182,0.2538078931199671
-9060.5695374012,-4104.0,1856.0,-15584.0,-3532.0,647.0,-6154.0,-0.3994987618248661,-0.25773573003377453,0.5661176396969154,0.6734120958138113
-9060.585180044174,-2604.0,-636.0,-17484.0,-1221.0,550.0,-4221.0,-0.19210412330136192,-0.42550337021224643,0.3548915687975648,0.8099968284783826
-9060.600786447525,-3504.0,-1756.0,-17392.0,-2303.0,1195.0,-7982.0,0.20141230765394152,-0.5798940496622408,-0.10019174997110068,0.7830182544037968
-9060.616374015808,-2740.0,-1424.0,-17164.0,823.0,1144.0,-4668.0,0.5262960803090648,-0.554890067438047,-0.23934223700475357,0.5981845388301796
-9060.632017612457,-4204.0,1428.0,-15304.0,-400.0,1036.0,-6342.0,0.749300526083241,-0.4316780960421282,-0.45315334626521764,0.21645966778468745
-9060.647617578506,-3972.0,884.0,-14240.0,-524.0,598.0,-1563.0,0.7735317672102883,-0.41085422408195116,-0.47741366548172365,0.07016839517796489
-9060.66329073906,-5072.0,2248.0,-13896.0,-1456.0,98.0,-989.0,0.7227530455255342,-0.46326050228437965,-0.5093233201445314,-0.060062448865662824
-9060.678854942322,-4112.0,1384.0,-14904.0,-2990.0,67.0,-1552.0,0.5722390736880562,-0.5590008861862076,-0.5298675292022645,-0.28160407185400804
-9060.694498538971,-3844.0,428.0,-15892.0,-3384.0,150.0,-3792.0,0.29310616282533725,-0.5019085823616434,-0.5706626245328245,-0.5801040606881155
-9060.710094213486,-3528.0,-1736.0,-16672.0,-2889.0,209.0,-3783.0,-0.01354007356407766,-0.3480798061614168,-0.5401001896354644,-0.7661259035604041
-9060.725704908371,-3228.0,-1124.0,-15680.0,-2325.0,246.0,-3651.0,-0.296227063717051,-0.1467493161651982,-0.4639909609654106,-0.8218433871906593
-9060.741357326508,-2348.0,-1576.0,-14860.0,-2621.0,341.0,-2067.0,-0.44553041638358326,0.027960160254111792,-0.2990401411346581,-0.843383585034591
-9060.75695514679,-3432.0,-1424.0,-15616.0,-2303.0,27.0,-1030.0,-0.5029715867963801,0.14308303933291835,-0.1253633530017563,-0.8431078557663564
-9060.772549629211,-3408.0,-2820.0,-15676.0,-1879.0,-179.0,145.0,-0.46449404608709,0.20827847631309968,0.018566130914249707,-0.8605350987828521
-9060.788138151169,-4168.0,-2544.0,-15728.0,-1371.0,-349.0,-232.0,-0.452863590324323,0.2357420305469048,0.1388182994097022,-0.8485692330866021
-9060.803803682327,-3700.0,-1608.0,-15820.0,-1567.0,-116.0,-1014.0,-0.4877849583090926,0.27346646196198215,0.2767279218413183,-0.7814752625021332
-9060.81943154335,-3348.0,-1376.0,-15288.0,-1889.0,306.0,-3400.0,-0.6454596191325489,0.2772553423602156,0.44851992508958727,-0.5525769014350994
-9060.83501791954,-3548.0,-1672.0,-15944.0,-1658.0,97.0,-3575.0,-0.7388651619131196,0.2227815969989972,0.5765265514056234,-0.2684469557920429
-9060.850637197495,-3256.0,-2792.0,-15752.0,-1599.0,-52.0,-2068.0,-0.7345156824286606,0.2152394631700693,0.6412606363075081,-0.05425386698761147
-9060.866258144379,-3228.0,-2164.0,-15848.0,161.0,-298.0,1482.0,-0.7074186080003486,0.28407382296794326,0.6264714841103148,-0.16246370596489101
-9060.881826162338,-3768.0,-1268.0,-15264.0,-732.0,-142.0,181.0,-0.6771898342341687,0.33652975295641885,0.6398750825115319,-0.1368266515188147
-9060.897402048111,-4304.0,-476.0,-15708.0,200.0,-482.0,693.0,-0.6457840759928691,0.35676813877779145,0.6439434129653303,-0.20252482130748575
-9060.913005590439,-3836.0,48.0,-16272.0,-35.0,-463.0,108.0,-0.6159900900515306,0.35645119895191046,0.6668815361748868,-0.2208342555698184
-9060.928716182709,-3552.0,1424.0,-15960.0,-99.0,-210.0,-1203.0,-0.6201013382270715,0.28619569685755286,0.7136070672779434,-0.15598495748048222
-9060.944335222244,-3500.0,1916.0,-15736.0,-785.0,-93.0,-2080.0,-0.6113500809284736,0.19432047037816494,0.767124996615135,0.003142118550674111
-9060.960002660751,-2988.0,2064.0,-15648.0,-826.0,-289.0,-285.0,-0.5757993782656347,0.21871518705118445,0.784805961379097,0.06854448136724943
-9060.975605487823,-2884.0,1536.0,-15148.0,-1396.0,-131.0,-302.0,-0.5339387428251646,0.2669168755616184,0.7828676203149186,0.17545110291235738
-9060.991241693497,-3044.0,1272.0,-16212.0,-736.0,-8.0,833.0,-0.5262722617367706,0.35661960083374666,0.7492256510997384,0.18579798320169238
-9061.006844997406,-3304.0,84.0,-16756.0,-785.0,-345.0,1114.0,-0.4933890264483086,0.4676765183744674,0.71248202372742,0.17382551195611912
-9061.022462844849,-2584.0,356.0,-16760.0,426.0,-145.0,2611.0,-0.5271975894578091,0.5981943626939744,0.6028545282615644,0.028153576425600638
-9061.038047790527,-3316.0,1504.0,-15736.0,190.0,116.0,1753.0,-0.5408639354336772,0.673564562227873,0.5006610733312135,-0.055816426872439276
-9061.053606748581,-3488.0,1912.0,-15504.0,496.0,146.0,895.0,-0.5694653404439755,0.6873381329418328,0.4370565468680251,-0.11071175130427753
-9061.06919336319,-3572.0,1168.0,-15276.0,-141.0,269.0,609.0,-0.5641233184788459,0.7190788995731345,0.38790374688014856,-0.11925225739350334
-9061.084752321243,-3668.0,1532.0,-15156.0,244.0,-78.0,1639.0,-0.5536984864543321,0.7540546418938223,0.2834462160831274,-0.2108976664752794
-9061.100323915482,-3144.0,624.0,-15644.0,-161.0,-220.0,3194.0,-0.46090979530483134,0.8060214069472298,0.08367407147066076,-0.36178764752046116
-9061.115924358368,-3136.0,380.0,-15964.0,172.0,49.0,2161.0,-0.3978396291412891,0.8023772730938399,-0.07442166837800059,-0.4386066077740393
-9061.131500959396,-3384.0,-420.0,-16776.0,952.0,43.0,2452.0,-0.36079114310409977,0.7360984512898875,-0.27687277544998085,-0.5013285223093642
-9061.147130966187,-3532.0,388.0,-16052.0,1105.0,375.0,1902.0,-0.3330783358952711,0.6595516154095699,-0.4508072125304906,-0.500822669113882
-9061.162730693817,-4048.0,1400.0,-15576.0,871.0,343.0,1095.0,-0.3191820796125494,0.6015585354199614,-0.5575897721617857,-0.47470388085433524
-9061.178301811218,-4116.0,1616.0,-15168.0,191.0,281.0,200.0,-0.3069047324532476,0.5979130864660862,-0.5836098402494917,-0.455751007233513
-9061.193898200989,-4160.0,1660.0,-15364.0,-329.0,252.0,13.0,-0.2760425346014191,0.6157937843158873,-0.5777030955842686,-0.4591924080830344
-9061.209519147873,-3884.0,332.0,-16160.0,-722.0,251.0,-141.0,-0.22958373600966717,0.6489879759891094,-0.5460997861454736,-0.47736876600095074
-9061.225129842758,-3264.0,-464.0,-16960.0,-67.0,-253.0,282.0,-0.2258765656608148,0.6261466511716696,-0.5540014400483376,-0.5000025527296308
-9061.24074101448,-2896.0,-1296.0,-17068.0,282.0,360.0,224.0,-0.21381766663609525,0.6249927644357783,-0.5851554437075854,-0.470381926243556
-9061.256321668625,-3560.0,120.0,-16292.0,1042.0,293.0,254.0,-0.24401479393837158,0.6019024082363968,-0.6443125211620715,-0.4037717751059564
-9061.271940231323,-3312.0,-80.0,-15608.0,926.0,510.0,954.0,-0.22847624033869948,0.5424483665181586,-0.7323606033619448,-0.34233948633746925
-9061.287515163422,-3888.0,712.0,-15628.0,977.0,340.0,43.0,-0.2505387292613554,0.5283030039479847,-0.7673206191859067,-0.26333504994929535
-9061.303091526031,-4076.0,-12.0,-15920.0,587.0,383.0,175.0,-0.24725736667402032,0.5116067624055719,-0.7957471576033485,-0.2095442112121198
-9061.318660974503,-4276.0,-716.0,-15624.0,405.0,580.0,-1218.0,-0.245295213020353,0.5936399412950134,-0.7556628212472899,-0.12804522307817223
-9061.334233999252,-3340.0,-2004.0,-16880.0,1414.0,568.0,-4.0,-0.27844139026387066,0.5650709220324347,-0.7766207211762326,-0.005049821882517398
-9061.349803686142,-4376.0,-1508.0,-16004.0,1985.0,563.0,-707.0,-0.3322239322583021,0.5550883757451283,-0.7430830368289524,0.17126515794091976
-9061.365398645401,-4404.0,1000.0,-15356.0,2406.0,213.0,923.0,-0.43758653202695136,0.4119871118161337,-0.7395759325562917,0.30300509347124455
-9061.38100862503,-4540.0,2312.0,-14384.0,1039.0,113.0,326.0,-0.47396708445490965,0.3467336313516143,-0.7250261067068563,0.35981680941353167
-9061.39660525322,-4548.0,2504.0,-14564.0,376.0,-79.0,-143.0,-0.4854060993354725,0.34251239082461166,-0.7053764076673136,0.386665623460227
-9061.412249326706,-3976.0,816.0,-15428.0,-277.0,-73.0,-513.0,-0.4635459248365093,0.3878155345654966,-0.6955828560739344,0.3884440462321074
-9061.427853822708,-3444.0,-616.0,-16196.0,-616.0,-39.0,-687.0,-0.42024686450350796,0.4543382057512517,-0.6895810091478406,0.3760949341487456
-9061.443447113037,-3148.0,-2220.0,-16948.0,87.0,147.0,-567.0,-0.3955476702134436,0.47987836223198566,-0.6689155773237185,0.4071986597030254
-9061.459089517593,-3236.0,-1052.0,-16832.0,1399.0,139.0,602.0,-0.4631733079300168,0.38815828222555715,-0.6436970021431825,0.4695293432712701
-9061.47469997406,-3584.0,756.0,-15424.0,1140.0,176.0,303.0,-0.5014947850402587,0.3162142395568511,-0.6112862655514366,0.5242524552418288
-9061.490289449692,-3568.0,1056.0,-14932.0,972.0,119.0,516.0,-0.5429480785476014,0.23964997278004438,-0.5837922092281271,0.5540414524135665
-9061.505892276764,-3596.0,660.0,-15708.0,476.0,-65.0,1026.0,-0.6027767138268614,0.16719722375143342,-0.5766005357898566,0.525582670723411
-9061.521513938904,-3792.0,204.0,-15760.0,-78.0,100.0,-274.0,-0.5837177586965314,0.18045691348603118,-0.5814994180881388,0.5371846119543534
-9061.537105321884,-3372.0,-632.0,-16288.0,207.0,213.0,-923.0,-0.5308844074591392,0.20606639301849447,-0.5663478371621565,0.5957755575104214
-9061.552732944489,-3360.0,-2188.0,-17348.0,477.0,283.0,-1967.0,-0.4165384046560679,0.2623870818438709,-0.5114814823905378,0.7042978559527308
-9061.568376779556,-2916.0,-2268.0,-16752.0,2483.0,349.0,1018.0,-0.5064140012568258,0.10251595551364784,-0.384574454432063,0.7649430221882257
-9061.584008693695,-3356.0,336.0,-16076.0,2170.0,323.0,722.0,-0.5520639434543854,-0.03840323567120763,-0.25562677319126187,0.792720345806387
-9061.599615573883,-2888.0,896.0,-15080.0,1285.0,386.0,268.0,-0.5537324004599264,-0.1321903312505835,-0.18341770971317078,0.8014138062002197
-9061.615271091461,-3160.0,908.0,-15456.0,1518.0,306.0,1343.0,-0.6154451443681335,-0.24478485459132535,-0.07556805267918762,0.7453838733502804
-9061.630850315094,-3584.0,4.0,-15584.0,764.0,460.0,150.0,-0.603899505328312,-0.3160237883273481,-0.04735745410099275,0.7301997152947429
-9061.646446943283,-3096.0,-780.0,-16468.0,1126.0,451.0,263.0,-0.5842309534386066,-0.4031129367573485,0.007728038954948848,0.7043539101027219
-9061.66204071045,-3148.0,-1272.0,-17296.0,1582.0,608.0,-1.0,-0.5231141115570962,-0.5158036916756836,0.07307673600325859,0.6745057216945428
-9061.677627563477,-2992.0,300.0,-15980.0,2221.0,664.0,-21.0,-0.4175420274197479,-0.6436119339827,0.16911648321357137,0.6187260693382242
-9061.693223953247,-2760.0,2652.0,-14420.0,2018.0,645.0,1267.0,-0.37342333938112604,-0.717013826694239,0.31845972853717985,0.49500462950840973
-9061.708800554276,-2740.0,3756.0,-13988.0,576.0,594.0,1733.0,-0.4226854518037409,-0.7036410593843262,0.42652655517985993,0.3798701963939425
-9061.72438287735,-3220.0,3184.0,-14580.0,-582.0,754.0,2042.0,-0.5435475404465214,-0.6194942801700061,0.4953917629281267,0.27453580701639985
-9061.74001455307,-3196.0,1248.0,-16092.0,-1122.0,387.0,1821.0,-0.6526977441668534,-0.488316128897255,0.5390989853324669,0.21190869975488244
-9061.75561761856,-2876.0,-1192.0,-16848.0,-1114.0,662.0,1491.0,-0.7476602528121171,-0.3618005404911697,0.5365831463809557,0.1489397270211423
-9061.771295309067,-2536.0,-2204.0,-17368.0,666.0,875.0,2367.0,-0.7782386903401831,-0.29828839388732165,0.5490268087661976,-0.06275458696958852
-9061.78689455986,-3736.0,-2016.0,-17160.0,1638.0,840.0,4054.0,-0.702288632737369,-0.19649072990119099,0.548785370182973,-0.4086767510685082
-9061.802467823029,-4384.0,-540.0,-15804.0,2228.0,433.0,3844.0,-0.5102008139328734,-0.12444892563416746,0.47423211328020604,-0.7066197684076808
-9061.818063735962,-5340.0,-88.0,-15892.0,2287.0,761.0,4447.0,-0.22183796721706298,0.004311454604926513,0.31825605511911803,-0.9216737009594057
-9061.833646774292,-5204.0,2168.0,-15444.0,932.0,950.0,-1894.0,-0.3929249026724128,0.01004819346271236,0.2213898466861929,-0.892466016413104
-9061.84922862053,-3972.0,-1448.0,-16608.0,1780.0,451.0,1108.0,-0.31145041411229135,0.0056243574738707985,0.06545760265511362,-0.9479885592173217
-9061.864905834198,-5336.0,1584.0,-14252.0,892.0,-194.0,163.0,-0.29630928050811917,-0.03331290829048561,-0.0032198234148617436,-0.954505470473149
-9061.880530118942,-4476.0,776.0,-13580.0,1116.0,-1377.0,8692.0,0.3404751782428961,-0.1415808221574446,-0.028064930136825164,-0.9291091881442705
-9061.896109342575,-6508.0,3060.0,-10592.0,-1947.0,-1971.0,1906.0,0.4473071020459378,-0.34896780583900494,0.09088508191911326,-0.8184605847759143
-9061.911736011505,-3008.0,2856.0,-14036.0,751.0,-1704.0,11181.0,0.9116120799968722,-0.25091046343401047,0.22132011303788696,-0.23879858146145522
-9061.927435874939,-4488.0,7552.0,-12680.0,-6278.0,-495.0,-6795.0,0.499282163260521,-0.6935989479441627,0.12773534187235833,-0.5033105435984794
-9061.943056344986,-1808.0,-1684.0,-15484.0,-5396.0,-281.0,-3100.0,0.03471154256827452,-0.8572546795598489,0.14489599602572126,-0.4928637474201017
-9061.958684444427,-2540.0,-3064.0,-15432.0,-4068.0,-1483.0,1854.0,-0.15822553348871254,-0.8416841341903112,0.4200221662063004,-0.3001897378324009
-9061.97432422638,-2800.0,-2672.0,-15540.0,-3699.0,-1882.0,6504.0,-0.15789743001823844,-0.4989861508338148,0.8466606335335104,-0.09616129415894595
-9061.990000486374,-3220.0,-2996.0,-16408.0,-4511.0,-778.0,-491.0,-0.2789952240774299,-0.4450701948017293,0.8109195000222985,0.25784443202194757
-9062.005603790283,-192.0,-7224.0,-21204.0,640.0,-750.0,5664.0,-0.2934478869812865,-0.038396008745544004,0.9507095806985482,0.09254932364215919
-9062.021203041077,-2744.0,5236.0,-20112.0,2793.0,-478.0,4879.0,-0.25436962773860006,0.2679780065851859,0.8989032696720276,-0.23549265857706503
-9062.03680062294,-3576.0,3728.0,-18808.0,-2576.0,874.0,-106.0,-0.2574569310054188,0.325768477965216,0.909663677476948,-0.010140084842473324
-9062.05237197876,-4400.0,-2504.0,-16856.0,2012.0,553.0,7425.0,-0.291755835573165,0.7221958920425938,0.5677740386996109,-0.2663536500679862
-9062.067973852158,-5768.0,3508.0,-14516.0,175.0,1602.0,-83.0,-0.380079548472861,0.7436601126680829,0.5230191029781305,-0.1701769419725005
-9062.083550453186,-4160.0,960.0,-16152.0,-1003.0,1713.0,-2958.0,-0.41712207995927814,0.6373961240015614,0.6427729313010171,0.08110678334719838
-9062.099125146866,-2464.0,-144.0,-16624.0,132.0,1616.0,-64.0,-0.5093175037507837,0.6115940388546791,0.5827394087038646,0.1642047306077446
-9062.114715337753,-1556.0,420.0,-15980.0,-515.0,1736.0,-573.0,-0.5541027438706432,0.572803990774856,0.521799219225166,0.3042882058237394
-9062.130289554596,-1040.0,-84.0,-16468.0,172.0,1617.0,1471.0,-0.6631708624807529,0.5782234953332615,0.3681172309429799,0.30058559660102346
-9062.145940065384,-1556.0,1192.0,-15596.0,-384.0,1639.0,486.0,-0.700868147667316,0.5666976241135069,0.2360562592359372,0.3632011631107862
-9062.161545038223,-3308.0,648.0,-15428.0,-370.0,1433.0,-422.0,-0.6923498074597721,0.5307049092885434,0.15621887263324133,0.4632490768481408
-9062.177152872086,-4244.0,-496.0,-16160.0,-420.0,1196.0,-1464.0,-0.621098803239099,0.48122513951924056,0.13291485044714274,0.604145913037786
-9062.192748785019,-3996.0,168.0,-15728.0,-1098.0,1460.0,-2942.0,-0.41803956288175986,0.41153482121224355,0.1143650648622747,0.8017497407136978
-9062.20833683014,-3160.0,-1276.0,-16080.0,-1638.0,1556.0,-2388.0,-0.19956504706665257,0.3257464863632016,0.027663821399804837,0.923741160497286
-9062.223959207535,-2056.0,372.0,-16244.0,-487.0,1904.0,-451.0,-0.15161394514629611,0.17723944039936615,-0.03142424521805172,0.9719114719029563
-9062.239553928375,-1048.0,3648.0,-15852.0,-1207.0,2684.0,-1507.0,0.002195495551778463,-0.028863752976825172,-0.1401331528930093,0.9897094336337506
-9062.255140066147,-1448.0,4448.0,-16012.0,-260.0,2984.0,-1241.0,0.1397004779735882,-0.26150360602271666,-0.15891534531762494,0.9417247758839346
-9062.270786762238,-3408.0,5392.0,-15728.0,-2042.0,2079.0,-3296.0,0.3666312101450039,-0.38448358420701795,-0.3515452349366153,0.7708241544063696
-9062.286371707916,-1728.0,-292.0,-16240.0,-2971.0,2099.0,-3114.0,0.4988711404523418,-0.48476144571188,-0.5433112043818632,0.47004984966303015
-9062.301997184753,-3504.0,-1364.0,-15648.0,-1657.0,1362.0,-5617.0,0.6407056195577737,-0.3069478405939449,-0.6993123459823384,0.07900363902050177
-9062.31758761406,-4508.0,-320.0,-16476.0,-563.0,1685.0,-4563.0,0.6985951663635411,-0.06590778770400135,-0.6725754743567545,-0.23508123776100742
-9062.333161830902,-5460.0,84.0,-15924.0,-1417.0,1764.0,-7562.0,0.5259349337369451,0.26993293561579507,-0.4773754817521188,-0.6501086871953693
-9062.348745584488,-3184.0,-240.0,-16436.0,829.0,2181.0,-2775.0,0.41919507042433735,0.5219853240176395,-0.34240258355501474,-0.6592171760633866
-9062.36434173584,-2400.0,2612.0,-15604.0,221.0,2610.0,-5376.0,0.15757101062509662,0.7456091681914029,-0.013204801674256455,-0.6473515104888948
-9062.379971265793,-1028.0,2472.0,-16100.0,493.0,1680.0,-5539.0,-0.16544836886126255,0.7616039248992968,0.3054001088127842,-0.5470987775130496
-9062.39556479454,-2004.0,-3100.0,-17904.0,-503.0,1402.0,-2439.0,-0.2772603707109383,0.7480244656383286,0.4573209649300655,-0.3929931560156741
-9062.411145448685,-1552.0,516.0,-16268.0,644.0,750.0,1462.0,-0.2954161838375771,0.8071430199549204,0.3179716085078445,-0.4001793096198598
-9062.426728010178,-3500.0,-1756.0,-16572.0,-366.0,350.0,2531.0,-0.18609804089903004,0.877189464103045,0.13998946489767955,-0.41989178719976994
-9062.442320108414,-2360.0,728.0,-15752.0,980.0,759.0,3646.0,-0.12951361153416913,0.8851235759428913,-0.1775751464971969,-0.41018233394911613
-9062.457952022552,-3192.0,-156.0,-15832.0,-1172.0,957.0,607.0,-0.002319973534500935,0.9141212490725233,-0.19142080424105032,-0.3574003853112061
-9062.473556041718,-2176.0,-280.0,-16004.0,250.0,819.0,3827.0,0.10478478327217705,0.8286124203291002,-0.4774808225978258,-0.2728253472869726
-9062.489188194275,-2744.0,932.0,-15960.0,-811.0,523.0,1882.0,0.2260365282716432,0.7427930601744882,-0.5797216473905357,-0.24716142334580674
-9062.50477695465,-2468.0,-244.0,-16584.0,-920.0,643.0,2853.0,0.36660041407642874,0.574108589322932,-0.7073238160676285,-0.1889351298413074
-9062.520350694656,-1756.0,1196.0,-16140.0,-740.0,724.0,3508.0,0.4819787508925193,0.3295733803719396,-0.807689084567851,-0.08195250641832849
-9062.535960435867,-2488.0,-188.0,-16408.0,-401.0,429.0,4990.0,0.5121006935852845,-0.032866510891898564,-0.8521406653506266,0.10261071360756875
-9062.551543235779,-1592.0,1764.0,-15796.0,-587.0,432.0,4785.0,0.46007373199270574,-0.38580368134966203,-0.7595659530831947,0.2500944691594968
-9062.567175149918,-2504.0,76.0,-16384.0,-881.0,192.0,4418.0,0.32238089958893607,-0.6684114352218481,-0.5792290900404217,0.3373282823835599
-9062.582803964615,-2020.0,1488.0,-15824.0,-948.0,-124.0,2865.0,0.17041604675552013,-0.8087336907764329,-0.4289210769569412,0.36460238363654063
-9062.598422765732,-1848.0,1336.0,-16336.0,-2485.0,270.0,370.0,-0.006647594049984107,-0.8478330490822492,-0.4666575437426538,0.2517253806141056
-9062.61401438713,-2024.0,1376.0,-15744.0,-2720.0,-194.0,-1939.0,-0.16633551617313583,-0.7324971585532146,-0.6429000108277577,0.14986655680488536
-9062.629591941833,-2148.0,1172.0,-16116.0,-3320.0,153.0,-2334.0,-0.3197601842380331,-0.5235256098741895,-0.7896420438112687,-0.011823833028226675
-9062.645167589188,-2248.0,1124.0,-16248.0,-2224.0,-25.0,-1387.0,-0.41354266071326523,-0.3567753254834192,-0.828732153569806,-0.1220526629613012
-9062.660765647888,-2456.0,1304.0,-16188.0,-1810.0,-82.0,-664.0,-0.4759339822249426,-0.24097824192976186,-0.8158421362140572,-0.22319932853311358
-9062.676398515701,-2260.0,1632.0,-15988.0,-1263.0,50.0,179.0,-0.4921653027309521,-0.19911215734124693,-0.7848835904105702,-0.3195080798522579
-9062.69205236435,-2172.0,1076.0,-16476.0,-1170.0,-54.0,706.0,-0.4928113552241473,-0.1973649223382812,-0.7326859717916013,-0.42585833599019773
-9062.707633018494,-1408.0,2556.0,-15496.0,-329.0,-109.0,-174.0,-0.5114350023855756,-0.17610219135155536,-0.718568270282077,-0.4371291542323282
-9062.723234415054,-2004.0,1416.0,-16444.0,-644.0,-290.0,-84.0,-0.5415124249457651,-0.15290639763801828,-0.6812697198769911,-0.46824725943613094
-9062.738810062408,-1828.0,2336.0,-16120.0,-102.0,-164.0,-1095.0,-0.5944051428180988,-0.0893220862368656,-0.6809958368138037,-0.4182687668759848
-9062.75440621376,-2496.0,1972.0,-15980.0,-143.0,180.0,-1937.0,-0.6460477392605604,0.03917964479751426,-0.6905124989670175,-0.3229237724296315
-9062.770018339157,-2564.0,2084.0,-15656.0,388.0,278.0,-4296.0,-0.7031176528567389,0.2657211214722895,-0.6574504806209378,-0.05269456685500992
-9062.785609006882,-2192.0,1536.0,-16620.0,715.0,300.0,-3522.0,-0.6853195650965767,0.4057392674341815,-0.5701411743570612,0.20162287038072835
-9062.8012008667,-2052.0,1408.0,-15980.0,159.0,278.0,-4595.0,-0.5530618716293579,0.5753351951969836,-0.39107835213584596,0.4584426919563576
-9062.81678724289,-1080.0,316.0,-16532.0,1219.0,-228.0,-1447.0,-0.5563680472696936,0.5674209312684527,-0.2553028011178161,0.5507345662632286
-9062.832387685776,-2576.0,1628.0,-16180.0,665.0,-279.0,-2651.0,-0.45508600819197265,0.5910868615459897,-0.07648342759538165,0.6615612840537676
-9062.84801697731,-1492.0,1364.0,-16540.0,891.0,-280.0,-1443.0,-0.4148576673498812,0.5753274863203293,0.059812642764584444,0.7023630450777308
-9062.863614797592,-964.0,1472.0,-15704.0,809.0,-98.0,181.0,-0.4647237605417567,0.551795304662986,0.10363151373623196,0.6847001369216656
-9062.879274845123,-1084.0,2220.0,-15656.0,515.0,-167.0,590.0,-0.5218769433028129,0.5451539105921941,0.11257206442011143,0.6463584146022583
-9062.894879579544,-1768.0,196.0,-16768.0,470.0,-470.0,2623.0,-0.6690609167274723,0.5608669451445693,0.03478578494785759,0.4863904899538587
-9062.910451889038,-1832.0,1392.0,-16264.0,714.0,-614.0,2998.0,-0.7997326060596277,0.5348632574411052,-0.044162167418248924,0.26907017228501756
-9062.926156759262,-1944.0,1160.0,-16412.0,397.0,-851.0,5464.0,-0.854876426052424,0.4558008260523812,-0.20752884556945844,-0.13551266142471485
-9062.941778421402,-1988.0,772.0,-15664.0,-485.0,-791.0,5420.0,-0.7083101387993846,0.34683941899559556,-0.3232309660443636,-0.5229922631309393
-9062.95739531517,-2644.0,712.0,-16368.0,389.0,-909.0,7267.0,-0.3486576803228465,0.06446229006518843,-0.42531788917831126,-0.8326987019662927
-9062.973033428192,-2972.0,2476.0,-15748.0,35.0,-548.0,4478.0,-0.040726436532862224,-0.1326417650003695,-0.40631568575121924,-0.9031362483354535
-9062.988706827164,-2840.0,1116.0,-16892.0,-295.0,-761.0,1837.0,0.07252396955417698,-0.25287520942852315,-0.35399462047258057,-0.8974866076845154
-9063.004293203354,-1636.0,1812.0,-16828.0,611.0,-984.0,1274.0,0.15362442582394456,-0.3614914196031492,-0.3760004672440294,-0.8392539174623105
-9063.019920825958,-1352.0,1580.0,-16944.0,376.0,-1632.0,14.0,0.11171582864591273,-0.4715715714987841,-0.4207159081765518,-0.7669015263978183
-9063.035522937775,-620.0,1372.0,-16912.0,2354.0,-2125.0,2852.0,0.30118283121083694,-0.6519762992517575,-0.45149970422388525,-0.5294939324331787
-9063.05110836029,-1552.0,1928.0,-16572.0,3098.0,-2308.0,2399.0,0.46212181214640824,-0.717401969934123,-0.48233165356587315,-0.19782320450738333
-9063.06672000885,-2508.0,2636.0,-16240.0,5713.0,-2505.0,2848.0,0.6549609708293974,-0.557980118039383,-0.43228882090888576,0.26983456020342295
-9063.082313776016,-4256.0,2332.0,-16160.0,6560.0,-2640.0,-1135.0,0.7643923616788688,-0.06633708459600036,-0.41053824184804294,0.49270890046215154
-9063.097944498062,-4108.0,3004.0,-17888.0,9183.0,-1441.0,-2554.0,0.670100029650997,0.5354684888130747,-0.09706875711709809,0.5047941205498702
-9063.113535404205,-3700.0,4304.0,-18092.0,10241.0,-966.0,-5946.0,0.309015655035866,0.8520378002013819,0.3994350974833426,0.13781333342321134
-9063.129132032394,-2272.0,4372.0,-19664.0,11179.0,389.0,-6247.0,-0.30717314211377256,0.6206875985609739,0.6725109643452788,-0.2609991735464818
-9063.144741773605,-1936.0,3536.0,-22884.0,13421.0,339.0,-4058.0,-0.7253309610724229,0.019334830367112175,0.3655134879854863,-0.583027487641118
-9063.160282611847,-1816.0,4304.0,-24864.0,13465.0,1106.0,-4729.0,-0.6399089692318052,-0.5797526167347894,-0.2383383745249344,-0.444520228690062
-9063.175957679749,208.0,6028.0,-26072.0,13540.0,2325.0,-4013.0,-0.038789279858973354,-0.7264286302422713,-0.6852425028831143,-0.03520723185433323
-9063.191536903381,-2712.0,3512.0,-23672.0,13613.0,3205.0,-1782.0,0.6371528988884182,-0.41383674270970194,-0.5367213723252477,0.3670224820236653
-9063.207111120224,-856.0,3588.0,-20984.0,13016.0,3951.0,429.0,0.8235005747365425,0.10508821415683268,0.07420185417589756,0.5525371982869306
-9063.222695350647,-1888.0,6332.0,-17300.0,12245.0,4231.0,4499.0,0.29931328906253846,0.5195491204613742,0.5947089800875714,0.5355385097465711
-9063.238295555115,-3784.0,9164.0,-14448.0,8162.0,4008.0,1803.0,-0.2821800572674074,0.4968060614751987,0.7768352612393615,0.26473596177557146
-9063.253897428513,-4584.0,11260.0,-12620.0,4870.0,3339.0,2932.0,-0.6824171387783863,0.43210547136204536,0.5895367123294277,0.006178603103853031
-9063.269527196884,-5328.0,10432.0,-9956.0,310.0,2582.0,2340.0,-0.7920473383780539,0.5094862412199673,0.33262379148386656,-0.049459044821826774
-9063.285159826279,-5344.0,9888.0,-9044.0,-2255.0,1429.0,6596.0,-0.5986093814498116,0.7332204349895364,-0.04225347176640535,-0.31979563204914874
-9063.300746679306,-6860.0,9872.0,-8648.0,-6345.0,198.0,6429.0,-0.00956147089357708,0.8217527086081596,-0.2253908299170268,-0.5232877200535268
-9063.316310405731,-6116.0,8276.0,-9404.0,-9205.0,-515.0,8424.0,0.6931385014015558,0.4328551498350306,-0.27640523980821186,-0.5057623755704489
-9063.331939458847,-6408.0,6176.0,-9940.0,-12005.0,-1454.0,6425.0,0.8953753598665896,-0.32871030722153016,-0.04958184569474457,-0.29630075843238257
-9063.347524642944,-4872.0,1564.0,-12076.0,-14329.0,-1322.0,4188.0,0.35635356635863646,-0.9115242684431513,0.20522593336354236,0.004237930830211171
-9063.363103151321,-4096.0,2548.0,-14288.0,-12740.0,-2383.0,8478.0,-0.3674255471969603,-0.6869123031176738,0.4762781588504067,0.40781009121238515
-9063.378694295883,-6264.0,4464.0,-14692.0,-16072.0,-2655.0,3119.0,-0.7568328205496712,0.029743268141306886,0.10032143612071916,0.6451782925624358
-9063.394270658493,-4528.0,864.0,-16000.0,-17061.0,-2635.0,5349.0,-0.5305085132251862,0.7237821434323396,-0.3749354652808736,0.232644628389966
-9063.409833431244,-4616.0,-16.0,-16968.0,-16057.0,-3797.0,9318.0,0.08820859438834901,0.6413120074437636,-0.5762859937673188,-0.49883124037302984
-9063.425421237946,-5128.0,64.0,-18400.0,-17190.0,-3381.0,10110.0,0.650826122985699,-0.07219779668786282,-0.2070068002180079,-0.7268844615592794
-9063.44101190567,-2968.0,-1996.0,-17424.0,-17625.0,-2670.0,10949.0,0.5697754411306627,-0.6920590560532894,0.3978388968688777,-0.19528036705501975
-9063.456618070602,-1616.0,-2688.0,-17164.0,-17203.0,-2229.0,11757.0,-0.09193522669874418,-0.5648413449711607,0.619007698033528,0.5378955650293589
-9063.47224020958,-1504.0,-2708.0,-18400.0,-16926.0,-1309.0,8046.0,-0.6422190727649302,0.03484721649735802,0.12066675022672092,0.7561612721298689
-9063.487859725952,-2112.0,-3492.0,-19352.0,-16451.0,-315.0,4839.0,-0.5044932861887781,0.5715675779325159,-0.5343580287009824,0.3650459220558492
-9063.503454685211,-2528.0,-3896.0,-18628.0,-15304.0,435.0,2021.0,0.12804006808402635,0.6776504604739865,-0.6804100954987033,-0.24786628719508677
-9063.519068956375,-2656.0,-3552.0,-18392.0,-14275.0,621.0,-301.0,0.6271344176059518,0.3437975499440674,-0.21704280944648227,-0.6643779690613454
-9063.534682035446,-3512.0,-3200.0,-17940.0,-13279.0,614.0,-658.0,0.6518230109261105,-0.21834659512604904,0.3955425374082173,-0.6090957461062668
-9063.550273418427,-3552.0,-2392.0,-17228.0,-12001.0,214.0,28.0,0.2880381128002149,-0.6136098126866012,0.7224757112259923,-0.13618329573667068
-9063.56584596634,-3704.0,-1164.0,-17424.0,-10966.0,182.0,189.0,-0.22289424181179682,-0.6321402747898779,0.6266387546524723,0.39754333238443407
-9063.58142709732,-3404.0,-288.0,-17004.0,-9645.0,163.0,-857.0,-0.5606502292928096,-0.379794086463431,0.18460439544157956,0.71228434593565
-9063.596988916397,-3008.0,0.0,-17804.0,-8659.0,348.0,-1175.0,-0.6202187454590291,0.0023850772453256446,-0.32557749552671045,0.7136682097405747
-9063.612540245056,-1916.0,-528.0,-16620.0,-6907.0,806.0,-926.0,-0.458924206303576,0.3004315711912792,-0.6817708881744187,0.4840639419932418
-9063.628116369247,-2900.0,1760.0,-14380.0,-5722.0,312.0,-4382.0,-0.08893810936276976,0.6576342714131888,-0.6949831790118344,0.2767770920008103
-9063.643714904785,-2384.0,1708.0,-15120.0,-3768.0,-99.0,-869.0,0.1348697370605671,0.7029972044998579,-0.6967426850815023,0.04641891075862125
-9063.659314393997,-3656.0,3724.0,-14952.0,-4334.0,555.0,-4725.0,0.3953964428577884,0.8170194366641657,-0.36432944455757943,-0.20833854400168628
-9063.674907207489,-3152.0,2856.0,-16060.0,-4566.0,973.0,-4980.0,0.5679646000991229,0.7179758279529751,0.0921747163444439,-0.3917023681014769
-9063.690499782562,-3048.0,2056.0,-15980.0,-4556.0,1105.0,-6604.0,0.5051917770366824,0.3895964776672624,0.5851171591294839,-0.5006333619486656
-9063.706092357635,-1952.0,1328.0,-15816.0,-2302.0,1222.0,-5137.0,0.2649012931697379,0.07089977975809761,0.8169548126023368,-0.5073316078001983
-9063.721683502197,-2864.0,1672.0,-15496.0,-342.0,1165.0,-5283.0,-0.04520211227339985,-0.23685012502647132,0.8062414165641083,-0.5402162210982449
-9063.737290620804,-3244.0,2236.0,-15460.0,827.0,729.0,-3425.0,-0.22976530521546648,-0.4262570773500809,0.6619108365803515,-0.5721772915327117
-9063.752873659134,-3736.0,3368.0,-14708.0,2296.0,526.0,-4129.0,-0.3517863757899312,-0.6324274652277849,0.3540095831214026,-0.5924179792109242
-9063.768466949463,-3436.0,3688.0,-15120.0,1474.0,1222.0,-6249.0,-0.5482803771447604,-0.7016560887045029,-0.09083115141856693,-0.44588907045797327
-9063.784096002579,-3172.0,776.0,-15784.0,1981.0,994.0,-8294.0,-0.593546904925016,-0.5539750082943089,-0.5789233245111035,-0.0752432467153434
-9063.799705266953,-2912.0,-1868.0,-15784.0,4176.0,883.0,-7326.0,-0.317427099750961,-0.3170709430368634,-0.8089516913004232,0.3798726294004247
-9063.815304994583,-2480.0,-2384.0,-15592.0,6282.0,1271.0,-6492.0,0.1263522743564972,-0.05866681601081556,-0.638188005503951,0.7571719600559589
-9063.830906867981,-1092.0,-5476.0,-16124.0,7785.0,1227.0,-7310.0,0.5233515383848828,0.2575931153383064,-0.10793493270530055,0.8050459642171898
-9063.846496343613,-824.0,-144.0,-17268.0,14769.0,-213.0,9597.0,-0.2644353310299406,0.4673056086397206,0.3839248437733432,0.7511997991017836
-9063.862090349197,-4952.0,10220.0,-12968.0,8436.0,1347.0,-7226.0,-0.12856201024777755,-0.04133126752960066,0.8590717079633642,0.49371989672521305
-9063.877705335617,1944.0,4272.0,-16944.0,8894.0,1221.0,8060.0,-0.3685539661594675,0.2826732835841079,0.8661305759210365,-0.18461206415236847
-9063.8933634758,-4096.0,6392.0,-16088.0,7982.0,1605.0,-1579.0,-0.5768469141568882,-0.05473508336979641,0.5873300730959916,-0.5650620262530779
-9063.908927202225,-3472.0,6504.0,-19888.0,8917.0,1025.0,-577.0,-0.48391288628348433,-0.3797721205429842,0.07350782644055802,-0.7849828370092288
-9063.924612283707,-8404.0,8140.0,-17664.0,6764.0,874.0,-6761.0,-0.5582971601888649,-0.4974567431465446,-0.4989209284749467,-0.43808558153947375
-9063.940242767334,-6360.0,5916.0,-17488.0,7346.0,750.0,-3608.0,-0.2799660802947195,-0.5441287204640438,-0.7906491688890183,0.020416199099681412
-9063.955873250961,-6192.0,4592.0,-18744.0,8115.0,583.0,-587.0,0.11965533080074736,-0.5726856774864608,-0.6666878268184561,0.46178031376935225
-9063.97151017189,-6444.0,5404.0,-18632.0,7306.0,1270.0,-845.0,0.4965957877990227,-0.41779906223437513,-0.33628480971358454,0.6824581261090259
-9063.987330675125,-5280.0,4784.0,-16896.0,6469.0,1467.0,-2226.0,0.7749986592310275,-0.13634981325238466,0.02676565328272391,0.6164976937673803
-9064.002980470657,-4716.0,1732.0,-15464.0,6572.0,1856.0,-1505.0,0.793664354305591,0.17457477187099507,0.4167025633301282,0.4074058362922405
-9064.018656492233,-4688.0,4656.0,-14932.0,6299.0,1716.0,-4437.0,0.6529387279200864,0.3199687787014776,0.6812632852910397,-0.08468373133514843
-9064.034254789352,-2832.0,1876.0,-14952.0,4276.0,1756.0,-8369.0,0.2818535173393813,0.06078138149326652,0.755218297872074,-0.5886506102828711
-9064.049847841263,716.0,1536.0,-13840.0,4421.0,2151.0,-8061.0,-0.229665634283846,-0.1939022286412889,0.48158327661792116,-0.8232455100629985
-9064.06544804573,936.0,-1008.0,-13680.0,2672.0,2193.0,-7389.0,-0.6577977419270686,-0.3263256508348721,0.09850748367255706,-0.6716472109547897
-9064.081068992615,656.0,-120.0,-14188.0,3796.0,1993.0,-2089.0,-0.6362856494475615,-0.4114547828587564,-0.27491477607554604,-0.591833929295272
-9064.09673833847,-3212.0,1432.0,-17628.0,3536.0,1353.0,386.0,-0.4335142867956755,-0.5194324949736551,-0.4925154241035124,-0.5474338346591467
-9064.112327337265,-6928.0,2968.0,-19424.0,3895.0,986.0,-461.0,-0.22302799458554165,-0.5657145615731852,-0.6949170978180983,-0.38381737273771527
-9064.127941131592,-7264.0,3596.0,-16760.0,2654.0,1935.0,-6411.0,-0.16034262196253996,-0.1386479152732698,-0.9634748061025405,-0.16365603312504598
-9064.1435277462,-4716.0,732.0,-15256.0,1405.0,2250.0,-7440.0,-0.049732692788294675,0.41116394210609486,-0.9098300962046099,0.026078113814297494
-9064.159085512161,-2272.0,-560.0,-14580.0,2094.0,2273.0,-4632.0,0.05933094303962013,0.6878178335049316,-0.6734799534969986,0.26421812834908215
-9064.17470741272,-1776.0,-344.0,-14012.0,1065.0,2029.0,-5578.0,0.21519636019825822,0.8623730451700446,-0.2687409447335308,0.3711893885138619
-9064.190284729004,-1268.0,1556.0,-17204.0,1918.0,1487.0,-1596.0,0.15249169805854082,0.8606000641448268,-0.05680350300940294,0.482583851432063
-9064.205890893936,-3716.0,40.0,-18616.0,1597.0,1178.0,-250.0,0.048118621510812684,0.8212438037998093,0.04423944727257347,0.5668210337393423
-9064.221525669098,-4092.0,1300.0,-16556.0,2496.0,1405.0,-469.0,-0.10953811892766924,0.7373260566580295,0.20091775551740132,0.6355971540156218
-9064.237149953842,-3624.0,956.0,-15836.0,1562.0,1572.0,-2578.0,-0.0906489830794695,0.565823897962727,0.42039757828337615,0.7034855752141591
-9064.252749204636,-2824.0,68.0,-14992.0,1490.0,1746.0,-2329.0,-0.08197466242796503,0.3476893708257534,0.5896903223674487,0.7243325064090298
-9064.268338918686,-1652.0,-960.0,-13564.0,643.0,1962.0,-3877.0,0.03983290211792071,0.018352985422732327,0.6855182860669218,0.7267332298050002
-9064.284013748169,-672.0,4.0,-14392.0,1022.0,2024.0,-2614.0,0.07934981003182105,-0.2516069766763185,0.7292470992347546,0.6313447593774832
-9064.299609422684,-1336.0,292.0,-17856.0,661.0,1263.0,-950.0,0.06508652465024992,-0.3729931916688836,0.745436423874917,0.5486021885102053
-9064.315224170685,-1860.0,1352.0,-19100.0,1048.0,1034.0,344.0,0.015315843597355563,-0.39085064552897664,0.805819344472986,0.4445856294321832
-9064.330799818039,-3452.0,1348.0,-16948.0,1132.0,1082.0,-626.0,0.002152382038863509,-0.47033635443205796,0.8210684036838568,0.32345905061253627
-9064.346377134323,-3536.0,940.0,-15368.0,791.0,1384.0,-3286.0,0.026969153452400946,-0.7095725645240388,0.6753542328485483,0.19918860562388657
-9064.361998081207,-2960.0,212.0,-15084.0,333.0,1679.0,-4523.0,0.02519096638720235,-0.9255077082756834,0.37316723990956563,0.05955760399015323
-9064.37760925293,-1640.0,-784.0,-14664.0,-524.0,1719.0,-5632.0,-0.038739089588939464,-0.9944543870815559,-0.07168891993418941,-0.06648649269390422
-9064.393190145493,-712.0,-760.0,-14416.0,-239.0,1434.0,-4421.0,-0.07039424569020132,-0.8873337831106245,-0.42511614178611695,-0.16419401181888774
-9064.408764600754,-1576.0,1548.0,-17288.0,-653.0,1055.0,-4027.0,-0.1309363297540973,-0.6746915640110872,-0.6890194267085833,-0.2299982622129447
-9064.424357652664,-2596.0,4.0,-20452.0,167.0,731.0,-272.0,-0.08231769452379264,-0.6440619501712934,-0.7150860250636261,-0.2589594143269196
-9064.439981937408,-3344.0,600.0,-16936.0,592.0,956.0,-835.0,-0.008200685110004704,-0.5703919635109251,-0.7765686967352274,-0.26744497747542106
-9064.455570936203,-3400.0,752.0,-15204.0,459.0,880.0,-2312.0,0.01975626938575826,-0.3843611607870136,-0.882069511858115,-0.271715962263544
-9064.471175670624,-2616.0,404.0,-15860.0,89.0,783.0,-4590.0,-0.02402287018630995,-0.011420018413398646,-0.9605712162051737,-0.27675878212906413
-9064.486804008484,-1692.0,-540.0,-15556.0,-470.0,675.0,-4452.0,-0.07018883475586983,0.35256325195288146,-0.8883424165690164,-0.28569289765820644
-9064.502426624298,-596.0,-848.0,-14760.0,-375.0,732.0,-2626.0,-0.06547274610182172,0.5607857516344447,-0.7805714027834075,-0.2682180930482148
-9064.518012285233,-1184.0,212.0,-15772.0,40.0,633.0,-1318.0,-0.05466740654979089,0.6598458971701195,-0.7148840434936209,-0.22484588278883516
-9064.533618688583,-1284.0,1424.0,-16612.0,-18.0,525.0,-3210.0,-0.08057841152187387,0.8374406706264639,-0.5120307904375061,-0.17327640468699912
-9064.549195051193,-2328.0,-308.0,-17484.0,282.0,307.0,-1435.0,-0.10815280576971108,0.8966722756348945,-0.41013552092888245,-0.1267700878925043
-9064.564772605896,-2616.0,376.0,-16268.0,72.0,360.0,-2660.0,-0.12661917968758057,0.968970332324831,-0.20079344626165316,-0.06889172916917996
-9064.580382585526,-1672.0,-116.0,-15880.0,80.0,387.0,-1909.0,-0.1358064330307505,0.9896875550019283,-0.043529784433916294,-0.0134281081655686
-9064.596006155014,-1852.0,232.0,-15800.0,-291.0,609.0,-3064.0,-0.10767754787238978,0.9698396890144605,0.20660174834280165,0.07163965995327685
-9064.611577510834,-1932.0,-172.0,-16028.0,-661.0,493.0,-3053.0,-0.03983193993671621,0.8848925879096754,0.43979411925744694,0.14818791141642332
-9064.627142190933,-1624.0,-872.0,-16088.0,-120.0,465.0,-525.0,-0.04148483339029136,0.8575534931024499,0.4762766622583908,0.18984613784423693
-9064.642790079117,-2080.0,-172.0,-15916.0,-433.0,364.0,-704.0,-0.012421510522771963,0.8213459183563984,0.5189027180083833,0.23659365528079834
-9064.658372163773,-1600.0,-376.0,-16244.0,-217.0,230.0,33.0,-0.007928095476038238,0.8180824540043384,0.511659917518657,0.2624545152158056
-9064.674038171768,-1888.0,420.0,-16372.0,-368.0,341.0,208.0,-0.00159117880036767,0.8189722249424419,0.4876598447884922,0.3024398100510501
-9064.689624547958,-1896.0,8.0,-16988.0,-110.0,129.0,1476.0,-0.03783126431143389,0.8711922116096644,0.37615909549927407,0.3132048223518087
-9064.705208301544,-2188.0,764.0,-16240.0,227.0,215.0,1369.0,-0.09875522496214344,0.90284850972667,0.27556279046101145,0.3149239948628051
-9064.72080039978,-2788.0,32.0,-16556.0,-112.0,104.0,447.0,-0.10453616218705587,0.911036581632803,0.2361993408722207,0.3213944758292327
-9064.736397743225,-1716.0,-204.0,-16220.0,-198.0,7.0,324.0,-0.09788436424475286,0.9189284522442561,0.2047346511074383,0.3226032757556746
-9064.752060174942,-1148.0,-256.0,-15508.0,-90.0,-59.0,1684.0,-0.13548071485567195,0.9413998728430868,0.06695722383492136,0.3015426760668151
-9064.767647981644,-1032.0,120.0,-15640.0,247.0,-216.0,1704.0,-0.19698410171595532,0.9434681801662531,-0.06325356056774888,0.2589672638779641
-9064.783277750015,-1612.0,180.0,-16220.0,110.0,-318.0,1821.0,-0.24559535887133307,0.9267859171619132,-0.20261948589787943,0.19923887016767491
-9064.79887342453,-1740.0,400.0,-16196.0,-289.0,-437.0,1535.0,-0.25388776390905676,0.9045024653356667,-0.31927541501156015,0.12441665044581524
-9064.81445479393,-1600.0,-52.0,-16396.0,-233.0,-309.0,2606.0,-0.2652212242252013,0.8191091258049473,-0.5074580188480412,0.034703045260632615
-9064.83006310463,-2324.0,668.0,-16128.0,-60.0,-304.0,1909.0,-0.2759805690095673,0.7266557972569527,-0.6282374148954337,-0.03352354944692618
-9064.845644712448,-2300.0,-224.0,-16796.0,-165.0,-316.0,2481.0,-0.2689101855478096,0.5800324121033027,-0.7595771319259546,-0.11955038131853991
-9064.861243009567,-2104.0,156.0,-16180.0,42.0,-385.0,2818.0,-0.2590027259847373,0.3768628256590502,-0.8673809425461494,-0.19632192714137964
-9064.876888990402,-1880.0,-212.0,-15976.0,-284.0,-353.0,2859.0,-0.22025523705233693,0.155987358279018,-0.9197775418095032,-0.28489445096565125
-9064.892519712448,-1976.0,208.0,-16064.0,-146.0,-555.0,3196.0,-0.1762658074836979,-0.10727110293985376,-0.9131651780162523,-0.35150054515567036
-9064.908121347427,-1676.0,28.0,-15916.0,-748.0,-453.0,2531.0,-0.13792255853710458,-0.30318922946076077,-0.8371616966501776,-0.4338363201108973
-9064.923827648163,-1920.0,-4.0,-15844.0,-478.0,-816.0,2655.0,-0.10644939364081162,-0.507217877893707,-0.7177660504307724,-0.46498435219641315
-9064.939523220062,-1908.0,-16.0,-15728.0,-1579.0,-672.0,1695.0,-0.14642354464130436,-0.6126599530776338,-0.5603038749305749,-0.5378359370731657
-9064.955138206482,-1840.0,16.0,-16680.0,-936.0,-1016.0,3170.0,-0.09316555980332776,-0.7692595391159367,-0.3197995212277784,-0.5452414200775221
-9064.970783948898,-2916.0,388.0,-16988.0,-1924.0,-872.0,1815.0,-0.15575546900816387,-0.8219997114162735,-0.09658790392225501,-0.5391915106170674
-9064.986420631409,-2236.0,636.0,-16476.0,-1394.0,-937.0,2618.0,-0.1355071972079974,-0.8390232970613088,0.16358911638116516,-0.5009154694105915
-9065.002038002014,-2308.0,1116.0,-15460.0,-2248.0,-829.0,654.0,-0.2537395461094638,-0.820443015194558,0.3123118608090552,-0.4061413585891136
-9065.017630815506,-1828.0,-320.0,-16224.0,-1879.0,-857.0,2091.0,-0.28153663372643517,-0.7287680536104596,0.5304817191311968,-0.32897324142613715
-9065.033214569092,-2148.0,680.0,-15832.0,-2579.0,-790.0,1472.0,-0.35403466221782687,-0.5988857150075776,0.6931277164206663,-0.18859832193750944
-9065.048800945282,-1268.0,-88.0,-16152.0,-2542.0,-969.0,4185.0,-0.32924856506172606,-0.2596710027714708,0.9018690948570802,-0.10391577582890928
-9065.064378499985,-3072.0,768.0,-16344.0,-2315.0,-1080.0,3695.0,-0.2447680714567981,0.08178103866428077,0.9661216411954122,-0.0030703947945388563
-9065.080058574677,-2932.0,876.0,-17084.0,-2367.0,-1231.0,4314.0,-0.11211456282148188,0.45330470726085687,0.8799466423571918,0.08740179507768295
-9065.095664262772,-3360.0,1100.0,-16392.0,-2696.0,-1077.0,3390.0,0.04815568948433366,0.6972042086356584,0.6856571795099465,0.20362110209278106
-9065.111299276352,-2412.0,1512.0,-16176.0,-2588.0,-1155.0,3088.0,0.20653668959556248,0.837416106437917,0.41980417263338576,0.2825620589691125
-9065.126895189285,-1900.0,1064.0,-15832.0,-3087.0,-1449.0,3460.0,0.36807886025621167,0.8694911990530256,0.059650590385461826,0.3239518706050113
-9065.142465114594,-1760.0,1956.0,-15340.0,-3252.0,-1309.0,2047.0,0.5312769710432033,0.7662298008050269,-0.216438761297444,0.28946663884716706
-9065.15806388855,-2084.0,1368.0,-15928.0,-3296.0,-1278.0,2478.0,0.6220722817602554,0.5606500666277017,-0.4910045398116023,0.2400252506307199
-9065.173648834229,-2660.0,1380.0,-16072.0,-3686.0,-1341.0,2411.0,0.6442012550610904,0.26492653881264,-0.704381213414158,0.13662275871782537
-9065.189306259155,-2444.0,1536.0,-15916.0,-3517.0,-1392.0,3387.0,0.5479417307401364,-0.11365013541097496,-0.8256403989225446,0.07184314930174061
-9065.204898118973,-3120.0,1604.0,-16364.0,-3823.0,-1506.0,3196.0,0.3470475335505507,-0.4709786223932741,-0.8103510566000723,-0.03268503896524114
-9065.220522642136,-3272.0,1796.0,-16104.0,-3556.0,-1536.0,4513.0,0.09303464759979797,-0.8007844526473107,-0.5869309752943295,-0.07483879331186206
-9065.236094713211,-3140.0,2116.0,-15652.0,-4476.0,-1525.0,2797.0,-0.25237483065875105,-0.8929751963279899,-0.33778482455952114,-0.15749176451563368
-9065.251690626144,-2500.0,2540.0,-16040.0,-3505.0,-1636.0,4282.0,-0.45973141048779537,-0.8615625980759506,0.07148190248781452,-0.20309420824888763
-9065.2673163414,-2628.0,3108.0,-15684.0,-4806.0,-1638.0,1838.0,-0.7038824320702453,-0.6210347417769544,0.32615839482218617,-0.11174109725576897
-9065.28293967247,-2104.0,2564.0,-16280.0,-4063.0,-2026.0,3838.0,-0.7357075356473202,-0.25051932630022045,0.6198803904984073,-0.10827183667682541
-9065.298542261124,-2968.0,2436.0,-16056.0,-4795.0,-1864.0,3502.0,-0.6207608246437079,0.20128324265906894,0.7571692762378668,-0.028909201541016817
-9065.314187526703,-2936.0,2620.0,-15668.0,-4393.0,-1943.0,4718.0,-0.3474716553789338,0.6432935570641165,0.6817924919976717,-0.024409957059045955
-9065.329814434052,-3532.0,3708.0,-16180.0,-4499.0,-1982.0,4585.0,0.028560659463494738,0.9041754329209454,0.42616262910011665,-0.006040595310716244
-9065.345406293869,-3508.0,3820.0,-16008.0,-5028.0,-1927.0,3344.0,0.43665172232914373,0.8880603466309824,0.1401005355092591,0.03249513930836913
-9065.360991716385,-3424.0,3620.0,-16068.0,-4692.0,-1909.0,4437.0,0.6990692074729484,0.6631395941864673,-0.2498148552870527,0.09560679820629943
-9065.376603126526,-3592.0,4128.0,-16016.0,-5516.0,-1877.0,3307.0,0.819819193789741,0.233491186639826,-0.5195123809915442,0.05903593187171408
-9065.392178297043,-3060.0,4328.0,-15776.0,-4903.0,-1757.0,4789.0,0.6936774506893381,-0.27669772281788235,-0.6537129266145245,0.12210394821467743
-9065.407816171646,-2660.0,5352.0,-15896.0,-5557.0,-1409.0,3335.0,0.3836724973091272,-0.6823129379246319,-0.6212817289446504,0.0354045594349237
-9065.423430681229,-2688.0,5240.0,-16976.0,-5360.0,-1790.0,5419.0,-0.040949099559972064,-0.9495572722236003,-0.3097288481625569,0.02705916902638829
-9065.439008235931,-4872.0,5208.0,-16708.0,-6278.0,-2264.0,7809.0,-0.47734873648450216,-0.8434166318487396,0.24621705445973366,0.012795741117640213
-9065.454644680023,-5160.0,6556.0,-16072.0,-6055.0,-1906.0,7316.0,-0.6797684789714674,-0.32998806767314104,0.6547936590640234,-0.01636930785682688
-9065.470219373703,-5768.0,6020.0,-15968.0,-6977.0,-1850.0,6899.0,-0.5767180465611993,0.35840850085266557,0.7338544292048018,0.01993283782289123
-9065.485824108124,-5164.0,6036.0,-16268.0,-6227.0,-2210.0,9021.0,-0.1830799031005861,0.8970633680311237,0.3951929121433305,-0.07471027378487231
-9065.501418352127,-5912.0,7244.0,-16000.0,-6885.0,-2149.0,8155.0,0.35051324429037506,0.9237459457205718,-0.11892857241584896,-0.09843722875503148
-9065.51701593399,-5096.0,7948.0,-16220.0,-7015.0,-2368.0,9126.0,0.6769595928086491,0.4149284294549095,-0.6051384759330385,-0.05803044959217083
-9065.53261590004,-4728.0,7484.0,-15720.0,-8142.0,-2104.0,5931.0,0.662598642683777,-0.2900057853198236,-0.6719573295604088,-0.15916353365231892
-9065.548199176788,-2940.0,3864.0,-16560.0,-8398.0,-1996.0,6004.0,0.30661231370198344,-0.8513414474453787,-0.3823664946747291,-0.18708953123594146
-9065.563822984695,-1820.0,2256.0,-15672.0,-7376.0,-1649.0,5248.0,-0.1645184393607573,-0.975227994175983,0.06533597050155,-0.13264710115343736
-9065.579475402832,-1432.0,-292.0,-16780.0,-7118.0,-1073.0,4291.0,-0.5765997667793253,-0.6950742133052425,0.4264854271374648,-0.050147057615576175
-9065.595102071762,-1076.0,348.0,-17268.0,-5437.0,969.0,519.0,-0.8461080136323136,-0.35837190619666576,0.3898644755463631,0.060634122597003556
-9065.64184832573,-2512.0,-8180.0,-17300.0,2312.0,219.0,-2769.0,-0.730940518914976,-0.5956591481801758,0.2856515591622691,0.171228863646692
-9065.657425880432,-2864.0,-4700.0,-17120.0,6800.0,-932.0,2156.0,-0.3270391911889478,-0.8146103207448185,0.4732616172418082,-0.07401914892898183
-9065.673023223877,-2836.0,-8.0,-16748.0,8530.0,-1289.0,4428.0,0.2759204489576244,-0.6744365019234182,0.5875539323344465,-0.3518290597984405
-9065.688628196716,-3948.0,1216.0,-16968.0,8352.0,-1022.0,-1155.0,0.6302005485184202,-0.45317610421707266,0.19174379348496226,-0.6005938768200316
-9065.70425271988,-4028.0,-172.0,-17764.0,9948.0,344.0,-5362.0,0.5245183386034606,0.01567200144427108,-0.37207842294845844,-0.765632123160715
-9065.719841003418,-4312.0,972.0,-17928.0,11674.0,1434.0,-9983.0,-0.06677994799065154,0.5783904463135234,-0.6397670391611696,-0.5017001751669611
-9065.735441923141,-4852.0,1884.0,-17644.0,11937.0,2252.0,-13344.0,-0.6045068225845542,0.725003934118356,-0.2691534385588554,0.1910424651054765
-9065.751059293747,-4392.0,-1876.0,-17404.0,11378.0,3046.0,-15775.0,-0.49788682555868763,0.2237340185468141,0.3812424661315534,0.7461273215061341
-9065.76666712761,-2860.0,-4400.0,-19116.0,15656.0,1953.0,-7554.0,-0.20636264358000392,-0.4574653207233705,0.8019432821496143,0.3240785582003849
-9065.78226518631,-4736.0,-1556.0,-18552.0,16670.0,1875.0,-6355.0,0.27337653428412106,-0.6758022076229087,0.5307182950284965,-0.4323132405985866
-9065.797861099243,-4516.0,-672.0,-18440.0,16966.0,1995.0,-6819.0,0.48876598685911177,-0.2706044828563661,-0.24527472949504628,-0.792288666471261
-9065.81344628334,-4300.0,-992.0,-17888.0,17573.0,2463.0,-8293.0,0.19339520832381268,0.41738921754259073,-0.7833386173808705,-0.4180492136057657
-9065.82903432846,-4140.0,112.0,-17096.0,17689.0,2761.0,-8744.0,-0.2898042483074893,0.7051090121936253,-0.5302316870130289,0.3710648685520885
-9065.844613075256,-4588.0,200.0,-15952.0,16942.0,2854.0,-9503.0,-0.44989470305699447,0.3145866198202084,0.2676210846432774,0.7918389797463309
-9065.860246658325,-4320.0,-1248.0,-16008.0,16508.0,3067.0,-7823.0,-0.22834816592047824,-0.38300265305708603,0.7906645565556178,0.4195421812865724
-9065.875879526138,-3880.0,204.0,-16068.0,17353.0,2627.0,-4387.0,0.1772099717234563,-0.6033998870897631,0.6565538038018625,-0.41646404994325553
-9065.891477108002,-5220.0,2024.0,-15704.0,15552.0,2596.0,-6163.0,0.3494801998678036,-0.3485359259120643,-0.10818628450345863,-0.8629496080851518
-9065.907104492188,-4580.0,1980.0,-15612.0,15255.0,2448.0,-4209.0,0.30234075190487775,0.1982248592703063,-0.762667222626425,-0.5363167743378493
-9065.922816753387,-5936.0,2360.0,-14876.0,13995.0,1992.0,-5519.0,-0.039579715947422496,0.6194895805011446,-0.7650862062773096,0.1711993069502081
-9065.938460826874,-5468.0,2896.0,-14544.0,13251.0,1452.0,-5687.0,-0.3561077925546267,0.5779401778093369,-0.1641671646372239,0.7156965369558229
-9065.954074144363,-5460.0,2448.0,-14132.0,11200.0,770.0,-7320.0,-0.29421571744804065,0.18640388916872086,0.5723171495138645,0.7423905859327924
-9065.969672679901,-4404.0,3096.0,-13768.0,10049.0,776.0,-7110.0,-0.024272249361931605,-0.32462866217238173,0.8978751567023955,0.29639043942700044
-9065.985360860825,-4184.0,2520.0,-13380.0,8052.0,540.0,-7578.0,0.2572407190006371,-0.6827830038403914,0.6402740522202005,-0.24017435376878077
-9066.00095796585,-2936.0,2040.0,-13724.0,7428.0,336.0,-4862.0,0.4576546948970204,-0.6170818450032733,0.16005935477992356,-0.6197928522930108
-9066.016539812088,-3056.0,2024.0,-13480.0,5705.0,209.0,-4164.0,0.45680952127958624,-0.3714034479149392,-0.31016264232138946,-0.7464473695133664
-9066.032126426697,-2328.0,1276.0,-13512.0,5009.0,74.0,-2294.0,0.4250292318327025,-0.09461114148137789,-0.638124243653068,-0.6349774276755775
-9066.047754526138,-4056.0,2760.0,-13740.0,4964.0,-531.0,1507.0,0.473056280325278,-0.02164619613143992,-0.8379312259823021,-0.2713309019659346
-9066.063354492188,-5568.0,5128.0,-13608.0,2827.0,-1593.0,728.0,0.36384391505462726,0.00401800711132781,-0.9309594300602548,-0.030265503109313908
-9066.078993797302,-4960.0,5364.0,-13604.0,1252.0,-2299.0,2321.0,0.17451340408697882,-0.1442578924151278,-0.9642086234610003,0.13797268828780257
-9066.094671726227,-4632.0,10120.0,-13380.0,143.0,-2641.0,4000.0,-0.08697035589187072,-0.41224865257755844,-0.878539362703528,0.2250684203181509
-9066.110270738602,-3976.0,9396.0,-13084.0,-6042.0,-2042.0,-1394.0,-0.37677002274804616,-0.19064459017587537,-0.8964931806609312,-0.13416022966421975
-9066.125866889954,-1396.0,6164.0,-15120.0,-6124.0,-2009.0,5872.0,-0.45106855632147924,-0.3758615649792825,-0.5261824572275747,-0.6151400354190357
-9066.141451120377,-2488.0,17412.0,-14804.0,-10256.0,-1042.0,-1329.0,-0.6715701838592438,0.02427438316162404,0.01593777561107087,-0.7403716835360163
-9066.157049179077,-992.0,11388.0,-17328.0,-17682.0,945.0,-4829.0,-0.5018255292399157,0.5904238402267747,0.589500566989161,-0.22816640553421563
-9066.172701358795,-944.0,-7984.0,-23568.0,-17957.0,-108.0,-4226.0,0.18202844822714567,0.6106452662575905,0.6170895606618204,0.46171254797267
-9066.188346862793,2408.0,-14416.0,-28500.0,-8036.0,1113.0,11989.0,0.04164116749632056,0.6727611819626861,-0.20354855475488234,0.7100890022179696
-9066.203953027725,-3272.0,6200.0,-18308.0,-4939.0,1153.0,7516.0,-0.08910227311899087,0.3529378481236919,-0.7424404281620139,0.5623858736823427
-9066.219555616379,-2132.0,7464.0,-16792.0,-10334.0,1518.0,4414.0,0.07886625518225042,0.051763840430803,-0.9932454952001678,-0.06755741914812959
-9066.235129356384,-1064.0,100.0,-19304.0,-6909.0,854.0,9976.0,0.16637729483474087,-0.5865954226138588,-0.6800494592562593,-0.4071328270935809
-9066.250720262527,-5632.0,-1888.0,-22324.0,-3783.0,276.0,10364.0,0.2572966285036794,-0.8981096228031338,-0.008032468495054523,-0.356557190137751
-9066.266308307648,-7480.0,5004.0,-18356.0,-5058.0,1438.0,604.0,-0.10850684593950882,-0.8782709832134293,0.20789223666607945,-0.4167099259239582
-9066.281912326813,-3988.0,1648.0,-17412.0,-6033.0,2037.0,-1378.0,-0.5719917958255147,-0.6712989801499905,0.2628891231500445,-0.3912446468480896
-9066.297534227371,-3492.0,464.0,-16804.0,-3326.0,2165.0,443.0,-0.7566613243728594,-0.39796780360451356,0.2780146433425843,-0.4379419203268916
-9066.313182115555,-3280.0,556.0,-15364.0,-3839.0,2615.0,-2595.0,-0.9546898907151605,-0.09771609779745034,0.1469923372793861,-0.2396080749446
-9066.328779935837,-1940.0,-1948.0,-15796.0,-2213.0,2013.0,2249.0,-0.9052731408516478,0.14976483828101414,0.0428096940403498,-0.39524468846959326
-9066.344377756119,-2480.0,-688.0,-15988.0,-68.0,1712.0,4438.0,-0.6997305784241641,0.21342080157255905,-0.13680090613313092,-0.6679178026939135
-9066.360010147095,-2860.0,1288.0,-16040.0,-1162.0,1951.0,1403.0,-0.5579854849421477,0.3715980279461382,-0.20894527609883098,-0.7119754039406141
-9066.375604391098,-3188.0,-1212.0,-16772.0,-886.0,2025.0,2221.0,-0.341703960429528,0.48257404081326155,-0.3131370490127542,-0.7431728514252387
-9066.391248226166,-2216.0,800.0,-16104.0,-1414.0,1765.0,182.0,-0.21780652997791378,0.6223392773356041,-0.27650345886982636,-0.6991423149955953
-9066.406834125519,-1252.0,652.0,-16068.0,-2343.0,1639.0,-1503.0,-0.13728547735901347,0.7731896319061657,-0.08006536023402419,-0.6139381311742345
-9066.422450304031,-1620.0,-832.0,-16740.0,-2192.0,1029.0,-942.0,-0.03181160597500141,0.8400137851440633,0.08639149550030698,-0.5346974583803961
-9066.438033103943,-1780.0,328.0,-16632.0,-2641.0,903.0,-405.0,0.13215572453415528,0.8608797963977711,0.22994084288424793,-0.43422119870023146
-9066.453607082367,-2396.0,40.0,-16700.0,-2370.0,563.0,-186.0,0.2853497889783701,0.8325718169318702,0.33276508810900396,-0.3386252555799273
-9066.46918296814,-2800.0,584.0,-16208.0,-2162.0,1094.0,-598.0,0.3837911310236893,0.7756440343769121,0.4566851034131771,-0.2062023666293887
-9066.484793424606,-2332.0,520.0,-16372.0,-2692.0,1214.0,-1535.0,0.4703022656130172,0.6206389026332635,0.6239822483735655,-0.0653397674629422
-9066.500393629074,-1900.0,312.0,-16440.0,-2261.0,1182.0,-711.0,0.5105995630112594,0.4832411942908847,0.7054222608762846,0.09025224791229115
-9066.51606965065,-1636.0,460.0,-16128.0,-2942.0,1076.0,-1090.0,0.5540176106235979,0.2657709841366222,0.7457246707828878,0.25753637897532916
-9066.531663656235,-1584.0,52.0,-16564.0,-2375.0,920.0,4.0,0.5358518342730808,0.12748078649465328,0.7193951314196432,0.42318093727221895
-9066.547285079956,-1680.0,1248.0,-16496.0,-2683.0,850.0,-1050.0,0.5329439144802065,-0.09213833626130107,0.6500289110965722,0.5338012043337089
-9066.562870264053,-1356.0,816.0,-16464.0,-1843.0,645.0,206.0,0.46502321101665467,-0.19343196576887858,0.5875256697404957,0.6333648831680908
-9066.578459978104,-1752.0,1316.0,-16060.0,-1849.0,497.0,211.0,0.3910714006310985,-0.2812534603147737,0.5022703621656344,0.7181115052409337
-9066.594053506851,-1712.0,396.0,-16220.0,-1190.0,309.0,1583.0,0.2453169246923795,-0.26791990614812794,0.47019267301681833,0.8043366090079147
-9066.609674930573,-2164.0,812.0,-15980.0,-1242.0,335.0,671.0,0.15416781484171146,-0.28834265254461056,0.4028989565699366,0.8548469046474497
-9066.625350475311,-1688.0,1160.0,-15940.0,-780.0,219.0,818.0,0.0654680072576489,-0.28515219903466366,0.36662821596252987,0.8831681123498178
-9066.640919446945,-2212.0,1252.0,-15940.0,-1431.0,19.0,-2010.0,0.18003417052559934,-0.3512471132741662,0.2020314679504844,0.8963238526433941
-9066.65653705597,-1768.0,1004.0,-16572.0,-687.0,-233.0,-722.0,0.21865947047797177,-0.35539033110077184,0.12217853657573075,0.900532150303691
-9066.67212843895,-1840.0,1268.0,-16344.0,-678.0,40.0,-621.0,0.245179020289681,-0.3771565785985719,0.05036427657689781,0.8916858207207836
-9066.687774658203,-1744.0,748.0,-16716.0,-266.0,-264.0,695.0,0.18303018071907032,-0.35869987666802006,0.04684393091965713,0.9141334681326827
-9066.703358650208,-1248.0,772.0,-16216.0,-502.0,-452.0,1761.0,0.028274965265554224,-0.31946815099120457,0.054036847377033015,0.9456324053071806
-9066.718958377838,-1984.0,1172.0,-16028.0,-297.0,-583.0,1464.0,-0.09713005077709036,-0.2629324702001349,0.06831405699213755,0.9574786989629429
-9066.734591722488,-2172.0,956.0,-16508.0,-383.0,-614.0,1523.0,-0.22706001399345951,-0.19748761156386882,0.0757312369309069,0.950635141932489
-9066.750163316727,-1928.0,1108.0,-16372.0,-321.0,-1011.0,949.0,-0.3023043058837744,-0.10051986974645404,0.08494765556944714,0.9440824954650625
-9066.765766382217,-1764.0,1288.0,-16160.0,-791.0,-709.0,-546.0,-0.25759899576408707,-0.025427204708598432,0.03369044793280138,0.9653295646358958
-9066.781389713287,-1412.0,1012.0,-15900.0,-661.0,-636.0,-41.0,-0.25293035722107954,0.04248163365392763,-0.007574653818455184,0.966521686160037
-9066.796955823898,-2392.0,1020.0,-16096.0,-521.0,-684.0,-200.0,-0.2338976612325052,0.11116080225915201,-0.035540079227561125,0.965231611003061
-9066.812532424927,-2752.0,256.0,-16280.0,-199.0,-590.0,895.0,-0.30781527176771123,0.16157546036471626,-0.04899003223584149,0.9363456123761307
-9066.828120708466,-2740.0,2556.0,-15660.0,-300.0,-245.0,-432.0,-0.2689527756918182,0.1915247896979387,-0.06075512343875824,0.9419615036479826
-9066.843747138977,-2436.0,1752.0,-16036.0,-568.0,39.0,-1050.0,-0.17197834502830125,0.2063936440504585,-0.090407387312818,0.958984680198891
-9066.859347581863,-1540.0,1540.0,-15868.0,-35.0,117.0,-1095.0,-0.07840133893350631,0.20511969666119348,-0.07512494904025577,0.9726949070118299
-9066.874943256378,-2016.0,1160.0,-16128.0,-745.0,101.0,-1395.0,0.05351705678258873,0.20909839091610496,-0.11310436711713176,0.9698562726964538
-9066.890584468842,-1992.0,540.0,-16212.0,-423.0,-33.0,57.0,0.05603720635405802,0.20947372313809787,-0.15016358895502904,0.9645887659364695
-9066.906188249588,-2432.0,1036.0,-16328.0,-502.0,-83.0,624.0,0.011557527165547017,0.2055581809982951,-0.20393055688933576,0.957091733198702
-9066.9218916893,-2812.0,1244.0,-16168.0,50.0,-11.0,685.0,-0.04668443776475576,0.1941675732951013,-0.21192126836168593,0.9566655072527988
-9066.937523126602,-2192.0,2100.0,-15940.0,-70.0,136.0,39.0,-0.04623529148646158,0.1825526828430607,-0.21919591767281568,0.9573348241255694
-9066.953155517578,-1996.0,1464.0,-16500.0,15.0,129.0,894.0,-0.1183364907447172,0.1543077531553166,-0.2322433894459737,0.9530207764435302
-9066.968742847443,-2452.0,708.0,-16008.0,-461.0,66.0,-545.0,-0.0653467819466163,0.16440366253607372,-0.2637065295934606,0.9482405286021682
-9066.984381914139,-1692.0,896.0,-16304.0,10.0,-10.0,1070.0,-0.15360309763559093,0.14006968154540753,-0.27725014758696076,0.9380399396462434
-9067.000022172928,-2556.0,1092.0,-15852.0,-355.0,-90.0,-20.0,-0.14973574419693073,0.1526641583671824,-0.30500548492155144,0.9280326049377795
-9067.015606164932,-2048.0,916.0,-16176.0,505.0,-77.0,1724.0,-0.29453866416575614,0.10521226905693759,-0.28290515255676907,0.9067204797555716
-9067.031273126602,-2232.0,1652.0,-16128.0,144.0,-40.0,897.0,-0.36667041933850686,0.08229840590061874,-0.2781548433300404,0.883973788695333
-9067.046862602234,-2072.0,1384.0,-16064.0,334.0,-78.0,964.0,-0.44355478540922605,0.05401835601247798,-0.2561137059195211,0.8571738092093422
-9067.062451601028,-2036.0,912.0,-16164.0,17.0,-224.0,1678.0,-0.5679764762248833,0.03224159897359576,-0.2516668355792108,0.7829604112727138
-9067.078042507172,-2228.0,828.0,-16016.0,287.0,-265.0,1917.0,-0.6954952342762784,-0.005941062817297111,-0.22142857674352945,0.683535272149814
-9067.093655109406,-2380.0,968.0,-16000.0,387.0,-352.0,2215.0,-0.8182062451062907,-0.05034914545144708,-0.1727646892746127,0.5460365062532174
-9067.109245061874,-2408.0,1336.0,-16064.0,284.0,-291.0,1753.0,-0.8938849977589044,-0.08234814285708392,-0.1294435422960036,0.42122768606469274
-9067.12486577034,-2328.0,1384.0,-15924.0,535.0,-233.0,1963.0,-0.9497396154182647,-0.1357510912898269,-0.07652956696298481,0.27149498982346987
-9067.140492916107,-2080.0,1844.0,-15952.0,448.0,-100.0,1137.0,-0.9664652368929275,-0.17736952864646127,-0.04407179335875788,0.18039587915296862
-9067.156093597412,-2168.0,1072.0,-16296.0,393.0,-104.0,1244.0,-0.9739693986310681,-0.21257070662431482,-0.009933013541556164,0.07809379269479691
-9067.171705961227,-2304.0,1076.0,-16064.0,162.0,-135.0,983.0,-0.9739703757168634,-0.2257108747246765,0.020701354585530827,-0.0027860680712182267
-9067.187319993973,-1944.0,852.0,-16184.0,288.0,-149.0,1466.0,-0.9593970377898688,-0.24579244728164068,0.06159208446265339,-0.1238943577039422
-9067.202895879745,-2212.0,1500.0,-15880.0,-123.0,-2.0,373.0,-0.9573585203340661,-0.2336938672021074,0.07102979683870451,-0.15429390116574243
-9067.218451023102,-2140.0,700.0,-16296.0,3.0,14.0,1434.0,-0.9307479300219818,-0.2234454375171888,0.09829949878437712,-0.27224554312474714
-9067.234012126923,-2640.0,1444.0,-16000.0,24.0,32.0,832.0,-0.9083320530912303,-0.2172447203352869,0.11106699562849583,-0.33970830913531264
-9067.24957370758,-2452.0,856.0,-16188.0,223.0,-91.0,1464.0,-0.8526410135761237,-0.22189287923647888,0.13831423637030862,-0.4523671342276362
-9067.265191793442,-2240.0,1304.0,-16068.0,-118.0,22.0,879.0,-0.8179883143387874,-0.20134049856780614,0.15796256169928177,-0.5151746794467454
-9067.28078532219,-2068.0,824.0,-16228.0,-312.0,-101.0,907.0,-0.7784916107765283,-0.1707882593889641,0.1945858957857865,-0.5717678825945871
-9067.296421527863,-2044.0,796.0,-16008.0,-283.0,-170.0,964.0,-0.7287842565810347,-0.14334925660307518,0.23390432782847448,-0.6273860561202198
-9067.312068223953,-2068.0,1180.0,-16088.0,-419.0,-139.0,597.0,-0.6969772800945776,-0.11208375248022831,0.2728257587214385,-0.6536252816713772
-9067.32766366005,-2104.0,1204.0,-16168.0,-235.0,-111.0,820.0,-0.647965372866068,-0.08449156127163555,0.3004367361609903,-0.6947948036689323
-9067.3432970047,-2324.0,1484.0,-15960.0,-233.0,-66.0,210.0,-0.6348998869582986,-0.06986875707163569,0.3200124419345632,-0.6997231790734691
-9067.358879327774,-2360.0,1612.0,-15648.0,-375.0,84.0,-395.0,-0.6628139320849471,-0.05499076916053966,0.33575645050668124,-0.6670242219622746
-9067.374461889267,-2540.0,1044.0,-16284.0,-156.0,93.0,-47.0,-0.6688503836252242,-0.04195064783212039,0.33948931982744407,-0.6600199309066018
-9067.390070438385,-2368.0,1760.0,-15888.0,-414.0,233.0,-746.0,-0.7180251229438923,-0.02642220517847724,0.34627293320642816,-0.6031888971321763
-9067.405662536621,-2316.0,716.0,-16152.0,-456.0,114.0,-439.0,-0.7443632818352296,-0.005101736290244613,0.36185485406522205,-0.5612114944757887
-9067.421218633652,-2100.0,1104.0,-16048.0,-290.0,-70.0,264.0,-0.7288098596951104,0.018641716666727506,0.38079335838378797,-0.5687574993103011
-9067.436848640442,-1924.0,888.0,-16156.0,-417.0,-221.0,746.0,-0.6816274097440297,0.05884334092437371,0.4134037806762051,-0.6008484414868053
-9067.452434062958,-2252.0,1024.0,-15964.0,-307.0,-498.0,529.0,-0.6327269324888478,0.06998095286759058,0.4556113169065954,-0.6222359866205383
-9067.468075752258,-2276.0,1512.0,-16040.0,-273.0,-176.0,354.0,-0.6041867011379927,0.08956048099863417,0.4778483647539717,-0.6313464110242796
-9067.483683109283,-2404.0,1648.0,-15976.0,-348.0,-55.0,-250.0,-0.6123885843548854,0.09446321026134309,0.5017881582248255,-0.6035441723057874
-9067.499302148819,-2456.0,1108.0,-15968.0,-458.0,11.0,-360.0,-0.6271098791054042,0.10370075353987217,0.5278726523748439,-0.5633203494623776
-9067.51490354538,-2076.0,1136.0,-16084.0,-8.0,-248.0,-65.0,-0.618511976616022,0.08900159324301904,0.5425541371884849,-0.5613881539562482
-9067.530486106873,-2480.0,1164.0,-16012.0,-342.0,240.0,-267.0,-0.639557586305484,0.10654567484531721,0.5481771888419517,-0.5283141892890958
-9067.546072006226,-2072.0,1144.0,-16168.0,48.0,-236.0,476.0,-0.6059610185345797,0.1156993778529727,0.5543697730512442,-0.5586582611114613
-9067.561654567719,-2188.0,1716.0,-16008.0,65.0,-22.0,151.0,-0.5979870576512792,0.11855169037057878,0.5510403760331566,-0.5698346072090407
-9067.577242612839,-2204.0,1496.0,-16064.0,81.0,52.0,36.0,-0.5993717933368182,0.11871190460740329,0.5441635732353581,-0.5749321200110638
-9067.592875242233,-2320.0,1440.0,-16052.0,-78.0,72.0,-373.0,-0.6202028460729815,0.10870713894548861,0.5481198146921294,-0.5505414211547806
-9067.608457326889,-2276.0,824.0,-16208.0,31.0,-8.0,321.0,-0.604304768378001,0.12202835956851693,0.5440623120691813,-0.5691406038603856
-9067.624043226242,-2416.0,1088.0,-16052.0,-106.0,-27.0,277.0,-0.5877908256304069,0.13946715071395008,0.5478711225488384,-0.578695163495888
-9067.63963150978,-2440.0,984.0,-16096.0,-41.0,-33.0,985.0,-0.533846688588776,0.18640414590537424,0.5379060928600193,-0.625234550177895
-9067.65522646904,-2272.0,1324.0,-16048.0,100.0,-50.0,1053.0,-0.47351565460322,0.22759453407980024,0.5156935777926981,-0.6767893222606642
-9067.670806884766,-2320.0,1408.0,-16116.0,-252.0,-38.0,747.0,-0.4215510464551623,0.26888473227551074,0.5163121696186417,-0.6952822876252318
-9067.686452388763,-2168.0,1288.0,-16048.0,177.0,-57.0,989.0,-0.3616143537844099,0.30246857129273663,0.4828215322740052,-0.7379913214190231
-9067.702034950256,-2152.0,1356.0,-16088.0,-76.0,-89.0,740.0,-0.30743433201203096,0.3297864090611442,0.47018991674426197,-0.7587137128659898
-9067.717629671097,-2172.0,1296.0,-16204.0,173.0,-139.0,1529.0,-0.20353245501799427,0.37547050102558377,0.41489900791391376,-0.8034023001249098
-9067.73321890831,-2524.0,1748.0,-15968.0,-139.0,-54.0,594.0,-0.15507390488587983,0.39531479284842413,0.40572008471384846,-0.8093636459827191
-9067.748802661896,-2144.0,1200.0,-16332.0,82.0,-94.0,1085.0,-0.0775256329000868,0.4242761332841206,0.36229067748980304,-0.8262717494704122
-9067.764375209808,-2328.0,1248.0,-16128.0,255.0,-131.0,995.0,-0.010988972312686987,0.44299371705453994,0.30684247467310793,-0.8423084380879704
-9067.780007362366,-2296.0,1156.0,-16000.0,148.0,-79.0,1047.0,0.06212687159401258,0.4633497049877735,0.2545995304156077,-0.8465378797347679
-9067.795597553253,-2576.0,1336.0,-15884.0,233.0,-93.0,973.0,0.12617899446146572,0.4777892346551679,0.19688204075710672,-0.8467784660887636
-9067.811226606369,-2332.0,1708.0,-16084.0,445.0,-6.0,1148.0,0.19145493956596515,0.4993668170869146,0.11547267497901718,-0.8370447117337683
-9067.826817274094,-2472.0,1676.0,-16092.0,286.0,90.0,233.0,0.19497719946930964,0.5130621760470393,0.08591843241888382,-0.8314860901829106
-9067.842435598373,-2304.0,1700.0,-16080.0,514.0,86.0,60.0,0.17546689273425073,0.5282207991344698,0.04736922547237715,-0.8294277023309965
-9067.85801935196,-2124.0,1208.0,-16188.0,-88.0,254.0,-540.0,0.13916991675580093,0.5425484893339376,0.08241185814709122,-0.8243064700876668
-9067.87359714508,-2044.0,288.0,-16288.0,504.0,-179.0,1339.0,0.21122041891023802,0.5414279170802242,-0.019221572757119762,-0.8135553308671122
-9067.889220237732,-2428.0,1216.0,-16076.0,196.0,-200.0,956.0,0.2684428862339399,0.5275245130124762,-0.08169996694983424,-0.8018612226574732
-9067.904803037643,-2664.0,1248.0,-16100.0,357.0,-171.0,993.0,0.31883160390787935,0.5148798668371537,-0.15576019191643795,-0.780374201066026
-9067.920451402664,-2840.0,1060.0,-15976.0,213.0,-150.0,293.0,0.32690784255104427,0.5065800899095543,-0.18755604785824465,-0.7754550947009411
-9067.936091423035,-2416.0,968.0,-15928.0,115.0,-85.0,336.0,0.34291712188125617,0.49862011683820945,-0.21258748335439656,-0.767197750600176
-9067.951726198196,-2440.0,872.0,-16164.0,34.0,-152.0,368.0,0.3629507670259259,0.48260340555451403,-0.23537018907640964,-0.7615520781644632
-9067.96731042862,-2360.0,1560.0,-15912.0,-25.0,-76.0,-145.0,0.35268627265530134,0.47994381081086807,-0.23009248457813877,-0.7696257402695877
-9067.982901096344,-2364.0,1140.0,-16220.0,-6.0,-73.0,143.0,0.36095743674735925,0.47219719351485245,-0.23800439074486837,-0.7681754026780845
-9067.998558044434,-2464.0,1608.0,-15984.0,-130.0,-29.0,-576.0,0.32658473093045853,0.4777415938774174,-0.20630508192515923,-0.7890143193722142
-9068.014155864716,-2364.0,888.0,-15980.0,-159.0,-12.0,-410.0,0.3044685289755755,0.479677002638033,-0.17856853709458423,-0.8033194666902713
-9068.029801130295,-2396.0,1192.0,-15988.0,-249.0,-64.0,-560.0,0.2741772673029705,0.47688189938959885,-0.13925947072357966,-0.8234180468890833
-9068.045397996902,-2448.0,1000.0,-16052.0,-345.0,-5.0,-520.0,0.25068224841799747,0.4741623554802597,-0.09288244800710935,-0.8388690731131503
-9068.06099152565,-2312.0,1360.0,-16048.0,-407.0,255.0,-979.0,0.19699095411181003,0.4899271898901761,-0.01698422196543332,-0.8490450216617863
-9068.076576471329,-2548.0,1128.0,-16376.0,-484.0,104.0,-1272.0,0.12269623028380829,0.48803314619813287,0.07449949059541763,-0.8609408279243806
-9068.09216427803,-2436.0,1156.0,-16180.0,-580.0,52.0,-1274.0,0.050956055865648144,0.47420246790809656,0.17163023077959583,-0.8620200483069
-9068.10778427124,-2288.0,1152.0,-16040.0,-602.0,22.0,-1322.0,-0.023707624292289845,0.4500543623077373,0.2696237839006112,-0.8509947324592014
-9068.123356342316,-2188.0,1532.0,-16028.0,-836.0,-23.0,-2120.0,-0.14489771454169093,0.3927635392558828,0.40714351608802074,-0.8117731283180486
-9068.138959884644,-2536.0,1704.0,-15968.0,-867.0,94.0,-2575.0,-0.29273909626240163,0.3104988494942649,0.5407718313378649,-0.7248862755037525
-9068.154569864273,-2716.0,1072.0,-16204.0,-917.0,163.0,-2842.0,-0.4404963811919,0.2034645760020365,0.6500394132875593,-0.5848195154420869
-9068.170177459717,-2512.0,672.0,-16116.0,-686.0,71.0,-1745.0,-0.5143893250876801,0.13279952308813173,0.7041383285872801,-0.471123256821097
-9068.185802698135,-2312.0,1316.0,-16060.0,-744.0,129.0,-1822.0,-0.5798904585576726,0.058731305430641145,0.7393924065347812,-0.3370112149393398
-9068.201387166977,-2468.0,1332.0,-15976.0,-427.0,151.0,-1558.0,-0.6268044053730104,-0.015575879407647774,0.745077245356916,-0.22745005569798238
-9068.216959953308,-3004.0,1524.0,-15708.0,-478.0,273.0,-2082.0,-0.6745027325570051,-0.11734738740372264,0.7243343703174616,-0.0813349520160934
-9068.232540130615,-2460.0,1172.0,-16168.0,-337.0,236.0,-1777.0,-0.6964845512738148,-0.20562907083587018,0.6862135824472783,0.04167582427453632
-9068.24814581871,-2400.0,964.0,-16156.0,-282.0,196.0,-833.0,-0.7078378597879195,-0.23844002239100046,0.65651372612964,0.10536435534094586
-9068.26379776001,-2340.0,1372.0,-16016.0,-1.0,73.0,-720.0,-0.7037882620915453,-0.27985405375339567,0.6359522487298905,0.14808284193433582
-9068.279374361038,-2104.0,1152.0,-16144.0,-156.0,71.0,-742.0,-0.7001780880587986,-0.3118062088870609,0.6103106109608442,0.20012119140761941
-9068.295016050339,-2368.0,1404.0,-16048.0,-155.0,99.0,-281.0,-0.7042370661523053,-0.319037132854594,0.5938483349013857,0.22273216573266932
-9068.310653924942,-2432.0,1032.0,-16208.0,-90.0,32.0,195.0,-0.7118467773825484,-0.3041148335627123,0.5956507628454667,0.21444929997278522
-9068.326236486435,-2492.0,1308.0,-15900.0,-63.0,38.0,496.0,-0.7238684978087506,-0.27501371690967324,0.6048948094640397,0.18569901150811824
-9068.341821193695,-2616.0,1096.0,-16128.0,-182.0,29.0,139.0,-0.7316575951159923,-0.25673298914549525,0.603534631439169,0.185772130436964
-9068.357414007187,-2688.0,1164.0,-15992.0,-208.0,47.0,-77.0,-0.7371893929814536,-0.24835443144297956,0.5955316824293386,0.20053401327742837
-9068.372998476028,-2324.0,1032.0,-16008.0,-116.0,65.0,397.0,-0.7493225586932356,-0.22137870024885503,0.5977442566975343,0.17946859807404233
-9068.388603687286,-2668.0,1232.0,-15928.0,-285.0,54.0,505.0,-0.7643660870439832,-0.1771417612607053,0.5989572921664008,0.16004825383370455
-9068.404176473618,-2236.0,1420.0,-15912.0,-194.0,76.0,408.0,-0.7762161967135168,-0.14393079955766863,0.597244304801258,0.14167420824114416
-9068.41979932785,-2544.0,1132.0,-16200.0,-145.0,17.0,738.0,-0.7861586657193231,-0.0957408742861419,0.6025163370502481,0.09880435664934388
-9068.435354471207,-2428.0,1500.0,-16012.0,-232.0,29.0,624.0,-0.7934665656954838,-0.04725923870993885,0.60297209500717,0.06783823496108898
-9068.450941562653,-2492.0,1192.0,-16096.0,-140.0,31.0,528.0,-0.7976976920744544,-0.01000000514197024,0.6017458110599417,0.03847558742972641
-9068.466538667679,-2376.0,1280.0,-15972.0,-167.0,43.0,585.0,-0.8007390829599236,0.032127857335707714,0.5981159506381316,0.0064831624814891105
-9068.482167720795,-2488.0,1524.0,-16072.0,-49.0,23.0,1007.0,-0.799091937571292,0.08775311098244341,0.5916323993713298,-0.06101287434291399
-9068.497811794281,-2520.0,1340.0,-15980.0,2.0,-44.0,724.0,-0.7912042809220746,0.12453711668713588,0.5882265153648841,-0.11169538504129566
-9068.513399124146,-2544.0,1292.0,-15952.0,100.0,-20.0,833.0,-0.7808616207666033,0.15981946844268255,0.5782849452442201,-0.1740671962902295
-9068.528985500336,-2524.0,1532.0,-16000.0,89.0,-23.0,387.0,-0.7744085324930492,0.17289811528804458,0.573007667447637,-0.2050850544969637
-9068.544571638107,-2344.0,1488.0,-15700.0,216.0,44.0,22.0,-0.7791448947357413,0.1602325817615098,0.5659810495043403,-0.2166199537236525
-9068.560152292252,-2432.0,1644.0,-15928.0,130.0,69.0,-153.0,-0.7869485641681805,0.14518424723805995,0.5611287942562246,-0.21158442278228515
-9068.575783967972,-2512.0,1184.0,-16076.0,179.0,46.0,36.0,-0.7905185735973892,0.1355551924695085,0.5543898566888715,-0.22216449174563568
-9068.591443300247,-2372.0,1348.0,-16304.0,211.0,44.0,123.0,-0.7923979323659611,0.12783609861002918,0.5459410232941019,-0.2402329031563026
-9068.60704278946,-2696.0,992.0,-16004.0,39.0,244.0,50.0,-0.8030456749311834,0.13267600896410528,0.5278259906035744,-0.24272297844051033
-9068.622634410858,-2400.0,1232.0,-16012.0,258.0,-7.0,712.0,-0.7887405612028245,0.146993562794742,0.513750828729955,-0.3038771225177145
-9068.63820385933,-2640.0,1516.0,-16060.0,97.0,16.0,481.0,-0.7770719632866377,0.16224101968981341,0.5037049063020564,-0.34076147489277064
-9068.65379190445,-2496.0,1336.0,-16032.0,184.0,63.0,744.0,-0.7584575421306169,0.18402589628921068,0.4825993301976783,-0.3974600769547658
-9068.669363975525,-2500.0,1336.0,-16020.0,150.0,73.0,412.0,-0.7489358082450215,0.19395481912276588,0.4658498282291567,-0.4294887900822292
-9068.684959173203,-2524.0,1356.0,-16164.0,-5.0,120.0,233.0,-0.744653730795829,0.20832879345854954,0.4543793037436544,-0.4423001055362634
-9068.700556993484,-2420.0,1180.0,-16072.0,-45.0,96.0,344.0,-0.7338538104454685,0.2286302051019615,0.44364694373621877,-0.46082990736627943
-9068.716133832932,-2352.0,968.0,-15984.0,-112.0,32.0,470.0,-0.7131695246696566,0.25521706440251724,0.4365672047675649,-0.4854508778874057
-9068.731753110886,-2444.0,1292.0,-16084.0,-255.0,55.0,429.0,-0.6905957194903376,0.28965427498519214,0.43419520863486916,-0.5006520488352645
-9068.747345924377,-2452.0,1192.0,-15980.0,-70.0,20.0,472.0,-0.6682281761449462,0.3125453585982662,0.42395539533010285,-0.5254030131196202
-9068.76292681694,-2604.0,1416.0,-15880.0,1.0,8.0,554.0,-0.6422472082432432,0.3331592208226483,0.4080489139297968,-0.5567939842754402
-9068.778519392014,-2696.0,1336.0,-15892.0,-142.0,62.0,214.0,-0.6296091646578487,0.3518677443516791,0.4053229710049419,-0.5616891306046737
-9068.794127464294,-2504.0,1216.0,-16068.0,103.0,53.0,525.0,-0.6080946165684282,0.3671866435071296,0.38099795580275564,-0.5918069480874535
-9068.809810876846,-2644.0,1380.0,-16048.0,-85.0,90.0,174.0,-0.5991259580443575,0.3822904630959791,0.375130899668671,-0.5951293106015417
-9068.825400829315,-2380.0,1232.0,-15880.0,228.0,57.0,629.0,-0.5748023696185958,0.3934762863061857,0.3389021701409547,-0.6323954198674204
-9068.840982437134,-2508.0,1360.0,-16000.0,19.0,65.0,196.0,-0.5663302164158069,0.4020851211776403,0.327948489604973,-0.6403494588643021
-9068.856552362442,-2428.0,1032.0,-16160.0,295.0,72.0,647.0,-0.5414024590736732,0.4094986588729211,0.28478620302089463,-0.676824234391175
-9068.872135400772,-2604.0,1296.0,-16000.0,51.0,57.0,167.0,-0.534581950811106,0.41481603135345596,0.2731889933063098,-0.6837525663099524
-9068.887776851654,-2492.0,1196.0,-15952.0,138.0,43.0,177.0,-0.5298125345163545,0.41534750568500883,0.25659778145535556,-0.6935003290141886
-9068.903373003006,-2496.0,1368.0,-15900.0,188.0,183.0,-18.0,-0.5415506635418955,0.4174892879959476,0.23744683389741417,-0.6899598352788828
-9068.91900587082,-2608.0,1240.0,-16324.0,-86.0,155.0,-219.0,-0.5545245283779309,0.4264937193645264,0.24329232392793745,-0.6718738720084221
-9068.934647083282,-2420.0,808.0,-16024.0,216.0,78.0,502.0,-0.5340441609467237,0.43104512156607,0.20802332098324108,-0.6969384730805905
-9068.950227022171,-2692.0,1484.0,-15960.0,248.0,83.0,42.0,-0.5420610388853486,0.4254683711552122,0.1875069272793057,-0.6999911767239214
-9068.965801239014,-2500.0,892.0,-16012.0,98.0,49.0,440.0,-0.519101896352866,0.4309729585130586,0.16280278969174777,-0.7199241501032897
-9068.981397151947,-2528.0,1316.0,-15848.0,23.0,159.0,68.0,-0.5177793602253031,0.44112360923164246,0.15162303872799285,-0.7171645206157471
-9068.996967554092,-2600.0,1100.0,-16344.0,57.0,110.0,189.0,-0.5093879908009069,0.44813429871153343,0.13582230226317782,-0.721977719430501
-9069.012547969818,-2664.0,1244.0,-15960.0,251.0,165.0,81.0,-0.5157535982643117,0.4484582377062784,0.1094910198545415,-0.7217306640859916
-9069.028139591217,-2300.0,1100.0,-15988.0,140.0,170.0,469.0,-0.4927040499767553,0.4571690416464189,0.07460873449403296,-0.7366632359727183
-9069.043783426285,-2524.0,1468.0,-15880.0,-154.0,156.0,-203.0,-0.500344278668645,0.47262607451788236,0.08585801691772024,-0.7203531060669669
-9069.059414863586,-2364.0,940.0,-16140.0,-75.0,189.0,380.0,-0.47433067192021694,0.49056741844371105,0.06660484333619075,-0.7279545428674443
-9069.075002670288,-2620.0,1296.0,-15944.0,-227.0,169.0,-214.0,-0.478844072427749,0.5094936386167096,0.0831357755688294,-0.7100795936586852
-9069.090638637543,-2500.0,1256.0,-15988.0,-231.0,174.0,234.0,-0.45497363803811697,0.5316232333700736,0.07972763894827208,-0.7099431174532524
-9069.106227636337,-2628.0,1228.0,-16028.0,-285.0,149.0,-19.0,-0.44366672586345174,0.5520924503937673,0.09230546683130889,-0.6998810351573075
-9069.12179517746,-2376.0,1076.0,-16140.0,-333.0,186.0,80.0,-0.42386461659364577,0.5769228901012129,0.10153131395292077,-0.6907895178447476
-9069.137381315231,-2304.0,1340.0,-16324.0,-320.0,167.0,311.0,-0.39001905104338064,0.6013230364046986,0.09890452274591094,-0.6902996748461193
-9069.15294456482,-2464.0,1272.0,-16076.0,-474.0,171.0,164.0,-0.35623253526402116,0.6287532522453864,0.1129109739092279,-0.6819228992936716
-9069.16851902008,-2236.0,1376.0,-15624.0,-123.0,177.0,544.0,-0.31831243999414455,0.6478739015405217,0.08477389546983792,-0.6868405818634374
-9069.18409371376,-2596.0,1144.0,-16132.0,-471.0,131.0,110.0,-0.2856665227227997,0.66922473812525,0.10304307636120069,-0.6781703415003302
-9069.199752569199,-2220.0,1044.0,-16064.0,-128.0,88.0,886.0,-0.225741299916677,0.6837243429276044,0.056514550985293364,-0.6916415212572734
-9069.215315580368,-2616.0,1368.0,-15900.0,-610.0,117.0,53.0,-0.1863475747808181,0.7022568995041928,0.08771956109618971,-0.681480085602769
-9069.230897903442,-2252.0,1428.0,-16168.0,-199.0,61.0,685.0,-0.13353128169442516,0.7132013484503433,0.05647111719499819,-0.6858019001872221
-9069.246480226517,-2520.0,1532.0,-16048.0,-566.0,110.0,200.0,-0.08667978021141666,0.726558510205,0.07649302245023386,-0.6773095041911189
-9069.262063980103,-2412.0,1028.0,-16000.0,-156.0,107.0,789.0,-0.030739564585963913,0.7377016685197507,0.034794177588070484,-0.6735285388446515
-9069.277633428574,-2808.0,1396.0,-16040.0,-435.0,125.0,245.0,0.011307530071159363,0.7464223380749546,0.04419647704572326,-0.6639069998148496
-9069.293243169785,-2388.0,1320.0,-16044.0,-253.0,119.0,369.0,0.04868346296857669,0.754088459547581,0.034901097407023636,-0.6540354952220326
-9069.308861017227,-2372.0,1532.0,-16060.0,-329.0,89.0,346.0,0.08973301002906185,0.7583549656837794,0.031249708140017176,-0.6448792047159234
-9069.324455022812,-2432.0,1300.0,-15896.0,-151.0,122.0,401.0,0.1218489141852957,0.7647632714450838,0.014149185249711746,-0.6325265064147486
-9069.340070486069,-2336.0,1644.0,-16044.0,-100.0,106.0,8.0,0.1287946398097118,0.7697061434210998,0.02024749487335976,-0.6249435434400913
-9069.355649232864,-2600.0,1312.0,-16368.0,-143.0,180.0,141.0,0.1456921762957518,0.7781530988718836,0.020586952600767247,-0.6105962019738627
-9069.371236801147,-2516.0,1364.0,-15848.0,-373.0,172.0,-186.0,0.16063064467764052,0.7818389273119818,0.0552291147677751,-0.5998961848620666
-9069.386825561523,-2056.0,1168.0,-16096.0,-192.0,221.0,159.0,0.18085693954572366,0.7913474899386854,0.05750956486601271,-0.5811648368017618
-9069.402440786362,-2432.0,1352.0,-16220.0,-476.0,151.0,-59.0,0.20971080087000157,0.7906336733840514,0.08802604003925756,-0.5684814779609891
-9069.418018341064,-2188.0,1136.0,-16060.0,-508.0,44.0,649.0,0.27582159989382943,0.7866661948799782,0.06909079110590635,-0.5480010998615098
-9069.433589458466,-2476.0,1440.0,-16012.0,-272.0,34.0,418.0,0.31386989577643487,0.7837209118351411,0.05418241700862367,-0.5332274248054845
-9069.449160337448,-2388.0,1464.0,-16156.0,-183.0,-2.0,517.0,0.34992474347921443,0.7803698763051146,0.027265111209015418,-0.5175250175279512
-9069.464756250381,-2504.0,1420.0,-16064.0,-273.0,20.0,391.0,0.3856480401364948,0.7734027938559197,0.013575903099618859,-0.5029308127861803
-9069.480343818665,-2284.0,1364.0,-16028.0,-121.0,29.0,567.0,0.41797147582232325,0.7704952118121751,-0.018373288126265284,-0.48093595858164934
-9069.49598121643,-2444.0,1500.0,-15928.0,-232.0,37.0,157.0,0.4399148187894809,0.7633129767873562,-0.017835436915782883,-0.4727685997054653
-9069.511567115784,-2220.0,1316.0,-16128.0,-245.0,19.0,256.0,0.46642646972096347,0.7541463269293356,-0.024035637490174032,-0.4616621644157896
-9069.527154922485,-2460.0,1676.0,-15952.0,-71.0,-60.0,274.0,0.4816772870787493,0.7482420705593172,-0.04163334499439872,-0.454298865882515
-9069.542734146118,-2324.0,1444.0,-15920.0,111.0,5.0,518.0,0.49426745894670027,0.7506370037753322,-0.0795605739859652,-0.4311773215935501
-9069.558334112167,-2540.0,1620.0,-16048.0,-217.0,34.0,-183.0,0.5014811520436994,0.7438127227450505,-0.05793150578273315,-0.43806760695726354
-9069.573943138123,-2556.0,1152.0,-16196.0,-51.0,-19.0,426.0,0.5204191884438424,0.7384022698787741,-0.08440295348748494,-0.42047841511772754
-9069.589535713196,-2564.0,1476.0,-15880.0,-221.0,-253.0,7.0,0.5326272150081257,0.718947289999653,-0.08820303818790735,-0.43777079401127844
-9069.60514831543,-2444.0,1304.0,-15992.0,-39.0,29.0,281.0,0.5456681531407919,0.7160840724783208,-0.1029708892817897,-0.42292654651995726
-9069.620731830597,-2448.0,1408.0,-15996.0,-105.0,60.0,60.0,0.5547460973797841,0.7129368327229046,-0.09999319405340094,-0.4171081408123451
-9069.636298418045,-2480.0,1036.0,-15956.0,249.0,43.0,386.0,0.5530264187092164,0.7228253164272902,-0.13089009353677059,-0.3931324529409672
-9069.65191912651,-2632.0,1452.0,-16124.0,22.0,-5.0,126.0,0.5556593908769855,0.7224525674948482,-0.13984007271549045,-0.38697504197718685
-9069.667491436005,-2380.0,1696.0,-15980.0,250.0,100.0,-142.0,0.5359210400060395,0.7396376133466555,-0.1344541074851863,-0.384248529967351
-9069.683118104935,-2448.0,1452.0,-16084.0,-57.0,65.0,-183.0,0.5339299390170565,0.7413981256035166,-0.11769031415118573,-0.3890971980467473
-9069.698724269867,-2276.0,1448.0,-16048.0,-60.0,71.0,-102.0,0.5348286456207318,0.7422229024561278,-0.10575351684770527,-0.3897174316956294
-9069.714308977127,-2332.0,1288.0,-15884.0,-40.0,34.0,-23.0,0.5367334727387839,0.741932052393207,-0.10132585622376405,-0.38882782788001385
-9069.729896068573,-2556.0,1240.0,-16096.0,-5.0,-36.0,191.0,0.5429294095015158,0.7388989162207963,-0.11519828144461902,-0.3820803630890681
-9069.745513916016,-2448.0,1520.0,-16028.0,47.0,-43.0,227.0,0.5467067460156035,0.7374706265270095,-0.13342334280801058,-0.3734260575600297
-9069.761135578156,-2496.0,1436.0,-15880.0,59.0,41.0,-27.0,0.5422777287015321,0.7421336334617359,-0.13166430347681268,-0.37126411923205715
-9069.776755094528,-2592.0,1556.0,-16048.0,-158.0,100.0,-566.0,0.534382639456811,0.7436096798601662,-0.08505818229737779,-0.3927403013311711
-9069.792358636856,-2560.0,1400.0,-16100.0,135.0,35.0,230.0,0.5334059205097829,0.7494052058896906,-0.10295222940973206,-0.37851129416453017
-9069.80799126625,-2652.0,1472.0,-15980.0,-277.0,96.0,-804.0,0.5241532036058402,0.7450472968229448,-0.03666117068223698,-0.41088186040608476
-9069.823565483093,-2252.0,1112.0,-16092.0,86.0,40.0,-118.0,0.5142095353107984,0.7509427825408121,-0.030234798041244085,-0.4132303814250842
-9069.83915424347,-2456.0,1420.0,-15992.0,-90.0,69.0,-277.0,0.5099250769584125,0.7500829559150652,-0.005732878147599252,-0.4210927561034742
-9069.85472536087,-2500.0,1496.0,-16020.0,91.0,82.0,-101.0,0.5000505130559679,0.7573356548466342,0.0011949023200423946,-0.41998900283094165
-9069.870299816132,-2564.0,1456.0,-15948.0,-7.0,82.0,-383.0,0.48598392679282404,0.759762490211456,0.030337404848137486,-0.4308830737378696
-9069.885908842087,-2408.0,1520.0,-16060.0,39.0,110.0,-384.0,0.46818759392755893,0.7642755204764297,0.05897589895558592,-0.4395510767080275
-9069.901523828506,-2412.0,1392.0,-16152.0,241.0,88.0,-281.0,0.44044934783569994,0.7758259224491763,0.07205182212331071,-0.44598996062209995
-9069.91715312004,-2500.0,1460.0,-16384.0,92.0,59.0,-435.0,0.41641685161275543,0.7785270335207534,0.100136400446004,-0.458765043432925
-9069.932790517807,-2800.0,1368.0,-15924.0,-7.0,106.0,-555.0,0.3930919554417748,0.7769190529937398,0.141831923669158,-0.47091316088062174
-9069.948370933533,-2396.0,1516.0,-16036.0,159.0,134.0,-470.0,0.36081287741618645,0.7814695936197132,0.17161904064963535,-0.47923506406041577
-9069.963999509811,-2512.0,1152.0,-16016.0,-36.0,172.0,-402.0,0.3434709817171517,0.7811241916388452,0.2058436257671464,-0.4790627137294779
-9069.980084657669,-2492.0,1400.0,-15912.0,22.0,212.0,-557.0,0.3143047080381625,0.7797684523116718,0.24894954960767424,-0.4808303578546615
-9069.99600315094,-2540.0,956.0,-16240.0,-105.0,60.0,-167.0,0.3129457751610345,0.7758313792743926,0.2663747340517877,-0.4787432650188328
-9070.01163649559,-2420.0,1336.0,-16036.0,-38.0,38.0,119.0,0.3194503250622178,0.7792750539271687,0.2609781136399828,-0.4717756928301501
-9070.02727484703,-2484.0,1248.0,-15680.0,-88.0,66.0,60.0,0.32624017372894465,0.781035930656012,0.2623966660577925,-0.4633553859742653
-9070.042878866196,-2492.0,1204.0,-16064.0,-8.0,92.0,256.0,0.3347869093858289,0.7903415903953946,0.24787431151453979,-0.44926186293336334
-9070.058473110199,-2500.0,1568.0,-16132.0,233.0,88.0,-224.0,0.3077491741725373,0.7955865120353279,0.2566948979749406,-0.45435699292210424
-9070.074073791504,-2412.0,1304.0,-16072.0,-213.0,-245.0,-557.0,0.3053172568380614,0.7666429997969639,0.2968109623204819,-0.48056543382309874
-9070.089673995972,-2444.0,1792.0,-16016.0,-463.0,41.0,-993.0,0.2921323275505147,0.7271682004910901,0.38205749228384983,-0.4898134175216569
-9070.10536289215,-2472.0,996.0,-16212.0,-214.0,-12.0,-481.0,0.28512876288326716,0.7045909808536703,0.42105279622416514,-0.49494209870259787
-9070.120961427689,-2408.0,1780.0,-16000.0,-522.0,101.0,-844.0,0.27591341928138435,0.6626199605297666,0.4962018820771929,-0.4884570249172768
-9070.13654923439,-2376.0,876.0,-16072.0,-337.0,-119.0,-189.0,0.2922018134313692,0.6410082644687859,0.5184055332298179,-0.48474963458144305
-9070.152128219604,-2492.0,1508.0,-16008.0,-404.0,-40.0,-515.0,0.2942351319032112,0.6048863287426783,0.5624595015169013,-0.4808092403515799
-9070.16774725914,-2540.0,1064.0,-16016.0,-290.0,-132.0,31.0,0.3170836568339914,0.5933410748749668,0.5694903075933119,-0.4723188679189914
-9070.183328866959,-2608.0,1788.0,-16096.0,-577.0,-97.0,-546.0,0.3283618648467722,0.5450697749622108,0.6174619498806673,-0.46240476488306154
-9070.198924303055,-2408.0,1204.0,-15876.0,-221.0,-74.0,330.0,0.355826842314815,0.5533271043718915,0.608307870245636,-0.44404719214617716
-9070.214529037476,-2576.0,1360.0,-15632.0,-495.0,-47.0,-54.0,0.37962779106628164,0.5329030290982754,0.6281585957554531,-0.42108654740629686
-9070.230161905289,-2560.0,1208.0,-15912.0,-44.0,-53.0,701.0,0.4094069320741009,0.5669872728497258,0.5944265203900431,-0.3969489995617683
-9070.245774507523,-2308.0,1536.0,-16036.0,-272.0,-45.0,286.0,0.4346729510648613,0.570346439911826,0.5878574217044398,-0.374416901113557
-9070.261371135712,-2304.0,1484.0,-15904.0,-80.0,-30.0,660.0,0.46079519234630956,0.5993209863127373,0.555670136790484,-0.34599544094525314
-9070.276974916458,-2332.0,1488.0,-15900.0,-139.0,-223.0,386.0,0.4899274364271745,0.6053640066791063,0.5303933579615657,-0.33494538701640636
-9070.292555093765,-2624.0,1372.0,-15988.0,-27.0,16.0,432.0,0.5026711712984469,0.6243763639742645,0.5088027234474171,-0.3139994239934451
-9070.30816936493,-2540.0,1248.0,-15888.0,62.0,-40.0,531.0,0.5148367392628573,0.6490187193605689,0.4760158074126511,-0.2951724663955591
-9070.323768854141,-2504.0,1448.0,-15952.0,120.0,-56.0,1259.0,0.5392897619289655,0.7011560958803705,0.3968030731776904,-0.24514078201135137
-9070.339353084564,-2584.0,1520.0,-16060.0,123.0,-14.0,809.0,0.547917625530301,0.7329550114185913,0.34323884583788733,-0.21154271809136987
-9070.354907751083,-2704.0,1484.0,-15960.0,221.0,54.0,652.0,0.5429631167914164,0.7628277507040225,0.2995857868251198,-0.18312081501666122
-9070.370480775833,-2548.0,1552.0,-16128.0,134.0,97.0,184.0,0.5340627490555946,0.7755215223720251,0.2898031816335328,-0.17134020054861396
-9070.386041879654,-2496.0,1576.0,-15900.0,174.0,104.0,-192.0,0.5163683784729394,0.7802598443886427,0.3050253135699968,-0.17753261962063088
-9070.40166258812,-2872.0,1384.0,-16020.0,93.0,120.0,-412.0,0.49982499382571494,0.7749291277836768,0.33687478799046683,-0.1901977909333648
-9070.417249441147,-2552.0,1288.0,-16076.0,148.0,104.0,-241.0,0.48232678042106625,0.7759080448878358,0.35520697935359763,-0.19787770108195013
-9070.432874917984,-2708.0,1124.0,-16104.0,110.0,-243.0,34.0,0.4826016921281401,0.7773323608615461,0.34076772557469676,-0.2161651329866111
-9070.448493480682,-2592.0,1240.0,-16088.0,89.0,-11.0,-69.0,0.4753072966678117,0.7789350732076397,0.3433675936057172,-0.22235516886900805
-9070.464098215103,-2608.0,1176.0,-15948.0,58.0,-20.0,199.0,0.475488493450469,0.7869367638467638,0.3279109001294362,-0.2170614288142621
-9070.47970700264,-2604.0,1436.0,-16112.0,35.0,-17.0,-56.0,0.47224382538068793,0.7866035083668776,0.33045604412967233,-0.221448623641923
-9070.495340108871,-2340.0,1344.0,-15916.0,-5.0,105.0,-309.0,0.46314229170492366,0.7793518623104783,0.35601701638798466,-0.22663136673836246
-9070.510934352875,-2608.0,1456.0,-15936.0,-135.0,169.0,-305.0,0.46054036237772317,0.7675026441726592,0.38612902106703567,-0.22303955904454403
-9070.52652835846,-2476.0,1164.0,-16104.0,-86.0,131.0,-331.0,0.4549534894705883,0.75520190966092,0.41510472234842066,-0.22444479844067575
-9070.542134046555,-2608.0,1416.0,-16044.0,-178.0,102.0,-498.0,0.45248158606951594,0.7314293089589747,0.4550396261966157,-0.23067405327573345
-9070.557702064514,-2452.0,1072.0,-16028.0,-12.0,15.0,54.0,0.4534794893004041,0.7335304766869088,0.45251237041773745,-0.22698446460989655
-9070.573336839676,-2564.0,1324.0,-16028.0,-83.0,48.0,-152.0,0.4535774749105355,0.7252444599440458,0.46581697639368475,-0.22650053438722254
-9070.588910341263,-2620.0,1244.0,-16088.0,-208.0,118.0,-367.0,0.45410565741184694,0.7040489701326398,0.497553194607078,-0.2248197457920784
-9070.604529619217,-2744.0,1360.0,-15984.0,-135.0,142.0,-326.0,0.44933857777420777,0.6870852245253861,0.525662489458726,-0.22290734384224892
-9070.62010216713,-2788.0,1160.0,-16032.0,-227.0,120.0,-492.0,0.4470963396256658,0.6573079836896716,0.563721630936369,-0.2242074942672294
-9070.63572192192,-2580.0,1488.0,-15992.0,-157.0,150.0,-352.0,0.4413000905537253,0.6365130003166201,0.5925504279443136,-0.22133553905376144
-9070.651313304901,-2532.0,1144.0,-16032.0,-228.0,113.0,-272.0,0.44238249811713454,0.6156449829353413,0.6161951717018866,-0.21350056374040138
-9070.666892766953,-2536.0,1236.0,-16008.0,-26.0,57.0,214.0,0.44436454683610793,0.627206481760584,0.6073775196769771,-0.20061088540678418
-9070.682465553284,-2632.0,1244.0,-15820.0,-112.0,130.0,43.0,0.4440462395340305,0.6274576905370299,0.6120597110802033,-0.18574900757215643
-9070.698070764542,-2928.0,1532.0,-15788.0,-67.0,241.0,-81.0,0.43315448639678583,0.6243879999776584,0.6268566841299705,-0.17195206878608554
-9070.713656425476,-2736.0,1240.0,-15768.0,-236.0,500.0,-520.0,0.4096918918342108,0.5933272157054961,0.6762468298803418,-0.15101521097312368
-9070.72924399376,-2908.0,964.0,-15844.0,-299.0,196.0,-299.0,0.4090519144088982,0.5671985843243428,0.7022003807777197,-0.13370460909969462
-9070.744861364365,-3332.0,1096.0,-16096.0,-536.0,-286.0,-3470.0,0.3941439130233352,0.3175325131912292,0.8317001982844933,-0.22825086870951938
-9070.760446071625,-3568.0,3292.0,-15844.0,-3118.0,436.0,-8123.0,0.22840735283431016,-0.29492788221299215,0.9027596602332354,-0.214178946958276
-9070.77607345581,-3228.0,-1296.0,-16552.0,-649.0,-196.0,-2889.0,0.1674661846024712,-0.5219030613705063,0.8100136668406155,-0.2084469502732172
-9070.791650772095,-3312.0,1520.0,-15920.0,-1392.0,145.0,-4117.0,0.01759841432471572,-0.7766086135553972,0.6077277406298215,-0.16503439166971157
-9070.807229042053,-1888.0,648.0,-16524.0,359.0,-164.0,-1241.0,0.032548546553390505,-0.8388791110844852,0.5149230279362732,-0.1734263659433188
-9070.822834730148,-2388.0,1788.0,-16528.0,605.0,-254.0,-669.0,0.07782160697437673,-0.8682229213368563,0.45458361988941315,-0.1829931388917579
-9070.83842086792,-2224.0,2472.0,-15960.0,276.0,-123.0,-1983.0,0.07075071804788895,-0.9328574876946693,0.29463610463580686,-0.19483533917833298
-9070.854035615921,-1704.0,2196.0,-16196.0,1611.0,-234.0,-172.0,0.20281154568718057,-0.9220390762392662,0.24928621367644524,-0.21579574253140132
-9070.869611501694,-2316.0,2940.0,-15744.0,164.0,-91.0,-3842.0,0.13786877960465188,-0.9523031401433055,-0.061192496925499926,-0.26526667186728614
-9070.885199308395,-1604.0,972.0,-16348.0,885.0,-284.0,-2773.0,0.14103637847303652,-0.9045237279902741,-0.3057607102183255,-0.26164088659185564
-9070.900843143463,-2168.0,988.0,-15988.0,-18.0,-395.0,-4315.0,0.028420920940051355,-0.7470720728881057,-0.6087846712521099,-0.2654369853883372
-9070.916465520859,-2368.0,60.0,-16816.0,426.0,-825.0,-2206.0,-0.03799036089979333,-0.6342768060515948,-0.7484127934511067,-0.19007355518956917
-9070.932121038437,-2624.0,336.0,-16344.0,430.0,-1014.0,-875.0,-0.09426343730899976,-0.5909408230538602,-0.7946856586944312,-0.10187272402619324
-9070.947749376297,-2780.0,2040.0,-15980.0,1206.0,-1128.0,901.0,-0.10097105658896757,-0.6644432101676495,-0.7397766985705242,0.03241145546734961
-9070.963344573975,-2564.0,1976.0,-15908.0,-262.0,-798.0,-1867.0,-0.15985713411872307,-0.5309857454515995,-0.8286255095413714,0.07667854808132762
-9070.97894024849,-2012.0,2472.0,-16132.0,795.0,-838.0,-336.0,-0.18021102460139013,-0.5094424097435267,-0.8227151684941155,0.1764431049843689
-9070.994534254074,-2544.0,1392.0,-16228.0,-181.0,-896.0,-1887.0,-0.21973898310377094,-0.3515625422649815,-0.8807563884811185,0.2288815028140123
-9071.01017165184,-1308.0,1628.0,-16220.0,1154.0,-998.0,32.0,-0.2592386298116553,-0.3531725722139658,-0.8303782415376888,0.34429121834563614
-9071.02578663826,-2716.0,1404.0,-16168.0,258.0,-1185.0,-2548.0,-0.25293403093861655,-0.13483237707156945,-0.8491316186540966,0.4436441144523921
-9071.041370868683,-2324.0,1408.0,-16452.0,2043.0,-1298.0,-665.0,-0.2923292304889054,-0.07859618472897065,-0.7320627889658452,0.6102870912606315
-9071.056943178177,-3052.0,1544.0,-16148.0,2201.0,-1356.0,-1952.0,-0.2500649852456436,0.059768535287445634,-0.5715011331687982,0.7792827985593349
-9071.072530984879,-3000.0,1192.0,-16188.0,3067.0,-1634.0,-1809.0,-0.21245982297383723,0.18373099346301044,-0.3010230338020275,0.9113116255066893
-9071.08812046051,-3556.0,-176.0,-16516.0,4027.0,-1861.0,-1005.0,-0.22866868137971633,0.2635611817042985,0.06465665009231653,0.9349147850224294
-9071.10372877121,-3108.0,784.0,-16136.0,5744.0,-1743.0,95.0,-0.31769399327436915,0.2586064162264724,0.5013673250506847,0.76211813618061
-9071.119312763214,-3604.0,1460.0,-16404.0,7357.0,-1497.0,-282.0,-0.3339382742513573,0.1186728886399609,0.8686239193690275,0.3462577958571648
-9071.134892940521,-3396.0,3768.0,-17336.0,9716.0,-924.0,541.0,-0.28954307285888076,-0.07270698216814686,0.9004791671763291,-0.3162527046285332
-9071.150478839874,-3844.0,5612.0,-17528.0,8159.0,-316.0,-4770.0,-0.2656606789800111,-0.5110077136046499,0.5037647185525624,-0.6438296580789713
-9071.16608762741,-2860.0,-1352.0,-20004.0,8823.0,-131.0,-2058.0,0.014156745412411655,-0.6381819413945615,-0.06317564863653116,-0.7671585453193818
-9071.181689977646,-2788.0,-76.0,-20380.0,10571.0,-118.0,5.0,0.4428793910759066,-0.4654545272562373,-0.5665157271511528,-0.5160134289990012
-9071.197306871414,-3204.0,244.0,-21308.0,10308.0,-352.0,-283.0,0.6177317547637216,-0.05130349591742909,-0.7847107469765456,-0.0021151932997664938
-9071.212938308716,-3188.0,1416.0,-21508.0,11316.0,-1076.0,-2893.0,0.41502864381180116,0.5287527282743274,-0.5995393731820676,0.4344241212946698
-9071.228515148163,36.0,308.0,-22760.0,10638.0,366.0,-3222.0,0.0468489588947735,0.7670458334176544,-0.02473362881288337,0.6394013701055372
-9071.24410867691,-2360.0,996.0,-22228.0,14713.0,687.0,697.0,-0.5985461269624491,0.4832604218074963,0.4616864218087376,0.4416418758792434
-9071.259716272354,-3320.0,1204.0,-22124.0,12995.0,1043.0,-41.0,-0.7835763140922857,-0.15661790117269137,0.6007626694067952,-0.02373200524672559
-9071.275316238403,-2536.0,1780.0,-19752.0,13187.0,1759.0,-507.0,-0.4542838301262847,-0.705432157461669,0.29124736097300824,-0.4595287234015151
-9071.290897369385,-1556.0,480.0,-19160.0,10978.0,2714.0,-3126.0,0.019122812919725576,-0.7765770721214198,-0.31368938019478426,-0.5460415202476571
-9071.306560993195,-740.0,1688.0,-17436.0,10624.0,4093.0,-4017.0,0.4541512465232857,-0.31254953836511373,-0.7472350264797974,-0.37107849109162383
-9071.32217168808,-636.0,1732.0,-15304.0,7699.0,4982.0,-6348.0,0.5612813675042302,0.40690830451705545,-0.6968759479838927,-0.183719273156594
-9071.337799549103,-68.0,1628.0,-13464.0,6632.0,5585.0,-3079.0,0.48016999989338627,0.7864781781171408,-0.32786431747375105,0.20831187166217796
-9071.353375673294,-3084.0,2060.0,-12464.0,4201.0,4495.0,-890.0,0.2957060200059803,0.7967555585333559,-0.0018121093762385216,0.527005925904094
-9071.368966579437,-3852.0,2860.0,-12336.0,2680.0,3900.0,2271.0,0.004976673230993676,0.6240588280497572,0.05841511867692536,0.7791748749585528
-9071.384549379349,-4728.0,5080.0,-11168.0,216.0,3354.0,1793.0,-0.13830311495785888,0.3847219348288806,-0.02179786643403007,0.912351979377148
-9071.400125265121,-4528.0,4368.0,-10844.0,-2091.0,3106.0,1453.0,-0.16781292998900502,0.15104243112446644,-0.25902563697445,0.9391116674381682
-9071.415761947632,-4372.0,4736.0,-10380.0,-4317.0,2720.0,1497.0,-0.15614728956972998,-0.03868283207058938,-0.6100757628765097,0.7758409798493955
-9071.431343317032,-5056.0,3944.0,-10416.0,-7001.0,2118.0,1274.0,-0.12867140675299238,-0.12978164493735822,-0.9304792589990538,0.3175039248483886
-9071.446918487549,-4924.0,3164.0,-10548.0,-8698.0,1344.0,2769.0,-0.15175429879223648,-0.2291806121104621,-0.899698450224189,-0.33910113313721457
-9071.462492704391,-4892.0,1920.0,-11212.0,-10980.0,923.0,1482.0,-0.18311719294179055,-0.12401446026253472,-0.40016267690254026,-0.8893583863151595
-9071.478057861328,-3992.0,768.0,-12540.0,-11420.0,671.0,3630.0,-0.0010870464921515501,-0.011175923252521524,0.35529815111337776,-0.9346855839718472
-9071.493629455566,-4832.0,1968.0,-13192.0,-12237.0,-207.0,5542.0,0.2890706638258567,0.09414610981110799,0.8818636023295147,-0.36040428439340877
-9071.509214401245,-5596.0,1840.0,-13936.0,-13626.0,-1084.0,6701.0,0.4180010246358276,0.13956376199867365,0.7385081823750677,0.5102967414213515
-9071.524865150452,-5988.0,1020.0,-14356.0,-14103.0,-1832.0,9000.0,0.17279279144344012,0.161377749944504,-0.03698772123884223,0.9709437581680983
-9071.540466308594,-6088.0,996.0,-14696.0,-14903.0,-2317.0,10380.0,-0.26760841010627967,0.052697535155655964,-0.785677548425672,0.5552652506043698
-9071.55608201027,-5964.0,892.0,-15004.0,-15901.0,-2478.0,10591.0,-0.4485628072175729,-0.09308310122765553,-0.7908442844905437,-0.40582294407237807
-9071.571675539017,-5792.0,532.0,-16164.0,-16913.0,-2396.0,10060.0,-0.19765943960579369,-0.1051776926044147,-0.008312551838732429,-0.9745764723176233
-9071.587289094925,-5232.0,760.0,-17720.0,-17979.0,-2227.0,8357.0,0.17257313927925397,0.004801688874825475,0.8147446026794667,-0.5535220752489736
-9071.602876663208,-4600.0,-576.0,-18596.0,-18430.0,-1433.0,5904.0,0.28844455131830377,0.03957911099719238,0.8546900774764634,0.42981171022987624
-9071.618474245071,-3528.0,-1232.0,-18308.0,-18059.0,-1250.0,4362.0,0.14695058163750735,-0.022432942453483574,0.06865273343765632,0.9865034677287329
-9071.634070158005,-3248.0,-1092.0,-18688.0,-17788.0,-638.0,3165.0,-0.08379105576280886,-0.0947404339860395,-0.7840993629873846,0.6076113051162465
-9071.649639129639,-3240.0,-1264.0,-17424.0,-17355.0,-695.0,3613.0,-0.2530305028586387,-0.09670994091527545,-0.9057491420303004,-0.32594668837502105
-9071.66520357132,-3164.0,-980.0,-17608.0,-17291.0,-594.0,4101.0,-0.17832641102263877,-0.03030388116808305,-0.19847648668025442,-0.963269666372298
-9071.680775642395,-3712.0,-1008.0,-17152.0,-16639.0,-952.0,5603.0,0.12677532253930407,0.028225938511907512,0.6714345768365266,-0.7295936698043178
-9071.696345329285,-3688.0,4.0,-17248.0,-16394.0,-877.0,3492.0,0.2485516621433262,-0.0024314819967685094,0.9567880390497903,0.15090661838483566
-9071.711961269379,-2856.0,364.0,-17544.0,-16325.0,-295.0,-657.0,0.15970930519319057,-0.2339927461652993,0.42226722193780486,0.8610637176502438
-9071.727542161942,-2120.0,-1184.0,-17440.0,-16034.0,268.0,-5146.0,0.1176386412892476,-0.37547871304437225,-0.49714721666895156,0.7733185185190358
-9071.743135213852,-2028.0,-2664.0,-17220.0,-14207.0,288.0,-7139.0,0.08555364115614246,-0.1351582596210125,-0.9861733558472133,0.04330047988406895
-9071.75870680809,-1576.0,-1512.0,-16268.0,-12128.0,-88.0,-4660.0,-0.031609227893778784,0.11618606247323306,-0.7194182923738737,-0.6840606524254883
-9071.774292230606,-2288.0,-132.0,-17560.0,-10847.0,-448.0,-1862.0,-0.043933309401478146,0.1704050938184146,-0.03749850837184289,-0.9836797396488647
-9071.789880752563,-1872.0,24.0,-16596.0,-9741.0,-210.0,-1398.0,-0.01500007425360594,0.14763649549926275,0.6222068528700345,-0.7686592842154771
-9071.805522918701,-904.0,188.0,-16284.0,-7764.0,136.0,-1189.0,-0.0017277806470976987,0.08447542726772893,0.9552915950924471,-0.283335287791158
-9071.821137428284,-1476.0,292.0,-16120.0,-5735.0,192.0,-3317.0,-0.049696469706881796,-0.16134578930906948,0.9707863801243611,0.17050396281595814
-9071.836751937866,-1716.0,912.0,-15964.0,-5689.0,1104.0,-7342.0,-0.0882358746558292,-0.6005279849910056,0.6027779013435464,0.5179183056411824
-9071.852348566055,-876.0,436.0,-16756.0,-3939.0,1113.0,-3782.0,-0.16387604401108902,-0.7370722355159942,0.19614967096494398,0.6256152718812696
-9071.867940425873,-3292.0,2496.0,-16140.0,-2536.0,590.0,-1407.0,-0.2519577035063567,-0.7332561488724084,-0.03985723740593937,0.6302889308967549
-9071.883509159088,-3940.0,3072.0,-15600.0,-1149.0,578.0,-1407.0,-0.2426834525973189,-0.7251427050483905,-0.20298221398292238,0.6116134563244491
-9071.899095773697,-3264.0,3304.0,-15632.0,907.0,585.0,-779.0,-0.13241735021222642,-0.7568876244161291,-0.21482630218961607,0.6028568895318501
-9071.914777755737,-3416.0,3616.0,-15644.0,1860.0,920.0,-2889.0,0.15247229152872596,-0.7380853451582144,-0.30411180736391824,0.5826647682849119
-9071.930466651917,-2692.0,2508.0,-16104.0,2783.0,1344.0,-3938.0,0.5200691701015627,-0.6094886761002523,-0.36509859312542386,0.4740829350580653
-9071.946069955826,-3296.0,1500.0,-16548.0,3633.0,1446.0,-5772.0,0.8526556744679247,-0.27403594924501024,-0.3898103526865845,0.21431399454397548
-9071.961662530899,-2648.0,-112.0,-16284.0,4898.0,2041.0,-6497.0,0.9365708472831472,0.22036607741478967,-0.2436377667997707,-0.12212484813897392
-9071.977254152298,-2976.0,2348.0,-15940.0,7854.0,1728.0,-3783.0,0.617739173521688,0.7596118502316117,-0.08967579716628686,-0.18260997203614135
-9071.992812156677,-3452.0,4032.0,-14140.0,5362.0,2091.0,-8245.0,0.11053517691768217,0.8618473883648451,0.36386410880925696,-0.3355651414448733
-9072.008445739746,-1392.0,1952.0,-14440.0,7674.0,1433.0,-1684.0,-0.46063893444559284,0.7584692359694869,0.22942511717346353,-0.39987536279525154
-9072.02408194542,-2560.0,14064.0,-16808.0,12423.0,-1936.0,10720.0,-0.49574149960665287,0.23148717452885875,-0.47641801283932733,-0.6882440923383355
-9072.039657115936,-7648.0,32767.0,-17884.0,4869.0,459.0,2822.0,-0.36358504971135946,-0.06186485674989185,-0.758756171204697,-0.5369056935668427
-9072.055229663849,-10020.0,-8084.0,-17552.0,-14013.0,4134.0,-22240.0,-0.47759829140284016,0.8104890086878246,-0.13982774949832402,-0.3089589605684692
-9072.070825576782,1280.0,-12904.0,-21208.0,14891.0,1207.0,10480.0,-0.6559695645937523,0.05038333393092416,-0.7088154368005306,-0.2544526017590721
-9072.086425065994,-9408.0,-448.0,-21424.0,6767.0,2254.0,-14892.0,-0.4998874123926502,0.36159522220060913,-0.5261491622917982,0.5852593691968643
-9072.102009296417,-764.0,7460.0,-17364.0,13004.0,3144.0,3332.0,-0.5983061342148321,-0.3319261938329709,-0.06674156265475695,0.7262233371510871
-9072.117609500885,-5312.0,9744.0,-10296.0,4286.0,4037.0,-11838.0,0.19617968967288923,-0.4865434640774141,-0.22838966623325954,0.8201384927445237
-9072.133188009262,844.0,-3668.0,-17236.0,10328.0,2577.0,4454.0,0.2588237232503471,-0.4109622719490482,0.5241918247379809,0.6995307156910054
-9072.148759841919,-2588.0,860.0,-17312.0,7513.0,2530.0,-552.0,0.3665825171644999,-0.3460169156341162,0.8383665414855526,0.20743937505195442
-9072.16434788704,944.0,-768.0,-15992.0,7041.0,2501.0,5084.0,0.2386233668396468,0.1616257690515225,0.9417535832022425,-0.17330951532547878
-9072.179956436157,-3620.0,6344.0,-14408.0,9636.0,1870.0,3409.0,0.0003774347199730871,0.49698552611975005,0.582973338724696,-0.6427653776508878
-9072.1955473423,-6084.0,6768.0,-16092.0,4748.0,3516.0,-9463.0,-0.6557691477373276,0.15271037863702736,0.5211275093277341,-0.5244735304610398
-9072.211121320724,-2604.0,616.0,-17872.0,7456.0,3610.0,-6111.0,-0.8919609903021161,-0.2876091676808379,0.04088926016801475,-0.34643127290721953
-9072.226696491241,-2820.0,6372.0,-14348.0,5771.0,4048.0,-12715.0,-0.709295136773189,-0.4085883066064392,-0.4752958742646041,0.32256756898583444
-9072.242274522781,-1040.0,1728.0,-15924.0,4206.0,3803.0,-10743.0,-0.0679416353849804,-0.22682956786816996,-0.6693648892001618,0.7041895529103005
-9072.257849693298,-1632.0,704.0,-16708.0,6019.0,2746.0,-4688.0,0.40794001716200895,-0.128597893654315,-0.33371736261844515,0.8400477641375653
-9072.273419618607,-3272.0,1576.0,-16096.0,4295.0,2762.0,-4691.0,0.7533004935508409,-0.035724710462453485,0.02276225926161851,0.6563108951036395
-9072.289006471634,-2292.0,1132.0,-16308.0,5961.0,2813.0,-943.0,0.709192619885359,0.16685086350465264,0.47242459727536945,0.4960056624042688
-9072.304591178894,-3464.0,1428.0,-16100.0,5018.0,2730.0,-2026.0,0.5401764888672242,0.24374094035916133,0.7851627205863979,0.17977546292326746
-9072.320173740387,-2420.0,956.0,-15464.0,5498.0,2842.0,891.0,0.1880867577131014,0.45589606225975504,0.8659631556087044,-0.08300581375564721
-9072.335777759552,-3224.0,-188.0,-16008.0,5026.0,2882.0,2610.0,-0.1845456519070261,0.6615546346051785,0.6760554509844661,-0.26690334390713366
-9072.351360797882,-2740.0,1356.0,-15676.0,4664.0,2985.0,3004.0,-0.4905237169667245,0.7302817489079405,0.3031987523279608,-0.3662588796082311
-9072.36694765091,-2444.0,792.0,-16360.0,4490.0,3211.0,3544.0,-0.6493117710549035,0.637642349960536,-0.17668716310636462,-0.3749508019724384
-9072.382533073425,-1656.0,1136.0,-15908.0,3532.0,3218.0,2057.0,-0.6635477941430676,0.4655845794315224,-0.5364598075264476,-0.23483227885477725
-9072.398140668869,-1280.0,2648.0,-16180.0,4014.0,2899.0,-894.0,-0.6491706934458579,0.3062985398870116,-0.6871263366445092,0.11232102529626968
-9072.413750886917,-924.0,832.0,-16052.0,2062.0,2821.0,-3403.0,-0.4614617190326749,0.33671964709402324,-0.6771647613913878,0.4638112192024143
-9072.429364681244,-300.0,124.0,-16296.0,2671.0,3097.0,-2559.0,-0.23335801840772114,0.23514087001583742,-0.5703157973829607,0.7516599615174766
-9072.444939136505,-1872.0,304.0,-16448.0,1335.0,2682.0,-3451.0,0.09208946129543447,0.1893601967915342,-0.43360918750556104,0.876153707690697
-9072.46050953865,-1196.0,112.0,-16732.0,1904.0,2639.0,-2013.0,0.29820987297169177,0.07508323660784805,-0.22180881377506736,0.9253292545761183
-9072.476105690002,-2300.0,600.0,-16636.0,833.0,2653.0,-4030.0,0.6156890877475861,-0.036272169619785834,-0.05463141527329221,0.7852558088959647
-9072.491710424423,-1024.0,40.0,-16544.0,1113.0,2431.0,-2792.0,0.7789834127106965,-0.12321312133220405,0.13573754790396608,0.599648803502676
-9072.5073056221,-988.0,148.0,-16628.0,807.0,2142.0,-2182.0,0.8447931587468674,-0.19904638261789695,0.28952224798387394,0.40358632834077
-9072.522888183594,-664.0,1068.0,-16412.0,525.0,1926.0,-2974.0,0.8684097162400484,-0.28962937627282603,0.38044330343226346,0.13130987020494425
-9072.538461446762,-440.0,504.0,-16504.0,-108.0,1508.0,-3653.0,0.8104136836757736,-0.4126548081463765,0.3794355658789859,-0.1702184536730201
-9072.554047107697,-624.0,176.0,-16756.0,294.0,1201.0,-1860.0,0.7395030584185895,-0.4277513678263099,0.3859519283090273,-0.34814523254931506
-9072.569633722305,-1068.0,-268.0,-16460.0,-581.0,872.0,-1979.0,0.6164828064550137,-0.4961999384712917,0.3790200723918943,-0.47966483624555994
-9072.585206508636,-1172.0,-92.0,-16440.0,-125.0,916.0,-956.0,0.536997700866272,-0.49308506662561,0.3896899739131127,-0.5627097924923231
-9072.600793838501,-1148.0,644.0,-16296.0,-580.0,1016.0,-1476.0,0.39951007728052323,-0.5138585763378889,0.39711098271138634,-0.6470269925476875
-9072.616395950317,-560.0,-592.0,-16444.0,-658.0,694.0,-75.0,0.34042038093293864,-0.49865416684866576,0.45366649129470793,-0.6554728833493303
-9072.632008314133,-768.0,-672.0,-16368.0,-696.0,462.0,1357.0,0.36584693384677297,-0.43515653873861737,0.56101972829746,-0.6017072978192844
-9072.64758682251,-644.0,-1128.0,-16880.0,-573.0,99.0,3539.0,0.5009815211088124,-0.26256166686845944,0.695562758624044,-0.44302520855371924
-9072.663166761398,-1200.0,148.0,-16496.0,-783.0,64.0,3166.0,0.5783916859690769,-0.0983021394659608,0.7707453758760452,-0.2484981137633797
-9072.678737163544,-1052.0,-156.0,-16344.0,-858.0,187.0,3632.0,0.6055884450296896,0.10145116857251053,0.7892386182599802,-0.008526376069111928
-9072.69431233406,-900.0,232.0,-15784.0,-635.0,311.0,4260.0,0.5546217473163203,0.33832315954852493,0.719250886921241,0.2461916301987201
-9072.709917783737,-324.0,736.0,-15704.0,-773.0,213.0,3386.0,0.46990781514533175,0.4869952292182052,0.586718553438943,0.4447287162243551
-9072.725538015366,192.0,824.0,-16552.0,-464.0,44.0,4313.0,0.29909240321613895,0.6427188678065041,0.36229629077321934,0.6051426187237904
-9072.74114894867,-296.0,460.0,-16604.0,-485.0,-248.0,4429.0,0.09332083201849677,0.7299870237925469,0.07633200139653393,0.6727433336486319
-9072.756736040115,-108.0,1128.0,-16472.0,133.0,-334.0,5333.0,-0.20484393971776496,0.7127038104906253,-0.2340603125753096,0.6287352455129233
-9072.772315502167,-696.0,1412.0,-16280.0,50.0,-332.0,4392.0,-0.42529340171176055,0.5978718391428927,-0.46540746694229396,0.49504613535981856
-9072.787922143936,-628.0,636.0,-16308.0,68.0,-203.0,4319.0,-0.5833592395932131,0.40124586861654066,-0.6365941674651117,0.3056822148061402
-9072.80351114273,-848.0,512.0,-16080.0,-322.0,-290.0,4050.0,-0.6558158184699316,0.18890662078793521,-0.7278064103672658,0.06721406025090355
-9072.819125652313,-736.0,212.0,-16500.0,-703.0,-385.0,4599.0,-0.6440176939564385,-0.05616513367031457,-0.7278429152541752,-0.2287605261952558
-9072.834699869156,-1104.0,340.0,-15932.0,-653.0,-407.0,4802.0,-0.5311400311039526,-0.3061789316259227,-0.6154995306212017,-0.49528280506432015
-9072.850273370743,-976.0,464.0,-16580.0,-1141.0,-534.0,4125.0,-0.3854781192851714,-0.46612580616429594,-0.40379853602343774,-0.6863527479987103
-9072.865850448608,-628.0,232.0,-16364.0,-364.0,-408.0,5375.0,-0.08378625621988858,-0.6041382424046563,-0.13550595537099144,-0.7807912546845431
-9072.88141655922,-1356.0,1848.0,-16104.0,-1066.0,-526.0,3241.0,0.07144944107480505,-0.6422467947874327,0.10700612078867795,-0.7556214145120069
-9072.896981716156,-872.0,924.0,-17064.0,-510.0,-404.0,4380.0,0.3128828137113595,-0.5889633872944452,0.3578458365878882,-0.6535846009105711
-9072.912566184998,-800.0,1752.0,-16532.0,-89.0,-209.0,4317.0,0.5248577132028596,-0.43853163726478767,0.541937830623925,-0.48838281270737155
-9072.9282310009,-740.0,932.0,-16336.0,-548.0,-411.0,3330.0,0.6376071800283933,-0.3104193886963822,0.6462439053035637,-0.28189661572215324
-9072.94391131401,28.0,612.0,-16640.0,225.0,-515.0,5842.0,0.7265094110499302,0.0167343310586018,0.6858084978051077,0.03963258959753115
-9072.959506511688,-244.0,636.0,-16260.0,307.0,-678.0,5527.0,0.6719525076088471,0.33209927497772784,0.5719258358481588,0.33330277131586356
-9072.975098133087,632.0,664.0,-16360.0,808.0,-669.0,7677.0,0.3797589895791629,0.6479906885267352,0.27661334606795257,0.5994799698017874
-9072.990685224533,-1064.0,1100.0,-15632.0,1203.0,-867.0,6365.0,-0.0003687659760436681,0.7705399609070365,-0.04256192563765888,0.6359689576882287
-9073.006268501282,-560.0,2512.0,-15136.0,1289.0,-457.0,4507.0,-0.31340195788427905,0.7208229777893725,-0.2534783891551009,0.5638635949558172
-9073.021902799606,-1688.0,1680.0,-15712.0,101.0,-368.0,1017.0,-0.3761345963731665,0.7106799373232913,-0.30113950817027735,0.5126127083055213
-9073.037526130676,-1288.0,80.0,-16844.0,427.0,-663.0,1863.0,-0.49557845453133104,0.6672307049126441,-0.37018560085556834,0.4149310819224261
-9073.053140878677,-780.0,820.0,-16332.0,-117.0,-759.0,1303.0,-0.5554585240078865,0.652200077376578,-0.4139838547284893,0.30776331035571286
-9073.068730354309,-444.0,-100.0,-16740.0,60.0,-872.0,3309.0,-0.6506286032094477,0.5301992712596784,-0.5351928329201633,0.09560222294653622
-9073.084306955338,-892.0,232.0,-16172.0,-35.0,-960.0,3331.0,-0.6904917274330875,0.3682876103576324,-0.60804968683711,-0.1336450101606042
-9073.099871635437,-796.0,844.0,-15616.0,930.0,-863.0,4029.0,-0.6745958916345234,0.08304418675446097,-0.6536122841646551,-0.3328889124395328
-9073.115463495255,-888.0,2436.0,-15756.0,256.0,-514.0,235.0,-0.6977219655976838,0.039581511463479074,-0.6318221625738955,-0.33528811126137
-9073.131074666977,-168.0,1796.0,-15864.0,62.0,-408.0,-1411.0,-0.755339827855894,0.10083092563735008,-0.5992726506119728,-0.24528994907709503
-9073.146688222885,-1992.0,308.0,-16372.0,-733.0,-452.0,-2689.0,-0.8058085282227053,0.27200272458962993,-0.5149929731979471,-0.10709515029222347
-9073.162282705307,-1048.0,220.0,-16784.0,-575.0,-351.0,-1212.0,-0.8131428904059409,0.36110846785090794,-0.4531071066564089,-0.05561712080015806
-9073.177864313126,-2396.0,-76.0,-17136.0,-1030.0,-631.0,242.0,-0.7996622276225291,0.4192973664412717,-0.4088248916234848,-0.1326357726943773
-9073.193449258804,-1832.0,596.0,-16700.0,-764.0,-680.0,1091.0,-0.7765630073514724,0.4224089007273958,-0.3893523901735863,-0.25869930897786664
-9073.209033727646,-1612.0,1672.0,-15832.0,-764.0,-147.0,-648.0,-0.7648551825475328,0.4911359955867674,-0.3371519820491253,-0.24517447781023521
-9073.224715709686,-776.0,1100.0,-16192.0,-626.0,-329.0,-620.0,-0.7582277385023695,0.5425015454821395,-0.27447079922835005,-0.23547515810807568
-9073.24029660225,-688.0,1184.0,-15732.0,-845.0,-187.0,-1837.0,-0.7485856638286476,0.6289888030974671,-0.1554791740846616,-0.14077931635787339
-9073.255920886993,-972.0,448.0,-15744.0,-1079.0,-542.0,-2384.0,-0.7068122213661503,0.7064359607981727,0.0233370806237243,-0.028637347757303918
-9073.271500110626,-352.0,520.0,-16308.0,-585.0,-698.0,-835.0,-0.6673011020072227,0.7350357239076072,0.11864263158943843,-0.018858679940508927
-9073.287079334259,-1484.0,1160.0,-16172.0,-574.0,-694.0,-526.0,-0.6213376429444543,0.7589421747815238,0.1929591574467167,-0.026703414680035217
-9073.30266237259,-1600.0,808.0,-16872.0,-733.0,-610.0,-740.0,-0.5608689345648808,0.7806702715177353,0.275259507248254,-0.014566024781293792
-9073.31825041771,-2272.0,724.0,-16400.0,-519.0,-443.0,-185.0,-0.5138469654266251,0.7997115870380093,0.309651649651328,-0.023206239402549945
-9073.333791732788,-1592.0,756.0,-16300.0,-692.0,-416.0,-95.0,-0.45307228933460175,0.8254021324976968,0.3355342758514745,-0.02921592090255115
-9073.349377155304,-1188.0,864.0,-15688.0,-546.0,-312.0,-462.0,-0.40454801877273283,0.8308699890851481,0.38169805196173046,-0.017394219537609643
-9073.364948511124,-1124.0,1064.0,-15648.0,-482.0,-499.0,-663.0,-0.35244259526117616,0.8222750200301006,0.44659840660383626,-0.01406668756243539
-9073.380550146103,-932.0,1592.0,-16128.0,-343.0,-295.0,-655.0,-0.3160632543800045,0.805086152011558,0.5019336496563271,-0.0017083362146843174
-9073.39612030983,-1504.0,1532.0,-16384.0,-681.0,-493.0,-1464.0,-0.24389053199591448,0.7516267717802926,0.6119255722999257,0.03349176482800355
-9073.411772966385,-1252.0,504.0,-16072.0,-548.0,-218.0,-704.0,-0.19331035732961807,0.7240658709032048,0.6590663611636957,0.06317635574108535
-9073.427375555038,-1580.0,692.0,-16324.0,-284.0,-286.0,305.0,-0.160135970129678,0.7472916226388369,0.6424647191807263,0.056131866283523374
-9073.442971229553,-1876.0,732.0,-16172.0,-433.0,-315.0,569.0,-0.11645142496008457,0.7849984044176006,0.6062560002534861,0.05167429576909402
-9073.45859503746,-1756.0,1540.0,-15696.0,-312.0,-241.0,-223.0,-0.08095051966402596,0.7768730577680285,0.6221109186743802,0.05378912851493848
-9073.474190711975,-1728.0,1008.0,-16384.0,-151.0,-252.0,-141.0,-0.05606062769780248,0.7711724297731618,0.6325027462804508,0.04572270254013863
-9073.489803791046,-1212.0,1984.0,-16244.0,39.0,-190.0,-249.0,-0.046871775780070464,0.7577154498600516,0.6501174276630217,0.03190084524613844
-9073.505385637283,-1360.0,1748.0,-16436.0,-503.0,-88.0,-1410.0,-0.004338160405801599,0.6742717182901281,0.7360455605278065,0.05979768478527162
-9073.52100276947,-1236.0,952.0,-16628.0,-300.0,-188.0,-590.0,0.02862342561574981,0.6363218949097922,0.7679007473616246,0.06784974403702032
-9073.536587715149,-1820.0,532.0,-16676.0,-110.0,-320.0,367.0,0.054034859938199425,0.6619058639818396,0.7453840706685345,0.057995244042237
-9073.552153348923,-1616.0,1356.0,-16180.0,-101.0,-293.0,173.0,0.07807340440295636,0.6738344541358462,0.7331692455804588,0.04810955496945648
