programtime,ax,ay,az,gx,gy,gz,q0,q1,q2,q3
-706.6511869430542,4420.0,12184.0,8964.0,26.0,-438.0,-1757.0,0.9877365995766124,0.0025475168997274172,-0.037865128150649595,-0.15144686224749354
-706.6589794158936,5308.0,12104.0,9316.0,28.0,-651.0,-1673.0,0.9518384875288944,0.002145271262783652,-0.09300426501148573,-0.2921456796866749
-706.6667828559875,5332.0,12028.0,9920.0,79.0,-973.0,-1775.0,0.8849158919330721,-0.0013993775664497233,-0.17300108828472996,-0.4324263282907518
-706.6745772361755,5632.0,11440.0,10196.0,186.0,-1098.0,-1479.0,0.8020860805113939,-0.005812117889662818,-0.2617807302928943,-0.5367448071316809
-706.6823761463165,5896.0,11228.0,10264.0,233.0,-1183.0,-1490.0,0.6956369132133359,-0.010478991681056172,-0.3515348339094052,-0.6264205745796165
-706.6901664733887,6112.0,11044.0,10508.0,352.0,-1238.0,-1554.0,0.5642403801173647,-0.008707975936027458,-0.44068280426919204,-0.6981086094738772
-706.6979660987854,6224.0,10936.0,10528.0,534.0,-999.0,-1629.0,0.42063188199716006,0.01935769196383583,-0.5158783766584185,-0.7460319028738887
-706.7057600021362,6348.0,10772.0,10628.0,729.0,-968.0,-1700.0,0.2609031957077617,0.058626262787312935,-0.5861788474278159,-0.7647789501609388
-706.7135443687439,6372.0,10896.0,10732.0,959.0,-815.0,-1800.0,0.09255769993646515,0.1159415934556499,-0.6476208446155841,-0.7473806665340184
-706.7213807106018,6352.0,11164.0,10304.0,1101.0,-594.0,-1808.0,-0.06875668766585293,0.18480093345535448,-0.6932133756817487,-0.6932361420693273
-706.7291791439056,6116.0,11336.0,10164.0,1121.0,-354.0,-1755.0,-0.21082575763092418,0.25838263443522996,-0.7184515835209375,-0.6104246360345514
-706.7369613647461,5904.0,11636.0,9876.0,1148.0,-161.0,-1733.0,-0.33362099006255247,0.3318142600890653,-0.7256308733013369,-0.5020519569757373
-706.7447593212128,5972.0,12036.0,9604.0,1025.0,-81.0,-1684.0,-0.43579301931554865,0.39912490633734965,-0.7089762506735962,-0.3848849561074709
-706.7525751590729,5832.0,12036.0,9440.0,844.0,-168.0,-1546.0,-0.5213467404214063,0.4516326090619639,-0.66915154129522,-0.27651722815421403
-706.7603828907013,5568.0,12308.0,9428.0,684.0,-173.0,-1353.0,-0.585912860731733,0.4909668649740363,-0.6189901399282352,-0.1803021458506451
-706.7681872844696,5500.0,12096.0,9368.0,468.0,-169.0,-1234.0,-0.6303140058824978,0.5274519681205416,-0.5610590980159121,-0.09854625232699896
-706.7759671211243,5440.0,12008.0,9340.0,279.0,-288.0,-1093.0,-0.6632891665208078,0.5602224653212466,-0.49473763598975723,-0.03785422645865031
-706.7837858200073,5564.0,11804.0,9432.0,121.0,-276.0,-901.0,-0.6818090398281623,0.5891482773557779,-0.4335952134595645,0.005994277460499663
-706.7915823459625,5516.0,11588.0,9432.0,130.0,-849.0,-743.0,-0.7167763219826798,0.6069556489608245,-0.34308379701183095,0.011404063638485914
-706.799399137497,5524.0,11428.0,9496.0,207.0,-1092.0,-561.0,-0.7554963866894115,0.6082531163508126,-0.24336616153037538,-0.005125189824692233
-706.8072562217712,5576.0,11380.0,9548.0,351.0,-1233.0,-485.0,-0.7949359951680922,0.5905699088717621,-0.13545319979441608,-0.03092534537830647
-706.8150811195374,5608.0,11208.0,9636.0,432.0,-1335.0,-416.0,-0.8274578638727847,0.5572797505897331,-0.022311656391640084,-0.0652300014318134
-706.8228757381439,5512.0,11360.0,9872.0,473.0,-1373.0,-340.0,-0.8479950516319926,0.5115160579136128,0.08998834645765409,-0.10563054674661575
-706.8306794166565,5520.0,11432.0,10476.0,494.0,-1229.0,-211.0,-0.856573000329136,0.45867327661175344,0.1845988966097806,-0.14773208114634867
-706.8385126590729,5704.0,11568.0,10308.0,257.0,-950.0,-174.0,-0.8506536824526282,0.4226259060677894,0.2583231250140664,-0.17619540043125437
-706.8463201522827,5872.0,11672.0,10404.0,468.0,-793.0,-100.0,-0.8488913194910885,0.37203079503568276,0.31268496682016406,-0.2078574674205125
-706.8541190624237,6072.0,11816.0,10368.0,388.0,-566.0,-117.0,-0.8466924531406361,0.3290210203700883,0.3507330825207631,-0.2276913761537784
-706.8620226383209,5972.0,12084.0,10512.0,399.0,-306.0,-25.0,-0.8485513616388283,0.2922076420540797,0.3657647094496743,-0.2465592381300701
-706.8702685832977,5988.0,12260.0,10388.0,418.0,44.0,-71.0,-0.8616381687997486,0.259543481832558,0.3550468549715609,-0.2532954359645118
-706.8781974315643,5996.0,12320.0,10184.0,356.0,357.0,-90.0,-0.8819623990109471,0.2374161610479793,0.3220115405665002,-0.24916753589921029
-706.886036157608,6112.0,12424.0,10036.0,293.0,598.0,-23.0,-0.9038979406651222,0.22659780834832022,0.2695976168099551,-0.2427737035254884
-706.8938801288605,5932.0,12288.0,10044.0,261.0,727.0,42.0,-0.9232543015762406,0.22163781709509428,0.20539216691634435,-0.23725983735916653
-706.9016697406769,5936.0,12784.0,10076.0,156.0,847.0,68.0,-0.9374629386536449,0.2269095070345729,0.132212162101534,-0.22846281636327007
-706.909476518631,6220.0,12588.0,10068.0,85.0,848.0,145.0,-0.9434341026110659,0.23758226287909684,0.05811585253085892,-0.22385108907555504
-706.9172742366791,6280.0,12552.0,10140.0,1.0,687.0,199.0,-0.9412954492864662,0.2511657711168143,-0.002554891078463675,-0.22554845400370788
-706.9250600337982,6116.0,12700.0,9996.0,250.0,528.0,342.0,-0.9383602109467647,0.24025477733021222,-0.05820293594911385,-0.24159920266601995
-706.9328544139862,6084.0,12832.0,9964.0,-62.0,354.0,372.0,-0.9265457026550935,0.2503836621994393,-0.09353993414820239,-0.26470996073915737
-706.9406416416168,6008.0,13076.0,9908.0,-53.0,224.0,365.0,-0.914546662947962,0.25642110838040544,-0.11827344712710981,-0.2895928317006166
-706.9485051631927,6068.0,13060.0,9772.0,-63.0,207.0,301.0,-0.9029869770852348,0.26318012950925906,-0.13982116088007657,-0.3095170134517762
-706.9563057422638,6104.0,13060.0,9856.0,-156.0,285.0,181.0,-0.8906355534272147,0.28056726895871253,-0.16209762470960656,-0.31902143912902137
-706.9641375541687,6144.0,12916.0,9964.0,-291.0,311.0,107.0,-0.8755590040845785,0.30986912340287265,-0.18061668075978923,-0.3236590356521391
-706.9719700813293,6168.0,12612.0,9692.0,-361.0,370.0,29.0,-0.8583422668438208,0.3468788501434896,-0.19923747546840928,-0.3212912146970671
-706.979807138443,6252.0,12780.0,9748.0,-370.0,499.0,252.0,-0.8300509280736617,0.3833561644593926,-0.23344550101986997,-0.33099351357484047
-706.9876215457916,6284.0,12100.0,9608.0,-420.0,582.0,-109.0,-0.8057471552375688,0.4317825126542385,-0.25928343203966525,-0.31162073978201404
-706.9954221248627,6288.0,11844.0,9376.0,-459.0,517.0,-99.0,-0.7780689340057628,0.4793332122955072,-0.2788882013625238,-0.29507588289520187
-707.0032305717468,6308.0,11932.0,9488.0,-448.0,408.0,-107.0,-0.7511341335145861,0.5219997902186344,-0.29014705103944743,-0.2812977448436192
-707.0110247135162,6248.0,11880.0,9372.0,-405.0,259.0,-100.0,-0.727970294834251,0.5568325569779033,-0.29234715148035145,-0.27300164166119617
-707.0188245773315,6184.0,11764.0,9356.0,-368.0,202.0,-102.0,-0.7069148285584791,0.5871272853726603,-0.291240146621492,-0.2659551709047192
-707.0265967845917,6208.0,11632.0,9240.0,-332.0,32.0,-116.0,-0.6915040813723443,0.6109375539323474,-0.2794227451836655,-0.26551900141905954
-707.0343968868256,6208.0,11740.0,9408.0,-319.0,-140.0,-170.0,-0.681507544220391,0.6306617146723745,-0.25436169164813954,-0.2703948938850154
-707.0421812534332,6204.0,11752.0,9428.0,-312.0,-296.0,-314.0,-0.6776329491839631,0.6484394723057509,-0.21186926483825674,-0.2746839120752802
-707.0500252246857,6180.0,11708.0,9308.0,-219.0,-346.0,-359.0,-0.6795262698372121,0.6589265616178999,-0.16563976979401487,-0.27680914301757137
-707.0578515529633,6124.0,11544.0,9312.0,-155.0,-290.0,-448.0,-0.6848762862179295,0.6667405171577909,-0.11877887272094734,-0.2688738268252219
-707.0656793117523,6232.0,11388.0,9152.0,-178.0,-129.0,-551.0,-0.6879206572908678,0.6790923582820729,-0.0747114989104043,-0.24498353031572082
-707.0734791755676,6164.0,11196.0,9384.0,-248.0,241.0,-558.0,-0.682521071640938,0.7015644384383203,-0.05070716974228967,-0.19849712446671958
-707.0812785625458,6032.0,11024.0,9412.0,-318.0,71.0,-647.0,-0.6726582712943997,0.7231046089628457,-0.009768445863018477,-0.1567008360582062
-707.089067697525,5900.0,10932.0,9632.0,-321.0,136.0,-597.0,-0.6593046488576805,0.7429201306280131,0.024295492033480155,-0.11312289144624098
-707.096869468689,5752.0,10892.0,9588.0,-237.0,222.0,-614.0,-0.6493299527509289,0.7560155627314903,0.05360161548826069,-0.06275307311449324
-707.1046562194824,5736.0,10860.0,9644.0,-508.0,381.0,-592.0,-0.6191057752709775,0.7818425286401939,0.07367226629251007,-0.0016421373131266935
-707.1124999523163,5884.0,10944.0,9716.0,-235.0,442.0,-569.0,-0.6047106901828434,0.789183574598087,0.08848875868481053,0.06069601592852748
-707.120302438736,5576.0,11124.0,9876.0,-220.0,559.0,-529.0,-0.5896678009497672,0.7917794643610239,0.09406092947790218,0.12856790379013394
-707.128091096878,5616.0,11284.0,9924.0,-265.0,818.0,-466.0,-0.5707903372431723,0.789500206883441,0.08093209426991714,0.2105654538567864
-707.1358890533447,5612.0,11396.0,9736.0,-504.0,972.0,-452.0,-0.5317977766866349,0.789300642520171,0.054143286830497676,0.3020995281684293
-707.143678188324,5600.0,11496.0,9728.0,-307.0,1101.0,-366.0,-0.5034466190469551,0.7685340938066061,0.020095324283106324,0.39432604069349175
-707.1514608860016,5732.0,11676.0,10068.0,-258.0,1242.0,-337.0,-0.4736122002317697,0.7316869632240935,-0.02056289769067243,0.4897987738633988
-707.1592965126038,5648.0,11676.0,10120.0,-239.0,1332.0,-240.0,-0.44250447337224197,0.6801065283233256,-0.06994186489177646,0.5803042621875257
-707.167150259018,5380.0,11548.0,10000.0,-221.0,1327.0,-175.0,-0.4095290609315641,0.6181011327623926,-0.12106171690315452,0.6599856048663629
-707.174943447113,5632.0,11460.0,9748.0,-244.0,1529.0,-149.0,-0.36820502634450963,0.5353263425864071,-0.1799612622319925,0.7385558270053575
-707.182737827301,5648.0,11328.0,9876.0,-186.0,1154.0,-121.0,-0.3317994423215362,0.4662940218925912,-0.22206622831219147,0.7894083895332927
-707.1905369758606,5428.0,11248.0,9732.0,-104.0,876.0,-77.0,-0.3043259760535023,0.4091583525410206,-0.2505426580237229,0.8229237627845053
-707.1983351707458,5144.0,11116.0,9572.0,-28.0,702.0,-119.0,-0.27884112666674954,0.3613320510469923,-0.26624201313136653,0.8490005685564345
-707.2061367034912,5500.0,11164.0,9552.0,-28.0,593.0,-77.0,-0.25807115010361625,0.31938762287414785,-0.27972863296409206,0.8678379570743826
-707.2139368057251,5516.0,11200.0,9528.0,28.0,499.0,-159.0,-0.234331772793284,0.2845179041145382,-0.2838966446201916,0.8851784439711711
-707.2217240333557,5628.0,11364.0,9556.0,-10.0,489.0,-255.0,-0.20198330433724013,0.2529537880891473,-0.28777377008788607,0.901334223864691
-707.229523897171,5708.0,11768.0,9696.0,-15.0,528.0,-279.0,-0.1661669992363001,0.2183890690930325,-0.29146802742760114,0.9163739039567558
-707.2373199462891,5872.0,11616.0,9908.0,-97.0,621.0,-351.0,-0.12016019129775285,0.17871630928220564,-0.3007043548367382,0.9290849800777404
-707.2451260089874,6088.0,11868.0,10112.0,-164.0,713.0,-300.0,-0.07433549635231852,0.1302139436995287,-0.31580398252529734,0.9369025602854505
-707.2529139518738,5948.0,12016.0,10104.0,-209.0,852.0,-273.0,-0.026022296111722486,0.069249785352829,-0.3340061970236779,0.9396633267737126
-707.2607033252716,5904.0,12220.0,10152.0,-286.0,955.0,-162.0,0.01680924067064914,-0.003622284914969669,-0.35703806893429163,0.9339315530657175
-707.2685816287994,6260.0,12200.0,10332.0,-325.0,1075.0,-2.0,0.05016549619533548,-0.09114581702446256,-0.37992478163992,0.9191479877181247
-707.2763979434967,6304.0,12204.0,10388.0,-333.0,1077.0,109.0,0.07415237683164459,-0.1816478886643421,-0.398932083783071,0.8957447527518658
-707.2841935157776,6344.0,11984.0,10420.0,-307.0,1072.0,1.0,0.10605383349303038,-0.2661391343851763,-0.4138740081481634,0.8640780352083459
-707.2919764518738,6320.0,11880.0,10484.0,-279.0,1011.0,321.0,0.11139070453137681,-0.3548675565134048,-0.41607564814674214,0.8297844197726766
-707.2998023033142,6216.0,11820.0,10352.0,-279.0,988.0,399.0,0.10923315398337967,-0.44152950587477113,-0.41231678722343623,0.7893761337198937
-707.3076202869415,6240.0,11796.0,10328.0,-267.0,936.0,406.0,0.10421097834635897,-0.5209260976805081,-0.4043520904006352,0.7444967828916985
-707.3154165744781,6392.0,11552.0,10228.0,-307.0,895.0,425.0,0.09382748922134426,-0.5944113993171966,-0.39515683496367354,0.6940623649281691
-707.3232138156891,6072.0,11744.0,10224.0,-339.0,865.0,385.0,0.08241293035930784,-0.6603087495004586,-0.38709368062310007,0.6382467756788073
-707.3388020992279,5692.0,11760.0,10020.0,-462.0,823.0,270.0,0.06827207759360347,-0.7159699487409553,-0.3898790744608163,0.5750828316151545
-707.3465955257416,5580.0,11816.0,9772.0,-556.0,783.0,259.0,0.046958640430912725,-0.76452457485927,-0.3954161741726206,0.5068955609667741
-707.3543887138367,5504.0,11688.0,9800.0,-542.0,717.0,171.0,0.02784192411031189,-0.8018239221168201,-0.4037362316934931,0.43965927762413204
-707.3622045516968,5512.0,11804.0,9792.0,-613.0,686.0,201.0,0.001350993143591206,-0.8339197233494708,-0.4101229413686396,0.369290187778397
-707.3700423240662,5580.0,11592.0,9880.0,-607.0,600.0,223.0,-0.028506271419197766,-0.8587826212839182,-0.4121496466315999,0.3030057270942987
-707.3778579235077,5644.0,12028.0,9980.0,-627.0,549.0,152.0,-0.059668437220653035,-0.8748319892239965,-0.41755018577555253,0.238244644407449
-707.3856472969055,5720.0,11812.0,10160.0,-650.0,522.0,162.0,-0.09344908406946754,-0.8857828888869692,-0.42024855776744413,0.17334097073691448
-707.3934361934662,5800.0,11788.0,10484.0,-609.0,484.0,140.0,-0.12466482187340201,-0.8911589813630505,-0.4215703108440207,0.11212860981087147
-707.4012672901154,5812.0,11808.0,10180.0,-525.0,425.0,91.0,-0.15055431861319765,-0.8913777796872535,-0.4234910397735591,0.05860367103047027
-707.4090564250946,5880.0,11860.0,10228.0,-419.0,347.0,24.0,-0.1703269154681192,-0.8875271312456312,-0.4278283737432071,0.015723097349412487
-707.4168500900269,5780.0,11900.0,10188.0,-340.0,313.0,15.0,-0.18491863075300022,-0.8827351450553763,-0.4314183566587659,-0.02149337624360838
-707.4246580600739,5776.0,11928.0,10160.0,-196.0,297.0,-45.0,-0.18889982046875686,-0.8768791722134274,-0.43907950784496874,-0.05107798895596465
-707.43248462677,5784.0,11912.0,10016.0,-187.0,6.0,-85.0,-0.20340151632484088,-0.8703584851500118,-0.4447616375141682,-0.05736737992838868
-707.4402856826782,5672.0,11988.0,9760.0,-147.0,273.0,-96.0,-0.20444299637910804,-0.8622940112603115,-0.4559635665287674,-0.08215427788314004
-707.448073387146,5712.0,11972.0,9960.0,-137.0,283.0,-82.0,-0.20406909788730074,-0.8541961084574256,-0.4659963286204711,-0.10748131603164979
-707.4558727741241,5668.0,11900.0,9884.0,-154.0,233.0,-44.0,-0.20649508803781683,-0.8472004223195639,-0.4718185576785406,-0.1303781870864465
-707.4636945724487,5584.0,11756.0,9820.0,-186.0,177.0,-11.0,-0.21310280089559827,-0.841147515192896,-0.4735650428850781,-0.15097749531808333
-707.4715058803558,5564.0,11732.0,9844.0,-247.0,144.0,-24.0,-0.2256025758895179,-0.8333774080463803,-0.47457899614771165,-0.17134862101966816
-707.4793331623077,5500.0,11732.0,9968.0,-510.0,73.0,-115.0,-0.2611938148675012,-0.8165823238423588,-0.4762231299478079,-0.19540376139135
-707.4871697425842,5512.0,11584.0,9728.0,-258.0,60.0,-229.0,-0.28093877590133837,-0.7997519774121079,-0.48925484345554443,-0.20518254549491147
-707.4949612617493,5532.0,11608.0,9988.0,-357.0,12.0,-299.0,-0.31052094878621234,-0.7773370626107102,-0.5035779157647032,-0.2138530201113381
-707.502760887146,5616.0,11624.0,10136.0,-355.0,-48.0,-347.0,-0.3429450681618118,-0.7526107134004633,-0.5186636948113773,-0.2166881768416236
-707.5105512142181,5392.0,11540.0,10252.0,-327.0,-74.0,-437.0,-0.37568386558785777,-0.7235672625502517,-0.5383044056742627,-0.21340200686539573
-707.5183453559875,5760.0,11500.0,10288.0,-281.0,-87.0,-449.0,-0.4055105384755106,-0.6940840785476009,-0.5579103705708732,-0.2062632141257867
-707.5261306762695,5712.0,11460.0,10364.0,-268.0,-105.0,-413.0,-0.43394928452339643,-0.6657069736156794,-0.5737772549409658,-0.1982470818284483
-707.5339322090149,5732.0,11436.0,10240.0,-202.0,-130.0,-402.0,-0.45884189730971014,-0.6396159475731371,-0.5881604864994386,-0.1855338109458416
-707.5417261123657,5876.0,11388.0,10144.0,-196.0,-154.0,-424.0,-0.4841807828860636,-0.6119128647463866,-0.6018659876377215,-0.16996749208769002
-707.5494999885559,5856.0,11508.0,9992.0,-184.0,-204.0,-356.0,-0.5096838116024122,-0.5879980788632341,-0.608984683544575,-0.15368255155253188
-707.5572972297668,5772.0,11660.0,10152.0,-232.0,-208.0,-354.0,-0.5370116250479655,-0.5611684761950015,-0.614187168324661,-0.1395800062819087
-707.5651063919067,5832.0,11640.0,10148.0,-269.0,-6.0,-356.0,-0.554495996894999,-0.5291455459657254,-0.627505587630716,-0.13702524622961051
-707.5728962421417,5804.0,11748.0,10200.0,-280.0,-305.0,-261.0,-0.5867888012488445,-0.5044907223983697,-0.6207925564367915,-0.1256368402005894
-707.5806937217712,5748.0,11892.0,10224.0,-278.0,-321.0,-320.0,-0.619336890575505,-0.4759302979187257,-0.6146343529560478,-0.11016705343049897
-707.58851313591,5768.0,11892.0,10080.0,-298.0,-377.0,-314.0,-0.6542109402919808,-0.4460578182861987,-0.6035693294666868,-0.09351220709176412
-707.5963020324707,5668.0,12048.0,10200.0,-308.0,-388.0,-320.0,-0.6884161031355044,-0.4142541726650117,-0.5904612893869283,-0.07636894073430213
-707.6040954589844,5640.0,11888.0,10160.0,-274.0,-438.0,-317.0,-0.7220736242694535,-0.38386741584013934,-0.5728524566789338,-0.05563767669034951
-707.6118829250336,5928.0,11920.0,10124.0,-243.0,-407.0,-384.0,-0.7514406533965453,-0.350874021768087,-0.5579635932170113,-0.030016560689434264
-707.6196675300598,6000.0,12004.0,10036.0,-238.0,-395.0,-349.0,-0.7779657672727829,-0.3189498378371984,-0.5412902266374587,-0.0067198543186270075
-707.6274635791779,6112.0,11692.0,9972.0,-141.0,-347.0,-379.0,-0.7977232625231385,-0.29142069531817727,-0.5274775526129395,0.02188621162223836
-707.6352977752686,6080.0,11532.0,9956.0,-106.0,-380.0,-352.0,-0.8164535400077538,-0.26689361177383863,-0.5094778114906546,0.05102721432545063
-707.6431035995483,6212.0,11508.0,9836.0,-108.0,-316.0,-358.0,-0.8307515557280398,-0.24172690626996385,-0.4951665031731744,0.07893091647665293
-707.6509156227112,6228.0,11400.0,9876.0,-13.0,-330.0,-358.0,-0.8421459895752972,-0.22291969138692416,-0.47828174605070806,0.11110137185871216
-707.6587116718292,6356.0,11388.0,9832.0,-42.0,-294.0,-345.0,-0.8513063199377158,-0.20250652194907898,-0.46325265548095695,0.14023421619573617
-707.6665649414062,6356.0,11404.0,9784.0,-46.0,-318.0,-258.0,-0.86135012019958,-0.1847366296413536,-0.44428033022919533,0.16298262567635635
-707.674352645874,6152.0,11508.0,9808.0,-91.0,-275.0,-253.0,-0.869481444423638,-0.16417857844059985,-0.4285514817210418,0.18273215288751937
-707.6821579933167,6336.0,11344.0,9952.0,-133.0,-253.0,-231.0,-0.8768055530127816,-0.14143705726965838,-0.41437687848966837,0.19874451844015184
-707.6899642944336,6380.0,11228.0,9816.0,-182.0,-242.0,-170.0,-0.8845395235766007,-0.1172142030172531,-0.40073138130765223,0.20800245642100312
-707.6977670192719,6364.0,11308.0,9820.0,-207.0,-246.0,-169.0,-0.8918345188856118,-0.09092365626985174,-0.386831454193518,0.21616083294880067
-707.705560207367,6156.0,11348.0,9956.0,-234.0,-246.0,-132.0,-0.8991409849049191,-0.06370072860774856,-0.3727535149847102,0.2203236789489448
-707.7134006023407,6320.0,11008.0,9988.0,-202.0,-257.0,-151.0,-0.9053621459754102,-0.0380995234877867,-0.35692599115376866,0.2268736383622027
-707.7212312221527,6276.0,11380.0,10160.0,-177.0,-6.0,-94.0,-0.9042266074162486,-0.021198452403056484,-0.360008898683153,0.22873229095420738
-707.7290318012238,6316.0,11344.0,10140.0,-168.0,-196.0,-71.0,-0.9091172982737465,-0.0019315509878416518,-0.34772771874255703,0.22931951663197364
-707.7368249893188,6136.0,11408.0,10204.0,-21.0,-58.0,-23.0,-0.9104910162224185,0.0014488460390961067,-0.3433416993314184,0.23047882272268894
-707.7446308135986,6084.0,11468.0,10252.0,74.0,82.0,21.0,-0.9085068149121804,-0.006857877031420385,-0.34815299132274324,0.2309931414864368
-707.7524607181549,6228.0,11452.0,10380.0,190.0,255.0,37.0,-0.9011250025762101,-0.02832171561824789,-0.364175412410085,0.23355487396414829
-707.7602474689484,6224.0,11684.0,10420.0,252.0,366.0,121.0,-0.8907038560313967,-0.059538352118805114,-0.38701245685265956,0.23091813206988893
-707.7680313587189,6104.0,11624.0,10436.0,315.0,500.0,218.0,-0.8753399057813792,-0.1014429093928419,-0.41757418191185947,0.22163300314078524
-707.7758450508118,6028.0,11752.0,10396.0,379.0,653.0,4.0,-0.8465214766665263,-0.14298329487967648,-0.4589147079106356,0.22881096518954525
-707.783634185791,5940.0,11812.0,10400.0,362.0,756.0,328.0,-0.8158557231651454,-0.1974580761886622,-0.5017304565181462,0.20894089147087205
-707.7914299964905,5852.0,11776.0,10416.0,386.0,889.0,361.0,-0.7738063214771699,-0.25601062005001995,-0.5493858691456334,0.18400409247261948
-707.7992205619812,5872.0,11720.0,10344.0,352.0,910.0,448.0,-0.7264108644382569,-0.3145732470470556,-0.5924536141003691,0.14956484683155813
-707.8070721626282,5512.0,11752.0,10308.0,321.0,981.0,256.0,-0.6674322531474929,-0.35948207210513944,-0.6405671417110186,0.12239511531769776
-707.8148987293243,5388.0,11608.0,10288.0,231.0,1010.0,476.0,-0.6058891723790907,-0.40837137400659157,-0.67855751013224,0.07543763734956116
-707.8226988315582,5212.0,11548.0,10364.0,222.0,1056.0,523.0,-0.5360227737393015,-0.45558839776254245,-0.7103423597119112,0.02307660841411656
-707.8305304050446,5132.0,11428.0,10488.0,193.0,976.0,578.0,-0.4667171302128993,-0.49993291608343177,-0.7289012091129689,-0.030744546440044
-707.8383450508118,5016.0,11320.0,10536.0,256.0,912.0,627.0,-0.39396762579115163,-0.5451508744697764,-0.7357174047277611,-0.07949801427689272
-707.8461470603943,5048.0,11288.0,10776.0,405.0,898.0,647.0,-0.31095074834019615,-0.5912863549852603,-0.7346973917502061,-0.11793990448682296
-707.8539476394653,5096.0,11240.0,10800.0,259.0,773.0,681.0,-0.24001842683180402,-0.6313253645815284,-0.7200691495958135,-0.15912214999034024
-707.8617486953735,5248.0,11532.0,10856.0,697.0,725.0,706.0,-0.14544238881658286,-0.6763518843688613,-0.7019768332971383,-0.16918382180379424
-707.8695933818817,5260.0,11640.0,11020.0,774.0,750.0,518.0,-0.04592856529297655,-0.7030165445140925,-0.688587053151163,-0.17177361631575278
-707.8774127960205,5384.0,11848.0,10984.0,882.0,789.0,772.0,0.06666230325557007,-0.7355415936313898,-0.6526444747154606,-0.16908545468560643
-707.8852455615997,5444.0,11860.0,11000.0,924.0,858.0,787.0,0.18491501454395456,-0.7559854323972132,-0.605681369304148,-0.1656579073792136
-707.8930580615997,5428.0,12060.0,10992.0,938.0,946.0,746.0,0.30491161912421516,-0.7598668339883127,-0.5498903687554965,-0.16508143892507107
-707.9008507728577,5276.0,12088.0,10980.0,950.0,1057.0,759.0,0.42541432977283494,-0.7483880850136039,-0.4803875439466175,-0.16782648734492756
-707.9086558818817,5188.0,12296.0,10584.0,931.0,1169.0,812.0,0.5412310659812178,-0.722776391711382,-0.393278552061883,-0.17319122751923177
-707.9164817333221,4984.0,12332.0,10492.0,830.0,1265.0,783.0,0.6418290069857737,-0.6837420982406965,-0.2934598790608969,-0.1855628418262373
-707.9242906570435,4740.0,12336.0,10308.0,700.0,1350.0,832.0,0.7234686086509319,-0.6366448819124173,-0.17751984501230308,-0.19940704916882224
-707.93208360672,4596.0,12284.0,10272.0,562.0,1444.0,917.0,0.7834700364325738,-0.5829734403213978,-0.04464771248695745,-0.2105308805421594
-707.9398868083954,4464.0,12484.0,10140.0,419.0,1444.0,975.0,0.8184469402369098,-0.5250821883981446,0.09480995532346684,-0.21317686041270453
-707.9476788043976,4180.0,12144.0,10436.0,240.0,1432.0,1009.0,0.8266600785499424,-0.46728261072434296,0.2360339379144424,-0.20632027626737595
-707.9554812908173,4068.0,12080.0,10140.0,96.0,1395.0,1002.0,0.8108739339910114,-0.4098738768468836,0.37160171869681574,-0.19078530057113705
-707.9633228778839,4064.0,11928.0,9992.0,-12.0,1368.0,1014.0,0.7745348151104954,-0.35108713961721183,0.49935900583720644,-0.16575350333079591
-707.9711670875549,4080.0,11784.0,10248.0,-186.0,1522.0,1039.0,0.7084100750706136,-0.2924653946918961,0.628579843332287,-0.13231227835132417
-707.9789752960205,3876.0,11696.0,10368.0,-304.0,1194.0,1009.0,0.640700130261613,-0.2397344150999388,0.7246791986503346,-0.0828903633901519
-707.9867718219757,4176.0,11544.0,10660.0,-295.0,1100.0,974.0,0.567216897775565,-0.1850266117199852,0.8018584354123627,-0.032452941181400775
-707.9945621490479,4204.0,11420.0,10944.0,-262.0,1025.0,939.0,0.4902233828292276,-0.12834670721618285,0.861951124714529,0.01576122703314865
-708.002358675003,4244.0,11388.0,10912.0,-205.0,933.0,883.0,0.4138857417513697,-0.07146430988445161,0.9056505012698522,0.05821180926000311
-708.0101613998413,4372.0,11424.0,10956.0,-107.0,890.0,830.0,0.33675430611441914,-0.014120909953778576,0.9371107917861238,0.09066697928935998
-708.0179469585419,4436.0,11528.0,10808.0,32.0,804.0,756.0,0.263832208517149,0.0421332187669604,0.9574795141593381,0.10885925587885072
-708.0257461071014,4436.0,11580.0,11084.0,158.0,760.0,748.0,0.19178229384749265,0.1006466001779718,0.9694364297110587,0.11525112749246669
-708.0335562229156,4508.0,11664.0,10672.0,246.0,735.0,686.0,0.12003266086892966,0.1548090558029421,0.9742077074597308,0.11200740730943526
-708.0413863658905,4552.0,11696.0,10728.0,302.0,766.0,703.0,0.043737926383196964,0.20934530422985573,0.9713466342749663,0.10366896100232763
-708.0492250919342,4604.0,11728.0,10644.0,283.0,705.0,672.0,-0.027195272676720752,0.2600121972790282,0.9605516789191095,0.09483958316995275
-708.0570206642151,4420.0,11708.0,10604.0,233.0,715.0,596.0,-0.09704198178200978,0.3024516818253743,0.9439415787231451,0.08988954272038065
-708.0648193359375,4120.0,11672.0,10376.0,151.0,734.0,616.0,-0.16576449368768634,0.34492702522089536,0.9193471064916829,0.09136945709644483
-708.0726170539856,4212.0,11536.0,10344.0,143.0,731.0,606.0,-0.23277101315212753,0.3842964697269914,0.8885403097907293,0.09289777536894214
-708.0804660320282,4028.0,11476.0,10408.0,165.0,691.0,585.0,-0.2957161116292101,0.4193408728304906,0.8534575970010623,0.09118850704905432
-708.0882680416107,4056.0,11376.0,10300.0,265.0,707.0,574.0,-0.36144789521557863,0.4480730808067258,0.8135170705437507,0.08231591118679064
-708.0960624217987,3712.0,11372.0,10240.0,282.0,683.0,580.0,-0.4237564784872319,0.4738291821169547,0.768725167651096,0.07055472864572766
-708.1038603782654,3788.0,11452.0,9984.0,357.0,674.0,634.0,-0.4858734340086992,0.49711279635897104,0.7170864437209237,0.05092058574326015
-708.1116514205933,3840.0,11500.0,10280.0,394.0,610.0,671.0,-0.5421643429615852,0.5177169848332173,0.6613912185156623,0.024261181063634125
-708.1194379329681,3960.0,11552.0,10380.0,431.0,547.0,746.0,-0.5925068127507642,0.5370456764221505,0.6003288354208044,-0.01108637192712099
-708.127236366272,3848.0,11644.0,10364.0,421.0,424.0,866.0,-0.6310260357236768,0.5586486550679393,0.5351474702675822,-0.0577495237716358
-708.1350312232971,4228.0,11548.0,10420.0,364.0,327.0,1003.0,-0.6559562707379079,0.5842669517838524,0.46419873607467116,-0.1134593907946805
-708.1428198814392,4124.0,11756.0,10748.0,362.0,282.0,1087.0,-0.6715974738430032,0.6070972664479685,0.38698647359434185,-0.1750177461119781
-708.1506135463715,4388.0,11788.0,10524.0,273.0,233.0,1165.0,-0.6724141428866653,0.630377666650165,0.3056972697220214,-0.23881456638820484
-708.1584112644196,4432.0,11764.0,10736.0,182.0,211.0,1195.0,-0.659448304069337,0.6521812495133652,0.2224894262923534,-0.30047630061514063
-708.1662328243256,4384.0,11736.0,10264.0,125.0,511.0,1175.0,-0.6416969038586097,0.6768807850753837,0.12212855810824738,-0.3393259519524067
-708.1740379333496,4120.0,11652.0,10244.0,1.0,261.0,1210.0,-0.6052319315636885,0.6933537979645168,0.0357648407979091,-0.38945564064032595
-708.1818795204163,3908.0,11628.0,10308.0,-64.0,382.0,1159.0,-0.5600162775731544,0.7092518636977593,-0.05211312836683683,-0.4250032759240618
-708.1896822452545,3748.0,11604.0,10204.0,-166.0,441.0,1155.0,-0.501944419354125,0.7241309978671445,-0.13823038701453472,-0.45230350199063885
-708.1974902153015,3660.0,11420.0,10192.0,-303.0,480.0,1084.0,-0.43175641973673107,0.7390155142299012,-0.21462805718682526,-0.47050745032554303
-708.2052879333496,3756.0,11256.0,10176.0,-401.0,486.0,1046.0,-0.3518227610446175,0.7501863716575694,-0.2823835909328403,-0.4834259614067777
-708.213098526001,3772.0,11184.0,10144.0,-405.0,402.0,1017.0,-0.2710505336137798,0.750585805402548,-0.34249766305776874,-0.4958305232192352
-708.2208969593048,3780.0,11016.0,10304.0,-305.0,301.0,1273.0,-0.1856582705818392,0.7277272336458991,-0.41699613379558226,-0.5119163060249055
-708.2286972999573,3804.0,10924.0,10332.0,-169.0,71.0,1113.0,-0.12195764469937498,0.6897247965373309,-0.4790030389837236,-0.5291144739895854
-708.2365293502808,3936.0,10940.0,10448.0,-255.0,-150.0,1095.0,-0.06193291742204889,0.6365396562910314,-0.5289820804368124,-0.5578167604914996
-708.2443380355835,4012.0,10936.0,10576.0,0.0,-393.0,1108.0,-0.025917311317870402,0.5631979447583845,-0.5853518929688186,-0.5826658814379002
-708.2521300315857,4216.0,11160.0,10620.0,481.0,-519.0,1077.0,-0.02109087909067122,0.47757690512097306,-0.6574351646898436,-0.5824555594579677
-708.2599682807922,4468.0,11312.0,10700.0,707.0,-567.0,1087.0,-0.027547674471194314,0.3820702088385934,-0.7320639845686551,-0.5633345397245996
-708.2677958011627,4676.0,11460.0,10668.0,895.0,-534.0,998.0,-0.042039327607219165,0.2875313998315322,-0.8017046354914686,-0.5223294616204833
-708.2756099700928,4848.0,11688.0,10648.0,1052.0,-309.0,937.0,-0.04691137506325986,0.20234791761117046,-0.8651833036909737,-0.4564126358269121
-708.2833924293518,5088.0,11884.0,10572.0,1175.0,-122.0,897.0,-0.040748194818905306,0.12385232922386441,-0.9196265430024152,-0.3705228826540282
-708.291202545166,4824.0,11892.0,10356.0,1245.0,72.0,913.0,-0.018686618011905375,0.04799793062621962,-0.9612824610169532,-0.27070840235217586
-708.2990140914917,4748.0,11848.0,10304.0,1269.0,334.0,905.0,0.025201783173709233,-0.02192338168462519,-0.9860875499950688,-0.16283605007828741
-708.3068084716797,4620.0,11812.0,10000.0,1142.0,572.0,954.0,0.08935639785375248,-0.0925115616726312,-0.9896897342932774,-0.06301805260395599
-708.3145961761475,4532.0,11668.0,10404.0,948.0,671.0,1117.0,0.1595888238504959,-0.17618812523387065,-0.9710872352914627,0.021879974464627843
-708.3223774433136,4564.0,11544.0,10148.0,907.0,654.0,1218.0,0.22436298528581747,-0.26529110689594426,-0.9318569114878856,0.10452069626547436
-708.3301718235016,4648.0,11352.0,10148.0,877.0,598.0,1379.0,0.27759045985876585,-0.36158212121433936,-0.8702304606034096,0.18681769630180936
-708.3380038738251,5032.0,11220.0,10116.0,961.0,327.0,1567.0,0.3032516454769589,-0.45662327869703445,-0.7868022808905416,0.2836825543683087
-708.345808506012,4932.0,11252.0,9920.0,1200.0,-88.0,1776.0,0.29595536246733856,-0.5353366586510775,-0.6768680053026768,0.40948112133369674
-708.3536038398743,4972.0,10880.0,9888.0,1481.0,-448.0,1913.0,0.2643187104885067,-0.5808300209500054,-0.5339296327107846,0.5546992458641313
-708.361403465271,5136.0,10804.0,9816.0,1769.0,-539.0,2032.0,0.2241584570530562,-0.5918100556397864,-0.3477931799085296,0.6917757932916845
-708.3692622184753,5360.0,10952.0,9548.0,2082.0,-1111.0,1999.0,0.1711410116506534,-0.5257861832309112,-0.13562324431037912,0.8221106855268266
-708.3770549297333,5832.0,11128.0,9608.0,2197.0,-1332.0,2003.0,0.1081436605542306,-0.4049137585422497,0.09057746052262129,0.9034077265943619
-708.3848605155945,5984.0,11444.0,9616.0,2398.0,-1582.0,1981.0,0.046987201673363725,-0.2311785457575851,0.3203359661911252,0.9174603815014102
-708.3926453590393,5924.0,11760.0,9668.0,2455.0,-1617.0,1971.0,-0.015488724410097998,-0.03464349147829992,0.525604672984492,0.8498821422122046
-708.4004921913147,6476.0,12016.0,9800.0,2479.0,-1504.0,1942.0,-0.07957642646577232,0.15581278157083925,0.6861579680689948,0.706100001632576
-708.408310174942,6756.0,12236.0,9588.0,2504.0,-1216.0,1970.0,-0.15553307619407528,0.31760121851419265,0.7878644289608077,0.50419100526107
-708.4161095619202,6924.0,12332.0,9740.0,2595.0,-972.0,2085.0,-0.2415948333187539,0.448420307588795,0.8206493621409546,0.25900924437806905
-708.4239492416382,6836.0,12296.0,10108.0,2621.0,-834.0,2206.0,-0.31955993480758416,0.5447898573365082,0.775261144198752,-0.007457727849783526
-708.4317495822906,6992.0,12196.0,10044.0,2656.0,-616.0,2065.0,-0.3860386032766778,0.5845347527112164,0.6635876559421487,-0.26257330887627034
-708.439563035965,7252.0,11924.0,10208.0,2711.0,-370.0,2499.0,-0.4240727808056641,0.5988813180696654,0.46280713304962273,-0.49730574201921324
-708.4473614692688,7036.0,11768.0,10532.0,2850.0,-275.0,2565.0,-0.4272377534322392,0.5546216954156838,0.20397885180475728,-0.6842918273900531
-708.4551727771759,7140.0,10872.0,10940.0,2833.0,-257.0,3120.0,-0.3504344852693565,0.45888076506951936,-0.10017026466675186,-0.8103024330827389
-708.4629647731781,7000.0,10364.0,10976.0,3325.0,-185.0,3309.0,-0.23240519682697008,0.29144085566367367,-0.42774989748592496,-0.8234561781531692
-708.4708077907562,7036.0,10012.0,11164.0,3341.0,-291.0,3486.0,-0.07150925266335732,0.06668319037955447,-0.6915079956719313,-0.7157209448005002
-708.4786083698273,6692.0,9808.0,11096.0,4036.0,-355.0,3684.0,0.10267584265232886,-0.1832964775808396,-0.8686540773852067,-0.44866487101638136
-708.4864232540131,6808.0,9532.0,10876.0,4531.0,-523.0,3866.0,0.2544155345650992,-0.4045423342921065,-0.876685936328351,-0.05513623655573929
-708.4942181110382,6956.0,9600.0,10272.0,4938.0,-331.0,3855.0,0.37020063554835936,-0.5187845472714967,-0.6768390522772249,0.368378854257905
-708.5020582675934,6864.0,9944.0,10792.0,5393.0,-793.0,4131.0,0.37331873048781156,-0.48343499587361505,-0.29361180026132117,0.7353338296168297
-708.5098814964294,7364.0,10208.0,10244.0,5730.0,-1308.0,4167.0,0.2659320846482478,-0.27039594498144237,0.17561620972835665,0.9084740536596935
-708.5176689624786,7588.0,10508.0,9856.0,5789.0,-1910.0,3893.0,0.10407512893216908,0.06370752980684405,0.5768647029046382,0.8076737167485434
-708.5254700183868,8284.0,11620.0,9612.0,5692.0,-1977.0,3506.0,-0.06433796244444188,0.36860703705708964,0.8034796261626146,0.46304424104190767
-708.5332651138306,8724.0,12640.0,9604.0,5587.0,-1708.0,3263.0,-0.22125909520136267,0.5484227818469453,0.8063956883001708,-0.0016908674773378081
-708.5410554409027,8924.0,13196.0,9952.0,5341.0,-1441.0,2864.0,-0.32955664140425117,0.5680973587116465,0.6117585008763644,-0.44091875412223513
-708.548853635788,8792.0,13696.0,9884.0,4810.0,-1069.0,2443.0,-0.3759341674999274,0.46788484299895144,0.30310790622409606,-0.7401911054467134
-708.5566403865814,9208.0,14588.0,9976.0,4243.0,-719.0,2096.0,-0.36427631468072486,0.3114398924665868,-0.030554474537308945,-0.8771398885176636
-708.5644779205322,9000.0,14728.0,9636.0,3772.0,-750.0,1957.0,-0.2984736746866079,0.12038058845406405,-0.32640513477807787,-0.8887528719689355
-708.572282075882,9200.0,14668.0,9660.0,3368.0,-283.0,1860.0,-0.18721021632513296,-0.04035172460180065,-0.5684815493103477,-0.8000954951247159
-708.5800890922546,9288.0,14512.0,9532.0,2877.0,-182.0,1764.0,-0.06022111786547987,-0.1801333061333016,-0.7290350702039388,-0.6575965901654724
-708.5878958702087,9612.0,14272.0,9772.0,2486.0,-211.0,1683.0,0.060078150702965,-0.3022081673291748,-0.8163539037044938,-0.48849477306731465
-708.5957040786743,9896.0,14056.0,9732.0,2101.0,-214.0,1377.0,0.1552944809982471,-0.3891214014301194,-0.8503335757436196,-0.31843518819944333
-708.6034939289093,10396.0,13564.0,9328.0,1720.0,157.0,1261.0,0.25603841810300004,-0.4472924184633431,-0.8386684839970163,-0.17609371025301623
-708.6113300323486,10672.0,13476.0,9020.0,1303.0,284.0,626.0,0.33461233917147387,-0.4558459622787282,-0.8211371386256014,-0.07728415567329738
-708.6191663742065,10940.0,13400.0,8916.0,828.0,782.0,465.0,0.42435558327364653,-0.45704460637847855,-0.7808847510416975,-0.03537756796857266
-708.626974105835,10884.0,13100.0,8792.0,374.0,1602.0,-319.0,0.5417713171984414,-0.41205016418868723,-0.7276701299856599,-0.08482148300869614
-708.6347801685333,10812.0,13560.0,9108.0,-223.0,1935.0,-737.0,0.6407397500271569,-0.35553168805545493,-0.6503381220833359,-0.20027510701206788
-708.6425786018372,10592.0,13936.0,9464.0,-907.0,2115.0,-985.0,0.6989607797623426,-0.306005860717686,-0.5341293832223225,-0.3640330253410914
-708.6503863334656,10448.0,13992.0,9484.0,-1655.0,2080.0,-1344.0,0.686182317535207,-0.26906788659133324,-0.377980231958392,-0.5602564089378771
-708.658182144165,9544.0,14172.0,9348.0,-2095.0,1835.0,-1609.0,0.5957342174401266,-0.24211814004646787,-0.1959911735997818,-0.7403154789023524
-708.6660358905792,9144.0,14468.0,9144.0,-2901.0,1324.0,-1732.0,0.42434830781066846,-0.2646688773100381,0.02230495940926431,-0.8656681742026893
-708.6739087104797,8608.0,14472.0,8788.0,-3317.0,962.0,-1543.0,0.21767933052345734,-0.3017793096603065,0.25885717535786457,-0.8913685657961897
-708.6817157268524,8444.0,14404.0,8376.0,-3499.0,67.0,-1754.0,-0.011860412976268178,-0.3810837720822008,0.4598300687749729,-0.8019917687296032
-708.6895034313202,8416.0,14192.0,8084.0,-3416.0,-577.0,-1765.0,-0.21400759983467282,-0.4629084715624386,0.6067181314954169,-0.6097619232810783
-708.6973121166229,8360.0,13816.0,8016.0,-3185.0,-1351.0,-1694.0,-0.3425954941751761,-0.5356097185812295,0.6947085614866937,-0.3363488833477702
-708.7050943374634,8564.0,13216.0,7832.0,-2955.0,-1813.0,-1658.0,-0.3978302136787018,-0.5698204680705922,0.7187276095130745,-0.021595799957197057
-708.7129032611847,9028.0,12720.0,8008.0,-2896.0,-2606.0,-1643.0,-0.3580036652882598,-0.5415104870051223,0.6875624554415074,0.3253577077170487
-708.7206921577454,9604.0,12484.0,8164.0,-2785.0,-3024.0,-1572.0,-0.24610567792932062,-0.4320738385888672,0.5868042612438534,0.6390656869869374
-708.7285706996918,9848.0,11920.0,8260.0,-2780.0,-3225.0,-1551.0,-0.09242592142651918,-0.25269912090601243,0.41148920355891533,0.8707911567627664
-708.7363703250885,9984.0,11980.0,8808.0,-2650.0,-3257.0,-1501.0,0.07458586950188067,-0.03489102691530964,0.18947805975023294,0.9784260979679205
-708.7441697120667,10100.0,11588.0,9104.0,-2559.0,-2974.0,-1482.0,0.22767154413846485,0.16729799197664277,-0.049507853550924505,0.9579801784520232
-708.7519686222076,10388.0,11520.0,9224.0,-2400.0,-2464.0,-1597.0,0.3660882338089683,0.31587132672029655,-0.2615906868568913,0.8353292899044841
-708.7597784996033,10268.0,11316.0,9320.0,-2339.0,-1920.0,-1832.0,0.49726344310430975,0.40425525739321483,-0.4230020161217361,0.6406060016725875
-708.7675738334656,10576.0,11232.0,9264.0,-2287.0,-1221.0,-2240.0,0.6306728370329766,0.4369191854486952,-0.5026319002456273,0.39838997335662824
-708.7753846645355,10536.0,10852.0,9452.0,-2378.0,-547.0,-2652.0,0.7533192699993604,0.4210541288022865,-0.49041801796154527,0.12129989993750186
-708.7831826210022,10088.0,10832.0,9248.0,-2515.0,-110.0,-3104.0,0.8252366757320138,0.36792594167060677,-0.3871314852685548,-0.1836957908781121
-708.7909708023071,9696.0,10520.0,9896.0,-2685.0,107.0,-3391.0,0.8053168662742828,0.27186470612306607,-0.21277134274904735,-0.481957137267989
-708.7987778186798,9176.0,10364.0,9848.0,-2831.0,106.0,-3780.0,0.661550440369907,0.13632936030776932,0.002894696167493117,-0.7373987666782164
-708.8066999912262,8792.0,10180.0,9444.0,-2968.0,-55.0,-4014.0,0.4021274645292646,-0.03633283936464965,0.21834250630190666,-0.8884255607515856
-708.8145422935486,8700.0,10156.0,9220.0,-3013.0,-300.0,-4237.0,0.06350327677441146,-0.22409275890513455,0.38940267310921545,-0.8911314871670707
-708.822350025177,7932.0,10236.0,8888.0,-2991.0,-579.0,-4111.0,-0.26950482496483125,-0.3885152487209247,0.491437105284764,-0.7313772093669075
-708.8301265239716,7424.0,10276.0,8684.0,-2897.0,-1480.0,-4593.0,-0.5363617756769118,-0.5492071180621757,0.4983679085550026,-0.40288585825896406
-708.8379352092743,7232.0,10880.0,8256.0,-2792.0,-2045.0,-4818.0,-0.6667234321955444,-0.6215808665625788,0.4095273087459795,0.03747632153749962
-708.8457465171814,6940.0,11128.0,8400.0,-2628.0,-2116.0,-4939.0,-0.6361571126484534,-0.5656880793224722,0.22695628701300335,0.47306655845082357
-708.8535430431366,6696.0,11304.0,8560.0,-2498.0,-2281.0,-5023.0,-0.4482945505065501,-0.38206260515861923,0.002272114315611384,0.8081181839446975
-708.8614075183868,6572.0,11012.0,8608.0,-2456.0,-1871.0,-5159.0,-0.14705142556971604,-0.13717229367071462,-0.23868650169116576,0.950046522017455
-708.869279384613,6772.0,10628.0,8736.0,-2508.0,-1705.0,-5234.0,0.1957897858763196,0.12871633442019076,-0.43084540799397086,0.8714761611257325
-708.8770911693573,6964.0,10412.0,8776.0,-2816.0,-1500.0,-5214.0,0.5008833519791295,0.34486071904699456,-0.5398723490465763,0.5820006863427851
-708.8848948478699,7192.0,10104.0,9100.0,-2795.0,-1465.0,-4921.0,0.6823828454210932,0.4712248723447164,-0.5323077407371822,0.17014476515601382
-708.8927042484283,7320.0,9780.0,9292.0,-2815.0,-1358.0,-4736.0,0.7218303201949282,0.487235446091449,-0.41224676322158493,-0.2676101925052192
-708.900533914566,7416.0,9604.0,9364.0,-2629.0,-1426.0,-4608.0,0.6084903405085028,0.409304460888927,-0.22061738814606816,-0.6430686836193147
-708.9083368778229,7512.0,9444.0,9380.0,-2693.0,-1365.0,-4097.0,0.4099811516404659,0.24526228349704418,0.0038639282453396444,-0.8784912849037761
-708.9161288738251,7680.0,9340.0,8888.0,-2712.0,-1304.0,-3805.0,0.16283182991351797,0.043106474230708805,0.2268373481945044,-0.959256193365723
-708.9239661693573,7720.0,9400.0,9116.0,-2527.0,-1655.0,-3816.0,-0.10528730528949153,-0.19056841414287345,0.3948476626003052,-0.8925769357400085
-708.9317946434021,7232.0,9672.0,9372.0,-2275.0,-2186.0,-3385.0,-0.30746776952173027,-0.42347867172087184,0.4966800560896884,-0.6924148374967151
-708.9396016597748,7352.0,10044.0,9256.0,-2113.0,-2306.0,-3235.0,-0.44793549634093915,-0.601678330499369,0.5273219861244589,-0.3990845783478037
-708.9474003314972,7448.0,10608.0,9256.0,-2058.0,-2825.0,-3035.0,-0.4931190575384203,-0.7040060158301552,0.509913892810708,-0.034596917290436846
-708.9552037715912,7504.0,10872.0,9428.0,-2067.0,-2897.0,-2979.0,-0.4637184058483285,-0.7009791972284204,0.42424296247724813,0.3370627744486364
-708.9630038738251,7684.0,11048.0,9460.0,-2282.0,-2899.0,-3117.0,-0.3726587612901561,-0.5884822474588156,0.2614414930623998,0.6681784475458715
-708.97083735466,7796.0,11076.0,9504.0,-2416.0,-2907.0,-3130.0,-0.22797412540287812,-0.3783789239256605,0.050005988318325076,0.8957435956834744
-708.9786739349365,7876.0,11216.0,9728.0,-2377.0,-2976.0,-3097.0,-0.04729968230445285,-0.10272498761062397,-0.16426132622136816,0.9799125132797785
-708.9864926338196,7772.0,10740.0,9824.0,-2215.0,-2746.0,-3114.0,0.1478156348675857,0.1721243169885011,-0.34229018143805773,0.9117901015480679
-708.994286775589,7784.0,10008.0,9636.0,-1950.0,-2542.0,-3082.0,0.32306470309338636,0.41155566146444006,-0.4509781595475494,0.7230973895284468
-709.0020859241486,7596.0,9548.0,9424.0,-1706.0,-2477.0,-3001.0,0.4466618655222203,0.5981453209619553,-0.48803910184219806,0.4522534554567714
-709.009884595871,7232.0,9404.0,9632.0,-1365.0,-2311.0,-2706.0,0.4995228092669285,0.7129867746902807,-0.46554303653100626,0.1593628039296397
-709.017676115036,7176.0,9000.0,9464.0,-971.0,-2585.0,-2405.0,0.46530691301113647,0.7661030046327502,-0.4210459460208838,-0.13890995045747503
-709.0254747867584,7264.0,8872.0,9096.0,-754.0,-2643.0,-2069.0,0.3770050120996566,0.7464780073144336,-0.3647938913139066,-0.4093448696486472
-709.0332674980164,7632.0,9180.0,9128.0,-607.0,-2637.0,-1855.0,0.25613738338016084,0.6645547737099889,-0.29709890550186213,-0.6359975109416904
-709.0410537719727,7880.0,9204.0,9068.0,-441.0,-2563.0,-1637.0,0.12024079038777784,0.5358134732350986,-0.22699194734231107,-0.8043138256106309
-709.0488514900208,7976.0,9244.0,9292.0,-335.0,-2260.0,-1588.0,-0.019681311256214373,0.3935018809864834,-0.14868080919769927,-0.9070076805758884
-709.0566504001617,7980.0,9664.0,9276.0,-313.0,-1953.0,-1509.0,-0.1501563830672665,0.25290633206922736,-0.06726436614367555,-0.9533975838393632
-709.0644891262054,7976.0,9792.0,9804.0,-209.0,-1566.0,-1577.0,-0.28063500341020703,0.13186117159839664,0.0052204041336177285,-0.9506994128883919
-709.0723164081573,8088.0,9852.0,9800.0,-229.0,-1149.0,-1603.0,-0.4044384840937075,0.040525953435432104,0.06961431446598623,-0.9110109806712343
-709.0801138877869,7920.0,10060.0,10064.0,-148.0,-1008.0,-1648.0,-0.521425789537187,-0.044055732287359636,0.12090169474470523,-0.8435383919336474
-709.0879020690918,8164.0,10252.0,10200.0,-156.0,-325.0,-1698.0,-0.6363650865801925,-0.07818411558546838,0.13889156063954886,-0.7547422441039144
-709.0957021713257,8088.0,10164.0,10120.0,-158.0,-71.0,-1714.0,-0.7411735993878831,-0.09409400300299309,0.13982836361591713,-0.649812313593531
-709.1035051345825,7920.0,10308.0,10144.0,-72.0,58.0,-1613.0,-0.8257869200456494,-0.10509480621659975,0.12556128799457988,-0.5396901030637471
-709.1113288402557,7784.0,10412.0,10032.0,61.0,69.0,-1384.0,-0.8846989621610631,-0.12083851114833244,0.10420129783506615,-0.4380044407355702
-709.1191613674164,7564.0,10508.0,9784.0,122.0,66.0,-1202.0,-0.9247858278855714,-0.13821241138469678,0.08130776650207108,-0.34504716922135503
-709.126960515976,7604.0,10768.0,9756.0,58.0,-62.0,-1202.0,-0.9545310523299264,-0.15275463025501998,0.06973103008223554,-0.24632108419143803
-709.1347618103027,7140.0,11096.0,9896.0,50.0,-153.0,-974.0,-0.9702220626957224,-0.1658184757786409,0.06824763489042023,-0.1628362443707481
-709.1425528526306,7132.0,11032.0,10008.0,22.0,-221.0,-932.0,-0.978358056324522,-0.176038099499709,0.07302912907447527,-0.08057820707894787
-709.1503500938416,6812.0,11184.0,9808.0,-67.0,-214.0,-879.0,-0.9810750979723435,-0.1771377091233721,0.07817011861542825,-0.0018211811360056994
-709.1581444740295,6796.0,11088.0,10020.0,-231.0,-219.0,-967.0,-0.9793934948803323,-0.16359767340569883,0.08186442671584311,0.08557101776195464
-709.1659610271454,6692.0,11104.0,10392.0,-351.0,-287.0,-993.0,-0.9704983698501719,-0.1381590285977717,0.0893940851553879,0.17622058470652688
-709.1737947463989,6436.0,11136.0,10480.0,-264.0,-381.0,-991.0,-0.951100175030611,-0.11736577216806843,0.10538864865643197,0.2655691347173186
-709.1815865039825,6616.0,10920.0,10532.0,-621.0,-419.0,-1109.0,-0.9216072789169839,-0.06607376512583396,0.11387705437455788,0.3651113494487714
-709.1894085407257,6764.0,10808.0,10524.0,-689.0,-396.0,-1034.0,-0.882971125774374,-0.008466161371809989,0.11730313480346742,0.45445603717591937
-709.1972298622131,7156.0,10556.0,10280.0,-667.0,-295.0,-1465.0,-0.8140572330629362,0.03904837689408417,0.1116318521581522,0.5686161931774316
-709.2050189971924,6968.0,10352.0,10340.0,-571.0,-239.0,-1624.0,-0.7209237013456691,0.07463090774802905,0.10489107245088544,0.6809530874934547
-709.2128174304962,6732.0,10264.0,10196.0,-399.0,-227.0,-1690.0,-0.6087150958287489,0.09649350260475856,0.10553729048985296,0.7803952949507851
-709.2206039428711,6444.0,9960.0,10468.0,-179.0,-110.0,-1770.0,-0.4798383508030622,0.09593096477877414,0.11304048269425768,0.8647394152965736
-709.228438615799,6164.0,9588.0,10200.0,10.0,24.0,-1890.0,-0.332991951024916,0.07400474471535898,0.12720832156140854,0.9313740930677447
-709.2362344264984,5928.0,9416.0,10496.0,138.0,223.0,-1945.0,-0.17569344352695018,0.02987256440542169,0.14274053736461975,0.9735833722852634
-709.2440249919891,5824.0,9392.0,10480.0,291.0,572.0,-2068.0,-0.007757779414793458,-0.04795371837308805,0.16151028368252449,0.9856747364204566
-709.251816034317,6120.0,9480.0,10384.0,427.0,1004.0,-2326.0,0.17554300397306039,-0.16308879538604604,0.18348050040761535,0.9533738010590671
-709.2595875263214,6448.0,9936.0,10620.0,378.0,1343.0,-2426.0,0.35090480240320227,-0.29882969256130526,0.19536277854664538,0.8656789354331198
-709.2673721313477,6212.0,10364.0,11408.0,373.0,1549.0,-2507.0,0.5068714181087242,-0.4326586066339933,0.19908916451764386,0.7185063675303432
-709.2752060890198,5652.0,10684.0,11792.0,318.0,1751.0,-2614.0,0.6289046875718711,-0.552988639104402,0.19069232085663895,0.512170770093235
-709.2830164432526,5228.0,10952.0,12152.0,153.0,1923.0,-2757.0,0.6981122558086261,-0.6489343905987691,0.16314179910320872,0.2547708546387595
-709.2908098697662,5292.0,11264.0,11936.0,-41.0,2151.0,-2960.0,0.6963951476666406,-0.7062017711184571,0.11967255628744973,-0.04462438847916507
-709.2986097335815,5320.0,12172.0,11576.0,-177.0,2201.0,-3322.0,0.6134767591372883,-0.7017097019747544,0.04659640664209628,-0.3592750131041062
-709.3063957691193,5144.0,12740.0,11544.0,-230.0,2060.0,-3262.0,0.4630757382792076,-0.6278409092341677,-0.03387066380070428,-0.6246834649987786
-709.3141982555389,4432.0,13208.0,11196.0,-316.0,1840.0,-3398.0,0.2518397646302064,-0.5021335155208506,-0.12179936832516863,-0.8182930889462918
-709.3220295906067,3884.0,13416.0,10988.0,-471.0,1569.0,-3467.0,0.00015227080787773482,-0.3445952495503723,-0.19512665757817443,-0.9182481572555905
-709.3298628330231,3832.0,13532.0,10484.0,-599.0,1244.0,-3573.0,-0.2685076727036115,-0.1744026857018177,-0.24164583568769454,-0.9160210821886575
-709.3376524448395,3460.0,13724.0,9912.0,-761.0,707.0,-3669.0,-0.5298696737075574,-0.0216518044781767,-0.2405135381456066,-0.8129714424360597
-709.3454599380493,3560.0,14048.0,9592.0,-931.0,42.0,-3696.0,-0.7523863477456939,0.09646216905668772,-0.1741412373989833,-0.6279209051337006
-709.3532514572144,3708.0,14144.0,9224.0,-903.0,-597.0,-3670.0,-0.9058221530634791,0.1693193548471829,-0.051817530453222176,-0.38487936633613634
-709.3610544204712,4132.0,14728.0,8832.0,-984.0,-1063.0,-3622.0,-0.963508552673866,0.2153484932834394,0.11244014910764895,-0.11239888003674267
-709.3688426017761,4252.0,14996.0,8548.0,-964.0,-1898.0,-3814.0,-0.900986540418624,0.22433178248339286,0.3300436874389496,0.1702047876353768
-709.3766794204712,4224.0,14788.0,8428.0,-858.0,-2467.0,-3571.0,-0.7090520909732058,0.2101911883078948,0.5422162765112064,0.3988311749732747
-709.3845129013062,4436.0,14196.0,8252.0,-730.0,-2796.0,-3608.0,-0.40590782808043524,0.16852721412066216,0.701089316145154,0.5615257643161821
-709.3923053741455,4616.0,13484.0,8628.0,-716.0,-3144.0,-3571.0,-0.02575323604047484,0.11925650344461584,0.765086086349064,0.632264136018073
-709.4000964164734,5552.0,12104.0,8920.0,-646.0,-3358.0,-3507.0,0.36664205672731687,0.06605467783650008,0.7111107624080196,0.5962649288379823
-709.4078872203827,6028.0,11308.0,9076.0,-763.0,-3436.0,-3341.0,0.6981289124237849,0.01214053764466348,0.5346146666171485,0.47608380272964207
-709.4156794548035,6572.0,10748.0,9468.0,-352.0,-3530.0,-3179.0,0.9190536935586257,-0.00996678355661628,0.28451969880195427,0.27256102541527927
-709.4234714508057,6724.0,10404.0,9700.0,-183.0,-3412.0,-2965.0,0.999095719254702,-0.015687162177295055,0.0034763067559056837,0.03936460340320609
-709.4312977790833,6656.0,10376.0,9580.0,-32.0,-3186.0,-2806.0,0.9467281964802016,-0.0075933627383659155,-0.2610675298146012,-0.18839269547456186
-709.4390897750854,7000.0,10692.0,9476.0,129.0,-2837.0,-2762.0,0.7907771183403393,0.01856990914024548,-0.47205947798594106,-0.3892127398062825
-709.446882724762,6828.0,11116.0,9448.0,204.0,-2377.0,-2699.0,0.5731303677997703,0.06045060473339019,-0.609171386224602,-0.544772914248005
-709.4546957015991,6564.0,12032.0,9160.0,252.0,-2265.0,-2592.0,0.3142108631550877,0.09885792833053408,-0.6899924745799371,-0.6445223258387446
-709.4625110626221,6324.0,13260.0,9128.0,269.0,-1676.0,-2392.0,0.0740755473609181,0.15108905244618337,-0.7075099035202331,-0.6863779191778282
-709.470315694809,6240.0,14044.0,9172.0,118.0,-1324.0,-2238.0,-0.13967062644286665,0.20539934465737486,-0.6763111476723048,-0.6934741933608978
-709.4781224727631,6088.0,14708.0,8904.0,-110.0,-1270.0,-1950.0,-0.32397940815168874,0.23992842912249934,-0.6067525063221543,-0.6850715933858851
-709.4859175682068,5904.0,15184.0,8776.0,-391.0,-784.0,-1712.0,-0.45326256833804784,0.29054067557059343,-0.5180919791200685,-0.6646200878351709
-709.4937176704407,5596.0,15128.0,8856.0,-624.0,-641.0,-1401.0,-0.541967228668729,0.3376803280610977,-0.41665633057656987,-0.6470247454929025
-709.5015077590942,5700.0,15092.0,8680.0,-883.0,-538.0,-1128.0,-0.5939042952105511,0.38646983965267023,-0.3054144214837722,-0.636113812394473
-709.5093004703522,5952.0,14240.0,8252.0,-1120.0,-640.0,-895.0,-0.6171022674083104,0.4286635898218963,-0.17823968735385248,-0.6353447349058056
-709.5171048641205,6100.0,13844.0,8360.0,-1173.0,-763.0,-723.0,-0.6193685641095733,0.456314742742254,-0.04466913854179471,-0.6373100543776551
-709.5249021053314,5884.0,13328.0,8344.0,-1135.0,-919.0,-140.0,-0.5808213940898022,0.4631544515759108,0.0730774775114903,-0.6654277905479706
-709.532693862915,5596.0,12848.0,8548.0,-1276.0,-1120.0,91.0,-0.5112462236294436,0.4582067554906922,0.19806414358850027,-0.6996030753733721
-709.5405666828156,5588.0,12376.0,8780.0,-835.0,-1149.0,236.0,-0.44015186860376415,0.4259044114132426,0.28855326204377313,-0.7359407448071155
-709.5483663082123,5884.0,12276.0,8860.0,-684.0,-1076.0,280.0,-0.36729941670401806,0.38749135915372135,0.36101412897242985,-0.7645981845076324
-709.5561721324921,5748.0,11920.0,9064.0,-520.0,-838.0,188.0,-0.3096095512337946,0.3527028921954402,0.41455828469195727,-0.779669176135008
-709.5639488697052,5636.0,11712.0,9372.0,-385.0,-582.0,202.0,-0.26245940638591575,0.33005239984901613,0.44928259561189277,-0.7876075308386138
-709.5718162059784,5708.0,11752.0,9376.0,-293.0,-299.0,71.0,-0.23728328452861316,0.3186906946475252,0.47382017934581644,-0.7858926909401113
-709.5796818733215,5752.0,11680.0,9444.0,-222.0,-21.0,12.0,-0.22940716997939822,0.3222060967396411,0.4889747111953296,-0.7774698151036428
-709.5874927043915,5756.0,11692.0,9300.0,-179.0,169.0,-78.0,-0.2368540625552034,0.33377381957098956,0.49972737398052375,-0.76339225966381
-709.595311164856,5848.0,11820.0,9188.0,-121.0,272.0,-39.0,-0.24774317439542612,0.3525100626792126,0.5030593114860783,-0.7491937695800253
-709.603147983551,5376.0,11916.0,9080.0,-22.0,364.0,84.0,-0.25745277290629787,0.3802137553831959,0.49371043469619386,-0.7385157930690182
-709.6109461784363,5244.0,11996.0,8876.0,124.0,392.0,85.0,-0.27282971484064317,0.4060282438144451,0.4737034147520253,-0.7323319512196649
-709.6187417507172,4960.0,11948.0,8468.0,182.0,416.0,233.0,-0.28133553472010014,0.4374291098917084,0.4433997473500154,-0.7300018868284147
-709.6265285015106,4676.0,11988.0,8644.0,183.0,400.0,334.0,-0.28221611398832536,0.4707465826956398,0.40862096783652324,-0.7292329014313937
-709.6343157291412,4440.0,12032.0,8804.0,284.0,358.0,475.0,-0.2759779003451274,0.5025925022495512,0.3615371649343727,-0.7352059939736932
-709.6421093940735,4264.0,11896.0,8776.0,349.0,292.0,530.0,-0.2660026861682384,0.5286088411541048,0.3082056999910074,-0.7448654311337377
-709.6498911380768,4328.0,11856.0,8688.0,428.0,311.0,660.0,-0.25052058320419285,0.5550728587266593,0.24196264668442166,-0.7553725150583088
-709.6576755046844,4380.0,11936.0,8840.0,492.0,322.0,695.0,-0.23458000994190936,0.5783305052931199,0.16818860660518375,-0.7630325276102357
-709.6654646396637,4348.0,11828.0,8788.0,517.0,335.0,756.0,-0.21444141626336222,0.598911122597335,0.08831779311448679,-0.7664987368805967
-709.6732521057129,4320.0,12184.0,9200.0,560.0,215.0,844.0,-0.18809701013219293,0.6067582547215121,0.002595757271988268,-0.7723064140293148
-709.6810748577118,4484.0,12392.0,8868.0,572.0,81.0,811.0,-0.16306524725100055,0.6006470665972791,-0.08004535116477869,-0.7786048858592921
-709.6888675689697,4652.0,12652.0,8636.0,459.0,-43.0,847.0,-0.12933540719996475,0.5830980899647076,-0.15459032708999032,-0.787001144023399
-709.6966536045074,5264.0,12892.0,8444.0,290.0,-215.0,893.0,-0.08526322306922292,0.5509325110716262,-0.2168708976371987,-0.8013554547104526
-709.7045905590057,5348.0,13228.0,8536.0,155.0,-541.0,1012.0,-0.03190541173829616,0.49013263425847664,-0.27107167737852816,-0.8278116882841454
-709.7124357223511,5228.0,13436.0,8672.0,64.0,-847.0,1104.0,0.025020451655834244,0.39950896577064615,-0.31832585095045635,-0.8593225330948064
-709.7202498912811,5244.0,13612.0,8816.0,-26.0,-1101.0,1119.0,0.07866160752263868,0.2829202078112827,-0.3545920569652719,-0.8877122172478602
-709.7280628681183,5432.0,13648.0,8924.0,-125.0,-1395.0,1151.0,0.12631565193685892,0.13641317442620288,-0.3783124541177226,-0.9068161274360744
-709.7358763217926,5568.0,13572.0,8960.0,-215.0,-1575.0,1253.0,0.1734641698967345,-0.03172346365657897,-0.38770930125210545,-0.9047570399495495
-709.7436845302582,5728.0,13472.0,8964.0,-281.0,-1734.0,813.0,0.1757458256423169,-0.1976972499473798,-0.3842902172931502,-0.8845056421670396
-709.7514653205872,5860.0,13356.0,9232.0,-388.0,-1795.0,639.0,0.1558230333772641,-0.35832341183922706,-0.3658529994953568,-0.8446745512664947
-709.7592959403992,5912.0,13152.0,9164.0,-484.0,-1807.0,477.0,0.11637581184114894,-0.5060008996579619,-0.3352415352632992,-0.7861506681279059
-709.7670867443085,5992.0,12840.0,9192.0,-584.0,-1673.0,275.0,0.059657583422764254,-0.6269738133046557,-0.29649451815064093,-0.7179385843350349
-709.7748942375183,5976.0,12644.0,9116.0,-698.0,-1577.0,101.0,-0.012983678147724073,-0.723734668079797,-0.25264652690356404,-0.6420352690972271
-709.782698392868,5644.0,12580.0,8808.0,-776.0,-1565.0,10.0,-0.09496709846041378,-0.8014174057354719,-0.2044413534109739,-0.5539992102970231
-709.790539264679,5688.0,12480.0,8968.0,-879.0,-1486.0,-38.0,-0.1828533204401182,-0.8555653322375745,-0.15060942557879078,-0.4603144864156015
-709.79834151268,5700.0,12400.0,8904.0,-903.0,-1378.0,-48.0,-0.26768923739751815,-0.8866897303404017,-0.09496358109094924,-0.36483655594907627
-709.8061757087708,5660.0,12360.0,9064.0,-983.0,-1342.0,-59.0,-0.3531810678937929,-0.8964887026298345,-0.03649859145899587,-0.2650263989869416
-709.8140709400177,5816.0,12376.0,9056.0,-1130.0,-1260.0,-20.0,-0.4414124880408479,-0.881101063234047,0.02662813257691792,-0.16765104928060065
-709.8219141960144,6116.0,12372.0,9440.0,-1203.0,-1129.0,-53.0,-0.5267701617436661,-0.8426108045769105,0.08280568223213648,-0.0752558814769568
-709.8297412395477,6020.0,12396.0,9224.0,-1337.0,-1044.0,241.0,-0.6093272696207837,-0.7775023061839006,0.15559703675112332,6.73013121804699e-05
-709.8375399112701,6216.0,12348.0,9296.0,-1385.0,-931.0,-51.0,-0.6835849149432165,-0.6970386593799693,0.1995447637730278,0.08384902290794548
-709.845377445221,6356.0,12228.0,9356.0,-1456.0,-802.0,-111.0,-0.7496316664842704,-0.5997658318728828,0.2276091799421785,0.1628722589267235
-709.8531532287598,6316.0,12252.0,9528.0,-1476.0,-746.0,-87.0,-0.8026210079893071,-0.48904338665405905,0.24833115757018487,0.23445195602512897
-709.8609607219696,6076.0,12520.0,9740.0,-1390.0,-719.0,-155.0,-0.8354708454651123,-0.37656178732344864,0.26125550535907216,0.3032082578445974
-709.8687736988068,6016.0,12124.0,9840.0,-1029.0,-600.0,-172.0,-0.846456207111558,-0.2878006409856703,0.27084584019139424,0.35682658440980886
-709.8766136169434,6072.0,12080.0,10008.0,-1098.0,-588.0,-225.0,-0.8479232116318143,-0.19259425498347182,0.2730409645152808,0.4115608239615571
-709.8844721317291,6040.0,12144.0,10024.0,-892.0,-538.0,-239.0,-0.8378006167374296,-0.11267151181146634,0.2757989337392069,0.45752617976331983
-709.8922755718231,5960.0,12072.0,10384.0,-810.0,-446.0,-65.0,-0.8296513670450953,-0.03732824903661237,0.2747043718556182,0.4845850999230944
-709.9000754356384,5644.0,12040.0,10168.0,-594.0,-323.0,-9.0,-0.8219637457288693,0.018819193519692055,0.27262283618741245,0.4996981367303328
-709.907876253128,5680.0,11884.0,10448.0,-433.0,-170.0,96.0,-0.8206272015257255,0.0592449383840208,0.2656968639759772,0.5024601574903832
-709.9156811237335,6080.0,11620.0,10220.0,-327.0,-44.0,251.0,-0.828322849744872,0.09007789847423164,0.253205278312616,0.491583477988867
-709.9234728813171,6272.0,11364.0,10176.0,-188.0,50.0,322.0,-0.8412591553885952,0.10830557192604534,0.2390284486307669,0.47267148984237295
-709.9313130378723,6436.0,11132.0,10192.0,-7.0,112.0,495.0,-0.8630566593229858,0.11414049680563432,0.22578254490941008,0.43718118921271154
-709.9392907619476,6448.0,11108.0,10388.0,115.0,152.0,623.0,-0.8894930609051245,0.11149845944202998,0.21233250114871197,0.38895384957552354
-709.9472346305847,6524.0,11184.0,10236.0,0.0,296.0,709.0,-0.9169605463918924,0.11405428347636906,0.18220570996802568,0.3361191098947246
-709.9551024436951,6588.0,11284.0,10520.0,3.0,426.0,718.0,-0.9423160499082711,0.11215759205804404,0.14084158649977252,0.2821786387047063
-709.9629383087158,6564.0,11464.0,10568.0,239.0,645.0,660.0,-0.9654964241332332,0.08416077368153313,0.08708520149735868,0.23054237536606995
-709.9707450866699,6500.0,11544.0,10568.0,207.0,863.0,543.0,-0.9804714246365128,0.05298867892617188,0.014660906505013163,0.1888201345126027
-709.9785792827606,6304.0,11864.0,10508.0,191.0,1099.0,417.0,-0.9843479261274322,0.018701032840708492,-0.0775487229262946,0.15714842433767862
-709.986391544342,6208.0,12020.0,10324.0,128.0,1321.0,511.0,-0.975180417170951,-0.014011530305974455,-0.18845354119529528,0.11537804728685463
-709.9942033290863,6016.0,12196.0,10164.0,141.0,1469.0,123.0,-0.9442946534399492,-0.04269777894466134,-0.30912665466685924,0.10452377017882204
-710.0019719600677,5840.0,12048.0,10080.0,147.0,1479.0,-19.0,-0.8962452597595073,-0.06741400357385159,-0.4259853773530619,0.1036158518863168
-710.0097770690918,5504.0,12260.0,9952.0,49.0,1421.0,-40.0,-0.8364359678020196,-0.08212956980118395,-0.5326866026560105,0.09937096599192795
-710.0175776481628,5376.0,12360.0,9536.0,29.0,1224.0,-57.0,-0.7744970761701563,-0.09180759766647248,-0.6185533350212022,0.09548515983512146
-710.0253887176514,5316.0,12352.0,9404.0,-55.0,1256.0,11.0,-0.7030816002059547,-0.09865435549212882,-0.6995422611407128,0.08114312338334889
-710.033233165741,5024.0,12264.0,9304.0,-100.0,604.0,44.0,-0.6664917071128008,-0.09941543686727673,-0.7358134985810104,0.06696170971776899
-710.0410356521606,4928.0,12048.0,9172.0,-195.0,222.0,242.0,-0.6550425223698748,-0.1049217230862535,-0.7472893939931832,0.03833128666278318
-710.0488429069519,4964.0,11844.0,9120.0,-214.0,-196.0,360.0,-0.6705075452707377,-0.11548498025390261,-0.7328387638802503,0.00549520019945736
-710.0566549301147,5060.0,11544.0,9292.0,-217.0,-637.0,462.0,-0.7119188727226129,-0.13176639253112948,-0.6891785415050243,-0.029018518048029077
-710.0644948482513,5212.0,11484.0,9388.0,-202.0,-1004.0,592.0,-0.7691073758890019,-0.15661357941533197,-0.6160923074963188,-0.06615360715571159
-710.0723023414612,5392.0,11052.0,9260.0,-157.0,-1304.0,698.0,-0.8304276546136973,-0.1896370402180093,-0.5136592610302985,-0.10286820202547967
-710.0801055431366,5628.0,10836.0,9496.0,-114.0,-1604.0,808.0,-0.8861408347014624,-0.2292937747780988,-0.37818270467103277,-0.13840747021135955
-710.0879526138306,5976.0,10656.0,10032.0,6.0,-1689.0,890.0,-0.918359248831631,-0.27585026802253176,-0.22645867070423709,-0.17099529285968626
-710.0957827568054,6352.0,10660.0,10140.0,84.0,-1731.0,931.0,-0.9231004503411109,-0.3222260196663569,-0.06533923944685356,-0.19946612398731156
-710.1036012172699,6572.0,10632.0,10332.0,206.0,-1706.0,925.0,-0.897907236429905,-0.3686096323013738,0.09342763252990391,-0.22172237420096771
-710.1113834381104,6784.0,10624.0,10484.0,347.0,-1623.0,911.0,-0.8443114926722584,-0.41431642268985347,0.24009424147886577,-0.2404885869219448
-710.1191990375519,6892.0,10664.0,10244.0,461.0,-1545.0,846.0,-0.7680105311469329,-0.45725498203526277,0.3699796597434213,-0.25336289552237107
-710.12699842453,6872.0,10948.0,10316.0,543.0,-1392.0,791.0,-0.6767203108913243,-0.49353493288711087,0.47750597045544346,-0.2654447946874632
-710.1348061561584,6944.0,11012.0,10484.0,515.0,-1250.0,763.0,-0.5796125200916167,-0.5163850216375387,0.5669650375414874,-0.2755838931922976
-710.1426100730896,6944.0,11340.0,10296.0,489.0,-1101.0,718.0,-0.48235730472965654,-0.5281342401948445,0.6384014919414843,-0.2843399198048746
-710.1504349708557,6932.0,11636.0,10184.0,379.0,-1273.0,721.0,-0.37295733890810806,-0.5309200814650564,0.7096103098011232,-0.2747360527409436
-710.1582326889038,6796.0,12016.0,10224.0,190.0,-974.0,795.0,-0.28313880709264905,-0.5081146098899244,0.7688346445709264,-0.2656035550252649
-710.1660339832306,6608.0,12040.0,10264.0,32.0,-960.0,796.0,-0.1977755626815042,-0.4749523080929928,0.8222316205268789,-0.2433932908871892
-710.1738731861115,6568.0,12404.0,10356.0,-160.0,-956.0,794.0,-0.11831167193971669,-0.43295022765900615,0.8698484598197204,-0.2047440001614309
-710.1816923618317,6472.0,12536.0,10280.0,-358.0,-898.0,514.0,-0.05430105285766948,-0.4044477916858287,0.9008335044967434,-0.14823082214951339
-710.1895034313202,6572.0,12368.0,10200.0,-489.0,-853.0,749.0,0.005104143473941714,-0.35223589226302726,0.9322362723130299,-0.08270040208471108
-710.1973049640656,6516.0,12228.0,10300.0,-594.0,-873.0,747.0,0.06281867851248493,-0.29613691115641944,0.9530510775053471,-0.007098390421534041
-710.2051002979279,6508.0,11836.0,10436.0,-603.0,-874.0,703.0,0.11959491251529995,-0.2400175532813865,0.9608889884781069,0.0691446515559608
-710.212908744812,6568.0,11392.0,10516.0,-540.0,-912.0,726.0,0.1792352279509289,-0.17812604860171644,0.9573183473413546,0.14031188728876437
-710.220700263977,6536.0,11028.0,10716.0,-345.0,-857.0,667.0,0.2361254869508499,-0.11669209033278155,0.9453843377603282,0.19203167546906333
-710.2285344600677,6704.0,10740.0,10648.0,-21.0,-762.0,578.0,0.2880846456835564,-0.056428374116619946,0.9319582241171323,0.21278379641404938
-710.2363409996033,6864.0,10640.0,10616.0,244.0,-767.0,450.0,0.34220832833384945,0.0005933583965697579,0.9164381971850759,0.2074467128805211
-710.244137763977,6944.0,10796.0,10900.0,461.0,-492.0,334.0,0.3746886654997102,0.049920955377529865,0.9080946922848567,0.18022300631249202
-710.2519488334656,6660.0,11080.0,10992.0,644.0,-240.0,272.0,0.38583649528711156,0.09615756501552063,0.9072822537500262,0.13683140584353315
-710.2597894668579,6616.0,11272.0,11032.0,752.0,313.0,164.0,0.35186927277025437,0.1304268422215599,0.922985695214555,0.08528927328538624
-710.2676112651825,6600.0,11760.0,10880.0,1018.0,700.0,24.0,0.2820818485673664,0.15753345606633415,0.9462923856668654,0.011990069120996608
-710.2754125595093,6404.0,11740.0,10900.0,671.0,911.0,-253.0,0.1968724379754148,0.1514509880959245,0.9679585739174277,-0.036878727609887633
-710.2832939624786,6352.0,11648.0,10716.0,601.0,1167.0,-40.0,0.08960357065904156,0.16111528331217598,0.9801908405916526,-0.07238080980906961
-710.2911026477814,6288.0,11580.0,10516.0,429.0,1337.0,-109.0,-0.03129690130587459,0.16237486177436997,0.9820812894939848,-0.09039496146487772
-710.2989137172699,6012.0,11596.0,10460.0,330.0,1367.0,41.0,-0.1517315135287735,0.17446045130519472,0.9678920751201261,-0.09862063502285665
-710.3067107200623,5668.0,11660.0,10304.0,349.0,1225.0,120.0,-0.25795150499810904,0.18933185911410938,0.9409833476445697,-0.11029418683332491
-710.314549446106,5400.0,11492.0,10132.0,341.0,1007.0,209.0,-0.34281299548125777,0.20756606902140096,0.9075152901787188,-0.1257440861909847
-710.3223495483398,5444.0,11588.0,9976.0,332.0,798.0,197.0,-0.4087215296511431,0.22130080114031167,0.8737999933036968,-0.14299034343879802
-710.3301479816437,5448.0,11656.0,9652.0,312.0,528.0,235.0,-0.45141472459656967,0.2342562182214208,0.8451290199168339,-0.16463811932967795
-710.3379349708557,5316.0,11724.0,9656.0,334.0,301.0,207.0,-0.47710098783531923,0.24041731572051453,0.8234549112452636,-0.19103971015042984
-710.3457455635071,5260.0,11828.0,9700.0,338.0,86.0,216.0,-0.4865363205249101,0.24309062788596794,0.8091727968548129,-0.22232575261144946
-710.3535461425781,5124.0,11868.0,9616.0,298.0,-142.0,147.0,-0.47981383906496444,0.23788679596951195,0.8058884736544681,-0.2524526097626479
-710.3613839149475,5380.0,11860.0,9624.0,4.0,-301.0,54.0,-0.45744655866430967,0.2347443688526055,0.816983535978199,-0.2611046326642463
-710.3692109584808,5768.0,11792.0,9448.0,143.0,-429.0,68.0,-0.4279683532217888,0.22387297710368567,0.8287925763794014,-0.28253644738645095
-710.3770265579224,5784.0,12280.0,9536.0,45.0,-488.0,54.0,-0.39192153540544633,0.21381486026734667,0.8440707409726468,-0.297027439554294
-710.3848607540131,5816.0,12036.0,9644.0,-73.0,-475.0,59.0,-0.353786267332076,0.20811288492853378,0.8603399498671963,-0.30222421285606765
-710.3926703929901,5884.0,11964.0,9716.0,-27.0,-423.0,12.0,-0.32105889098846635,0.19851258878270725,0.8732967347920382,-0.3080044701195236
-710.4005155563354,5936.0,11796.0,9856.0,-275.0,-338.0,-50.0,-0.2917220018909456,0.19314308230324384,0.8903751137771703,-0.29124934358283533
-710.4083199501038,5952.0,11796.0,9760.0,-713.0,-277.0,-75.0,-0.2595551214688781,0.19795115954569792,0.9147637038213836,-0.23802067877554955
-710.4161281585693,5964.0,11652.0,9760.0,-885.0,-169.0,-127.0,-0.23272818620687744,0.20368184128431854,0.9362271903879232,-0.16682310048138374
-710.4239568710327,5860.0,11636.0,9744.0,-1083.0,-176.0,-168.0,-0.20064448177252317,0.20839180403322347,0.9540919272465543,-0.07760955037216641
-710.4317874908447,5856.0,11744.0,9560.0,-1027.0,-171.0,-262.0,-0.1687987248710329,0.20249361984583958,0.9645798797754226,0.009432917686128164
-710.4395985603333,5724.0,11432.0,9584.0,-1429.0,-293.0,-314.0,-0.11765460147576914,0.1956826155516831,0.965106129595276,0.12820244670074094
-710.4473927021027,5384.0,11484.0,9468.0,-1489.0,-517.0,-313.0,-0.04475436593485211,0.18853351054569634,0.9497758026403772,0.2457195288330022
-710.4551982879639,5288.0,11432.0,9216.0,-1551.0,-721.0,-507.0,0.050785685765351175,0.16601595063221797,0.9165812215689496,0.3601921466720175
-710.4630088806152,5132.0,11376.0,9272.0,-1563.0,-975.0,-2.0,0.14956611675498638,0.1871817083239458,0.8521361995720304,0.4652492688513331
-710.4708187580109,4884.0,11552.0,9136.0,-1512.0,-1236.0,-307.0,0.2746021306606836,0.19197650421845586,0.7681699304000563,0.5455764379936573
-710.4786841869354,5188.0,11580.0,9128.0,-1518.0,-1506.0,-321.0,0.40906375039192444,0.20224883792126935,0.6535037261711827,0.6038999383632767
-710.4865307807922,5252.0,11700.0,9360.0,-1477.0,-1685.0,-417.0,0.5425679625073286,0.2104871721979068,0.5126442721766926,0.6312772818700225
-710.4943449497223,5356.0,11804.0,9536.0,-1445.0,-1811.0,-459.0,0.6614646610031498,0.21687627585382402,0.34818483871640243,0.6278506998513239
-710.5021376609802,5436.0,11840.0,9688.0,-1459.0,-1868.0,-475.0,0.7551447445844237,0.21605489310126957,0.16557745726061165,0.596373040588384
-710.509952545166,5752.0,11844.0,9860.0,-1467.0,-1963.0,-537.0,0.8196122662695684,0.20912838440230677,-0.029346677823552082,0.5325784677570655
-710.5177526473999,6068.0,11816.0,10080.0,-1471.0,-2018.0,-557.0,0.8463131407513939,0.19463736515961785,-0.22621955998357482,0.44124264816093034
-710.5255608558655,6288.0,11756.0,10252.0,-1543.0,-2064.0,-584.0,0.8324751533242777,0.16755713849868398,-0.41704739113926603,0.32400802147444663
-710.5334010124207,6428.0,11840.0,10420.0,-1591.0,-2104.0,-543.0,0.7735460282354195,0.1279373013821089,-0.5907075293987696,0.19058647336018525
-710.5412499904633,6476.0,11832.0,10720.0,-1630.0,-2107.0,-521.0,0.673263013709027,0.07776837057515446,-0.7338328714775821,0.04645763283348131
-710.5490577220917,6596.0,11896.0,10944.0,-1599.0,-2154.0,-271.0,0.5327943882592245,0.009705302830330904,-0.8419788603412687,-0.08430626118425935
-710.556845664978,6856.0,11860.0,10772.0,-1486.0,-2153.0,-467.0,0.36283409134418204,-0.03981961438522601,-0.9066493526627766,-0.21154850929472843
-710.5646650791168,7148.0,11616.0,11080.0,-1349.0,-2163.0,-476.0,0.17384290834331376,-0.08269977700122896,-0.9283644016121564,-0.31792912405438395
-710.572502374649,7480.0,11492.0,11212.0,-1104.0,-2134.0,-273.0,-0.01427025002005271,-0.13360588838770768,-0.9119401865643345,-0.3876995262848581
-710.5803565979004,7544.0,11316.0,11256.0,-831.0,-2131.0,-283.0,-0.19915056764524,-0.17859516993782376,-0.8670398248408192,-0.42033886189770747
-710.5881769657135,7520.0,11064.0,11012.0,-515.0,-2032.0,-575.0,-0.37535402983092003,-0.19718937491916122,-0.8073188772642262,-0.41044114452806596
-710.5959854125977,7244.0,10928.0,10644.0,-294.0,-1982.0,-603.0,-0.5328762818969645,-0.21259766406227398,-0.7300711304231018,-0.3712697751631091
-710.6038212776184,7152.0,10936.0,10220.0,-210.0,-1820.0,-737.0,-0.666822100191305,-0.21178160591225703,-0.6427107895783658,-0.3121212569711274
-710.6116192340851,6948.0,10796.0,9880.0,-508.0,-1717.0,-809.0,-0.7831692615430136,-0.18104246773156232,-0.5359369856659706,-0.2581493367163869
-710.6193993091583,6596.0,11012.0,9520.0,-401.0,-1628.0,-848.0,-0.8731354939945244,-0.14877474517616637,-0.423201636500507,-0.19079009195447563
-710.6272172927856,6308.0,11468.0,9420.0,-641.0,-1513.0,-905.0,-0.9399297199901034,-0.09064837138017584,-0.30473114921389194,-0.12431380029678268
-710.6350228786469,6064.0,11472.0,9152.0,-936.0,-1466.0,-841.0,-0.9816200961455784,-0.007513106429472689,-0.17825485857009185,-0.06775504018950519
-710.6428179740906,5808.0,11592.0,9072.0,-1142.0,-1533.0,-814.0,-0.9948389194400171,0.09215273083483942,-0.039879778339820794,-0.01459458278498228
-710.6506612300873,5552.0,11488.0,8940.0,-1403.0,-1783.0,-739.0,-0.9699400675172125,0.2094823866355188,0.1202116768093735,0.029707707297455508
-710.6584689617157,5376.0,11692.0,9200.0,-1530.0,-2109.0,-611.0,-0.8942561225886377,0.32892949712522407,0.2980146391107971,0.057433857691641055
-710.6662709712982,5228.0,11420.0,9336.0,-1689.0,-2431.0,-553.0,-0.7542241382350549,0.4432986080583206,0.4789517032859949,0.07237098394100051
-710.6740765571594,5436.0,11344.0,9628.0,-1717.0,-2800.0,-508.0,-0.5451128427919357,0.5307807049566137,0.6455133727674964,0.06660568629918548
-710.6819312572479,5668.0,11124.0,9804.0,-1676.0,-2818.0,-561.0,-0.2933412021919524,0.5716347297994727,0.7643037335331064,0.054995251531546996
-710.689740896225,5996.0,10976.0,10132.0,-1495.0,-3343.0,-630.0,0.006946142918281359,0.5554223120826651,0.8315300877848506,0.003939473038850399
-710.6975553035736,6516.0,10812.0,10324.0,-1246.0,-3557.0,-703.0,0.30895774563818196,0.47876141010393186,0.8184138537099886,-0.07437329938245778
-710.7053875923157,6836.0,10612.0,10616.0,-1259.0,-3623.0,-823.0,0.5819305618515177,0.34295113303255415,0.7220837357958604,-0.14945373877544388
-710.7132275104523,6912.0,10596.0,10692.0,-703.0,-3648.0,-775.0,0.7811220736049189,0.20012823712387015,0.5402004579530985,-0.24079132056639116
-710.7210309505463,7424.0,10680.0,10820.0,-521.0,-3804.0,-1246.0,0.8898536177242684,0.024473499810156014,0.29558249034617556,-0.34668801281675016
-710.7288372516632,7656.0,10936.0,10684.0,-438.0,-3364.0,-1401.0,0.890643752490614,-0.1403407553499077,0.04791172723269904,-0.4298402551307111
-710.7366337776184,7876.0,11180.0,10596.0,-390.0,-3133.0,-1580.0,0.8024615406344212,-0.2815382136004382,-0.19169425562272702,-0.4899438972439125
-710.7444479465485,7920.0,11480.0,10432.0,-470.0,-2884.0,-1654.0,0.6447890368134689,-0.39332014932370457,-0.39766561271044226,-0.5209687309318732
-710.7522344589233,7936.0,11684.0,10312.0,-483.0,-2684.0,-1627.0,0.44428867242332715,-0.4682177256831029,-0.5615008602470409,-0.5177803789777026
-710.7600569725037,7848.0,11704.0,10128.0,-596.0,-2506.0,-1556.0,0.2193304584137893,-0.510868698229612,-0.6725197130541407,-0.4884921276077586
-710.7678556442261,7552.0,11756.0,9852.0,-667.0,-2313.0,-1442.0,-0.007469988757659975,-0.5221069406596155,-0.73102248325334,-0.439266059195492
-710.7756633758545,7372.0,11500.0,9644.0,-751.0,-2126.0,-1502.0,-0.228656591913691,-0.4936383564983131,-0.7485977879307458,-0.37899694968858827
-710.7834784984589,7168.0,11308.0,9676.0,-745.0,-1956.0,-1105.0,-0.41635769384427607,-0.46151540967892546,-0.7173129475510993,-0.3148204769088625
-710.79132771492,7036.0,11132.0,9688.0,-655.0,-1867.0,-855.0,-0.573117659615287,-0.4279819457728245,-0.6543416268629054,-0.24536633364014954
-710.7991623878479,6940.0,10928.0,9544.0,-761.0,-1812.0,-618.0,-0.7069785627752198,-0.3872349435366289,-0.5613676560859922,-0.18734130612597896
-710.807028055191,6684.0,10748.0,9456.0,-393.0,-1841.0,-400.0,-0.8057680255021975,-0.36836761579047994,-0.4484221299929021,-0.11815575334174812
-710.8148562908173,6704.0,10612.0,9520.0,-284.0,-1833.0,-209.0,-0.8772740900232415,-0.354493975438705,-0.31889728966371156,-0.05503372599320455
-710.822695016861,6740.0,10740.0,9520.0,-217.0,-1830.0,-21.0,-0.9231813096096001,-0.3417520991255941,-0.17587830624997336,-0.002931504970845152
-710.8305313587189,6840.0,10664.0,9576.0,-220.0,-2033.0,153.0,-0.9458675163209995,-0.3218467214932791,-0.007064245557273798,0.04122409328873253
-710.8383388519287,6964.0,10820.0,9788.0,-287.0,-1749.0,283.0,-0.9444486759704194,-0.2886043611631162,0.14276285459564375,0.06590135448573642
-710.8461229801178,7172.0,10828.0,10088.0,-309.0,-1698.0,319.0,-0.922059818616872,-0.24666580073790298,0.28584592037972445,0.08516914606134278
-710.8539342880249,7288.0,10832.0,10192.0,-506.0,-1636.0,419.0,-0.8847803073416182,-0.1814944491648407,0.417824991263531,0.09821328493871509
-710.8617339134216,7448.0,10892.0,10388.0,-174.0,-1540.0,418.0,-0.8269343315607209,-0.13849127232271255,0.5364755078475096,0.09588434833911527
-710.8695304393768,7880.0,10832.0,10436.0,-246.0,-1408.0,407.0,-0.7611026478188248,-0.08929053053314419,0.6354846945856002,0.09438836574350816
-710.8851044178009,7864.0,10760.0,10516.0,464.0,-1205.0,582.0,-0.6902941858975046,-0.07742159373597997,0.7183060737926995,0.03919461815095898
-710.8928916454315,7928.0,10740.0,10596.0,685.0,-1012.0,629.0,-0.6200347264707835,-0.07533347161708838,0.7801881022180652,-0.03447217982361665
-710.9006893634796,8000.0,10744.0,10448.0,899.0,-778.0,697.0,-0.5551574120204935,-0.07836255342675975,0.8182009492880026,-0.12730579202596287
-710.908570766449,8084.0,10756.0,10096.0,1272.0,-766.0,789.0,-0.4779774095760258,-0.09124624789092987,0.8375543306599198,-0.24842395491102076
-710.9163753986359,8096.0,10724.0,10276.0,1187.0,-172.0,918.0,-0.4324134326625101,-0.07677481539991562,0.8191658701370748,-0.3689058527265501
-710.9241786003113,8092.0,10976.0,10120.0,1246.0,181.0,1002.0,-0.40091471270348733,-0.04593685037440804,0.7713067319794024,-0.4921820030423844
-710.9319679737091,8044.0,10752.0,10024.0,1271.0,489.0,1170.0,-0.3740184109325551,0.009185108370879679,0.6957317869089101,-0.6131746429462298
-710.9397938251495,7884.0,11072.0,10140.0,1348.0,759.0,1346.0,-0.3437886437037473,0.08609337526474892,0.5883021799067971,-0.7268410034613978
-710.9475910663605,7772.0,11064.0,10120.0,1281.0,961.0,1394.0,-0.30914880916293647,0.17709049471253174,0.4597925877957848,-0.8134228584713271
-710.95539021492,7612.0,11200.0,9744.0,1262.0,1165.0,1513.0,-0.2628612785157481,0.28080142687148146,0.30913959364761445,-0.8697627369365706
-710.9631741046906,7652.0,11152.0,10000.0,1224.0,1262.0,1539.0,-0.2058726451455427,0.38204328482281635,0.1463953465944727,-0.8889475715687929
-710.9709718227386,7204.0,11088.0,10120.0,1218.0,1353.0,1580.0,-0.13814663674727462,0.47477479272942935,-0.02470471844856509,-0.8688464075027997
-710.9787621498108,7052.0,10764.0,10032.0,1203.0,1391.0,1632.0,-0.05981912330493859,0.5495684983539353,-0.19599198370300777,-0.8099279476769455
-710.9865803718567,6932.0,10844.0,10128.0,1237.0,1359.0,1610.0,0.017599441067298858,0.5980512761367328,-0.35976245210811225,-0.7159580356686432
-710.994353055954,6920.0,10992.0,9960.0,1261.0,1380.0,1664.0,0.09691569118198644,0.6192523586531677,-0.5113047131196955,-0.5879637365065914
-711.0021555423737,6840.0,10716.0,9768.0,1299.0,1329.0,1618.0,0.16538216346613133,0.6121443769220366,-0.639582385255452,-0.4345829889456557
-711.0099411010742,6836.0,10740.0,9728.0,1370.0,1303.0,1686.0,0.22359024653574913,0.5733089787423113,-0.7448377582859632,-0.25795528755788627
-711.0177462100983,6780.0,10860.0,9972.0,1363.0,1327.0,1705.0,0.2734418426531498,0.5064603232554324,-0.8149230889209375,-0.06802836759772199
-711.0255365371704,7152.0,10984.0,10048.0,1403.0,1320.0,1786.0,0.3080347480910337,0.4100820083871646,-0.8486531294085435,0.12936462542259736
-711.0333256721497,7004.0,11076.0,10032.0,1479.0,1328.0,1803.0,0.3244343413172146,0.2933555353713979,-0.8380631017410637,0.3260906707361819
-711.041113615036,7104.0,11236.0,9984.0,1471.0,1360.0,2044.0,0.31839626809941474,0.14242519869876702,-0.7858232407816325,0.5107060930549342
-711.0489044189453,7188.0,11424.0,10004.0,1446.0,1442.0,1808.0,0.31016447879587444,-0.0054860311483785375,-0.6845726026029586,0.6596425178238091
-711.0566833019257,7300.0,11476.0,9876.0,1428.0,1493.0,1804.0,0.28813930169713525,-0.1561070651940023,-0.5455718598801798,0.7713349938391777
-711.0645005702972,7296.0,11536.0,9928.0,1411.0,1560.0,1536.0,0.2713855212204934,-0.29127067387190686,-0.3805957213781929,0.8346605239752862
-711.0722949504852,7308.0,11492.0,9960.0,1340.0,1564.0,1765.0,0.22270620395171925,-0.42036917530876683,-0.19552730667589713,0.857590097608241
-711.0800783634186,7268.0,11392.0,9904.0,1307.0,1556.0,1706.0,0.16514021772584744,-0.5264883282691819,-0.004605810823941851,0.8339769392449864
-711.0879335403442,7256.0,11324.0,9860.0,1273.0,1535.0,1617.0,0.10392588156190359,-0.6053854028526497,0.18013373794967613,0.7682836465829489
-711.0957264900208,7312.0,11328.0,9860.0,1214.0,1522.0,1560.0,0.03855150599659155,-0.6564145532419138,0.3496700674485467,0.6673563962442725
-711.1035091876984,7252.0,11316.0,9612.0,1147.0,1458.0,1365.0,-0.01944747297171814,-0.6820848323518722,0.4898533422033083,0.5426101550863026
-711.11132979393,7296.0,11332.0,9592.0,1103.0,1494.0,1309.0,-0.07823317142489494,-0.6853300143577239,0.6057280221179508,0.39660547844214195
-711.1191427707672,7208.0,11404.0,9688.0,1002.0,1435.0,1220.0,-0.13419569120939698,-0.6658480085194975,0.6917194739804304,0.24527966757904768
-711.1269342899323,7176.0,11472.0,9596.0,939.0,1432.0,1133.0,-0.18745869563093867,-0.6290390212318607,0.7489641893782922,0.09067408796854555
-711.13472032547,7180.0,11384.0,9796.0,937.0,1431.0,1093.0,-0.23466478131357846,-0.575260730880451,0.7808029942874745,-0.065986483689114
-711.142514705658,7128.0,11420.0,9768.0,914.0,1450.0,1032.0,-0.2775576025667523,-0.5076045988450163,0.7857374738279727,-0.2188971692626995
-711.1503126621246,7124.0,11384.0,9728.0,932.0,1430.0,985.0,-0.31106191206380923,-0.42900872950603414,0.7656388127386682,-0.36467685051144677
-711.1581020355225,7068.0,11428.0,9852.0,919.0,1406.0,886.0,-0.3379115255877795,-0.3453010231414845,0.7214816398764606,-0.4960314986102764
-711.1658978462219,6960.0,11356.0,9780.0,905.0,1360.0,797.0,-0.35741928872957823,-0.2597058461540065,0.6578940990701702,-0.6099013690147964
-711.1736824512482,7076.0,11356.0,9752.0,846.0,1299.0,783.0,-0.36707660965824074,-0.17009605820456522,0.5833080929828179,-0.7043250402234956
-711.1814794540405,7040.0,11320.0,9616.0,820.0,1209.0,712.0,-0.36910538935046905,-0.08502656015311069,0.49959690196646145,-0.7790600947080284
-711.189267873764,7072.0,11332.0,9484.0,746.0,1115.0,673.0,-0.36342849050056364,-0.003977202817633559,0.4142474457551422,-0.8344477022771227
-711.1970663070679,7032.0,11428.0,9560.0,614.0,1021.0,589.0,-0.3549444680434733,0.07157749071525023,0.33492835047858344,-0.8698931471588561
-711.2048506736755,6984.0,11476.0,9488.0,581.0,856.0,512.0,-0.3430592423071987,0.13269355308241343,0.2596061729229843,-0.8929207200072452
-711.2126457691193,6960.0,11548.0,9616.0,454.0,735.0,435.0,-0.3299477499218991,0.18538813951735614,0.1963011514211919,-0.9045615390886811
-711.2204685211182,6928.0,11576.0,9580.0,367.0,546.0,379.0,-0.31466082221616115,0.22372706704308085,0.14497825859791116,-0.9109972947097414
-711.228265285492,6848.0,11560.0,9656.0,264.0,426.0,301.0,-0.30089823847567254,0.25361989858069434,0.10610280982847226,-0.9131699682275248
-711.23606300354,6820.0,11652.0,9680.0,173.0,267.0,154.0,-0.29478994775671136,0.27144406337154414,0.08169051325894652,-0.9125478985814554
-711.2438230514526,7140.0,11608.0,9684.0,108.0,120.0,88.0,-0.29115570711054567,0.27860094161768745,0.0677520085553763,-0.912699038502511
-711.251610994339,6976.0,11496.0,9972.0,54.0,-254.0,-47.0,-0.29462572243405416,0.25643213971211676,0.07087550413010416,-0.9178316317915723
-711.2593960762024,6956.0,11756.0,9844.0,-50.0,-17.0,-188.0,-0.30841337696417953,0.25493759596489646,0.07935214210393385,-0.9130121842651976
-711.2671809196472,7032.0,11488.0,9884.0,-101.0,-62.0,-264.0,-0.326671616638664,0.2505870968395483,0.09475682463841881,-0.9063734914287004
-711.2749726772308,7036.0,11412.0,9852.0,-100.0,-102.0,-343.0,-0.3505988728216279,0.24218502942383777,0.11286419932364579,-0.8976015343181022
-711.2827649116516,7100.0,11336.0,9916.0,-102.0,-81.0,-368.0,-0.3762732410202718,0.23497775457965267,0.1308857901098607,-0.8866074739658598
-711.2905611991882,6932.0,11184.0,9816.0,-64.0,-137.0,-416.0,-0.4053084294480052,0.22133918553849957,0.14860945846985044,-0.8744422627119772
-711.2983510494232,7128.0,11044.0,9868.0,-31.0,-105.0,-398.0,-0.4334751854260926,0.2088982403760384,0.16212931662930052,-0.861495718780381
-711.3061430454254,6920.0,11056.0,9848.0,-46.0,-92.0,-414.0,-0.46218296608788506,0.19749863922061534,0.17635042172973148,-0.846334285090682
-711.3139202594757,7196.0,11152.0,9708.0,-62.0,-69.0,-420.0,-0.49077831883487066,0.1880744981682208,0.19068031009759123,-0.8290992969732132
-711.3217060565948,7140.0,11132.0,9692.0,-59.0,-73.0,-389.0,-0.5164832001503556,0.17850344023183717,0.20420179682929768,-0.8122088721255961
-711.3294932842255,7172.0,11244.0,9728.0,-39.0,-105.0,-318.0,-0.5363739897428905,0.16684354375524085,0.21642696680654197,-0.7985145853855187
-711.3372836112976,7056.0,11240.0,9796.0,-17.0,-96.0,-347.0,-0.5582839833522072,0.15408228501546664,0.22691259491605253,-0.782999564268888
-711.3450798988342,7040.0,11132.0,9768.0,18.0,-112.0,-302.0,-0.5767851544633313,0.13927627820187063,0.23497526465275478,-0.7698750735816259
-711.3528752326965,6992.0,11176.0,9752.0,59.0,-153.0,-360.0,-0.598267261885142,0.11833057315507031,0.2428101540218273,-0.7543986929450132
-711.3606686592102,6932.0,11044.0,9736.0,111.0,-160.0,-380.0,-0.6206837138661708,0.09363612152307635,0.2474723970540873,-0.7380659975799705
-711.3684895038605,7012.0,11112.0,9948.0,106.0,-201.0,-337.0,-0.6385884999200887,0.06737427451860566,0.25398774096577437,-0.723295003675544
-711.3762881755829,6932.0,11112.0,9688.0,109.0,-227.0,-329.0,-0.654612861288168,0.03939675302904939,0.26137914224877257,-0.7082449023354713
-711.3840887546539,6944.0,11168.0,9668.0,90.0,-296.0,-262.0,-0.6640254668931465,0.009719742167385937,0.2733090641439203,-0.6959007554143858
-711.3918719291687,6904.0,11248.0,9572.0,42.0,-325.0,-235.0,-0.6702458789532447,-0.01830067545546201,0.28945846181273654,-0.6831173734498861
-711.3996710777283,7048.0,11024.0,9604.0,-249.0,-365.0,-208.0,-0.6732997992390309,-0.030972625267394072,0.3248700691029143,-0.6634512152598667
-711.4074811935425,7104.0,11300.0,9408.0,-34.0,-383.0,-219.0,-0.6748024628485237,-0.057557216450884595,0.34833434012360354,-0.6480678903160119
-711.4153070449829,7148.0,11504.0,9400.0,-107.0,-461.0,-176.0,-0.6707278704561438,-0.08282938451755402,0.38012031610094815,-0.6314839365661845
-711.4231426715851,7156.0,11772.0,9396.0,-175.0,-429.0,-124.0,-0.6641209394650687,-0.10046824815663676,0.4134545614943956,-0.6147396477012428
-711.4309315681458,7268.0,11580.0,9424.0,-246.0,-402.0,-145.0,-0.6590566225177346,-0.11310371508833778,0.44810425291434824,-0.5933418040799132
-711.438728094101,7276.0,11588.0,9632.0,-321.0,-465.0,-151.0,-0.6511327314516108,-0.1246436409825989,0.4891880681487462,-0.566732002604285
-711.4465281963348,7388.0,11480.0,9680.0,-303.0,-390.0,-189.0,-0.646563583606705,-0.1348035570960541,0.5235737658822088,-0.5381951737314523
-711.4543421268463,7392.0,11268.0,9688.0,-312.0,-396.0,-95.0,-0.6360924135736872,-0.14014642195391228,0.5587550268848425,-0.5133597585888829
-711.4621324539185,7404.0,11536.0,9736.0,-255.0,-362.0,-101.0,-0.6257207848295879,-0.14715285373121648,0.5884463100504354,-0.4904594552651938
-711.4699313640594,7416.0,11364.0,9880.0,-228.0,-299.0,-106.0,-0.6176008147257872,-0.15297578769172826,0.6126903691801088,-0.4688050272171594
-711.4777321815491,7440.0,11328.0,9832.0,-175.0,-274.0,-104.0,-0.6093992068703776,-0.1603557065658211,0.6328297509291139,-0.4499390629591149
-711.4855535030365,7396.0,11236.0,9484.0,-114.0,-212.0,-67.0,-0.6019021230815574,-0.16638438421750223,0.6473748191713575,-0.4369621430070668
-711.4933602809906,7444.0,11272.0,9924.0,-110.0,-121.0,-7.0,-0.5969975075673875,-0.165695092885618,0.6576443023406875,-0.4285359771953623
-711.5011668205261,7316.0,11188.0,9556.0,-48.0,-81.0,47.0,-0.5913876405907714,-0.16361397578196993,0.6642022384946638,-0.42699708648183443
-711.5089476108551,7240.0,11128.0,9472.0,-63.0,-246.0,63.0,-0.5756558498072656,-0.1659289313557296,0.679865405663025,-0.42293139219555576
-711.5167653560638,7156.0,11196.0,9340.0,-91.0,35.0,115.0,-0.574882981618884,-0.15331539952782156,0.6829710827612848,-0.4237386527383178
-711.5245816707611,7116.0,11240.0,9388.0,-139.0,41.0,188.0,-0.5722378806086175,-0.13367746414690682,0.6883249081271057,-0.42530337928074546
-711.5323753356934,7028.0,11040.0,9004.0,-114.0,123.0,13.0,-0.5805374172107017,-0.12271576022042731,0.6863951691940466,-0.42045073566224894
-711.5401701927185,7012.0,11296.0,9244.0,-171.0,41.0,329.0,-0.5725737043672491,-0.09287964466685453,0.6936582662697823,-0.4270491005836737
-711.5479516983032,7024.0,11384.0,9392.0,-239.0,39.0,319.0,-0.564760452970306,-0.060224502815554776,0.7026904309757531,-0.4285379775895065
-711.5557379722595,7004.0,11472.0,9384.0,-306.0,2.0,428.0,-0.5500240374203123,-0.018888009007221165,0.7154589856469685,-0.4303896388536937
-711.5635368824005,7128.0,11444.0,9372.0,-292.0,-52.0,499.0,-0.5279530299191362,0.02421630013000153,0.7287494306827211,-0.4354347669706994
-711.5713467597961,7156.0,11440.0,9216.0,-228.0,-47.0,558.0,-0.5026870427650921,0.06824770339192811,0.737323586995758,-0.44609630807430223
-711.5791683197021,7280.0,11328.0,9572.0,-214.0,-146.0,613.0,-0.4674668673417001,0.11113450564736128,0.7471085893505348,-0.4592957710570693
-711.5870082378387,7288.0,11296.0,9712.0,-82.0,-89.0,672.0,-0.43325887985718997,0.1543865840408559,0.7461499028314973,-0.48136456890556056
-711.5948050022125,7396.0,11156.0,9776.0,50.0,-108.0,702.0,-0.39673161841261595,0.19323611653413714,0.7372217198141886,-0.5116326436543331
-711.6026079654694,7484.0,11220.0,9752.0,153.0,-34.0,723.0,-0.36416444734890113,0.23239545772131176,0.7178505179536128,-0.5459553465177364
-711.6103959083557,7580.0,11208.0,9788.0,215.0,53.0,727.0,-0.33654187416388665,0.2729785662846616,0.6896316993494026,-0.5801985768130462
-711.6181921958923,7672.0,11100.0,9684.0,259.0,193.0,769.0,-0.31462646875200156,0.320527496087241,0.6507733017627853,-0.6121816880023875
-711.6260130405426,7640.0,11156.0,9728.0,343.0,335.0,761.0,-0.30172452273675476,0.37103754049535326,0.6000776062349538,-0.6412490330735514
-711.6338152885437,7684.0,11152.0,9832.0,363.0,263.0,834.0,-0.2796781821880021,0.41839822939062443,0.5439346084656291,-0.6714597365174979
-711.64160323143,7440.0,11248.0,9964.0,366.0,711.0,841.0,-0.2761440989034006,0.4885103955542709,0.4719564092041678,-0.6799699830781849
-711.6493909358978,7604.0,11220.0,9816.0,393.0,838.0,907.0,-0.271892977036923,0.5625008163935042,0.38724527984233953,-0.6780177975794359
-711.6572074890137,7492.0,11224.0,9688.0,374.0,999.0,1069.0,-0.25854323643394106,0.6432708516962516,0.2863933082830843,-0.6613145085531635
-711.6650052070618,7676.0,11232.0,9752.0,321.0,1094.0,1132.0,-0.23626551323221878,0.7203869740593019,0.1778293195717955,-0.6273738502387801
-711.6727955341339,7336.0,11172.0,9812.0,281.0,1203.0,1166.0,-0.20648603789573555,0.789902085763255,0.0635724290724102,-0.5739135451640898
-711.6806116104126,7248.0,11164.0,9776.0,287.0,1343.0,1243.0,-0.1692307740983261,0.8478712268985307,-0.05997928193734291,-0.49887655129695385
-711.6884677410126,7084.0,11108.0,9800.0,297.0,1377.0,1238.0,-0.12833933330381642,0.8851663380300739,-0.18248784917713376,-0.4082986094126018
-711.6962587833405,7088.0,11008.0,9772.0,302.0,1434.0,1283.0,-0.08187291247946908,0.8995314455039622,-0.30411685906850183,-0.3027423670086345
-711.7040462493896,6824.0,10880.0,9892.0,292.0,1390.0,1050.0,-0.03961901192677705,0.895708126760793,-0.399517191782819,-0.1911106983362966
-711.7118365764618,6696.0,10788.0,9888.0,457.0,1410.0,1306.0,-0.004254856209727616,0.859409617204355,-0.5066678972818459,-0.06844448786638292
-711.7196190357208,6528.0,10668.0,9808.0,526.0,1510.0,1024.0,0.028871698406310143,0.8118639193022545,-0.5792932356799899,0.06680380723974473
-711.7274105548859,6512.0,10596.0,9752.0,592.0,1475.0,1263.0,0.05339019987560346,0.7295186025354436,-0.6514757837700939,0.2013241124980275
-711.7351825237274,6468.0,10620.0,9900.0,594.0,1491.0,1174.0,0.07863176747243314,0.6299033034642709,-0.6983888913734151,0.3305931485000443
-711.7429611682892,6440.0,10660.0,9808.0,536.0,1456.0,1141.0,0.10362875793148461,0.5147900122099424,-0.7254547942719947,0.44493557435458353
-711.7507553100586,6504.0,10576.0,9736.0,501.0,1512.0,1082.0,0.13306313181970172,0.3866706219460624,-0.7306466327449832,0.5467499713146728
-711.7585370540619,6584.0,10556.0,9616.0,354.0,1453.0,1034.0,0.16249344711413877,0.25235800035988387,-0.7226722389229804,0.6226203934897829
-711.7663161754608,6496.0,10572.0,9724.0,268.0,1324.0,902.0,0.18928364331659037,0.12608007014226638,-0.7021062324244995,0.6747757825206783
-711.7741296291351,6316.0,10664.0,9740.0,107.0,1239.0,746.0,0.21844083394445715,0.00912756722732202,-0.6780578737558167,0.7017391320283497
-711.781941652298,6292.0,10800.0,10184.0,214.0,1027.0,568.0,0.243026523419858,-0.08281165209845377,-0.6422705206339069,0.7221972843453733
-711.7897562980652,6328.0,10980.0,10520.0,-146.0,706.0,421.0,0.2544098365342779,-0.15354387437030456,-0.6317041539436943,0.7159956533445155
-711.7975571155548,6536.0,11248.0,10412.0,-208.0,381.0,200.0,0.25997243612353643,-0.19276666239475426,-0.6329460951682037,0.7033026282735645
-711.8054187297821,6796.0,11716.0,10572.0,-251.0,169.0,31.0,0.26315472650054084,-0.21040872534826113,-0.643714024061237,0.6871026222076544
-711.8132765293121,7096.0,11636.0,10360.0,-204.0,7.0,-104.0,0.2660504030211068,-0.20956182909950824,-0.6575165840790318,0.6730326622815692
-711.8210873603821,7172.0,11836.0,10256.0,-125.0,-239.0,-105.0,0.2561981372884899,-0.19227018344426516,-0.6720706402858312,0.6676194615752373
-711.8288931846619,7384.0,11648.0,10024.0,-42.0,-410.0,-164.0,0.24088351725042595,-0.15950935849930245,-0.6858810088497321,0.6679065334067923
-711.8366889953613,7616.0,11592.0,9848.0,48.0,-575.0,-220.0,0.2197016076616752,-0.11157625808482002,-0.6971781399337433,0.6732195655365275
-711.8445279598236,7988.0,11256.0,9604.0,140.0,-751.0,-253.0,0.18983328836436766,-0.04917140021859239,-0.7040332354055249,0.6825560046426541
-711.852324962616,8360.0,10964.0,9340.0,222.0,-848.0,-187.0,0.14943277912928468,0.01654368333203085,-0.7034561591316039,0.694655010234087
-711.8601319789886,8492.0,10832.0,9332.0,380.0,-825.0,-46.0,0.1007738210078132,0.07418524045930762,-0.688878928129607,0.7139937040874266
-711.8679566383362,8676.0,10524.0,9560.0,498.0,-1014.0,-70.0,0.040813919525304096,0.1453310501826109,-0.6630049210763486,0.7332377407460327
-711.8757989406586,8812.0,10464.0,9688.0,487.0,-599.0,86.0,-0.005448897729524761,0.18007491227553005,-0.6335179629635088,0.7524615113645745
-711.8836035728455,8980.0,10328.0,9684.0,484.0,-749.0,214.0,-0.06824338984834989,0.21657301061960252,-0.6027087505771754,0.7649713280841759
-711.8914358615875,9208.0,10468.0,9668.0,465.0,-297.0,295.0,-0.11212497276769164,0.21784435243114267,-0.574501580109769,0.7809735994558835
-711.8993000984192,9416.0,10508.0,9472.0,458.0,-110.0,445.0,-0.15637579776283136,0.19828197359774224,-0.5496677815387241,0.7963015752580926
-711.907155752182,9516.0,10676.0,9848.0,433.0,81.0,259.0,-0.1777584124002452,0.1741927665555892,-0.5245072680482364,0.8142180007008134
-711.9149613380432,9424.0,10712.0,10028.0,398.0,239.0,666.0,-0.2196076836390442,0.12028929010452659,-0.5086400234619265,0.823764698506493
-711.9227650165558,9448.0,10996.0,10036.0,376.0,358.0,831.0,-0.266413633543584,0.05031206600518096,-0.4952377938488338,0.8253677964520637
-711.9305553436279,9332.0,10908.0,9820.0,361.0,434.0,916.0,-0.3138410554431375,-0.02877132144421359,-0.48107810479350105,0.818070816047721
-711.9383389949799,9264.0,10996.0,9880.0,275.0,526.0,933.0,-0.3560445287083802,-0.1124765279978301,-0.47116601056641294,0.7991144565788504
-711.9461336135864,9056.0,11052.0,9848.0,266.0,558.0,1071.0,-0.4028845683130448,-0.20249918565360162,-0.4566363324304455,0.7669167910075455
-711.9539170265198,8880.0,11104.0,9720.0,235.0,578.0,1087.0,-0.44585546398757675,-0.29101804702943407,-0.43924993340769897,0.7235889009215998
-711.9617011547089,8552.0,11064.0,9660.0,124.0,569.0,1048.0,-0.48451116948546824,-0.36992353946848,-0.424478923601762,0.669494693786908
-711.9694964885712,8292.0,11020.0,9620.0,51.0,521.0,1077.0,-0.523734171448007,-0.44002067841821474,-0.40640337189673903,0.6057397292014158
-711.9772839546204,8100.0,10876.0,9584.0,-20.0,766.0,1196.0,-0.5564043274037752,-0.5180582091593675,-0.3933957280552296,0.5169813512273316
-711.9850461483002,7856.0,10700.0,9636.0,-112.0,450.0,1155.0,-0.5947400911911883,-0.5692260900113246,-0.3657959379136693,0.43411889406725396
-711.9928524494171,8040.0,10720.0,9356.0,-300.0,439.0,999.0,-0.6305202284854513,-0.5992553202212568,-0.3484935944421285,0.3491267925696604
-712.0006363391876,8284.0,10840.0,9452.0,-436.0,379.0,936.0,-0.6673558066694719,-0.6124485897429066,-0.3320232386161359,0.26325561958924215
-712.0084800720215,8308.0,10700.0,9948.0,-372.0,358.0,1043.0,-0.6973445487102928,-0.6259861552199579,-0.3039692852811549,0.17162338844876818
-712.0162870883942,8012.0,10452.0,9764.0,-210.0,331.0,1179.0,-0.7136078477019715,-0.6456227046368364,-0.2611694365606459,0.07566827844064426
-712.0240762233734,7952.0,9992.0,9832.0,-60.0,361.0,1265.0,-0.7125109703879181,-0.668651975113655,-0.2112317545551221,-0.024774969647607843
-712.031861782074,8068.0,9636.0,9812.0,117.0,327.0,1314.0,-0.6920416392508967,-0.694506580751002,-0.15391729508924826,-0.1226721040371148
-712.039657831192,8232.0,9248.0,9956.0,372.0,433.0,1447.0,-0.6423668900634214,-0.7250365829738766,-0.0953468662584033,-0.2293375394359051
-712.0474495887756,8372.0,9188.0,9652.0,600.0,549.0,1650.0,-0.5597102442277347,-0.7516827753277702,-0.03320726058557663,-0.34726751305941644
-712.0552408695221,8500.0,8916.0,9788.0,819.0,710.0,1852.0,-0.44021255047474106,-0.7621683047800973,0.028340191042152216,-0.4738240381880711
-712.0630342960358,8412.0,8904.0,9876.0,920.0,830.0,1962.0,-0.2940436091673419,-0.7431312724944934,0.08714041694934653,-0.5947275136417117
-712.0708231925964,8256.0,8532.0,9908.0,967.0,994.0,2047.0,-0.12973290425942352,-0.6849070364069597,0.1409021169099934,-0.703006627623761
-712.0786416530609,8556.0,8468.0,9856.0,1130.0,1095.0,2189.0,0.05701439627623116,-0.5874590657340483,0.1848642730789338,-0.7857903061524323
-712.0864460468292,8536.0,8888.0,9868.0,1307.0,1247.0,2354.0,0.25679603288335123,-0.44277583494264605,0.21487479075242333,-0.8317657012556587
-712.0942332744598,8416.0,9220.0,9836.0,1403.0,1265.0,2429.0,0.44770077155706006,-0.2645279838751267,0.22698538036544874,-0.8234479959259883
-712.1020615100861,8528.0,9716.0,9752.0,1397.0,1198.0,2527.0,0.615323789053873,-0.07115617480354215,0.22331685430435555,-0.7526240867759414
-712.1098749637604,8472.0,9996.0,9840.0,1514.0,1095.0,2597.0,0.7454823897421116,0.12782348550224507,0.19120096686118107,-0.6255872068783034
-712.117668390274,8308.0,10580.0,9836.0,1575.0,1108.0,2661.0,0.8216651000473991,0.322231011713783,0.1416092908972247,-0.44830842863545917
-712.1254689693451,8224.0,10672.0,10148.0,1676.0,1171.0,2672.0,0.8296393376995234,0.5001216048025836,0.08115066256121467,-0.23450270727021588
-712.1332602500916,8228.0,10612.0,9952.0,1668.0,1231.0,2637.0,0.7698431573084401,0.6379189059458465,0.01997104743156812,-0.0014628214902563563
-712.1410579681396,8204.0,10552.0,9940.0,1848.0,1267.0,2740.0,0.6355386858851589,0.7327387232414466,-0.045698998839561474,0.238947993736967
-712.1488411426544,8140.0,10348.0,9964.0,2076.0,1411.0,2836.0,0.4266390875889329,0.7662542939617525,-0.10020942526293378,0.46988457839657977
-712.156617641449,7752.0,9896.0,9956.0,2381.0,1622.0,2889.0,0.15373707988553587,0.7188069210158707,-0.12748945916296808,0.6659038657120755
-712.1644446849823,7584.0,9284.0,10040.0,2686.0,1715.0,3082.0,-0.16296887492931136,0.5789513381468394,-0.13208126067843978,0.7879156264726908
-712.1722493171692,7456.0,8820.0,9772.0,2857.0,1806.0,3234.0,-0.4710989579802783,0.34878843250451436,-0.11530366734203477,0.8019460489574203
-712.1800439357758,7472.0,8688.0,9620.0,3024.0,1724.0,3446.0,-0.7236037708520765,0.06346727762495351,-0.0728010278067707,0.6834248296848825
-712.1878716945648,7556.0,8372.0,9368.0,3301.0,1635.0,3717.0,-0.8670311265091427,-0.24211127067634047,0.0005125728262905239,0.43547548213977844
-712.1956634521484,7532.0,8128.0,9652.0,3305.0,1407.0,4064.0,-0.8602147740482238,-0.49298053297523853,0.09565891372184074,0.08860083996312061
-712.2034578323364,7620.0,8360.0,9252.0,3325.0,1284.0,4068.0,-0.6867212619394344,-0.6496659469536447,0.181038748318166,-0.2712435019987145
-712.2112417221069,7812.0,8476.0,9300.0,3039.0,1183.0,4146.0,-0.3951663131978941,-0.6705078377933384,0.24822285211554934,-0.5767566558427463
-712.2190392017365,8004.0,9132.0,9216.0,2953.0,1254.0,4099.0,-0.03940244485225169,-0.5647964273233024,0.2695758275158451,-0.7789616911258513
-712.2268369197845,8044.0,9540.0,9176.0,2984.0,1217.0,4065.0,0.32371629978756106,-0.3613270716792189,0.239342034987766,-0.8410504710250661
-712.2346014976501,8132.0,9920.0,9132.0,2972.0,1308.0,3951.0,0.6210450780724524,-0.09020093697913474,0.1666485375305233,-0.7605228904569576
-712.2423889636993,7944.0,10284.0,9024.0,2889.0,1375.0,3701.0,0.7996020542905735,0.19452324116362005,0.07196551726384179,-0.5635762838750782
-712.2501809597015,8108.0,10616.0,8704.0,2883.0,1514.0,3613.0,0.8458177864331132,0.4536761061716085,-0.023779922314092546,-0.2796511722433713
-712.2579691410065,8036.0,10712.0,8396.0,2901.0,1606.0,3568.0,0.7559344377284292,0.643765896468929,-0.10820087991539187,0.04920534508866412
-712.2657544612885,8112.0,10736.0,8228.0,2779.0,1568.0,3542.0,0.553471517970438,0.7264078334242857,-0.177197892977246,0.36688124108457565
-712.2735404968262,7976.0,10860.0,8032.0,2641.0,1601.0,3604.0,0.27300089049892284,0.6900131249052222,-0.2251770347227974,0.6313855432925064
-712.2813220024109,7832.0,10920.0,7888.0,2507.0,1565.0,3706.0,-0.047438821597130844,0.545756081911117,-0.2520781885360593,0.7977195272317713
-712.2891438007355,7432.0,10804.0,7776.0,2418.0,1443.0,3924.0,-0.3722719632056807,0.3215213375420556,-0.25472993987752773,0.8325564681426402
-712.2969417572021,7592.0,10776.0,7716.0,2375.0,1353.0,4063.0,-0.647401448938475,0.05120435918363706,-0.22059096037269676,0.7277287308570467
-712.3047535419464,7652.0,10720.0,7708.0,2217.0,1191.0,4101.0,-0.8250737529204671,-0.21086301222048734,-0.1522364027135184,0.5016115728408642
-712.3125722408295,7904.0,10332.0,7744.0,2159.0,1030.0,4132.0,-0.8792864072292446,-0.43046197267598646,-0.05127025401674077,0.19730500549870572
-712.3203527927399,8084.0,10188.0,7764.0,2133.0,838.0,4092.0,-0.8013304610329409,-0.5801184883391776,0.06956050326902782,-0.1284265085282689
-712.3281376361847,8172.0,10024.0,7984.0,2207.0,633.0,4028.0,-0.6009779202390039,-0.6514377194941515,0.18970967090997204,-0.42245079922837264
-712.3359615802765,7836.0,9828.0,8236.0,2226.0,383.0,3773.0,-0.31906834108325427,-0.6455841846426934,0.28193850026919165,-0.6339772364395807
-712.3437933921814,7924.0,9788.0,8548.0,2272.0,361.0,3358.0,-0.013414591452626681,-0.5712339085386676,0.31590756207682147,-0.7574392930753429
-712.3515908718109,8388.0,9964.0,8936.0,1992.0,112.0,3091.0,0.27333075089275605,-0.457896766083395,0.3218594297762007,-0.7823217750330803
-712.3593757152557,8900.0,9920.0,9216.0,2163.0,46.0,2914.0,0.5313917035454513,-0.3062799481064643,0.27793160026398644,-0.7393033723483644
-712.3671712875366,9144.0,9568.0,9504.0,2498.0,-117.0,2831.0,0.744265779114048,-0.12276346131358729,0.17737273957251604,-0.6320889920435309
-712.3749594688416,9512.0,9660.0,9640.0,3053.0,-385.0,2835.0,0.8823288763717315,0.09228935335062446,0.013172668373748942,-0.4613078256290872
-712.3827402591705,9852.0,9412.0,9864.0,3565.0,-693.0,2925.0,0.9004049710141493,0.31702716700172756,-0.19225933293529093,-0.22759835776021053
-712.3905508518219,10328.0,9624.0,9988.0,3857.0,-925.0,2985.0,0.768409800054941,0.5060678547898432,-0.38941794907274485,0.042371764984584344
-712.3983500003815,10696.0,9832.0,10368.0,4598.0,-859.0,3086.0,0.4714662295158414,0.640153966331454,-0.5087090989371301,0.3303597228398107
-712.4061391353607,10884.0,10008.0,10284.0,4809.0,-702.0,3044.0,0.07505172199040128,0.6466355361140869,-0.5087712898122803,0.5633662193666493
-712.4139187335968,10844.0,10492.0,10016.0,4855.0,-513.0,3011.0,-0.3306209501244547,0.5096492239972239,-0.39635240493974483,0.6883692518672742
-712.4217128753662,10772.0,10660.0,9548.0,4721.0,-173.0,2931.0,-0.6501743439298031,0.25405751350714484,-0.21406361973078805,0.6833043751021719
-712.4295110702515,10732.0,10756.0,8704.0,4511.0,238.0,2898.0,-0.8318149483582876,-0.06366748346240522,-0.0204083680123369,0.5510116530095683
-712.4372973442078,10400.0,11104.0,8400.0,4232.0,642.0,2881.0,-0.8622662696326334,-0.3710203318741856,0.139334281899689,0.3153200778213939
-712.445104598999,10100.0,11204.0,8188.0,3953.0,980.0,2793.0,-0.7558322493992449,-0.6073867825367024,0.24343778856141235,0.023172187383144176
-712.4528896808624,9784.0,10900.0,7832.0,3860.0,1153.0,2713.0,-0.5351939110313002,-0.7425953700897013,0.2937727162559658,-0.2753492057369188
-712.460681438446,9660.0,10568.0,7756.0,3878.0,1240.0,2624.0,-0.23274363553744393,-0.7613433113078489,0.2879951985627086,-0.5322081623278989
-712.4685015678406,9592.0,10620.0,7784.0,4003.0,1294.0,2484.0,0.10672318756486032,-0.6623621435043064,0.22143638901600468,-0.7077093172397327
-712.4762892723083,9412.0,10648.0,7812.0,4141.0,1154.0,2385.0,0.43288892636631865,-0.4653389755070092,0.10487722331699047,-0.764897106369753
-712.4840624332428,9596.0,10700.0,8136.0,4201.0,960.0,2351.0,0.690857240999254,-0.20308282700108057,-0.04050013211930839,-0.6927000629669859
-712.4918878078461,9736.0,10816.0,8348.0,4262.0,721.0,2282.0,0.8340828644635006,0.08230862118465548,-0.19732373451573543,-0.5085217889961119
-712.499675989151,10236.0,10920.0,8612.0,4240.0,582.0,2299.0,0.8429474102832925,0.34725895701345594,-0.3313447063631296,-0.24302585425371692
-712.507465839386,10420.0,11100.0,8948.0,4224.0,514.0,2215.0,0.7165417970166946,0.5577397209556042,-0.4155162030782333,0.05329673325729401
-712.5152835845947,10544.0,11356.0,8972.0,4183.0,432.0,2275.0,0.478171601056665,0.6780699833053091,-0.4427230364840216,0.33995489502228254
-712.5230665206909,10808.0,11388.0,9228.0,4170.0,344.0,2246.0,0.16456964524038065,0.6975358902927433,-0.40413565925992095,0.5683615772846669
-712.5308592319489,10668.0,11428.0,9244.0,4088.0,289.0,2162.0,-0.16805931354601167,0.6170885333527893,-0.30473151537552007,0.7057595289274426
-712.5386688709259,10788.0,11560.0,9116.0,3965.0,208.0,2298.0,-0.48048695157534904,0.4502208869296359,-0.17374754901142417,0.7322876699430648
-712.5464587211609,10912.0,11624.0,9376.0,3797.0,342.0,1834.0,-0.6957486639579785,0.2263206437507544,-0.016181577806536278,0.6815063604638059
-712.5542516708374,10888.0,11652.0,9244.0,3722.0,360.0,1643.0,-0.8161015093186248,-0.022130675888858215,0.1423980091220369,0.5596528983849229
-712.5620586872101,10848.0,11596.0,9000.0,3619.0,288.0,1570.0,-0.8406084660336209,-0.2594423028242969,0.2854203299456362,0.3802661352152633
-712.5698812007904,10848.0,11752.0,8892.0,3652.0,676.0,1423.0,-0.7764936898117528,-0.4858132515326329,0.36796248439363843,0.16014569740296383
-712.5776824951172,11024.0,11396.0,8260.0,3543.0,1000.0,1301.0,-0.6405267310434486,-0.6606377622897177,0.38329099338099676,-0.07982022455892392
-712.5854678153992,11184.0,11452.0,8276.0,3393.0,1028.0,1126.0,-0.44851505696006383,-0.7660421015936373,0.34913013432386786,-0.30020308388341405
-712.5933027267456,11320.0,11516.0,8428.0,3258.0,1583.0,947.0,-0.2416501428597478,-0.7824654432815025,0.2519326236863648,-0.5156384311207318
-712.601096868515,11252.0,11284.0,8480.0,3314.0,1819.0,684.0,-0.02336699862339314,-0.7161986696545676,0.10527008082790816,-0.6895155248744205
-712.6088914871216,11036.0,11460.0,8548.0,2765.0,2144.0,377.0,0.14563120017808243,-0.5632803734909883,-0.04022631519376171,-0.8123352866523011
-712.6166746616364,10928.0,11624.0,8540.0,2415.0,2338.0,79.0,0.26677263551678887,-0.3521373611987677,-0.170855287934049,-0.8807043263050138
-712.6245057582855,10816.0,11676.0,8316.0,2154.0,2347.0,-245.0,0.3361638623800215,-0.11357365200970439,-0.2789375713176983,-0.8923501075846343
-712.6322977542877,10732.0,11832.0,8460.0,1902.0,2426.0,-558.0,0.35746541264921905,0.1394684291312285,-0.34886221739932827,-0.8550217478558161
-712.6401000022888,10140.0,11728.0,8376.0,1713.0,2453.0,-825.0,0.3376879920092769,0.38688198396805773,-0.376744058367291,-0.7709429713141078
-712.6478929519653,9760.0,11728.0,8524.0,1598.0,2384.0,-1076.0,0.28003668614236293,0.6082119328285999,-0.36496336761722165,-0.6468844096720828
-712.655698299408,9564.0,11584.0,8448.0,1447.0,2392.0,-1311.0,0.19845783591424535,0.7920580431293,-0.3076978605785038,-0.48844710079376047
-712.6634953022003,9372.0,11688.0,8292.0,1359.0,2355.0,-1524.0,0.09928316917908014,0.9233466596463709,-0.21182766532053038,-0.30447140857968985
-712.671311378479,9360.0,11828.0,8200.0,1224.0,2340.0,-1712.0,-0.0014559185098947435,0.9910826062108048,-0.08304189420760372,-0.10419784918175846
-712.6791310310364,9372.0,11796.0,8012.0,1076.0,2117.0,-1975.0,-0.093740350024858,0.9891975863658986,0.07508106761783964,0.08404591120609527
-712.6869223117828,9828.0,12148.0,8064.0,977.0,1997.0,-2183.0,-0.16897671192649535,0.9188516741920469,0.24550256703888937,0.2586251365167321
-712.6947298049927,9632.0,12288.0,8240.0,430.0,2066.0,-2559.0,-0.1824238684731192,0.7789819967426984,0.41304176831267525,0.4350920346216407
-712.7025249004364,9580.0,12332.0,8788.0,86.0,2154.0,-3047.0,-0.14277419889088142,0.5570289135023049,0.5602085829751929,0.5962387619187762
-712.7103106975555,9416.0,12680.0,9020.0,-17.0,2340.0,-3576.0,-0.06579688263935592,0.24403722707561173,0.6595671731472679,0.7078755159932507
-712.718104839325,9416.0,12888.0,9504.0,-581.0,2540.0,-4286.0,0.05965129706207722,-0.1432108706588184,0.6414416429496116,0.7513221599114843
-712.7258894443512,9508.0,13068.0,9852.0,-869.0,3018.0,-4970.0,0.18295628525043425,-0.5549927955241317,0.4786682557301501,0.6552760453121467
-712.7336609363556,9124.0,13160.0,9992.0,-1090.0,3299.0,-5301.0,0.25853090690023883,-0.8597419425002107,0.18571018181690752,0.3993961577842671
-712.7414507865906,8328.0,13176.0,10532.0,-1201.0,3261.0,-5358.0,0.2640472793360456,-0.9497892501884361,-0.16129810032541564,0.04650093905645802
-712.74924659729,7796.0,12892.0,10388.0,-1341.0,3134.0,-5309.0,0.1914051878611788,-0.8046842223129567,-0.4683487454588723,-0.3106393552779809
-712.7570233345032,7852.0,12592.0,9928.0,-1391.0,3020.0,-5078.0,0.07019001455958035,-0.4757088840507349,-0.6510984471565943,-0.5872352438347019
-712.7648153305054,7488.0,12208.0,9880.0,-1477.0,2486.0,-4759.0,-0.08436712711204984,-0.0780358895754453,-0.6814287137956555,-0.7228052959240315
-712.7726068496704,7868.0,11992.0,9008.0,-1419.0,2263.0,-4519.0,-0.22223878053691898,0.31263943870054284,-0.5811390227011325,-0.7177352869188232
-712.7804408073425,8888.0,11744.0,8020.0,-1265.0,2631.0,-4506.0,-0.3046813256228587,0.6614433634716463,-0.389351943543845,-0.563974317495614
-712.7882435321808,9876.0,11648.0,7964.0,-947.0,2945.0,-4368.0,-0.3306090684897103,0.8879149713767047,-0.15301461867200794,-0.2808757268083724
-712.7960119247437,9848.0,11732.0,8944.0,-711.0,3018.0,-4084.0,-0.30604246602426743,0.9464965538151746,0.08567203392683619,0.05605876567159291
-712.8038713932037,9324.0,11824.0,9752.0,-668.0,2977.0,-4088.0,-0.23119686357260724,0.8396919444295025,0.3111925258151647,0.3802954911791209
-712.8117365837097,8600.0,12540.0,10216.0,-854.0,3196.0,-3745.0,-0.12012098437355674,0.594884285980158,0.45174666049464013,0.653917877213145
-712.8195555210114,8064.0,12956.0,9868.0,-1358.0,3538.0,-3771.0,0.02373486196749506,0.23408672522053794,0.48291141737246285,0.8434670262519023
-712.8273537158966,7404.0,13664.0,9708.0,-1817.0,3879.0,-3885.0,0.1636518590742844,-0.19551183695080798,0.38952798514100995,0.8850204175190742
-712.8351941108704,6760.0,14696.0,9464.0,-2609.0,4044.0,-3868.0,0.24677819817565494,-0.595491997587218,0.1583404989735007,0.7479425700544025
-712.8429934978485,6256.0,14896.0,9336.0,-3657.0,3772.0,-3877.0,0.22382500769865463,-0.8462779557160793,-0.17429921149412173,0.450927679867003
-712.8508026599884,5996.0,14752.0,9116.0,-4092.0,3657.0,-3779.0,0.10881982558773835,-0.8753805505672801,-0.46944100129510624,0.03863008608103211
-712.8585994243622,4384.0,14204.0,8752.0,-4443.0,3214.0,-4073.0,-0.07326253606838129,-0.6540475075344698,-0.6571592806868585,-0.3674182065493048
-712.866774559021,4052.0,13056.0,8512.0,-4487.0,2788.0,-4315.0,-0.2645906965867284,-0.24775032396337912,-0.6679335239183559,-0.6499818058082839
-712.8756384849548,3636.0,12064.0,8432.0,-4151.0,1644.0,-4472.0,-0.44850701460284936,0.17697310126941831,-0.49643034727738233,-0.7218579427984296
-712.8835136890411,3732.0,11444.0,8600.0,-3646.0,847.0,-4427.0,-0.5660501626843973,0.5038754498468643,-0.20653545461349423,-0.6189021330987515
-712.891407251358,3936.0,10336.0,8856.0,-3127.0,91.0,-4607.0,-0.60780444374944,0.6711537503295828,0.14435131608881963,-0.3991103846311142
-712.8992269039154,4568.0,9896.0,8760.0,-2570.0,-475.0,-4283.0,-0.5500814705587342,0.6750273025142652,0.4671752437372569,-0.15328342456798705
-712.9070415496826,5168.0,9788.0,9396.0,-2156.0,-943.0,-4328.0,-0.40654233996735906,0.5414396903056443,0.7315650167667382,0.07986872866569465
-712.9148418903351,5684.0,9756.0,9608.0,-1896.0,-1270.0,-3865.0,-0.19451742575957,0.345159182017577,0.8808781814331031,0.25900142783378005
-712.9226706027985,6576.0,10024.0,9796.0,-1728.0,-723.0,-3715.0,-0.002726219170915016,0.09883921317342752,0.9079489043900698,0.40724951158369976
-712.9304618835449,6836.0,10112.0,10544.0,-1686.0,-309.0,-3576.0,0.15440395459024114,-0.1636566292319363,0.8305275607903305,0.5095094673143955
-712.9382770061493,6820.0,10472.0,10716.0,-1662.0,13.0,-3565.0,0.27260547209580194,-0.4209155202549998,0.6675593027755262,0.5503462170940593
-712.9460697174072,6776.0,10552.0,10780.0,-1541.0,559.0,-3532.0,0.3342718311532495,-0.653472650970724,0.45167551440524706,0.5071736063888806
-712.9538953304291,6384.0,10916.0,10992.0,-1500.0,1277.0,-3525.0,0.3342433749011007,-0.8419464713054737,0.2088753016707251,0.3684814976941815
-712.9617011547089,6068.0,11196.0,10592.0,-1441.0,1687.0,-3662.0,0.2953969059454501,-0.9414155932700227,-0.05375207260466278,0.15358405970871128
-712.9694976806641,5788.0,11508.0,10492.0,-1421.0,1831.0,-3599.0,0.22054933503182458,-0.9233584978765633,-0.3010266668217015,-0.09027746716857368
-712.97727227211,5468.0,12012.0,10032.0,-1494.0,1631.0,-4028.0,0.10321646141846838,-0.7734849142600935,-0.5406511919920819,-0.3142669853832035
-712.9850838184357,4916.0,12684.0,9812.0,-1521.0,1300.0,-4071.0,-0.04634901243892015,-0.5200498867937918,-0.7085394418871325,-0.47473333944644325
-712.9928913116455,4568.0,12824.0,9260.0,-1573.0,904.0,-4140.0,-0.21714617325259386,-0.20474465771808367,-0.7766097569001467,-0.5548012707854537
-713.0006835460663,4284.0,13168.0,8748.0,-1733.0,550.0,-4194.0,-0.3844588546770506,0.12913359248699657,-0.722561757007022,-0.5598396303074107
-713.0085282325745,4100.0,13304.0,8624.0,-1951.0,79.0,-4256.0,-0.5234073605818891,0.43209889754516795,-0.5386049821455304,-0.4992393722824389
-713.0163288116455,3956.0,13408.0,8712.0,-2056.0,-360.0,-4190.0,-0.5974333544092688,0.6546990845048355,-0.2541441566026245,-0.38710882636871013
-713.024129152298,4348.0,13372.0,8848.0,-2170.0,-713.0,-3956.0,-0.5786404477947471,0.7723495614947,0.07657078623579322,-0.25057594004626915
-713.0319662094116,4336.0,13104.0,8984.0,-2288.0,-1105.0,-3714.0,-0.46376786465844455,0.7808187424159915,0.40287225236270374,-0.11373393283562529
-713.0398054122925,4108.0,12760.0,9432.0,-2518.0,-1240.0,-3496.0,-0.26377317794397126,0.6960682199522504,0.6671070926065125,0.029679467042544993
-713.0476052761078,4688.0,12408.0,9704.0,-2699.0,-1285.0,-3418.0,-0.014953807591465317,0.5228931244585128,0.8342422168653733,0.17435334132754451
-713.0554041862488,5128.0,11636.0,9796.0,-2842.0,-1309.0,-3353.0,0.24242979979668686,0.2806719178572941,0.8779699464318319,0.3026876936040394
-713.0631947517395,5476.0,11304.0,10208.0,-3066.0,-1454.0,-3369.0,0.4780315115936085,-0.003674599246265498,0.7831842558452077,0.3976113587915934
-713.0709960460663,5396.0,10988.0,10156.0,-2785.0,-1485.0,-3210.0,0.6422694403505087,-0.2677919564763818,0.580267853483202,0.4231626782366248
-713.07879114151,5976.0,10728.0,9884.0,-2629.0,-1437.0,-3190.0,0.7206700551314609,-0.4890937880216948,0.30639337996914956,0.38411591332107975
-713.0866067409515,6352.0,10520.0,10004.0,-2593.0,-1341.0,-3238.0,0.7051351202389351,-0.6483803255794975,-0.0029631954842061197,0.2870167853620588
-713.0944249629974,5828.0,10704.0,10372.0,-2499.0,-1208.0,-3240.0,0.604100763746436,-0.7225419851353911,-0.30299660171479986,0.1455623794352921
-713.1022324562073,5192.0,10804.0,10252.0,-2318.0,-892.0,-3380.0,0.4482056414336762,-0.6986382511332383,-0.5565600684346745,-0.035456836639889806
-713.1100540161133,5448.0,10836.0,10120.0,-2207.0,-580.0,-3618.0,0.2569280625047923,-0.5723588260382994,-0.7429713124179377,-0.2332101496023717
-713.1178777217865,5828.0,10744.0,10040.0,-2213.0,-363.0,-3808.0,0.04226924641478965,-0.3567354693449315,-0.8362255795544605,-0.4143427274824356
-713.1256728172302,5988.0,10920.0,10160.0,-2127.0,-232.0,-3591.0,-0.1604225065688108,-0.1041060557319528,-0.8190800450838613,-0.5408645193498415
-713.1334619522095,5792.0,11000.0,10132.0,-1965.0,-149.0,-3776.0,-0.34415987112106655,0.17463983452969464,-0.7109039437809398,-0.5879374915941984
-713.1412613391876,5664.0,11128.0,9916.0,-1904.0,-245.0,-3757.0,-0.49089034274725424,0.424439328001613,-0.5147157379041939,-0.5603085198323897
-713.149050951004,5608.0,11284.0,9632.0,-1847.0,113.0,-3552.0,-0.5579956904941545,0.6311417857662212,-0.28095501599333655,-0.45974464068432713
-713.1568403244019,5528.0,11268.0,9644.0,-1810.0,69.0,-3568.0,-0.5662588453954971,0.7642413181112614,-0.014271757198913215,-0.30835441402609387
-713.1646342277527,5520.0,11572.0,9728.0,-1766.0,-85.0,-3087.0,-0.5077612851068178,0.8146856540701699,0.2324606327445394,-0.15629400699623983
-713.1724607944489,5460.0,12092.0,9972.0,-1725.0,-435.0,-2826.0,-0.3982630961855864,0.7947644871301506,0.4572383987491223,-0.025864317558320818
-713.1802296638489,5444.0,12320.0,10092.0,-1747.0,-681.0,-2710.0,-0.24602752629089533,0.7167055898188409,0.646663226656176,0.08735115981046329
-713.1880216598511,5620.0,12412.0,10308.0,-1721.0,-915.0,-2608.0,-0.06426734292207976,0.5900270711480314,0.7852600374350609,0.1763645019659521
-713.1958680152893,5788.0,12476.0,10336.0,-1741.0,-1196.0,-2738.0,0.143169915897379,0.4121317432734572,0.8675066838318369,0.23891830167529707
-713.2036783695221,6180.0,12784.0,10268.0,-1757.0,-1424.0,-2958.0,0.3575066689277646,0.1862757557400266,0.8744142163888277,0.26998167099410364
-713.2114746570587,6660.0,12652.0,10344.0,-1614.0,-1450.0,-3102.0,0.5388866514574455,-0.0632953910079951,0.7990281614873563,0.25913098523384265
-713.2193126678467,6908.0,12408.0,10108.0,-1371.0,-1360.0,-3271.0,0.6646034062207734,-0.3085871598143648,0.6510804490618584,0.1979154518648261
-713.2271192073822,7388.0,12288.0,9984.0,-1104.0,-1279.0,-3435.0,0.7274121469887048,-0.5175648335940242,0.4412745627802913,0.09096687134960527
-713.2349298000336,6948.0,12308.0,10640.0,-777.0,-1204.0,-3417.0,0.7287135931094739,-0.655469238399382,0.19433526215347688,-0.03962805336316219
-713.2427251338959,6860.0,12636.0,11012.0,-503.0,-996.0,-3080.0,0.6790139947990836,-0.7144608137675352,-0.04187603993355548,-0.1634996566880328
-713.2505333423615,7040.0,12840.0,11188.0,-360.0,-679.0,-3235.0,0.5838459237432034,-0.7045141287144676,-0.26774156590116965,-0.3018248393670239
-713.258326292038,7376.0,13144.0,11612.0,-369.0,-755.0,-3083.0,0.44528798633610106,-0.646386086305158,-0.4682623226222798,-0.4057511970015971
-713.2661232948303,7372.0,13128.0,11836.0,-473.0,-301.0,-2912.0,0.2934734063117101,-0.5385454402536012,-0.6074976199565322,-0.5047660946587099
-713.2739090919495,7212.0,13356.0,11844.0,-575.0,-116.0,-2752.0,0.1350052603137251,-0.40044276679920743,-0.6938439465460375,-0.5830949734367791
