programtime,ax,ay,az,gx,gy,gz,q0,q1,q2,q3
-458.6535403728485,-2680.0,-3644.0,-15520.0,666.0,8.0,303.0,0.9979826184836726,0.05773690691676859,0.0008918455730288151,0.02638839509387498
-458.6692714691162,-2956.0,-3332.0,-15476.0,740.0,-64.0,-72.0,0.9923429819600973,0.1219127408416108,-0.002324076779651016,0.019679645376645998
-458.6849796772003,-2396.0,-3452.0,-15532.0,856.0,216.0,88.0,0.9801800972019619,0.19512384798803553,0.017167695950818795,0.02964677404431537
-458.700731754303,-2600.0,-3432.0,-15464.0,798.0,306.0,129.0,0.9630001071012686,0.2622433056556369,0.04332038193381228,0.04452624923411111
-458.71646547317505,-2524.0,-3988.0,-15328.0,587.0,560.0,240.0,0.9438598047753092,0.3096850181369938,0.08713515626997478,0.07504214157932852
-458.732150554657,-3064.0,-4024.0,-15276.0,521.0,77.0,-366.0,0.9300354188151119,0.34897393741603266,0.10682707880490905,0.04288689762340147
-458.747834444046,-2776.0,-4168.0,-15112.0,437.0,204.0,-208.0,0.9145270618887505,0.38155328234264557,0.1314156631609042,0.028058319312861624
-458.7635955810547,-2912.0,-3496.0,-15364.0,521.0,16.0,-452.0,0.8963441690608935,0.41737526131553315,0.1489400393212823,-0.013486531032901969
-458.77932596206665,-2400.0,-3528.0,-15276.0,509.0,158.0,138.0,0.8747547530317306,0.4588660339934132,0.15567013664280838,-0.0035907454882017787
-458.7950294017792,-2732.0,-3076.0,-15616.0,562.0,172.0,595.0,0.8476821083710022,0.508780522541366,0.1445754086088713,0.04093133586635984
-458.81073451042175,-2616.0,-3888.0,-15452.0,699.0,483.0,235.0,0.8071477766426378,0.560297259968973,0.1719991284062083,0.07068059818374596
-458.82644510269165,-2800.0,-4064.0,-15588.0,826.0,182.0,253.0,0.7600195116403182,0.6195288982772522,0.177150505310741,0.08468757047840667
-458.84217143058777,-2916.0,-3780.0,-15344.0,1182.0,-503.0,-1033.0,0.7040553480265701,0.6788775324662799,0.20636426495066001,-0.029071514908140014
-458.8578863143921,-2144.0,-3100.0,-15888.0,1702.0,65.0,-775.0,0.5919815474192766,0.759763413305192,0.24875533287766297,-0.10216744923333292
-458.87358379364014,-2168.0,-3160.0,-15736.0,2016.0,355.0,-411.0,0.4394187113774156,0.8443769070634572,0.27197764743848096,-0.14130461493946558
-458.88928866386414,-2672.0,-3168.0,-16024.0,2767.0,498.0,-845.0,0.2063117746634735,0.9073207299011711,0.30929178294231524,-0.19632406304673447
-458.9049828052521,-1984.0,-3080.0,-16100.0,3290.0,718.0,-726.0,-0.08264507216759155,0.9186421694791974,0.30968305723584544,-0.23100381070888631
-458.9207353591919,-1880.0,-3624.0,-15636.0,3570.0,832.0,474.0,-0.3633379020508537,0.8780082529858806,0.18442170167728716,-0.2511487857275439
-458.9364776611328,-2452.0,-3996.0,-15560.0,3933.0,809.0,-1066.0,-0.6588960613176685,0.7089472922239719,0.14504689735955287,-0.20545343704773839
-458.9521658420563,-2224.0,-4260.0,-15432.0,3782.0,667.0,-881.0,-0.8671351531852165,0.465812710879552,0.08834734027300975,-0.15261026164769942
-458.9678854942322,-2060.0,-4696.0,-15452.0,3980.0,927.0,-609.0,-0.9822301089926178,0.1623796754302761,-0.009434304019817286,-0.09363678712541428
-458.983598947525,-2640.0,-5016.0,-14724.0,3587.0,414.0,-846.0,-0.9891563804615101,-0.13385247356711089,-0.059295517914089595,-0.01171374694748317
-458.99931955337524,-2412.0,-4980.0,-14868.0,3893.0,114.0,-541.0,-0.8925525944951191,-0.44166287888145334,-0.07542834484584637,0.05093458816947292
-459.0150053501129,-2288.0,-4904.0,-14560.0,3268.0,402.0,-135.0,-0.7334134287409707,-0.6701547171794369,-0.09374862261096237,0.0648736721876419
-459.03070616722107,-2688.0,-5860.0,-14360.0,2888.0,433.0,-130.0,-0.5425952688793471,-0.8299639602813259,-0.1092978325351607,0.06931221124017699
-459.04640007019043,-2632.0,-5932.0,-14356.0,2733.0,133.0,-251.0,-0.3321439483732882,-0.93147729337169,-0.1140664248165037,0.09496999642799846
-459.06216287612915,-2740.0,-5648.0,-14316.0,2302.0,272.0,121.0,-0.14015111777666758,-0.9817609834892165,-0.09122520373937758,0.09044886780356003
-459.07786798477173,-2276.0,-6956.0,-14648.0,1864.0,1182.0,-1931.0,0.0431272848337107,-0.9673166623595144,-0.24843822689739442,0.02677609830800762
-459.0935859680176,-3040.0,-5384.0,-14132.0,829.0,265.0,333.0,0.11789803902401212,-0.9688093561032813,-0.2166635420624919,0.023778003742386377
-459.1092758178711,-2960.0,-6704.0,-14256.0,427.0,193.0,-789.0,0.15894493677094007,-0.946843919397453,-0.2795795198699029,0.007641429464844397
-459.124963760376,-2536.0,-6108.0,-14216.0,-158.0,-19.0,-122.0,0.1455165669434776,-0.9459101742118389,-0.2899363358283179,0.003973944383364171
-459.1407163143158,-2620.0,-6380.0,-14572.0,-812.0,38.0,-307.0,0.07938755968889227,-0.9457672818122527,-0.31413653136189285,-0.023240130895152537
-459.1564359664917,-2684.0,-6200.0,-14344.0,-986.0,252.0,-1012.0,0.002973699484005494,-0.9172023285357664,-0.39085643908167217,-0.07721586409761898
-459.1721622943878,-2856.0,-5848.0,-14352.0,-1805.0,-247.0,-1167.0,-0.15492377679754774,-0.8643056524293565,-0.4639894144661007,-0.11699652056729362
-459.1878504753113,-3128.0,-6364.0,-14992.0,-1651.0,-689.0,-1025.0,-0.312624875002165,-0.7948134710686662,-0.5070437275273718,-0.1159477990856554
-459.20358300209045,-2576.0,-5060.0,-14740.0,-2068.0,-19.0,-2722.0,-0.464033288696553,-0.5924133175312206,-0.646367196077607,-0.12621020572000827
-459.2193286418915,-2888.0,-6236.0,-14372.0,-2100.0,-989.0,-1877.0,-0.6279271325779675,-0.39911784103380843,-0.6584175456805149,-0.11357288708565291
-459.23502826690674,-2404.0,-4876.0,-14740.0,-2642.0,-754.0,-3563.0,-0.743158972628836,-0.05316856839871946,-0.6657550470577009,-0.04071930810907894
-459.25072479248047,-1872.0,-5464.0,-14864.0,-3092.0,-387.0,-3648.0,-0.7312345092372139,0.3302110942301824,-0.5966386621121934,0.016704269540695416
-459.26642775535583,-2568.0,-5196.0,-15040.0,-3155.0,-1244.0,-3148.0,-0.649334498013111,0.6466396495160086,-0.3999479314873067,0.016233467371422297
-459.2821629047394,-2364.0,-4900.0,-15584.0,-2818.0,-1246.0,-3740.0,-0.4865453366074133,0.8646153409644323,-0.11274607593867916,0.05479297359120987
-459.2978925704956,-2300.0,-3712.0,-15484.0,-3591.0,-852.0,-1638.0,-0.2036092935896993,0.9783731374672527,0.028093431731638984,0.02323829898954208
-459.3135914802551,-1552.0,-4584.0,-15288.0,-3640.0,-92.0,-1947.0,0.10492614610277413,0.9769802110485448,0.1773583605877539,0.05517411542729414
-459.3292872905731,-1560.0,-4216.0,-15760.0,-3453.0,310.0,-606.0,0.37971711377926504,0.893408283515485,0.2057783731052191,0.12366007282558501
-459.34497261047363,-2396.0,-4272.0,-15136.0,-2933.0,-190.0,-202.0,0.5944529084573221,0.7697685543082848,0.17785146224680162,0.1498364768720827
-459.36074805259705,-2492.0,-3896.0,-15448.0,-2862.0,-139.0,-1533.0,0.7780650276544775,0.5767808251787129,0.22732413015349912,0.10130366378939566
-459.3764865398407,-2296.0,-4552.0,-15296.0,-2271.0,-248.0,-1336.0,0.885660687280799,0.38825521661538,0.25119836060674655,0.04198115535248749
-459.39218258857727,-2868.0,-2628.0,-15572.0,-1908.0,-866.0,-2548.0,0.9403272415208156,0.18094649997591528,0.2535427395206833,-0.13696394502447343
-459.4079394340515,-788.0,-3452.0,-15920.0,-1844.0,61.0,-670.0,0.9462083653617649,0.015382874673643717,0.2872888376506043,-0.14804803358220023
-459.42365169525146,-2204.0,-3756.0,-15488.0,-1341.0,-202.0,-613.0,0.9371793831806585,-0.11245599476725704,0.2866498736971678,-0.16395213597701225
-459.43935322761536,-1680.0,-3688.0,-15504.0,-589.0,-255.0,-1107.0,0.9161382862192015,-0.19094048881919315,0.2619910960671748,-0.23578175466806656
-459.4550459384918,-1664.0,-2808.0,-15644.0,-1269.0,-70.0,241.0,0.8957370106570545,-0.2866833482890647,0.28494410418841915,-0.18513433782309047
-459.47080540657043,-1928.0,-4856.0,-15620.0,-939.0,291.0,-705.0,0.8487544488118535,-0.37105604979120155,0.30371871383472065,-0.2229085830604538
-459.48651480674744,-2224.0,-3952.0,-15060.0,-918.0,-35.0,-472.0,0.807339436158761,-0.45061248674798166,0.30265061027692913,-0.2314174360515137
-459.5021960735321,-1628.0,-4992.0,-14924.0,-1362.0,500.0,632.0,0.7460673602681589,-0.5150883602461844,0.3866921809066125,-0.1689278908501662
-459.51788902282715,-2228.0,-6292.0,-14056.0,-1386.0,325.0,1361.0,0.6826403784501865,-0.5467638775107957,0.482494908309395,-0.047434580363423816
-459.5336136817932,-3160.0,-6244.0,-14184.0,-465.0,-323.0,-775.0,0.668277494580357,-0.6064705332806072,0.42683348468018917,-0.05841111927966607
-459.54937958717346,-2076.0,-2688.0,-15608.0,-624.0,-611.0,-991.0,0.6484252294276486,-0.6785611155856932,0.3398172627516984,-0.0601976925865444
-459.5650796890259,-1624.0,-2596.0,-15196.0,-1152.0,386.0,266.0,0.5665732266654061,-0.7297040145361516,0.3813097044365816,-0.03361159469975969
-459.58078789711,-3572.0,-4000.0,-15308.0,-905.0,-1018.0,146.0,0.5391464734803825,-0.767249006490866,0.34060589669416097,0.06810040608992732
-459.59671664237976,-2060.0,-4260.0,-15620.0,-624.0,-74.0,-276.0,0.50004261580855,-0.8030792730394052,0.3144353288337808,0.07843141953984704
-459.6124813556671,-2616.0,-3548.0,-16008.0,-671.0,-395.0,-194.0,0.4637720557989095,-0.8330766356467261,0.2783934427796883,0.11574061697112767
-459.6281793117523,-2304.0,-3704.0,-15488.0,-1085.0,-87.0,-743.0,0.3916539812990454,-0.8884238876106368,0.20857152605716855,0.11750775878040211
-459.64393424987793,-2392.0,-4144.0,-14876.0,-859.0,-226.0,-1094.0,0.3375675818054103,-0.928490266020073,0.10645671527146627,0.11234287424501756
-459.6596372127533,-2644.0,-3020.0,-15720.0,-1014.0,-656.0,-2921.0,0.2794084516391772,-0.9439160365149398,-0.15369673904589215,0.08561977323716348
-459.6754298210144,-2012.0,-2916.0,-15748.0,-1227.0,-615.0,-2269.0,0.1819242382177675,-0.9147064108873372,-0.3553436834514154,0.06282213034967196
-459.6911635398865,-2016.0,-3984.0,-15724.0,-1197.0,-46.0,-2012.0,0.09374924215872314,-0.8534819985340708,-0.5126147392067735,-0.002384726593327642
-459.7068657875061,-2288.0,-4140.0,-15224.0,-276.0,-362.0,181.0,0.05694248020395245,-0.8631375821503517,-0.5015521847314762,0.014016926159132484
-459.7225663661957,-2200.0,-4172.0,-15328.0,-478.0,-98.0,-703.0,0.017520773981552766,-0.8323118991457205,-0.5540240408784531,-0.002699471844899701
-459.7382674217224,-2196.0,-3856.0,-15376.0,70.0,-504.0,-1367.0,-0.0019627167444654582,-0.7600879918379723,-0.6488620583643573,0.03521961984277028
-459.7540273666382,-1548.0,-3288.0,-15540.0,-117.0,-151.0,-867.0,-0.01537846573960286,-0.708373625799869,-0.7045968044436806,0.03890568378009978
-459.76974630355835,-1812.0,-3424.0,-15624.0,-358.0,73.0,-998.0,-0.029330587646328156,-0.6439995699780413,-0.7643365301177217,0.013926206375745952
-459.78543424606323,-1872.0,-4080.0,-15256.0,-468.0,48.0,698.0,-0.05298853484706527,-0.6875706566034057,-0.7238640341070804,-0.021439857251083348
-459.8011167049408,-2048.0,-5148.0,-14660.0,-570.0,169.0,1795.0,-0.07202127440136558,-0.7873865942807777,-0.6076733014397976,-0.07462202019362557
-459.81679940223694,-2744.0,-5840.0,-14672.0,-79.0,-283.0,617.0,-0.08812297031921555,-0.8200198755256952,-0.5620039403657504,-0.06287540742064499
-459.83259558677673,-2592.0,-2908.0,-15800.0,410.0,-541.0,-550.0,-0.0879054110671157,-0.7968577262406931,-0.5977375686908332,0.00044923402086791597
-459.8482847213745,-2212.0,-2412.0,-15864.0,-76.0,-146.0,-320.0,-0.10050956167350378,-0.7791969792895014,-0.6185977600718394,0.009311643916049816
-459.8640239238739,-2912.0,-3352.0,-15720.0,106.0,-275.0,-741.0,-0.10706294112038134,-0.7381086087428095,-0.664908817023809,0.040366736088104406
-459.879766702652,-2084.0,-3412.0,-15812.0,159.0,55.0,-458.0,-0.0916513997210857,-0.7125591937207465,-0.6937686405693787,0.05044293543918467
-459.89547753334045,-2116.0,-3856.0,-15184.0,-14.0,471.0,423.0,-0.06549838734519285,-0.7389949175997342,-0.6703021881897832,0.017071892833832716
-459.9111931324005,-2292.0,-5316.0,-14968.0,-131.0,211.0,-171.0,-0.0611187165876775,-0.7283018055716804,-0.682518883104278,-0.002992772927292788
-459.9268891811371,-2452.0,-5284.0,-14660.0,-64.0,-203.0,-326.0,-0.0771393980440215,-0.7081839040813547,-0.7017547532382972,0.008083166270292028
-459.94265055656433,-2692.0,-3808.0,-15480.0,405.0,-532.0,-1439.0,-0.08269614306093089,-0.6165030163616465,-0.7793979048553176,0.07499523082822405
-459.95835638046265,-2376.0,-2508.0,-15712.0,231.0,-367.0,-798.0,-0.0894288283803803,-0.5597148285963829,-0.8156407914765291,0.11598230288873916
-459.97414922714233,-2220.0,-3348.0,-15744.0,294.0,169.0,-444.0,-0.05815090439733593,-0.531459359922625,-0.8347137757886213,0.13199368764114777
-459.98988819122314,-2144.0,-4040.0,-15484.0,148.0,144.0,85.0,-0.041446602077832184,-0.5399232350212477,-0.8296704854911311,0.13569069594229008
-460.0055992603302,-2092.0,-4880.0,-14716.0,167.0,236.0,-2.0,-0.016174544570224294,-0.5429583198471231,-0.8283892859344199,0.1367692873630516
-460.02126955986023,-2676.0,-4840.0,-15148.0,49.0,-398.0,-1363.0,-0.025967354313921685,-0.4363479399615649,-0.8850359105160276,0.16011748467391013
-460.03696298599243,-2508.0,-3724.0,-15376.0,190.0,-201.0,-995.0,-0.020169341305723933,-0.35570437277671735,-0.9161534404220992,0.18365857034608146
-460.0527169704437,-2516.0,-3028.0,-15624.0,49.0,-188.0,-505.0,-0.025641235354722063,-0.31210011556527967,-0.9297235760526099,0.19377852575961518
-460.0684595108032,-2512.0,-3692.0,-15308.0,173.0,-166.0,-659.0,-0.023275566504780954,-0.2557795493974818,-0.9426672554849754,0.213104470976858
-460.0841386318207,-2012.0,-3844.0,-15404.0,79.0,-118.0,-557.0,-0.02085809418450782,-0.20769829696846476,-0.9522587231924937,0.22277720136313578
-460.09984374046326,-2372.0,-4224.0,-14876.0,-244.0,-242.0,-618.0,-0.03341047537828567,-0.15095252934317505,-0.9659785917055244,0.20732205475179574
-460.1155321598053,-2296.0,-4476.0,-15064.0,36.0,-148.0,-7.0,-0.0453695888537174,-0.1478150881072462,-0.9649584235722397,0.21200835104323038
-460.1312942504883,-2692.0,-3624.0,-15484.0,146.0,-246.0,-862.0,-0.048174036996393034,-0.07107604174700048,-0.9694282128627646,0.22986169440503793
-460.146986246109,-2116.0,-3852.0,-15572.0,21.0,197.0,-95.0,-0.02949309037756514,-0.06709368230159025,-0.9703173459450106,0.2304622389317274
-460.1626727581024,-2756.0,-4016.0,-15132.0,11.0,-56.0,-235.0,-0.029580032938451635,-0.04613428961376801,-0.9711726216684013,0.2319922151601583
-460.17837738990784,-2408.0,-3932.0,-15120.0,183.0,-113.0,-397.0,-0.03047579570950525,-0.010706637550462715,-0.9680941707528239,0.24849601675406696
-460.19408917427063,-2216.0,-3736.0,-15740.0,-43.0,-37.0,-698.0,-0.018554804287478955,0.0490518797078916,-0.9678517472615648,0.24599314555026194
-460.20982360839844,-2284.0,-4272.0,-15060.0,-14.0,-40.0,-520.0,-0.010849559964538905,0.0937139487132433,-0.9649348422646163,0.2449504706035641
-460.2255358695984,-2348.0,-4284.0,-15240.0,-59.0,-141.0,-753.0,-0.006303340012348723,0.15979000594595938,-0.9578258150566737,0.2387407169200463
-460.2412266731262,-2552.0,-4088.0,-15360.0,-122.0,-48.0,-19.0,-0.008411406162054498,0.16239535707498576,-0.9600774960253646,0.22761414251432396
-460.2569134235382,-2504.0,-4088.0,-15348.0,19.0,-160.0,-699.0,-0.00838660165085195,0.22364616445055782,-0.9478884431010638,0.22675880903450127
-460.2726938724518,-2364.0,-3600.0,-15508.0,-4.0,-160.0,-646.0,-0.008925827275463082,0.2797504533646955,-0.9337397189820953,0.2231370669452611
-460.28842878341675,-2384.0,-3748.0,-15248.0,-252.0,-105.0,-425.0,-0.0032461113005598295,0.31628484392053485,-0.9273538009859404,0.19992070444182586
-460.3041410446167,-2500.0,-3652.0,-15364.0,55.0,-189.0,-677.0,-0.008456102027359877,0.3736198842708644,-0.9060020927492021,0.1987382307207019
-460.3198425769806,-1808.0,-4320.0,-15536.0,-147.0,307.0,224.0,0.01648422660928991,0.3504456712825446,-0.9155659137597074,0.1966091536876463
-460.3355417251587,-2640.0,-4544.0,-15140.0,-8.0,53.0,-250.0,0.02497126152681577,0.3693739003651982,-0.9078125522759373,0.19701707478543196
-460.3513069152832,-2044.0,-4560.0,-14996.0,61.0,236.0,381.0,0.03484599187888773,0.33497233538360494,-0.9178755690750369,0.20996126088592426
-460.3670356273651,-2824.0,-3896.0,-15720.0,12.0,-128.0,-700.0,0.03674346468022041,0.39264278949395853,-0.8959223653452001,0.2044619107216753
-460.3827340602875,-2216.0,-2692.0,-15668.0,447.0,29.0,77.0,0.02208882216585927,0.3872268727739348,-0.8898653367898978,0.24022305325852017
-460.39842796325684,-1804.0,-3552.0,-15764.0,407.0,572.0,617.0,0.03949827811459767,0.3270155152754364,-0.898190126348142,0.29112752485093424
-460.41418528556824,-2716.0,-3660.0,-15388.0,430.0,262.0,171.0,0.04317826205467638,0.30809251173528457,-0.8903897731286378,0.3322960935769694
-460.42988896369934,-1800.0,-4608.0,-15096.0,209.0,567.0,694.0,0.06111561346275931,0.23773571453411896,-0.8980778281273639,0.3649696240128206
-460.44559121131897,-2696.0,-5140.0,-14764.0,-5.0,114.0,143.0,0.06539139821911583,0.22280872365903814,-0.9005985280173997,0.367426902979725
-460.46128940582275,-2832.0,-5084.0,-15080.0,274.0,-193.0,-655.0,0.06556442239044721,0.28142498532297067,-0.8784948498365774,0.38045772822112855
-460.47702980041504,-2408.0,-3512.0,-15580.0,289.0,-40.0,-247.0,0.06340972866324271,0.3031678842118602,-0.8627158532389169,0.39973715972324325
-460.4927067756653,-2284.0,-3124.0,-15556.0,183.0,152.0,-249.0,0.07852308124215249,0.31748539627626715,-0.8486609232285711,0.41570637022827733
-460.5084054470062,-2052.0,-3888.0,-15256.0,160.0,161.0,147.0,0.08050572809369928,0.30177299932626056,-0.8457343162471559,0.43264922390279625
-460.52411222457886,-1964.0,-4768.0,-15268.0,54.0,373.0,494.0,0.08767412663558884,0.2512378896005578,-0.8529788041038502,0.4490210797917068
-460.53985714912415,-2812.0,-4336.0,-15044.0,-77.0,-108.0,50.0,0.07919514015987067,0.2511221992571344,-0.8579991501610573,0.44102520238442405
-460.55556416511536,-1712.0,-5024.0,-15084.0,-51.0,540.0,975.0,0.08267844635654575,0.15623816369608717,-0.8736110851596068,0.45338458575385726
-460.5713405609131,-2916.0,-4320.0,-15204.0,205.0,10.0,156.0,0.07430094911757502,0.1453625190861522,-0.8674870308294846,0.4699099470619877
-460.5870418548584,-2064.0,-3432.0,-15444.0,-16.0,138.0,529.0,0.06307003516957838,0.0994270361896869,-0.8731182990654233,0.4730759674463976
-460.602831363678,-2516.0,-4072.0,-15260.0,202.0,122.0,84.0,0.06700834298504262,0.08905230824489441,-0.8647882818367882,0.4896129042053846
-460.618536233902,-2120.0,-3484.0,-15564.0,270.0,325.0,375.0,0.07322194018309705,0.048366530691178425,-0.853396874248319,0.5138219547741426
-460.6342329978943,-2120.0,-4360.0,-15188.0,-64.0,418.0,586.0,0.07808562108637153,-0.014425502559285404,-0.8545352347854213,0.5132875151079488
-460.6499307155609,-2988.0,-4664.0,-14956.0,-76.0,-128.0,-236.0,0.07886996673956272,0.008331784072253526,-0.8590123727688579,0.5057745082056733
-460.6656229496002,-1936.0,-4908.0,-14936.0,80.0,306.0,359.0,0.08572352215787822,-0.03154276960371835,-0.8530555659113787,0.5137633043554123
-460.68140149116516,-3084.0,-3880.0,-15704.0,38.0,-319.0,-480.0,0.08337582493479075,0.018697274343203577,-0.8541384440889553,0.5129779742619331
-460.69710063934326,-2212.0,-3816.0,-15320.0,99.0,111.0,175.0,0.08353045952995235,0.0013696349276370065,-0.849181762063987,0.5214509769947527
-460.7127797603607,-2320.0,-3736.0,-15736.0,168.0,-216.0,-105.0,0.0721555399723352,0.020158878991880985,-0.8429942216687003,0.5326799600907414
-460.7285623550415,-2212.0,-3984.0,-15148.0,93.0,492.0,551.0,0.08230212837963126,-0.04260221032934552,-0.8349557294273634,0.5424576861246011
-460.7442681789398,-2712.0,-4452.0,-14980.0,231.0,-246.0,-267.0,0.0777154523464117,-0.009891853736012977,-0.8263727091551474,0.5576473843387416
-460.75997376441956,-1984.0,-4720.0,-15220.0,82.0,215.0,-106.0,0.09833546251109858,-0.01218958235398402,-0.8209954957035304,0.5622703503914094
-460.77570819854736,-2280.0,-4396.0,-15256.0,15.0,137.0,335.0,0.09158113360772914,-0.04280458988512326,-0.8184976044644199,0.565546049882674
-460.79145979881287,-2476.0,-3960.0,-15112.0,138.0,158.0,236.0,0.09160163163310144,-0.06637986978781167,-0.8094174133201126,0.5762345919703927
-460.80717277526855,-2592.0,-3888.0,-15420.0,238.0,83.0,-151.0,0.10630623363337935,-0.058021726689745826,-0.7975864636452208,0.5909215658042417
-460.8228681087494,-2556.0,-3384.0,-15556.0,145.0,-69.0,332.0,0.08497767019358979,-0.07623946595956671,-0.7888500537057341,0.6038890064963345
-460.8385581970215,-2056.0,-4336.0,-15328.0,22.0,347.0,569.0,0.07881697786669795,-0.13335319104364307,-0.7802014725780196,0.6060449427439584
-460.85427498817444,-2448.0,-5104.0,-14872.0,-98.0,177.0,261.0,0.07581841430542165,-0.16115319689007762,-0.7809854843787901,0.5986174808456111
-460.8700678348541,-2308.0,-5404.0,-14596.0,-312.0,-56.0,-497.0,0.09338286965053905,-0.12632091769396314,-0.8037525325496178,0.5738506180434599
-460.8857796192169,-2952.0,-4612.0,-14700.0,-206.0,-446.0,-845.0,0.10167427728266491,-0.04630514192533764,-0.8241952357960055,0.5551759977353928
-460.9015121459961,-2764.0,-3568.0,-15608.0,71.0,-560.0,-1577.0,0.13652641226738835,0.09382511323849271,-0.8235291730147392,0.5425468533434132
-460.91724586486816,-1912.0,-2984.0,-15864.0,-43.0,-96.0,-363.0,0.14696780875292803,0.12386106638639457,-0.8234716154376939,0.5338102640380968
-460.93292927742004,-2696.0,-4132.0,-15136.0,141.0,-84.0,-557.0,0.16499375881425124,0.16936247429370196,-0.8111045451727429,0.5349792787142111
-460.94865226745605,-2104.0,-3788.0,-15820.0,279.0,-205.0,-808.0,0.1833997711695473,0.23942881279877123,-0.7869680592825744,0.5382561111643296
-460.9643611907959,-1600.0,-5040.0,-15020.0,-163.0,175.0,-322.0,0.21365518075930612,0.25055638561034804,-0.7848033535196887,0.5250301492951023
-460.9800868034363,-2988.0,-5148.0,-14804.0,43.0,-296.0,-1402.0,0.25450423804253614,0.3581322746902863,-0.7520288745112766,0.49134655645974773
-460.99582839012146,-2360.0,-4588.0,-15556.0,29.0,-184.0,-696.0,0.27062991767249023,0.411548397882783,-0.7318579527737351,0.4709260035531406
-461.01151847839355,-2956.0,-3872.0,-15176.0,63.0,-5.0,-649.0,0.29403870043491975,0.4539930387514588,-0.705116447668097,0.458521928199387
-461.02720761299133,-2604.0,-3808.0,-15496.0,179.0,-356.0,-1008.0,0.3038081362821984,0.5325292937392765,-0.6643589006035931,0.42748148360726657
-461.0428810119629,-2052.0,-3496.0,-15476.0,-177.0,30.0,279.0,0.3030210644823763,0.5103946132308299,-0.6830032545337399,0.4256549395475617
-461.05859327316284,-2376.0,-5136.0,-14948.0,29.0,51.0,-113.0,0.3087128187810365,0.5160143191675143,-0.6756693057411645,0.4264933847243198
-461.07430958747864,-2516.0,-4480.0,-15200.0,205.0,-255.0,-965.0,0.3188760918901622,0.5856734999958187,-0.6291347949660452,0.3993669981189443
-461.09001564979553,-1924.0,-4168.0,-15328.0,-96.0,186.0,168.0,0.32781851005344737,0.5672139375371196,-0.6358699873131418,0.4080107017767538
-461.10570430755615,-2896.0,-4164.0,-15240.0,33.0,-127.0,458.0,0.30233640195127,0.5468573798110129,-0.6605791749750637,0.41614283580359496
-461.1213960647583,-1868.0,-3912.0,-15472.0,345.0,420.0,303.0,0.2984191821309188,0.5225403838261015,-0.6506322953509392,0.46322257636427044
-461.13708448410034,-2180.0,-4296.0,-15296.0,167.0,127.0,487.0,0.2778172105537689,0.4936382549194411,-0.6622427588543931,0.49048282247713215
-461.15275859832764,-2376.0,-4552.0,-14984.0,34.0,-137.0,51.0,0.2660216078877478,0.497387905579849,-0.6664236196880985,0.4875626468891163
-461.16848373413086,-2652.0,-4960.0,-15472.0,-253.0,70.0,-102.0,0.28512017083933855,0.49436779365239564,-0.6711095439755435,0.4732007531320581
-461.18422651290894,-2748.0,-4192.0,-14964.0,125.0,63.0,203.0,0.2747607175719798,0.4829290694961347,-0.6731553590698838,0.4880040209572296
-461.19996976852417,-2576.0,-4200.0,-15140.0,-250.0,126.0,293.0,0.27984228373569353,0.4541242000541161,-0.6928714620288053,0.4851686760961248
-461.2156665325165,-2496.0,-4148.0,-15192.0,215.0,179.0,171.0,0.27458931556906996,0.4413239176690382,-0.6860746337758408,0.509053537811012
-461.2313623428345,-2460.0,-3884.0,-15592.0,88.0,119.0,115.0,0.27298875882676304,0.4312553629789771,-0.6838367469042642,0.5214050757707364
-461.24704813957214,-1844.0,-4180.0,-14916.0,-60.0,303.0,1153.0,0.2393791728661051,0.34541000091702184,-0.7190365612603953,0.5535123904984135
-461.262779712677,-2736.0,-5080.0,-15044.0,58.0,-61.0,-252.0,0.2457236517725665,0.36529683332583496,-0.709922479210792,0.5497164578515675
-461.27852058410645,-2152.0,-4532.0,-15440.0,132.0,210.0,20.0,0.2533296897173555,0.3567623783984416,-0.6997607213606885,0.5646942593191155
-461.2942419052124,-2836.0,-3648.0,-15216.0,146.0,-90.0,205.0,0.23295046539559397,0.35184455177607,-0.7009474013405158,0.5749888978158194
-461.30994272232056,-2076.0,-4240.0,-15292.0,112.0,231.0,15.0,0.2426652892832657,0.34156242503444156,-0.691124879619723,0.5888930870304759
-461.32563066482544,-2520.0,-4548.0,-15228.0,-23.0,-106.0,140.0,0.22956651549370358,0.3380640320267241,-0.698846760045731,0.5870478099673805
-461.3413894176483,-2028.0,-5060.0,-15116.0,-96.0,99.0,122.0,0.23198881444785283,0.3236099885639173,-0.7054954862236886,0.5862882262085282
-461.3570818901062,-2628.0,-5288.0,-14948.0,-42.0,-78.0,-537.0,0.25538508161446466,0.35941833261939066,-0.6934866558249952,0.5698010007524861
-461.3727843761444,-2840.0,-3956.0,-15468.0,-166.0,-517.0,-655.0,0.2609803059420695,0.4199409088751737,-0.6910138873955098,0.5272937704828516
-461.38859367370605,-2408.0,-3664.0,-15240.0,120.0,94.0,-164.0,0.2695655364046169,0.4282071484850264,-0.6774027157201912,0.5339462709899969
-461.40437388420105,-2064.0,-4096.0,-15600.0,20.0,37.0,184.0,0.26221280812107084,0.4160714662012229,-0.6825737362251798,0.5405756865472453
-461.4201183319092,-2236.0,-4812.0,-15100.0,113.0,496.0,344.0,0.27085091675696993,0.37427289978666817,-0.6776125521939664,0.5721894847743769
-461.4358239173889,-2540.0,-4964.0,-15280.0,-132.0,-52.0,-194.0,0.28152920966158057,0.38516697308554915,-0.6791528467015084,0.5577984562265111
-461.4515128135681,-2760.0,-4312.0,-15292.0,-137.0,16.0,129.0,0.28057992153138045,0.3733627647748641,-0.6898714858296894,0.5531297194621264
-461.46720337867737,-2236.0,-4720.0,-14912.0,-29.0,565.0,521.0,0.2895533513297445,0.31334260434098,-0.6930609979188292,0.5810694641798709
-461.482914686203,-3152.0,-4168.0,-15024.0,-233.0,-139.0,9.0,0.28679881419053127,0.31388721580743995,-0.7086440396794457,0.5630673858059574
-461.4986410140991,-2524.0,-4644.0,-15392.0,-160.0,233.0,-47.0,0.30761998809447666,0.3012639902757535,-0.7093753191712716,0.5580292175491719
-461.5143311023712,-2648.0,-3956.0,-15136.0,-89.0,3.0,-42.0,0.31199419089068764,0.3013364133720513,-0.7127069421010213,0.5512756166451995
-461.5300450325012,-2172.0,-4588.0,-15308.0,-768.0,253.0,565.0,0.31936989568489643,0.23226918085365042,-0.7550307281682559,0.5234333738667283
-461.5457384586334,-2936.0,-5120.0,-15000.0,-237.0,250.0,-278.0,0.3528735729158099,0.2323716005308609,-0.7528974562916836,0.5046078686602787
-461.56143045425415,-2180.0,-4252.0,-15228.0,-229.0,137.0,-79.0,0.3696812643868728,0.22440878334584072,-0.757140940409648,0.489606022301765
-461.5771658420563,-2500.0,-4172.0,-15328.0,-400.0,91.0,171.0,0.3757227107511484,0.19616318887563097,-0.774260743478059,0.46997100874921616
-461.59294080734253,-2548.0,-4404.0,-15248.0,-356.0,-52.0,431.0,0.35996820343068453,0.1572939755081299,-0.7971778446191607,0.45846371921459844
-461.60872411727905,-2360.0,-5132.0,-15156.0,-51.0,280.0,-720.0,0.40779733609883245,0.1941033466722815,-0.7789628634012573,0.43501963280181993
-461.62448620796204,-2864.0,-3604.0,-15520.0,-499.0,-429.0,273.0,0.3757611086963152,0.17372398764771374,-0.8164022198153488,0.4026300793379251
-461.64018750190735,-2292.0,-4216.0,-15076.0,224.0,401.0,125.0,0.3959618603715664,0.15791661114570618,-0.7967792662386679,0.42827485327475623
-461.65597891807556,-2508.0,-4456.0,-15604.0,-140.0,164.0,-235.0,0.4176811072017838,0.16320055690958413,-0.7929928422384646,0.4123959542353139
-461.671733379364,-2324.0,-3868.0,-15132.0,-237.0,86.0,268.0,0.4169092887780478,0.13283193482880298,-0.8019810026124589,0.40665562023527285
-461.6874485015869,-1920.0,-5120.0,-14888.0,-145.0,267.0,205.0,0.4295360916194609,0.1036422183396312,-0.7995701682412519,0.4067487954900103
-461.7031469345093,-2548.0,-4840.0,-15016.0,-27.0,41.0,144.0,0.4272458743909258,0.09107290837379127,-0.8004124921778946,0.4104954695752978
-461.71883845329285,-2600.0,-4132.0,-15144.0,275.0,197.0,-26.0,0.43932286380435653,0.09600247399881058,-0.7828641413542531,0.4300031191823083
-461.73452854156494,-2392.0,-3928.0,-15508.0,-11.0,299.0,173.0,0.45291563761525083,0.07247370109013654,-0.7731153051587091,0.43807272545003845
-461.75022649765015,-2740.0,-3984.0,-14912.0,-22.0,210.0,710.0,0.4389323103332893,0.01559437781232955,-0.7687430908810517,0.4648970881267965
-461.7659397125244,-2552.0,-5116.0,-15344.0,445.0,449.0,-412.0,0.483897682015579,0.04190426863029869,-0.7315612038580257,0.4784404567135869
-461.7816710472107,-2556.0,-3612.0,-15524.0,-339.0,-5.0,364.0,0.4689625947924602,0.004506192114919184,-0.7467664308274358,0.4715863406709305
-461.7974009513855,-1828.0,-5308.0,-14704.0,309.0,996.0,911.0,0.4924611149078786,-0.0826739788103221,-0.6888560164097799,0.5254754534584929
-461.81309485435486,-2960.0,-3664.0,-15048.0,72.0,-230.0,-5.0,0.479078706081855,-0.06881227082307434,-0.6955369403654931,0.5310149050169082
-461.82878494262695,-1944.0,-4576.0,-15824.0,-519.0,474.0,632.0,0.4736406888285656,-0.15040404813192945,-0.6938325214306769,0.5211905144922337
-461.84459018707275,-3308.0,-4584.0,-14884.0,-40.0,238.0,53.0,0.4847984434816622,-0.1661730815661156,-0.6851589116994306,0.5176043294635686
-461.860289812088,-1484.0,-4716.0,-15244.0,-178.0,710.0,1105.0,0.4714224326660037,-0.27014103385203275,-0.643057068193898,0.5396872417006822
-461.87599301338196,-3320.0,-4724.0,-14936.0,-189.0,127.0,124.0,0.4679383250926139,-0.29092937251119155,-0.6438216731829846,0.5309307650340348
-461.89168405532837,-1976.0,-6028.0,-15060.0,246.0,565.0,-219.0,0.5150538236019201,-0.2944210076110025,-0.6141012469280416,0.5204954251401145
-461.90737318992615,-3516.0,-2212.0,-14784.0,69.0,-270.0,379.0,0.48453834434146287,-0.29927155763789454,-0.613029312958134,0.5475894348012025
-461.9230692386627,-1012.0,-4672.0,-16256.0,-294.0,1074.0,-25.0,0.5328296986304761,-0.3601176165237563,-0.5797848538496936,0.500257271584426
-461.93882155418396,-4000.0,-3352.0,-14664.0,-547.0,-505.0,1017.0,0.4428088484270071,-0.4126439990539649,-0.5917568726362805,0.5324181228012698
-461.9545292854309,-1056.0,-5252.0,-15608.0,41.0,896.0,706.0,0.4553358224607962,-0.4868760067008976,-0.5273697155085976,0.5267848005090113
-461.9702341556549,-3244.0,-4832.0,-14672.0,-374.0,42.0,885.0,0.39910686475018675,-0.5426583720278633,-0.503644446392746,0.5409046805076563
-461.98603105545044,-2368.0,-5948.0,-14916.0,-97.0,176.0,88.0,0.39786778985885335,-0.5582719083068708,-0.49796280881968685,0.5310995567882203
-462.00172328948975,-3328.0,-2704.0,-15060.0,209.0,-511.0,295.0,0.37144295879546263,-0.5395362164201972,-0.4910296243248298,0.5743001894198423
-462.0174357891083,-1012.0,-5536.0,-16000.0,-143.0,857.0,-219.0,0.41102616964693256,-0.5761260780813664,-0.47941162214467964,0.5189419298655304
-462.03313755989075,-3428.0,-3004.0,-14300.0,251.0,-483.0,1346.0,0.3395889836961526,-0.5969773511519612,-0.41449089264255284,0.5970717413177263
-462.04882407188416,-1464.0,-5184.0,-15916.0,401.0,929.0,-1280.0,0.4560625181181746,-0.5815061516308163,-0.4285594336988669,0.5198022575662155
-462.06461238861084,-3532.0,-2420.0,-15168.0,-770.0,-488.0,1519.0,0.3257759575019443,-0.6394120532699837,-0.40114847130139886,0.5692997063228695
-462.08034801483154,-1156.0,-5956.0,-15716.0,100.0,1395.0,-430.0,0.39821371179625814,-0.6854013298483898,-0.37757602816784325,0.47863054617575485
-462.0960726737976,-3172.0,-4128.0,-14420.0,-94.0,98.0,1090.0,0.34851883068115497,-0.7255250764700181,-0.31155247687026927,0.5050574642848231
-462.1118040084839,-2480.0,-4388.0,-15068.0,-79.0,77.0,297.0,0.33225539332739373,-0.7392878921174882,-0.29385662208604996,0.5066636476297827
-462.1274917125702,-2448.0,-3856.0,-15432.0,-164.0,115.0,344.0,0.30909189969283124,-0.7576652212230037,-0.27548837850067065,0.5044915890324086
-462.14319348335266,-1656.0,-4912.0,-15488.0,-285.0,659.0,453.0,0.2852588643864596,-0.8032052062869773,-0.23973771920197104,0.46477371147073115
-462.15888261795044,-3036.0,-3644.0,-14308.0,-91.0,385.0,579.0,0.2628239528355981,-0.831797988024063,-0.19295442549312936,0.44922629778053785
-462.1745836734772,-2120.0,-5172.0,-15808.0,-556.0,-239.0,-375.0,0.2326044191675295,-0.8274180298013968,-0.24703882078952227,0.44748900451992485
-462.19030714035034,-2360.0,-3704.0,-14836.0,-492.0,103.0,889.0,0.16383443794115954,-0.8573337754228417,-0.19924288432878484,0.44546531571837
-462.20601081848145,-1576.0,-5840.0,-15868.0,118.0,576.0,-493.0,0.20138746315770062,-0.8676363727521545,-0.22288589459441635,0.3961970372822557
-462.2217195034027,-3108.0,-2892.0,-14624.0,-503.0,-419.0,1434.0,0.10447092717315593,-0.8817141930404345,-0.13781104509101577,0.4389464922032735
-462.23741126060486,-1748.0,-5448.0,-15536.0,210.0,765.0,-1096.0,0.17066757551534237,-0.8898408241076243,-0.20576341172369028,0.36975303219176725
-462.2530677318573,-2904.0,-3596.0,-14976.0,-237.0,-365.0,1060.0,0.11087290126889167,-0.8962853057056029,-0.13590902409081473,0.4073187789816651
-462.2687773704529,-2268.0,-4300.0,-15428.0,445.0,646.0,-694.0,0.17727657047681936,-0.9030518778738544,-0.16748082701832764,0.35358237514013513
-462.28458857536316,-3184.0,-1884.0,-15508.0,-946.0,-686.0,618.0,0.07300875083995463,-0.8997101191120552,-0.15755366380724437,0.40046006903195064
-462.30034494400024,-828.0,-5272.0,-16292.0,-564.0,1276.0,158.0,0.040517093757171836,-0.9430937149200744,-0.15563480374737018,0.29105054175219003
-462.31608176231384,-3060.0,-4708.0,-14520.0,-391.0,491.0,1028.0,-0.010884774322509993,-0.9656545433885189,-0.07886378955447493,0.24733242249686266
-462.33179211616516,-2520.0,-4512.0,-15036.0,-9.0,-135.0,368.0,-0.020278567672065602,-0.9647621579180333,-0.047950080740574934,0.25792159292986994
-462.3474934101105,-1796.0,-5012.0,-14968.0,-209.0,803.0,310.0,-0.04114783673889057,-0.9808893039923514,-0.027949098047150806,0.18810070909877202
-462.3631942272186,-3768.0,-3252.0,-14988.0,-203.0,-898.0,-463.0,-0.05260671297678434,-0.960460782152981,-0.06747100939670479,0.264943923475991
-462.3789210319519,-1236.0,-3496.0,-16148.0,62.0,262.0,-868.0,-0.025529647127152614,-0.9587473543179474,-0.1395968987844602,0.24630155004721374
-462.3946759700775,-2852.0,-2948.0,-15620.0,-1706.0,-253.0,2330.0,-0.21448774820606528,-0.9481292848675824,0.018601433801930977,0.23387999424168504
-462.41037583351135,-1700.0,-5952.0,-15348.0,-172.0,1388.0,-650.0,-0.2154817796960387,-0.9656633852083488,-0.06413974640371986,0.13018418497746453
-462.42607069015503,-2928.0,-4308.0,-14488.0,-720.0,-289.0,1093.0,-0.2879330536448028,-0.9485831981660059,0.02501583527040994,0.1290685118906035
-462.4417550563812,-1620.0,-5256.0,-14968.0,-127.0,803.0,-464.0,-0.29370043204094953,-0.9523706415898072,-0.03491561567203018,0.07423689809671248
-462.4574398994446,-2992.0,-4548.0,-14668.0,-64.0,17.0,-377.0,-0.2960619684703435,-0.9492498798188317,-0.06710014773832058,0.08227725483324398
-462.47313261032104,-3060.0,-2432.0,-15632.0,122.0,-939.0,-1614.0,-0.27589733759970975,-0.924049101482566,-0.17341101130261166,0.1998562941557247
-462.4888246059418,-1000.0,-2248.0,-16992.0,-1259.0,181.0,1840.0,-0.3989766447438699,-0.9077373986950834,-0.05044065620566303,0.11952486001141825
-462.50462675094604,-2176.0,-5072.0,-15472.0,-709.0,1429.0,1056.0,-0.45331708483456135,-0.8904194785461844,-0.02364946895321242,-0.03312816688057301
-462.52033281326294,-2880.0,-5156.0,-14248.0,-495.0,-206.0,697.0,-0.48850260464964335,-0.8704580354142992,0.039953235043872014,-0.04551651175915855
-462.5360734462738,-1604.0,-5140.0,-15088.0,-384.0,589.0,482.0,-0.5161289347963178,-0.8478849096216227,0.05283774686809858,-0.10913420732223969
-462.5517921447754,-3176.0,-4352.0,-15064.0,59.0,-341.0,312.0,-0.506549270987615,-0.8518077392987234,0.09063990030638229,-0.0980602865851555
-462.5674843788147,-2588.0,-2468.0,-16168.0,21.0,-166.0,411.0,-0.49951857793070015,-0.8504337844430487,0.128255047673828,-0.10389519395116059
-462.58319878578186,-2200.0,-1872.0,-16560.0,-784.0,228.0,1913.0,-0.5339335624619234,-0.7802141367294093,0.263121200391957,-0.19221884826571373
-462.5990059375763,-1836.0,-4296.0,-15488.0,-719.0,1198.0,2133.0,-0.560672218859169,-0.6616285821653616,0.35597288681699824,-0.3481057111174162
-462.6147837638855,-3280.0,-4612.0,-14424.0,-413.0,96.0,1207.0,-0.5472228012575555,-0.5974515906569832,0.43096633127148576,-0.3973245825715674
-462.63052797317505,-1744.0,-4596.0,-15572.0,-582.0,232.0,958.0,-0.5501214475957572,-0.5231193955704664,0.4877586345582252,-0.4310498872370043
-462.64622044563293,-1880.0,-4508.0,-15148.0,-841.0,828.0,1376.0,-0.5647706440709052,-0.38831573779005696,0.5359969655606218,-0.492901876939117
-462.6620190143585,-2724.0,-3992.0,-15332.0,-234.0,182.0,1050.0,-0.533438150640918,-0.31847871118319987,0.5703221052073689,-0.5373525344461679
-462.67773604393005,-2120.0,-2932.0,-15680.0,-215.0,341.0,2761.0,-0.41461084906157303,-0.1507250281463419,0.6232870539950587,-0.6456725625678131
-462.6934380531311,-2544.0,-3224.0,-15648.0,-21.0,816.0,3278.0,-0.26321294844670856,0.07128209964265661,0.6122607094180518,-0.7421419202170355
-462.7091488838196,-2940.0,-3456.0,-15440.0,-310.0,499.0,2769.0,-0.10534381161119843,0.25119070366107765,0.5862604501434012,-0.762957794604088
-462.72487807273865,-2600.0,-3520.0,-15452.0,-332.0,657.0,1859.0,-0.007747199703687453,0.38734542539101807,0.553423833792397,-0.7373096788432442
-462.7406053543091,-2436.0,-4144.0,-15232.0,-766.0,635.0,1571.0,0.0874038399054434,0.49818457869190536,0.5422665705168486,-0.6709095772332128
-462.7563111782074,-2908.0,-4432.0,-14864.0,-293.0,231.0,762.0,0.13339935936061129,0.5441635822533577,0.526783412899844,-0.639210327329717
-462.77201795578003,-2496.0,-3840.0,-15564.0,-305.0,-14.0,202.0,0.15963052022408414,0.5489668332161223,0.5339310758148106,-0.6229535450745018
-462.7877986431122,-2364.0,-3772.0,-15584.0,-521.0,-90.0,295.0,0.20443674893975186,0.5499195815650261,0.5462677093509172,-0.5978174129404337
-462.8035047054291,-2608.0,-3504.0,-15740.0,-381.0,76.0,82.0,0.22312663805613114,0.5507861899453629,0.5633845370476961,-0.573974685653289
-462.8192210197449,-2436.0,-3244.0,-15376.0,-311.0,171.0,812.0,0.2694070796379496,0.5915643046062691,0.5418043992351668,-0.5328409630706642
-462.83492517471313,-2372.0,-3624.0,-15440.0,-422.0,288.0,941.0,0.31977133608558717,0.6368605950529462,0.5175218632727973,-0.47363065369705304
-462.8506681919098,-2712.0,-3900.0,-15368.0,-417.0,135.0,563.0,0.35921913464240784,0.6550699763371649,0.5064067727341177,-0.43057765842807233
-462.86636328697205,-2616.0,-4248.0,-15176.0,-366.0,-17.0,40.0,0.3819677013407612,0.6444973864362871,0.517225864739702,-0.413764666028309
-462.882066488266,-2312.0,-4080.0,-15208.0,-487.0,-268.0,-8.0,0.4204383189839938,0.6176094164438732,0.5258676409546368,-0.4065137794055416
-462.8977656364441,-2464.0,-3448.0,-15152.0,-247.0,-162.0,-236.0,0.4323459334042349,0.5917600499035083,0.5412711816318998,-0.41221662404835774
-462.9134500026703,-2040.0,-3028.0,-15616.0,-187.0,99.0,675.0,0.46050619072431226,0.6190847157613596,0.5160555832074541,-0.3719607480039716
-462.929146528244,-2352.0,-3228.0,-15472.0,-263.0,372.0,658.0,0.47791310719377855,0.6487543151033929,0.5029245332965164,-0.31270403645555434
-462.9448826313019,-2492.0,-3612.0,-15404.0,-176.0,299.0,511.0,0.48773052322579724,0.6711343146353291,0.4907078736575226,-0.26627701959307354
-462.9606170654297,-2352.0,-3580.0,-15564.0,-46.0,214.0,452.0,0.4910236132042707,0.6929498429848587,0.47410313955932226,-0.23225533243195154
-462.9763333797455,-2280.0,-3524.0,-15452.0,46.0,388.0,697.0,0.48486284877569324,0.7299597793043338,0.44670041966168617,-0.1803482008481403
-462.9920690059662,-2392.0,-3368.0,-15464.0,31.0,403.0,404.0,0.47266520905313486,0.7525375264698974,0.43711014658477054,-0.13859866939464255
-463.0078155994415,-2580.0,-4096.0,-15244.0,-157.0,287.0,192.0,0.4738066887589908,0.7565474868846619,0.4381208915567847,-0.10579794968349371
-463.02350878715515,-2820.0,-3828.0,-15452.0,92.0,172.0,-376.0,0.4570844002611001,0.7471515079623771,0.4690045713709685,-0.11346006883758929
-463.03920912742615,-2440.0,-3464.0,-15604.0,-212.0,414.0,746.0,0.4597106500387343,0.7711643523652768,0.43780869978960607,-0.047908269333613675
-463.0549147129059,-2560.0,-4092.0,-15232.0,-438.0,699.0,935.0,0.4633781319337103,0.7876975823231431,0.4024963407204871,0.053008691311122895
-463.07066655158997,-2852.0,-4688.0,-14908.0,-634.0,256.0,-83.0,0.497207030206445,0.7567097156258116,0.41498176448795354,0.08925082931410386
-463.0863447189331,-3076.0,-4096.0,-15432.0,-727.0,-116.0,-985.0,0.5536712476260508,0.6865749521447134,0.4667748197085708,0.06468579693972858
-463.1020522117615,-2136.0,-3716.0,-15504.0,-912.0,217.0,-374.0,0.5990273220758259,0.623765309814117,0.49275602894281345,0.09630473311147651
-463.11774587631226,-2572.0,-3488.0,-15252.0,-979.0,324.0,-135.0,0.6366804108512693,0.5618776073912847,0.5068987765149232,0.14827420247021483
-463.1334388256073,-2292.0,-3716.0,-15448.0,-1308.0,346.0,-17.0,0.6808019400328654,0.4807629493029022,0.5067008865910054,0.2205219185318107
-463.14910554885864,-2840.0,-4332.0,-15236.0,-1464.0,510.0,-105.0,0.7149849514610177,0.37599354570177024,0.508796019849829,0.2975768521909416
-463.16481256484985,-3140.0,-4316.0,-15256.0,-2020.0,4.0,-336.0,0.7773777588783601,0.23134740379294183,0.4605728744299733,0.36060341942199575
-463.18065571784973,-2760.0,-5116.0,-14976.0,-2378.0,452.0,-239.0,0.796898535730191,0.045193187461498155,0.412327608039528,0.43919954827680413
-463.19636845588684,-3744.0,-3632.0,-15976.0,-1681.0,-637.0,-1245.0,0.8586058236410004,-0.09053945897982008,0.30333420234431946,0.40322079269990085
-463.2121012210846,-1304.0,-2516.0,-16036.0,-1936.0,576.0,-1163.0,0.8514510484628801,-0.28105022256172124,0.26403594533463315,0.35542496260211665
-463.22779726982117,-1080.0,-1828.0,-15972.0,-1855.0,1263.0,202.0,0.7559624428985195,-0.44508995938079887,0.29972743559607756,0.3749388981371507
-463.2434837818146,-1588.0,-2384.0,-15952.0,-2232.0,1451.0,659.0,0.5928307843241444,-0.6056646417169507,0.3385662898733494,0.40877239424023326
-463.25918555259705,-2052.0,-3536.0,-15724.0,-2462.0,1663.0,754.0,0.37336911504141373,-0.7440812915223524,0.3638928981231667,0.41775650112851903
-463.2748911380768,-2452.0,-4244.0,-15312.0,-2888.0,1361.0,150.0,0.1320001867405803,-0.8506971261053785,0.3012202495364039,0.4100691546626353
-463.29066228866577,-2272.0,-4084.0,-14940.0,-3626.0,1551.0,254.0,-0.17679734337326627,-0.8899843558026282,0.19680375249076476,0.37140116963775177
-463.30635595321655,-3128.0,-4828.0,-13836.0,-5169.0,549.0,-472.0,-0.5207378660799133,-0.7610902435246713,-0.014475839953812155,0.38647660485432556
-463.3220429420471,-4236.0,-4552.0,-16304.0,-3093.0,-621.0,-2896.0,-0.5892651639606533,-0.5584239833284228,-0.26511035727491544,0.5202362154364194
-463.3377287387848,-1424.0,-2004.0,-17352.0,-4494.0,-489.0,-955.0,-0.7197838608857474,-0.2627156906535235,-0.4550929970203538,0.45363203541624053
-463.3534240722656,-908.0,-1628.0,-17264.0,-4497.0,1508.0,2210.0,-0.7734663857245119,-0.11627495321044054,-0.6161924292370405,0.09239467279624569
-463.3691084384918,-2944.0,-1824.0,-16556.0,-3884.0,699.0,2521.0,-0.7363018017473382,0.004318995770432307,-0.6196190100954911,-0.2718699787535251
-463.38484144210815,-2180.0,-2148.0,-16168.0,-4094.0,598.0,3048.0,-0.5748007585259475,0.10657377313118405,-0.5131007214324108,-0.6284693855265487
-463.4006242752075,-2764.0,-2948.0,-16432.0,-4302.0,601.0,3558.0,-0.2807864067251658,0.1761404539971974,-0.3059168801335282,-0.8924956003888196
-463.41631746292114,-2832.0,-2620.0,-17332.0,-3427.0,321.0,2118.0,-0.051476639456623126,0.21578469617356205,-0.07510308113897736,-0.9721865292684159
-463.4320147037506,-1920.0,-1104.0,-17004.0,-3765.0,720.0,2897.0,0.2489081736044993,0.25371081867438505,0.17196811751663518,-0.9187505146437909
-463.44771933555603,-1844.0,-1936.0,-16748.0,-4383.0,1733.0,2423.0,0.4666413600268625,0.3031744826051628,0.4606535095678097,-0.6914690291923651
-463.4634482860565,-3052.0,-2616.0,-16744.0,-4308.0,1112.0,1027.0,0.5552735844927386,0.21946880471621769,0.686407101240813,-0.4151505527964577
-463.47916197776794,-2688.0,-2940.0,-16388.0,-4717.0,1338.0,198.0,0.526190012235695,0.04714226954815647,0.8443371789192603,-0.0894226243179731
-463.4949014186859,-3252.0,-2732.0,-16104.0,-5508.0,1185.0,-70.0,0.413435036114147,-0.18099500125525875,0.8454896189875775,0.2854112552408257
-463.51067447662354,-3168.0,-2636.0,-16580.0,-5646.0,705.0,-1374.0,0.27276996676564863,-0.44859118343145077,0.6312027775947672,0.5709164115130061
-463.52636337280273,-2820.0,-1924.0,-17244.0,-6045.0,647.0,-324.0,0.014633182794720298,-0.5676127488485836,0.294000624398962,0.7688727268923458
-463.54207468032837,-2920.0,-1288.0,-17752.0,-5885.0,1035.0,717.0,-0.31120535835713625,-0.5546067630266716,-0.056602171169581536,0.7696484636207449
-463.55776858329773,-3236.0,-1592.0,-17236.0,-6325.0,1581.0,2444.0,-0.6611007284822599,-0.42847421159265736,-0.34707960405956284,0.5088137431773372
-463.5734860897064,-3924.0,-4008.0,-16056.0,-6122.0,2260.0,3081.0,-0.8107938155191062,-0.22771716360137087,-0.5367366145612097,0.051692249967354165
-463.58929443359375,-4784.0,-6456.0,-14300.0,-4299.0,1541.0,4075.0,-0.7429408103054461,-0.10703189769517808,-0.5155369054234792,-0.4132854030870662
-463.60506296157837,-4176.0,-7128.0,-13712.0,-2490.0,1053.0,3489.0,-0.553302579671497,-0.060167029361266895,-0.43082694386489545,-0.7103691493489435
-463.62077736854553,-3708.0,-7576.0,-12936.0,-757.0,657.0,4448.0,-0.23862398531157022,-0.1393494983059649,-0.3646846334849085,-0.8891824498132411
-463.63659954071045,-4352.0,-8580.0,-12648.0,1181.0,-474.0,3019.0,-0.0048630710611957725,-0.2853343213865223,-0.39409743261811736,-0.8736405949717281
-463.6524293422699,-4236.0,-7720.0,-12632.0,2572.0,-1647.0,358.0,0.028834404312080352,-0.40993029512485624,-0.5608583791398698,-0.7187235969518558
-463.6682574748993,-3540.0,-7344.0,-12860.0,3775.0,-2063.0,-193.0,0.04757049353257305,-0.48720755150933565,-0.7580607986438703,-0.4309404546532653
-463.684020280838,-3820.0,-7504.0,-13696.0,4972.0,-3523.0,-782.0,-0.0030938758684627677,-0.4823737324922001,-0.875068060986484,0.03952086505896367
-463.6997401714325,-3644.0,-7116.0,-14084.0,6088.0,-4047.0,-2413.0,-0.03945092559853333,-0.23715789467896112,-0.7922154232447539,0.5608872263066768
-463.7154450416565,-3096.0,-5936.0,-14772.0,7227.0,-4145.0,-3060.0,-0.021085903074032936,0.12042062703929027,-0.3856716195828971,0.9145007704334217
-463.7311749458313,-2988.0,-5316.0,-14696.0,7593.0,-4189.0,-2126.0,-0.0569864658617308,0.4041597275781844,0.19723798620959065,0.8913498943223715
-463.7468898296356,-3264.0,-5452.0,-15752.0,8506.0,-4228.0,-2128.0,-0.09048430513049634,0.49868481181315666,0.7278072386565286,0.4619769175522587
-463.7626347541809,-2812.0,-5416.0,-16248.0,9376.0,-3850.0,-1653.0,-0.13948328824290107,0.35364168731681056,0.89965555203415,-0.21471342991717124
-463.7783422470093,-3236.0,-4944.0,-15696.0,9568.0,-3862.0,-565.0,-0.1053346782818832,0.0895183602993484,0.5828933936347698,-0.8007036657699961
-463.79404044151306,-3576.0,-5004.0,-15720.0,9828.0,-4243.0,-1548.0,-0.05410568947443042,-0.27342315807733986,-0.038147621187573526,-0.9596130001157966
-463.8097414970398,-4080.0,-4500.0,-15612.0,10142.0,-5149.0,-1618.0,0.02494369579214641,-0.5277865219444531,-0.6367505996099345,-0.5615762398734433
-463.82544589042664,-3688.0,-3168.0,-15632.0,9694.0,-4655.0,-3622.0,0.025038165569907362,-0.379123545993364,-0.9157301861656797,0.13067766941325923
-463.84114503860474,-3360.0,-4860.0,-16684.0,9632.0,-4748.0,-3609.0,0.003674215751967118,-0.011044957497266274,-0.6652949473937765,0.746489880724986
-463.85687804222107,-3928.0,-4056.0,-16492.0,10492.0,-5024.0,-4018.0,-0.011039750639920933,0.3767588083617839,0.008472614328706152,0.9262068554238054
-463.8726315498352,-2924.0,-3352.0,-16120.0,10247.0,-4588.0,-2267.0,-0.11412550483555438,0.5207719049175139,0.6475637300766368,0.5444568005671767
-463.8883786201477,-3628.0,-3684.0,-15956.0,10283.0,-4093.0,-2914.0,-0.14973309528383064,0.3171091082751771,0.9263875476958593,-0.13721488658195038
-463.9040927886963,-3572.0,-2896.0,-15696.0,9760.0,-4051.0,-3391.0,-0.09525955051685173,-0.09555907738989781,0.6869596436710368,-0.7140591913357612
-463.9197962284088,-3420.0,-3376.0,-15932.0,9615.0,-3566.0,-3597.0,-0.01840364008247356,-0.4450627741693103,0.06365761071987251,-0.8930443111502753
-463.9355003833771,-3876.0,-3480.0,-15396.0,9525.0,-3573.0,-4522.0,0.01364995760212151,-0.5481119300382786,-0.6085574877812684,-0.5736242453667076
-463.95120763778687,-3692.0,-2948.0,-15288.0,9329.0,-3605.0,-4548.0,0.029405330941927144,-0.34355290494866164,-0.9364653254415835,0.06433834206070842
-463.96690702438354,-2360.0,-2956.0,-15132.0,9562.0,-2186.0,-1783.0,0.11104206266581973,-0.12148252039106967,-0.7104857088214142,0.6841942086271166
-463.98267936706543,-3648.0,-3064.0,-14600.0,9713.0,-2086.0,-2462.0,0.1727468804616825,0.18628471968583826,-0.1321071144116198,0.9581253721847476
-463.9983971118927,-3216.0,-2952.0,-14880.0,8759.0,-1470.0,-3473.0,0.23349835531489274,0.37005049174048177,0.4875882324508143,0.755512321013601
-464.014089345932,-3824.0,-3124.0,-14244.0,8430.0,-971.0,-6005.0,0.29508903509877604,0.259498470702835,0.901800260292106,0.17983129762211242
-464.0297873020172,-4092.0,-3932.0,-14488.0,6655.0,-1838.0,-7313.0,0.30333731329252733,-0.08705283448037315,0.8451334591951883,-0.43145998020926435
-464.04545068740845,-3556.0,-3468.0,-14672.0,6759.0,-1808.0,-8718.0,0.11430845172558664,-0.4432522103664048,0.34132423317034627,-0.8209499520190442
-464.0611746311188,-2164.0,-4048.0,-13924.0,6084.0,-526.0,-7556.0,-0.13424129421173323,-0.49239055774952933,-0.29890341600852993,-0.8063420871230138
-464.07689094543457,-2532.0,-5384.0,-12852.0,6377.0,578.0,-7784.0,-0.2949611289902285,-0.2429439265725257,-0.8176787994882952,-0.43055494631198155
-464.09269881248474,-3352.0,-6312.0,-13656.0,6301.0,-549.0,-8243.0,-0.37791947176478324,0.12035466140277655,-0.9001327426247115,0.18014625723163127
-464.1084249019623,-2820.0,-6908.0,-14372.0,6400.0,-761.0,-9902.0,-0.24295407953569612,0.48673882821085857,-0.46684882288648016,0.6972164691961822
-464.12413239479065,-2320.0,-6100.0,-13684.0,6333.0,-611.0,-8453.0,-0.016570345417165174,0.5394595785343399,0.21326312472814907,0.8143878844945412
-464.1398482322693,-2624.0,-5400.0,-13112.0,5718.0,-218.0,-9424.0,0.2796239241998045,0.2677162428489581,0.7665043320775258,0.5124544694276026
-464.15555691719055,-3824.0,-5876.0,-12996.0,5202.0,-548.0,-10838.0,0.4684526678508304,-0.21089182816516855,0.8543977241452126,-0.07798245810484315
-464.17130970954895,-4296.0,-4844.0,-14360.0,4050.0,-2351.0,-11731.0,0.4288068263486916,-0.6289444580589713,0.3460481436055153,-0.5484562486295937
-464.18705892562866,-3868.0,-4348.0,-15080.0,3231.0,-3224.0,-10152.0,0.15605584751023568,-0.6951749708718891,-0.3488155361606013,-0.6088563492845604
-464.20281171798706,-2368.0,-3972.0,-15332.0,2689.0,-2026.0,-8852.0,-0.16406518554072147,-0.38302288457631417,-0.8142519160174818,-0.40419042794973253
-464.21851897239685,-1968.0,-4128.0,-14372.0,2407.0,-1265.0,-2425.0,-0.24677631477343112,-0.2761781675032455,-0.9169349076656818,-0.14851749178302717
-464.2341923713684,-1568.0,-4632.0,-13796.0,1510.0,1587.0,-3411.0,-0.12011481714860435,-0.014284895139351838,-0.9926301271388702,0.007335064313643263
-464.24987983703613,-3392.0,-4980.0,-13676.0,527.0,433.0,1265.0,-0.08210893220884054,-0.12863058809084002,-0.987510127571585,0.03919238449597984
-464.26556849479675,-4616.0,-4412.0,-13944.0,-1475.0,-613.0,-1935.0,-0.14164741107967738,0.049654107126667804,-0.9865083790914448,-0.06535823255144177
-464.281373500824,-5192.0,-3460.0,-14168.0,-1617.0,-3020.0,-960.0,-0.3822103126186026,0.12904470935196716,-0.8937267557917138,-0.1962529640496547
-464.2970974445343,-4348.0,44.0,-13728.0,-2964.0,-2714.0,-622.0,-0.5380857186321194,0.21674888225241093,-0.7027136242590704,-0.41191897713891273
-464.31279706954956,-3052.0,-732.0,-13052.0,-6927.0,-2287.0,2135.0,-0.39204778225309994,0.274176578248254,-0.3224753325590432,-0.8167835700241769
-464.3286061286926,-2188.0,-9772.0,-11724.0,-15711.0,1170.0,-466.0,-0.009679894550181187,0.534215275649322,0.45192215760526483,-0.7143435464605377
-464.34430980682373,-768.0,-32768.0,-15792.0,-19893.0,-12193.0,28037.0,0.9430059503438334,0.26874812659483416,0.11854427607645228,-0.15640165177324825
-464.3599946498871,12396.0,-25728.0,-24504.0,17441.0,6998.0,-14300.0,0.11621301539670838,0.7210070200415217,0.34567344231153513,-0.5891971515407582
-464.3756785392761,-1344.0,17460.0,-14628.0,11107.0,6148.0,11302.0,-0.10445453481902046,0.8333256609879407,-0.48874478702298446,-0.23619086784338492
-464.3914382457733,-22256.0,20492.0,-27604.0,-32768.0,-2836.0,-21254.0,0.4829451558824064,0.5560238098330047,0.49376462358891865,-0.4623829536224301
-464.40717101097107,-7352.0,-19448.0,-23404.0,-23902.0,-22899.0,27081.0,0.9633429304811465,-0.05394212589840155,-0.21241837608519132,0.15472258673796813
-464.42286467552185,30572.0,-31084.0,-17764.0,-317.0,18878.0,-24610.0,0.5697752834242038,0.04177093249142603,0.43465375682235624,-0.6961949635539436
-464.43858003616333,-4228.0,14300.0,-388.0,8547.0,3337.0,32767.0,0.7668106580507615,0.610367486456371,-0.012227509492074233,0.19825093742101443
-464.4542815685272,-20732.0,8852.0,-11828.0,-21384.0,1702.0,-8689.0,0.9131125348043995,-0.37303210728047914,0.08641191844635128,-0.14001973457834538
-464.4700140953064,-4052.0,-16956.0,-21896.0,-11777.0,-13001.0,1685.0,0.3533984454114417,-0.7946809177969694,-0.4091873041322616,0.27596653385349934
-464.48573327064514,5536.0,-11484.0,-13792.0,-5897.0,4542.0,11179.0,-0.1055133372720996,-0.9639812352486343,0.23625083754677642,0.061584539493836236
-464.5014386177063,-10980.0,-4252.0,-16688.0,-2826.0,-3921.0,-5171.0,-0.19941758962207667,-0.8707250139468987,-0.15136855736710972,0.42327075835343736
-464.51712679862976,1044.0,1580.0,-13432.0,-7477.0,-1793.0,3898.0,-0.7473337105495647,-0.5802007480204866,-0.08004157553482596,0.3137718331185739
-464.5328233242035,752.0,-6572.0,-15848.0,-7992.0,8894.0,11872.0,-0.7955955855428345,-0.21685074554923392,-0.15627945039360386,-0.5436728352641584
-464.548627614975,-14692.0,-8192.0,-12620.0,-5392.0,-2520.0,-1526.0,-0.8852450552044283,0.05197045117307487,0.21629559162657658,-0.40848069903470957
-464.56432127952576,-5016.0,-3768.0,-13680.0,-4866.0,-3257.0,-7563.0,-0.822361287032107,0.1299847103505175,0.5187974776400059,0.19410065909304955
-464.580011844635,152.0,-3988.0,-15352.0,-6301.0,974.0,2991.0,-0.7203202215226537,0.5974146019948041,0.26281276692501854,0.23487022231470844
-464.59583735466003,-4624.0,-4960.0,-16728.0,-5642.0,-473.0,-733.0,-0.3581171406222676,0.8459420032958652,0.19253422150872954,0.3450576969150765
-464.6115608215332,-2516.0,-5676.0,-14916.0,-5564.0,234.0,641.0,0.026500371206293265,0.9195379538183678,-0.026664534870548987,0.3911990342442007
-464.6273264884949,-3340.0,-5064.0,-14624.0,-5640.0,-119.0,1281.0,0.3883204127681784,0.8102949892267921,-0.2877642926318859,0.3313925155273948
-464.67453026771545,-2912.0,-2384.0,-14968.0,-3850.0,-862.0,753.0,0.5822242298379576,0.6473867573459884,-0.45453544675825375,0.18789055389486234
-464.69022607803345,-3288.0,-1824.0,-14744.0,-4166.0,-650.0,2883.0,0.6798509661166201,0.30339083947393214,-0.6566208124726701,0.12085433803273894
-464.70593523979187,-3704.0,-4556.0,-15896.0,-3840.0,-332.0,1757.0,0.6976059759951133,-0.020254865081205997,-0.71618667543766,-0.00350551308648395
-464.72161412239075,-4576.0,-2624.0,-14796.0,-3995.0,438.0,1897.0,0.6696739796291561,-0.3561233977938228,-0.6387882877278552,-0.12908295787262644
-464.73739552497864,-5736.0,-3232.0,-12948.0,-3840.0,1092.0,2619.0,0.5912230038574514,-0.6594483446206133,-0.41576737992897456,-0.20668992784821497
-464.75309896469116,-7396.0,-7184.0,-14056.0,-4505.0,-1870.0,-566.0,0.23321027994201501,-0.8320456381764622,-0.42604773890653747,-0.26794840080418014
-464.7688100337982,-2768.0,-1276.0,-18488.0,-3093.0,-374.0,-2170.0,-0.053345725247811865,-0.7813771611807068,-0.492596522507146,-0.379410900735379
-464.7846009731293,-1740.0,-4048.0,-14376.0,-4385.0,1900.0,3770.0,-0.12874862486405164,-0.7597572106877206,-0.08761086371116797,-0.6312821151936854
-464.8003239631653,-7688.0,-3844.0,-15812.0,-3103.0,-2181.0,-4397.0,-0.5293015521494358,-0.7239320111234169,-0.16386650723710788,-0.410986712642774
-464.81601881980896,-352.0,-56.0,-15444.0,-2369.0,-753.0,1487.0,-0.6168391814026766,-0.6428070255555686,0.04825372544912192,-0.45164159481070765
-464.83171701431274,-2220.0,-288.0,-15252.0,-3272.0,2124.0,7381.0,-0.4189119500468821,-0.28462267632207533,0.38550679932633847,-0.7712893217880954
-464.8474454879761,-7024.0,-1176.0,-14776.0,-1549.0,594.0,1745.0,-0.3520990576580314,-0.12657328079809646,0.5007104822058426,-0.7805731683791888
-464.863162279129,-2264.0,-8680.0,-13128.0,-4492.0,1260.0,7640.0,0.050234209399662264,0.3397240653912461,0.6718427011421454,-0.656270880446528
-464.8788752555847,-9988.0,-7184.0,-18124.0,-4341.0,-2325.0,-4829.0,0.0331861415200134,-0.08172834621306968,0.9026479596317621,-0.4212431820325485
-464.89464259147644,-2620.0,360.0,-14900.0,-1973.0,-1709.0,810.0,0.1785354813235367,-0.08407949122818646,0.9494501987437105,-0.2441311966318748
-464.9103479385376,-2568.0,572.0,-14024.0,-3355.0,-172.0,6282.0,0.25637869018813086,0.32312001403967755,0.903909820356949,0.11318330445204944
-464.9260585308075,-5200.0,-2484.0,-16088.0,-2359.0,-658.0,-48.0,0.3668632048529521,0.267008824921141,0.8482189595917051,0.2732073808088236
-464.94176197052,-3196.0,-1728.0,-15796.0,-2729.0,644.0,2199.0,0.3153046078698418,0.3123321736894889,0.7187834237284182,0.5351467156843042
-464.95745611190796,-4564.0,-1312.0,-15556.0,-1803.0,-393.0,1668.0,0.30407901635566087,0.3769703297822149,0.5653712983943547,0.6676710396804276
-464.97318863868713,-3432.0,-1196.0,-14896.0,-2115.0,-254.0,3700.0,0.15983101930285012,0.4857081809327722,0.2941601058093728,0.8074722536371192
-464.98891019821167,-4256.0,-2676.0,-15592.0,-1734.0,282.0,4616.0,-0.0911295025499562,0.514607399698787,-0.018036702817071332,0.8523786220288136
-465.0046384334564,-6176.0,-2540.0,-14300.0,-1823.0,-335.0,1120.0,-0.09150979672351393,0.5428695211463077,-0.1978796426592751,0.8110254540611148
-465.02033495903015,-4424.0,-800.0,-15476.0,-1685.0,-336.0,-387.0,0.00978197912494755,0.5801836613347264,-0.29281543497811396,0.7599673368265301
-465.03602385520935,-3096.0,-1464.0,-15484.0,-1780.0,-82.0,2165.0,-0.04450126100638046,0.513797824710974,-0.5057696484080563,0.6915406682475763
-465.0517337322235,-4412.0,-1672.0,-15472.0,-1232.0,-588.0,690.0,-0.056401952753582486,0.5190991792637475,-0.6035959503024718,0.6025170458930953
-465.06744480133057,-3996.0,-700.0,-15316.0,-1442.0,-355.0,2382.0,-0.13117847729092758,0.4074118234616837,-0.7631534884162259,0.48415345327427395
-465.0831835269928,-4932.0,-1528.0,-15768.0,-982.0,211.0,1315.0,-0.13638152111026758,0.31886330571098964,-0.8451821837977496,0.4066858113600428
-465.0989234447479,-4288.0,-980.0,-15824.0,-1264.0,7.0,2441.0,-0.18215623850750437,0.149374132992891,-0.9317104780910233,0.2764453981907027
-465.11466240882874,-4904.0,-2476.0,-14520.0,-1128.0,968.0,2763.0,-0.1498680836403778,-0.07785996961253663,-0.9745087630348586,0.147682271807301
-465.130357503891,-6408.0,-2028.0,-14928.0,-1406.0,-280.0,-1485.0,-0.16167006212332546,0.06924344355353308,-0.9832226057114346,0.048388471311928714
-465.146053314209,-4352.0,-648.0,-15284.0,-1139.0,23.0,103.0,-0.15232185750651817,0.07596414766211135,-0.9841036379593501,-0.050670797812005584
-465.1617510318756,-4296.0,-184.0,-15764.0,-1104.0,-207.0,879.0,-0.15755516986037418,0.014171319964910774,-0.9748420108211003,-0.15703055778731184
-465.17744874954224,-3092.0,-1356.0,-16140.0,-997.0,380.0,1370.0,-0.10394367095572628,-0.0824864153414927,-0.9572633203906036,-0.25697984354247555
-465.193195104599,-3512.0,-1136.0,-15736.0,-760.0,914.0,3534.0,0.04392152989209024,-0.333116677535376,-0.8778888534914941,-0.34119692154988807
-465.2089116573334,-3128.0,-1508.0,-16012.0,-924.0,1655.0,3564.0,0.2357089917187889,-0.5286400337389343,-0.6984903122172876,-0.4208233236050569
-465.22463274002075,-5880.0,-676.0,-15060.0,-939.0,-683.0,225.0,0.15801528985846375,-0.583728429123033,-0.6642636259818961,-0.4393701450962338
-465.2403314113617,-3448.0,-1792.0,-15428.0,-189.0,404.0,3552.0,0.2939069110848645,-0.7415209165458603,-0.4491957485318697,-0.402478120451825
-465.25602293014526,-5704.0,-12.0,-15012.0,-548.0,-745.0,933.0,0.2601484427074341,-0.8131136171595897,-0.386210572295646,-0.34929991009677436
-465.27172470092773,-4316.0,-1192.0,-16344.0,-347.0,-27.0,1126.0,0.26738779919180183,-0.8553829670514573,-0.29482611292083616,-0.33151366134987603
-465.28744745254517,-4836.0,-240.0,-15596.0,-226.0,350.0,230.0,0.2657992141872378,-0.8558480573380962,-0.262752144063656,-0.35754187346100513
-465.30318427085876,-4216.0,-736.0,-15444.0,-62.0,202.0,1181.0,0.30087204850933386,-0.873431571617173,-0.1670279469545964,-0.34452135647051624
-465.31889605522156,-4204.0,-876.0,-15492.0,-144.0,717.0,1513.0,0.342041332651463,-0.8685731965975675,-0.028236682684013182,-0.35747869679366445
-465.33465790748596,-5164.0,-568.0,-14960.0,-200.0,-214.0,-227.0,0.3189687630678157,-0.880347664302659,-0.04553338652241225,-0.34810002708365456
-465.3503544330597,-4204.0,-1336.0,-15700.0,-7.0,-349.0,106.0,0.31996506323484214,-0.8912563466236442,-0.04683733469296329,-0.3179477110957985
-465.36605405807495,-4668.0,-736.0,-16076.0,355.0,-109.0,-653.0,0.32816191741025996,-0.8799575974272157,-0.11025989925901405,-0.32531083183185966
-465.3817517757416,-4008.0,-1024.0,-15512.0,401.0,47.0,185.0,0.3642372143663347,-0.8684207083369738,-0.10599690740011743,-0.31928260307096634
-465.3975043296814,-4536.0,-872.0,-15348.0,282.0,-216.0,777.0,0.40397955425464255,-0.8703970487750501,-0.06164134506656157,-0.2746085246424233
-465.4132204055786,-5616.0,-1156.0,-16236.0,701.0,-296.0,-773.0,0.4350022209531315,-0.8450025732289251,-0.14690152514353347,-0.2741599185016688
-465.4289309978485,-4368.0,-1012.0,-15536.0,965.0,-209.0,-984.0,0.4762515007537353,-0.7950727824365794,-0.24864671030376476,-0.2814579757503531
-465.44469714164734,-4248.0,-188.0,-15288.0,1422.0,-608.0,-890.0,0.533247292644404,-0.7230635141923046,-0.36621396004696544,-0.24230933700129667
-465.4604275226593,-3584.0,-60.0,-15484.0,1777.0,-251.0,738.0,0.6435953458898463,-0.6600559907692631,-0.3637905323145784,-0.13329504265654835
-465.47610664367676,-4628.0,-1208.0,-15268.0,1983.0,-451.0,-490.0,0.7256207522007844,-0.5298346032676142,-0.4333185333306646,-0.07060358226024614
-465.4918200969696,-4164.0,-996.0,-15524.0,2472.0,-956.0,-1190.0,0.7718348211421647,-0.32415008022169955,-0.5469319106304652,-0.007951069036124879
-465.5075047016144,-4184.0,-368.0,-15116.0,2635.0,-532.0,-185.0,0.798885141785924,-0.13468122394162627,-0.5743648485873911,0.11725407821672101
-465.5232014656067,-4908.0,-948.0,-14964.0,3139.0,-1265.0,-1154.0,0.7484078648233192,0.1478378940128923,-0.6149914142187761,0.199537428573246
-465.5388984680176,-4296.0,-1276.0,-14380.0,3366.0,-1076.0,-832.0,0.630607810591113,0.4109801631953696,-0.5873675657597086,0.29736919372205445
-465.5546667575836,-4404.0,-1704.0,-15516.0,3493.0,-963.0,-709.0,0.4512784499729887,0.6326200472680087,-0.49917446794837794,0.38335947481841776
-465.5703692436218,-5432.0,-1228.0,-15144.0,4012.0,-1184.0,-2123.0,0.2304461237179279,0.8540396535011909,-0.272500084452701,0.37848983907658346
-465.5860869884491,-4128.0,-1452.0,-15236.0,4201.0,-915.0,-918.0,-0.06933910532656565,0.9249260987639022,-0.07819283134917016,0.3654992221927428
-465.6019513607025,-4860.0,-1228.0,-15388.0,4477.0,-871.0,-724.0,-0.3835968942908692,0.8631957014929174,0.11900053751186347,0.30591743279263717
-465.61767077445984,-4444.0,-1836.0,-15584.0,4505.0,-803.0,-836.0,-0.6413505186233277,0.6720611466516775,0.3049542845351641,0.20977657582882608
-465.6333980560303,-4532.0,-2372.0,-15620.0,4429.0,-977.0,-320.0,-0.8078403271216265,0.40320017004941233,0.427145717065616,0.04868434184261978
-465.64909315109253,-5592.0,-2832.0,-14148.0,4647.0,-859.0,-1222.0,-0.8593268081618638,0.031200092364022554,0.5065447824105076,-0.06321688400665722
-465.66481924057007,-5092.0,-3016.0,-15096.0,5003.0,-1589.0,-2974.0,-0.7246499951551123,-0.4284152123102054,0.5366205902889822,-0.05814750605831415
-465.68062567710876,-3504.0,-1888.0,-15260.0,4785.0,-930.0,292.0,-0.4603797106865276,-0.6643513086389568,0.535588689871345,-0.24460706445193042
-465.71204710006714,-5808.0,-3608.0,-14704.0,4819.0,-32.0,-274.0,-0.17055297492655816,-0.8031862201117579,0.3853864767143763,-0.4210473157876288
-465.7277820110321,-6452.0,-3224.0,-14508.0,4897.0,79.0,-1704.0,0.09803570469961158,-0.8478089712754895,0.07733249843568822,-0.5153917282170339
-465.74348187446594,-5776.0,-2980.0,-14424.0,5224.0,-146.0,-1713.0,0.3683174661152145,-0.7405205177466887,-0.25747710354308034,-0.49967704380100303
-465.7591962814331,-4584.0,-3492.0,-15052.0,5105.0,460.0,-182.0,0.6394492843125024,-0.5042748023268336,-0.435466243093725,-0.3836413529017673
-465.77489972114563,-5508.0,-3924.0,-14848.0,5078.0,320.0,-1027.0,0.765718454875697,-0.1560905122290893,-0.5765416945668592,-0.23855958224479318
-465.7906756401062,-5220.0,-4560.0,-14544.0,5098.0,-112.0,-2043.0,0.709533234789504,0.256949441411128,-0.6476276544768029,-0.10544190080099422
-465.8064167499542,-4212.0,-3660.0,-14420.0,4860.0,-492.0,-477.0,0.5222074383193847,0.5334894412643552,-0.6547415582403796,0.11832962155061433
-465.82214856147766,-4732.0,-4432.0,-14360.0,4933.0,434.0,741.0,0.2835082245498353,0.6520062469950564,-0.5668554862802457,0.4161559781692533
-465.83787536621094,-5648.0,-5464.0,-13488.0,4722.0,241.0,73.0,0.022047345207418915,0.699326163576028,-0.3638941370539198,0.6148478580308484
-465.85357904434204,-6236.0,-4384.0,-14468.0,5055.0,-802.0,-2092.0,-0.17995038835572016,0.7373161454734738,0.030043673186139038,0.6504461061888597
-465.8692705631256,-4160.0,-4104.0,-14724.0,5352.0,286.0,668.0,-0.5092940193943187,0.5780044339120917,0.25900030229357257,0.582622793580014
-465.8849596977234,-5216.0,-4680.0,-14904.0,5456.0,240.0,585.0,-0.7391345323316391,0.3036811000148137,0.4475151843032466,0.4014823687619584
-465.9007263183594,-5080.0,-5416.0,-14552.0,5976.0,-152.0,395.0,-0.802306339115025,-0.053923274411419544,0.5816772006853318,0.12267213577448374
-465.9164571762085,-5460.0,-4732.0,-13636.0,5639.0,-934.0,600.0,-0.6566161203877038,-0.36494167096778807,0.6350566913390653,-0.179932893112177
-465.93214416503906,-5188.0,-4752.0,-14828.0,7280.0,-588.0,-1213.0,-0.3451661372619017,-0.7211777298335914,0.4333552827121298,-0.41589207569423037
-465.94782614707947,-3868.0,-4876.0,-15180.0,7802.0,-204.0,1222.0,0.1631595638144329,-0.7553441516946188,0.19209989742555184,-0.6049229691834433
-465.9635102748871,-5588.0,-5252.0,-14104.0,9268.0,-990.0,-246.0,0.6033107567167045,-0.5273892733801216,-0.2539405340060309,-0.5416556935380967
-465.9792320728302,-4944.0,-5228.0,-15412.0,10634.0,-2079.0,-2115.0,0.6817465784097854,-0.013788913377300777,-0.6938504144075046,-0.23152337057186653
-465.99496579170227,-4380.0,-4748.0,-14972.0,12071.0,-2073.0,-1673.0,0.3648533928634438,0.519209454028407,-0.722798215332459,0.2736170398125256
-466.0106828212738,-5868.0,-4456.0,-14240.0,12591.0,-3726.0,-5553.0,-0.19319256120389255,0.8515958580158975,-0.18118918043243176,0.4523622550565763
-466.0263810157776,-4016.0,-3696.0,-14744.0,13534.0,-2695.0,-8194.0,-0.5335404444447054,0.4994547903581364,0.5854167684953306,0.3509511557105071
-466.04208874702454,-2852.0,-5032.0,-16280.0,12203.0,-1998.0,-6365.0,-0.4885293846568995,-0.21147889464293806,0.8455705717324941,-0.04032524850928217
-466.0577857494354,-4940.0,-2592.0,-17884.0,11962.0,-2610.0,-9832.0,-0.06452188495897188,-0.8583682338794791,0.4323060257474455,-0.2686119906676059
-466.0735263824463,-172.0,-6628.0,-20148.0,7895.0,1073.0,-3914.0,0.3121724562825337,-0.8105941552768411,-0.04104745185162365,-0.4937616628152115
-466.08922815322876,-3644.0,-9220.0,-19116.0,9362.0,2314.0,-835.0,0.7232848900681628,-0.3460947717250115,-0.33645715349183264,-0.4938359653243889
-466.10497665405273,-4220.0,-4088.0,-14748.0,11331.0,2676.0,609.0,0.820382291052172,0.32691938355472033,-0.4469592409399422,-0.14256244288935918
-466.1207346916199,-4112.0,-5004.0,-10608.0,8496.0,5926.0,1976.0,0.6133163462024258,0.6857584082014627,-0.13602782411192677,0.3675253680078106
-466.13646125793457,-6720.0,-6964.0,-13416.0,5474.0,6869.0,-6539.0,0.41700448973188764,0.6045324932021192,0.5773717615000371,0.3567766377281759
-466.15214586257935,-5892.0,-7712.0,-15408.0,4232.0,5519.0,727.0,-0.09147320133775859,0.5320950539706226,0.7441132699303987,0.3934500584451748
-466.16782093048096,-7212.0,-6452.0,-13800.0,5240.0,2045.0,14287.0,-0.573048352403414,0.8061418941123462,0.14609088699367997,0.02020606597265548
-466.1835267543793,-7812.0,756.0,-16776.0,5470.0,2743.0,17692.0,-0.5344807987421685,0.39335278575497945,-0.6401326926924572,-0.3870839669387444
-466.1993262767792,-4384.0,-2176.0,-15368.0,-7322.0,7389.0,12536.0,0.31827381019935475,0.16358858972081136,-0.6719499318025698,-0.6484009902867693
-466.21501111984253,-2192.0,-13692.0,-16368.0,-5554.0,6382.0,9036.0,0.8716949472627089,-0.10832216019707107,-0.21022415351321708,-0.4292086133881223
-466.2307062149048,-4160.0,-6812.0,-15056.0,-4371.0,4141.0,8268.0,0.9071260366498795,-0.32653366849778753,0.2586312955694082,0.06006637929281159
-466.2464096546173,-6308.0,-4344.0,-14408.0,-12852.0,971.0,-4156.0,0.3492374168431666,-0.9320078698893652,0.09683402567719065,-0.004210535850650919
-466.26214575767517,-4904.0,-7828.0,-16740.0,-14514.0,-4070.0,-9866.0,-0.42967803059155735,-0.7831608571223497,-0.4423160803826105,0.07995215402546337
-466.2778813838959,308.0,-4568.0,-17856.0,-14197.0,-3421.0,-2060.0,-0.9311132890917648,-0.09050942032487648,-0.3399305534405228,-0.09634991721216127
-466.29359579086304,1100.0,-1092.0,-17844.0,-15851.0,2334.0,-87.0,-0.574579408530461,0.7095146070809732,-0.23112062551864365,-0.33620050876134716
-466.3093795776367,-1392.0,-2184.0,-16996.0,-16921.0,4019.0,4962.0,0.37456720059058385,0.8434086322980667,-0.13030469531989605,-0.36246651925995443
-466.3250720500946,-2616.0,-4732.0,-16208.0,-15558.0,4667.0,7122.0,0.9757322967442439,0.2179761219561586,-0.005313736184405208,0.020116151593170636
-466.34075832366943,-3300.0,-3968.0,-15108.0,-14994.0,5408.0,8440.0,0.6695819952983935,-0.5749286493349236,0.14401432460437533,0.44763475519097934
-466.35649251937866,-4212.0,-5332.0,-14380.0,-15232.0,4178.0,6380.0,-0.2212496373865846,-0.8640796082791619,0.06322201011826087,0.44768069642217284
-466.3721959590912,-4216.0,-4596.0,-14552.0,-13107.0,2552.0,9988.0,-0.9139912171332989,-0.3714239517474539,0.14442070942614116,0.07620342354740971
-466.3879508972168,-4024.0,-2320.0,-13128.0,-15040.0,5578.0,984.0,-0.8582737251538219,0.46640605905929455,-0.21404986463873157,0.0037757425097815524
-466.4037034511566,-4396.0,-2036.0,-14492.0,-14322.0,3622.0,4541.0,-0.12450301327324353,0.8654531307637857,-0.40199265070679696,-0.27183043780041893
-466.4194481372833,-3408.0,-2052.0,-14120.0,-13766.0,5768.0,5210.0,0.72839138821515,0.568819109768957,-0.3119997315386685,-0.22033377738208149
-466.43516516685486,-4696.0,-3480.0,-13876.0,-12089.0,5135.0,6504.0,0.981405531980428,-0.17113811344642296,-0.04682996347476401,0.0732248758630866
-466.450852394104,-5364.0,-2008.0,-14040.0,-11915.0,5205.0,4389.0,0.5105305773154606,-0.7966147899736402,0.24897729609636463,0.2068180650952396
-466.46652460098267,-3284.0,-3032.0,-14284.0,-11342.0,6515.0,6156.0,-0.329673718224368,-0.7987052067361627,0.4736155296065508,0.17050971338950177
-466.4822108745575,-3800.0,-3224.0,-13980.0,-10793.0,6899.0,6759.0,-0.9106097104688193,-0.1933334249235698,0.3634293730868366,-0.03648606288604586
-466.4979157447815,-4724.0,-4176.0,-13076.0,-10111.0,5660.0,4054.0,-0.8513976549203444,0.5164561817788644,0.009823473224402305,-0.0910963493908745
-466.513610124588,-4384.0,-4000.0,-13548.0,-9845.0,4469.0,2939.0,-0.2774110117030938,0.9195292813647257,-0.2691379646349668,-0.07123052218595818
-466.5293936729431,-4904.0,-3444.0,-14260.0,-8880.0,3332.0,1582.0,0.40096062183729114,0.8564043646245885,-0.3229332378155195,-0.03893928481357355
-466.54507851600647,-4456.0,-3340.0,-13996.0,-8078.0,3506.0,2852.0,0.8658827737529864,0.39318021045006285,-0.3002846371341794,0.07406403263037505
-466.5607981681824,-4944.0,-3252.0,-14260.0,-6860.0,3580.0,2087.0,0.9682712455365319,-0.16627217771487168,-0.11949477599766808,0.1432667319874173
-466.57658410072327,-4592.0,-2720.0,-14216.0,-5914.0,4006.0,3470.0,0.7238414215323227,-0.6184750702194018,0.16061888172874508,0.26027631245155514
-466.5923800468445,-4400.0,-3688.0,-14372.0,-4744.0,4997.0,6275.0,0.19787808275534716,-0.7322212214833459,0.548630539888814,0.3517113559096625
-466.60815501213074,-5076.0,-5084.0,-14328.0,-3238.0,4121.0,5495.0,-0.3125489717882238,-0.5432362239109418,0.7265112728128631,0.2817603871038983
-466.62387776374817,-4192.0,-4828.0,-13640.0,-2409.0,4402.0,7150.0,-0.701052492160507,-0.1053761631904787,0.7048603081467926,0.024355973928478027
-466.6395766735077,-5400.0,-6112.0,-12972.0,-1731.0,3317.0,5942.0,-0.7959191742137309,0.30617386637231775,0.4715536951607309,-0.2245157995549962
-466.6553509235382,-6016.0,-6816.0,-13272.0,-534.0,1566.0,2777.0,-0.7617531808559833,0.47011358884288834,0.28790078460193913,-0.3403504712302292
-466.67106223106384,-4980.0,-7068.0,-12848.0,566.0,683.0,800.0,-0.7740073031408325,0.47058901333115566,0.19187977940697692,-0.3776782035958583
-466.68680691719055,-4776.0,-7004.0,-12836.0,1814.0,-113.0,-298.0,-0.8454592460816941,0.3353438183251622,0.15007702367690684,-0.38758234439968414
-466.7025499343872,-5028.0,-6984.0,-13020.0,3363.0,-402.0,-2571.0,-0.9614811609642723,0.0377614605126248,0.13244335573283889,-0.2378798157325951
-466.7182433605194,-4040.0,-6940.0,-13592.0,3911.0,694.0,-3893.0,-0.9565756766304561,-0.2885061454069453,0.005310121177477716,0.041218703939982435
-466.7339246273041,-4392.0,-8276.0,-12956.0,4411.0,1453.0,-4930.0,-0.7130773776875141,-0.5718464579190902,-0.19324747819958185,0.35660579659505104
-466.7496483325958,-5404.0,-9472.0,-14316.0,7490.0,417.0,-5034.0,-0.13770193933153263,-0.7586377591027579,-0.18651092618022105,0.6088682951043491
-466.7653908729553,-5256.0,-10076.0,-13692.0,7065.0,5204.0,-11436.0,0.6362505666358957,-0.58116659406244,-0.39256794353998276,0.32143586624107995
-466.7810983657837,-10332.0,-11668.0,-14668.0,7504.0,3059.0,-16141.0,0.8434537313881694,0.16200680229124376,-0.44516757450014344,-0.25330896082136334
-466.7968189716339,-14536.0,-3240.0,-20008.0,13203.0,-15822.0,2553.0,0.04747618040586746,0.33096224432201926,-0.9362214352387412,0.10816390029447485
-466.81261920928955,-4000.0,4492.0,-23552.0,9661.0,-9979.0,-12712.0,-0.4819428870869693,0.7818065342621655,-0.26992802361272117,0.2892204326111632
-466.82831478118896,4920.0,3188.0,-18724.0,3848.0,2367.0,7048.0,-0.6996259284544819,0.31847002557712173,-0.6082766049847017,0.19773713579243732
-466.8440203666687,1916.0,-7168.0,-16092.0,7081.0,16605.0,-12086.0,0.09039371397548003,0.11259880442029295,-0.5431115994183191,0.827151906419924
-466.85972261428833,-9452.0,-3116.0,-10716.0,5790.0,-4462.0,18511.0,-0.7555703853586662,-0.19815665740491062,-0.1708728520143872,0.6005412561510981
-466.8754518032074,-4240.0,-8968.0,-17220.0,5754.0,-7070.0,-9999.0,-0.15343791270636695,-0.03747383716423505,0.27379128482734305,0.948731179431294
-466.8911786079407,4268.0,-5632.0,-17980.0,3641.0,-2531.0,-5605.0,0.3249697234071445,-0.008851717511402032,0.5014904425687805,0.8017628464689237
-466.9068944454193,688.0,-7132.0,-17884.0,3769.0,4024.0,-1687.0,0.2409533111068144,-0.22992885987397899,0.784484758251698,0.5231232028255771
-466.92259192466736,-11060.0,-3364.0,-17180.0,1369.0,-1534.0,1165.0,0.31370829392801103,-0.05044699016752718,0.8209476817071598,0.47443346362103717
-466.93828797340393,-7964.0,-8404.0,-19772.0,3312.0,-5447.0,-9109.0,0.7863049075119921,-0.27769932144716597,0.5518514091437522,0.008228093120286458
-466.9540042877197,1976.0,-1044.0,-16112.0,7156.0,-1620.0,5172.0,0.8139135304855946,0.3648630857180313,0.44983733358325667,0.04545400848657503
-466.96971893310547,1056.0,-276.0,-11816.0,-1777.0,4774.0,-294.0,0.6248715791057177,0.19031684088709497,0.7229653127085037,0.2250248126784646
-466.98541283607483,-5236.0,-8084.0,-13716.0,-1313.0,1078.0,-6585.0,0.6086607049664132,-0.2734525583646779,0.7442610468723276,-0.0288329440416392
-467.00115180015564,-5112.0,-7576.0,-15548.0,1757.0,-6482.0,-4407.0,0.868264940380504,-0.39536796048540607,0.23796031522683056,-0.18214021385953608
-467.01688861846924,-1484.0,-2184.0,-17176.0,2266.0,-3090.0,-3421.0,0.8725181351450563,-0.31399667962553135,-0.13692836795085903,-0.34838026792206384
-467.032630443573,-184.0,-1068.0,-16072.0,568.0,-28.0,3560.0,0.9499781053917232,-0.2999405936588873,-0.05616713066787331,-0.06650182692561483
-467.0483396053314,-3072.0,-3428.0,-15492.0,585.0,1493.0,1143.0,0.9650133455407012,-0.2451018963222842,0.09280825408561519,-0.007805851724408921
-467.064085483551,-4212.0,-4916.0,-14396.0,-643.0,-1495.0,-2590.0,0.9290073914359184,-0.31063509998296635,-0.08490624781002086,-0.182323970993466
-467.0797905921936,-2908.0,-5756.0,-15384.0,32.0,-1952.0,-3982.0,0.7945629517647009,-0.2890184203256225,-0.3278690365805266,-0.42147356174166445
-467.09547662734985,-1268.0,-2316.0,-15512.0,300.0,-453.0,-1491.0,0.7272751079806379,-0.24016324544442363,-0.40423760089142896,-0.49998449463447847
-467.11120319366455,-3160.0,-3100.0,-15372.0,264.0,-161.0,-43.0,0.724883070539984,-0.22902974250504365,-0.4269145593133438,-0.48972836362507266
-467.12689566612244,-2588.0,-3136.0,-15912.0,819.0,-955.0,-1140.0,0.6497370135621868,-0.17384647148957574,-0.5394316893625883,-0.5065892518296639
-467.1426513195038,-1920.0,-3588.0,-15328.0,-75.0,-410.0,-182.0,0.6206379493104265,-0.1876384882466848,-0.5619087658603303,-0.5136719502304637
-467.1583425998688,-2332.0,-5132.0,-15168.0,369.0,-471.0,306.0,0.6161280991600584,-0.20356458027778146,-0.5981214988451523,-0.47031723304698486
-467.1740303039551,-3900.0,-4496.0,-15064.0,677.0,-869.0,-1448.0,0.516746404848753,-0.12578476613736245,-0.6899120830061043,-0.4910933347194155
-467.18973422050476,-3480.0,-3380.0,-14948.0,643.0,-1312.0,-474.0,0.4205634409084923,-0.1234221561428558,-0.7750967001805803,-0.45510270150091725
-467.20543003082275,-2988.0,-3240.0,-14888.0,-36.0,-523.0,126.0,0.38920720920685026,-0.15390744761920683,-0.7908132346321279,-0.44659229034929254
-467.22113490104675,-2392.0,-4512.0,-15340.0,-190.0,-752.0,830.0,0.36516826658806195,-0.24580720347228946,-0.7940733214080377,-0.4191402104620955
-467.2368288040161,-3204.0,-4820.0,-15228.0,-139.0,-162.0,-1357.0,0.2990402626194341,-0.16103907448077887,-0.8175657672522206,-0.4650027462716341
-467.25259256362915,-3180.0,-3720.0,-15196.0,345.0,-781.0,-715.0,0.21797638340503284,-0.132123611278041,-0.8581062827853407,-0.44573899881526663
-467.2683048248291,-2696.0,-3060.0,-14980.0,-174.0,-551.0,416.0,0.190391536671753,-0.18767930188482143,-0.8555246533071311,-0.4434017478444439
-467.2839982509613,-2764.0,-4204.0,-15608.0,-362.0,-739.0,740.0,0.15708381020349996,-0.27629310057862,-0.8379184811817469,-0.44371096227012224
-467.29971265792847,-3208.0,-4516.0,-14932.0,-201.0,-547.0,-304.0,0.1002097667993462,-0.2775895294726137,-0.8437100431479125,-0.448392037012859
-467.31545090675354,-3500.0,-4376.0,-15328.0,-60.0,-1166.0,-41.0,0.011161076224527224,-0.3191039618505467,-0.8482782679702666,-0.4224595507242789
-467.3311698436737,-2800.0,-3764.0,-15572.0,-308.0,-636.0,-437.0,-0.060485433341321095,-0.3097243016192005,-0.8476141852997493,-0.4265707001408479
-467.3468623161316,-2932.0,-3648.0,-15344.0,-381.0,-194.0,799.0,-0.05521868306027266,-0.37290919631505276,-0.8084257574108972,-0.4520369709430504
-467.3625500202179,-3100.0,-3936.0,-14880.0,-498.0,-181.0,461.0,-0.0658858694991111,-0.4094566566182422,-0.7715988629806875,-0.4823271640684021
-467.3782434463501,-3400.0,-4028.0,-14852.0,-619.0,-472.0,-331.0,-0.13335906777691678,-0.402439229220549,-0.7527551395773789,-0.503604731576147
-467.3939447402954,-2984.0,-4204.0,-15220.0,-662.0,-497.0,-368.0,-0.20476410853065743,-0.39124427736096157,-0.7286857223971754,-0.5234660383104625
-467.40967750549316,-3180.0,-4136.0,-15256.0,-697.0,-336.0,-772.0,-0.2838639141808021,-0.343543656280464,-0.714133259813679,-0.5398265663000411
-467.4253931045532,-3172.0,-3876.0,-15468.0,-737.0,-381.0,-1134.0,-0.3802208853926025,-0.2705815493912946,-0.6989340034626491,-0.5419492247839696
-467.44109535217285,-2880.0,-3932.0,-15284.0,-756.0,-98.0,-1274.0,-0.46037766153085036,-0.17101907296863572,-0.6845064409565357,-0.5387539491580093
-467.45677971839905,-3244.0,-3552.0,-15572.0,-554.0,-352.0,-1486.0,-0.5539108558823367,-0.07577552250651055,-0.660128793741371,-0.5016680272831077
-467.4725229740143,-2952.0,-3364.0,-15724.0,-454.0,-55.0,-2034.0,-0.6385286382740416,0.05999296165833806,-0.640765186843824,-0.42202132408725374
-467.48823070526123,-2876.0,-3224.0,-15488.0,-509.0,435.0,-957.0,-0.6433037472096086,0.15716027456646284,-0.6381709422479822,-0.39268153177173093
-467.5040092468262,-3144.0,-3780.0,-15096.0,-627.0,413.0,-621.0,-0.6305578899471886,0.2403499262608748,-0.6292894689030095,-0.3855170874287019
-467.5197231769562,-3824.0,-4116.0,-15060.0,-671.0,96.0,-1873.0,-0.6641098293911011,0.3778323078544269,-0.5644334376883648,-0.31243523499569487
-467.53544998168945,-3244.0,-4264.0,-15236.0,-478.0,-121.0,-2233.0,-0.7011837017929575,0.502477944960175,-0.46181741704027063,-0.20635407552742227
-467.5511429309845,-2752.0,-3792.0,-15568.0,-382.0,309.0,-1308.0,-0.6902098301695978,0.5800100164022045,-0.4135628927002894,-0.12713970658979074
-467.5668406486511,-3032.0,-3368.0,-15108.0,-536.0,765.0,-821.0,-0.6405832938233923,0.6467778667933861,-0.4098480938204712,-0.057930775001689555
-467.5825390815735,-3104.0,-3768.0,-15392.0,-301.0,88.0,-1511.0,-0.6222230107804123,0.7118267881678036,-0.3251434520700799,0.020564145448315287
-467.59834003448486,-2416.0,-3368.0,-15312.0,-462.0,513.0,-1221.0,-0.5722511597449508,0.7650878900673426,-0.2760158326286038,0.10480644436865136
-467.6141495704651,-2776.0,-4120.0,-15016.0,-793.0,464.0,-10.0,-0.5061612771118952,0.7982660224355047,-0.30487499805793444,0.11671912669579083
-467.62986612319946,-3340.0,-4748.0,-15344.0,-423.0,-132.0,-1121.0,-0.4659737739819632,0.8435944732986933,-0.22412434700721467,0.14486229205523454
-467.645569562912,-3256.0,-3328.0,-15436.0,-152.0,-112.0,-1539.0,-0.43333698282025507,0.8734722378421248,-0.10730526081474287,0.19429588271702705
-467.661253452301,-2064.0,-2776.0,-15492.0,-470.0,406.0,452.0,-0.400242583128678,0.878295743728381,-0.16476217814455738,0.2031154495653999
-467.67697048187256,-2852.0,-3652.0,-15368.0,-382.0,387.0,708.0,-0.37660198739310946,0.8720759018647811,-0.23866135817396422,0.20173081220489741
-467.6927044391632,-2968.0,-3964.0,-15300.0,-212.0,208.0,2.0,-0.35585823000243594,0.8751562212352128,-0.24937985879598087,0.21278203542529975
-467.70849227905273,-2812.0,-3872.0,-15428.0,-226.0,356.0,203.0,-0.33415737983722393,0.8705275493189415,-0.27998198348161907,0.22832152833838848
-467.72419571876526,-3048.0,-3712.0,-15296.0,-293.0,292.0,93.0,-0.3062437261646599,0.870484042028659,-0.3012787680186048,0.24021535483691417
-467.7399685382843,-2880.0,-3576.0,-15604.0,-211.0,324.0,217.0,-0.2858819893462601,0.8630751311205307,-0.33068120163384107,0.2530271706649357
-467.7556381225586,-2748.0,-3432.0,-15360.0,-431.0,319.0,950.0,-0.26386102552515517,0.8356738692470105,-0.4178984581667585,0.2395567200651864
-467.77133989334106,-2904.0,-4540.0,-15172.0,-423.0,-223.0,955.0,-0.259876836947345,0.8117807071135745,-0.48921428235458314,0.18478500782454782
-467.78703022003174,-3084.0,-3876.0,-15700.0,-121.0,-105.0,-841.0,-0.24141086941416606,0.849809437609865,-0.42810569752129274,0.190447430089536
-467.80277824401855,-2328.0,-3232.0,-15420.0,-31.0,205.0,23.0,-0.23164844564746367,0.8461228791445266,-0.4346513276864268,0.20369902885806251
-467.81850719451904,-2852.0,-2980.0,-15236.0,-222.0,343.0,927.0,-0.21775322876527362,0.8062637385362487,-0.5120595585196392,0.200791742391271
-467.8342022895813,-3016.0,-3964.0,-15156.0,-311.0,172.0,657.0,-0.1991920745136334,0.7781844698922781,-0.5658845436338016,0.18581208665152443
-467.84989738464355,-2948.0,-3868.0,-15532.0,-39.0,316.0,-205.0,-0.1774441105074616,0.783470400502397,-0.5578712882967823,0.20848823678307965
-467.8655869960785,-2776.0,-3596.0,-15364.0,-155.0,303.0,161.0,-0.15489560723320075,0.7721386207449608,-0.5761638730520736,0.2187338396397818
-467.881290435791,-2856.0,-3720.0,-15364.0,-206.0,228.0,95.0,-0.13130750352649595,0.7655217982877285,-0.5894307375869577,0.2220498174997146
-467.8969786167145,-2904.0,-3708.0,-15200.0,-239.0,158.0,94.0,-0.10902974725749878,0.760123119210954,-0.6020248712373854,0.21884106622292207
-467.9127552509308,-2988.0,-3884.0,-15268.0,-280.0,82.0,-298.0,-0.08047624515111997,0.7763807948248593,-0.5880747386197475,0.21195409217755662
-467.92849111557007,-2808.0,-3736.0,-15564.0,-253.0,125.0,-796.0,-0.042182329267503565,0.8145108310643531,-0.5383163722657431,0.21215145657542628
-467.9441804885864,-2712.0,-2916.0,-15556.0,148.0,332.0,-354.0,-0.030633317118266973,0.823682495285582,-0.5112049127505467,0.24347132073851033
-467.9599418640137,-2524.0,-3076.0,-15524.0,46.0,502.0,316.0,-0.018348363180633577,0.797770515989351,-0.533641618429297,0.28009313534400826
-467.9756369590759,-2992.0,-3596.0,-15584.0,51.0,545.0,-245.0,0.009326180089576544,0.7947448633877654,-0.5155946057254279,0.32008721784935384
-467.9913218021393,-3032.0,-4096.0,-15216.0,111.0,386.0,-744.0,0.039520355678676206,0.8153777795849546,-0.45942697960837914,0.350034381817075
-468.00704193115234,-2516.0,-3620.0,-15148.0,139.0,346.0,-738.0,0.0657306962815895,0.8327962468358338,-0.4005269755556631,0.3764412685595456
-468.0227243900299,-2716.0,-3760.0,-15356.0,-26.0,350.0,293.0,0.07002384120166633,0.8103550176328764,-0.4204259181399314,0.4020739414794004
-468.0384113788605,-3056.0,-3992.0,-15312.0,96.0,316.0,-340.0,0.08653640102107184,0.8117316372762662,-0.39084940657192285,0.4252527974340535
-468.0541431903839,-2756.0,-3428.0,-15344.0,68.0,175.0,-33.0,0.08876195269927968,0.8068723365348982,-0.38471063386167736,0.43940422902092274
-468.06988620758057,-2620.0,-3612.0,-15284.0,-124.0,113.0,362.0,0.08721291171730462,0.7890537255091583,-0.41392975143107374,0.44547759446476914
-468.08558440208435,-2872.0,-4024.0,-15108.0,-170.0,-42.0,108.0,0.09304081609716931,0.785462811771385,-0.4283338375681087,0.43694587932413276
-468.1012794971466,-3056.0,-4348.0,-15260.0,-146.0,-169.0,-384.0,0.11113358767666949,0.8045644884287735,-0.40875292137373986,0.4162287338926651
-468.11701226234436,-2856.0,-3668.0,-15508.0,-37.0,-139.0,-479.0,0.12589631501988302,0.8256551568160437,-0.3775495171846636,0.39987503293043464
-468.13275122642517,-2804.0,-3112.0,-15448.0,30.0,121.0,254.0,0.1186660421562828,0.8132519681313805,-0.39344178501131855,0.41199899098967113
-468.14846110343933,-2476.0,-3160.0,-15292.0,-68.0,312.0,930.0,0.10024593818807191,0.7666869732614967,-0.45707416404159606,0.43957370880615054
-468.1641745567322,-2872.0,-4056.0,-15252.0,-503.0,155.0,905.0,0.1047731571023308,0.7173422515543605,-0.5334568039047799,0.4357367531588633
-468.17988562583923,-2868.0,-4356.0,-15208.0,-38.0,13.0,-17.0,0.10823387037088489,0.7173630694996993,-0.533839705989168,0.4343855708145779
-468.1955654621124,-2808.0,-4088.0,-15096.0,-229.0,-156.0,109.0,0.11096534646618293,0.7158678915161174,-0.55075231509382,0.41459828894811657
-468.2113335132599,-2784.0,-3616.0,-15324.0,-226.0,-31.0,-30.0,0.12448887872354228,0.7161739309524517,-0.5573593916970743,0.4011831603960158
-468.22702980041504,-2756.0,-3520.0,-15172.0,-230.0,-234.0,279.0,0.1174552018855905,0.7078654332782587,-0.5850881543533416,0.37789238620961724
-468.24271273612976,-2820.0,-3496.0,-15548.0,-142.0,167.0,192.0,0.12820241754168452,0.6909434248202962,-0.5998386298055781,0.38256364441362434
-468.258412361145,-2808.0,-3780.0,-15208.0,-242.0,49.0,345.0,0.13356063425343384,0.6681425441368911,-0.6278575217166646,0.3762207199449687
-468.27414321899414,-3056.0,-3684.0,-15392.0,81.0,57.0,-455.0,0.1465868699993508,0.6916362158455845,-0.5976292864940768,0.3781413365385676
-468.28988909721375,-2460.0,-3388.0,-15596.0,-2.0,59.0,388.0,0.13671136606602902,0.6691029116255759,-0.620109190642079,0.38610346764016856
-468.3055799007416,-2800.0,-3932.0,-15332.0,-248.0,237.0,160.0,0.15834741273454359,0.6492063544538114,-0.6347575097085807,0.38799498719136777
-468.3212859630585,-3048.0,-3936.0,-15456.0,-190.0,98.0,-485.0,0.19055949025208974,0.6694746583972904,-0.611830997229397,0.37570412995863733
-468.336966753006,-2596.0,-3516.0,-15364.0,-83.0,142.0,-363.0,0.21455702857907324,0.6824806108031822,-0.590747793942389,0.3730985678305866
-468.3527195453644,-2832.0,-3524.0,-15464.0,-132.0,134.0,-97.0,0.23223494264627967,0.6806082656225323,-0.5867793752328841,0.37219522428649404
-468.3684468269348,-2768.0,-3588.0,-15412.0,-144.0,24.0,-177.0,0.24750007953766953,0.6859150229001091,-0.5804609740230202,0.3623939149944942
-468.3841426372528,-2828.0,-3656.0,-15248.0,-160.0,157.0,-144.0,0.26929045803066803,0.6846853401190716,-0.5734761552480611,0.36029672993459994
-468.39985942840576,-3064.0,-3812.0,-15484.0,-130.0,163.0,-312.0,0.29464370537428897,0.6918351888270217,-0.5549151131354337,0.35583475883881466
-468.41558170318604,-2716.0,-3704.0,-15464.0,-121.0,94.0,-59.0,0.308072402957983,0.6886827769103852,-0.5527573558342598,0.3539304068511382
-468.4313278198242,-2764.0,-3524.0,-15516.0,-59.0,214.0,-219.0,0.3283566757589837,0.6908931805059211,-0.5355880133645547,0.3577624722565682
-468.44702315330505,-2764.0,-3452.0,-15448.0,-5.0,0.0,-142.0,0.33283680035058616,0.6974343010916809,-0.527261557798835,0.35327087292994935
-468.4627206325531,-2712.0,-3340.0,-15252.0,-55.0,263.0,146.0,0.3434351424007418,0.680874555934757,-0.5301364843869596,0.370698597200832
-468.4784240722656,-2820.0,-3976.0,-15356.0,-139.0,202.0,-52.0,0.36240758242708127,0.6725223191068803,-0.525493893343169,0.3744738209294477
-468.49415349960327,-2944.0,-3740.0,-15476.0,37.0,113.0,-471.0,0.38024388778616613,0.6910891296485049,-0.49275473442198214,0.36742777846490515
-468.5098991394043,-2628.0,-3616.0,-15144.0,-150.0,55.0,299.0,0.3816723101508209,0.6713115945525925,-0.5136730373254185,0.37390774451496755
-468.5255916118622,-2796.0,-3664.0,-15388.0,-184.0,125.0,172.0,0.3920986310743951,0.6533098566307514,-0.5255640749858118,0.37845382521914145
-468.5412743091583,-2832.0,-3740.0,-15332.0,-227.0,104.0,119.0,0.4055361191896794,0.6365747329497551,-0.5362691511638784,0.37779420709229433
-468.55695843696594,-2776.0,-3780.0,-15376.0,-232.0,71.0,87.0,0.41854505540352693,0.6219030499981577,-0.5462433168899232,0.3737310152413668
-468.5727000236511,-2912.0,-3684.0,-15408.0,-234.0,114.0,214.0,0.42928621681788814,0.5992852810404411,-0.5612294440039293,0.3762871339303339
-468.5884494781494,-2596.0,-3740.0,-15268.0,-284.0,-39.0,302.0,0.4317944278178819,0.5748566217989545,-0.5875752384641344,0.37127991545885886
-468.6042296886444,-2724.0,-3716.0,-15424.0,-227.0,164.0,-66.0,0.4533572611811013,0.5642938018265333,-0.5854141811291462,0.36514371894833253
-468.6199553012848,-2632.0,-3240.0,-15368.0,-195.0,138.0,59.0,0.46779346031666463,0.549144378486684,-0.5890977617779798,0.36410651893314006
-468.6356692314148,-2704.0,-3632.0,-15128.0,-488.0,109.0,340.0,0.4850740853866995,0.5076694392956693,-0.6157583883353366,0.35751430640765475
-468.6513714790344,-2936.0,-3644.0,-15436.0,-222.0,71.0,11.0,0.4980462343568616,0.4954511711004206,-0.6202119326933155,0.3490204063417985
-468.66708278656006,-2644.0,-3796.0,-15368.0,-169.0,24.0,206.0,0.5000047212228275,0.47617864389445597,-0.6332277815398117,0.34967378303196855
-468.68280935287476,-2972.0,-3532.0,-15588.0,-155.0,-156.0,308.0,0.48792224665248013,0.45698460566481003,-0.6573808003750994,0.34777497711187955
-468.698513507843,-2600.0,-3664.0,-15568.0,-51.0,65.0,94.0,0.49056395918895174,0.4474921945261229,-0.6600514931071638,0.35132572383766436
-468.7142553329468,-2808.0,-3184.0,-15496.0,79.0,12.0,286.0,0.4790038623992955,0.43395958418980257,-0.6682398110199245,0.36836114624703004
-468.72995257377625,-2576.0,-3616.0,-15468.0,57.0,351.0,613.0,0.476464225752966,0.38863347395947445,-0.6738515375815309,0.40971937932544006
-468.7456543445587,-2828.0,-3440.0,-15088.0,32.0,387.0,659.0,0.4732969256949089,0.33667907992899765,-0.6776586833444845,0.4510165475387029
-468.7613854408264,-3020.0,-3800.0,-14924.0,-68.0,303.0,788.0,0.4607219502938957,0.2746284039851132,-0.6893030669092126,0.48700698782618296
-468.77707409858704,-2724.0,-3892.0,-15492.0,-75.0,45.0,-223.0,0.4743900083114264,0.28307259462694556,-0.6854077911177017,0.4743840069612451
-468.79277086257935,-2360.0,-3564.0,-15068.0,-45.0,314.0,280.0,0.4821536801553817,0.25131863620039235,-0.6809467739582831,0.49058970927527984
-468.80852818489075,-2888.0,-3500.0,-15460.0,-254.0,-34.0,270.0,0.47368483052095683,0.22593847075323123,-0.6990258661474399,0.4857338028435382
-468.8242335319519,-2480.0,-3652.0,-15692.0,-188.0,461.0,442.0,0.48575231735603824,0.17138307603595926,-0.6957072613361645,0.5006634937318929
-468.83995628356934,-3176.0,-3768.0,-15172.0,-277.0,57.0,760.0,0.458790232749924,0.11071397448593287,-0.7151940435905816,0.5155108322812937
-468.8556504249573,-3024.0,-3704.0,-15288.0,-235.0,-84.0,-212.0,0.46495906021434175,0.11823301116576691,-0.7270061850447077,0.491218927060035
-468.8713390827179,-2616.0,-3444.0,-15564.0,-169.0,33.0,294.0,0.4557817864723566,0.09124313128826156,-0.7358385422453612,0.49242186574014174
-468.88702964782715,-2672.0,-3268.0,-15252.0,-236.0,110.0,606.0,0.4377478236335783,0.03811914994435821,-0.7454104386910589,0.5012853989515237
-468.9027318954468,-2764.0,-3364.0,-15328.0,-284.0,-36.0,619.0,0.4083385424459893,-0.01144970486661162,-0.7601290804577447,0.505304185668411
-468.91846919059753,-2732.0,-3644.0,-15460.0,-276.0,109.0,533.0,0.39102728666011,-0.06142230861043505,-0.7669953854760282,0.5050178608234324
-468.9341650009155,-2776.0,-3656.0,-15564.0,-72.0,170.0,381.0,0.38476101428749354,-0.09688016561487868,-0.7620010881507424,0.5117885667460511
-468.9498963356018,-2856.0,-3512.0,-15384.0,-10.0,113.0,289.0,0.3789424227586661,-0.12151813166241622,-0.7561262611342556,0.5195277289367715
-468.96558809280396,-2680.0,-3736.0,-15280.0,-277.0,121.0,21.0,0.38270368273683625,-0.1375887309793401,-0.7643814432275676,0.5003281339046393
-468.9812889099121,-3072.0,-3440.0,-15420.0,-247.0,255.0,-148.0,0.4027758032343532,-0.14710867025252758,-0.7681789164598464,0.47542806371945595
-468.9969754219055,-2716.0,-3500.0,-15412.0,-238.0,0.0,-261.0,0.41013937041497567,-0.1380031341517102,-0.7812135849055604,0.44994018108957035
-469.0127432346344,-2956.0,-3356.0,-15192.0,-225.0,124.0,-238.0,0.42480496921955846,-0.1347268028253176,-0.7882867562119358,0.4242563101566107
-469.02847385406494,-2756.0,-3484.0,-15436.0,-185.0,223.0,-289.0,0.4481534195183452,-0.12996523731671764,-0.789943030395387,0.3978159855925551
-469.04416513442993,-2804.0,-3436.0,-15196.0,-254.0,509.0,-194.0,0.48619048021469224,-0.14408596344537827,-0.7801647225720134,0.3663346253642391
-469.05986499786377,-2740.0,-3700.0,-15560.0,-187.0,218.0,-566.0,0.5157416817428767,-0.12036342517145988,-0.7829927428819446,0.32625990895026064
-469.07556986808777,-2680.0,-3600.0,-15508.0,-67.0,407.0,-491.0,0.5557131731580884,-0.1013462052788576,-0.7707246686654396,0.2947800891591773
-469.09131050109863,-2728.0,-3548.0,-15288.0,-200.0,458.0,-400.0,0.5938687627461927,-0.09585977528941322,-0.756214583338647,0.25743018483022906
-469.1070251464844,-2856.0,-3448.0,-15244.0,-38.0,221.0,-599.0,0.6203842344224597,-0.06325054876152758,-0.7496610111257134,0.22165544919851954
-469.12273240089417,-2716.0,-3444.0,-15360.0,-75.0,214.0,-392.0,0.6408118738988645,-0.04584462674898043,-0.7413190703882284,0.19417633312843618
-469.13843297958374,-2608.0,-3376.0,-15500.0,-31.0,311.0,-368.0,0.666216563013439,-0.029083806208929933,-0.7254967973310852,0.170188191262791
-469.15416836738586,-2576.0,-3560.0,-15400.0,30.0,374.0,-293.0,0.6934966777975087,-0.014398023817237161,-0.7036666455462423,0.15397501985606546
-469.1698706150055,-2732.0,-3612.0,-15484.0,-52.0,230.0,-478.0,0.712984971052493,0.00864399362969686,-0.6905282623200136,0.12144311987390476
-469.185555934906,-2664.0,-3792.0,-15400.0,21.0,104.0,-606.0,0.7243975326518208,0.0452442166645852,-0.6826269817856876,0.0849798757619969
-469.2012565135956,-2508.0,-3612.0,-15468.0,35.0,240.0,-373.0,0.7405516863592756,0.06780675202943777,-0.6654597380972964,0.0644110330698809
-469.2169704437256,-2760.0,-3724.0,-15260.0,-34.0,281.0,-404.0,0.7584358586165122,0.0873789356714368,-0.6447456269825539,0.0379874512495123
-469.2327103614807,-2696.0,-3536.0,-15336.0,14.0,3.0,-581.0,0.7592445988309902,0.12081205218435509,-0.639493507147188,0.00037617756818696574
-469.24843883514404,-2596.0,-3472.0,-15424.0,-14.0,327.0,-195.0,0.7770223142806182,0.13068352565092628,-0.6156796735689176,-0.009832537185643846
-469.26413655281067,-2620.0,-3596.0,-15280.0,-135.0,399.0,-287.0,0.7987790524073536,0.13716003918085895,-0.5849102499660134,-0.031924106437161454
-469.27984976768494,-2880.0,-3500.0,-15360.0,63.0,147.0,-444.0,0.8034296897754365,0.1644990269354396,-0.5692968307885213,-0.057809360650200765
-469.2955322265625,-2592.0,-3420.0,-15400.0,100.0,177.0,-306.0,0.8086500592486836,0.1875409989619297,-0.5529703160179431,-0.07167485604085833
-469.3112986087799,-2608.0,-3432.0,-15588.0,153.0,167.0,-77.0,0.8133690529869588,0.20310060032172678,-0.5410183518724505,-0.0669333454211679
-469.3270003795624,-2616.0,-3556.0,-15416.0,124.0,93.0,49.0,0.8155898294968431,0.21016331221955972,-0.5362084410320039,-0.05590277259888216
-469.3426945209503,-2560.0,-3628.0,-15452.0,255.0,510.0,-41.0,0.8333742642007412,0.23248836380127783,-0.5000343359581458,-0.03744541798102765
-469.3583896160126,-2732.0,-3504.0,-15240.0,287.0,33.0,45.0,0.8286963769426017,0.25149856214741767,-0.49957220365813676,-0.020938037447190715
-469.37408423423767,-2496.0,-3488.0,-15436.0,413.0,160.0,-30.0,0.8257581899637705,0.2828388789311098,-0.4879786407868185,-0.0015576933586230483
-469.38982367515564,-2492.0,-3460.0,-15232.0,376.0,164.0,284.0,0.8225428145882672,0.2976800620376748,-0.48300324885679785,0.0389584448898506
-469.4055371284485,-2648.0,-3804.0,-15240.0,320.0,57.0,504.0,0.8136245000408999,0.29890082399862405,-0.4904817848324343,0.0900060503173476
-469.4212667942047,-2612.0,-3792.0,-15592.0,419.0,29.0,121.0,0.8022176657088309,0.32310419897102644,-0.4881708841457231,0.1172163866716109
-469.43694972991943,-2532.0,-3744.0,-15408.0,419.0,0.0,89.0,0.7887523659165384,0.348505860615683,-0.4862865964985827,0.14120451991140354
-469.4527060985565,-2508.0,-3556.0,-15272.0,424.0,107.0,316.0,0.7754521109983209,0.36267433155710976,-0.48299693515818276,0.18399813424503358
-469.46842908859253,-2724.0,-3704.0,-15384.0,412.0,-143.0,111.0,0.7538235801497118,0.3879880051208456,-0.48941395769146184,0.204179567805884
-469.4841215610504,-2592.0,-3900.0,-15312.0,476.0,20.0,-60.0,0.7387811660219546,0.4212551035677844,-0.47738084486922056,0.22102953513339643
-469.49981689453125,-2808.0,-3784.0,-15580.0,304.0,160.0,-351.0,0.7401650419877264,0.45211013430993985,-0.4480897399352477,0.2167203775336257
-469.51551508903503,-2612.0,-3900.0,-15608.0,339.0,234.0,244.0,0.7304892927266806,0.45978526806401987,-0.43600351145635324,0.25472306232593206
-469.5312159061432,-2728.0,-4016.0,-15268.0,273.0,142.0,-395.0,0.7328257238042751,0.4887448972886121,-0.4048380700939066,0.24535896337351454
-469.54691219329834,-2736.0,-3704.0,-15304.0,284.0,260.0,434.0,0.7194884706866651,0.4855519715284522,-0.40030296013519046,0.2938250561146907
-469.5626697540283,-3028.0,-3916.0,-15336.0,112.0,-20.0,596.0,0.6975895537105392,0.4717752609694281,-0.4235269447278415,0.3337991084180102
-469.5783648490906,-2636.0,-4028.0,-15616.0,189.0,190.0,-236.0,0.7031739840188588,0.48638476350129445,-0.3967390342471741,0.3340274670404449
-469.594172000885,-2672.0,-3908.0,-14936.0,81.0,31.0,434.0,0.6874531027901283,0.47522905632699974,-0.4107754841527208,0.36445723631980786
-469.6099314689636,-2368.0,-3936.0,-15272.0,64.0,105.0,3.0,0.6882382325325406,0.47574697548475325,-0.4027370529573222,0.3712085893037032
-469.625634431839,-2348.0,-3876.0,-15152.0,-137.0,-77.0,692.0,0.6673307742112516,0.44499015387889584,-0.4398819824486455,0.40392727347691876
-469.6413781642914,-2896.0,-4032.0,-15492.0,-30.0,-99.0,-4.0,0.6646196330726181,0.44700059657802,-0.44673854484766573,0.3986174639183571
-469.6575446128845,-2728.0,-3644.0,-15304.0,-23.0,246.0,122.0,0.6704844957375231,0.4323660559100564,-0.43811041974525755,0.41420936105189066
-469.67343378067017,-2668.0,-3592.0,-15120.0,-99.0,146.0,407.0,0.6644088149129157,0.4055662768168892,-0.44838007920111533,0.4393543289311064
-469.68913197517395,-2580.0,-3864.0,-15392.0,-24.0,212.0,-4.0,0.673412198287189,0.3962570547274027,-0.4370174061888616,0.4455470171202356
-469.7048861980438,-2804.0,-3732.0,-15208.0,20.0,295.0,-73.0,0.6863967609662861,0.388734956637582,-0.41646026702934197,0.45200162168826086
-469.72079205513,-2700.0,-3684.0,-15168.0,-104.0,156.0,49.0,0.6933945374397616,0.3746466327583838,-0.41305154356157936,0.4563248167401159
-469.73661041259766,-2668.0,-3920.0,-15464.0,-39.0,236.0,101.0,0.6988103070915496,0.3592789203549029,-0.40375994552897365,0.46857306631695117
-469.7523124217987,-2672.0,-3944.0,-15240.0,-31.0,178.0,-167.0,0.712559570078226,0.356031324086253,-0.3890901834912789,0.46271955272070164
-469.7680251598358,-2208.0,-3916.0,-15340.0,37.0,225.0,-406.0,0.7346835228291412,0.3628597824018908,-0.36093830837591057,0.4453048811155696
-469.78374195098877,-2352.0,-3732.0,-15204.0,-83.0,-184.0,-748.0,0.758696496967426,0.38750645906263664,-0.35170713440568907,0.3879696654150063
-469.7994542121887,-2468.0,-3876.0,-15556.0,139.0,-178.0,-969.0,0.7782524560190328,0.43101387808357444,-0.3250136393112432,0.3208056824019208
-469.8152196407318,-2864.0,-3396.0,-15772.0,444.0,136.0,-679.0,0.7822426643138746,0.4755905352285581,-0.2772714269729932,0.2916000903849386
-469.83092045783997,-2704.0,-3348.0,-15108.0,357.0,310.0,273.0,0.766943619127185,0.48513217217754495,-0.25820749449335234,0.3313203138744404
-469.84665870666504,-2696.0,-3756.0,-15232.0,339.0,331.0,-265.0,0.7666916014778985,0.5038749722113072,-0.21493245032302377,0.334810457423974
-469.86235785484314,-2252.0,-4300.0,-15372.0,387.0,137.0,-8.0,0.7518283570102211,0.5258006773950794,-0.19411045841941688,0.3472879197127232
-469.8780553340912,-2208.0,-4088.0,-15468.0,433.0,172.0,-1214.0,0.7665814320593197,0.5661618109504039,-0.11337583184907706,0.280997566885857
-469.89374589920044,-2496.0,-3664.0,-15416.0,430.0,561.0,-494.0,0.7606792983973845,0.5846556868229311,-0.040817645781003394,0.27906746970610236
-469.9094452857971,-3016.0,-3708.0,-15180.0,380.0,388.0,34.0,0.7408409049392678,0.5998833350283309,-0.007523284229145812,0.30205651477573153
-469.9251832962036,-2820.0,-3760.0,-15044.0,634.0,386.0,-91.0,0.7086181654483311,0.6296598643583958,0.03884787774808662,0.3160373288193625
-469.9408829212189,-2608.0,-3720.0,-15344.0,501.0,259.0,658.0,0.6599947569388789,0.6540970941041163,0.03246610943097691,0.36811664460623994
-469.95662212371826,-2388.0,-4524.0,-15620.0,320.0,459.0,297.0,0.6297460380841292,0.6578503543990266,0.052165418792974476,0.409794592224655
-469.9723091125488,-2792.0,-4196.0,-15208.0,574.0,450.0,65.0,0.5910394268711949,0.6724523360059278,0.09352982469947693,0.43558285500651345
-469.988005399704,-2696.0,-4036.0,-15400.0,522.0,370.0,653.0,0.5307028815578162,0.6886741195851279,0.09387517610858429,0.48504624504315225
-470.00370264053345,-2400.0,-3804.0,-15536.0,547.0,788.0,782.0,0.45545374324907256,0.6833073038070162,0.10593903018691948,0.5607405266319253
-470.0194687843323,-2580.0,-4192.0,-15220.0,361.0,923.0,1592.0,0.3427763114167529,0.6586689660143249,0.06451725946225131,0.666706169742433
-470.0351662635803,-2856.0,-4440.0,-14912.0,229.0,740.0,986.0,0.26636431276371675,0.6245204495612956,0.04302955823890691,0.7329206765288006
-470.0508494377136,-2712.0,-4716.0,-15048.0,253.0,795.0,929.0,0.18894114964091407,0.5798505267276912,0.026861285775375398,0.7920562353472652
-470.06652998924255,-2812.0,-4592.0,-15004.0,-292.0,549.0,661.0,0.156162232614172,0.5372065846190814,-0.017724426300589357,0.828678639316336
-470.08222556114197,-2792.0,-4680.0,-15072.0,-650.0,527.0,771.0,0.1309641507379734,0.4869000282992873,-0.09333641955250362,0.8585249364163825
-470.09798550605774,-2684.0,-4696.0,-15360.0,-818.0,576.0,522.0,0.13059160379119508,0.4283081344227033,-0.16955558342174634,0.8779230485282284
-470.1137158870697,-2896.0,-4372.0,-14900.0,-1171.0,433.0,-114.0,0.188299242354298,0.3814001372717614,-0.24879890964386606,0.8701588551396245
-470.1294069290161,-2528.0,-4320.0,-15576.0,-892.0,723.0,86.0,0.22593433707939134,0.308585747112682,-0.30621606432722875,0.8717569810189916
-470.14509177207947,-2320.0,-3592.0,-15056.0,-1407.0,851.0,649.0,0.23433485649536326,0.19655880727367972,-0.4093735755879662,0.8595726181799709
-470.16077613830566,-2676.0,-4196.0,-15592.0,-1511.0,1064.0,-224.0,0.3108979729480075,0.09266584236445662,-0.4909601940439384,0.8085255592373342
-470.1764974594116,-2760.0,-4152.0,-15544.0,-1524.0,782.0,214.0,0.33770336068166845,-0.012909903254684918,-0.5728027269726012,0.7467843132759375
-470.19217681884766,-2652.0,-4048.0,-15432.0,-1738.0,1556.0,-397.0,0.4301861846923106,-0.14274028178911058,-0.6276538746450712,0.6329420764158973
-470.20796728134155,-2780.0,-3804.0,-15696.0,-2255.0,1759.0,-231.0,0.4957195241857815,-0.30265217520612414,-0.6686067222258075,0.46435855239080687
-470.22371888160706,-2412.0,-4912.0,-14792.0,-3199.0,1885.0,1077.0,0.4522854141115599,-0.549907094467359,-0.6522580087097111,0.2599991955957638
-470.23947858810425,-2732.0,-4944.0,-15120.0,-4680.0,1978.0,-541.0,0.3217372909446709,-0.6838968509544362,-0.6451472183326484,-0.11205034380953817
-470.2551622390747,-2952.0,-6192.0,-15060.0,-6964.0,2356.0,167.0,0.03383301091063605,-0.7287788332587621,-0.4216077431128249,-0.5385013003828576
-470.2708547115326,-4452.0,-8100.0,-14924.0,-8170.0,1679.0,-718.0,-0.3696385325855588,-0.5230321779111401,-0.06327143411452227,-0.7653766534998413
-470.28654503822327,-3372.0,-7396.0,-14736.0,-10837.0,535.0,1910.0,-0.5288870705245413,-0.10699642127446529,0.526709101002125,-0.6568163787452008
-470.3022382259369,-3516.0,-7088.0,-18352.0,-13906.0,-411.0,9822.0,-0.042819212843515024,0.5374204057235791,0.8008602483208653,-0.26070804587278756
-470.31792855262756,-5724.0,-7724.0,-23284.0,-14877.0,1229.0,9513.0,0.42685809960138427,0.6987089146035791,0.3742014917531525,0.4353978169764964
-470.3336431980133,-5860.0,-8240.0,-25112.0,-14282.0,2756.0,15557.0,0.2920913314801804,0.27013746929309296,-0.48065442233447125,0.7814599977275705
-470.3493800163269,-5124.0,-9592.0,-23924.0,-12953.0,3454.0,20508.0,-0.2780469411393043,-0.48960928663768843,-0.7454428254507649,0.35677393254719475
-470.36506724357605,-9808.0,-8372.0,-18904.0,-9478.0,2053.0,16289.0,-0.5464746085047333,-0.7155681449636263,-0.20413048042497012,-0.384263554262415
-470.3807489871979,-7220.0,-8432.0,-13080.0,-13585.0,5879.0,8944.0,-0.54685846857035,-0.016497005331523658,0.2925315671997365,-0.784282440425418
-470.3964674472809,-8692.0,-18180.0,-9528.0,-10051.0,2220.0,7748.0,-0.05823667401222666,0.5403133777706416,0.5886322285035954,-0.5984831185329831
-470.41215467453003,-10964.0,-20408.0,-4196.0,-4061.0,-3312.0,-224.0,0.26509229746509066,0.3421374164864503,0.7530561483711995,-0.49555473912070624
-470.42785477638245,-10968.0,-19804.0,-4860.0,1152.0,-8122.0,-10275.0,0.21017532366439945,-0.43224976885525573,0.5400717285091746,-0.6908755305496462
-470.4435751438141,-5120.0,-15732.0,-7424.0,6747.0,-7804.0,-6997.0,0.2780229477878998,-0.7504243150557777,-0.1851218694110683,-0.5703476846118909
-470.459321975708,-4384.0,-12164.0,-8752.0,11592.0,-7363.0,-3352.0,0.4732080564184215,-0.49215277803173346,-0.7305685382028385,0.011374946352187889
-470.47501826286316,-4532.0,-10136.0,-11912.0,15413.0,-7333.0,-5006.0,0.3641606092701645,0.2549058171633956,-0.6677782406970297,0.597061384016605
-470.49070858955383,-4628.0,-8356.0,-15252.0,17696.0,-6906.0,-5789.0,-0.06523748202976655,0.7569421964547075,0.0816442767000189,0.6450711544061395
-470.5063941478729,-6624.0,-6336.0,-16240.0,17491.0,-7508.0,-7036.0,-0.37914928968653105,0.5064328192143521,0.7738046470564701,0.03159088391630799
-470.5221498012543,-7892.0,-8712.0,-17340.0,17793.0,-8632.0,-11532.0,-0.2464404125402269,-0.3747291701360453,0.7242606500320646,-0.5237286348208248
-470.5378665924072,-8368.0,-4972.0,-17856.0,17993.0,-11089.0,-14685.0,0.1512707716089028,-0.8935127452040537,-0.1381890932035485,-0.39956964641266746
-470.5535533428192,-5256.0,-3528.0,-18452.0,17732.0,-10854.0,-11051.0,0.44532198994626865,-0.3958987375337317,-0.7708149483132968,0.22538152174981535
-470.56924533843994,-5292.0,-3440.0,-19240.0,18325.0,-10624.0,-8798.0,0.23980490844198596,0.49920015629895986,-0.503851791184971,0.6628922856376599
-470.58505749702454,-4836.0,-2700.0,-19664.0,19219.0,-11006.0,-8671.0,-0.2517089427709058,0.8331281103901046,0.32779138469092733,0.36754995297152593
-470.60089230537415,-2608.0,236.0,-19852.0,20850.0,-8085.0,-5985.0,-0.5963067283787874,0.2055586792746072,0.7139268348831144,-0.30409273174287577
-470.61670660972595,-556.0,1836.0,-18716.0,18000.0,-4992.0,-2979.0,-0.35599721454690225,-0.5436487125399431,0.28482508881930513,-0.7046891012124312
-470.63243985176086,-572.0,-2004.0,-18608.0,15886.0,-2436.0,-5345.0,0.0726450758291088,-0.7396985397754328,-0.48743216595106875,-0.4582342706608982
-470.64815616607666,-796.0,-3736.0,-18344.0,16199.0,-694.0,-6465.0,0.4556213059836397,-0.21394381084889216,-0.8544092367707109,0.12892682984587497
-470.66391921043396,-2424.0,-2764.0,-16696.0,15815.0,1561.0,-9352.0,0.5131948893873549,0.5777734871009831,-0.41655694130996374,0.478841432789977
-470.67962646484375,-3716.0,-120.0,-16992.0,15957.0,2469.0,-9073.0,0.09329723315156521,0.79931858125236,0.43048235973553806,0.40874242489311
-470.6953241825104,-3524.0,1968.0,-16088.0,12986.0,204.0,-6154.0,-0.37444356035424053,0.4155758448936234,0.8257867326628641,-0.07186799988995644
-470.7110159397125,-2724.0,-952.0,-16556.0,9503.0,2124.0,-14493.0,-0.5282709690092502,-0.508113173416456,0.6707933351448853,-0.11308000631361896
-470.72672152519226,-1764.0,-2640.0,-16880.0,10202.0,4466.0,-20261.0,-0.23846279371893137,-0.9416771979750376,-0.23716792542317808,0.011442288936666543
-470.74240922927856,-4088.0,2864.0,-15452.0,8835.0,-3471.0,-7047.0,0.29436844429493564,-0.6793749821489627,-0.5116687829276997,0.4358806134835118
-470.7581436634064,-312.0,2272.0,-16404.0,5084.0,1578.0,-13867.0,0.7290882740367272,0.006273465609100692,-0.6719234444835124,0.13003775238295182
-470.7738747596741,-1280.0,-772.0,-15692.0,2946.0,2984.0,-4736.0,0.8369940274395301,0.38309197767666964,-0.39073567263305137,0.0026774619194615706
-470.7895965576172,-3972.0,-3124.0,-15776.0,2282.0,376.0,-6542.0,0.6627897586480966,0.6611740782583937,-0.1233210614537079,-0.3291663559240105
-470.8053152561188,-2420.0,-604.0,-16700.0,1073.0,-1435.0,-8172.0,0.28305904408208526,0.622038183402,0.18927551301788645,-0.7050679797899576
-470.8210492134094,364.0,1676.0,-15816.0,-2215.0,926.0,-612.0,0.34237100337068743,0.6005505897827915,0.3730774776951792,-0.6188168394598624
-470.836767911911,-1824.0,-1020.0,-15776.0,-4493.0,1068.0,475.0,0.5269675513338054,0.5001402274418911,0.577256577215339,-0.3727462901187055
-470.8525140285492,-4344.0,-1852.0,-14464.0,-6866.0,-1932.0,-2887.0,0.6889504846282487,-0.019705170957840672,0.6956772687135963,-0.2024649939204665
-470.8682291507721,-3864.0,-2088.0,-15572.0,-8649.0,-4065.0,-1370.0,0.6855839744594731,-0.5312786784063382,0.4603910080778276,0.18909706374306526
-470.8839681148529,-3352.0,-1960.0,-15748.0,-10596.0,-4348.0,587.0,0.25384030043253714,-0.7563154991684934,0.03731982086724811,0.6017966422008922
-470.89967107772827,-4332.0,-220.0,-18056.0,-5962.0,-4325.0,11348.0,-0.46639991083627186,-0.40365862140112546,0.2439312079545959,0.7483504568891987
-470.91539335250854,-10052.0,7768.0,-9268.0,-28685.0,-2590.0,8148.0,-0.6985897782376086,0.39550347217345067,-0.4422466925961371,0.39995898305757704
-470.931111574173,-4552.0,-32256.0,-15512.0,-17687.0,-14486.0,17306.0,-0.46429912125216366,0.4867606091369532,-0.287206794410859,-0.6819110591868485
-470.9468078613281,3996.0,-14308.0,-9200.0,-2593.0,11631.0,-3073.0,-0.1673075948203975,0.9275221072044715,-0.32263437863915806,-0.08728096632436537
-470.9624972343445,-12364.0,-24204.0,-18456.0,-15922.0,-11277.0,32684.0,0.303466694583505,0.04428841590051353,-0.7731920919257046,-0.5550860207923972
-470.97821617126465,5712.0,-18892.0,-32768.0,-3879.0,4159.0,-23997.0,-0.23743868254604422,0.7426022398384029,-0.16117514572122119,-0.6051341651398713
-470.99390983581543,6104.0,-3012.0,-4516.0,-11649.0,3893.0,29747.0,0.7189190471350997,0.25865687770497264,-0.5214015560527452,-0.37999005332778274
-471.00959634780884,-10800.0,-8496.0,-8596.0,-1554.0,-9168.0,10693.0,0.4346491724637456,-0.3958172608280332,-0.8089120199991503,0.008374772120363281
-471.0253875255585,-2660.0,8000.0,-12004.0,-9488.0,-4946.0,16888.0,-0.1267451654691381,-0.9668171581955808,-0.20890845252172846,0.07454866943010377
-471.0410912036896,-3560.0,-6604.0,-14120.0,-9788.0,7890.0,13118.0,-0.47683887558106736,-0.612971278390805,0.398490316508326,-0.48795119248918734
-471.05677580833435,-14932.0,-7456.0,-13404.0,-9020.0,-1673.0,-5946.0,-0.8351827318412883,-0.37308107692914494,0.38651638116778075,0.11783633378748205
-471.0725247859955,-2620.0,-9040.0,-12260.0,-9673.0,1089.0,-2857.0,-0.8666073330243003,0.16804988482359917,0.08592433993029622,0.4619177138482865
-471.08823680877686,-3792.0,-3364.0,-14264.0,-5453.0,-3431.0,-2304.0,-0.5734920900912629,0.6024723174726737,0.13671766531942797,0.537998335751576
-471.10397267341614,188.0,-908.0,-16380.0,-9575.0,-55.0,5791.0,-0.24407078204413743,0.8252777042334161,-0.43959643652867736,0.2571014143074165
-471.119708776474,-4224.0,-7904.0,-15716.0,-7769.0,2089.0,330.0,0.3175809650207803,0.7619295472142127,-0.5582264291005284,0.08359993775169663
-471.13545322418213,-5072.0,-4732.0,-15944.0,-5926.0,-2385.0,-5046.0,0.5152224262478329,0.7019083253516698,-0.27071588116988726,-0.41058916933562967
-471.15118169784546,0.0,-572.0,-14420.0,-4360.0,854.0,3574.0,0.8329867985888556,0.4049226728272481,-0.2642153496453694,-0.26899976100157064
-471.1668689250946,-5248.0,-2316.0,-13480.0,-4879.0,-313.0,2223.0,0.9510629560433056,-0.0073515191015872455,-0.22732045331178544,-0.20916648946519284
-471.1825611591339,-6632.0,-3884.0,-16748.0,-3950.0,-2563.0,-1168.0,0.8069199296765898,-0.33063656536883346,-0.33957280502426174,-0.35249113296618273
-471.1982500553131,-3360.0,-4716.0,-17692.0,-3437.0,-504.0,877.0,0.6868439509555233,-0.5863921314474292,-0.23300818152517133,-0.3606893990051277
-471.21398758888245,-5040.0,-4704.0,-16048.0,-2932.0,-427.0,-754.0,0.4871865070653302,-0.7347579001293856,-0.19795218192159925,-0.4284799519270618
-471.22971296310425,-5140.0,-3148.0,-15152.0,-1972.0,681.0,-565.0,0.34516169481936537,-0.7700009850064503,-0.12918968374579326,-0.5208377032552284
-471.2454116344452,-6804.0,-2620.0,-13260.0,-2404.0,-1497.0,-3254.0,0.017543993400236886,-0.8178955772896395,-0.26545859374249664,-0.5101673920919253
-471.26110315322876,-4412.0,-2956.0,-15576.0,-1126.0,-2246.0,-4915.0,-0.30061709414852034,-0.7260241585175099,-0.5131776980768896,-0.3452056403814196
-471.2767677307129,-2496.0,-2092.0,-16192.0,-2049.0,-462.0,-2239.0,-0.5007877371194237,-0.5660789653445663,-0.561513703157951,-0.33685101827228725
-471.2925078868866,-3720.0,-3868.0,-16980.0,-896.0,-370.0,-3250.0,-0.631479193671398,-0.36306197198595086,-0.6517809338242065,-0.21119101960319822
-471.30822825431824,-4408.0,-2432.0,-15428.0,-1937.0,1178.0,-6397.0,-0.6397400387726838,0.11116060738208917,-0.7604926963223343,-0.005182759685310834
-471.33962988853455,-6956.0,-3912.0,-14504.0,-701.0,-622.0,-2557.0,-0.6568491425755134,0.31109575460468186,-0.6818508652955341,0.08275284200852483
-471.35532784461975,-5712.0,-2856.0,-13976.0,-1366.0,636.0,-4723.0,-0.5025766462815013,0.6111277355265832,-0.5508094630877968,0.26560975293750505
-471.37101793289185,-5760.0,-3284.0,-14768.0,-1793.0,1243.0,-6140.0,-0.17797447513546372,0.831184578498939,-0.27783963457187577,0.44750689394328214
-471.3867230415344,-3220.0,-4344.0,-16252.0,-175.0,-134.0,-5627.0,0.04597316978178809,0.8756966791563899,0.11260779054041738,0.46729142864415046
-471.4024212360382,-2440.0,-3728.0,-15020.0,-1137.0,1363.0,1366.0,0.06249800749369738,0.8137536481503559,-0.03209616302186576,0.5769478620296452
-471.41818737983704,-5876.0,-4488.0,-14156.0,-1639.0,1966.0,-487.0,0.20366341055244805,0.6897685674124443,-0.06764321701259982,0.691494709888742
-471.4338791370392,-7728.0,-4392.0,-13976.0,87.0,230.0,218.0,0.18646434243603294,0.6760492054119457,-0.07145559264329929,0.7092831727468017
-471.4495725631714,-5540.0,-2688.0,-14720.0,-328.0,-916.0,-838.0,0.2503344913779204,0.7282810287000727,-0.056914535529417117,0.6353740011265746
-471.465256690979,-1484.0,-2456.0,-15412.0,-12.0,1606.0,5019.0,-0.017572548845355817,0.558080426259227,-0.3103001288524988,0.7693836971157627
-471.4809355735779,-3884.0,-4952.0,-15800.0,-999.0,1061.0,3246.0,-0.15108903780952185,0.38259990825532963,-0.5131110883738198,0.7533302223093405
-471.49668860435486,-4932.0,-4120.0,-15264.0,386.0,-322.0,1763.0,-0.2906343659697726,0.3157815199515406,-0.535778428232562,0.7271555355046734
-471.5124089717865,-3848.0,-2852.0,-14360.0,-438.0,-67.0,3582.0,-0.48544301254773925,0.15616353033440936,-0.6302804886033816,0.5854097189558369
-471.52814769744873,-4776.0,-3400.0,-15032.0,54.0,142.0,4904.0,-0.669944699768183,-0.11313609591643602,-0.6440482528018029,0.351534025545538
-471.54385328292847,-5188.0,-3408.0,-15148.0,-71.0,309.0,2385.0,-0.7107507484444234,-0.24712574425700598,-0.6273065627474492,0.20062082754562935
-471.55954599380493,-4192.0,-3512.0,-15060.0,567.0,-31.0,1615.0,-0.7202899639035196,-0.3661246139577054,-0.5745002106596542,0.1307082358009622
-471.57526421546936,-2764.0,-2360.0,-14128.0,349.0,817.0,3478.0,-0.6752702502233378,-0.5456769470505705,-0.4876133664598969,-0.09208671712318801
-471.5915515422821,-4500.0,-3828.0,-14596.0,-844.0,1001.0,4539.0,-0.5881841850834018,-0.6297577212336191,-0.2994340081091869,-0.40961427190966065
-471.6073453426361,-6264.0,-4468.0,-15496.0,646.0,-662.0,-45.0,-0.5695962131577005,-0.6833231585785966,-0.2902190821364219,-0.35270738476883406
-471.6230628490448,-4332.0,-2052.0,-14952.0,-24.0,145.0,2413.0,-0.48230507564562347,-0.7230503811084928,-0.14962860250661686,-0.4713716598367464
-471.63880252838135,-2828.0,-4288.0,-15392.0,-549.0,2603.0,4782.0,-0.2581464746576355,-0.5915326892472282,0.058759082415928254,-0.7615752394920775
-471.6545009613037,-6300.0,-5112.0,-13544.0,-1292.0,2188.0,4857.0,-0.011836427007830934,-0.3538522868232616,0.3123016650249466,-0.8815419037846599
-471.6701874732971,-7724.0,-5716.0,-14296.0,-2034.0,-527.0,-1934.0,-0.20276909723920472,-0.4318268020226877,0.3977144556133793,-0.7837305136689586
-471.6858732700348,-3772.0,-2452.0,-15380.0,-812.0,-802.0,-2311.0,-0.35463743045431817,-0.5391833809232516,0.37129455813980544,-0.6675731613484001
-471.701562166214,-764.0,-2172.0,-15824.0,-2311.0,846.0,2792.0,-0.31196610801480057,-0.31204723023054004,0.5813925511424689,-0.6835834806602611
-471.7172613143921,-2596.0,-4324.0,-15152.0,-2843.0,1870.0,3207.0,-0.2710918826784082,0.036639003734331856,0.7292519260743974,-0.6271829102167993
-471.73295998573303,-5548.0,-4392.0,-15504.0,-2555.0,84.0,1140.0,-0.1998092741086887,0.16933817189397313,0.8389350239768018,-0.477062745417004
-471.7487461566925,-5560.0,-3060.0,-14384.0,-2013.0,-64.0,-712.0,-0.19149598285120703,0.14721166382753031,0.9186486281197773,-0.3126383096145312
-471.7644724845886,-5884.0,-992.0,-14048.0,-1977.0,-500.0,155.0,-0.11962504970192847,0.17631420406056408,0.9637718541430427,-0.16045859930830295
-471.78018617630005,-4308.0,-1648.0,-15736.0,-1987.0,-67.0,-1368.0,-0.1000724812476142,0.07936119621052985,0.9916166538013726,0.019588540955064748
-471.7959258556366,-1964.0,-2152.0,-15456.0,-1584.0,2124.0,-625.0,-0.2642310214458725,0.034531685677119936,0.948388438787741,0.1718979324009412
