programtime,ax,ay,az,gx,gy,gz,q0,q1,q2,q3
-495.4302787780762,-2884.0,-4240.0,-15004.0,-312.0,-716.0,-2847.0,0.9683835039556205,-0.02663054455305889,-0.060327570859093425,-0.24059257585736746
-495.44603204727173,-2776.0,-4052.0,-15444.0,91.0,-500.0,-2760.0,0.8819664673094605,-0.014772340376154986,-0.10759666004897407,-0.4586282669524271
-495.46173763275146,-1896.0,-3376.0,-15636.0,-1347.0,37.0,-931.0,0.8348162556036137,-0.10745340289168889,-0.051530112924320096,-0.5374757976401965
-495.47745180130005,-1684.0,-5524.0,-15744.0,-804.0,1152.0,-485.0,0.8029674641965204,-0.10920011027245348,0.06513071145706543,-0.582302823094127
-495.4931604862213,-3496.0,-5064.0,-15064.0,-1384.0,323.0,-170.0,0.7732464395851109,-0.18943183148867643,0.15552357325755448,-0.5848230014705279
-495.5088963508606,-2736.0,-6120.0,-14624.0,-1652.0,30.0,-1394.0,0.6626276522228708,-0.31295114623519554,0.21524657127044824,-0.6454882556143058
-495.52463030815125,-2724.0,-5340.0,-14464.0,-1728.0,-116.0,-1423.0,0.527388872973461,-0.4380045583531463,0.2622565131036688,-0.6791424775850449
-495.54037594795227,-3140.0,-4548.0,-15300.0,-1178.0,-130.0,-465.0,0.4549106662358503,-0.5076139738557247,0.30662675565790365,-0.6643525961460245
-495.55610871315,-3256.0,-2772.0,-15596.0,-1497.0,474.0,-776.0,0.3270539482028429,-0.5540585637502357,0.37369821480959575,-0.6681350665457394
-495.57180094718933,-2532.0,-3452.0,-15624.0,-1855.0,911.0,700.0,0.24403087589959147,-0.5218269270196937,0.532296149954981,-0.6203276542182895
-495.58752369880676,-3436.0,-3760.0,-15516.0,-1748.0,595.0,-219.0,0.12330320205351807,-0.5301636628559605,0.6216602478512695,-0.5632595735466899
-495.60335063934326,-2452.0,-4184.0,-15168.0,-1921.0,810.0,-1420.0,-0.07742974163948546,-0.5743666410063333,0.6438497818388332,-0.49956486589314014
-495.6190676689148,-2108.0,-5076.0,-14744.0,-1906.0,358.0,-759.0,-0.2223714906985003,-0.5790884180061094,0.6755675401595884,-0.3985172806020225
-495.6348090171814,-3196.0,-4688.0,-15344.0,-1086.0,-167.0,-2119.0,-0.33372059811705385,-0.6743303304405869,0.5968238069138713,-0.2787660512708084
-495.6505239009857,-2792.0,-2696.0,-15616.0,-785.0,-300.0,-2424.0,-0.41279797918150174,-0.7661474100187309,0.47046717150782263,-0.14586505763440502
-495.66621947288513,-2300.0,-3140.0,-15632.0,-1709.0,14.0,-1365.0,-0.5350995459602447,-0.747095124938126,0.39343884455973877,-0.026892857756724068
-495.6819314956665,-2676.0,-3796.0,-15388.0,-1174.0,-122.0,-2767.0,-0.5935857014720821,-0.7619131368097974,0.21429257082437203,0.1456814368889621
-495.6976230144501,-1924.0,-3848.0,-15524.0,-1090.0,244.0,-2390.0,-0.6236889985968449,-0.7342446577189505,0.028164909475590732,0.26665249579682865
-495.71339559555054,-1852.0,-3028.0,-15840.0,-1282.0,65.0,-1661.0,-0.6562058077907278,-0.6593230588321601,-0.10984505097453309,0.35017296681829185
-495.72908449172974,-1476.0,-5068.0,-15180.0,-1446.0,685.0,-1085.0,-0.6897348829473234,-0.5790803101225773,-0.25223820575266026,0.3539882388338067
-495.74482560157776,-3552.0,-5088.0,-14232.0,-223.0,-707.0,-1519.0,-0.6622694467252664,-0.5050861706746586,-0.2903813738275929,0.47113246317932583
-495.760626077652,-3116.0,-2844.0,-15796.0,-685.0,-513.0,-2697.0,-0.5770704917854271,-0.36528806350491083,-0.3960609590034602,0.6137507596122527
-495.77630519866943,-2216.0,-3160.0,-15788.0,-700.0,502.0,-442.0,-0.5562259377972704,-0.34057298446985035,-0.47146589413348844,0.5935845845705197
-495.79199409484863,-2776.0,-3428.0,-15240.0,-928.0,593.0,-423.0,-0.5345086099814857,-0.3073257361411721,-0.5581623281458581,0.5552533234477233
-495.8077073097229,-2240.0,-4816.0,-14596.0,-777.0,759.0,89.0,-0.5201530979838495,-0.31084553548334654,-0.6262251953676197,0.49056886612856093
-495.8234541416168,-2332.0,-5752.0,-15020.0,-408.0,499.0,-142.0,-0.49683617912827127,-0.3054517291568668,-0.6693009396072224,0.46031435400733467
-495.8391754627228,-3296.0,-4688.0,-15120.0,19.0,-824.0,-1754.0,-0.4671673276964653,-0.16839258275940594,-0.6702685563436932,0.5514877046512475
-495.8548562526703,-2668.0,-3804.0,-15572.0,-299.0,-521.0,-2216.0,-0.38753288472496933,-0.0015276010459577911,-0.6826450771144258,0.6195253250539705
-495.8705792427063,-2248.0,-3648.0,-15320.0,-164.0,-507.0,-1158.0,-0.35286280528638814,0.09979053667934154,-0.6706214797203427,0.6448228596850205
-495.88628578186035,-2416.0,-4324.0,-14840.0,-333.0,-186.0,-385.0,-0.33871028814642196,0.14290067515878782,-0.6797477601567813,0.6346634701200073
-495.9020209312439,-2684.0,-4936.0,-14888.0,-363.0,-622.0,-1429.0,-0.28904710533141453,0.270241311007819,-0.6574944974363467,0.6411882645255067
-495.91769528388977,-2496.0,-4492.0,-15556.0,-226.0,-868.0,-1924.0,-0.2220315349943564,0.42767087536557574,-0.5930089961096552,0.6450891026556806
-495.93344354629517,-2076.0,-3996.0,-16052.0,9.0,-520.0,-1564.0,-0.1595623810494765,0.5323178826042403,-0.5189247260054263,0.6495341770482544
-495.9491674900055,-1804.0,-3864.0,-15156.0,500.0,-482.0,212.0,-0.2161969840218045,0.5421070286756552,-0.4929194242207775,0.645297818674591
-495.9649021625519,-2452.0,-3652.0,-14880.0,-333.0,241.0,672.0,-0.22736492908569172,0.504837854735084,-0.5468999771732788,0.6279684262892554
-495.9806401729584,-2408.0,-4832.0,-14948.0,-56.0,176.0,497.0,-0.24345441624946357,0.47217779882431815,-0.5749319374523995,0.6222791502238243
-495.9963445663452,-2884.0,-4524.0,-15168.0,209.0,6.0,765.0,-0.29258162490988654,0.4280954740711264,-0.5940094374554666,0.6150471901071883
-496.01206970214844,-3560.0,-3644.0,-15428.0,223.0,-175.0,-1014.0,-0.2544505993294539,0.4824070673653034,-0.5376441877327007,0.6430218046490599
-496.02779960632324,-2748.0,-3612.0,-15144.0,248.0,-2.0,-568.0,-0.23274484583600097,0.5030363433605144,-0.4992496963977916,0.6659834942714209
-496.0435297489166,-3372.0,-3488.0,-15616.0,157.0,-441.0,-530.0,-0.22760333503364708,0.5476399633010707,-0.4572377905556646,0.6627373502111811
-496.05929827690125,-2564.0,-3944.0,-15404.0,526.0,1.0,-956.0,-0.1965126241553273,0.5728312891564509,-0.3796305815957963,0.6993766683470238
-496.07499647140503,-3000.0,-4092.0,-15420.0,289.0,-457.0,-1626.0,-0.12547617720602627,0.6426466591713609,-0.2700615543344157,0.7059233366875824
-496.090726852417,-2776.0,-4192.0,-15232.0,227.0,-632.0,-1748.0,-0.04485503246894966,0.7110415463208486,-0.14930033117301672,0.6856510457802084
-496.10646200180054,-2368.0,-4572.0,-15272.0,432.0,-444.0,-1820.0,0.03096390761888919,0.7493578146606718,-0.008767605852211419,0.6613828173755132
-496.1222274303436,-2612.0,-3776.0,-15280.0,495.0,-718.0,-1901.0,0.1059509948730488,0.7808921712492708,0.139823141559176,0.599525889892616
-496.13794779777527,-2468.0,-3996.0,-15296.0,542.0,-576.0,-2580.0,0.20532818980485187,0.763848657590466,0.3296650624164848,0.515457572832761
-496.15364956855774,-1296.0,-4248.0,-15656.0,1033.0,578.0,-4326.0,0.2926927286257171,0.5885816979262322,0.6285009290192312,0.4157993911706332
-496.1693956851959,-2096.0,-3216.0,-14476.0,-444.0,-511.0,121.0,0.3384007795594404,0.6014408694947465,0.5921905911318169,0.4160097314605937
-496.18509006500244,-1752.0,-6476.0,-14396.0,-546.0,722.0,-126.0,0.33312328884707043,0.550950565914769,0.5985306614628821,0.4767005303486788
-496.2007751464844,-3464.0,-5968.0,-14412.0,-275.0,-336.0,-713.0,0.3924227900407072,0.5184083234064946,0.6101329695824483,0.452763650824619
-496.2164990901947,-2756.0,-4168.0,-15184.0,-158.0,-382.0,-1187.0,0.4639039777359259,0.46220639270162145,0.6408290501588708,0.4006201173918
-496.2322082519531,-2240.0,-3184.0,-15272.0,-435.0,-159.0,387.0,0.4760004164748103,0.47123549511131774,0.6029249083025524,0.4334077371383178
-496.24794363975525,-2924.0,-3116.0,-16048.0,50.0,-362.0,203.0,0.4848463986737517,0.4974481251053657,0.5812307809746148,0.4238397241527621
-496.26363468170166,-2196.0,-3176.0,-15696.0,-100.0,-63.0,243.0,0.48310541851953104,0.5078419990719177,0.5643400323787521,0.4361490415333455
-496.27935338020325,-2700.0,-4328.0,-15256.0,26.0,174.0,-99.0,0.4769338438680643,0.49746568318345225,0.5771399571510447,0.43814549237410205
-496.2950417995453,-3564.0,-4408.0,-15400.0,388.0,-260.0,-1324.0,0.519784944323913,0.45355857014612255,0.6340664451615784,0.3493822809206995
-496.310733795166,-2212.0,-4212.0,-15160.0,432.0,-85.0,-642.0,0.5255742394094016,0.4392792070346858,0.6674324658200417,0.2921290822660173
-496.3264923095703,-2888.0,-4496.0,-14932.0,282.0,-347.0,-619.0,0.5493560751147523,0.42411457460173274,0.6811054125244289,0.2333026947440461
-496.3422212600708,-3304.0,-3984.0,-15504.0,667.0,-818.0,-2025.0,0.6024635940537639,0.345622557305379,0.7165037284425667,0.06484653305622451
-496.3579251766205,-2160.0,-3720.0,-15448.0,447.0,-432.0,-1529.0,0.6180193234548697,0.27317524699149454,0.735041969230408,-0.0560419819189631
-496.3736159801483,-2632.0,-3512.0,-15568.0,934.0,-333.0,-1218.0,0.6052394440557064,0.2415494095692845,0.7348776967021319,-0.18786662552363784
-496.38938093185425,-2168.0,-4304.0,-15168.0,278.0,-45.0,-1615.0,0.5697270533318555,0.15039919377123484,0.7545029435535138,-0.288992171838351
-496.40507650375366,-2660.0,-4756.0,-15156.0,782.0,-376.0,-490.0,0.5694754740669566,0.14696618368055644,0.7200184203850447,-0.3683369375949324
-496.4207603931427,-2412.0,-4612.0,-15100.0,855.0,13.0,-934.0,0.524259939552613,0.13038957440080357,0.7011149284955058,-0.46539008552891376
-496.43651723861694,-2856.0,-3524.0,-15200.0,590.0,-391.0,-218.0,0.5313300253401488,0.12791848744796602,0.660606051353923,-0.5147085676920868
-496.4522383213043,-2240.0,-4924.0,-15176.0,516.0,476.0,90.0,0.5010377203417414,0.1780708989310622,0.6574786597049962,-0.5338293451854779
-496.46795177459717,-3036.0,-3884.0,-14876.0,665.0,-25.0,682.0,0.5219470372170689,0.24430294077931752,0.6129356858943942,-0.5405526879260425
-496.48365092277527,-2552.0,-4924.0,-14932.0,343.0,341.0,751.0,0.5300351592655161,0.31525890535374057,0.594713308511766,-0.5157427975420783
-496.4993464946747,-3236.0,-5160.0,-14716.0,423.0,229.0,735.0,0.5378270941191919,0.3822048944070242,0.5646263119904754,-0.49584126828114655
-496.5150499343872,-2900.0,-4964.0,-14632.0,366.0,-178.0,-21.0,0.5329485962157673,0.39047202756885785,0.5410254608958538,-0.5203737504336061
-496.5307822227478,-2896.0,-4744.0,-15000.0,36.0,-175.0,14.0,0.5403657750946115,0.38489940530320144,0.5309403213757186,-0.527218789537219
-496.54656863212585,-2828.0,-4868.0,-15288.0,472.0,-286.0,-927.0,0.4927506725334599,0.3495895304218657,0.5247867664294531,-0.599652219805581
-496.56228017807007,-2604.0,-4256.0,-15228.0,18.0,-362.0,-235.0,0.4959742886187526,0.32052807607512684,0.5153205137111256,-0.6210604041679049
-496.5780408382416,-2916.0,-4244.0,-15232.0,293.0,-304.0,-445.0,0.4765059055107109,0.2963937595979942,0.4982617164974873,-0.6609297414686083
-496.5938379764557,-2628.0,-4360.0,-15220.0,407.0,-182.0,-817.0,0.42524023706466124,0.26651284015322474,0.4869979210697908,-0.7148249238018735
-496.6095631122589,-2396.0,-4548.0,-15328.0,178.0,-236.0,-130.0,0.42274016411362164,0.2528616079074682,0.4702315065707335,-0.7322800633090158
-496.6252806186676,-2588.0,-5564.0,-14344.0,108.0,15.0,-105.0,0.4128812161788293,0.25354705417399076,0.4664207052790873,-0.7400639961066482
-496.64103078842163,-3060.0,-4832.0,-15096.0,413.0,-165.0,-1251.0,0.32738042145409874,0.20557371486502368,0.45867289576912246,-0.8001129183383419
-496.6567454338074,-2252.0,-4564.0,-15100.0,412.0,278.0,-239.0,0.2917623990437539,0.22700914274398865,0.44189090651337176,-0.8173579254865418
-496.6725196838379,-3124.0,-4060.0,-15324.0,267.0,-48.0,-427.0,0.25755913692813986,0.21382532195667442,0.4299212930032918,-0.8385163710371635
-496.6882150173187,-2728.0,-4856.0,-15240.0,450.0,119.0,-602.0,0.20015427922242432,0.20970414793601388,0.4102620133294958,-0.8646661293622013
-496.70395398139954,-2964.0,-4296.0,-15356.0,606.0,60.0,-818.0,0.12466988170902167,0.1948846486260387,0.3793178659281241,-0.8958768614671873
-496.71962809562683,-2456.0,-4568.0,-14880.0,352.0,393.0,-475.0,0.068387963656998,0.21342689320531788,0.3637200449687631,-0.9041458823505727
-496.73533511161804,-2776.0,-5380.0,-14688.0,218.0,267.0,-811.0,-0.008122582321766804,0.20956763320703706,0.36240413349094464,-0.9081182052998962
-496.75103402137756,-2804.0,-5232.0,-15068.0,429.0,-245.0,-721.0,-0.06516467742510954,0.16670992828804532,0.34103392361821616,-0.9228527659208922
-496.76678347587585,-2792.0,-4968.0,-14896.0,258.0,27.0,-109.0,-0.07846102876312672,0.1642681233708448,0.3218539883663077,-0.9291231677137068
-496.7825071811676,-2916.0,-4808.0,-15100.0,260.0,-488.0,389.0,-0.03686377817262219,0.13376954373524433,0.2982819959524531,-0.9443381925551486
-496.7982051372528,-2748.0,-4136.0,-15320.0,642.0,-87.0,-224.0,-0.06043260148430657,0.11864044685313366,0.24810257527963153,-0.9595402321882822
-496.8139042854309,-2328.0,-4284.0,-15308.0,656.0,1.0,-568.0,-0.11446902913915367,0.10282213397369165,0.19875923605255763,-0.9678942174725704
-496.8296000957489,-2688.0,-4744.0,-14864.0,389.0,217.0,-164.0,-0.13544527055074207,0.11448792347255457,0.16533660851670196,-0.9701602444692183
-496.84538674354553,-2540.0,-5544.0,-14620.0,296.0,277.0,64.0,-0.13688584994936157,0.135451619062295,0.13654194268434203,-0.9717362918328356
-496.8610849380493,-2524.0,-6140.0,-14448.0,45.0,456.0,471.0,-0.10274367728230403,0.17908623543448585,0.12176685877043707,-0.9708474077637506
-496.8767671585083,-3168.0,-5488.0,-15000.0,652.0,243.0,-694.0,-0.1736773278723134,0.18599679103045558,0.07514443792400545,-0.9641549112868696
-496.89251708984375,-2864.0,-4136.0,-14896.0,19.0,-274.0,-223.0,-0.1908619214535854,0.16138510019724017,0.08145325284866081,-0.9648274166781043
-496.9082098007202,-2872.0,-4836.0,-15144.0,331.0,87.0,-86.0,-0.20328697545003324,0.16276144760041616,0.05351969392692851,-0.9640118044657766
-496.92395877838135,-2692.0,-4416.0,-15256.0,333.0,76.0,-104.0,-0.2170185561569696,0.1629534249683855,0.02579817008791952,-0.962124514808105
-496.93966841697693,-2220.0,-5300.0,-14436.0,-377.0,508.0,764.0,-0.14811397337341978,0.21392537289998695,0.03701099355163279,-0.9648462945347619
-496.9553699493408,-3324.0,-6280.0,-14652.0,-214.0,-72.0,-431.0,-0.1800301189011587,0.20931084961992205,0.06412456559670192,-0.9589922651444355
-496.97105407714844,-2700.0,-5628.0,-14976.0,186.0,-94.0,-579.0,-0.23103198521662774,0.19525904583479348,0.06071020075710494,-0.9512162731737624
-496.98681139945984,-2584.0,-4300.0,-14936.0,-471.0,64.0,445.0,-0.18610631669493993,0.21235439490247632,0.09094727668159391,-0.954986200275191
-497.0025146007538,-3296.0,-5220.0,-15044.0,22.0,-246.0,-964.0,-0.2639031728009736,0.18341509828137012,0.11073604384180785,-0.9404528407646392
-497.0182123184204,-2852.0,-4240.0,-15320.0,12.0,-403.0,-685.0,-0.31564573245171224,0.14336229706371467,0.12986772616560427,-0.9289506967897773
-497.033896446228,-2120.0,-4636.0,-15052.0,-193.0,240.0,416.0,-0.28192195029113715,0.17289749482113895,0.13378335295575922,-0.9341993816635348
-497.0496244430542,-2940.0,-5236.0,-15100.0,-275.0,167.0,-109.0,-0.28846203990612607,0.1921562903292875,0.15387450914307269,-0.9253044077794408
-497.06538367271423,-2732.0,-5420.0,-14860.0,47.0,224.0,-336.0,-0.3191667736464505,0.20465007059062265,0.15019024714534424,-0.9130683484108894
-497.0810806751251,-2784.0,-4980.0,-14900.0,253.0,177.0,-61.0,-0.3307173379157338,0.2110713645952848,0.12634019842349833,-0.9111054141602527
-497.0967764854431,-3044.0,-4644.0,-15188.0,288.0,191.0,-343.0,-0.3650454020700064,0.2142320531874918,0.1043281308223885,-0.8999789569393973
-497.1125841140747,-2744.0,-4112.0,-15116.0,62.0,184.0,57.0,-0.3633213131232496,0.2274640366519368,0.09267290725131357,-0.8987043271966556
-497.1282799243927,-2652.0,-5244.0,-15088.0,113.0,263.0,139.0,-0.35663444977309644,0.24580333747769992,0.07284820677874648,-0.8983795007061245
-497.14398431777954,-2720.0,-5240.0,-14984.0,412.0,239.0,-346.0,-0.3935822410690954,0.2494663413300088,0.04062666149772893,-0.883860304818582
-497.15967321395874,-2636.0,-4712.0,-14908.0,27.0,27.0,-470.0,-0.43013396160662654,0.24903597367733538,0.04792270799245475,-0.8664117225348699
-497.17536664009094,-2692.0,-5444.0,-14964.0,394.0,28.0,-962.0,-0.5094334913332372,0.2316777279218465,0.03795805752304953,-0.8278660122037117
-497.19105792045593,-2492.0,-4872.0,-14788.0,-20.0,-484.0,79.0,-0.5012361436621328,0.19798094954651024,0.05937317158972975,-0.8402622795286914
-497.2067925930023,-2532.0,-5316.0,-14856.0,99.0,80.0,-79.0,-0.5090851999340169,0.1993766300569811,0.05011212100395715,-0.8358049975465263
-497.22250485420227,-2908.0,-5172.0,-14776.0,-101.0,-70.0,-227.0,-0.5234177373943982,0.19800871860629096,0.06463965587143367,-0.8262252322615461
-497.2382297515869,-2856.0,-5528.0,-14736.0,-186.0,-109.0,-442.0,-0.5509178317657448,0.1962586702126904,0.09071301924137513,-0.8060665140973111
-497.25393414497375,-3052.0,-5248.0,-14804.0,-141.0,-118.0,-447.0,-0.5784557042296834,0.19131391399982514,0.11399096251068105,-0.7847254583738805
-497.26962971687317,-2620.0,-4892.0,-14828.0,-221.0,-10.0,-327.0,-0.5966558704891155,0.1986908296543174,0.13515594269380898,-0.7656739499138668
-497.28538250923157,-2900.0,-5468.0,-14988.0,-439.0,-264.0,-349.0,-0.6083017764801767,0.19977197324684043,0.18416481821499936,-0.7457502444974196
-497.3010747432709,-2808.0,-5072.0,-15216.0,-166.0,-311.0,-443.0,-0.6284054155544389,0.18126436938446086,0.21910122047646136,-0.7240473170168037
-497.3167951107025,-2384.0,-4532.0,-15036.0,-276.0,48.0,-191.0,-0.6366685124292407,0.1959355865535983,0.23701684604732773,-0.7071672121166341
-497.3325946331024,-2708.0,-4724.0,-15068.0,-220.0,91.0,254.0,-0.6187436312280392,0.21916882003056326,0.24126826592996653,-0.7147803655643442
-497.3483226299286,-2616.0,-5288.0,-15016.0,-146.0,165.0,-134.0,-0.6275394119014026,0.23470365264689352,0.24415015962041414,-0.7010700261043644
-497.3639998435974,-3020.0,-5008.0,-14980.0,-108.0,69.0,-74.0,-0.6311819393990306,0.24349195173041954,0.24864344708922453,-0.6931792445237938
-497.3796856403351,-2784.0,-5344.0,-14684.0,-287.0,206.0,313.0,-0.6100086164355273,0.27855841338886655,0.24796663961220994,-0.6991475122205039
-497.3953711986542,-3008.0,-5144.0,-14660.0,-165.0,27.0,-260.0,-0.6221231284099281,0.28351005816739955,0.2629776271362405,-0.6807551892135337
-497.41106963157654,-2640.0,-5076.0,-14948.0,-279.0,-41.0,-204.0,-0.6260085600205864,0.2916479191625239,0.2868551717202341,-0.663904273586544
-497.4268171787262,-2772.0,-5112.0,-15360.0,-172.0,-77.0,-111.0,-0.6259127436236482,0.293990530862692,0.3039610213121186,-0.6552942107599331
-497.44253158569336,-2628.0,-4416.0,-15336.0,-128.0,67.0,130.0,-0.6167710226986013,0.3084523641846047,0.3044122383450456,-0.6571026051797455
-497.4581847190857,-2468.0,-5236.0,-14860.0,-109.0,379.0,629.0,-0.5864964089847364,0.3522508211170485,0.27293062629549636,-0.6763506446365833
-497.4738907814026,-2936.0,-5304.0,-14920.0,60.0,78.0,306.0,-0.5718089059352851,0.36117395024902615,0.25603833923321706,-0.690675264938091
-497.48958134651184,-2468.0,-4968.0,-15056.0,197.0,448.0,450.0,-0.5598673397095401,0.38799122897175536,0.20743019624961098,-0.702128251711464
-497.50526762008667,-3016.0,-4864.0,-14960.0,-289.0,160.0,704.0,-0.5085789759873495,0.42393563692367636,0.19316010125127198,-0.7240961097909409
-497.5209610462189,-2824.0,-5140.0,-14692.0,232.0,360.0,-212.0,-0.5360744840275566,0.43269149399636314,0.17033910718091677,-0.7045472355794123
-497.5367250442505,-2548.0,-4652.0,-14892.0,-302.0,148.0,815.0,-0.4752702822072262,0.46690845515059337,0.1508714763360085,-0.7303098321861367
-497.55247020721436,-2564.0,-5604.0,-14656.0,22.0,586.0,358.0,-0.4601656549462142,0.507390590020394,0.11049276616391354,-0.7201345067361546
-497.568154335022,-3296.0,-5420.0,-14928.0,-74.0,-170.0,-107.0,-0.4618189464993249,0.4988192532755336,0.12676629333193382,-0.7223800385467296
-497.5838644504547,-2376.0,-4444.0,-15004.0,366.0,321.0,108.0,-0.47396839623129944,0.5052813523788592,0.0860675048567351,-0.7159868008000266
-497.5996391773224,-2680.0,-4420.0,-14860.0,-28.0,269.0,737.0,-0.42762698437396174,0.527806944694635,0.04416328433984973,-0.7325329997233322
-497.61532640457153,-3032.0,-5396.0,-14992.0,116.0,327.0,-59.0,-0.43773246632377416,0.5441555456523864,0.027317928499399034,-0.7152193795223684
-497.6310224533081,-2772.0,-5488.0,-14576.0,-58.0,-96.0,113.0,-0.4275955361140648,0.5408574764285068,0.02929958006525537,-0.723724244650345
-497.6467378139496,-2448.0,-5244.0,-14780.0,-192.0,157.0,146.0,-0.4095254907431848,0.5583914035001853,0.028732615980408185,-0.72087609872125
-497.66253566741943,-2908.0,-5228.0,-14976.0,-319.0,-207.0,-604.0,-0.43056161079564864,0.5544373791257904,0.0855197068353664,-0.7070376734516869
-497.6782479286194,-2472.0,-5340.0,-14464.0,-222.0,235.0,-217.0,-0.43464045265716356,0.5755701521065996,0.10090747959677059,-0.6852914398118432
-497.6940248012543,-3220.0,-4572.0,-15044.0,-32.0,-369.0,-638.0,-0.4668840063064589,0.548219033167147,0.14861514777014137,-0.6777822321230975
-497.7097203731537,-2416.0,-4732.0,-15584.0,-357.0,-88.0,50.0,-0.44538006010093806,0.5581590197244857,0.17091907922938188,-0.6788827432775607
-497.7254195213318,-2668.0,-4852.0,-14968.0,1.0,33.0,-668.0,-0.48457551366345647,0.549417718050638,0.20185950921713566,-0.6500611365005943
-497.74113035202026,-2332.0,-4984.0,-14816.0,-329.0,13.0,218.0,-0.4562881517732611,0.567801804517653,0.20949508841520365,-0.6523143730347695
-497.7568974494934,-2716.0,-5596.0,-14580.0,-360.0,387.0,81.0,-0.4403312424662252,0.6052058712427764,0.21043364228615546,-0.6289291951528444
-497.7726299762726,-3232.0,-5416.0,-14672.0,-282.0,-251.0,-225.0,-0.43274955503996354,0.597918293583975,0.24733997851313652,-0.6277296168251602
-497.78832817077637,-2396.0,-4924.0,-15164.0,-106.0,187.0,-510.0,-0.45854386593701313,0.6006725263755633,0.2724758280878,-0.5955560109485961
-497.8040256500244,-3016.0,-4580.0,-15016.0,-292.0,-107.0,195.0,-0.4302054838750996,0.6113345006551429,0.2816559055901931,-0.6015507632766222
-497.8197400569916,-3040.0,-4560.0,-15160.0,-274.0,-222.0,-28.0,-0.41127733737744643,0.6092018931277466,0.3058115709465057,-0.6051473277182327
-497.83544659614563,-1896.0,-5112.0,-14996.0,-40.0,542.0,603.0,-0.3906799166382395,0.6539060683561391,0.2558905382457672,-0.5952277622379909
-497.8512132167816,-2876.0,-4744.0,-15060.0,-181.0,81.0,746.0,-0.3425202519820877,0.6796045899988609,0.21955330979727872,-0.6104210206010829
-497.8669173717499,-2556.0,-5132.0,-15048.0,252.0,664.0,724.0,-0.33024039921126047,0.7187004121761265,0.14288237702743456,-0.5949753125984668
-497.88268303871155,-3160.0,-5156.0,-15112.0,-266.0,299.0,1159.0,-0.2555697558908487,0.7522437425084607,0.07503219280938322,-0.6026471785157317
-497.89837622642517,-2896.0,-5116.0,-14944.0,25.0,552.0,616.0,-0.22779192649369262,0.7829002613496788,0.02098326760928595,-0.5785652266454785
-497.91408801078796,-2964.0,-4904.0,-14660.0,-416.0,322.0,575.0,-0.17050594596301447,0.806800454234537,-0.0036340539114905527,-0.565674414385493
-497.9297864437103,-3408.0,-5520.0,-14652.0,-45.0,31.0,-726.0,-0.20276425990644448,0.8077763735248217,0.049199565745044464,-0.5513287476725468
-497.9455270767212,-2808.0,-4404.0,-14860.0,-800.0,-356.0,487.0,-0.12092324901817139,0.8040130222407974,0.05948495580784495,-0.5791391611233409
-497.96121978759766,-2440.0,-5492.0,-14696.0,-669.0,512.0,-75.0,-0.08025078890306653,0.8344501101302483,0.09297719376768283,-0.5372225479474394
-497.9769251346588,-3076.0,-5764.0,-14672.0,-848.0,-138.0,113.0,-0.012117719710707046,0.8326160433681995,0.12519694370341794,-0.5393787263901133
-497.99270701408386,-2964.0,-4632.0,-15052.0,-466.0,-249.0,-382.0,0.00638890963791769,0.8160553099648727,0.17494575262246312,-0.5508238344072754
-498.0084505081177,-2440.0,-5240.0,-15204.0,-1083.0,-136.0,-119.0,0.07940611944770352,0.803570991254668,0.23442319536788567,-0.5413077642910339
-498.02414417266846,-3196.0,-4556.0,-14972.0,-18.0,-86.0,-1424.0,0.014925740974687268,0.7644917992478215,0.3320649001607118,-0.5523245542436455
-498.03983974456787,-2768.0,-4288.0,-15344.0,-1158.0,-405.0,-367.0,0.08562163456197605,0.7284391749486032,0.40938980721850154,-0.542628132186981
-498.05555868148804,-2620.0,-5212.0,-15020.0,-247.0,89.0,-1200.0,0.04096332389340582,0.6841313235273263,0.4953149060822611,-0.5338065961348488
-498.0713324546814,-3052.0,-4184.0,-14912.0,-1051.0,-597.0,-47.0,0.126549275204014,0.6470607497410643,0.542053284747935,-0.5210334956448044
-498.08704018592834,-2376.0,-5524.0,-15064.0,-295.0,379.0,-1077.0,0.07576582405768136,0.6069657786935578,0.617336604953451,-0.4947197182085326
-498.10279154777527,-3020.0,-4736.0,-15108.0,-882.0,-455.0,167.0,0.15351576051893126,0.588312398705878,0.6412218084257785,-0.4681410313147141
-498.1184961795807,-2724.0,-5152.0,-14988.0,322.0,285.0,-1157.0,0.0731904443643911,0.5364892460265157,0.6874401341251355,-0.4839922620720906
-498.1341986656189,-3412.0,-2288.0,-15720.0,-1331.0,-915.0,99.0,0.19263044566516602,0.49051788047265676,0.7260829662608473,-0.44168908345724506
-498.149941444397,-1432.0,-6668.0,-15208.0,1.0,1405.0,-914.0,0.06740435321294304,0.48165437522599325,0.7805991625894463,-0.39259478264268616
-498.16564536094666,-3816.0,-3512.0,-14448.0,-296.0,-574.0,367.0,0.13121204093909475,0.4843063255735946,0.7704256455461013,-0.393287564012484
-498.18137645721436,-1604.0,-5580.0,-15316.0,-472.0,890.0,106.0,0.09440515936718703,0.514576880621429,0.7893675682040743,-0.3212431198988732
-498.1970956325531,-3096.0,-5068.0,-14764.0,-459.0,102.0,182.0,0.11280191007825423,0.5257022372505112,0.7942321998770691,-0.2830337427073599
-498.2127912044525,-1904.0,-5640.0,-14748.0,-495.0,600.0,1019.0,0.11808822420049839,0.6025041947821899,0.7609660207790307,-0.20970117261180368
-498.2285885810852,-2580.0,-5592.0,-14512.0,251.0,801.0,727.0,0.06438084067595419,0.6648797001455136,0.7230804359574945,-0.1759112697463955
-498.24432253837585,-3020.0,-5588.0,-14760.0,-158.0,-97.0,292.0,0.08380143807814966,0.6805864765626827,0.7077486535571528,-0.16991530326625734
-498.26002407073975,-2416.0,-5060.0,-15328.0,677.0,861.0,-496.0,-0.01717040328035363,0.6639811187423267,0.7294950802300383,-0.16331313212674645
-498.2757205963135,-2980.0,-1656.0,-15216.0,384.0,253.0,-483.0,-0.062090357904850624,0.6352505203802529,0.7503807230007058,-0.17184392442214416
-498.2914364337921,-1488.0,-5592.0,-16328.0,-2279.0,1158.0,442.0,-0.004982049924940028,0.676739348272294,0.7351993789721063,0.03848255237852248
-498.30716848373413,-2640.0,-7716.0,-14036.0,1185.0,1574.0,928.0,-0.17603919654222053,0.7176374799375745,0.6716509672875878,0.05377384876744697
-498.3228678703308,-2992.0,-5664.0,-13616.0,199.0,95.0,1528.0,-0.1993373680184632,0.796552965871376,0.570252914578117,0.024074876700601364
-498.33855986595154,-2476.0,-5932.0,-14320.0,3703.0,419.0,194.0,-0.4544103490005605,0.7045358193677359,0.5298332712535548,-0.12812969453557205
-498.35428953170776,-2856.0,-568.0,-15928.0,-1398.0,-2149.0,1774.0,-0.24021697000405737,0.7893625404451383,0.5033468017736932,-0.2566019957215089
-498.37002968788147,-196.0,-9104.0,-15772.0,2235.0,4097.0,-233.0,-0.5363652565560639,0.7630625050341613,0.35517849747433405,-0.06241922702511426
-498.38570642471313,-6740.0,1024.0,-14108.0,2145.0,-2304.0,2685.0,-0.557667258404142,0.6898952465429602,0.25633808129133595,-0.3838522707778509
-498.40140676498413,-900.0,-5368.0,-17520.0,-2469.0,649.0,-1905.0,-0.4693434765126205,0.76048610122176,0.4067671894503505,-0.1895205648214385
-498.41711473464966,-548.0,-5600.0,-14556.0,2792.0,3501.0,5181.0,-0.5948681850805044,0.76239095040313,-0.10861988837689945,-0.23042048730837464
-498.43280506134033,-5092.0,-4604.0,-14640.0,723.0,523.0,1065.0,-0.6118833290177177,0.7202045584864155,-0.21960491302273488,-0.24223514976538824
-498.44859051704407,-3424.0,-2784.0,-15164.0,721.0,-420.0,-304.0,-0.6694475315716587,0.6768401882516464,-0.19281616518878603,-0.237800942979585
-498.46429562568665,-1340.0,-5588.0,-16660.0,-1551.0,378.0,1771.0,-0.5233116148700309,0.7300554685528164,-0.2813100320723688,-0.33768125863555265
-498.4799692630768,-1964.0,-6924.0,-14588.0,1295.0,2516.0,1205.0,-0.49099913393501016,0.6911990753532374,-0.49364778538148696,-0.19358603434610902
-498.4956750869751,-3356.0,-4044.0,-13892.0,-553.0,-414.0,3303.0,-0.4023781267779588,0.5427399166282555,-0.6387520922338535,-0.3681317571955585
-498.5113730430603,-1384.0,-8292.0,-14196.0,438.0,2404.0,1353.0,-0.23858557084365803,0.5142636671141797,-0.778549729045354,-0.2692027590402594
-498.5270915031433,-5240.0,-3580.0,-15248.0,2192.0,-564.0,2997.0,-0.2896690905400668,0.23934508803935473,-0.905459472622408,-0.1973547320321327
-498.54282212257385,-4244.0,-464.0,-18284.0,755.0,-863.0,-1813.0,-0.397728535443302,0.3427457498179355,-0.8442243639099707,-0.10780810014406503
-498.558531999588,228.0,-2496.0,-16380.0,-1199.0,2577.0,3281.0,-0.13173175100151943,0.15612492739074182,-0.954400006594184,-0.21769791050520193
-498.57422828674316,-2504.0,-6424.0,-14216.0,550.0,3029.0,4015.0,0.17322653868337512,-0.11620897545815645,-0.9645860832470776,-0.16143645289959926
-498.58999276161194,-4600.0,-4528.0,-14484.0,815.0,0.0,-242.0,0.17739459828727575,-0.08329753449601715,-0.9758976933624425,-0.0960019236017961
-498.6057698726654,-1200.0,-5196.0,-15396.0,-1024.0,1188.0,1220.0,0.2770478458182602,-0.1903049775675636,-0.9263189339089407,-0.17018148936436672
-498.62150526046753,-2492.0,-6772.0,-15332.0,512.0,1081.0,2953.0,0.4014073280381446,-0.3860169792621638,-0.8274221030121874,-0.07235822113264467
-498.6372537612915,-3240.0,-4652.0,-14404.0,279.0,558.0,1239.0,0.45535969346885363,-0.4589391105836597,-0.7624174202399133,-0.027241873198190908
-498.65301418304443,-2852.0,-4832.0,-14536.0,113.0,1010.0,1340.0,0.52440665428518,-0.5355992522231602,-0.6618806711526081,-0.0067140981515441895
-498.6687445640564,-3244.0,-4692.0,-14412.0,-1232.0,-125.0,1195.0,0.45493211362894115,-0.6538808450350725,-0.6043065312932865,-0.01703610053972611
-498.68451046943665,-1956.0,-6780.0,-15344.0,-36.0,544.0,231.0,0.48102514969135807,-0.6659479340502802,-0.5687533668477912,-0.04059263723721141
-498.7001955509186,-2412.0,-4260.0,-15040.0,-709.0,-53.0,872.0,0.4379065678760558,-0.7357761098754232,-0.5153541479116934,-0.03579743255898272
-498.71595907211304,-1856.0,-5228.0,-15536.0,-636.0,713.0,1354.0,0.428645263208945,-0.8104516425839446,-0.3950984502861385,-0.05769391599650592
-498.7316589355469,-2424.0,-4764.0,-15040.0,-513.0,624.0,1670.0,0.41660674401747283,-0.8728467547583021,-0.24783876292880075,-0.0561543510066866
-498.747433423996,-2496.0,-4632.0,-15152.0,-567.0,806.0,1191.0,0.3928711324544488,-0.9071808382091636,-0.12390073898409258,-0.08557924368253052
-498.76316809654236,-2484.0,-4776.0,-15044.0,-684.0,949.0,1659.0,0.35559283026924426,-0.9271597576452802,0.04442046811419283,-0.10934049970971084
-498.7788653373718,-2832.0,-4892.0,-15000.0,-524.0,784.0,710.0,0.3150496129346464,-0.9283742077385219,0.1305622913094509,-0.1477110689272396
-498.79455494880676,-2444.0,-4568.0,-14960.0,-604.0,507.0,155.0,0.2615097376153344,-0.9344707311719312,0.16450506963575973,-0.17696098942843072
-498.81028032302856,-2052.0,-4768.0,-15056.0,-526.0,826.0,526.0,0.21375057766834893,-0.9219215553808562,0.23334516890313992,-0.22343090301065177
-498.8260374069214,-2800.0,-5080.0,-14904.0,-1013.0,673.0,-362.0,0.11078038296261278,-0.9294556218253376,0.2351714679473394,-0.26179063098481065
-498.84174251556396,-2596.0,-4848.0,-14988.0,-747.0,432.0,-998.0,0.018470634687006122,-0.9411492219579555,0.17438508362294486,-0.28894085947129855
-498.85751962661743,-2220.0,-4732.0,-15120.0,-878.0,732.0,-477.0,-0.07623839496422465,-0.9260679335907751,0.15767164268569686,-0.33425370992852793
-498.87324261665344,-2452.0,-4532.0,-15584.0,-707.0,390.0,-472.0,-0.15184946132041988,-0.9135565679080933,0.1371540980551897,-0.3514895328674114
-498.88895058631897,-2072.0,-4348.0,-15344.0,-797.0,484.0,414.0,-0.20748438076938536,-0.8798394848900783,0.18750851525843565,-0.3842827985620531
-498.9047203063965,-2068.0,-4816.0,-15144.0,-901.0,548.0,517.0,-0.2667061018591509,-0.83246285843331,0.24628231784475066,-0.41859104681915527
-498.9204647541046,-2572.0,-4884.0,-15096.0,-791.0,367.0,-42.0,-0.33243822462875633,-0.7993771644365028,0.26290975922995724,-0.4258631638035657
-498.93615436553955,-2228.0,-4652.0,-15228.0,-847.0,435.0,205.0,-0.39227599565175353,-0.7513822241657259,0.29510209152527656,-0.44097511496749986
-498.95184993743896,-2344.0,-4436.0,-15264.0,-895.0,550.0,100.0,-0.45914450542999835,-0.6942326646965626,0.3160480743268063,-0.4553470600718418
-498.9675657749176,-2260.0,-4660.0,-15324.0,-946.0,670.0,232.0,-0.5227554076286224,-0.6201860158805389,0.3391826931712638,-0.4764988878836394
-498.98330998420715,-2472.0,-4384.0,-15212.0,-949.0,461.0,67.0,-0.5823258237009633,-0.5535634903572465,0.3598678954918842,-0.47429863481644075
-498.9989972114563,-1980.0,-4464.0,-15424.0,-1243.0,872.0,482.0,-0.6434506405035386,-0.435150223237261,0.38675613443743057,-0.49702640666987097
-499.01470160484314,-2268.0,-4808.0,-14680.0,-1440.0,922.0,1072.0,-0.6722474098825588,-0.2740235683933902,0.43174212436314113,-0.5353440407079787
-499.0304002761841,-2656.0,-5072.0,-14624.0,-1562.0,611.0,635.0,-0.6943394141374604,-0.1283878238201018,0.4785073115536983,-0.5219579460642768
-499.04615473747253,-2504.0,-4888.0,-15048.0,-2096.0,285.0,385.0,-0.6997972573074249,0.027240857467006618,0.55166573528487,-0.45299740712510883
-499.06186151504517,-2088.0,-4660.0,-15000.0,-2556.0,278.0,429.0,-0.6727527193864903,0.20971110007160368,0.6191216716319746,-0.34657378547788303
-499.07756900787354,-2040.0,-4584.0,-15032.0,-2977.0,518.0,1037.0,-0.5920722278186519,0.4395342968917842,0.6356926513425725,-0.22837454308822133
-499.0932648181915,-2004.0,-4308.0,-15188.0,-3668.0,1013.0,1341.0,-0.45329527276550563,0.6826605760511341,0.5707685509505724,-0.05216507298723096
-499.1089594364166,-1660.0,-4824.0,-15344.0,-5047.0,1459.0,2951.0,-0.18726555931617758,0.9169513808759171,0.3188641805720216,0.14985796526004655
-499.124728679657,-2564.0,-5708.0,-15108.0,-5548.0,864.0,5585.0,0.13134234031937625,0.9475174083182898,-0.17669091870255707,0.2318194767944808
-499.1404688358307,-3192.0,-6156.0,-15980.0,-5571.0,-22.0,3884.0,0.4412348390292996,0.7091122837228959,-0.5255432771942505,0.16209827172432842
-499.15621161460876,-2508.0,-5288.0,-16528.0,-6488.0,453.0,3227.0,0.6906926768089315,0.2576042239086422,-0.6755612507065758,0.014166388767286703
-499.1719515323639,-3648.0,-4932.0,-17296.0,-6643.0,653.0,3214.0,0.7342692949664673,-0.2797420521676762,-0.6020298894619357,-0.14196125849299007
-499.18767070770264,-4884.0,-4664.0,-17336.0,-6652.0,249.0,3363.0,0.524988294268339,-0.7373236101272033,-0.35343266388208766,-0.23627639943807074
-499.20335936546326,-4456.0,-4592.0,-17072.0,-8263.0,-33.0,2083.0,0.028117101578435506,-0.9475949741768281,-0.040554562617933304,-0.31563985959398816
-499.21904850006104,-3956.0,-6104.0,-18356.0,-10069.0,587.0,4955.0,-0.47545086913632484,-0.6952346261567435,0.4627095225297436,-0.27657762633753114
-499.23474073410034,-7028.0,-6112.0,-19852.0,-8726.0,189.0,7750.0,-0.5781348227725445,-0.011004157146776918,0.7957307124062482,-0.18014346659452463
-499.25047540664673,-4368.0,-5668.0,-19596.0,-8257.0,2097.0,4475.0,-0.5062299150234792,0.5738609825231409,0.6311590006306166,0.1267010725915836
-499.26617646217346,-4140.0,-4364.0,-16904.0,-7951.0,2741.0,9413.0,-0.24388444721148944,0.9499995447215717,-0.03306376560673651,0.19216666943321775
-499.28186893463135,-5388.0,-6468.0,-15024.0,-7051.0,3361.0,8335.0,0.1491711588953991,0.7221411313048441,-0.6472605500394644,0.19316814487428696
-499.2975797653198,-4760.0,-8860.0,-13192.0,-3146.0,1924.0,10823.0,0.19352636777024196,0.026411607309785864,-0.9608577791024006,0.19647468110515645
-499.31327962875366,-5760.0,-8272.0,-11600.0,-2498.0,1278.0,7113.0,0.1532281455412611,-0.5275738097227497,-0.8305366914992787,0.09162867881859772
-499.32898688316345,-5628.0,-9564.0,-11680.0,-78.0,-325.0,1349.0,0.11434932063195624,-0.6192955552527993,-0.7677159727912019,0.11836145164873356
-499.3447494506836,-4256.0,-8212.0,-11840.0,1362.0,-1586.0,869.0,0.07128491677734891,-0.635241444283661,-0.7087151897840459,0.2985122239939575
-499.36050271987915,-3868.0,-8632.0,-12252.0,2727.0,-2211.0,159.0,0.07824399752817994,-0.5453179608747385,-0.6143483633897414,0.5648736910129322
-499.37619948387146,-4016.0,-8544.0,-12208.0,4491.0,-3264.0,-1410.0,0.16681397038691217,-0.24895915551628753,-0.43165583694879583,0.8508029599128143
-499.39195489883423,-3904.0,-7900.0,-12216.0,5696.0,-3863.0,-2501.0,0.2786898431351687,0.18101007279073617,-0.1007766204450052,0.937769373382001
-499.40764355659485,-4004.0,-6556.0,-12784.0,7200.0,-4975.0,-4206.0,0.3550679101381966,0.6105859775167175,0.330840049073444,0.6258245801973021
-499.4233510494232,-3496.0,-5728.0,-13564.0,7929.0,-5367.0,-4751.0,0.2536268774422454,0.7402266115062821,0.6221119664988295,-0.026733346138919322
-499.43901801109314,-3492.0,-5536.0,-14548.0,8885.0,-5163.0,-4479.0,-0.03627840296978413,0.48721184254531735,0.555003509120267,-0.6732604271942235
-499.45474100112915,-3216.0,-6040.0,-15208.0,9622.0,-5398.0,-3940.0,-0.29051907163900936,-0.035698535059042566,0.12204299700200343,-0.9483827236360938
-499.4704837799072,-3688.0,-5996.0,-15308.0,10191.0,-5561.0,-3813.0,-0.352392274108019,-0.5437330022887956,-0.4050002192950876,-0.6450960624139032
-499.48617362976074,-3632.0,-5748.0,-14864.0,10325.0,-5748.0,-4544.0,-0.21558930344375482,-0.6873182640586343,-0.6878958657165474,0.08896141895307284
-499.5018537044525,-4048.0,-5168.0,-15408.0,10756.0,-6346.0,-5262.0,0.05794402886187085,-0.33862417236138503,-0.5169250461236786,0.7840692929211386
-499.5175709724426,-3416.0,-4360.0,-15200.0,10591.0,-5939.0,-6269.0,0.3418226532773217,0.25955793150779205,-0.005004941822152548,0.9031953855369309
-499.5332679748535,-4000.0,-4264.0,-16232.0,10998.0,-5652.0,-6070.0,0.3636265344796619,0.6625472250537384,0.5312058288734839,0.3829194241178386
-499.54900574684143,-3680.0,-3888.0,-15872.0,11009.0,-5516.0,-6077.0,0.11896799790832233,0.5859069613881539,0.6890111741456252,-0.40966236094258507
-499.56475830078125,-3660.0,-4264.0,-15904.0,10832.0,-4658.0,-6957.0,-0.25908053937929965,0.07295416597752424,0.3911015431013198,-0.8801105309932505
-499.5805039405823,-4732.0,-4248.0,-16144.0,11394.0,-4624.0,-8414.0,-0.49994845225933954,-0.5041202366384965,-0.1985328217178208,-0.6756471348239385
-499.5963020324707,-4052.0,-3188.0,-15912.0,10408.0,-4094.0,-7269.0,-0.35280032164998465,-0.6996842919332249,-0.6212663448587028,0.0013976449750902212
-499.6120698451996,-3644.0,-4092.0,-16036.0,10350.0,-2465.0,-8277.0,0.09508396243982953,-0.36868949620835234,-0.6797239575943632,0.626899064399229
-499.6278347969055,-4280.0,-3564.0,-14864.0,9512.0,-2049.0,-7524.0,0.47116010371415745,0.18302704963200056,-0.28539901789772293,0.8142829092852709
-499.64353919029236,-4724.0,-4444.0,-14236.0,9052.0,-2032.0,-9051.0,0.6088069497630758,0.6127682969707732,0.27728170779536293,0.4206946240086806
-499.6598970890045,-4608.0,-4592.0,-14116.0,8584.0,-2305.0,-8493.0,0.3525920177076657,0.6463652450582733,0.6301371080357673,-0.2466131872100826
-499.67567014694214,-4004.0,-5096.0,-13556.0,8308.0,-1313.0,-9116.0,-0.1630584597184532,0.2527391247653087,0.6278243764829431,-0.717893742709125
-499.69136452674866,-4632.0,-5160.0,-13324.0,8182.0,-1060.0,-13042.0,-0.6572619125238752,-0.38423764765884755,0.24934150861009657,-0.5984956311879766
-499.70709323883057,-5368.0,-3656.0,-13916.0,8186.0,-2962.0,-7920.0,-0.5105068380083913,-0.8238538669923976,-0.19097902261570224,-0.15548179028136466
-499.72283601760864,-3864.0,-4756.0,-15452.0,7460.0,-2967.0,-13741.0,-0.12257118571686346,-0.5653077334473678,-0.6707581782421753,0.46420570575748016
-499.7385609149933,-328.0,-4496.0,-15116.0,6723.0,1216.0,-11626.0,0.48654294381920005,-0.003909526975175078,-0.6379016706955893,0.5969439990002018
-499.7543089389801,-2564.0,-7072.0,-14660.0,6521.0,840.0,-8565.0,0.7144476231919438,0.5138095449586252,-0.19341201553650933,0.4337696825169986
-499.7700309753418,-3320.0,-7272.0,-13648.0,8133.0,-588.0,-9368.0,0.47076930775692727,0.8146922448230393,0.33754263071486806,-0.026791370800068583
-499.78573751449585,-2020.0,-5812.0,-12916.0,7554.0,-836.0,-5353.0,-0.042317309773953475,0.7496842071623182,0.5173088613150963,-0.41057810076741813
-499.80145382881165,-1520.0,-6468.0,-13804.0,7334.0,-3.0,-5265.0,-0.5582800250111586,0.3808889948046572,0.47061413019572723,-0.5672471487547179
-499.817182302475,-1364.0,-7448.0,-13828.0,6017.0,-261.0,-4846.0,-0.8185637337961148,-0.10277723906741262,0.2874925913346641,-0.48655756367682046
-499.8328802585602,-1516.0,-8436.0,-15300.0,6497.0,-1374.0,-5364.0,-0.7647137879105822,-0.6092750842392742,0.049688167803383504,-0.20378366049567675
-499.84864377975464,-2380.0,-5552.0,-14696.0,6426.0,-1563.0,-3941.0,-0.4034638257032613,-0.8990597574555734,-0.14096012011416742,0.0950722799253993
-499.8643605709076,-3788.0,-2528.0,-14996.0,2877.0,-2087.0,-6724.0,-0.12273265777465744,-0.7501643433342767,-0.4759071168859532,0.44238283059214883
-499.8801097869873,-3216.0,-4592.0,-14048.0,-1984.0,-3835.0,-7786.0,-0.08776239551143493,-0.20344882975078712,-0.8064606113705213,0.5482039929761684
-499.89580273628235,-1780.0,-6252.0,-15312.0,-828.0,-3010.0,-5071.0,-0.06357479700179114,0.26948001627473184,-0.8103487693923962,0.5164045293749664
-499.91151213645935,-2440.0,-4932.0,-14260.0,-2551.0,-1384.0,-2311.0,0.002506517839550153,0.48462378880048024,-0.821429198188623,0.3006452611636902
-499.92723536491394,-1476.0,-6332.0,-14140.0,-3108.0,473.0,1208.0,0.13041082437746152,0.3692851613494153,-0.9153131082319294,0.0939329568954999
-499.942928314209,-2808.0,-5932.0,-14408.0,-4092.0,625.0,4792.0,0.2386297517172987,-0.05710599255988838,-0.9594894531122522,-0.13847287306704403
-499.95867586135864,-5948.0,-4740.0,-13692.0,-6130.0,-1629.0,1284.0,0.07571268592179953,-0.2716788998185315,-0.7949921993361564,-0.5370712872408654
-499.97437953948975,-6620.0,-2676.0,-13420.0,-9051.0,-5028.0,-2875.0,-0.4541887243255836,-0.26821142485702354,-0.34450346537457427,-0.7765903660338401
-499.9901349544525,-5080.0,-5576.0,-11412.0,-13447.0,-1383.0,-5978.0,-0.744891606600247,0.21498565671601627,0.2950918545749913,-0.5584249808043853
-500.0058710575104,-9564.0,-22044.0,-4840.0,-22190.0,-1030.0,-6212.0,-0.26903125990211374,0.6439815348135418,0.6940115770158288,0.17679902426958835
-500.02156114578247,-5752.0,-32752.0,-20116.0,6822.0,-30308.0,18107.0,0.27441748716802833,0.6218204234567607,0.1497039762520641,-0.7180690239822083
-500.03727674484253,10376.0,7028.0,-24868.0,9783.0,-6606.0,-5915.0,-0.35454481922948833,0.23927804233408978,-0.1970584472905067,-0.8821632263735264
-500.05302381515503,2440.0,16692.0,-27936.0,-23466.0,10664.0,5808.0,0.3048134344823655,0.6710466632957535,0.4607380644507181,-0.4944750568076273
-500.0687413215637,-3688.0,-16032.0,-22220.0,-20045.0,1094.0,26392.0,0.8405361165966241,0.40707429875026085,-0.062240685628816836,0.35201654655158576
-500.0844757556915,-3468.0,-20956.0,-9244.0,1038.0,2603.0,1001.0,0.761775260324832,0.3849393948748567,0.12096411390599927,0.5068409989112462
-500.10019159317017,-5908.0,4824.0,-1424.0,-4310.0,-2182.0,5777.0,0.5634229604829755,0.2139258470125278,-0.34141615399185526,0.721266462116451
-500.11595726013184,-8132.0,-4172.0,-13796.0,-12239.0,-4884.0,-3065.0,0.5423111499964633,0.006967504112843521,-0.8368773021712687,0.07407058516367915
-500.13167357444763,-5212.0,-6016.0,-19700.0,-6770.0,-6378.0,3531.0,0.04341563084873521,-0.40028433918514233,-0.894543024219051,-0.19411416388855984
-500.14737725257874,480.0,-5520.0,-17712.0,-5944.0,605.0,3649.0,-0.047065695514715726,-0.5952408725817667,-0.5667724797203197,-0.567663703389157
-500.1631164550781,-60.0,-5296.0,-13388.0,-5471.0,5589.0,12241.0,0.3417012406927811,-0.5583517690297117,0.1964274816574361,-0.7299998688904835
-500.17881512641907,-5968.0,-9828.0,-11748.0,-7870.0,2866.0,8625.0,0.3163756980572855,-0.31920983875609604,0.8304023728972599,-0.3293074484530717
-500.19450640678406,-8124.0,-8916.0,-12228.0,-6920.0,-973.0,620.0,0.18077181885457516,-0.42059971576455124,0.8696515966236521,0.18472555074141775
-500.2102029323578,-4956.0,-8112.0,-13032.0,-8340.0,-2147.0,-2218.0,0.05801178502782052,-0.54197604019668,0.4897528876787838,0.6804694803302389
-500.22590613365173,-4676.0,-4420.0,-15976.0,-4204.0,-2705.0,600.0,-0.055645055031293265,-0.34537100811636073,0.2333662026292,0.9072831476852637
-500.2415964603424,-2232.0,572.0,-15872.0,-5871.0,444.0,3375.0,-0.4378340123863989,-0.243987397106657,-0.11336557547727555,0.8578576653195165
-500.25735092163086,-3168.0,-5508.0,-15400.0,-5774.0,2566.0,6424.0,-0.7987976297159546,-0.21947542276971346,-0.3986255226851518,0.3935105820994115
-500.273060798645,-6616.0,-6996.0,-13384.0,-5954.0,739.0,2800.0,-0.851245510427766,0.0629953021531075,-0.5205948945204394,-0.019840077682905903
-500.2887511253357,-5068.0,-7788.0,-13440.0,-6456.0,-699.0,322.0,-0.7365073619145537,0.45823603326726914,-0.39964628045291495,-0.29641102236808453
-500.3044743537903,-6164.0,-3776.0,-14776.0,-5618.0,-2082.0,-2523.0,-0.5649810040941093,0.7424548951348517,-0.017237475018442215,-0.35952755549206084
-500.32019090652466,-2148.0,-2844.0,-16320.0,-5571.0,-527.0,292.0,-0.17559199945182283,0.8985858440967948,0.14785106883280083,-0.3739665653001083
-500.3359534740448,-1492.0,-1684.0,-16300.0,-4473.0,1807.0,7644.0,0.3151386139093785,0.8831186587512031,-0.26161865875509743,-0.22878978556730944
-500.3516891002655,-3880.0,-4924.0,-14896.0,-4716.0,2504.0,7466.0,0.6904579218138128,0.49412785469189374,-0.5260877473590114,0.04834463259616967
-500.3674201965332,-7780.0,-6200.0,-13532.0,-5115.0,371.0,2953.0,0.8134180027311466,0.04336423959693977,-0.580023468622866,0.006593284746660618
-500.38315629959106,-7040.0,-4748.0,-13740.0,-4914.0,-767.0,-643.0,0.7268226429891279,-0.2497128244388389,-0.5817759989750244,-0.26628750996937295
-500.3988494873047,-5024.0,-3480.0,-14876.0,-4826.0,-9.0,663.0,0.5856909585670808,-0.5428381917848912,-0.41956904786874305,-0.4315722565955789
-500.41455459594727,-5796.0,-3148.0,-14824.0,-4642.0,-138.0,905.0,0.3647829155380772,-0.7566650148106081,-0.19314796206864965,-0.5070358415752575
-500.4302442073822,-5008.0,-2692.0,-15268.0,-4241.0,-31.0,165.0,0.08571567120771764,-0.8402130570536698,0.004158969787925343,-0.5354227726164067
-500.4460074901581,-3996.0,-3072.0,-15472.0,-3894.0,582.0,1088.0,-0.14051524513893004,-0.7930351452391499,0.25460125669861877,-0.5352839661213019
-500.46174478530884,-4176.0,-2996.0,-15644.0,-3377.0,420.0,305.0,-0.3538205923554659,-0.6951378766327326,0.4105491847863054,-0.4722750128548651
-500.47749185562134,-3896.0,-3220.0,-15220.0,-3359.0,270.0,1561.0,-0.4782649140090362,-0.49894580476906975,0.6045326327046728,-0.3960505673855697
-500.4932279586792,-4668.0,-3020.0,-15060.0,-3327.0,179.0,179.0,-0.6012172590852418,-0.330795651721311,0.6913144882369875,-0.22626604370504688
-500.5089294910431,-4768.0,-3052.0,-15232.0,-3217.0,-123.0,-555.0,-0.6706790147306791,-0.1903774330466756,0.7169001390659713,0.0005317834478555185
-500.5246272087097,-4312.0,-2564.0,-15276.0,-3343.0,72.0,724.0,-0.7000099223879915,0.04845061269274903,0.694482564589849,0.15916222594812265
-500.54034781455994,-4744.0,-2464.0,-15268.0,-3062.0,208.0,487.0,-0.6816195887186223,0.25305395374660905,0.6151839630273351,0.3048067000612811
-500.5560784339905,-3672.0,-2332.0,-15208.0,-2810.0,970.0,2382.0,-0.697312894740881,0.49575150259684836,0.4083568177473288,0.31816644056269494
-500.5718295574188,-5272.0,-2084.0,-15616.0,-2568.0,394.0,968.0,-0.6093670394265249,0.6568393258646117,0.2636687650502483,0.35736912792678555
-500.58755564689636,-3580.0,-3204.0,-15252.0,-2280.0,2138.0,3526.0,-0.589752642191024,0.7331914711791638,-0.11397171662382695,0.31879858128394745
-500.6033434867859,-6204.0,-2384.0,-14908.0,-2797.0,1549.0,2057.0,-0.42941145329853125,0.7723207435199096,-0.38270507790835906,0.26956130332088496
-500.61905121803284,-5844.0,-3736.0,-14080.0,-2393.0,-76.0,95.0,-0.2669799396360759,0.8424330415499436,-0.4332943734535198,0.17687359404487185
-500.6348006725311,-4632.0,-1608.0,-15352.0,-2928.0,-768.0,-64.0,-0.076982695240929,0.8942275483956377,-0.4408168996916019,0.010545959892488752
-500.65055298805237,-4124.0,-1992.0,-15920.0,-2508.0,900.0,1376.0,0.1470454058093034,0.8293708335007623,-0.5384468568369261,-0.024426451462773082
-500.6663107872009,-4924.0,-1396.0,-15532.0,-1777.0,-293.0,-239.0,0.25787851063249184,0.8071556207851923,-0.5147064017592891,-0.1306743952610608
-500.68204259872437,-3184.0,-1300.0,-15556.0,-2175.0,1080.0,2516.0,0.46677022193960693,0.6290094184879015,-0.6149043015007718,-0.09146262274727278
-500.69774746894836,-6144.0,-2300.0,-15284.0,-679.0,-106.0,2238.0,0.5055203765728953,0.4708036400726141,-0.7218407365315404,-0.041701707969555045
-500.7134521007538,-4832.0,-2096.0,-14400.0,-2001.0,-128.0,2701.0,0.5653978519828395,0.20340790775508538,-0.7976715872255754,-0.05167718034994361
-500.7291543483734,-5280.0,-1472.0,-16100.0,-900.0,-568.0,-445.0,0.5368537817621335,0.18651776554015317,-0.8098108390410399,-0.1456212385514237
-500.74488830566406,-3592.0,-956.0,-14724.0,-1118.0,517.0,2293.0,0.6050761305472577,-0.02077396075223635,-0.7888018605446506,-0.10603274776181207
-500.7606394290924,-5456.0,-1572.0,-14888.0,-1593.0,-279.0,118.0,0.5780774483122493,-0.11447837368816853,-0.7809825435689505,-0.2068512324137397
-500.7763481140137,-4312.0,-1908.0,-15884.0,-1413.0,747.0,683.0,0.6199028109487409,-0.2164046260964989,-0.7031258194767225,-0.27295352125787187
-500.79208278656006,-5536.0,-2048.0,-15196.0,-1137.0,-380.0,-1026.0,0.5453222158407964,-0.22199160063305373,-0.7094674460462083,-0.38729749955238435
-500.80782079696655,-4516.0,-1104.0,-15060.0,-208.0,-712.0,-1464.0,0.44299896685907625,-0.16369209433441748,-0.7571470259880634,-0.45131496169707686
-500.82349967956543,-3236.0,232.0,-15536.0,-1328.0,449.0,2008.0,0.5208449338578754,-0.3227735985698965,-0.6444700364576851,-0.4573796355862978
-500.8392050266266,-4872.0,-1868.0,-15620.0,-443.0,751.0,163.0,0.5553030580339302,-0.3212491794697037,-0.5865011179540758,-0.4944228120413005
-500.85491013526917,-4456.0,-1768.0,-15068.0,-810.0,119.0,316.0,0.5505640142766697,-0.37058389278808024,-0.5355527404848669,-0.5222356812290218
-500.87065601348877,-4692.0,-1272.0,-15160.0,-683.0,-71.0,-232.0,0.5134143755860322,-0.3951460790102455,-0.5144970323749594,-0.5617455463657842
-500.88636207580566,-4124.0,-764.0,-14868.0,-344.0,304.0,1142.0,0.5677920604915321,-0.4445279351117084,-0.4422750853801622,-0.5332915148397462
-500.9020628929138,-4648.0,-1576.0,-15072.0,-650.0,526.0,1632.0,0.6306921190158806,-0.5089698126428257,-0.31873310085877693,-0.4915143855946987
-500.9178259372711,-5596.0,-2812.0,-15164.0,-664.0,-219.0,-892.0,0.5540310553846471,-0.5277641316163887,-0.3403216869331089,-0.546530658290618
-500.9335331916809,-3940.0,-1488.0,-15796.0,-860.0,-264.0,-8.0,0.5045184208978226,-0.5801360843590142,-0.3115728008104449,-0.558413535289478
-500.9492428302765,-4660.0,-684.0,-15484.0,-507.0,29.0,23.0,0.48016496485338067,-0.6012987920132941,-0.28422775312420634,-0.5719230311892243
-500.9649758338928,-4680.0,-972.0,-15376.0,-482.0,110.0,496.0,0.48134721981493783,-0.6273624488492213,-0.2291703084709749,-0.5676285594168571
-500.980740070343,-4548.0,-1292.0,-14924.0,-397.0,336.0,420.0,0.48620805765664343,-0.6349489991418212,-0.17213663954239164,-0.5751612560713789
-500.99646759033203,-5104.0,-1312.0,-15168.0,-570.0,76.0,-331.0,0.43831769035534945,-0.6494949539189944,-0.15838468972690478,-0.6007896447305224
-501.01216554641724,-4712.0,-1396.0,-15540.0,-461.0,194.0,1.0,0.4144376282717777,-0.656581793434308,-0.12662290008111798,-0.6173398107834117
-501.027871131897,-4568.0,-1432.0,-15132.0,-436.0,659.0,32.0,0.39743997591423535,-0.6359300260225887,-0.07727534282014047,-0.6570106459869821
-501.0435588359833,-5228.0,-1608.0,-14764.0,-846.0,215.0,-712.0,0.3095598035115337,-0.6452716139113085,-0.06049994970786963,-0.6957995605169216
-501.05933928489685,-4064.0,-896.0,-14560.0,-807.0,67.0,-100.0,0.2576866274182557,-0.661041067609613,-0.015262509466911362,-0.7045490506615705
-501.0750458240509,-3892.0,-1648.0,-15288.0,-984.0,559.0,790.0,0.2484092273459407,-0.6454235642321876,0.102686828803507,-0.7149662185680462
-501.0907862186432,-5212.0,-2044.0,-15712.0,-1078.0,147.0,-393.0,0.16101501027520201,-0.6600014113599871,0.15033745720478478,-0.7182415696895447
-501.1065294742584,-4356.0,-956.0,-15224.0,-1074.0,-25.0,179.0,0.11019341336525111,-0.6714914149636387,0.2266867044924127,-0.69682840734819
-501.1222252845764,-3984.0,-1096.0,-14696.0,-1305.0,586.0,1165.0,0.09179619257233469,-0.6175940128088574,0.3752334160985016,-0.6850919484382549
-501.13791942596436,-5596.0,-588.0,-15124.0,-1115.0,169.0,425.0,0.051317316863516024,-0.5993386202922408,0.46375227060294155,-0.6504564418366064
-501.1536133289337,-3548.0,-1508.0,-15728.0,-1076.0,1080.0,1726.0,0.048372395497246735,-0.4638549789164071,0.6079499352010865,-0.6425694874309797
-501.16938281059265,-4724.0,-196.0,-14816.0,-773.0,452.0,596.0,0.026450845645821293,-0.40842574440321716,0.6745513072084475,-0.614385300944508
-501.1850600242615,-3492.0,-76.0,-14888.0,-1085.0,807.0,3011.0,0.09777685005679627,-0.1830276541226736,0.8091756732528282,-0.5497047345940853
-501.20078229904175,-5116.0,-2020.0,-15064.0,-2341.0,-606.0,2218.0,0.20151441773625886,-0.07250432149584134,0.9150593909715115,-0.34176215970129087
-501.21661353111267,-5236.0,-2496.0,-17088.0,-2339.0,-1144.0,-629.0,0.25243934376959676,-0.19273510875822752,0.9355760522040777,-0.1543535102009761
-501.2323215007782,-4388.0,-1376.0,-15100.0,-1300.0,-283.0,2023.0,0.2746658239486249,-0.0587128581028504,0.9597446285672326,0.0013165805567866681
-501.248024225235,-5176.0,1176.0,-14900.0,-1906.0,-1190.0,-508.0,0.3571926339203334,-0.14389547900420427,0.9102870488430224,0.15193749406866625
-501.2637617588043,-3440.0,-168.0,-15256.0,-998.0,282.0,2760.0,0.2764098185021002,0.03918315950447108,0.9109619699085881,0.303661952880416
-501.27946949005127,-5188.0,-404.0,-15088.0,-1404.0,-465.0,-388.0,0.3254923769523892,-0.013138895215571841,0.85643427780217,0.40050269635031627
-501.2951591014862,-4716.0,-180.0,-16316.0,-891.0,-43.0,483.0,0.3094909358622922,-0.0008919454136121941,0.8215966296232899,0.4787416247247696
-501.31087732315063,-4144.0,-452.0,-15644.0,-967.0,298.0,1272.0,0.23250568522297202,0.05118045809630179,0.7817247254732466,0.5763923322111653
-501.3265700340271,-5536.0,-1172.0,-14872.0,-1322.0,-354.0,-116.0,0.2664941965382096,0.03394570452237931,0.7037457792282309,0.6577008518881389
-501.3422601222992,-4532.0,-344.0,-16588.0,-804.0,-468.0,-353.0,0.3166637431256942,0.020305219881333263,0.6455769577276109,0.69465254875107
-501.35805892944336,-4196.0,-604.0,-14720.0,-928.0,288.0,925.0,0.2443154826344053,0.02905631042723429,0.5918600606141617,0.7675723708024376
-501.3737647533417,-5488.0,-500.0,-15124.0,-950.0,-924.0,-662.0,0.33601280532805566,0.0361229895023679,0.5062588552848024,0.7934056312698463
-501.38949751853943,-3912.0,-60.0,-15644.0,-769.0,-189.0,191.0,0.33270629042523064,0.03495875895207086,0.4460358284621693,0.8301424270642235
-501.40522718429565,-5276.0,540.0,-15544.0,-586.0,-619.0,-97.0,0.3645958959307716,0.058771191800538115,0.38512388636495765,0.8457513652580961
-501.42094469070435,-4804.0,-312.0,-16028.0,-98.0,-286.0,-141.0,0.38495124247952067,0.07192626824763618,0.36965635225087,0.8426110218185038
-501.43671107292175,-4288.0,-548.0,-15672.0,52.0,110.0,423.0,0.3497068725617279,0.07911934314710649,0.3745452368679668,0.85507958598167
-501.45242381095886,-4928.0,228.0,-15312.0,484.0,-350.0,-118.0,0.36609088670133444,0.11592909653587027,0.40052541423927035,0.8319358748119163
-501.46816182136536,-4060.0,1208.0,-15428.0,651.0,-32.0,1452.0,0.25276615195808044,0.18798978996381735,0.42826013674763536,0.84697247096146
-501.48385977745056,-5088.0,-464.0,-15024.0,1005.0,-43.0,423.0,0.20570100699829316,0.22811300428913653,0.49270600294363315,0.8141820113815958
-501.4995732307434,-5624.0,-216.0,-15164.0,687.0,-569.0,-504.0,0.2513185765591633,0.25817961175010795,0.5394487350479048,0.7610370052816451
-501.51533365249634,-5272.0,240.0,-15080.0,1024.0,-1263.0,-1633.0,0.38837384560149096,0.2820097933963474,0.6046800219201548,0.6356086087931
-501.5310266017914,-3464.0,-512.0,-16072.0,1712.0,-783.0,127.0,0.37537187168441444,0.38501889510275983,0.6612841658525659,0.5230293111811857
-501.54671335220337,-4128.0,-392.0,-15992.0,1877.0,-324.0,543.0,0.3016414350732072,0.48546479256112124,0.7077752111238949,0.41519950668213645
-501.5624122619629,-5588.0,-1072.0,-15056.0,2129.0,-560.0,-1109.0,0.2797321298550648,0.48226999792214026,0.7989933549129693,0.2253335381958172
-501.5781443119049,-4676.0,-44.0,-14928.0,2216.0,-1513.0,-1300.0,0.3071505737954114,0.4601308810321542,0.8326817394895086,-0.024066949504447238
-501.59401988983154,-4652.0,460.0,-15488.0,2757.0,-1124.0,-505.0,0.26762162731186145,0.4786434478079792,0.7901482844175085,-0.2737604849088149
-501.609747171402,-4692.0,-500.0,-15568.0,3308.0,-860.0,-258.0,0.1747645393028436,0.49594920089770533,0.6725138535405171,-0.5207848526284885
-501.6254587173462,-5168.0,-392.0,-15464.0,3669.0,-1243.0,-478.0,0.06359224261738175,0.44256950827977476,0.4805620942630645,-0.7544192008276221
-501.64121675491333,-4632.0,-1040.0,-15380.0,3716.0,-1048.0,75.0,-0.029395835305139076,0.3767513431152291,0.21548864979494103,-0.9004215413555682
-501.6569492816925,-4952.0,-1132.0,-15732.0,3891.0,-2429.0,-1345.0,-0.20057131459524408,0.1392809147681376,-0.0366129066932641,-0.9690363613437611
-501.67271542549133,-3572.0,-964.0,-15476.0,4097.0,-1842.0,411.0,-0.206113530760987,-0.08298613774986013,-0.3311397559980519,-0.9170479678709023
-501.6884684562683,-5596.0,-1140.0,-14672.0,4426.0,-1966.0,79.0,-0.20685433441209786,-0.29667971331409276,-0.5983991552322556,-0.7149201934902374
-501.70417380332947,-5476.0,-1788.0,-15140.0,5065.0,-2309.0,-1097.0,-0.23723131464957062,-0.42555615079793047,-0.8076802872381571,-0.3320780322071509
-501.7199399471283,-4944.0,-1168.0,-15204.0,5352.0,-1442.0,438.0,-0.11456212968053432,-0.5478685789520801,-0.8247236004328804,0.08091057736239002
-501.73564314842224,-5864.0,-1408.0,-15052.0,5639.0,-1474.0,-46.0,0.043864046037272834,-0.526251060220255,-0.688331403822537,0.49732850872837897
-501.75136971473694,-5164.0,-1080.0,-14852.0,5965.0,-590.0,1288.0,0.1995940007827706,-0.48969973787150495,-0.32863146929690895,0.7825329123863491
-501.76710081100464,-6692.0,-2324.0,-14348.0,6056.0,-372.0,1013.0,0.3334784827077145,-0.3419950250677907,0.10715160151452306,0.8719805265559056
-501.7828106880188,-6488.0,-2144.0,-14572.0,6064.0,-795.0,-937.0,0.5219492463221753,-0.10040686421977867,0.4553947821543716,0.7142149804280475
-501.7985146045685,-5004.0,-2996.0,-15052.0,5902.0,-132.0,660.0,0.4773813471930004,0.1799524164999899,0.730848619118656,0.4534142400502701
-501.8142213821411,-6152.0,-3260.0,-15308.0,6025.0,-782.0,-561.0,0.40135005259788803,0.37604770557404466,0.8346524400614401,0.02935238851700822
-501.8299186229706,-5220.0,-2984.0,-14964.0,5810.0,-216.0,364.0,0.20076724268528498,0.5406831958536045,0.7399593167031321,-0.3461421754284134
-501.84562969207764,-7304.0,-3500.0,-14380.0,6371.0,-487.0,-1388.0,-0.09591779801808437,0.47603521447691544,0.5251651082630253,-0.6988503843201092
-501.8614385128021,-5672.0,-2636.0,-14904.0,6485.0,-93.0,-781.0,-0.3550035351565707,0.33058672200846384,0.14167303135188325,-0.8629099961442124
-501.877158164978,-5296.0,-3716.0,-14188.0,6542.0,557.0,529.0,-0.4428267368803369,0.15320613484863985,-0.33237774626933386,-0.8185092517092103
-501.8928918838501,-6740.0,-4244.0,-14532.0,6601.0,-176.0,-518.0,-0.49624107631484254,-0.08585331393384306,-0.684209651912477,-0.5274762126335847
-501.9086275100708,-5468.0,-4624.0,-13788.0,6521.0,164.0,697.0,-0.3518265491466097,-0.349052371596463,-0.856036600745442,-0.14690765597021058
-501.9243280887604,-6156.0,-4524.0,-14556.0,6369.0,635.0,-555.0,-0.10233968529686668,-0.4316835901213863,-0.8496519098589783,0.2850745497343453
-501.94007658958435,-5812.0,-4524.0,-13132.0,6493.0,866.0,-733.0,0.19475654780325616,-0.3961389566875131,-0.6272771805587123,0.641612930693108
-501.95583295822144,-6280.0,-5332.0,-13216.0,5704.0,336.0,-795.0,0.4061753587106597,-0.24536829828959522,-0.2946462202879476,0.8294574015829632
-501.97158694267273,-6264.0,-5004.0,-14584.0,6229.0,433.0,-2340.0,0.6223558787886184,0.0034372476337264156,0.10484416961940932,0.7756732853223498
-501.9873118400574,-5188.0,-5044.0,-13752.0,5823.0,448.0,-1453.0,0.6329264732556401,0.24414438117005974,0.4638128131103286,0.569802838699448
-502.0030164718628,-5352.0,-5716.0,-13580.0,4904.0,416.0,-664.0,0.49961323749649256,0.42885180928246,0.6835674936944952,0.31497336420348343
-502.01872277259827,-6888.0,-5828.0,-14320.0,5609.0,437.0,-2832.0,0.2990892951167362,0.4315000241424705,0.8437823465497029,-0.11128645183803088
-502.03441882133484,-4108.0,-5880.0,-13944.0,5216.0,735.0,-276.0,0.04140995903073316,0.5035775504411086,0.7473421711960505,-0.43147948402766384
-502.05020356178284,-6268.0,-5860.0,-13560.0,5024.0,955.0,-984.0,-0.25369075636487926,0.44942965315412603,0.5508238691227979,-0.6559322009212296
-502.0659296512604,-5940.0,-6152.0,-13316.0,4976.0,350.0,-1888.0,-0.5200754998614533,0.24368004228602294,0.30143367542998484,-0.7611039684248874
-502.08165764808655,-5232.0,-5892.0,-13784.0,5306.0,121.0,-1470.0,-0.6613020940193852,-0.02478488977333807,-0.022563707897411574,-0.7493704883236462
-502.09739875793457,-4616.0,-5876.0,-14552.0,5603.0,186.0,-987.0,-0.6389455323839824,-0.298887229534768,-0.35989185095261944,-0.6106495609475845
-502.11311197280884,-4172.0,-6064.0,-14672.0,6238.0,731.0,57.0,-0.39470655194296844,-0.5345274127241268,-0.641714112086054,-0.3830015420978758
-502.12882113456726,-4792.0,-6376.0,-15564.0,6767.0,557.0,-18.0,-0.041543235513853076,-0.6434803115487565,-0.7639233965713782,-0.025065761568416924
-502.1446237564087,-3532.0,-4552.0,-15552.0,7500.0,3510.0,5477.0,0.47286567596826395,-0.7769791992749353,-0.3668787526192618,0.19519568965961245
-502.1603374481201,-5724.0,-7380.0,-14904.0,7973.0,2029.0,4847.0,0.764909804824621,-0.4901044882620499,0.13929110471206274,0.3940920821542186
-502.1760311126709,-4548.0,-6924.0,-14208.0,8109.0,2719.0,7907.0,0.5657560021809773,0.03749657951911138,0.6577751974143567,0.49582854111786345
-502.1918091773987,-7932.0,-9344.0,-12760.0,7787.0,3110.0,3215.0,0.17519035365113272,0.3713326970551276,0.8956085109604381,0.17118926128873432
-502.20752692222595,-10240.0,-12324.0,-13384.0,9801.0,-3246.0,-5779.0,0.13746237191477523,0.08201506078392853,0.8205868844202985,-0.5486481488436468
-502.2232356071472,-2584.0,-9588.0,-16128.0,7905.0,161.0,-437.0,0.03979900797080429,0.1260995376880071,0.36812054902163666,-0.9203272281897453
-502.23894143104553,-4160.0,-10636.0,-16016.0,8795.0,-432.0,4137.0,0.2204373491993125,0.1943683296852123,-0.2934716037831363,-0.9096717788665946
-502.2546720504761,-4572.0,-13060.0,-17228.0,12375.0,-1.0,-770.0,-0.03444907316544717,0.30697837108968823,-0.8570944456759043,-0.4122701204703991
-502.2704210281372,-2848.0,-7988.0,-16136.0,16914.0,-1448.0,5185.0,-0.22202598840717225,-0.09965151405388853,-0.8678189842196005,0.4332023162988011
-502.28615951538086,-3676.0,-5328.0,-15476.0,18958.0,-1705.0,492.0,-0.10560688957960807,-0.22680207870922675,-0.058821244022727495,0.9664098836508829
-502.301913022995,-3332.0,5056.0,-17860.0,14530.0,-2263.0,-5097.0,0.3558465262403039,-0.08538512838321635,0.6442506550116758,0.6715829979464321
-502.3176143169403,-572.0,10356.0,-20144.0,3986.0,946.0,1922.0,0.2042270580055421,0.08465321348830063,0.8572646473783961,0.4649972758841703
-502.3333923816681,216.0,5964.0,-29388.0,5046.0,15104.0,-18422.0,-0.09178371225626429,-0.7733890438965138,0.6248256090733498,-0.05511891863428561
-502.3491144180298,-8148.0,12020.0,-15532.0,-9721.0,16054.0,-26041.0,-0.5878733477527194,-0.6852430997070761,-0.4083937641013314,-0.13439253978177057
-502.36483573913574,-6876.0,-2112.0,-16268.0,-8452.0,-4440.0,15729.0,-0.5640509943660619,-0.45700530005635576,0.45413262933037724,-0.5164844493811358
-502.38063311576843,-3020.0,332.0,-16348.0,-8265.0,-2105.0,10063.0,-0.23380053288859254,0.16631249076191318,0.873368636018504,-0.3935793336250731
-502.396359205246,-988.0,-1408.0,-16152.0,-14054.0,7039.0,7023.0,-0.18002101509508947,0.681541420638254,0.615364548635082,0.3527324742090891
-502.4121060371399,-5132.0,-7980.0,-15252.0,-12309.0,486.0,14577.0,0.03980148151733624,0.8456782809047881,-0.32854301489352444,0.4186926971414965
-502.42780089378357,-4424.0,-4816.0,-18164.0,-10024.0,-784.0,9096.0,0.27408469297685123,0.37358239843866814,-0.8835966540207151,0.06760714204870702
-502.4435040950775,-1556.0,-264.0,-17616.0,-14709.0,6911.0,6264.0,0.6866873295224638,-0.27593516491279246,-0.5548235057108525,-0.38011994652816733
-502.4592082500458,-4344.0,-8056.0,-16820.0,-15745.0,6784.0,6527.0,0.4515824328568551,-0.6943745703818089,0.28137612839273096,-0.48450463022852486
-502.4749159812927,-6212.0,-6428.0,-14888.0,-13759.0,6215.0,1168.0,-0.29289822599996357,-0.5703606543026607,0.7113827353635865,-0.287808889814294
-502.49066185951233,-5036.0,-2748.0,-14300.0,-16283.0,4396.0,5499.0,-0.6717147778174073,0.1615077192974,0.6955076736949962,0.19744262381876432
-502.50636887550354,-2240.0,-6044.0,-15868.0,-18027.0,6586.0,1716.0,-0.4328140718228483,0.6180113851616587,-0.012885480667495784,0.6561767074734228
-502.5220866203308,-2540.0,-7632.0,-15876.0,-17236.0,6657.0,2420.0,0.19154209699836353,0.46373349741419545,-0.7238399524208553,0.4736228370051868
-502.53783679008484,-3588.0,-6880.0,-16592.0,-15961.0,5235.0,2037.0,0.6076835810926018,-0.08304675272337841,-0.7730359876333421,-0.1619853819216927
-502.5535454750061,-1600.0,-5744.0,-16060.0,-16743.0,6990.0,3471.0,0.5307256638629017,-0.583262210008864,-0.07415036182983951,-0.6104401591748058
-502.5692672729492,-4012.0,-7524.0,-15332.0,-15995.0,5686.0,5996.0,0.03906251904484284,-0.5692429155186624,0.7229928277353963,-0.3895099405417787
-502.58504271507263,-5708.0,-5372.0,-14384.0,-14758.0,3966.0,2480.0,-0.5115285079415155,-0.19527422552882304,0.8099510135240016,0.21020446736139553
-502.60083651542664,-4552.0,-3260.0,-15064.0,-15408.0,4757.0,1803.0,-0.6595188633221054,0.30733842967479424,0.19948161272326517,0.6563421704817352
-502.6166388988495,-4492.0,-4960.0,-15504.0,-14132.0,5219.0,4474.0,-0.3697124227013049,0.5301932916657969,-0.6070389349695483,0.4622894433187453
-502.6323609352112,-3692.0,-6068.0,-15884.0,-12111.0,6458.0,7117.0,0.14627888407819256,0.16879236463313696,-0.9725221286437604,-0.06566837147822295
-502.64810490608215,-3816.0,-6428.0,-14736.0,-11006.0,7454.0,9082.0,0.5758125833730573,-0.40586788117045347,-0.5498144720537022,-0.44879302376904373
-502.66380524635315,-5440.0,-8632.0,-13568.0,-9556.0,7151.0,7292.0,0.5488051650792145,-0.6059087123445108,0.28018074175981617,-0.5031761868712712
-502.6795349121094,-5476.0,-9692.0,-12348.0,-8132.0,5900.0,4518.0,0.12465223382210765,-0.4512255941571168,0.8353600391569049,-0.2881508090574962
-502.6953139305115,-5552.0,-9644.0,-11516.0,-6542.0,4690.0,2614.0,-0.32892868393064856,-0.17196492105466668,0.9281941103867153,0.026261764177753808
-502.7110185623169,-7308.0,-9148.0,-10600.0,-4912.0,2446.0,-714.0,-0.5394243896376661,-0.08498314539773248,0.7529083448567548,0.36732576428478425
-502.72672867774963,-7472.0,-9632.0,-9996.0,-3212.0,410.0,-2097.0,-0.4955432065982615,-0.08026912917209421,0.5830278223816305,0.6388054129585944
-502.74245166778564,-6992.0,-7996.0,-11416.0,-725.0,-1163.0,-3559.0,-0.2304588312916204,-0.15677914747745,0.5390107615227294,0.7948436481212087
-502.7581696510315,-5224.0,-7360.0,-11656.0,1969.0,-674.0,-387.0,-0.14243448643673237,-0.16518416604380345,0.6726026575643232,0.707129601557824
-502.77390718460083,-5508.0,-6988.0,-12224.0,4687.0,-138.0,-217.0,-0.049271105251687076,-0.21077475691280192,0.8888313684161144,0.4038875568214054
-502.7895863056183,-5004.0,-4616.0,-13660.0,6644.0,-731.0,-593.0,0.13002387677372265,-0.22402671345713573,0.962330028773604,-0.08262408151937616
-502.8052706718445,-3020.0,-4212.0,-14324.0,5861.0,3723.0,-1711.0,-0.06819421512334461,-0.2327578180364137,0.7878530035736524,-0.5660927414537419
-502.8209617137909,-5424.0,-7980.0,-14184.0,4048.0,1183.0,-1433.0,-0.12855894608174853,-0.27672897451119305,0.5144730850244409,-0.8013807564658438
-502.83670592308044,-4844.0,-6800.0,-16308.0,7104.0,994.0,-5107.0,-0.2844427508759496,-0.40937973288893065,-0.09242180844557453,-0.8619505583834607
-502.8524544239044,-2980.0,-6640.0,-16044.0,5700.0,4421.0,-11159.0,-0.5776637433566648,-0.08394035481086135,-0.67243666871623,-0.4550687233937431
-502.8681652545929,-3028.0,-6576.0,-16296.0,4042.0,5637.0,-14086.0,-0.4577257391256731,0.4496514376638863,-0.7194315674840558,0.26593035188953307
-502.8838789463043,-3744.0,-8476.0,-14428.0,2433.0,7958.0,-23818.0,0.20647977000490406,0.6878021546101964,-0.01921610163723799,0.6956472109698714
-502.89957427978516,-4676.0,-11408.0,-13380.0,2679.0,8126.0,-23695.0,0.6201266136526323,0.11698962737952638,0.7088989221928746,0.31499004466665115
-502.9152886867523,-6736.0,-10880.0,-17304.0,12247.0,-3508.0,-5324.0,0.5481219954340624,0.349135191447401,0.5812649570534608,-0.48969168454856044
-502.93100094795227,-3424.0,1168.0,-19048.0,11489.0,-10871.0,3933.0,0.5277274630399703,0.364559284239462,-0.31596152073186096,-0.6991198541344807
-502.9466965198517,1928.0,76.0,-18460.0,2704.0,956.0,-8391.0,-0.03475964939635055,0.6160325043672292,-0.13457451518519253,-0.77536147711861
-502.9623668193817,436.0,-4128.0,-17100.0,1624.0,4903.0,-2521.0,-0.21012877354886722,0.8693806747430324,-0.11064616703879653,-0.4333365512275896
-502.9780776500702,-3468.0,-7880.0,-14572.0,4017.0,1282.0,1004.0,-0.43452537707296846,0.7806545997534475,-0.33872227451727427,-0.29501409001812734
-502.99376249313354,-5256.0,-6320.0,-14368.0,4561.0,-2760.0,-3349.0,-0.8001069179196977,0.5573104742116297,-0.10815054818204604,-0.19374574617000903
-503.00944685935974,-4276.0,-4760.0,-16624.0,3060.0,-4518.0,-4431.0,-0.9090250392283235,0.2637320802276012,0.316241793891676,-0.06410924824814135
-503.02515053749084,-2824.0,-2352.0,-19212.0,2280.0,-4071.0,-2194.0,-0.7854395033158179,-0.00019774932152635664,0.6174711914707682,-0.04259196203366616
-503.04083251953125,-3320.0,-3344.0,-17512.0,159.0,-3565.0,-357.0,-0.5672673836729522,-0.041541699791519886,0.8220917412788493,-0.025439566041586918
-503.056599855423,-1328.0,-5948.0,-15744.0,1920.0,-4228.0,1411.0,-0.23347574620153033,-0.04114617538271089,0.9505698767009488,-0.2005317373777947
-503.0723466873169,-888.0,-3400.0,-15448.0,1143.0,-3219.0,5623.0,0.11823712731708107,0.29978466748449917,0.8814101024105558,-0.3453481811644965
-503.08806824684143,-1624.0,-4508.0,-15168.0,-864.0,-3350.0,1716.0,0.4265081565781401,0.3050733009676724,0.7847924940778256,-0.3303359118353782
-503.1038167476654,-3316.0,-5216.0,-15052.0,-1117.0,-4531.0,-1618.0,0.6609256946796123,0.020294292216339008,0.6351815018123287,-0.3991363521043208
-503.1195230484009,-2736.0,-4508.0,-16188.0,-434.0,-3573.0,-4729.0,0.6168584642574322,-0.34740207489131714,0.40203254591928217,-0.5806610590153523
-503.13529205322266,-448.0,-4032.0,-16076.0,1155.0,81.0,-3149.0,0.46964971379822923,-0.37600617377376744,0.2424476285496452,-0.7610963480558202
-503.1509916782379,-1256.0,-3480.0,-14896.0,159.0,1076.0,752.0,0.4986911814748858,-0.2804701284058043,0.2988817225314525,-0.7637495194943471
-503.16666412353516,-3596.0,-5268.0,-14652.0,-246.0,41.0,-1372.0,0.3971994171259709,-0.32197791539255016,0.28167144025477125,-0.8119261325878478
-503.1823811531067,-3632.0,-4872.0,-15308.0,1149.0,-1230.0,-3220.0,0.22074359343020705,-0.4276255308535913,0.06427091631774723,-0.8742299014775122
-503.19807744026184,-2472.0,-3772.0,-15196.0,721.0,-1796.0,-1571.0,0.13473240879748782,-0.5470253914967952,-0.08189674678749213,-0.8221333966839139
-503.2137622833252,-1936.0,-4036.0,-15472.0,548.0,-1687.0,489.0,0.18160942684028022,-0.6569389340935456,-0.1161738939116112,-0.7224630643349145
-503.229451417923,-2804.0,-4044.0,-15568.0,689.0,-526.0,545.0,0.2491498576271195,-0.6822193308951859,-0.13613861628943766,-0.6737710368902098
-503.2451388835907,-3116.0,-3700.0,-14936.0,533.0,-1527.0,819.0,0.30704881055892397,-0.7608838593849001,-0.15003022552288833,-0.5516046699325894
-503.26082825660706,-2424.0,-4244.0,-15112.0,-202.0,-1641.0,956.0,0.3137749254965613,-0.8462955567649866,-0.11912501389281713,-0.41368872089350567
-503.27664375305176,-1932.0,-5260.0,-15280.0,-685.0,-905.0,354.0,0.265055153427014,-0.8967273035323625,-0.09248879147162847,-0.34215746695560784
-503.29235887527466,-3072.0,-5572.0,-15084.0,-158.0,-1060.0,-344.0,0.23269111442031606,-0.9249135053442687,-0.13848595026875674,-0.26685481910538594
-503.3080961704254,-3420.0,-4160.0,-14840.0,170.0,-1795.0,-1448.0,0.18714569307479006,-0.927149506420262,-0.2898857982011391,-0.14607021020560387
-503.32382822036743,-2256.0,-3408.0,-14864.0,-625.0,-1623.0,77.0,0.09528612748964978,-0.9491341229432773,-0.2987351093342733,-0.02867586134297742
-503.33952260017395,-2176.0,-4268.0,-14868.0,-1423.0,-1014.0,1102.0,-0.045489722840225934,-0.9764930775261694,-0.20892324220544656,0.027258641304260763
-503.3552145957947,-3696.0,-5620.0,-14988.0,-570.0,-1456.0,1270.0,-0.12152139001644809,-0.9789171677191655,-0.09482337770855165,0.13402334704483074
-503.37094163894653,-4508.0,-3652.0,-15592.0,995.0,-2134.0,-714.0,-0.044493060720374934,-0.9372388906731898,-0.1188884002090924,0.3247601848335847
-503.3866846561432,-3100.0,-1344.0,-15420.0,-19.0,-3169.0,437.0,-0.08785756690432275,-0.8206873872105599,-0.06879212631851808,0.5603756809210535
-503.4023687839508,-1000.0,-3304.0,-15448.0,-1773.0,-1318.0,2914.0,-0.3478826492123464,-0.7243672918513956,0.06025696174839053,0.5921476061200682
-503.4180452823639,-2248.0,-5380.0,-15244.0,-1378.0,998.0,1942.0,-0.5272076175630525,-0.706411439982668,0.07946095152835762,0.46553298768971413
-503.4337341785431,-5292.0,-5628.0,-15424.0,-497.0,-199.0,-12.0,-0.5551595370853036,-0.6750288664598053,0.06753560578659985,0.48122017806847894
-503.44942355155945,-5912.0,-3604.0,-14992.0,-30.0,-2672.0,-2167.0,-0.4309625908755485,-0.5501142691590323,0.06512355999105443,0.7123232819917862
-503.4651024341583,-3748.0,-2120.0,-15744.0,203.0,-3126.0,-1764.0,-0.28022006259319854,-0.35661365111972865,0.10551938021931824,0.8849684066414186
-503.4808144569397,-928.0,-2640.0,-14968.0,-1673.0,-760.0,1050.0,-0.3995706553599246,-0.2435358549593605,0.027124894167189047,0.8833446772584711
-503.49662375450134,-2304.0,-4832.0,-15400.0,-1194.0,1096.0,1362.0,-0.5235909680568767,-0.27871584224205237,-0.07311576799271062,0.8017630958851887
-503.5123462677002,-5068.0,-4668.0,-15240.0,-149.0,-445.0,-1004.0,-0.4575942006870241,-0.2335088942912414,-0.08743358856202425,0.8534849215865807
-503.5280692577362,-4872.0,-2728.0,-15412.0,640.0,-2741.0,-1713.0,-0.3246981335976881,-0.04046964085931221,0.03324187087833413,0.9443666174888884
-503.5437841415405,-2076.0,-2112.0,-15352.0,-357.0,-1573.0,-88.0,-0.31106316318933575,0.09778674275133387,0.04743407669309287,0.9441543675782064
-503.55948638916016,-1452.0,-3600.0,-15464.0,-645.0,643.0,1990.0,-0.46382382156552293,0.06954243264860567,-0.039643727278864484,0.88230362545844
-503.57523488998413,-4020.0,-5184.0,-15156.0,-602.0,1048.0,-311.0,-0.43005744901745907,0.014249665493522983,-0.12610296859744158,0.893837557327298
-503.5909867286682,-5924.0,-4396.0,-15320.0,606.0,-1115.0,-2074.0,-0.27519424102070295,0.09900600017152662,-0.033969226839113215,0.9556736018469003
-503.6068000793457,-4284.0,-2676.0,-15600.0,676.0,-2054.0,-2026.0,-0.11442477479073679,0.2517934754594744,0.0860890138795812,0.957128882815355
-503.6225326061249,-2056.0,-2652.0,-15548.0,-18.0,-142.0,1085.0,-0.20268973565806767,0.27106084226452526,0.06186976767407909,0.9389435673658264
-503.63823103904724,-3300.0,-4756.0,-15144.0,-195.0,1661.0,1711.0,-0.3399703641163054,0.14478390311919878,-0.023608023108514894,0.9289243425409334
-503.6539261341095,-5412.0,-4400.0,-15208.0,917.0,482.0,-1877.0,-0.19506158756568243,0.08101004646961185,0.058806760816040915,0.9756690598300592
-503.66966438293457,-4260.0,-3028.0,-15396.0,1269.0,-1531.0,-1215.0,-0.09087480835511413,0.1797339097544418,0.1972335765632166,0.9594458854812424
-503.6853768825531,-1688.0,-2984.0,-15512.0,762.0,286.0,-713.0,-0.04784331781742993,0.13710299599475628,0.2689368449639549,0.9521484962180614
-503.70107436180115,-2584.0,-4048.0,-15472.0,779.0,1417.0,538.0,-0.1336580323954513,0.028518500117916852,0.31806850651542706,0.9381655774383575
-503.71676301956177,-4636.0,-3968.0,-15164.0,1142.0,1145.0,-1495.0,-0.0449831213993594,-0.11803209363813627,0.394937812339579,0.9099830042616159
-503.7325596809387,-4564.0,-3808.0,-15440.0,1729.0,-513.0,-310.0,0.015006306102228589,-0.0937807894621851,0.5246117427783102,0.8460274780668294
-503.7482602596283,-2816.0,-3044.0,-15948.0,1433.0,263.0,-1495.0,0.12308292807391091,-0.17696073944800406,0.6087265917209443,0.763536132768169
-503.7639639377594,-2048.0,-3820.0,-15480.0,985.0,2102.0,1971.0,-0.1011806646339362,-0.19508310507036727,0.7031638319888489,0.6762142268564723
-503.77967739105225,-3832.0,-4872.0,-14576.0,787.0,2300.0,698.0,-0.263677184700461,-0.28810818325881815,0.7239225304776156,0.5686863695171777
-503.7953758239746,-5068.0,-5288.0,-14872.0,1447.0,746.0,-102.0,-0.26651098088529573,-0.36134157212166723,0.7683831704100058,0.4560608169475511
-503.8110716342926,-4300.0,-4152.0,-15008.0,1539.0,145.0,-1271.0,-0.17427897490883446,-0.48094659751411944,0.7745502670717958,0.3720068453984778
-503.82680463790894,-2812.0,-3752.0,-14768.0,932.0,460.0,2037.0,-0.22771266348345548,-0.36524412728477135,0.8663076465556545,0.2534851709517928
-503.8424873352051,-2404.0,-4364.0,-14576.0,235.0,1452.0,1985.0,-0.3653174552972936,-0.24634422121661703,0.8856752127561347,0.14641413537518663
-503.8581876754761,-3836.0,-5564.0,-14636.0,286.0,820.0,615.0,-0.4283358802193236,-0.2174834100775011,0.8727754173681675,0.08655871357419614
-503.8738956451416,-4124.0,-5036.0,-15352.0,835.0,-196.0,-1234.0,-0.3846804082433071,-0.33832462453420753,0.8557808030218715,0.0720877876397292
-503.8895797729492,-3108.0,-3736.0,-15276.0,1004.0,361.0,-231.0,-0.3785500499632378,-0.3898208813185223,0.8394672136448857,-0.005859810250567021
-503.9052381515503,-2900.0,-3772.0,-14928.0,137.0,539.0,1417.0,-0.4087762291979535,-0.2877607096275137,0.8623419255175095,-0.08038763544305769
-503.92092776298523,-3452.0,-4772.0,-14884.0,3.0,609.0,280.0,-0.45152211907186207,-0.26208028516473536,0.8463208978712057,-0.10574799262067515
-503.9366490840912,-3468.0,-4136.0,-14664.0,720.0,929.0,-491.0,-0.5048261184976375,-0.31620981266611786,0.7871512699244864,-0.15985875863566595
-503.95235562324524,-2944.0,-4600.0,-14616.0,-251.0,149.0,475.0,-0.5144852245658645,-0.27013689818477055,0.7964235239942659,-0.16745321845541777
-503.96808314323425,-2960.0,-4500.0,-14824.0,184.0,986.0,-894.0,-0.5874715869022905,-0.3239247938407499,0.7236226512176259,-0.1622347717430088
-503.9838080406189,-3092.0,-4492.0,-15072.0,-231.0,354.0,728.0,-0.6041753007025917,-0.2604249340641538,0.7275572445250045,-0.19445183382472078
-503.99951910972595,-3408.0,-5100.0,-15180.0,-38.0,624.0,-459.0,-0.6507308424848927,-0.2763568215009059,0.6835169018464806,-0.18160650522216096
-504.01522183418274,-3316.0,-4424.0,-14912.0,-253.0,361.0,-285.0,-0.6819458710429246,-0.27301153647556087,0.6596784496568151,-0.15886746985189004
-504.0309228897095,-3228.0,-4460.0,-14968.0,-433.0,511.0,-172.0,-0.7225404767516836,-0.2496389244920751,0.6302524299622295,-0.1356375366946587
-504.0466420650482,-3104.0,-4564.0,-15136.0,-117.0,398.0,-503.0,-0.7515183274561384,-0.26482022077591133,0.5948567453168119,-0.10599955998406456
-504.0623605251312,-3064.0,-4472.0,-14276.0,-644.0,566.0,-211.0,-0.7951966900247229,-0.22766764177231094,0.5574050633259009,-0.07161888327953679
-504.07808351516724,-3504.0,-5104.0,-16100.0,-618.0,-203.0,225.0,-0.7945762258001678,-0.1748145081654458,0.5790265918894721,-0.053072733233711075
-504.09377694129944,-2860.0,-4428.0,-15200.0,184.0,1036.0,-2030.0,-0.8368713037061583,-0.27986134627915077,0.46643329237222597,0.0613517046118657
-504.1094410419464,-2824.0,-3684.0,-13936.0,-329.0,438.0,322.0,-0.8629846186117957,-0.24479850959366845,0.4401095238365397,0.04043321368066963
-504.12513756752014,-3220.0,-4176.0,-15132.0,-634.0,471.0,-696.0,-0.888294641230102,-0.2245877652821898,0.3861546516395297,0.10666560394330407
-504.14082980155945,-5344.0,-4492.0,-15432.0,-877.0,1387.0,-6973.0,-0.7522800694633902,-0.343103662540257,0.11359505750689797,0.5508636280874085
-504.15660524368286,-2928.0,-4472.0,-15016.0,-312.0,-1006.0,-1155.0,-0.6896284778235482,-0.2833750168124771,0.12881433062436434,0.6538486297661724
-504.1723573207855,-1440.0,-4520.0,-15700.0,176.0,1069.0,-1963.0,-0.574271788913337,-0.37030010240437805,0.02548383766336492,0.7296850831937911
-504.18809175491333,-2412.0,-3428.0,-15564.0,197.0,862.0,28.0,-0.5697905628407882,-0.4339904854860492,-0.004347538170048695,0.6978338426280435
-504.2038207054138,-2968.0,-4068.0,-15240.0,35.0,531.0,-156.0,-0.5579751882172039,-0.46772620032708767,-0.034606294336408716,0.6846154360324215
-504.21951484680176,-2928.0,-4456.0,-15052.0,326.0,920.0,-1355.0,-0.45596492241308784,-0.5291217540358043,-0.1141589414749425,0.70646577766812
-504.2352132797241,-2924.0,-4328.0,-15240.0,456.0,471.0,-947.0,-0.36982163171210924,-0.564248826364762,-0.14791113569781972,0.7231718458294425
-504.2509002685547,-2556.0,-4536.0,-14928.0,190.0,751.0,67.0,-0.3540416280414105,-0.6174300456227849,-0.15664255982235287,0.6847611063928306
-504.26662707328796,-2816.0,-4824.0,-15224.0,93.0,331.0,149.0,-0.3530657163884965,-0.6419827941114641,-0.1533406306367604,0.6630907501781605
-504.28234338760376,-2952.0,-5040.0,-15248.0,355.0,582.0,-807.0,-0.27734750720367135,-0.6731341852330872,-0.1952448777853133,0.6571515552877395
-504.29803228378296,-3120.0,-4424.0,-15004.0,378.0,-77.0,-511.0,-0.22664877369039632,-0.668310842227384,-0.20153586191410122,0.6792453517754129
-504.3137171268463,-2484.0,-4768.0,-15076.0,364.0,2.0,-156.0,-0.19588595328283404,-0.672676342973001,-0.18911778668519158,0.6880186724720772
-504.3294005393982,-2792.0,-4416.0,-15020.0,211.0,360.0,13.0,-0.1780977232954256,-0.6978403452302926,-0.18184220520035674,0.6695024017385774
-504.34507942199707,-2648.0,-4552.0,-14792.0,-133.0,221.0,547.0,-0.2142230191826181,-0.7165595485488192,-0.15963475649292078,0.6443350494542742
-504.3607647418976,-2672.0,-4972.0,-15428.0,-56.0,330.0,253.0,-0.22705310015906788,-0.7372840923745367,-0.15314557910712917,0.6175803497841827
-504.3765273094177,-2760.0,-4520.0,-14704.0,82.0,521.0,-240.0,-0.20146343535687375,-0.7629786873288854,-0.17437511976968345,0.5889561312198103
-504.3922369480133,-2996.0,-4136.0,-14808.0,-181.0,102.0,757.0,-0.2501296712861704,-0.774921271733946,-0.13485804164240336,0.5645754854409565
-504.407945394516,-2828.0,-4724.0,-15036.0,-170.0,172.0,199.0,-0.2691242178230053,-0.7819099157697941,-0.13358323608687647,0.5462092621318199
-504.42363834381104,-2564.0,-4668.0,-14984.0,-96.0,111.0,70.0,-0.2774996081660692,-0.7858564594455469,-0.13607576948151406,0.5356369830168575
-504.4393427371979,-2544.0,-4552.0,-15216.0,-231.0,-153.0,306.0,-0.3090715885244223,-0.7764213016656235,-0.12220274436487152,0.5354542041636643
-504.45502972602844,-2452.0,-4640.0,-15532.0,-103.0,262.0,-189.0,-0.30409337077987775,-0.7837015656198727,-0.14691915416624435,0.5213001439015411
-504.47074580192566,-2660.0,-4360.0,-15200.0,73.0,294.0,248.0,-0.30623297827793106,-0.8018932649288634,-0.13445904366494865,0.4950851646469153
-504.4865324497223,-2712.0,-4344.0,-15064.0,31.0,170.0,145.0,-0.3080626817936856,-0.811775431730642,-0.12758492392453236,0.47941643663080974
-504.50224113464355,-2672.0,-4372.0,-15276.0,19.0,203.0,100.0,-0.3083631720871332,-0.8218925683192313,-0.12522866110246525,0.46230135483303825
-504.5179407596588,-2748.0,-4492.0,-14916.0,16.0,398.0,220.0,-0.31127022938574,-0.8402750201199927,-0.11950985189186969,0.42751155558800763
-504.5336318016052,-2968.0,-4816.0,-14852.0,-171.0,-154.0,333.0,-0.33739228454736364,-0.8329943838082849,-0.09731804903806444,0.42756987756762205
-504.54939365386963,-2500.0,-4776.0,-15488.0,320.0,449.0,-981.0,-0.2721603183907274,-0.8469032941892689,-0.16917581703415863,0.4243384431272371
-504.56507444381714,-2312.0,-4068.0,-14716.0,286.0,196.0,-95.0,-0.24426122282502177,-0.8592620917836011,-0.17026311954780995,0.41595141876130637
-504.58079075813293,-2788.0,-4300.0,-15068.0,-24.0,-162.0,484.0,-0.2655447359523711,-0.8593475586003815,-0.13134691249437067,0.4168402035717592
-504.59670877456665,-2528.0,-4780.0,-15288.0,196.0,429.0,-186.0,-0.2386907316422708,-0.8766320651769006,-0.1480450025119538,0.3906733087414535
-504.61250853538513,-2752.0,-4476.0,-14876.0,120.0,180.0,394.0,-0.24019109037788772,-0.8897981629955914,-0.11755439189346355,0.36979512460186686
-504.6281991004944,-2732.0,-4896.0,-15096.0,-79.0,233.0,728.0,-0.26658015177333216,-0.9012305058788885,-0.06838264149507375,0.3347273701028139
-504.6439673900604,-2992.0,-4936.0,-15228.0,164.0,92.0,-158.0,-0.2481924621730873,-0.9066972164870041,-0.0782105881181436,0.3319393969407573
-504.6596632003784,-2828.0,-4536.0,-14976.0,188.0,-85.0,-64.0,-0.23173732186527807,-0.9078233654401731,-0.07604229910406514,0.3411335802329558
-504.67543482780457,-2504.0,-4436.0,-14960.0,76.0,-46.0,199.0,-0.23164926009493825,-0.9092661609905037,-0.057139218839346,0.34104072842622235
-504.6911652088165,-2500.0,-4472.0,-15244.0,69.0,11.0,149.0,-0.23027635856479203,-0.9117569276118459,-0.0435425804757429,0.3373072002247509
-504.7068531513214,-2700.0,-4656.0,-14852.0,119.0,80.0,216.0,-0.22654492776755308,-0.9172050660640935,-0.02451764801223985,0.32681974760577787
-504.72257018089294,-2580.0,-4704.0,-14952.0,55.0,-52.0,-170.0,-0.2171159875982932,-0.91643858128367,-0.03558283977346629,0.33426761161926516
-504.73828506469727,-2792.0,-4756.0,-15252.0,-2.0,-109.0,-209.0,-0.21121494778255734,-0.9124934906361942,-0.050342789422500145,0.3467123864717657
-504.7540440559387,-2584.0,-4700.0,-15180.0,110.0,156.0,-408.0,-0.18902636431971048,-0.9168491937369295,-0.08237982453064817,0.34186277078136734
-504.76974177360535,-2664.0,-4536.0,-14804.0,-89.0,-132.0,-142.0,-0.19257649085068235,-0.9103755123668293,-0.09427168740407385,0.35389768381335696
-504.7855327129364,-2700.0,-4740.0,-15172.0,-115.0,88.0,-517.0,-0.18457112951051746,-0.9060205250131291,-0.14029363908772596,0.35408756154045923
-504.8012623786926,-2924.0,-4812.0,-15284.0,-91.0,-80.0,-550.0,-0.17528960592490747,-0.8943727102935322,-0.1851586099817733,0.3675422401391569
-504.8169779777527,-2720.0,-4572.0,-14964.0,39.0,144.0,-302.0,-0.15992402401627828,-0.8944209416081205,-0.20967298206742294,0.3612100861634935
-504.8327341079712,-2744.0,-4428.0,-14980.0,-125.0,90.0,1.0,-0.16781535674564887,-0.8955500845883837,-0.21485560778139348,0.351660517884731
-504.8484482765198,-2824.0,-4784.0,-15068.0,-224.0,-74.0,32.0,-0.1874049403584242,-0.8905062487097088,-0.21818575370152227,0.3525237385197145
-504.8641583919525,-2756.0,-4804.0,-15520.0,15.0,-106.0,-608.0,-0.16905885926735223,-0.8747413529526554,-0.26294402300095215,0.3702797703167893
-504.8798773288727,-2356.0,-4432.0,-14864.0,40.0,255.0,-697.0,-0.13711108920603216,-0.8658464603209909,-0.31803732656316985,0.36105777277175194
-504.8955571651459,-2384.0,-4300.0,-15016.0,-94.0,-34.0,137.0,-0.1492378705494008,-0.8674492138988542,-0.31029880644874097,0.35913029671224767
-504.91131830215454,-2752.0,-4860.0,-15104.0,-189.0,-196.0,68.0,-0.17069608947122059,-0.8605200006992868,-0.30852784927957655,0.36766661482197605
-504.9270167350769,-2948.0,-5112.0,-15040.0,112.0,-117.0,-559.0,-0.14706473572578052,-0.8423817881568302,-0.34482464766246484,0.38711864957925324
-504.94273233413696,-2876.0,-4388.0,-14812.0,-85.0,-366.0,291.0,-0.17379448743350398,-0.8370667822206659,-0.321435729347118,0.40717778689357814
-504.9584674835205,-2572.0,-4852.0,-15360.0,-248.0,-329.0,605.0,-0.2219679902550216,-0.8369955369239801,-0.2806018658927738,0.4140426008624944
-504.97420620918274,-2796.0,-4740.0,-15236.0,-92.0,-280.0,627.0,-0.2575020814123537,-0.8390437499340482,-0.2323890883157379,0.41915817467478317
-504.9899363517761,-2880.0,-4552.0,-15024.0,46.0,-292.0,682.0,-0.28417414981954825,-0.8415963070331308,-0.1739464099551331,0.425092172388829
-505.005628824234,-2692.0,-4084.0,-15264.0,6.0,-183.0,2004.0,-0.35519542652764446,-0.8524926664223726,-0.02176139670907722,0.3829084802967784
-505.02139163017273,-2696.0,-4284.0,-15120.0,-102.0,302.0,2841.0,-0.44331889038761074,-0.8392687009189399,0.171515167748284,0.26396771832103
-505.03709053993225,-3220.0,-4656.0,-14976.0,-190.0,290.0,2796.0,-0.5105305703055418,-0.7738747171846361,0.350274043206104,0.13335874002833867
-505.0528132915497,-3304.0,-5200.0,-14592.0,-312.0,216.0,898.0,-0.5464360156294156,-0.7325495162035208,0.39628709581265054,0.08795126392162775
-505.0685844421387,-3136.0,-5204.0,-14628.0,-496.0,-242.0,208.0,-0.5703756715249065,-0.699076180605154,0.41683959499390716,0.1104936155998946
-505.08432173728943,-2888.0,-4912.0,-15324.0,-444.0,-325.0,-453.0,-0.5799098964681271,-0.6891507142333737,0.40040742305803956,0.16867039043642768
-505.10002851486206,-2508.0,-4532.0,-15180.0,-367.0,-125.0,-318.0,-0.5921301605626603,-0.6793727945410215,0.38192230195732313,0.20486540522299074
-505.11573457717896,-2704.0,-4156.0,-15348.0,-362.0,-99.0,744.0,-0.6217235257481702,-0.632613165625444,0.4236406755350228,0.1838178942346148
-505.1314539909363,-3100.0,-4192.0,-15164.0,-317.0,-243.0,1169.0,-0.6450312760579173,-0.5651987045371916,0.49352117971968773,0.14464412350546196
-505.14717054367065,-2956.0,-4604.0,-14920.0,-440.0,137.0,313.0,-0.6755746899666993,-0.5282130229663554,0.49524323373884627,0.1390107193026251
-505.16290068626404,-3188.0,-4740.0,-15076.0,-496.0,-106.0,-100.0,-0.6917342254232082,-0.5016522148317407,0.4905110145351482,0.17101976889313847
-505.17869877815247,-3264.0,-4856.0,-15416.0,-398.0,-130.0,-794.0,-0.6894290916863897,-0.5082778067712543,0.45640586986623993,0.24090429766179788
-505.1944189071655,-2704.0,-4420.0,-15276.0,-214.0,145.0,-1094.0,-0.6782421953765425,-0.5396143575661897,0.3929068845113489,0.3072914733975251
-505.2101628780365,-2868.0,-4604.0,-15152.0,-302.0,38.0,29.0,-0.6941091869074189,-0.5217805230373525,0.38389961248088694,0.31397230764291
-505.22590470314026,-3228.0,-4296.0,-15208.0,-11.0,353.0,-852.0,-0.6806955458621023,-0.5577373937158465,0.3224779738163088,0.34869833652869225
-505.24160838127136,-3064.0,-4076.0,-15080.0,-207.0,164.0,167.0,-0.700019956667398,-0.5457580597986134,0.3145259884281313,0.3364425701892292
-505.2573926448822,-2908.0,-4752.0,-15028.0,-478.0,393.0,-53.0,-0.7307705383318249,-0.5290032037803882,0.27363562376049744,0.3335469623688749
-505.2730944156647,-3052.0,-4532.0,-15084.0,-252.0,258.0,-662.0,-0.7275453107155218,-0.5353341977038385,0.2188723295223044,0.36903932174515286
-505.2888205051422,-2852.0,-4668.0,-15360.0,-309.0,216.0,-581.0,-0.7258979085297784,-0.5330486762543009,0.16779022173669747,0.4009710421279585
-505.3046245574951,-2804.0,-4576.0,-15328.0,-500.0,291.0,-257.0,-0.7431282485074931,-0.5147992368111081,0.11972602050138066,0.41037523324853453
-505.3203339576721,-3052.0,-4564.0,-14984.0,-289.0,166.0,-513.0,-0.7382581812359301,-0.5069068843712644,0.07542386347375918,0.43855616428677197
-505.33606338500977,-2876.0,-4260.0,-15008.0,-199.0,265.0,-545.0,-0.7266572567930483,-0.5072985077232196,0.02652738032802056,0.462508111609655
-505.3518018722534,-2740.0,-4288.0,-15120.0,-287.0,273.0,86.0,-0.7428428255193675,-0.49987266823369947,0.0013532160003430634,0.4453201330882993
-505.3674998283386,-2896.0,-4444.0,-15128.0,-233.0,177.0,-75.0,-0.7496936925811776,-0.49174568422943266,-0.022544266612825,0.44230906093885963
-505.38328313827515,-2732.0,-4500.0,-15216.0,-223.0,195.0,125.0,-0.7632482797114608,-0.48499562357625464,-0.038647810359494744,0.4251325150865224
-505.398987531662,-2900.0,-4600.0,-15244.0,-160.0,208.0,-88.0,-0.765672139793749,-0.48186881053819935,-0.0622759116770868,0.4215095901624898
-505.4147036075592,-2804.0,-4368.0,-15264.0,-27.0,189.0,6.0,-0.7657348179545047,-0.48722882431849784,-0.07577500689050563,0.41293632639444505
-505.43040704727173,-2688.0,-4332.0,-15244.0,-113.0,312.0,631.0,-0.789530525940713,-0.49438372881085046,-0.07386662873508794,0.35604774743589285
-505.44614839553833,-2980.0,-4760.0,-15084.0,-50.0,321.0,60.0,-0.7909888384917666,-0.5013276929682311,-0.0950570011907971,0.3375964575779934
-505.46194076538086,-2936.0,-4544.0,-15292.0,62.0,192.0,-372.0,-0.7750227797369925,-0.5080632905214076,-0.1228255732803466,0.3551411863775572
-505.47765278816223,-2696.0,-4264.0,-15072.0,53.0,233.0,-457.0,-0.7550693103318433,-0.5136763149372346,-0.15720090919465896,0.37589207788389256
-505.49338269233704,-2768.0,-4260.0,-15120.0,50.0,229.0,184.0,-0.7552884668936345,-0.5270464620224514,-0.1625151026334778,0.35404830187858555
-505.50907039642334,-2776.0,-4560.0,-15172.0,68.0,271.0,-36.0,-0.7467939986771783,-0.5394391759078502,-0.18004525191816223,0.3448011112182439
-505.524751663208,-2880.0,-4376.0,-15112.0,103.0,486.0,-175.0,-0.7280783880254594,-0.5576399371577986,-0.21679546223601232,0.33457329380984474
-505.5405240058899,-2712.0,-4604.0,-15168.0,31.0,280.0,-186.0,-0.715329764095154,-0.5642136461980816,-0.24279913615467777,0.3331889396813456
-505.55621099472046,-2868.0,-4564.0,-15144.0,117.0,429.0,-271.0,-0.6916745055959794,-0.5778331280258203,-0.2794076658314921,0.33109909504414275
-505.57197165489197,-2944.0,-4716.0,-14876.0,-41.0,115.0,-432.0,-0.6777210515745976,-0.5678813020387965,-0.30926235239102695,0.3500882752119976
-505.5877125263214,-2816.0,-4648.0,-15236.0,-73.0,112.0,-848.0,-0.6503681420709759,-0.5427392806565983,-0.3593195422301798,0.39159267049192725
-505.6035199165344,-2760.0,-4464.0,-15060.0,58.0,264.0,-787.0,-0.610621745259654,-0.5291258324930058,-0.40871288819711477,0.4244063060631997
-505.61926889419556,-2768.0,-4280.0,-15020.0,25.0,41.0,-306.0,-0.5962407449175187,-0.5210081819923601,-0.4241471163349645,0.43948455274554576
-505.63497400283813,-2580.0,-4404.0,-15324.0,76.0,137.0,-2.0,-0.5873706105714621,-0.5302245148321869,-0.42861418547052443,0.4360591814436647
-505.6507294178009,-2628.0,-4336.0,-15172.0,146.0,259.0,-202.0,-0.5627462609817669,-0.5398702442582791,-0.4456585397308316,0.4395966686413009
-505.6666979789734,-2764.0,-4556.0,-15008.0,78.0,160.0,-136.0,-0.5473065404986719,-0.5445665077596794,-0.4570405363894135,0.4416070849190262
-505.682457447052,-2852.0,-4780.0,-15236.0,263.0,-216.0,-587.0,-0.5196710666760002,-0.5245918359947941,-0.4638698421772089,0.48945904587200184
-505.6981704235077,-2640.0,-4324.0,-15144.0,295.0,-43.0,-55.0,-0.5051755088784066,-0.5338437029444424,-0.4518787854393008,0.5055829994431295
-505.7138795852661,-2636.0,-4572.0,-15244.0,322.0,-71.0,468.0,-0.5127820793141683,-0.5627877116488855,-0.4124267036394342,0.5002286925760647
-505.7295711040497,-2612.0,-4464.0,-15228.0,501.0,43.0,713.0,-0.5160563692033571,-0.6111168201143483,-0.35662381899531437,0.48274372880771116
-505.7452816963196,-2728.0,-4588.0,-15164.0,438.0,-153.0,1100.0,-0.5406659596837008,-0.655242723086143,-0.27133010279653835,0.4524569252408223
-505.76098704338074,-2748.0,-4840.0,-15136.0,473.0,-175.0,971.0,-0.5533700209311497,-0.6906768019832504,-0.18817641650362155,0.42583660177197585
-505.7767412662506,-2792.0,-4704.0,-15360.0,569.0,-246.0,924.0,-0.5546220092331914,-0.7209877955371626,-0.0991220062094052,0.403417715830159
-505.79249334335327,-2760.0,-4600.0,-14924.0,519.0,-237.0,992.0,-0.5559499596071439,-0.7428523886737058,-0.0070269651836719045,0.37288147287696166
-505.80829787254333,-2756.0,-4568.0,-15140.0,534.0,-39.0,1196.0,-0.5564166716748599,-0.7634545002685782,0.08913123451806178,0.31558411958654214
-505.82402086257935,-2748.0,-4640.0,-15040.0,261.0,80.0,1129.0,-0.5675974782625637,-0.7658272705208877,0.16677298648601463,0.2520485377363677
-505.83972811698914,-3092.0,-4728.0,-15040.0,442.0,-223.0,1249.0,-0.558215680025345,-0.7596265870347181,0.26917121643094016,0.1972550609969625
-505.8554480075836,-2988.0,-4968.0,-15280.0,537.0,143.0,258.0,-0.5294057547990927,-0.7812441556928339,0.28816721740968115,0.16231688387766585
-505.87120938301086,-2864.0,-4656.0,-14772.0,564.0,192.0,364.0,-0.4997463150988263,-0.7995440481674393,0.3115548482090674,0.11796826752391167
-505.8869614601135,-2956.0,-4828.0,-14700.0,174.0,-109.0,1102.0,-0.4933677162834958,-0.7725102676360521,0.393157819715218,0.072409334500874
-505.90267515182495,-2848.0,-5020.0,-15120.0,273.0,190.0,16.0,-0.48111232882925775,-0.7847222930056205,0.38767449236910456,0.04950088761675197
-505.9183690547943,-3172.0,-4740.0,-14792.0,318.0,29.0,-121.0,-0.4593164487208029,-0.8020697965757153,0.3794261016052371,0.04181237587309636
-505.93407821655273,-3016.0,-4748.0,-15064.0,168.0,-99.0,154.0,-0.4444603881952957,-0.8032830583799162,0.39474396346079355,0.03699317175316089
-505.9497811794281,-2852.0,-4884.0,-14852.0,197.0,164.0,23.0,-0.4359881444427196,-0.8105808874122076,0.3905841292055735,0.017804518531992344
-505.96551990509033,-2988.0,-4912.0,-14872.0,65.0,42.0,-151.0,-0.4322638779460508,-0.8182991821447713,0.37841397999916243,0.018364315000395433
-505.9812729358673,-2872.0,-4884.0,-14824.0,-240.0,160.0,-338.0,-0.4535332876390755,-0.8201766368373467,0.34764379536560225,0.027597697970483465
-505.99697756767273,-2996.0,-5040.0,-14908.0,248.0,200.0,-436.0,-0.440036686513736,-0.8428953856783407,0.3088145429159566,0.02299263812141466
-506.0127420425415,-2984.0,-4636.0,-14888.0,-101.0,82.0,-70.0,-0.44922413611558154,-0.8411318710806591,0.3003229982333722,0.02238186130948245
-506.0284662246704,-2960.0,-4912.0,-14988.0,-195.0,-26.0,46.0,-0.46260451165153144,-0.8322380754445587,0.3043267684993915,0.0276056073054529
-506.0441725254059,-2844.0,-4896.0,-15008.0,-230.0,140.0,47.0,-0.482736603266656,-0.8219500421168203,0.3014876825394575,0.021648958582704655
-506.059876203537,-2912.0,-4996.0,-14972.0,-273.0,27.0,23.0,-0.5026660550007939,-0.8098080815111232,0.3014388953077189,0.02592876134478902
-506.07557249069214,-3008.0,-5092.0,-15092.0,-332.0,60.0,-389.0,-0.5260395534745552,-0.8049543301137876,0.27033211286729797,0.04744958760681317
-506.0913317203522,-2984.0,-4808.0,-14868.0,-310.0,-13.0,-398.0,-0.5450784039832343,-0.7994469416269069,0.24148538146201443,0.07388458279384474
-506.1070535182953,-2876.0,-4768.0,-14788.0,-392.0,219.0,-221.0,-0.5748214045342567,-0.7862940251751778,0.2129455349947231,0.07730626099412877
-506.1228096485138,-2628.0,-4864.0,-14976.0,-418.0,-68.0,-359.0,-0.5988732024586262,-0.770816505445882,0.1887056748413458,0.10762421006362989
-506.1385009288788,-2584.0,-4940.0,-14780.0,-564.0,-173.0,-262.0,-0.6302712208145457,-0.7430452301316219,0.17456770209669206,0.14201440622791708
-506.15421199798584,-3052.0,-4912.0,-15064.0,-582.0,-427.0,-881.0,-0.6471711125895339,-0.7158391233803288,0.13306291960669905,0.22591626743873153
-506.16991901397705,-2872.0,-4612.0,-15288.0,-80.0,48.0,-1535.0,-0.6166994846243811,-0.723812811232468,0.032574187575771026,0.30775913026838475
-506.18566036224365,-2872.0,-3784.0,-14892.0,-206.0,-11.0,0.0,-0.6293519617010195,-0.7125360703114642,0.027579019163485385,0.3089463618658668
-506.20138144493103,-2696.0,-4520.0,-15084.0,-581.0,-79.0,1141.0,-0.6915274203059028,-0.6717847030749841,0.08661438697563947,0.2509842378484214
-506.21708822250366,-2932.0,-5316.0,-14632.0,-671.0,-52.0,453.0,-0.7383571509970887,-0.6253949149165668,0.10132945419870036,0.23117581984229174
-506.2327914237976,-3124.0,-5344.0,-14660.0,-825.0,-227.0,-974.0,-0.7567176233174063,-0.5728513707835651,0.04582869474486756,0.3116399786455968
-506.2486102581024,-2944.0,-5324.0,-14604.0,-883.0,-440.0,-1393.0,-0.7527407909304998,-0.5028414613137763,-0.018634777954228618,0.42448146190822994
-506.26430773735046,-3480.0,-5204.0,-14880.0,-914.0,-721.0,-1340.0,-0.7354594422593175,-0.40927792005219205,-0.0633114198748421,0.5362673373074259
-506.28000497817993,-3108.0,-4220.0,-15540.0,-274.0,-6.0,-2505.0,-0.6132480513988059,-0.36899607166861276,-0.16152388084071584,0.679469471328075
-506.2957212924957,-2740.0,-3456.0,-14912.0,-566.0,55.0,939.0,-0.6831356042189107,-0.3538073604965996,-0.16723100217848777,0.6165872929417792
-506.31147933006287,-2936.0,-4160.0,-15056.0,-1005.0,77.0,2174.0,-0.8123385507489824,-0.32298535759902564,-0.15563795877200232,0.459960176029357
-506.32719349861145,-3396.0,-5340.0,-15192.0,-589.0,334.0,126.0,-0.8278452329843995,-0.29597574527388976,-0.19930691323118652,0.4328364388228273
-506.3429045677185,-3488.0,-5012.0,-14728.0,-551.0,-128.0,-31.0,-0.8419898822780107,-0.25062415256829385,-0.2116932288301045,0.42828325808788203
-506.35866141319275,-2988.0,-4268.0,-15616.0,-194.0,-144.0,-786.0,-0.8173055698243574,-0.21603854521536014,-0.2252584901947981,0.4843527279890899
-506.3743724822998,-2308.0,-4652.0,-14992.0,-543.0,67.0,774.0,-0.855916077470059,-0.19478192642722492,-0.23788425788814546,0.41578690373143495
-506.39012241363525,-3252.0,-4296.0,-15400.0,-192.0,413.0,-698.0,-0.8229918718313463,-0.1805361604758948,-0.2871012379175325,0.4557016050513528
-506.40586280822754,-2968.0,-4388.0,-14884.0,-4.0,176.0,277.0,-0.8292080359562821,-0.19416470860689933,-0.2957167309307429,0.43274208725840113
-506.4215757846832,-2944.0,-4816.0,-14736.0,-724.0,303.0,342.0,-0.8440944315126594,-0.161642940944526,-0.33854286831211294,0.3830990428689847
-506.4372913837433,-3440.0,-5244.0,-15256.0,-182.0,39.0,-274.0,-0.8358742624269648,-0.1414043245064208,-0.3515187022778988,0.3971821199046128
-506.45299649238586,-3324.0,-3996.0,-15616.0,263.0,492.0,-1633.0,-0.7523207890002961,-0.12615665716892435,-0.394286307627744,0.5124804736838414
-506.46873116493225,-2216.0,-3768.0,-14916.0,-34.0,702.0,1509.0,-0.787624085430488,-0.20510861271001282,-0.42115091291415513,0.4002632453692632
-506.4845037460327,-3176.0,-3880.0,-15492.0,-111.0,778.0,1652.0,-0.8083257903674476,-0.28184973842968775,-0.4435922949592356,0.26532247817845456
-506.5002098083496,-3200.0,-4764.0,-15380.0,231.0,862.0,374.0,-0.7749890038717464,-0.33145205123253435,-0.48837470764140456,0.2258798940760252
-506.5159614086151,-3156.0,-4196.0,-15028.0,746.0,1006.0,334.0,-0.712364823468367,-0.413391348090798,-0.5289125931037871,0.20468370835213648
-506.5316786766052,-2788.0,-3460.0,-15208.0,801.0,469.0,1251.0,-0.6777058884186983,-0.5245665002819554,-0.4943057101585747,0.14562479352497446
-506.54743909835815,-1744.0,-4244.0,-14972.0,674.0,780.0,3067.0,-0.6274102694794987,-0.6801616469626924,-0.3769257133304977,-0.04078595815910019
-506.5631613731384,-2692.0,-4716.0,-15220.0,703.0,388.0,2250.0,-0.5527840993537891,-0.7747676622755258,-0.26162784222167834,-0.1603610961803564
-506.5788538455963,-2844.0,-4860.0,-15276.0,939.0,692.0,797.0,-0.45862555366723323,-0.8224935815955009,-0.2524343737823574,-0.22235961119487893
-506.59473037719727,-2980.0,-4508.0,-14692.0,578.0,796.0,2329.0,-0.3458583692282361,-0.8609239757868885,-0.12537892651095275,-0.35138585790700705
-506.61050057411194,-3560.0,-4900.0,-14456.0,86.0,391.0,2998.0,-0.2349414614999278,-0.8551892247004572,0.08260116996546776,-0.45456676775237825
-506.6262369155884,-3728.0,-5196.0,-15408.0,626.0,807.0,-226.0,-0.2019972159493786,-0.8343280491226346,0.024296338118759073,-0.5123509726251504
-506.6419334411621,-2856.0,-4560.0,-14776.0,616.0,1087.0,-457.0,-0.17854143167357286,-0.7924119595709423,-0.05527716918845413,-0.5806467756488459
-506.6576118469238,-2604.0,-4332.0,-14404.0,22.0,1142.0,1055.0,-0.11685842467772754,-0.7334547139491637,-0.001188701085171918,-0.6696169637616122
-506.6732769012451,-2764.0,-4812.0,-15336.0,-200.0,1468.0,1023.0,-0.06878303820086894,-0.6381292215437167,0.06032996485804864,-0.764473861952189
-506.6890506744385,-2928.0,-5088.0,-14964.0,-251.0,1407.0,462.0,-0.058758751423714194,-0.5359715084113669,0.09366581013415363,-0.836963958193113
-506.70476627349854,-3336.0,-5172.0,-14656.0,-868.0,857.0,835.0,-0.0449193563481004,-0.4585212443883661,0.19030642947870802,-0.8669048291299815
-506.7205138206482,-3268.0,-5268.0,-15724.0,-685.0,1149.0,-81.0,-0.09680539036380076,-0.36794347224002444,0.23301055071628937,-0.8949594409174966
-506.73621892929077,-3040.0,-4864.0,-14996.0,-752.0,1316.0,186.0,-0.13194242582697205,-0.25294567663761125,0.28434070968032665,-0.9152923258477169
-506.75196647644043,-2584.0,-4412.0,-14732.0,-1638.0,1426.0,2166.0,-0.029373126102319284,-0.06426542739071311,0.4316470707115758,-0.8992708049588746
-506.7676610946655,-3200.0,-5264.0,-14672.0,-2052.0,1164.0,2332.0,0.09443079746367025,0.11546064251566494,0.579233938836036,-0.8013985953448735
-506.7833409309387,-3112.0,-5600.0,-15044.0,-2761.0,1415.0,998.0,0.11590508057779678,0.2329148929986438,0.744572154393224,-0.6147592795704004
-506.79903173446655,-2288.0,-5260.0,-14752.0,-4021.0,2026.0,1892.0,0.15401601885017782,0.3899271556190831,0.8669561328628435,-0.2694864429611568
-506.8147294521332,-2624.0,-5916.0,-14060.0,-5853.0,1566.0,5986.0,0.30111791820223466,0.6428263308285457,0.6597956097000955,0.24651990011262903
-506.8304262161255,-3744.0,-7084.0,-14504.0,-7791.0,944.0,8501.0,0.35244146505807694,0.6385357198418694,0.02823226105204834,0.6835642527441227
-506.8461585044861,-4088.0,-8044.0,-15436.0,-8545.0,1856.0,7201.0,0.28043057220559786,0.20117348404173543,-0.5873183142609523,0.7320827284020732
-506.8618986606598,-4524.0,-7440.0,-16384.0,-9526.0,1946.0,7634.0,0.040479691369984507,-0.372202892272173,-0.8718073231306824,0.3158771800977933
-506.8776080608368,-5424.0,-6380.0,-20184.0,-11506.0,1990.0,12069.0,-0.2900750087649145,-0.7811097950714114,-0.4452503588807507,-0.32783546978643907
-506.89336371421814,-6880.0,-7800.0,-22868.0,-14014.0,3850.0,15078.0,-0.31886955413077106,-0.4330732123226564,0.425349442227245,-0.7279063485187843
-506.9090759754181,-10040.0,-10368.0,-24104.0,-11225.0,2572.0,19051.0,0.1701488220005027,0.3431495730649618,0.8178375487217534,-0.4294641926610057
-506.92477011680603,-11388.0,-5976.0,-22028.0,-8491.0,-2205.0,21772.0,0.6131481006647191,0.7406542470977612,0.19807904410219088,0.19038220818883875
-506.94050097465515,-1520.0,-4408.0,-19744.0,-11680.0,8265.0,4827.0,0.6921020577032218,0.037453715662881866,0.08121284699745171,0.7162376940573422
-506.9561913013458,-4844.0,-7080.0,-15360.0,-12004.0,6417.0,29020.0,-0.37971537938729055,-0.2973423571386252,-0.1266820748113714,0.8668075941231124
-506.97197556495667,-12516.0,-12236.0,-9788.0,-9830.0,5297.0,12561.0,-0.8597797995356076,-0.28803178125045575,-0.4056450498331256,0.11518890070697292
-506.9877190589905,-14376.0,-16828.0,-6260.0,-6808.0,-2873.0,2262.0,-0.9578421670433757,0.14241000770867562,-0.16738027580068854,-0.18504490268837517
-507.0034487247467,-7572.0,-15696.0,-3928.0,-87.0,-5024.0,1566.0,-0.9131683174046241,0.04179343572333705,0.21301384732419615,-0.34496671385365735
-507.019150018692,-9428.0,-13740.0,-5968.0,3541.0,-7348.0,-2331.0,-0.690985499735374,-0.405619186693181,0.5630406121937636,-0.20247810637767624
-507.0348415374756,-6200.0,-11692.0,-6904.0,7260.0,-8843.0,-5191.0,-0.0612887857097768,-0.8455075470709291,0.5285194084675765,0.04503229358365658
-507.0505244731903,-2552.0,-9668.0,-8788.0,11105.0,-7745.0,-314.0,0.7213603073589915,-0.574086907277555,0.38129334987617836,0.0684025672006227
-507.0662226676941,-4260.0,-9796.0,-11420.0,13301.0,-7468.0,-2419.0,0.9835694848610083,0.13528097865328842,-0.07775403442554547,-0.09079887331575423
-507.0819284915924,-5356.0,-9528.0,-14044.0,15339.0,-8538.0,-5710.0,0.368809482631283,0.7504578489333812,-0.45602836683349557,-0.3046813271907265
-507.0976529121399,-5824.0,-8132.0,-15452.0,15974.0,-9481.0,-8486.0,-0.6265854901298162,0.6606654548171189,-0.30830894675902076,-0.2754221736142732
-507.11344027519226,-5828.0,-6432.0,-16008.0,16223.0,-10677.0,-10659.0,-0.967282098929597,-0.0900420431956628,0.2297345373523019,0.058989947406550614
-507.1291162967682,-4920.0,-6080.0,-16892.0,16236.0,-11354.0,-11859.0,-0.24486594365961115,-0.7289534603157986,0.5240030312851864,0.36618075527428734
-507.14482951164246,-4716.0,-4444.0,-17312.0,16009.0,-11633.0,-11512.0,0.7490259731902995,-0.5486167605193187,0.2469771051052467,0.27745639498386915
-507.1606237888336,-4004.0,-5044.0,-18924.0,16081.0,-11045.0,-12102.0,0.9155585625077948,0.2272638328017931,-0.296967017276172,-0.14803465664834356
-507.1763322353363,-4092.0,-3708.0,-19932.0,16597.0,-9481.0,-11248.0,0.08957868289655993,0.7906207498792867,-0.48010650223436646,-0.3693131949214843
-507.1920702457428,-3012.0,-2476.0,-18816.0,17084.0,-6515.0,-9765.0,-0.8112715062334048,0.5434940671670723,-0.19734402993049643,-0.08664915451848218
-507.20781421661377,-3420.0,-2184.0,-18556.0,16282.0,-4053.0,-13863.0,-0.8190748148690588,-0.1867665634633795,0.29066445361878396,0.45798348640730524
-507.22350573539734,-4200.0,-1984.0,-17796.0,14736.0,-2607.0,-12622.0,-0.004108882163751872,-0.7355636144463215,0.4345968952281038,0.5196679948275825
-507.23918986320496,-5096.0,-3996.0,-17896.0,13128.0,-1858.0,-16628.0,0.7888791162413412,-0.6103455902521976,-0.017412235901569904,0.06960470141366092
-507.2548863887787,-5052.0,-2828.0,-16900.0,14197.0,-1399.0,-17574.0,0.7451065305360597,0.18156142159574715,-0.43521053467942084,-0.4716391616953582
-507.27056860923767,-3508.0,0.0,-16640.0,13361.0,2597.0,-20916.0,-0.09555732657890917,0.8144218939256468,-0.2024125450580135,-0.5353643036613404
-507.2862813472748,-3396.0,1908.0,-15632.0,12153.0,4174.0,-15770.0,-0.7961771249408152,0.5824931772930858,0.1549528589106408,0.052851638038971575
-507.3020293712616,-4300.0,172.0,-15380.0,9248.0,3080.0,-15179.0,-0.6637284458712662,-0.14976516482131297,0.40497478595104963,0.6107621208713423
-507.31773471832275,-2472.0,-2204.0,-14548.0,8209.0,1155.0,-10793.0,-0.014062320170110443,-0.6880810260660974,0.40882768889131577,0.599338529977045
-507.3334300518036,-816.0,-3132.0,-14780.0,7232.0,1705.0,-11466.0,0.6162899056557317,-0.7680916451254514,0.06203434380860687,0.16239986780648122
-507.3491349220276,240.0,-3712.0,-15004.0,5805.0,4005.0,-11448.0,0.743184752878688,-0.3728897093708115,-0.26441601232654804,-0.488583524240556
-507.36483430862427,-1200.0,-6124.0,-14488.0,5318.0,5873.0,-15448.0,0.21652993155573194,0.3187556827046504,-0.33772007756743244,-0.8587518574604713
-507.38060879707336,-2620.0,-4632.0,-13908.0,6931.0,1873.0,-8867.0,-0.4150006765635364,0.6034677275682923,-0.4075567604517473,-0.5454343473282971
-507.39636039733887,-1500.0,-1704.0,-13808.0,5811.0,-853.0,-3703.0,-0.7932500489282241,0.41422967189391463,-0.39201593636382187,-0.2132877034308959
-507.4121069908142,-24.0,-2776.0,-14624.0,2318.0,2785.0,-5193.0,-0.768671558109833,0.4231549709771884,-0.3854347088663784,0.2855240646449727
-507.42781114578247,-936.0,-6600.0,-15216.0,1930.0,1456.0,2488.0,-0.8162331729885922,0.16650466967102437,-0.504443615899678,0.2271040304987474
-507.44350504875183,-2188.0,-6424.0,-14308.0,1002.0,-382.0,231.0,-0.8481599921521765,0.09227021621000675,-0.4588769161838011,0.24807823505221713
-507.4591865539551,-1880.0,-4444.0,-14156.0,813.0,-3372.0,4219.0,-0.975841020244592,-0.05753256580656453,-0.20398074309547826,-0.053067537402105854
-507.4748766422272,-1596.0,-2648.0,-14068.0,-1981.0,-3413.0,3640.0,-0.9324546409841646,0.02772816270274081,0.10305320624057511,-0.345165942966221
-507.49059534072876,-1856.0,-4752.0,-13860.0,-3703.0,-3881.0,5747.0,-0.5899132487990838,0.2177784132238486,0.4259708039695475,-0.6504796659316494
-507.5062940120697,-1844.0,-4472.0,-14656.0,-4156.0,-4161.0,10258.0,0.15735347443574962,0.40153405603844883,0.47414712125468783,-0.7675902509348345
-507.5220308303833,-3052.0,-4632.0,-15868.0,-7173.0,-1728.0,4628.0,0.6290140287092971,0.3016711488080203,0.6121558407683976,-0.3722916817186291
-507.53774213790894,-4624.0,-2756.0,-17056.0,-5668.0,-2009.0,8316.0,0.8608223225532607,0.27534031702112005,0.34815695130047547,0.2489164037942809
-507.55344343185425,-9000.0,9788.0,-13132.0,-16853.0,2866.0,10187.0,0.47777798179175474,-0.37090314060646884,-0.023518966697284517,0.795993667442617
-507.5691509246826,-12472.0,-18804.0,-10192.0,-25732.0,-2101.0,5579.0,-0.2972388798650155,-0.5211629195711497,-0.6837336276148321,0.4153872723487423
-507.58489203453064,-11044.0,-32768.0,-4788.0,-25102.0,-6849.0,22968.0,-0.8402913926906173,-0.3110363584557841,-0.11642965749819963,-0.4284984176674167
-507.60075759887695,-2212.0,-32768.0,-32768.0,3463.0,-15073.0,-27342.0,-0.6585633874549723,-0.2915304154472854,0.040201161883781464,0.6925952267783536
-507.616512298584,8888.0,11252.0,-16408.0,12017.0,-4563.0,30463.0,-0.713183052644483,-0.1963561408330858,0.5907110643313601,-0.32229588556844135
-507.6322045326233,-648.0,-4324.0,-984.0,-22946.0,13222.0,12755.0,-0.5190178263817428,0.8213382693920098,0.2294559629167031,-0.05808531838664721
-507.6479649543762,-13660.0,-7504.0,-15596.0,3262.0,-11926.0,3635.0,-0.32914623882542565,0.4558159775436365,0.3271971996367244,-0.7594975580164169
-507.6636703014374,2540.0,10116.0,-10660.0,-9964.0,1488.0,9659.0,0.4220415477926911,0.7084847440356987,0.35573789199133177,-0.43975089722135147
-507.6793580055237,-7512.0,-8032.0,-16528.0,-8488.0,5694.0,10244.0,0.7219850639932482,0.5789265620634525,0.16017619524809346,0.34340237271151924
-507.6950511932373,-8748.0,-12704.0,-11168.0,-7164.0,107.0,-4528.0,0.9793475915355572,0.04901107925011527,0.1455835946288181,0.13145959850537398
-507.7107801437378,-6356.0,-8356.0,-11392.0,-7447.0,-703.0,-4252.0,0.8546913103023792,-0.5066412373387104,0.014786688674500708,-0.1122442629248642
-507.7265131473541,-4440.0,-5868.0,-16868.0,-5658.0,-4603.0,-8030.0,0.38611058155638045,-0.7148107378928862,-0.45605541107257885,-0.3632873378396809
-507.74221301078796,3532.0,-3732.0,-16588.0,-5195.0,2529.0,7501.0,0.3086350243456287,-0.8544387037513357,0.2017110065659591,-0.36604862123638415
-507.757919549942,-6376.0,-7468.0,-14588.0,-5389.0,1443.0,3751.0,0.0010483796117643463,-0.7654774205054395,0.5973084738408504,-0.23930275107997045
-507.77361536026,-9344.0,-6508.0,-13344.0,-3278.0,-2946.0,-5282.0,-0.14959964883907467,-0.9453581419458142,0.26805651660247565,0.10983456846972177
-507.78942108154297,-4856.0,-3160.0,-14768.0,-3264.0,-2737.0,-1598.0,-0.3153082710468544,-0.8494701108813996,0.13071347906315958,0.4023620401078998
-507.80512833595276,-2864.0,-5036.0,-15812.0,-2647.0,1065.0,2805.0,-0.5872194181573598,-0.73851152502555,0.20428929232973284,0.26084471890913474
-507.8208382129669,-6512.0,-7300.0,-11404.0,-3821.0,1475.0,1627.0,-0.836947800997251,-0.5109505125451707,0.1367659462003013,0.1405098861135031
-507.8366320133209,-7844.0,-8020.0,-12600.0,-3562.0,-1899.0,-5002.0,-0.7951008554529089,-0.2505836057619036,0.007526470878664075,0.5522371215497272
-507.8523416519165,-2556.0,-4704.0,-13904.0,-4123.0,-405.0,692.0,-0.8622064550667906,0.05188878072313298,-0.13911788585272966,0.4843075439347315
-507.8680839538574,-6356.0,-6528.0,-14364.0,-3743.0,327.0,-2462.0,-0.6863070193098696,0.3255256017235842,-0.2895863146136423,0.5823706073086017
-507.8837978839874,-4640.0,-3940.0,-14768.0,-2269.0,-2626.0,-3979.0,-0.4413360214641877,0.6317232497606949,-0.12247668510135495,0.6254180309813047
-507.899498462677,184.0,-4644.0,-15732.0,-2919.0,1266.0,5012.0,-0.47975819182740975,0.5520084749041423,-0.5388713319966291,0.41801484251241094
-507.91517972946167,-6208.0,-6388.0,-14536.0,-2997.0,1333.0,-589.0,-0.24112753117664132,0.6304637559126055,-0.6488894570522842,0.3511629802750002
-507.93087553977966,-6956.0,-5360.0,-14376.0,-1794.0,-1773.0,-2817.0,-0.14864964149118298,0.8376324704122674,-0.48592696960956216,0.20037492059050732
-507.94655990600586,-3708.0,-3452.0,-14264.0,-2202.0,811.0,2621.0,0.0008112683032730563,0.7082445959781967,-0.6946049194559629,0.12614650204819935
-507.96225690841675,-5664.0,-4040.0,-14572.0,-1984.0,399.0,1329.0,0.12989140310146916,0.6096811960615014,-0.781363720077326,0.029795964764897185
-507.9780161380768,-3332.0,-5068.0,-15148.0,-1764.0,605.0,1961.0,0.25266877619201694,0.44224276573905413,-0.859854283258082,-0.03507758902534146
-507.993727684021,-3660.0,-6392.0,-14176.0,-2188.0,2528.0,2997.0,0.49885125645163725,0.16465068453741727,-0.8502614434823194,-0.03306136333161706
-508.00944352149963,-8212.0,-6308.0,-12420.0,-2161.0,1707.0,-155.0,0.6377511335184637,0.08456530441917316,-0.7463087474944318,-0.1707203983058256
-508.0251383781433,-8312.0,-4596.0,-13772.0,-1725.0,-1026.0,-1832.0,0.5411551759730092,0.0900967352102232,-0.7437236142491097,-0.38198015580697636
-508.0408308506012,-4448.0,-3044.0,-14400.0,-1904.0,-982.0,598.0,0.5027514883942442,-0.0700451490918399,-0.7181329286964326,-0.47604591661725076
-508.05661964416504,-4576.0,-4980.0,-15096.0,-2115.0,1669.0,-3515.0,0.41812292475598295,0.11825607957428766,-0.5398197498335776,-0.7209600246385621
-508.0723307132721,-4840.0,-5732.0,-14168.0,-1590.0,1533.0,1499.0,0.5853392270613526,0.08392987298860594,-0.3890883830164372,-0.706359678835782
-508.0880720615387,-4888.0,-5620.0,-14724.0,-1605.0,1053.0,418.0,0.6491032409958921,0.05200232817604832,-0.23614619617449006,-0.7212459458639741
-508.10383915901184,-5644.0,-4524.0,-13996.0,-2070.0,3201.0,-3069.0,0.48850049599012874,0.18364461803482116,0.08227320962402476,-0.8490424245362562
-508.1195139884949,-7648.0,-4704.0,-12992.0,-1914.0,1405.0,-737.0,0.4440752572922087,0.19648542370548672,0.28927417383911613,-0.8249309646763362
-508.1352128982544,-7372.0,-4840.0,-13396.0,-1510.0,-2215.0,-775.0,0.45670057346962273,-0.0397161552804721,0.3164402728508021,-0.8304894742983593
-508.1508903503418,-3100.0,-3740.0,-15460.0,-2131.0,-1407.0,-503.0,0.44044457667470305,-0.2345173653819896,0.4030852920098736,-0.7671586717084328
-508.1665852069855,-2816.0,-4692.0,-14900.0,-1868.0,2760.0,-4363.0,0.011742560858278265,-0.24809470856736562,0.49166469055865514,-0.8346118618275358
-508.1822888851166,-5724.0,-4600.0,-14172.0,-1401.0,495.0,101.0,-0.032118175688989635,-0.20738934091835168,0.5916772258860702,-0.7783804625192151
-508.19806027412415,-5524.0,-4640.0,-14460.0,-1776.0,-1812.0,796.0,0.08129684809684948,-0.27698871589876695,0.7130590792103418,-0.6389169142462651
-508.21375155448914,-3148.0,-5580.0,-15512.0,-1799.0,300.0,436.0,0.04292455666084636,-0.24267318590812462,0.8153493326901949,-0.5239013962171931
-508.2294533252716,-4796.0,-4340.0,-14628.0,-1556.0,1224.0,724.0,-0.04318912234871355,-0.1386711805970842,0.8915864838345625,-0.42892720271169577
-508.24515891075134,-5256.0,-4856.0,-14208.0,-1488.0,505.0,-937.0,-0.1336714496550566,-0.18466065298447762,0.9224770871428029,-0.3115580371022258
-508.2608757019043,-4540.0,-3352.0,-13336.0,-1865.0,877.0,208.0,-0.22477485347615758,-0.12031977931918547,0.9509912064392501,-0.17497182980289727
-508.27663922309875,-5480.0,-4820.0,-14672.0,-2310.0,899.0,-868.0,-0.3281069072005225,-0.12991131660379854,0.9353636575306591,0.023743113453025242
-508.29238057136536,-5996.0,-4244.0,-15004.0,-1782.0,218.0,-2481.0,-0.3484743434487564,-0.2723176767066497,0.8669841745058527,0.22966749022762453
-508.3080997467041,-3260.0,-3056.0,-14424.0,-1639.0,-2975.0,-49.0,-0.15444606479949904,-0.15971659657812426,0.8854588526784322,0.40816619416463684
-508.3237886428833,1008.0,-5364.0,-15636.0,-2905.0,2925.0,3577.0,-0.4950755038320832,0.046646087561858236,0.7155560432371013,0.49061587520935784
-508.33947253227234,-5280.0,-6232.0,-14892.0,-3156.0,5329.0,-3778.0,-0.5518760396418655,-0.23752325838617652,0.3090051444779825,0.7372457929896684
-508.35515570640564,-8688.0,-5784.0,-12352.0,-3519.0,2703.0,-5063.0,-0.3205622021878807,-0.326543602366715,-0.13158388298923224,0.8793718394509238
-508.37083530426025,-9088.0,-3072.0,-14196.0,-2247.0,-3176.0,321.0,-0.4218573211019023,-0.022650756340015836,-0.19517261711123848,0.885116372800719
-508.3865296840668,-5636.0,-1812.0,-14872.0,-4092.0,-2704.0,-45.0,-0.4343952791440979,0.31022654773091507,-0.37881466902081945,0.7560156592789112
-508.4022572040558,-3980.0,-3908.0,-15632.0,-2178.0,-651.0,-3818.0,-0.13522441292981674,0.5240208518532409,-0.36802087822159124,0.7560933395843391
-508.4180362224579,-1592.0,-228.0,-16256.0,-1589.0,-4400.0,-217.0,-0.17542841581495172,0.7777301682318959,-0.38058291348241263,0.46852673596272165
-508.43372893333435,4244.0,-3748.0,-18584.0,-2195.0,4685.0,2980.0,0.0065566532518627416,0.462047956340996,-0.6601451812162237,0.592179901766552
-508.44942831993103,-4008.0,-3988.0,-15280.0,-2381.0,10810.0,-6267.0,0.7022374020782634,0.17613408877089606,-0.351090128521348,0.5937803765282925
-508.46512484550476,-9880.0,-5496.0,-13080.0,-2432.0,5162.0,-7661.0,0.9945117921409792,-0.0044871254430667385,-0.03313160990377708,0.09913857686581913
