programtime,ax,ay,az,gx,gy,gz,q0,q1,q2,q3
-6.480670690536499,7792.0,-2076.0,-14276.0,0.0,33.0,36.0,0.9999917825429777,-8.495665532134719e-05,0.0025608956810475765,0.0031415668376871806
-6.504171133041382,7872.0,-2092.0,-14376.0,-24.0,59.0,84.0,0.9999153005427348,-0.002261233950586528,0.00738435356175941,0.01047615788482878
-6.527588605880737,7812.0,-2080.0,-14444.0,-33.0,14.0,81.0,0.9997981115136727,-0.005187502791143289,0.008273067290217947,0.01756081963055326
-6.551055908203125,7868.0,-2272.0,-14408.0,-17.0,29.0,64.0,0.9996542982237732,-0.0067630251265771765,0.010489784784156353,0.0231410878969621
-6.574504852294922,7792.0,-2100.0,-14408.0,21.0,16.0,81.0,0.9994642543370034,-0.004978239869523111,0.011657823946170563,0.03017476712784239
-6.597950458526611,7804.0,-1804.0,-14400.0,-7.0,34.0,78.0,0.9991978298747444,-0.005672059004400056,0.014316721644843678,0.03696695824105803
-6.621455430984497,7832.0,-1804.0,-14428.0,240.0,41.0,86.0,0.9987416111565218,0.015154431599156162,0.01838216992719551,0.044131997191939325
-6.644886493682861,7800.0,-2032.0,-14380.0,-7.0,47.0,95.0,0.998274497548883,0.014460055313370359,0.022000147237262603,0.05248740673150531
-6.668331146240234,7856.0,-2284.0,-14356.0,-22.0,66.0,37.0,0.9979919309393317,0.012248067043571904,0.027278684974084148,0.0558387318961052
-6.6917970180511475,7848.0,-2092.0,-14592.0,-13.0,51.0,70.0,0.997524836802246,0.01097530177920701,0.03125746009543188,0.062021882443942904
-6.7152931690216064,7760.0,-1800.0,-14400.0,255.0,34.0,106.0,0.9963333328901353,0.03322252283599354,0.035160053539031816,0.07056857929404087
-6.738716125488281,7872.0,-2136.0,-14376.0,-28.0,255.0,67.0,0.99497172937401,0.029387398018051993,0.05662376587238513,0.07721002345971385
-6.762216567993164,7780.0,-2080.0,-14396.0,-23.0,44.0,105.0,0.9940742508632157,0.02758017516313659,0.0596933495152826,0.08655877617176277
-6.785676717758179,7840.0,-2020.0,-14420.0,-9.0,55.0,90.0,0.9931078457643511,0.026825047931264615,0.0638538822402164,0.0945510719538805
-6.809123277664185,7868.0,-2296.0,-14396.0,3.0,51.0,59.0,0.9923289984072863,0.026953716320156272,0.0678376432034722,0.09977329432830753
-6.8326544761657715,7868.0,-2300.0,-14136.0,-2.0,49.0,62.0,0.9915034725757856,0.02668277123031091,0.07159546203219143,0.10527574937290171
-6.856207370758057,7880.0,-2068.0,-14336.0,-253.0,42.0,83.0,0.9908160432237586,0.004898554117387084,0.07237069723996672,0.11411421839093805
-6.879692792892456,7868.0,-2032.0,-14360.0,-8.0,16.0,97.0,0.9897395402213967,0.004607359565016158,0.0733119594182293,0.1225551768243053
-6.903606653213501,7784.0,-1988.0,-14308.0,3.0,63.0,82.0,0.9884433541498279,0.004668706403936192,0.07843094393149952,0.12963998554290918
-6.927261114120483,7832.0,-2080.0,-14460.0,-30.0,37.0,49.0,0.9876563675928512,0.0019470707435194931,0.08094495768117355,0.13408587656724905
-6.950715065002441,7876.0,-2304.0,-14368.0,-11.0,13.0,39.0,0.9871294425794337,0.0010579896354172167,0.08161563683606018,0.13752538701851547
-6.974235534667969,7852.0,-1808.0,-14332.0,20.0,25.0,72.0,0.9860890345195225,0.0029552905062728233,0.08368314379040105,0.14358556230949748
-6.997741460800171,7844.0,-2056.0,-14324.0,17.0,52.0,45.0,0.9851504487929531,0.0040488510820456776,0.08804211327783727,0.14734580529329955
-7.02124547958374,7784.0,-1796.0,-14404.0,16.0,30.0,78.0,0.9839129365576306,0.005607984127109444,0.09048115444081133,0.15393844380020283
-7.044682502746582,7748.0,-2040.0,-14428.0,-7.0,247.0,91.0,0.9805194852600326,0.0023675878332936754,0.11120980878535004,0.16188981432807417
-7.06817889213562,7852.0,-2268.0,-14112.0,-17.0,7.0,86.0,0.9792454761447473,0.001592737779302503,0.11124611920742015,0.16941092526074572
-7.09167742729187,7828.0,-2024.0,-14556.0,-14.0,53.0,64.0,0.9777954549798812,0.0001941026205180852,0.1152541956949916,0.17502137275075969
-7.1151652336120605,7856.0,-1844.0,-14432.0,-41.0,42.0,84.0,0.9760872429211718,-0.0031295103859656126,0.11790484710233176,0.18259887020752733
-7.138664484024048,7808.0,-2284.0,-14592.0,-245.0,252.0,74.0,0.9718099033061472,-0.02730256913081395,0.13512759355086712,0.19126059451990027
-7.162123441696167,7828.0,-2004.0,-14432.0,4.0,38.0,75.0,0.9701321510442771,-0.02680279918978303,0.13831926389371757,0.1974664546238071
-7.185606002807617,7788.0,-1800.0,-14400.0,20.0,69.0,70.0,0.9681430749089173,-0.025527710367808275,0.14439274609015446,0.20297304595888574
-7.20908522605896,7812.0,-2044.0,-14448.0,-28.0,53.0,18.0,0.9671195679362128,-0.02869194468408906,0.1481503752806688,0.2047143862294865
-7.232581853866577,7840.0,-1800.0,-14340.0,-250.0,63.0,77.0,0.9640759365295875,-0.049987156020888046,0.14889301988451079,0.21421891015317268
-7.25603175163269,7828.0,-2040.0,-14400.0,-16.0,51.0,81.0,0.9618320543214838,-0.05136127397748156,0.152988244303354,0.2209880447447368
-7.279547452926636,7824.0,-2304.0,-14396.0,8.0,38.0,112.0,0.959186280294706,-0.0500675876150467,0.15659102014429102,0.23007426795490496
-7.303049564361572,7832.0,-2068.0,-14588.0,246.0,27.0,83.0,0.9580183402461039,-0.02900002144445198,0.1638799127306939,0.2334592742036648
-7.326507806777954,7820.0,-1804.0,-14376.0,-14.0,65.0,87.0,0.955278119165507,-0.030313158274332418,0.16900799877973272,0.24075116578641237
-7.350008249282837,7860.0,-2056.0,-14364.0,234.0,16.0,114.0,0.953061896448888,-0.009532982296671164,0.17529127640979833,0.24668828954858044
-7.37348198890686,7848.0,-2048.0,-14428.0,24.0,243.0,84.0,0.9473575222858649,-0.01150658423909716,0.1958279619008706,0.25304689847000034
-7.396973371505737,7816.0,-2020.0,-14404.0,27.0,32.0,76.0,0.9451654952731178,-0.008706461676497699,0.19897769285181147,0.2588324976071741
-7.420431852340698,7840.0,-2060.0,-14120.0,6.0,-242.0,77.0,0.9474307776227938,-0.0014214360295805844,0.17899749155111397,0.26520331662913055
-7.443889379501343,7880.0,-1804.0,-14352.0,-5.0,11.0,67.0,0.9457258602587232,-0.0010142414054086979,0.17958862692571312,0.27083111643828267
-7.467349052429199,7796.0,-2028.0,-14376.0,-18.0,44.0,69.0,0.9434142805541594,-0.002444766474568272,0.18259052957312527,0.27681079616512083
-7.490813732147217,7856.0,-2056.0,-14504.0,-15.0,40.0,59.0,0.9413643339469493,-0.0036925079608487246,0.18533246145387283,0.2819067840422156
-7.51424765586853,7816.0,-2040.0,-14560.0,250.0,77.0,69.0,0.9382753171868216,0.016082012069655264,0.19759023639620257,0.2834411694278967
-7.537725925445557,7864.0,-2024.0,-14340.0,252.0,36.0,41.0,0.9360741055921696,0.036598156395064356,0.2065044616899304,0.28245663576990765
-7.561164617538452,7808.0,-2000.0,-14560.0,-22.0,21.0,111.0,0.9329930319566807,0.03640266713640974,0.20719295118672446,0.2920101524333899
-7.58462929725647,7840.0,-2296.0,-14312.0,-255.0,38.0,73.0,0.9310170008891026,0.016084459110148698,0.20336831543121964,0.30263833615268076
-7.608170986175537,7768.0,-2304.0,-14476.0,-255.0,37.0,24.0,0.9298696281563982,-0.005129182357569155,0.19941436490636866,0.30911175517863165
-7.631611585617065,7804.0,-2080.0,-14476.0,-254.0,-254.0,60.0,0.9321114882651763,-0.017811268716757672,0.1717319557312213,0.31836938849629925
-7.655056953430176,7872.0,-2292.0,-14376.0,15.0,15.0,84.0,0.9295887893972007,-0.015762402467313263,0.17326816353044913,0.32495287781813964
-7.678512096405029,7840.0,-2072.0,-14480.0,-245.0,45.0,64.0,0.9265589384928756,-0.035930175619942085,0.16979639153143972,0.333716558477067
-7.7020134925842285,7836.0,-2028.0,-14548.0,-10.0,35.0,58.0,0.9243430001209109,-0.036929481758833246,0.17229233302838515,0.33843992596047784
-7.725464344024658,7832.0,-2060.0,-14400.0,-20.0,53.0,66.0,0.9215455845045952,-0.03914720560024913,0.17596655660973454,0.3438851595063224
-7.748946666717529,7788.0,-2084.0,-14336.0,3.0,20.0,93.0,0.9184649607158898,-0.03811321967384909,0.17776697954868279,0.3512383797442845
-7.77239465713501,7832.0,-2072.0,-14100.0,-35.0,78.0,79.0,0.914709286552111,-0.04210748494259973,0.18298961674146075,0.3578389036591047
-7.795864820480347,7860.0,-2016.0,-14320.0,27.0,54.0,63.0,0.9119902292558271,-0.04065788746312922,0.18817670418209934,0.3622296038869573
-7.819342374801636,7864.0,-2108.0,-14412.0,254.0,25.0,41.0,0.9109908226555314,-0.020576973577588163,0.1981129699872305,0.3611420223660272
-7.842959642410278,7800.0,-2108.0,-14352.0,-27.0,31.0,45.0,0.9090040678243126,-0.022899808777123793,0.19965017783630132,0.3651397128863922
-7.866429328918457,7836.0,-2064.0,-14492.0,-17.0,65.0,43.0,0.9064732102343218,-0.025546557511179967,0.20420012131268075,0.3687221216345686
-7.88996434211731,7836.0,-2064.0,-14084.0,-10.0,31.0,80.0,0.9033262149453324,-0.02588788232474314,0.20635948476472527,0.37516307119560227
-7.913453578948975,7804.0,-2100.0,-14344.0,5.0,50.0,60.0,0.9004768463752905,-0.02602922866195168,0.21046687810302653,0.37969411586017665
-7.9368791580200195,7852.0,-2056.0,-14184.0,0.0,61.0,95.0,0.8961884213429281,-0.02627563544873069,0.21534429622501597,0.3870177496136169
-7.960325717926025,7760.0,-2056.0,-14388.0,-256.0,57.0,77.0,0.891693461894072,-0.04673732518433279,0.21117430654667566,0.3976226913853254
-7.983741760253906,7780.0,-2040.0,-14444.0,6.0,32.0,80.0,0.8883499547006198,-0.045919840467688586,0.21408811273653486,0.4035988184072613
-8.007235288619995,7848.0,-2280.0,-14472.0,-17.0,57.0,62.0,0.8850318955920546,-0.04811021348366849,0.21804677256517216,0.4084844625162656
-8.030721426010132,7816.0,-2076.0,-14288.0,-15.0,45.0,85.0,0.8810708799387387,-0.04926422248572316,0.221246113890149,0.41513527674164385
-8.054178476333618,7840.0,-1804.0,-14456.0,-21.0,43.0,74.0,0.8774576186489157,-0.05099506790873431,0.22403533109895732,0.4210413292579936
-8.077621459960938,7804.0,-2040.0,-14432.0,-34.0,28.0,29.0,0.875698958334122,-0.05406773144070689,0.22499181228705611,0.42380030579646266
-8.101096153259277,7892.0,-2052.0,-14336.0,-50.0,4.0,50.0,0.8735346533700253,-0.057064509831789706,0.22360935096835713,0.4285787083359105
-8.124622583389282,7760.0,-2296.0,-14336.0,-19.0,62.0,81.0,0.8691827743159057,-0.0592855370962977,0.2279472949955173,0.4347948488976559
-8.1480393409729,7856.0,-2016.0,-14392.0,253.0,41.0,68.0,0.8668776006850071,-0.04029529070067535,0.24089399241153456,0.434591301567329
-8.171536922454834,7792.0,-1992.0,-14388.0,-5.0,10.0,73.0,0.8638633802574792,-0.03948348350332291,0.2416978047630074,0.4401855131115831
-8.194964408874512,7756.0,-2008.0,-14112.0,-19.0,4.0,78.0,0.8606969499942257,-0.03938441651858638,0.24151179450925567,0.4464545678107089
-8.218419313430786,7780.0,-2052.0,-14348.0,-22.0,28.0,91.0,0.8564535238111562,-0.04016879762608919,0.24304795955472475,0.45365352264146747
-8.241928577423096,7884.0,-2040.0,-14384.0,249.0,55.0,104.0,0.8517938712395468,-0.02147149666218171,0.25729776698624424,0.4558333410948838
-8.265429258346558,7864.0,-1828.0,-14508.0,-4.0,62.0,52.0,0.8482845220763203,-0.02296751080976839,0.26187304720573085,0.4596829017922433
-8.288860321044922,7816.0,-2300.0,-14388.0,-34.0,49.0,104.0,0.8428619545232928,-0.025004614531338572,0.26436049426038855,0.46805130482001306
-8.31234359741211,7848.0,-1804.0,-14376.0,-56.0,-228.0,60.0,0.845337801932499,-0.018322016826805974,0.245421390257052,0.4741694270275397
-8.335797786712646,7872.0,-2140.0,-14372.0,3.0,28.0,55.0,0.8424444524691287,-0.017977474596355108,0.24768839632541448,0.4781366052049055
-8.359205722808838,7872.0,-2044.0,-14352.0,247.0,68.0,67.0,0.8383272002453084,-0.0010903270669820897,0.26303386006533663,0.4775138793531333
-8.382719039916992,7848.0,-2260.0,-14400.0,-6.0,54.0,92.0,0.8331908846114384,-0.001541332059870972,0.2667640779871428,0.4843836297724763
-8.406221628189087,7828.0,-2108.0,-14372.0,10.0,60.0,64.0,0.8290346250920554,-0.0017252345938844336,0.2715957489840778,0.4888091274698632
-8.429688453674316,7904.0,-2076.0,-14472.0,-11.0,57.0,67.0,0.8247649918074861,-0.0032273090435855456,0.27530794154092425,0.49392087432060805
-8.453139066696167,7776.0,-2040.0,-14556.0,-23.0,41.0,81.0,0.8202157308343155,-0.004569400738241932,0.2773545775596809,0.5002996240009719
-8.476625442504883,7912.0,-2108.0,-14436.0,-18.0,48.0,64.0,0.8161945274009715,-0.006270681469982257,0.2800885823593013,0.5053093686313006
-8.500082969665527,7788.0,-2008.0,-14132.0,-3.0,18.0,70.0,0.8126108702922458,-0.005431151826374917,0.2813413691281958,0.5103735005755979
-8.52352786064148,7820.0,-2036.0,-14404.0,-14.0,29.0,87.0,0.8079486608101246,-0.005442175704262407,0.28288545932908754,0.516880219314786
-8.546966791152954,7804.0,-2136.0,-14484.0,-6.0,69.0,71.0,0.8029664148423137,-0.00709064851794017,0.2875869714377238,0.5220042080272478
-8.57042407989502,7792.0,-2068.0,-14252.0,-24.0,17.0,39.0,0.8006969328872713,-0.008433089946515518,0.2877932612794489,0.5253459273859554
-8.59391474723816,7848.0,-2028.0,-14404.0,-11.0,17.0,48.0,0.7980074286033236,-0.008638856675701655,0.2885998471620632,0.5289798127218862
-8.61737608909607,7816.0,-2016.0,-14392.0,16.0,36.0,55.0,0.7945126661836834,-0.007663327815201521,0.29197627651423,0.5323915388446528
-8.640827894210815,7824.0,-2024.0,-14392.0,-14.0,37.0,97.0,0.7889709408239577,-0.007742571644151272,0.2940425710707312,0.5394477486446748
-8.6642484664917,7816.0,-2064.0,-14400.0,-243.0,36.0,43.0,0.785624573757988,-0.02492485783037509,0.2851435642749115,0.5485124687026856
-8.687708377838135,7864.0,-2020.0,-14368.0,-10.0,27.0,78.0,0.7811333896452736,-0.024839004068073822,0.28676939925496747,0.5540550181246773
-8.711186408996582,7852.0,-2016.0,-14592.0,-24.0,33.0,100.0,0.7753390036592639,-0.025444136448409187,0.2881643771103682,0.5613940835898152
-8.734697103500366,7876.0,-1796.0,-14292.0,-25.0,32.0,97.0,0.7696452065110186,-0.026126913892255303,0.2894084442212343,0.5685124386313134
-8.75812578201294,7720.0,-2040.0,-14328.0,245.0,94.0,64.0,0.7643907964415024,-0.012587452005786154,0.3080469841317349,0.5662643569348773
-8.781614542007446,7816.0,-2300.0,-14400.0,-7.0,86.0,70.0,0.7585193067558879,-0.015295939756893702,0.31362054812270523,0.5710137015000032
-8.80514407157898,7904.0,-2036.0,-14372.0,-7.0,55.0,36.0,0.7551372619212104,-0.017381716538493262,0.31708396560694835,0.5735183958194229
-8.828619718551636,7856.0,-2016.0,-14336.0,-15.0,27.0,82.0,0.7501782589684282,-0.017322570904601223,0.3183618264705738,0.5792911666465089
-8.85218858718872,7800.0,-2004.0,-14552.0,3.0,-255.0,46.0,0.7546861597479204,-0.0028236972266883495,0.3019518906957452,0.582465348947191
-8.875618934631348,7876.0,-1988.0,-14336.0,-254.0,18.0,42.0,0.7517660294490216,-0.019195884052538883,0.2902740198554872,0.5917941773951738
-8.899242877960205,7888.0,-1800.0,-14372.0,252.0,44.0,56.0,0.7479278992461541,-0.0033546291420957367,0.30629894099007265,0.5888748277358389
-8.922723054885864,7908.0,-2024.0,-14096.0,-32.0,54.0,49.0,0.7438778580412096,-0.006745885345902044,0.30829692480873766,0.5929192453449268
-8.946253061294556,7832.0,-2092.0,-14372.0,-11.0,33.0,66.0,0.7394893752849774,-0.007237740129037576,0.3100259148616438,0.5974839002623077
-8.969722747802734,7840.0,-1856.0,-14592.0,-245.0,27.0,57.0,0.7353876116201955,-0.022752007523262712,0.29909095821707604,0.6076446375489519
-8.993200063705444,7876.0,-2012.0,-14376.0,-26.0,34.0,71.0,0.7306062321377538,-0.024223915590094035,0.30014564870064975,0.6128134504406906
-9.016681432723999,7864.0,-2044.0,-14392.0,-9.0,84.0,56.0,0.725304704038224,-0.027678821099822306,0.3052483736831289,0.616433613235321
-9.040177822113037,7796.0,-2044.0,-14388.0,-12.0,38.0,88.0,0.719442265962187,-0.02800132746285795,0.3073411944748446,0.6222219393321706
-9.063659191131592,7860.0,-2096.0,-14508.0,-18.0,48.0,92.0,0.7130222318240216,-0.029133542614816547,0.30972319910409934,0.628348687876504
-9.087123155593872,7844.0,-2032.0,-14128.0,-19.0,60.0,80.0,0.7068743646558454,-0.03130286555680497,0.31273614340721,0.6336756803027179
-9.110629796981812,7832.0,-2144.0,-14660.0,-67.0,69.0,133.0,0.6973151020775529,-0.03548958301994742,0.3137643814144663,0.643462548146541
-9.134105682373047,7760.0,-2304.0,-14528.0,-235.0,116.0,182.0,0.6828612069726672,-0.05118339294567949,0.30821558207638655,0.6603665552280149
-9.157533645629883,7836.0,-1976.0,-14396.0,137.0,69.0,167.0,0.6717942201193098,-0.04237205462161095,0.32105402364322694,0.6661992560067339
-9.180984258651733,7772.0,-2012.0,-14276.0,247.0,-14.0,20.0,0.6717073640583531,-0.02637839904900681,0.33474694911985603,0.6603467855516063
-9.204450607299805,7840.0,-2068.0,-14280.0,-24.0,6.0,69.0,0.6674099137139585,-0.025974011767046806,0.3340271432703702,0.6650678351474287
-9.227950811386108,7920.0,-1816.0,-14248.0,-31.0,68.0,61.0,0.6617138358366889,-0.029796342288144713,0.3364758073357712,0.6693511847500415
-9.251385688781738,7688.0,-2060.0,-14468.0,-20.0,39.0,127.0,0.6529725163893482,-0.02936388050995049,0.33803885901560693,0.6771221345938903
-9.274906158447266,7848.0,-2072.0,-14580.0,-248.0,68.0,105.0,0.6438579950598102,-0.04426779653543598,0.32760148005855794,0.6900467481634132
-9.298341035842896,7816.0,-2020.0,-14348.0,8.0,26.0,37.0,0.6408370452999594,-0.044193303514907634,0.32985017433967995,0.6917902108180917
-9.321871519088745,7844.0,-2036.0,-14332.0,-42.0,60.0,27.0,0.6372275737071215,-0.04925466270367265,0.3309326772630707,0.6942611616882935
-9.345293521881104,7780.0,-2068.0,-14404.0,3.0,254.0,92.0,0.6240785675073911,-0.06168219463297091,0.34571257123575244,0.6980000476595599
-9.368804216384888,7812.0,-1796.0,-14372.0,2.0,43.0,80.0,0.6178167291755764,-0.06166686912152111,0.3487838857035042,0.7020323977403795
-9.392235517501831,7780.0,-2032.0,-14148.0,-24.0,12.0,85.0,0.6120156401091363,-0.061000709462647525,0.3485897514564978,0.7072488634747707
-9.415710210800171,7788.0,-2044.0,-14360.0,-4.0,9.0,82.0,0.6065618543847288,-0.05916641028648522,0.3494374706279281,0.7116709259344001
-9.439153671264648,7828.0,-2104.0,-14556.0,6.0,38.0,67.0,0.6011763675783214,-0.05905592427455597,0.352348421436821,0.7148076404071192
-9.462599039077759,7848.0,-2068.0,-14356.0,-249.0,23.0,84.0,0.59370690197831,-0.07084341015542604,0.3385509433889097,0.7265511575321774
-9.486115217208862,7820.0,-1808.0,-14592.0,-24.0,41.0,83.0,0.5869818189265125,-0.07212265967643984,0.33984756582934733,0.7312689643426601
-9.509583473205566,7832.0,-2056.0,-14300.0,-4.0,26.0,100.0,0.5797003732796688,-0.07091124570537882,0.34172369213893006,0.7363042785987745
-9.533080101013184,7892.0,-1832.0,-14436.0,-24.0,22.0,61.0,0.5748827499945611,-0.07160419659765628,0.341856342331013,0.7399438519214524
-9.55651330947876,7812.0,-2120.0,-14396.0,-44.0,13.0,85.0,0.5686304879032442,-0.07200576968775892,0.34037364083835464,0.7453994378727654
-9.579996109008789,7832.0,-2056.0,-14508.0,249.0,33.0,61.0,0.5650192934730981,-0.059856151839890466,0.3586930404427054,0.7406144353359909
-9.603436708450317,7844.0,-2004.0,-14364.0,13.0,52.0,80.0,0.5581797234978907,-0.05995054337217319,0.3626978967941541,0.7438357105478983
-9.626891851425171,7856.0,-2076.0,-14404.0,247.0,56.0,86.0,0.5518739456434437,-0.04869898941353791,0.38200358257258765,0.7396869739638152
-9.650301694869995,7820.0,-2076.0,-14360.0,13.0,42.0,71.0,0.5458347210997662,-0.0482949248133593,0.38535952574371374,0.7424487143215971
-9.673787593841553,7816.0,-1816.0,-14284.0,-24.0,28.0,66.0,0.5404044160919849,-0.04890586140730126,0.3856141043706176,0.7462392687997175
-9.697267055511475,7792.0,-2024.0,-14376.0,-29.0,254.0,57.0,0.5277832927629604,-0.06476087033248973,0.39605138110672916,0.7485947696033671
-9.72079610824585,7784.0,-2060.0,-14464.0,234.0,29.0,96.0,0.5216018601295517,-0.05244274887459405,0.41332881589572545,0.7445404942312442
-9.744235754013062,7836.0,-1816.0,-14344.0,-6.0,16.0,69.0,0.5163978768019735,-0.05115194842103939,0.41419062423299746,0.7477719156297761
-9.767700672149658,7820.0,-2036.0,-14368.0,-22.0,60.0,94.0,0.5078662306190638,-0.05254722314459565,0.41607208651979105,0.7524591018491593
-9.791157007217407,7844.0,-2080.0,-14388.0,-28.0,28.0,52.0,0.503193661671082,-0.05362729183200482,0.4159205389841719,0.7555993367360307
-9.814603567123413,7836.0,-2044.0,-14348.0,252.0,28.0,102.0,0.4963813035347188,-0.0405797823071804,0.43433628141402086,0.7505403902632527
-9.838124752044678,7868.0,-1844.0,-14348.0,-18.0,27.0,94.0,0.4890059634994282,-0.03944345942087198,0.43486057667550626,0.7551249300773721
-9.861670732498169,7816.0,-2084.0,-14360.0,12.0,45.0,56.0,0.4835282118013836,-0.0396530386524753,0.4379720689269087,0.7568411800091648
-9.885132312774658,7828.0,-2020.0,-14352.0,-7.0,49.0,46.0,0.4784724641761459,-0.041307761882866376,0.4399464251676937,0.7588181025882303
-9.908687829971313,7832.0,-2068.0,-14276.0,-5.0,2.0,115.0,0.4706258078044232,-0.037114067378470714,0.4403076421163784,0.7637166197778963
-9.93217134475708,7824.0,-2060.0,-14268.0,-9.0,27.0,63.0,0.4652390028967483,-0.0367398310996331,0.4412293132771125,0.7664982375057477
-9.955662965774536,7900.0,-2096.0,-14312.0,14.0,25.0,67.0,0.4597169542606651,-0.0351396039486902,0.44360234050417463,0.7685326887640141
-9.979140043258667,7856.0,-2016.0,-14140.0,232.0,63.0,31.0,0.45569212385072816,-0.02872373347662542,0.4618974439843414,0.7603751617697073
-10.002593994140625,7836.0,-2072.0,-14380.0,-22.0,43.0,73.0,0.4489284041351687,-0.029387417435080793,0.46253580664657645,0.7639766326445776
-10.026095628738403,7804.0,-2092.0,-14088.0,-12.0,49.0,56.0,0.4430586615180369,-0.030740609517961266,0.46400566229288775,0.7664546840749611
-10.049591779708862,7800.0,-1840.0,-14416.0,-27.0,21.0,61.0,0.4379281725595002,-0.030596067667799647,0.46338934433888446,0.7697747150141675
-10.073031902313232,7860.0,-2052.0,-14440.0,-255.0,34.0,79.0,0.4303303773355318,-0.03929926313964417,0.44786630801218613,0.7827433196179151
-10.096497535705566,7796.0,-2028.0,-14220.0,-24.0,52.0,82.0,0.4224833554907603,-0.04042256728530945,0.44866401390588373,0.7864950305076273
-10.120018005371094,7788.0,-2300.0,-14424.0,248.0,22.0,53.0,0.4186412589463604,-0.030585521608009602,0.46678928742351855,0.7784033551587612
-10.143492698669434,7856.0,-2068.0,-14104.0,-22.0,13.0,101.0,0.41105589565404677,-0.028030587178557376,0.4662378795808898,0.7828598702669529
-10.166947841644287,7832.0,-1804.0,-14432.0,255.0,33.0,88.0,0.4040882373124723,-0.01742203649710257,0.48514471614607546,0.7752701293778427
-10.190409421920776,7892.0,-2060.0,-14384.0,248.0,29.0,59.0,0.3990202958713506,-0.008008759254928865,0.5031284150428265,0.7665379711628312
-10.213937044143677,7844.0,-2036.0,-14424.0,-21.0,27.0,72.0,0.39286702593072265,-0.007256824935921395,0.5029209920460133,0.7698527873481086
-10.237454414367676,7824.0,-2044.0,-14460.0,-7.0,61.0,83.0,0.38446609734689136,-0.007823497646320997,0.5047937114904157,0.7728569865862374
-10.260939598083496,7840.0,-2060.0,-14444.0,-16.0,15.0,77.0,0.3784649213804297,-0.005850914475352707,0.5044775748025843,0.7760363693832979
-10.284421443939209,7788.0,-2100.0,-14104.0,10.0,254.0,56.0,0.3632729994282942,-0.020121644407464757,0.5136573458799071,0.7770353777894025
-10.307888269424438,7868.0,-2044.0,-14528.0,-20.0,0.0,50.0,0.35971744506424996,-0.018393674770165337,0.5126063120558024,0.7794227359305391
-10.3313570022583,7872.0,-2028.0,-14452.0,254.0,27.0,72.0,0.3537964507415338,-0.008909291768622655,0.530925123633875,0.7699787068856059
-10.354783058166504,7800.0,-2080.0,-14392.0,-17.0,70.0,99.0,0.3437377094330689,-0.009428395946803272,0.5322107611301036,0.7736324697173027
-10.378254652023315,7872.0,-2288.0,-14344.0,-13.0,64.0,81.0,0.3351431656926595,-0.010254767044677565,0.5335155129640744,0.7764889539903594
-10.401702880859375,7856.0,-2052.0,-14556.0,-23.0,16.0,94.0,0.32786662613905804,-0.00751220342643814,0.5327110169338487,0.780170503608779
-10.425189971923828,7856.0,-2100.0,-14444.0,-25.0,57.0,105.0,0.31790414707434006,-0.007101214258606169,0.532898514140044,0.7841592310598168
-10.448677062988281,7800.0,-1816.0,-14564.0,12.0,0.0,54.0,0.31408350568427557,-0.004129833129301949,0.5339705294314738,0.7849904264601393
-10.472170114517212,7840.0,-2076.0,-14464.0,10.0,24.0,66.0,0.308312870723594,-0.0022960400767668985,0.5355472546660123,0.7862105570175458
-10.495665550231934,7880.0,-1796.0,-14372.0,-19.0,48.0,33.0,0.30366717415962363,-0.004426505969314845,0.5357550242895565,0.7878662369535258
-10.519166469573975,7828.0,-2064.0,-14400.0,-8.0,42.0,84.0,0.2957863586766532,-0.00347002225130309,0.5365526406966904,0.7903224991911783
-10.542622089385986,7780.0,-2060.0,-14420.0,4.0,21.0,78.0,0.2892895628007032,-0.0010336865027509574,0.5376018439150392,0.792019404917545
-10.56610918045044,7828.0,-2136.0,-14116.0,-42.0,72.0,48.0,0.2824521974996405,-0.004686141655024467,0.5367199109473518,0.795066370434997
-10.58959174156189,7836.0,-2076.0,-14268.0,-256.0,44.0,54.0,0.2763401788027637,-0.011386599583756115,0.5201460204533431,0.808056042818644
-10.61307406425476,7812.0,-2084.0,-14368.0,-27.0,43.0,72.0,0.2691528166579732,-0.011669082821262914,0.519558438405856,0.8108511718388635
-10.636600255966187,7832.0,-1844.0,-14456.0,-40.0,38.0,56.0,0.26329685499325134,-0.012624369394960006,0.5178910066055832,0.813820801359303
-10.660015106201172,7820.0,-2008.0,-14524.0,-14.0,20.0,68.0,0.25742101924238575,-0.011159872182510739,0.5176463400621553,0.8158750778920365
-10.683544635772705,7776.0,-2040.0,-14376.0,-250.0,14.0,63.0,0.2518753943646989,-0.014788981963025718,0.5003208665704498,0.8282627012007234
-10.706960916519165,7816.0,-2304.0,-14372.0,-9.0,41.0,85.0,0.24380325003222128,-0.014100230252694839,0.500887555283263,0.8303449980236548
-10.730437517166138,7844.0,-2044.0,-14576.0,-254.0,54.0,116.0,0.23253567773866332,-0.018202543277848555,0.4838521767055608,0.8434944558763439
-10.753940105438232,7796.0,-1852.0,-14460.0,10.0,-249.0,97.0,0.2357465477893719,0.004570423742638764,0.47978704206095046,0.8451077272765939
-10.777445793151855,7832.0,-2072.0,-14468.0,-9.0,28.0,67.0,0.22951573234263367,0.005284300468950347,0.47988414585553096,0.8467619567105538
-10.800895929336548,7840.0,-2020.0,-14388.0,-247.0,33.0,83.0,0.22194108581808808,0.0015340972274966581,0.4623551701056142,0.8584681110257929
-10.82434606552124,7752.0,-2120.0,-14448.0,0.0,24.0,95.0,0.21373547179528582,0.003732863882375734,0.46301241916329233,0.8601876036797078
-10.847926616668701,7800.0,-1796.0,-14384.0,-3.0,58.0,57.0,0.20699621483578795,0.0017927839048584241,0.46406223921250817,0.8612755604953617
-10.871407270431519,7860.0,-2020.0,-14340.0,243.0,47.0,93.0,0.19789834474404683,0.006581187913295337,0.4832524121852386,0.8527954263657638
-10.894907712936401,7856.0,-2052.0,-14120.0,-10.0,38.0,82.0,0.19007798210511234,0.007202219099777652,0.48332142970009784,0.8545284573093753
-10.918416261672974,7808.0,-2296.0,-14488.0,-17.0,54.0,76.0,0.18202484962618798,0.006259147442156662,0.4831063854586343,0.8564087794511184
-10.941944599151611,7812.0,-2028.0,-14348.0,-8.0,14.0,39.0,0.17841092529643834,0.0068920996669778875,0.4829289934222791,0.8572640363442254
-10.965476036071777,7832.0,-2296.0,-14360.0,-255.0,-1.0,65.0,0.17358725763715555,0.005896948046232495,0.46389638064543715,0.8686960561748945
-10.988954782485962,7832.0,-2156.0,-14592.0,-11.0,43.0,83.0,0.16544574715999938,0.005998302948569832,0.46387832019190733,0.870292266519898
-11.012444496154785,7844.0,-2048.0,-14380.0,-30.0,57.0,83.0,0.15673494653787803,0.004765932068493586,0.46258218980287497,0.8725990832578636
-11.03588604927063,7816.0,-2284.0,-14348.0,-252.0,85.0,80.0,0.14716644488317285,-0.0017541095469405905,0.4446132716062484,0.8835485268573163
-11.059364557266235,7856.0,-2068.0,-14368.0,-14.0,42.0,60.0,0.1408008766450773,-0.0026699945137401673,0.4442964984361798,0.8847421125631039
-11.08279824256897,7792.0,-2128.0,-14468.0,-19.0,54.0,61.0,0.13388625661834044,-0.004535280273870256,0.4437206931613871,0.8860958458214007
-11.106258869171143,7844.0,-2048.0,-14404.0,-14.0,43.0,79.0,0.12599973835562067,-0.0047917249947284505,0.4433831942807136,0.8874189812795988
-11.129753589630127,7784.0,-2044.0,-14344.0,11.0,33.0,68.0,0.11935663635814904,-0.004422339800981632,0.4448425123701207,0.8876089090676097
-11.15321969985962,7856.0,-2060.0,-14432.0,3.0,62.0,60.0,0.1121984622900784,-0.0066913655428226795,0.4459573741431412,0.8879688908595101
-11.176645755767822,7844.0,-2060.0,-14340.0,248.0,10.0,89.0,0.10492763713819898,-0.001401561338036601,0.4654268577014209,0.8788435962789918
-11.200154781341553,7800.0,-2112.0,-14468.0,11.0,-253.0,74.0,0.10939931152234073,0.021270672244941183,0.4640661894623398,0.8787615836724941
-11.223608493804932,7856.0,-2304.0,-14324.0,-8.0,30.0,57.0,0.10372262754222572,0.021382221889946665,0.46384315731523273,0.8795646323804874
-11.247051477432251,7836.0,-2064.0,-14332.0,-19.0,35.0,98.0,0.0947120346367642,0.022669802160154056,0.4627185294691978,0.8811397579560503
-11.270536184310913,7812.0,-2096.0,-14432.0,-9.0,19.0,76.0,0.08801527475511321,0.024383065973531744,0.46224248169764387,0.8820377914905436
-11.294072151184082,7832.0,-2024.0,-14340.0,-247.0,7.0,73.0,0.08251824727926292,0.025067791476774008,0.44323740032261544,0.8922460152063919
-11.317578315734863,7900.0,-2084.0,-14568.0,-2.0,6.0,93.0,0.07494867123729725,0.028371795694857156,0.4431250824294644,0.8928705948852236
-11.341039657592773,7884.0,-2072.0,-14324.0,5.0,42.0,90.0,0.06619897331437051,0.028803564814698215,0.4437659064886942,0.893230021228774
-11.36449384689331,7848.0,-2044.0,-14084.0,-33.0,42.0,76.0,0.0586317648814672,0.028474941024912447,0.4414461211689613,0.8949172118053104
-11.387961626052856,7812.0,-2300.0,-14412.0,-32.0,65.0,90.0,0.04908050898190304,0.026892869576568758,0.4392501581850341,0.8966198613339087
-11.41150951385498,7808.0,-2076.0,-14320.0,-12.0,5.0,75.0,0.04295378130313398,0.02951684473035495,0.4383652020426505,0.8972846138138293
-11.435019969940186,7820.0,-2060.0,-14312.0,22.0,42.0,113.0,0.032346919487092944,0.030825524368686293,0.4401463418521745,0.896813615865214
-11.458506107330322,7800.0,-2120.0,-14376.0,252.0,24.0,102.0,0.02266602963983514,0.033760021740850917,0.45974767000368466,0.887118138670722
-11.481979608535767,7836.0,-2068.0,-14276.0,-24.0,26.0,55.0,0.01734291655991345,0.03409406602492909,0.45799029646623307,0.8881338335238983
-11.505460977554321,7812.0,-2056.0,-14276.0,-252.0,41.0,64.0,0.011399314828197452,0.033272868799178665,0.43843552306161165,0.8980741973473079
-11.528972625732422,7748.0,-2044.0,-14148.0,251.0,52.0,61.0,0.003810055017895482,0.031967933664801954,0.45807662982505526,0.888329519888922
-11.552416324615479,7828.0,-2288.0,-14396.0,19.0,14.0,61.0,-0.0016211680883470505,0.03351475666567845,0.45959532780660506,0.8874943760712002
-11.575884580612183,7816.0,-1796.0,-14368.0,-6.0,14.0,64.0,-0.007209512393920348,0.035183427884634126,0.45915646303905505,0.8876291409044621
-11.599339485168457,7804.0,-2024.0,-14428.0,-12.0,15.0,69.0,-0.01320546237258635,0.03698020900113629,0.4582177664313727,0.8879721608431216
-11.62279748916626,7884.0,-2276.0,-14408.0,-22.0,240.0,77.0,-0.02877932363841471,0.02167129613668961,0.45609563372849554,0.889201258629605
-11.64623475074768,7868.0,-2008.0,-14424.0,-28.0,65.0,85.0,-0.037992143658888484,0.020262555734676904,0.4538035510663091,0.8900608759488923
-11.669729948043823,7864.0,-2052.0,-14432.0,-10.0,1.0,69.0,-0.04345565505982955,0.023133001264381926,0.4531190476298623,0.8900896578271369
-11.693215608596802,7804.0,-1996.0,-14404.0,-25.0,17.0,63.0,-0.049051633997451924,0.02458140507428863,0.4512034852051527,0.8907329042229647
-11.716679334640503,7856.0,-2052.0,-14376.0,-13.0,44.0,74.0,-0.05658808113194351,0.024315603648953306,0.45005777028840194,0.8908729111921764
-11.740175008773804,7908.0,-1988.0,-14552.0,-11.0,49.0,26.0,-0.06058922977942576,0.02176603664993866,0.4491266905400926,0.8911455552982315
-11.763600826263428,7844.0,-1812.0,-14416.0,-46.0,30.0,73.0,-0.06743096597325397,0.022719734677014602,0.4454665829456804,0.8924664710580557
-11.78704309463501,7816.0,-2104.0,-14424.0,20.0,57.0,140.0,-0.0806609419779492,0.02378892852859462,0.44659748498123875,0.8907741496738236
-11.810498476028442,7816.0,-2300.0,-14336.0,34.0,46.0,94.0,-0.08990422145814943,0.023823676117747123,0.44892486427168715,0.8887160005642343
-11.834107398986816,7856.0,-2112.0,-14252.0,14.0,28.0,37.0,-0.09397439991832143,0.023178042904309443,0.44993556925903144,0.8878004133827989
-11.85766339302063,7764.0,-2040.0,-14328.0,-4.0,32.0,104.0,-0.10334925227925268,0.0249975843781835,0.4493603545284864,0.8870001829800308
-11.881136894226074,7808.0,-2036.0,-14356.0,-10.0,11.0,60.0,-0.10847369043406144,0.026773354785600362,0.448577243411745,0.8867328248408648
-11.904654026031494,7756.0,-2112.0,-14440.0,-6.0,14.0,49.0,-0.11286908174879488,0.02784932869927643,0.44808916836341345,0.8863978127633033
-11.928183317184448,7864.0,-2040.0,-14280.0,-23.0,35.0,55.0,-0.11850526421010454,0.027705821935436192,0.4460497721198202,0.8866952636488095
-11.951687097549438,7824.0,-1844.0,-14284.0,246.0,47.0,67.0,-0.12614999536985327,0.02431215011664347,0.4645443949402532,0.8761812615860293
-11.975145101547241,7852.0,-2048.0,-14384.0,-13.0,39.0,20.0,-0.12930071104134602,0.022462856460737833,0.46330435309078305,0.8764278764456079
-11.99860668182373,7804.0,-2296.0,-14412.0,-244.0,37.0,64.0,-0.1352495992015738,0.025147174724862997,0.44421972891813544,0.8852931706271482
-12.022107124328613,7816.0,-2032.0,-14380.0,-247.0,56.0,48.0,-0.14061846157620847,0.02577552076502164,0.42449457001893376,0.8940729449086762
-12.045588731765747,7880.0,-2292.0,-14456.0,249.0,43.0,38.0,-0.1457657405259202,0.02096119787308734,0.44342279046378535,0.8841318939897855
-12.069058418273926,7828.0,-2020.0,-14380.0,-12.0,48.0,89.0,-0.1545269009254236,0.021036680307226666,0.44193687624836236,0.8833859249410053
-12.09248423576355,7844.0,-2080.0,-14356.0,-19.0,47.0,48.0,-0.1600659476230748,0.019704625988312383,0.4399727129350405,0.8834107945903583
-12.115993976593018,7860.0,-2080.0,-14140.0,-18.0,52.0,42.0,-0.165330487926046,0.017745350956213848,0.43800824125975923,0.8834589480389617
-12.139437437057495,7836.0,-1844.0,-14448.0,-18.0,20.0,95.0,-0.17344525467515545,0.020274477558463663,0.4364027477042247,0.882642810533573
-12.162906646728516,7808.0,-2056.0,-14404.0,-14.0,47.0,72.0,-0.18081098495605774,0.019791426554781996,0.4347052923432542,0.8820130361638158
-12.186355113983154,7888.0,-2008.0,-14504.0,-31.0,33.0,90.0,-0.18898786408327753,0.021337494187602293,0.4318592744128651,0.881660856381085
-12.209847688674927,7860.0,-2100.0,-14112.0,254.0,46.0,95.0,-0.19850438029280273,0.0173724893444722,0.45056424603282696,0.8702218497690212
-12.233304262161255,7860.0,-2052.0,-14356.0,-14.0,20.0,87.0,-0.20592609687167673,0.01969428222852946,0.44924257805841733,0.8691304182538583
-12.256816625595093,7896.0,-2064.0,-14480.0,-13.0,54.0,98.0,-0.21549764659363982,0.019851725298564018,0.4473300799696327,0.8677917220564131
-12.280258417129517,7856.0,-2036.0,-14448.0,-20.0,35.0,56.0,-0.22111842306418714,0.019941220354318244,0.4452870892807403,0.8674263074361266
-12.303698778152466,7840.0,-1808.0,-14364.0,-249.0,1.0,38.0,-0.22359763030781638,0.026317663735240505,0.42648816169066006,0.8760247303780694
-12.327208757400513,7860.0,-2056.0,-14396.0,-10.0,58.0,90.0,-0.23265415878775492,0.02561476049585653,0.42459848297797653,0.8746039416194642
-12.350702285766602,7872.0,-2040.0,-14332.0,-15.0,48.0,51.0,-0.23833653031385094,0.0243326549173214,0.4225892106163331,0.8740835081920342
-12.374174356460571,7788.0,-2280.0,-14384.0,2.0,16.0,85.0,-0.24545637576567722,0.02639295932743667,0.4224478783833722,0.8721194696504064
-12.39762020111084,7848.0,-2076.0,-14376.0,14.0,-6.0,63.0,-0.2501046682961921,0.029059352884635785,0.4237222349596072,0.8700934872226165
-12.421098470687866,7836.0,-2296.0,-14376.0,-4.0,49.0,78.0,-0.25786751505255034,0.028499367261083434,0.4223679182545739,0.8685030065438105
-12.44457721710205,7860.0,-2092.0,-14440.0,-256.0,29.0,65.0,-0.2632007492103518,0.03463635510176343,0.40227755742367416,0.8761840305059301
-12.46802282333374,7780.0,-2272.0,-14344.0,-244.0,23.0,53.0,-0.26730419715388654,0.04053087644894643,0.3830703627213426,0.8832682556521181
-12.4915030002594,7836.0,-2044.0,-14572.0,-249.0,29.0,51.0,-0.2712984720986262,0.04599998162919002,0.3631592027372571,0.8901665766553499
-12.514942407608032,7852.0,-2016.0,-14304.0,243.0,27.0,65.0,-0.2781505669737681,0.040412078451985384,0.3812625057404213,0.8807031439275648
-12.538411140441895,7836.0,-2108.0,-14408.0,-16.0,31.0,129.0,-0.2890600869453416,0.04291101262683782,0.37902573051035626,0.8780332606123653
-12.561913013458252,7784.0,-1828.0,-14448.0,-20.0,-249.0,78.0,-0.2866851223044626,0.06525752619431528,0.3836095008887636,0.8754409441830712
-12.58534049987793,7784.0,-2128.0,-14348.0,-27.0,21.0,70.0,-0.29261122849409,0.06688164879835275,0.38083225525617875,0.8745697841622965
-12.608824491500854,7816.0,-2292.0,-14344.0,12.0,34.0,64.0,-0.2987253735108951,0.06632030062885864,0.3807140948648642,0.8725947208850744
-12.632322311401367,7888.0,-1796.0,-14580.0,-15.0,37.0,74.0,-0.3055255898865012,0.06655746129531515,0.3783912956090519,0.8712314535631341
-12.655781030654907,7816.0,-2040.0,-14424.0,-31.0,28.0,60.0,-0.31085718012167896,0.06744545590713452,0.3751515317218728,0.8706780416956714
-12.679223537445068,7892.0,-2276.0,-14324.0,-28.0,27.0,68.0,-0.3167683872764485,0.06859350240166377,0.37209828338865225,0.8697675481125798
-12.702684879302979,7840.0,-1976.0,-14384.0,-252.0,52.0,66.0,-0.32190187566919815,0.07394787105744337,0.35126530178820703,0.8760842325749069
-12.726239204406738,7864.0,-2100.0,-14152.0,1.0,13.0,75.0,-0.32806269664139,0.07544604073832455,0.3506959505523345,0.8738965111931074
-12.749700784683228,7868.0,-2052.0,-14572.0,-28.0,47.0,69.0,-0.3345955508326381,0.07499272284465465,0.34696513641962456,0.8729473655339478
-12.773157358169556,7776.0,-2088.0,-14368.0,-13.0,12.0,63.0,-0.33969333176684285,0.07658570558055759,0.34541987483879416,0.8714517658024578
-12.796607255935669,7808.0,-2044.0,-14580.0,-14.0,22.0,54.0,-0.3443888024138544,0.0771745630835745,0.3435520562143654,0.870294446871685
-12.820064306259155,7860.0,-2300.0,-14416.0,-29.0,51.0,104.0,-0.353627328447938,0.07751178154569273,0.3393081534080033,0.8682220990779018
-12.843692064285278,7852.0,-1984.0,-14244.0,-5.0,15.0,63.0,-0.3588271967997549,0.07861614756622531,0.33824761333381087,0.8664012328319115
-12.867142677307129,7840.0,-2088.0,-14408.0,-25.0,39.0,46.0,-0.3633004222012831,0.07802988263738872,0.33502797383027383,0.8658408614723296
-12.890583992004395,7880.0,-2048.0,-14356.0,-1.0,34.0,67.0,-0.36936271644443613,0.07767320776229836,0.3336235653572829,0.8638480034907743
-12.914422035217285,7844.0,-2012.0,-14344.0,-254.0,14.0,68.0,-0.3730965793330885,0.08698417934063972,0.31369584486046476,0.8688081560112468
-12.937943935394287,7732.0,-2064.0,-14564.0,-15.0,19.0,66.0,-0.3785165896705555,0.08806733879659619,0.31164076324790824,0.8670924805715473
-12.961471557617188,7824.0,-2104.0,-14468.0,-237.0,62.0,109.0,-0.3865410058867183,0.09437517872953205,0.2909493562168439,0.8700734730612449
-12.9849374294281,7828.0,-2036.0,-14340.0,-7.0,46.0,108.0,-0.3958448928727833,0.09409533254358077,0.288160901612195,0.8668426523666763
-13.0084228515625,7884.0,-2072.0,-14384.0,-253.0,36.0,88.0,-0.4012320123435493,0.10253585945703544,0.26718249249444986,0.8701222819239868
-13.031898021697998,7884.0,-2104.0,-14564.0,-43.0,26.0,45.0,-0.4048743046795315,0.10336260571689428,0.2627911536487127,0.8696745245858695
-13.055403232574463,7812.0,-2052.0,-14472.0,-1.0,45.0,82.0,-0.4121164246347999,0.10210848267188331,0.2605677637601116,0.8670861265190036
-13.078890800476074,7844.0,-2088.0,-14384.0,21.0,73.0,42.0,-0.4171391827667894,0.09703129614911042,0.25934020596723795,0.8656341532871433
-13.102339506149292,7876.0,-2048.0,-14320.0,-41.0,97.0,65.0,-0.42388269441530285,0.09291013654930187,0.2523402642916569,0.8648789273180552
-13.125850677490234,7852.0,-2064.0,-14592.0,-256.0,26.0,71.0,-0.4276315556180011,0.1022005462208331,0.23161392776432776,0.867779516615524
-13.149301528930664,7744.0,-2044.0,-14460.0,-5.0,36.0,50.0,-0.4321008513820843,0.10092633781531152,0.22962696644771097,0.866241412569319
-13.172812461853027,7876.0,-2304.0,-14440.0,-6.0,82.0,43.0,-0.43693540578159606,0.09607298070661915,0.22587501128720874,0.8653542123481117
-13.196260213851929,7888.0,-2056.0,-14112.0,-10.0,12.0,70.0,-0.4423718606973664,0.09718351472222786,0.2242542850105748,0.862886155285725
-13.219690799713135,7892.0,-2100.0,-14444.0,-14.0,29.0,36.0,-0.4455329895965137,0.09650120275270714,0.22195742095873042,0.8619296817779409
-13.24321436882019,7768.0,-2024.0,-14508.0,-7.0,46.0,74.0,-0.4519223203022101,0.09499996268271899,0.2191992288381052,0.8594724670283095
-13.266715288162231,7800.0,-1796.0,-14404.0,-19.0,58.0,31.0,-0.4551942676600411,0.09224349065160006,0.215416636454985,0.8590023223835126
-13.290167331695557,7864.0,-2000.0,-14120.0,-37.0,43.0,52.0,-0.45959689547863664,0.09172277469193664,0.21069703015635866,0.8578836679599989
-13.3136305809021,7792.0,-2076.0,-14524.0,-30.0,12.0,70.0,-0.4648106050235666,0.09357048127158872,0.20758988365606643,0.8556296551054609
-13.337136030197144,7748.0,-2032.0,-14384.0,-250.0,25.0,64.0,-0.46788385810149336,0.1032354882662166,0.18752379014800605,0.8574741730332314
-13.360638856887817,7872.0,-2096.0,-14400.0,-9.0,81.0,60.0,-0.4736000670375341,0.09878809138943653,0.1831672488788271,0.8558000049309638
-13.384094953536987,7836.0,-1984.0,-14340.0,-252.0,32.0,81.0,-0.4778588252479005,0.10834473570574736,0.16245798811752712,0.8564576834113602
-13.407537937164307,7792.0,-2056.0,-14428.0,244.0,27.0,32.0,-0.4828238759757215,0.09685860153347753,0.17938443352734398,0.8516576431318127
-13.431033849716187,7796.0,-2100.0,-14364.0,-10.0,59.0,58.0,-0.48796016703200185,0.09406861623988105,0.17583365957970326,0.8497814395405585
-13.45452332496643,7732.0,-2080.0,-14424.0,-18.0,74.0,47.0,-0.4924177153370419,0.09033380594221878,0.17113133831193927,0.8485744882883328
-13.478082180023193,7844.0,-2056.0,-14568.0,-27.0,23.0,51.0,-0.49631641532944154,0.09081859820370301,0.16791445410800912,0.8468923982398572
-13.501510858535767,7884.0,-2028.0,-14276.0,254.0,9.0,53.0,-0.5022470272928645,0.08017731862496147,0.18600131053541047,0.8406682066265511
-13.524972200393677,7820.0,-2076.0,-14420.0,-8.0,-251.0,46.0,-0.5013637147047605,0.09992143453552711,0.19622948860355463,0.8367461504543617
-13.548645257949829,7788.0,-2304.0,-14416.0,22.0,31.0,106.0,-0.5097989149800073,0.09876851367343634,0.19572415571178023,0.8318905588254133
-13.57217812538147,7820.0,-1984.0,-14144.0,-244.0,56.0,99.0,-0.5156926861251354,0.10747687803664611,0.17480429357916727,0.8318372635983716
-13.595661878585815,7852.0,-2080.0,-14288.0,252.0,44.0,104.0,-0.5261163485403211,0.09476848438549956,0.19025878851292427,0.8234209831911433
-13.619103908538818,7800.0,-2128.0,-14420.0,-256.0,16.0,72.0,-0.5292899294888098,0.1067963008287959,0.17067412088293318,0.8242069310142048
-13.642773151397705,7736.0,-2060.0,-14440.0,250.0,3.0,93.0,-0.5381976261113788,0.09665815675848602,0.1877735065240224,0.8159299150219957
-13.666462421417236,7768.0,-2024.0,-14348.0,-37.0,31.0,51.0,-0.542006539861909,0.0972785935782372,0.18343775575442842,0.8143195783856235
-13.689947605133057,7864.0,-2060.0,-14276.0,244.0,79.0,45.0,-0.5483906180610775,0.08108214949864241,0.19679277694592792,0.8086816542974
-13.713433504104614,7852.0,-1992.0,-14592.0,-13.0,52.0,97.0,-0.5560043043918378,0.07994371444295778,0.1928924321226882,0.8045251553858371
-13.736875772476196,7784.0,-2296.0,-14396.0,-17.0,52.0,54.0,-0.5605343611727391,0.07827752913216492,0.18898982101640277,0.8024691308267382
-13.760326385498047,7920.0,-2068.0,-14572.0,-12.0,48.0,78.0,-0.5666808898311679,0.07703589750898268,0.1854623957185964,0.7990881924853225
-13.783793926239014,7860.0,-2040.0,-14316.0,-28.0,39.0,64.0,-0.571565556164146,0.07698396447120287,0.1813462620881558,0.7965549682524872
-13.807207345962524,7788.0,-2064.0,-14480.0,-247.0,7.0,83.0,-0.5756294669975668,0.09035646969705999,0.16342772009376944,0.7961016300780533
-13.830732107162476,7768.0,-2080.0,-14404.0,17.0,40.0,94.0,-0.5828294233624021,0.08831980587015312,0.16203869767445275,0.7913614443540169
-13.854539155960083,7756.0,-2112.0,-14480.0,-11.0,44.0,81.0,-0.5889299773538305,0.08724173793029612,0.15860012482438787,0.7876524368924448
-13.877992630004883,7832.0,-1812.0,-14364.0,-234.0,37.0,116.0,-0.5954630114408054,0.09855742782478334,0.13988947914984073,0.7849466026740904
-13.901475667953491,7836.0,-2012.0,-14408.0,-5.0,42.0,36.0,-0.5983764178812669,0.09664389378985641,0.1372327101785407,0.7834365344900449
-13.924954175949097,7804.0,-2140.0,-14412.0,-5.0,34.0,98.0,-0.6054015330600214,0.09601753731280759,0.13446019443971316,0.7785820909886086
-13.948457479476929,7800.0,-2048.0,-14344.0,-246.0,46.0,100.0,-0.6104896957357894,0.10729756405450697,0.1146261764337075,0.7763056123876607
-13.971879482269287,7868.0,-2036.0,-14544.0,-16.0,24.0,74.0,-0.6155585645378107,0.10753516059889616,0.1117355978620537,0.7726829874078561
-13.995347023010254,7828.0,-1992.0,-14428.0,8.0,33.0,92.0,-0.6221157226663048,0.10604690146153829,0.1098028428437592,0.767899354085688
-14.018774032592773,7848.0,-2100.0,-14272.0,-243.0,49.0,81.0,-0.6255820897708969,0.11697546173218305,0.0902530828638225,0.7660405807422973
-14.04224944114685,7820.0,-2048.0,-14532.0,16.0,48.0,46.0,-0.6291636991100306,0.1135350095553804,0.08838600249764102,0.7638394830656041
-14.065706014633179,7880.0,-2024.0,-14352.0,-249.0,22.0,58.0,-0.6305500282610326,0.12643527875419358,0.0701454579365669,0.7625617331581945
-14.089161157608032,7896.0,-2020.0,-14368.0,246.0,53.0,61.0,-0.6374585599490659,0.11000599504675242,0.08304749826723076,0.758055656553654
-14.112600564956665,7804.0,-2260.0,-14436.0,-6.0,39.0,56.0,-0.6413540215900746,0.10844813188187165,0.08009319885318307,0.7553072892399719
-14.136085748672485,7868.0,-2072.0,-14412.0,14.0,31.0,61.0,-0.6456884579886721,0.10632780859647445,0.07885786584098792,0.7520387286132856
-14.159536600112915,7800.0,-2092.0,-14424.0,-3.0,55.0,77.0,-0.6510473726135507,0.10369598311720567,0.07500112155943205,0.7481706312487653
-14.182953119277954,7836.0,-2300.0,-14248.0,-5.0,50.0,70.0,-0.6558589710459466,0.10145611513389806,0.07134986663615517,0.7446239744538798
-14.206424474716187,7888.0,-2252.0,-14356.0,21.0,48.0,114.0,-0.6636893958529463,0.09812395539858701,0.06910656807489958,0.7383172471628958
-14.229930400848389,7820.0,-1824.0,-14308.0,253.0,40.0,81.0,-0.6711089920669255,0.08163886665499107,0.0825385845390324,0.7322125362765218
-14.253436803817749,7840.0,-2028.0,-14500.0,22.0,25.0,76.0,-0.6762655296431231,0.079570697006071,0.08211218540013271,0.7277300506391696
-14.27687668800354,7848.0,-2004.0,-14364.0,-18.0,61.0,72.0,-0.6811081165344121,0.07754330845767328,0.07704475506380637,0.7239771229959838
-14.30033540725708,7864.0,-2028.0,-14392.0,-2.0,-17.0,93.0,-0.686813186833984,0.07963060243912891,0.07747364285222312,0.718292731558196
-14.323817253112793,7828.0,-2036.0,-14404.0,-16.0,53.0,94.0,-0.6929020960679169,0.0781708709023097,0.07281541251597197,0.7130735697718649
-14.347354888916016,7860.0,-2028.0,-14588.0,-5.0,19.0,76.0,-0.6976819541554221,0.07804357554579826,0.0710131399518488,0.7085945421156431
-14.37078046798706,7812.0,-2044.0,-14296.0,12.0,34.0,71.0,-0.7023282922460411,0.07592079031325626,0.06937729561231418,0.7043846920273692
-14.394246578216553,7844.0,-2020.0,-14384.0,-25.0,40.0,111.0,-0.7091691466354505,0.07593297145895865,0.06482960334421023,0.6979329680105333
-14.41772198677063,7796.0,-2044.0,-14404.0,-14.0,28.0,77.0,-0.713885820783973,0.07579966090847996,0.06191040033398231,0.6933891754420736
-14.44121265411377,7900.0,-1812.0,-14364.0,-10.0,56.0,64.0,-0.7179546281925363,0.0736460765001058,0.05757595305498483,0.6897843263679362
-14.464665412902832,7708.0,-2068.0,-14288.0,-252.0,72.0,28.0,-0.718172521461387,0.08549191752253446,0.03788292160957011,0.6895536568726445
-14.488173484802246,7668.0,-2140.0,-14444.0,24.0,77.0,134.0,-0.7265793691315983,0.08007510988824829,0.03365634556050619,0.6815699872589942
-14.511681079864502,7764.0,-2068.0,-14368.0,-16.0,23.0,44.0,-0.7291218726582236,0.08013284391246955,0.031100944483488692,0.6789644713754174
-14.535199165344238,8140.0,-2036.0,-14208.0,-41.0,19.0,64.0,-0.7326382426213692,0.0820686210990534,0.027180021587596623,0.6751053201583214
-14.55872917175293,7800.0,-2056.0,-14492.0,-37.0,75.0,61.0,-0.7360918934320877,0.08044157994108574,0.019927569890047805,0.6717892292962302
-14.582216739654541,7756.0,-2080.0,-14468.0,24.0,8.0,108.0,-0.7425470718990554,0.07890209757411354,0.02021735298170685,0.6648229566215031
-14.605647563934326,7872.0,-1800.0,-14484.0,-16.0,58.0,72.0,-0.7466682509398664,0.07697924327618835,0.015201772971709075,0.6605525151277093
-14.62903642654419,7868.0,-2016.0,-14440.0,15.0,77.0,98.0,-0.7524530275608141,0.07197424198959454,0.01055066841756023,0.6546165543282044
-14.652482986450195,7908.0,-2060.0,-14384.0,253.0,55.0,70.0,-0.7578644279909427,0.05255567772111087,0.021106652283281364,0.6499491662850476
-14.675998210906982,7856.0,-2040.0,-14340.0,255.0,16.0,72.0,-0.762928121643346,0.035183238302904714,0.03434945411842043,0.6446106855692382
-14.699425458908081,7792.0,-2080.0,-14560.0,-7.0,22.0,52.0,-0.7658778178430393,0.03483212528495617,0.03252520694993408,0.6412175934088065
-14.723020315170288,7860.0,-2044.0,-14500.0,-13.0,27.0,76.0,-0.7701376178578265,0.03466894610608198,0.029957223013307895,0.6362300515737187
-14.74653148651123,7808.0,-2024.0,-14280.0,-21.0,16.0,35.0,-0.7720427753383463,0.03554710772636194,0.027805774327998477,0.6339662412890569
-14.76999044418335,7716.0,-2292.0,-14372.0,-6.0,-7.0,74.0,-0.7760734890097828,0.036787907316619885,0.027901950580517504,0.6289499747080436
-14.793452262878418,7792.0,-2280.0,-14388.0,-15.0,64.0,71.0,-0.7800399891908673,0.0347319752549478,0.02270422854854175,0.6243523229427569
-14.816898345947266,7820.0,-2040.0,-14356.0,-38.0,50.0,67.0,-0.7836388499288506,0.034991272441670114,0.017221270099755253,0.6199912834800602
-14.840506315231323,7804.0,-2024.0,-14464.0,-24.0,45.0,85.0,-0.7881920369292507,0.03459115682135089,0.012777975586671824,0.6143236021275645
-14.86402678489685,7872.0,-2004.0,-14412.0,251.0,45.0,50.0,-0.7914681827802892,0.015233433343035731,0.023174408352342007,0.6105808750301379
-14.887532234191895,7816.0,-2040.0,-14588.0,-254.0,61.0,61.0,-0.7942812647546297,0.029896136081095488,0.005554100963701813,0.60678879807532
-14.911023378372192,7816.0,-2100.0,-14444.0,-45.0,-253.0,87.0,-0.7984086842190651,0.04671040581331682,0.020663720355453948,0.5999455988782717
-14.934527158737183,7848.0,-2084.0,-14564.0,-19.0,39.0,53.0,-0.8011474544637096,0.046352694391196346,0.016928746346974926,0.5964290414425798
-14.958068132400513,7892.0,-2040.0,-14324.0,-256.0,75.0,66.0,-0.8034115704667757,0.06069182696635587,-0.0017112264241802757,0.5923203713225811
-14.981506824493408,7848.0,-2260.0,-14432.0,9.0,23.0,99.0,-0.8085216472990984,0.05913618953479033,-0.0032132706860282683,0.5854787202175293
-15.004961252212524,7864.0,-2052.0,-14408.0,23.0,4.0,73.0,-0.8123315897036565,0.05756405900143981,-0.0025199972661628283,0.5803424998176401
-15.028420686721802,7840.0,-1816.0,-14440.0,-31.0,35.0,63.0,-0.8153212035066484,0.05824487429534465,-0.006701408783468865,0.5760329511851792
-15.05188512802124,7852.0,-2064.0,-14388.0,3.0,10.0,48.0,-0.8177169449504775,0.05777685174266418,-0.007328615005764937,0.5726666785711051
-15.07536268234253,7860.0,-1800.0,-14384.0,-253.0,48.0,79.0,-0.8201120217066296,0.07363208591743953,-0.023603341342843212,0.5669545573087534
-15.098799228668213,7828.0,-2016.0,-14384.0,9.0,28.0,35.0,-0.8218131548937878,0.07181571258839571,-0.025224819186678897,0.5646497590240691
-15.122240781784058,7848.0,-1820.0,-14440.0,11.0,28.0,82.0,-0.8258136694905003,0.06974724305559686,-0.027036458133141643,0.5589598691322957
-15.14574408531189,7792.0,-2080.0,-14400.0,-25.0,46.0,69.0,-0.8288721616372371,0.06942677613263055,-0.03182902069751667,0.5542001225731374
-15.169218063354492,7848.0,-1988.0,-14364.0,-7.0,18.0,69.0,-0.832077365363841,0.06915540119569061,-0.03372472402333874,0.5492972160171413
-15.192652702331543,7852.0,-2016.0,-14396.0,28.0,-8.0,65.0,-0.8353462642994713,0.06759944350237408,-0.032031895254888317,0.5446107707762184
-15.216068267822266,7864.0,-2044.0,-14356.0,-7.0,77.0,35.0,-0.8367089783954669,0.0646354110658046,-0.0380187237377127,0.5424895628066262
-15.239561080932617,7768.0,-1804.0,-14396.0,13.0,41.0,103.0,-0.841461902555357,0.061684132222583725,-0.04080924727943178,0.5352303613551382
-15.263022899627686,7868.0,-2036.0,-14560.0,4.0,246.0,66.0,-0.8434660932769118,0.04993956345681945,-0.05886527975931794,0.5316068738577253
-15.286511659622192,7796.0,-2084.0,-14332.0,-28.0,56.0,68.0,-0.8461664422788959,0.04934402855138296,-0.06442948155320694,0.5267032947629824
-15.309951066970825,7796.0,-2056.0,-14372.0,248.0,27.0,66.0,-0.8498864753726031,0.029705165623916584,-0.055146484377739745,0.5232298227115548
-15.333456754684448,7808.0,-2124.0,-14308.0,-13.0,21.0,53.0,-0.8521508487130978,0.02973927113963004,-0.05726829697696344,0.5193022712746294
-15.356902360916138,7800.0,-2040.0,-14300.0,-13.0,33.0,105.0,-0.8566613548977506,0.02896747718690482,-0.060413418320657934,0.5115099482678607
-15.380324602127075,7804.0,-2060.0,-14204.0,254.0,42.0,70.0,-0.8599680888726466,0.008015649954842535,-0.05221055014656087,0.5076068300662656
-15.403791666030884,7764.0,-2072.0,-14420.0,18.0,42.0,75.0,-0.863086135452129,0.004733264217297407,-0.054429849977645293,0.5020929300752698
-15.427214860916138,7800.0,-2164.0,-14368.0,-14.0,77.0,97.0,-0.8669150962452434,0.0022239781624964726,-0.06069396785547444,0.4947418640960066
-15.450759887695312,7860.0,-1988.0,-14440.0,-8.0,24.0,47.0,-0.8688080544306398,0.0018110352026137317,-0.06267346680524837,0.4911632328122219
-15.474228382110596,7788.0,-2056.0,-14440.0,-49.0,51.0,68.0,-0.8714061384520084,0.003237769055464658,-0.06846284015001658,0.4857506543879236
-15.497682809829712,7820.0,-2120.0,-14344.0,6.0,81.0,87.0,-0.8745674047959673,-0.0008986687070059037,-0.0742092250379979,0.4791910243131248
-15.521097660064697,7832.0,-2108.0,-14408.0,1.0,-4.0,92.0,-0.8784145819183898,-0.001130645524911625,-0.07367384294968644,0.4721850365893251
-15.544662237167358,7812.0,-2300.0,-14412.0,-23.0,28.0,59.0,-0.8806545734708707,-0.0006250879343390857,-0.07658611371126946,0.46752721704358324
-15.56815767288208,7852.0,-2024.0,-14284.0,-6.0,13.0,44.0,-0.882359401809345,-0.0007197275184635658,-0.07764296044137677,0.46412599445070185
-15.59157109260559,7844.0,-2052.0,-14288.0,15.0,-253.0,104.0,-0.8880294185677113,0.00793511569325938,-0.0573470928442222,0.45612728118316204
-15.615026950836182,7824.0,-2096.0,-14292.0,250.0,51.0,73.0,-0.8906190901844625,-0.013570229438658904,-0.05118584396708678,0.45165638980242445
-15.63848066329956,7892.0,-2048.0,-14364.0,-13.0,244.0,43.0,-0.8910451598860535,-0.022123602086144306,-0.07037410878767551,0.4478800666324765
-15.661956310272217,7892.0,-1956.0,-14572.0,-10.0,29.0,84.0,-0.8941558402868924,-0.02275115935548341,-0.07264246789711952,0.4412377929038251
