programtime,ax,ay,az,gx,gy,gz,q0,q1,q2,q3
-6.4728310108184814,-15852.0,412.0,4332.0,-86.0,129.0,-17.0,0.9999036835926147,-0.007495619822496069,0.01158614623058123,-0.0014833869759284123
-6.496330738067627,-15864.0,368.0,4388.0,-91.0,70.0,-44.0,0.999704425827464,-0.015460923253196859,0.01800583460690347,-0.005273590166875369
-6.519786357879639,-15624.0,448.0,4304.0,-98.0,78.0,-59.0,0.9993417365436602,-0.024051097643843316,0.02510354589401181,-0.010365823053428005
-6.543216705322266,-15616.0,408.0,4288.0,-85.0,125.0,-65.0,0.9987165390363303,-0.03147272562968393,0.03627012005299425,-0.016100328818826837
-6.56667423248291,-15640.0,336.0,4324.0,-105.0,127.0,-114.0,0.9976990333740229,-0.0407805427432883,0.0474938544099788,-0.02603689557890487
-6.590130090713501,-15624.0,420.0,4280.0,-91.0,110.0,-44.0,0.9967176057868621,-0.048604795156928185,0.05744309151049428,-0.02986435065383699
-6.6136040687561035,-15700.0,372.0,4288.0,-132.0,100.0,37.0,0.9956241039534831,-0.05960401897642589,0.06696042510501592,-0.02638761107863745
-6.637075662612915,-15612.0,384.0,4368.0,-98.0,127.0,-119.0,0.9939248996245577,-0.06847933643367206,0.07791416747892249,-0.03678664015622353
-6.66050910949707,-15408.0,388.0,4316.0,-75.0,118.0,-46.0,0.9924201183492215,-0.07487400883503453,0.08843045147393516,-0.040941992486987315
-6.683988094329834,-15596.0,400.0,4312.0,-93.0,112.0,-91.0,0.9904850543227782,-0.08317894864172215,0.09817822215005385,-0.04880221676845745
-6.707468032836914,-15640.0,444.0,4392.0,-59.0,140.0,-103.0,0.9882627230916865,-0.08850485971473047,0.11008801070965574,-0.05817482146316336
-6.730909824371338,-15608.0,380.0,4360.0,-56.0,101.0,-48.0,0.986526514587062,-0.09322447635442001,0.11902239677809748,-0.06251641456725295
-6.754338026046753,-15864.0,380.0,4316.0,-106.0,156.0,-24.0,0.9837432422960937,-0.10167824725723046,0.13313263881706916,-0.06470291920053249
-6.77782416343689,-15616.0,360.0,4264.0,-103.0,118.0,-43.0,0.9810809711212443,-0.11028259337729215,0.14376143395356233,-0.06819477846133438
-6.801317930221558,-15596.0,380.0,4252.0,-120.0,95.0,-19.0,0.9784954458821664,-0.12015319435999279,0.15272339843400104,-0.06917684470774539
-6.824811220169067,-15624.0,436.0,4400.0,-67.0,103.0,-52.0,0.9760021676265288,-0.12586563009687946,0.16167553225748515,-0.07374709633532216
-6.84838604927063,-15644.0,448.0,4280.0,-94.0,110.0,-37.0,0.9730576540834116,-0.13359921798011398,0.1715350890771635,-0.07671873304532209
-6.871835947036743,-15868.0,408.0,4324.0,-116.0,136.0,-95.0,0.968841738710325,-0.143859401579255,0.18302840674538168,-0.08456216786637137
-6.895392656326294,-15632.0,380.0,4268.0,-99.0,55.0,-133.0,0.9655883255674774,-0.15384440572764915,0.18701987923046254,-0.09484012403368641
-6.919419527053833,-15376.0,388.0,4316.0,-89.0,108.0,-30.0,0.9622692182066512,-0.16083285888395124,0.196737860799165,-0.09728801222835122
-6.942890644073486,-15688.0,424.0,4168.0,-101.0,128.0,-55.0,0.9580398218191623,-0.16905531418093261,0.20784538084307608,-0.10188374854750361
-6.96633768081665,-15860.0,372.0,4128.0,-128.0,104.0,-21.0,0.9539384218100901,-0.1790925768123789,0.21763981278986194,-0.10276306833668537
-6.989928722381592,-15856.0,360.0,4504.0,-99.0,138.0,-11.0,0.9495274452059516,-0.18617454311741952,0.23010823649660983,-0.10385985649951023
-7.013407230377197,-15672.0,468.0,4096.0,-145.0,142.0,-67.0,0.9435093112411355,-0.19809938677341385,0.24234529527660864,-0.10869944994602757
-7.036865472793579,-15604.0,348.0,4360.0,-78.0,52.0,-29.0,0.9407149976014316,-0.20451188697170244,0.24713943838162586,-0.11023737737912036
-7.06033182144165,-15376.0,396.0,4296.0,-74.0,140.0,-84.0,0.935416308609792,-0.21089866650612657,0.2580937907601333,-0.1179223355596085
-7.083788156509399,-15628.0,400.0,4108.0,-67.0,123.0,-81.0,0.9304513304122023,-0.21677404437710698,0.26758368748822103,-0.1251731025770349
-7.1073386669158936,-15596.0,376.0,4588.0,-57.0,74.0,-51.0,0.9270174273360541,-0.22163224834195835,0.2735094313957484,-0.12926881622304187
-7.130828857421875,-15628.0,396.0,4356.0,-117.0,100.0,31.0,0.922599342965691,-0.229062802164335,0.2837608663027339,-0.12577939330041307
-7.154283285140991,-15592.0,388.0,4316.0,-98.0,84.0,-62.0,0.9177785744157215,-0.23739965059086188,0.2906037282284728,-0.12989752646795938
-7.177733898162842,-15372.0,388.0,4308.0,-114.0,95.0,-20.0,0.9126760672003109,-0.24578492061028825,0.2993264207400183,-0.13044486577607317
-7.201274633407593,-15660.0,464.0,4404.0,-110.0,94.0,-40.0,0.9073044475709697,-0.2543384222912516,0.3074378963490345,-0.13263689627254965
-7.224747657775879,-15596.0,396.0,4136.0,-77.0,114.0,-21.0,0.9022035642499704,-0.25949865401969846,0.3171204930626103,-0.13462455235335577
-7.248218536376953,-15592.0,400.0,4132.0,-106.0,99.0,-63.0,0.8962174405349873,-0.268233390783901,0.3249531669523402,-0.13874648333248613
-7.271691799163818,-15520.0,344.0,4516.0,-88.0,96.0,-39.0,0.8908864721844951,-0.274863827579016,0.33283210944563374,-0.14139998900016792
-7.295208930969238,-15584.0,340.0,4296.0,-121.0,82.0,-60.0,0.8847661835191732,-0.28479788873735873,0.3394682742775646,-0.144361538612858
-7.318683862686157,-15604.0,460.0,4336.0,-102.0,115.0,-98.0,0.8774730666824953,-0.2939078765764337,0.34738559108176786,-0.15159956610069755
-7.342170000076294,-15624.0,392.0,4256.0,-102.0,86.0,-103.0,0.8707926063616174,-0.3034849479166871,0.3528681616725198,-0.15843353045300496
-7.3656370639801025,-15628.0,396.0,4476.0,-147.0,98.0,-66.0,0.8628595398979969,-0.3150985315284605,0.36076954800720307,-0.1613433080927226
-7.389138460159302,-15860.0,412.0,4316.0,-110.0,125.0,-46.0,0.8551647301516919,-0.3228405024115092,0.3706375329958623,-0.16460593379951194
-7.412638425827026,-15648.0,432.0,4396.0,-83.0,119.0,-105.0,0.8473836898001726,-0.3304840186959056,0.3779105179137591,-0.17293014802920717
-7.436068534851074,-15672.0,464.0,4320.0,-105.0,96.0,-41.0,0.8405234222348669,-0.33792500353842825,0.3855771232225056,-0.17509240619055352
-7.45952844619751,-15856.0,428.0,4360.0,-73.0,95.0,222.0,0.838384915832264,-0.33407430825740336,0.40029972115954077,-0.15895037812744842
-7.482972860336304,-15608.0,372.0,4272.0,-111.0,117.0,-58.0,0.8301880038706472,-0.34235820030624814,0.4088503761842729,-0.16254264303965246
-7.506436824798584,-15368.0,384.0,4188.0,-109.0,64.0,-21.0,0.824327902196814,-0.34987128912162424,0.41455901162823083,-0.16190866742085575
-7.529903888702393,-15416.0,408.0,4260.0,-104.0,151.0,-13.0,0.8154340676833355,-0.35543938586237456,0.4266114257730421,-0.16350172977396862
-7.553327798843384,-15636.0,404.0,4156.0,-127.0,114.0,-46.0,0.8065356592976909,-0.364316149737782,0.43522330495668715,-0.1653924065489581
-7.576829195022583,-15828.0,372.0,4324.0,-106.0,99.0,-67.0,0.7984057099044948,-0.37265321503038173,0.4417040253906606,-0.1690427687690493
-7.600317478179932,-15868.0,356.0,4588.0,-117.0,60.0,0.0,0.7922880489336445,-0.37969110019923563,0.44772455588579396,-0.1663040528768965
-7.623800039291382,-15616.0,324.0,4256.0,-82.0,94.0,21.0,0.7862066125066517,-0.3829508701094938,0.4562244014319126,-0.1645815575065757
-7.647238731384277,-15648.0,384.0,4300.0,-101.0,145.0,-253.0,0.7732035490855592,-0.3975293131787433,0.4591395539179226,-0.18253105728391303
-7.670698881149292,-15652.0,424.0,4348.0,-64.0,132.0,-22.0,0.7653446372852535,-0.40039702489380163,0.4683906374150375,-0.18584945363608427
-7.694185495376587,-15652.0,340.0,4304.0,-85.0,60.0,-4.0,0.7598944532294879,-0.40505329221597897,0.47373815268241604,-0.18456547106408133
-7.717625617980957,-15412.0,348.0,4212.0,-90.0,87.0,-41.0,0.752477291173238,-0.41109612320429584,0.47959339638490034,-0.18646200122003456
-7.741089105606079,-15688.0,424.0,4368.0,-114.0,88.0,-51.0,0.743883616627453,-0.41905858216528274,0.485464969328487,-0.18801817247748873
-7.7645790576934814,-15676.0,388.0,4272.0,-83.0,82.0,-230.0,0.7334951825022762,-0.4325532094289143,0.4837238299670005,-0.20222214166790656
-7.788039445877075,-15368.0,384.0,4268.0,-124.0,95.0,250.0,0.7290537889247456,-0.42793461021760304,0.501365824622448,-0.18434980914835106
-7.8115153312683105,-15660.0,440.0,4392.0,-105.0,97.0,-29.0,0.7204470794361274,-0.4341076931894044,0.5081954684197091,-0.1850510262695149
-7.835062503814697,-15568.0,384.0,4300.0,-97.0,68.0,-36.0,0.7132197914710136,-0.44050202708646724,0.5127321565036583,-0.18542175944010797
-7.858605146408081,-15396.0,372.0,4268.0,-73.0,109.0,-23.0,0.7052045852513255,-0.44410673686418595,0.5198633963958846,-0.18761062949653493
-7.882100343704224,-15680.0,356.0,4532.0,-125.0,95.0,-47.0,0.6953018161732216,-0.4521600282893083,0.5259589377492384,-0.18834513278904838
-7.905608892440796,-15588.0,408.0,4596.0,-93.0,108.0,-94.0,0.6851496099123032,-0.4601265876843163,0.5303450036070362,-0.1938755077157987
-7.929067611694336,-15676.0,392.0,4244.0,-107.0,76.0,-71.0,0.6761727659665988,-0.46832399920969026,0.5338770698092747,-0.19605687098692548
-7.952501058578491,-15656.0,372.0,4392.0,-114.0,129.0,-47.0,0.6647165862150481,-0.4748191972591919,0.5415226967620451,-0.1986246681968565
-7.975940942764282,-15628.0,428.0,4460.0,-89.0,102.0,-91.0,0.6546659611576178,-0.48231417992207326,0.5452201849065017,-0.20376570152552803
-7.99941873550415,-15632.0,364.0,4336.0,-83.0,94.0,-248.0,0.6422049727020682,-0.49689402720988685,0.5415317670043268,-0.2177439874831162
-8.022900104522705,-15620.0,416.0,4280.0,-79.0,99.0,-54.0,0.6331324780227782,-0.501814144287393,0.5462643509796735,-0.22118112196705197
-8.046338081359863,-15652.0,420.0,4412.0,-89.0,102.0,229.0,0.6287265032413485,-0.49356923661533025,0.5635548218208171,-0.20856259394094062
-8.069803714752197,-15596.0,408.0,4160.0,-96.0,90.0,-96.0,0.6184613662833641,-0.501731463149379,0.566103863029284,-0.21283207832518927
-8.093278884887695,-15560.0,388.0,4408.0,-85.0,87.0,-69.0,0.6092226582657976,-0.5079405602379128,0.5693661298936602,-0.2160239571220428
-8.116798400878906,-15832.0,396.0,4324.0,-107.0,98.0,-64.0,0.5984544336964475,-0.514782465527715,0.5737536018534691,-0.21830737123249389
-8.140234470367432,-15624.0,480.0,4308.0,-47.0,132.0,-56.0,0.5887245592095864,-0.5173547635283371,0.5790267869402302,-0.2246673586520527
-8.163680076599121,-15684.0,384.0,4584.0,-131.0,114.0,-73.0,0.5756513720231906,-0.525345852812537,0.584123369319925,-0.22679753577767311
-8.187150239944458,-15656.0,336.0,4364.0,-87.0,105.0,-91.0,0.5645630714549909,-0.532104631440174,0.5869333157571286,-0.2316084679012543
-8.210588693618774,-15604.0,436.0,4132.0,-78.0,117.0,-14.0,0.554733825808527,-0.5341434004502591,0.5936256800834242,-0.2336017170415518
-8.234104871749878,-15640.0,524.0,4600.0,-107.0,99.0,-86.0,0.5429174561316545,-0.5415912446192928,0.5965666835031243,-0.23670182025777017
-8.25758671760559,-15632.0,396.0,4356.0,-106.0,90.0,-48.0,0.53229920805189,-0.5471007037015169,0.600743818927736,-0.23758206400474635
-8.281046390533447,-15644.0,360.0,4280.0,-70.0,106.0,251.0,0.5285569013243955,-0.5347235186343886,0.6189580040487054,-0.2271328904092379
-8.304494857788086,-15588.0,420.0,4356.0,-122.0,126.0,243.0,0.520809381901449,-0.5244381486894654,0.6383452314462031,-0.2150292571081668
-8.327967882156372,-15620.0,376.0,4372.0,-92.0,143.0,-43.0,0.5078819632352816,-0.5281666009426442,0.6445565192423675,-0.21827241367413644
-8.351399183273315,-15580.0,404.0,4296.0,-125.0,112.0,-67.0,0.4945986702294259,-0.535177105396146,0.6487607504967644,-0.21924212615727173
-8.374881267547607,-15660.0,392.0,4404.0,-75.0,107.0,-61.0,0.4839489853347612,-0.5396829805235551,0.6519398851659738,-0.2225085307498208
-8.398357152938843,-15628.0,404.0,4116.0,-85.0,74.0,-56.0,0.4747359411889255,-0.544896558032598,0.6540660644046327,-0.22340794655053717
-8.421862840652466,-15700.0,456.0,4104.0,-124.0,164.0,-11.0,0.45930429518604443,-0.5472856608759206,0.6626772085471595,-0.2244479607735436
-8.445313692092896,-15672.0,432.0,4304.0,-114.0,117.0,253.0,0.4520082360421027,-0.534655805483067,0.6814745723620189,-0.21312937722745562
-8.468826532363892,-15628.0,404.0,4360.0,-103.0,101.0,-88.0,0.4396289216529019,-0.541931712407284,0.6832135859631036,-0.2150712121346147
-8.49224591255188,-15616.0,392.0,4540.0,-97.0,132.0,-41.0,0.42647216502461616,-0.5454806582286056,0.6881042865214024,-0.2169904026185847
-8.515713453292847,-15860.0,408.0,4220.0,-115.0,102.0,20.0,0.41533012741320874,-0.5464990920649795,0.6949875710129947,-0.21408387088367603
-8.539143562316895,-15656.0,384.0,4572.0,-87.0,81.0,255.0,0.41102570502994656,-0.5324318496975761,0.7115144170952931,-0.20327673132407087
-8.562581062316895,-15656.0,348.0,4272.0,-109.0,101.0,-8.0,0.39963269328597806,-0.5349266850646395,0.7166532839827019,-0.20138327293884162
-8.586085796356201,-15616.0,368.0,4340.0,-97.0,79.0,-22.0,0.3898717110145258,-0.5381923777471108,0.7200551895297784,-0.19967357741261688
-8.609550714492798,-15600.0,408.0,4408.0,-114.0,125.0,-41.0,0.3760218592634281,-0.5423382621679583,0.7242990256702095,-0.19966895642011753
-8.633002996444702,-15440.0,432.0,4268.0,-90.0,78.0,-43.0,0.36617755346912007,-0.5465514237831338,0.7263604843668516,-0.19898740474299287
-8.656439065933228,-15624.0,392.0,4272.0,-124.0,97.0,-60.0,0.35315054856383443,-0.5525103105203291,0.728686658606737,-0.19756720473383502
-8.679880619049072,-15592.0,396.0,4232.0,-91.0,104.0,-58.0,0.3412356439214027,-0.5571022272589179,0.7306156802809942,-0.19848443623679585
-8.703367233276367,-15656.0,380.0,4328.0,-116.0,104.0,-22.0,0.32866736240672123,-0.560047049083833,0.7345976090499842,-0.19670134844262305
-8.726867914199829,-15600.0,360.0,4548.0,-92.0,126.0,-8.0,0.316040127801026,-0.5609281680263596,0.7393450320299239,-0.19709680755094477
-8.750296115875244,-15780.0,304.0,4292.0,-98.0,87.0,-212.0,0.30202534447470963,-0.5756278427886037,0.7328915568950488,-0.20075667792983412
-8.773771047592163,-15580.0,344.0,4580.0,-95.0,174.0,-25.0,0.2857526944111248,-0.5765450995504537,0.7377903498408479,-0.2039768258966174
-8.797317266464233,-15628.0,408.0,4288.0,-108.0,84.0,-146.0,0.2723799011851133,-0.5870094569604069,0.7343649796316765,-0.20478565272011498
-8.820804357528687,-15560.0,436.0,4296.0,-101.0,80.0,-31.0,0.26161584721522424,-0.5898836559592417,0.7364514630361872,-0.20306073847467085
-8.844339847564697,-15624.0,404.0,4384.0,-27.0,118.0,-77.0,0.2513658006235455,-0.593269697085611,0.7356190438313128,-0.2090715742264752
-8.867809772491455,-15616.0,372.0,4412.0,-88.0,108.0,-4.0,0.23989220988578194,-0.5934013615039813,0.7393502590311251,-0.20901613878345704
-8.891247987747192,-15668.0,360.0,4344.0,-80.0,147.0,-36.0,0.22568817529019852,-0.5946125222516502,0.7419584264877833,-0.21212847352367428
-8.914902925491333,-15380.0,400.0,4400.0,-91.0,124.0,-33.0,0.21241011644687077,-0.5961535272739379,0.7443212691195035,-0.21323405611252808
-8.938358545303345,-15644.0,356.0,4252.0,-95.0,131.0,-3.0,0.1989863771078955,-0.5955770318848816,0.7483062534543845,-0.21384614061921173
-8.961907625198364,-15664.0,396.0,4380.0,-118.0,137.0,-83.0,0.18243160732380928,-0.60036794683325,0.7484795013342758,-0.21460538937052176
-8.985395431518555,-15580.0,396.0,4312.0,-118.0,84.0,-73.0,0.1694788235609549,-0.6053521920928127,0.7481460032758172,-0.21237516256672306
-9.008860349655151,-15604.0,384.0,4280.0,-88.0,97.0,-54.0,0.15758342840387515,-0.6083078941796706,0.7483209682176538,-0.2124728159011612
-9.032336950302124,-15680.0,360.0,4384.0,-115.0,95.0,-56.0,0.14431985659462734,-0.6117006066652501,0.7487340158057321,-0.2106929528325356
-9.055801391601562,-15388.0,392.0,4336.0,-101.0,136.0,-68.0,0.12887044674009557,-0.6148143571110426,0.7485986875660059,-0.21212194422453595
-9.079315662384033,-15664.0,376.0,4128.0,-71.0,77.0,-25.0,0.11965876068554084,-0.6157715480225738,0.7494248428045953,-0.21182442405065302
-9.102787971496582,-15588.0,356.0,4284.0,-130.0,111.0,-63.0,0.10432860858303702,-0.6190996224031016,0.7495271754674073,-0.20985759983215985
-9.126264810562134,-15140.0,584.0,4288.0,-141.0,-98.0,-276.0,0.09811873677022931,-0.6399614069977209,0.7360251154392665,-0.1977097379764744
-9.149731159210205,-15588.0,464.0,4368.0,-109.0,-216.0,-181.0,0.1028398108182993,-0.6560067698380604,0.7257105918722622,-0.18006451088957368
-9.173141479492188,-15720.0,420.0,4492.0,-178.0,233.0,106.0,0.07961389182000879,-0.6469730145852047,0.7364166743910243,-0.18104703341029538
-9.196622848510742,-15668.0,364.0,4216.0,-177.0,201.0,-45.0,0.05606047695555178,-0.6477251028139055,0.7378816748529384,-0.18121823314571348
-9.22012186050415,-15536.0,440.0,4284.0,-126.0,68.0,-72.0,0.04350054931949369,-0.6518300104416738,0.7360832573435235,-0.17721957554135442
-9.243573904037476,-15576.0,400.0,4324.0,-117.0,123.0,-97.0,0.02752124964116505,-0.656500852617835,0.7327530259157842,-0.17698083043512494
-9.267044067382812,-15528.0,436.0,4208.0,-118.0,48.0,-16.0,0.01752425926551731,-0.6570186981881365,0.7337466467131245,-0.17214874093529217
-9.290537357330322,-15672.0,392.0,4260.0,-84.0,100.0,-50.0,0.005632781490313841,-0.6587932741898554,0.7322579406800167,-0.17250507808743945
-9.314040899276733,-15868.0,436.0,4424.0,-98.0,139.0,-75.0,-0.009935301402486088,-0.661452411772581,0.7294113135168412,-0.17418706168919143
-9.337488889694214,-15628.0,440.0,4552.0,-84.0,122.0,-70.0,-0.023537722874139622,-0.6639124064287715,0.7264847854960265,-0.17574455506401995
-9.360957860946655,-15656.0,380.0,4396.0,-127.0,114.0,-70.0,-0.03911965235830961,-0.6662555446763159,0.7240665442241917,-0.1740713690492131
-9.384422302246094,-15696.0,396.0,4304.0,-121.0,111.0,-46.0,-0.05379092882471263,-0.6669911780321865,0.7227888581654301,-0.17264289998527113
-9.407869338989258,-15636.0,420.0,4104.0,-118.0,95.0,-68.0,-0.06759933537209951,-0.6692290707780881,0.720104238823571,-0.17033104799499285
-9.431334733963013,-15596.0,424.0,4264.0,-75.0,135.0,19.0,-0.08010607393775379,-0.6655285597995604,0.7214837469810854,-0.1735394936362764
-9.454787492752075,-15640.0,448.0,4276.0,-112.0,113.0,-66.0,-0.09464939250399168,-0.6671209368437157,0.7184922765749074,-0.17251085944251485
-9.478259086608887,-15628.0,396.0,4252.0,-91.0,103.0,-42.0,-0.10696533682463152,-0.6674071071485324,0.716526592139034,-0.1723827508866332
-9.501736879348755,-15376.0,372.0,4300.0,-62.0,113.0,-70.0,-0.11862360684992378,-0.6694598148462522,0.7122847083153037,-0.17436309960573454
-9.525245428085327,-15620.0,416.0,4352.0,-96.0,130.0,-30.0,-0.13269658982577692,-0.6682933064838193,0.7105901810252571,-0.17560542755856293
-9.548699855804443,-15580.0,412.0,4604.0,-97.0,86.0,-81.0,-0.1448585493130564,-0.6708265463470751,0.7063086480890307,-0.17359677140320984
-9.572169303894043,-15836.0,364.0,4300.0,-107.0,43.0,-32.0,-0.15419185409769104,-0.6707700110755694,0.705489648535838,-0.16904679878772208
-9.595592737197876,-15652.0,368.0,4544.0,-55.0,94.0,-60.0,-0.16401950043688765,-0.6723106687704906,0.7014963803931089,-0.17029032981698078
-9.619067668914795,-15828.0,392.0,4304.0,-86.0,99.0,-69.0,-0.17608302242050453,-0.6737904179771961,0.6972644258162932,-0.16977503452642984
-9.642501592636108,-15840.0,348.0,4260.0,-109.0,87.0,-103.0,-0.1892389069508174,-0.677032203901337,0.6914195578104045,-0.16659839751277006
-9.66597604751587,-15628.0,420.0,4096.0,-56.0,88.0,-51.0,-0.19853802968157977,-0.6778870589275849,0.6877443124908841,-0.16750984074109315
-9.68944263458252,-15576.0,376.0,4272.0,-98.0,96.0,-47.0,-0.21072003802007333,-0.6775690335037982,0.6846903771087134,-0.16642222780709176
-9.71295690536499,-15628.0,432.0,4356.0,-114.0,115.0,-73.0,-0.22532130999112357,-0.6781007813916624,0.6798438101121517,-0.16499100397322694
-9.736415386199951,-15664.0,372.0,4340.0,-41.0,123.0,-26.0,-0.235360179664563,-0.677039622822531,0.6764423241106482,-0.16925931911825215
-9.759851217269897,-15696.0,408.0,4296.0,-101.0,83.0,-102.0,-0.24766684516711435,-0.6797093619345025,0.6701417123657276,-0.16603132972752607
-9.783334732055664,-15624.0,448.0,4380.0,-102.0,121.0,-256.0,-0.2643746506018152,-0.6905083288909835,0.6535983454177493,-0.161596703922233
-9.806792974472046,-15616.0,420.0,4180.0,-78.0,72.0,-86.0,-0.27433864094225785,-0.6925722552515092,0.6478145796398478,-0.15943102504795134
-9.830249786376953,-15624.0,400.0,4328.0,-99.0,93.0,-30.0,-0.2859428687130253,-0.6905754344327036,0.645110338346618,-0.15866599052273375
-9.853840827941895,-15840.0,388.0,4336.0,-109.0,100.0,-45.0,-0.29870603362770226,-0.6889645012426946,0.6413584114528205,-0.15735949148534284
-9.877315759658813,-15576.0,392.0,4108.0,-61.0,142.0,-63.0,-0.3111234027825712,-0.6889021243675585,0.6346421763938518,-0.1607650435416047
-9.900810718536377,-15408.0,312.0,4288.0,-108.0,100.0,-44.0,-0.32371610277533114,-0.6869659357480754,0.6307427567161341,-0.15952825071395402
-9.924326658248901,-15620.0,416.0,4360.0,-116.0,109.0,-75.0,-0.3376505892257559,-0.6862438027610507,0.6247088207662127,-0.1574814656537076
-9.947806596755981,-15604.0,392.0,4332.0,-141.0,133.0,-98.0,-0.3546079078588972,-0.6855065105217694,0.6167461332656481,-0.15478456905672106
-9.971324682235718,-15364.0,444.0,4440.0,-88.0,96.0,18.0,-0.3647536238837978,-0.6804979055570066,0.6159984085132125,-0.15627973350807095
-9.994764804840088,-15572.0,352.0,4240.0,-97.0,116.0,-70.0,-0.3776466896563269,-0.6795462702294252,0.6094036091479624,-0.15565052382286534
-10.018254041671753,-15572.0,404.0,4124.0,-78.0,87.0,251.0,-0.3833600396082684,-0.6622754973519623,0.62230030050346,-0.16482894658421196
-10.041731595993042,-15632.0,380.0,4252.0,-128.0,105.0,-36.0,-0.3969194419389934,-0.6583918985804893,0.6184773747283666,-0.16266776399620259
-10.065227031707764,-15664.0,388.0,4280.0,-79.0,105.0,-98.0,-0.4084616850644352,-0.6594145529920061,0.6102624768484592,-0.16096958870376257
-10.088684558868408,-15596.0,372.0,4320.0,-81.0,100.0,41.0,-0.41783231739747884,-0.6529196389477635,0.6101474242315791,-0.1638054343364233
-10.112148523330688,-15568.0,376.0,4400.0,-108.0,108.0,-56.0,-0.43048545510742176,-0.650380660235569,0.604493533854484,-0.16209514878804782
-10.135683059692383,-15592.0,432.0,4272.0,-93.0,78.0,-83.0,-0.44100911028912076,-0.6501365631293705,0.5981086310360264,-0.1584281521843216
-10.159117698669434,-15692.0,456.0,4304.0,-138.0,99.0,-52.0,-0.45466614974452096,-0.6461207535660096,0.5931733859211501,-0.15476433155809233
-10.182571411132812,-15624.0,380.0,4336.0,-107.0,122.0,-62.0,-0.46779631353352313,-0.6433909350118959,0.5862004768049749,-0.15356990194235348
-10.206117391586304,-15572.0,400.0,4216.0,-101.0,123.0,-26.0,-0.48006014348502335,-0.6389142501424135,0.5809998423222044,-0.15417529900626126
-10.229599237442017,-15584.0,368.0,4208.0,-109.0,96.0,-21.0,-0.4912489604462117,-0.6340969053748989,0.5772094857653005,-0.15305156973076203
-10.253091812133789,-15664.0,384.0,4252.0,-112.0,103.0,-107.0,-0.5040017232270173,-0.6332549878397853,0.5682734125351153,-0.14844430593971933
-10.27660322189331,-15584.0,364.0,4324.0,-97.0,94.0,-55.0,-0.5147011167553684,-0.6304757495147694,0.5622881361719025,-0.1463391321721377
-10.30004358291626,-15620.0,448.0,4296.0,-117.0,111.0,-90.0,-0.5276751488909851,-0.6281663300525049,0.553747049159915,-0.14258402637718876
-10.32353138923645,-15868.0,380.0,4332.0,-72.0,112.0,-129.0,-0.538579519791891,-0.6296384737536049,0.5423134599794863,-0.13922501339574447
-10.346972942352295,-15596.0,432.0,4264.0,-109.0,106.0,-75.0,-0.5504497650424757,-0.626737192766781,0.5344445747495369,-0.1362884583825242
-10.370420932769775,-15684.0,424.0,4276.0,-59.0,88.0,-25.0,-0.5580676347758184,-0.624023274413507,0.5294944461941208,-0.13708063121954814
-10.393884897232056,-15872.0,400.0,4300.0,-82.0,67.0,-29.0,-0.5659658956695476,-0.6205683918151882,0.5255743179705535,-0.1354588952733087
-10.41736888885498,-15608.0,408.0,4312.0,-106.0,137.0,-80.0,-0.5788746447476033,-0.6173251526783545,0.5156182128056528,-0.13398380559637474
-10.440845966339111,-15608.0,440.0,4436.0,-93.0,39.0,-23.0,-0.5859057433669856,-0.6132080316336425,0.5134354417232063,-0.1306691126933591
-10.464332103729248,-15668.0,468.0,4592.0,-116.0,116.0,31.0,-0.59691826832732,-0.604526154225086,0.5103897213541979,-0.1331879954460059
-10.487802028656006,-15656.0,396.0,4120.0,-86.0,105.0,-52.0,-0.6067107378770449,-0.6011217195200579,0.5030911860647994,-0.13211365323029303
-10.511345624923706,-15624.0,408.0,4208.0,-116.0,78.0,17.0,-0.6160037194022941,-0.5933157070456119,0.5011067559506703,-0.1319390336333442
-10.534785985946655,-15664.0,380.0,4276.0,-115.0,81.0,-5.0,-0.6255383952142212,-0.5864010246728646,0.4977316794704842,-0.13076211082313752
-10.558253049850464,-15860.0,352.0,4584.0,-88.0,106.0,-73.0,-0.6354506842582375,-0.5835291538564403,0.4891155674925276,-0.12830477821105202
-10.581739902496338,-15376.0,428.0,4320.0,-62.0,93.0,-43.0,-0.6430554289324687,-0.5808788307614678,0.4823806900386037,-0.12793892750664035
-10.605228424072266,-15636.0,420.0,4276.0,-106.0,135.0,-56.0,-0.6546893325978064,-0.5757336660446174,0.4730316916476695,-0.12709697975328912
-10.628750324249268,-15560.0,376.0,4316.0,-153.0,76.0,-43.0,-0.6659482351870941,-0.5678799310345912,0.468109114071298,-0.12206223536674689
-10.652205467224121,-15864.0,376.0,4300.0,-113.0,115.0,-62.0,-0.6768668310973668,-0.5625802207202724,0.4594383958055421,-0.11946191306926363
-10.675686597824097,-15620.0,376.0,4604.0,-98.0,115.0,-14.0,-0.6864158558889701,-0.5561256992366495,0.4528698896337399,-0.12027610941448226
-10.699155569076538,-15652.0,420.0,4396.0,-129.0,137.0,247.0,-0.695286386170671,-0.5370199858226629,0.4577674648828721,-0.1365112600757313
-10.722612142562866,-15412.0,392.0,4396.0,-103.0,89.0,-37.0,-0.7041012880997777,-0.5311666340288971,0.45175224519958646,-0.13425085455138924
-10.746100902557373,-15660.0,352.0,4312.0,-66.0,106.0,-10.0,-0.71145976589338,-0.5262513754354922,0.44544523833508154,-0.13587873642256193
-10.769599437713623,-15632.0,364.0,4292.0,-94.0,86.0,-19.0,-0.7193470398905253,-0.5201190532281191,0.44024025294520486,-0.13492415038296907
-10.793071746826172,-15824.0,376.0,4216.0,-79.0,69.0,239.0,-0.7226308817224222,-0.5050508101130411,0.4474928862877367,-0.14992799840959092
-10.816532850265503,-15564.0,376.0,4264.0,-126.0,116.0,-33.0,-0.7331123708591027,-0.49683310807213693,0.440238145609684,-0.1479644875193791
-10.840034484863281,-15688.0,376.0,4292.0,-71.0,116.0,-241.0,-0.7435943955284626,-0.49992214612974467,0.4230702347831557,-0.13474716764450406
-10.863587141036987,-15600.0,356.0,4196.0,-76.0,110.0,-38.0,-0.7514162762641283,-0.49507839279080507,0.41504301907525115,-0.13420229906348538
-10.8870530128479,-15620.0,444.0,4100.0,-83.0,91.0,-44.0,-0.7588186559985965,-0.4901466784036233,0.40802159000771954,-0.13216982653371015
-10.910555839538574,-15624.0,380.0,4356.0,-104.0,87.0,-7.0,-0.7664492077238269,-0.48248306321102513,0.403030214813635,-0.13165238942495247
-10.934106826782227,-15672.0,388.0,4224.0,-89.0,100.0,-90.0,-0.7747286252119601,-0.47851133541077573,0.3934283546665891,-0.12663565416154715
-10.957601547241211,-15648.0,424.0,4120.0,-122.0,114.0,-72.0,-0.7844929311165656,-0.47142708175078607,0.38390160836323983,-0.12225752621493148
-10.981107473373413,-15680.0,392.0,4396.0,-99.0,79.0,-79.0,-0.7920491123641017,-0.4664223422525994,0.37614920113785455,-0.11670553000689977
-11.004618883132935,-15652.0,424.0,4328.0,-95.0,75.0,247.0,-0.795696225016437,-0.4508614414030883,0.38175822067071613,-0.13361189730278453
-11.028081178665161,-15672.0,384.0,4236.0,-67.0,97.0,-51.0,-0.8021716857921382,-0.44675605165306403,0.37365114674690975,-0.13158433553992405
-11.051541328430176,-15860.0,456.0,4372.0,-99.0,121.0,-82.0,-0.8108872919546661,-0.4410627455586458,0.3629487862583038,-0.12725420535417076
-11.07498574256897,-15604.0,468.0,4284.0,-80.0,133.0,-73.0,-0.8189638765687854,-0.4361921643862666,0.3514409567487133,-0.12459461674968285
-11.098435640335083,-15600.0,432.0,4104.0,-123.0,75.0,-55.0,-0.8265358433483193,-0.4282372347649894,0.34515345023547866,-0.11966815036534567
-11.121932029724121,-15652.0,396.0,4304.0,-121.0,104.0,-52.0,-0.8347117637245681,-0.4199452147798419,0.33679033220300164,-0.11607997337148669
-11.145386695861816,-15652.0,388.0,4304.0,-100.0,103.0,-43.0,-0.8418360024988015,-0.41284555459210726,0.3285446095936586,-0.11370634308306535
-11.168812990188599,-15652.0,408.0,4288.0,-66.0,110.0,-39.0,-0.8477656704137361,-0.4079946736248487,0.31953340512598155,-0.1128366845059585
-11.192310333251953,-15384.0,372.0,4296.0,-64.0,110.0,-14.0,-0.8532663779489519,-0.402538488811611,0.3113446765627671,-0.11385844572611606
-11.215781688690186,-15644.0,416.0,4320.0,-95.0,112.0,-102.0,-0.8606254442373565,-0.3970697718224459,0.3001598712542744,-0.10753368181523791
-11.239233016967773,-15604.0,372.0,4328.0,-108.0,78.0,-102.0,-0.8673453903102798,-0.3908497170289415,0.2915740731527917,-0.09966459988880282
-11.262710571289062,-15612.0,408.0,4312.0,-111.0,124.0,-56.0,-0.874740829413945,-0.38274220740112486,0.2810281602531707,-0.09674738846416431
-11.286224603652954,-15640.0,380.0,4400.0,-60.0,103.0,-14.0,-0.8794112739262269,-0.3776061698287916,0.27300065167709564,-0.09757067173368128
-11.309700727462769,-15672.0,440.0,4296.0,-98.0,123.0,-48.0,-0.8859583626312874,-0.3701333773022995,0.26259189195227645,-0.0955225678643848
-11.333226680755615,-15596.0,376.0,4368.0,-102.0,71.0,-18.0,-0.8910472744106304,-0.3620331685399165,0.25715585208975467,-0.09400854949592259
-11.3566734790802,-15600.0,340.0,4292.0,-125.0,117.0,-45.0,-0.8979540362566594,-0.3523067079233178,0.24742618967005778,-0.09131710128976309
-11.380173206329346,-15688.0,432.0,4376.0,-88.0,105.0,-59.0,-0.9033896085912863,-0.3458037582764615,0.2378514664543389,-0.08794120624984472
-11.403658628463745,-15612.0,376.0,4328.0,-82.0,55.0,238.0,-0.9050221591091501,-0.33387628055605617,0.24104992531224434,-0.10656666603787288
-11.427172899246216,-15640.0,408.0,4396.0,-68.0,91.0,-72.0,-0.9095956500249218,-0.32913154002420586,0.23216134535099198,-0.10202594053402302
-11.450688123703003,-15588.0,396.0,4276.0,-88.0,134.0,-106.0,-0.9157219529007236,-0.32303468025943516,0.21900594422353045,-0.09559443875105542
-11.474161624908447,-15860.0,384.0,4288.0,-88.0,102.0,-79.0,-0.9207931795679833,-0.31661044783782233,0.20910861590770202,-0.09039541766141802
-11.497639894485474,-15628.0,408.0,4284.0,-88.0,100.0,-246.0,-0.9267781021569204,-0.3131235330400975,0.19467063178752278,-0.07168924283566322
-11.521132707595825,-15592.0,432.0,4292.0,-68.0,132.0,-40.0,-0.9311068298390408,-0.30742886792785507,0.18306125712201524,-0.07082470425350473
-11.544622421264648,-15640.0,404.0,4304.0,-72.0,98.0,-44.0,-0.9348769728224838,-0.3016332866440893,0.17409687720562222,-0.06864898704135228
-11.568049430847168,-15660.0,404.0,4152.0,-117.0,97.0,-45.0,-0.9396686316899816,-0.2921388698350945,0.16542367464974447,-0.06567154037120532
-11.591525316238403,-15568.0,348.0,4252.0,-101.0,125.0,-87.0,-0.9444825168953396,-0.28433366757495165,0.1532484010165869,-0.0601836219272414
-11.614974975585938,-15860.0,368.0,4260.0,-80.0,115.0,-36.0,-0.9481724783873652,-0.2775692167516005,0.14301260558249662,-0.0589209282442974
-11.638425350189209,-15632.0,392.0,4344.0,-59.0,97.0,-142.0,-0.9514730155840709,-0.2738982497382596,0.1315554828172531,-0.048703227268754236
-11.661913394927979,-15372.0,304.0,4100.0,-77.0,75.0,-37.0,-0.9543329732743432,-0.2675704774878834,0.12448245108618362,-0.04646218967971478
-11.685379981994629,-15384.0,420.0,4284.0,-111.0,116.0,-39.0,-0.9582887407422175,-0.25822460633308575,0.11406233540432642,-0.044637716036204644
-11.708846807479858,-15636.0,396.0,4584.0,-86.0,116.0,-48.0,-0.9615262670736919,-0.25100539674661954,0.10331419831146317,-0.04230490466438802
-11.732343673706055,-15424.0,376.0,4364.0,-90.0,127.0,-69.0,-0.9648296824765126,-0.24354897449576338,0.09117205799848635,-0.03840880985730246
-11.755785465240479,-15620.0,436.0,4308.0,-132.0,137.0,-99.0,-0.9689211731712319,-0.23269250775899625,0.07766014867869443,-0.031856841031652594
-11.77921986579895,-15520.0,396.0,4100.0,-85.0,51.0,-104.0,-0.9712362983432085,-0.2260227949991232,0.07116071729491237,-0.023449973037086083
-11.80269479751587,-15652.0,372.0,4276.0,-51.0,60.0,-106.0,-0.9727948004505371,-0.2221935511289472,0.06377601269481822,-0.015261790781490434
-11.826226234436035,-15556.0,396.0,4336.0,-83.0,168.0,-18.0,-0.9752543283549907,-0.2149681288624145,0.048957347012673506,-0.016458334415384666
-11.8498215675354,-15640.0,424.0,4320.0,-151.0,151.0,-39.0,-0.9786308209122931,-0.20200238551016514,0.035270316778815536,-0.015256387614893787
-11.873312950134277,-15860.0,404.0,4476.0,-106.0,85.0,-47.0,-0.980761639233733,-0.19293751550388807,0.027004024052948754,-0.012349283529648992
-11.896823644638062,-15616.0,364.0,4336.0,-54.0,80.0,-6.0,-0.9818434215915206,-0.18820965397556758,0.019793939180767522,-0.012993136632882358
-11.920329809188843,-15612.0,424.0,4268.0,-110.0,79.0,-89.0,-0.9837980939661632,-0.17880434559657477,0.011366015238979945,-0.006413267647005884
-11.943821430206299,-15868.0,388.0,4296.0,-124.0,74.0,-68.0,-0.9857543451809343,-0.16814367288910062,0.0036984592123129275,-0.0015484262092660315
-11.967333555221558,-15400.0,384.0,4240.0,-86.0,123.0,-48.0,-0.9869702525881304,-0.1607065654195303,-0.007898286233900802,0.0008587268179606241
-11.99077320098877,-15632.0,372.0,4324.0,-78.0,76.0,-95.0,-0.9879239060350241,-0.15389405162032668,-0.016105706278904074,0.007973894007239019
-12.014246463775635,-15652.0,476.0,4376.0,-105.0,119.0,-69.0,-0.9889989735626672,-0.14479286688507687,-0.027687024357392127,0.012226392494281488
-12.037738561630249,-15612.0,392.0,4208.0,-91.0,80.0,-249.0,-0.9893892572574464,-0.13636596669178477,-0.03814952060756058,0.03252437284847424
-12.061227798461914,-15648.0,420.0,4396.0,-109.0,119.0,-78.0,-0.9899309239905635,-0.12700735648187333,-0.04998142964568779,0.03752004553899771
-12.084679365158081,-15660.0,428.0,4212.0,-85.0,84.0,-68.0,-0.9901924662861799,-0.11962820446367192,-0.058591486300361796,0.04213086920542838
-12.108166933059692,-15656.0,392.0,4316.0,-74.0,67.0,229.0,-0.9912080370243357,-0.11461923075491465,-0.06257313936891921,0.021299331187452194
-12.13161826133728,-15616.0,352.0,4140.0,-108.0,118.0,-89.0,-0.9913279109946241,-0.1049863497394628,-0.07418645472338405,0.027261863234067017
-12.155056476593018,-15676.0,344.0,4424.0,-144.0,123.0,-34.0,-0.99160211606634,-0.09257961882486321,-0.0857931539405242,0.02817432036336619
-12.178545236587524,-15616.0,388.0,4516.0,-57.0,96.0,-54.0,-0.9911217229709106,-0.08746802363998404,-0.09499432391546021,0.031672598875575116
-12.202022314071655,-15640.0,456.0,4568.0,-114.0,84.0,-62.0,-0.9909996642550554,-0.07731699314006733,-0.10336058584236008,0.0354730505097949
-12.225496292114258,-15856.0,328.0,4240.0,-118.0,93.0,-29.0,-0.9907416917913839,-0.06713256153110392,-0.11227522227091331,0.03630969281935685
-12.248961210250854,-15652.0,412.0,4152.0,-94.0,77.0,-30.0,-0.9903441936806191,-0.05895660558533057,-0.11971876663934322,0.03754881643001366
-12.27243423461914,-15604.0,328.0,4328.0,-107.0,135.0,-255.0,-0.9882484751245328,-0.04747522863791458,-0.1333184268721439,0.057768946122898596
-12.295886039733887,-15576.0,416.0,4444.0,-80.0,126.0,-57.0,-0.986683125643595,-0.04056064053785296,-0.1451254790713036,0.06123593172043458
-12.31938648223877,-15600.0,436.0,4560.0,-118.0,97.0,-99.0,-0.9851687851029252,-0.029681655001859503,-0.1547523918420694,0.06792025790834337
-12.342891693115234,-15632.0,368.0,4292.0,-82.0,95.0,-59.0,-0.9836240031771843,-0.02242139485975756,-0.1638580109967259,0.07163556140933147
-12.366316795349121,-15592.0,420.0,4156.0,-87.0,55.0,-57.0,-0.9825459530801245,-0.014511434986479806,-0.1695353740197481,0.07517064118714871
-12.389775276184082,-15652.0,396.0,4320.0,-133.0,109.0,-72.0,-0.9804435756255853,-0.0027905837958514842,-0.18012898448340836,0.0792221976820382
-12.413251638412476,-15616.0,352.0,4264.0,-102.0,128.0,-88.0,-0.9776607581646806,0.00639608830175694,-0.19208713564830646,0.08509444351852383
-12.436754703521729,-15620.0,364.0,4592.0,-105.0,107.0,-15.0,-0.9755522489766714,0.014765519542945317,-0.20227219994115378,0.08465072994458589
-12.46019434928894,-15672.0,392.0,4328.0,-87.0,81.0,-37.0,-0.9736176872819141,0.022177696564714005,-0.2100509487542725,0.0863443554283094
-12.48365569114685,-15840.0,416.0,4332.0,-69.0,115.0,21.0,-0.9714020487556334,0.026735219856721993,-0.22066470220007564,0.08348878305211271
-12.507129907608032,-15652.0,408.0,4416.0,-123.0,129.0,-68.0,-0.9679350080833217,0.03747235839943143,-0.23260053399523403,0.08714719770512674
-12.530585050582886,-15384.0,380.0,4332.0,-89.0,118.0,-98.0,-0.9643203902120413,0.046016578236735564,-0.24318725050750986,0.09396074041468847
-12.554098129272461,-15664.0,400.0,4280.0,-114.0,120.0,-95.0,-0.9603352448167566,0.05656748309216479,-0.25409272391446985,0.09996611962601541
-12.57751202583313,-15636.0,392.0,4332.0,-87.0,108.0,-52.0,-0.9569083511912688,0.06398972460373475,-0.2639097540147812,0.10287547959258012
-12.600980281829834,-15588.0,412.0,4288.0,-110.0,73.0,-65.0,-0.9538818515346453,0.0739305388506569,-0.27089146516269313,0.10612022823240563
-12.624474287033081,-15600.0,400.0,4428.0,-101.0,114.0,-53.0,-0.949881293372042,0.0824397197076139,-0.28122689875740153,0.10881476247127937
-12.64796757698059,-15600.0,312.0,4264.0,-113.0,109.0,-78.0,-0.9454724239545844,0.09258449635304312,-0.2910180217360492,0.11321889242230036
-12.671389102935791,-15404.0,336.0,4324.0,-90.0,97.0,-72.0,-0.9414207828810469,0.10077196048454425,-0.2995773202515122,0.11758125161207143
-12.694893836975098,-15620.0,440.0,4260.0,-104.0,79.0,-29.0,-0.9380122032927074,0.10914825063214383,-0.3071299449506458,0.11785992861238538
-12.718321323394775,-15644.0,420.0,4140.0,-84.0,84.0,-67.0,-0.9341387409359714,0.11683644880751405,-0.3144787420800216,0.12180795414247098
-12.741888046264648,-15388.0,468.0,4164.0,-59.0,115.0,-53.0,-0.9296831731059575,0.12174923413531276,-0.3241812431117159,0.1255899806738007
-12.765328645706177,-15600.0,436.0,4544.0,-116.0,99.0,-44.0,-0.9250156247528459,0.1311780392884137,-0.3332455347451227,0.12682992369305748
-12.788793325424194,-15572.0,400.0,4344.0,-79.0,96.0,-56.0,-0.9205720049338814,0.1379782219425882,-0.3414621026170153,0.13004932325061408
-12.812230587005615,-15580.0,384.0,4288.0,-102.0,97.0,-82.0,-0.9153698449066536,0.14736118472684673,-0.34964448175578394,0.1346531271422914
-12.835742235183716,-15620.0,356.0,4412.0,-100.0,119.0,-37.0,-0.9098719262169598,0.15491667580308155,-0.3600642674365893,0.13596920517423988
-12.859327554702759,-15632.0,368.0,4216.0,-98.0,81.0,-57.0,-0.9052031167887802,0.16336312728730218,-0.3671077385514513,0.1383897188899156
-12.882764101028442,-15552.0,416.0,4352.0,-119.0,86.0,-72.0,-0.8997399101918258,0.17385065673648853,-0.3745152118358866,0.1413591145410094
-12.906553030014038,-15684.0,392.0,4376.0,-102.0,110.0,-10.0,-0.8943493322819152,0.18064365162489812,-0.38446172617146684,0.14034359295589824
-12.930131912231445,-15848.0,404.0,4516.0,-67.0,95.0,13.0,-0.8901741253753582,0.1840857007183275,-0.39311116625269726,0.138441656558648
-12.953611612319946,-15684.0,292.0,4180.0,-78.0,75.0,-93.0,-0.8851117627483797,0.1922390254365677,-0.39858555603902734,0.14405165414084733
-12.977097034454346,-15684.0,396.0,4440.0,-75.0,101.0,-27.0,-0.8799084741696835,0.19750071724594412,-0.4070723478652457,0.14507462691729897
-13.000594854354858,-15620.0,400.0,4532.0,-104.0,147.0,235.0,-0.8755393216709324,0.1950154765525037,-0.4237966748946251,0.12568308741140405
-13.024083614349365,-15872.0,380.0,4144.0,-93.0,70.0,-94.0,-0.8702226684830231,0.20462317777114422,-0.4287446229999411,0.13046037952483383
-13.0475754737854,-15644.0,424.0,4380.0,-65.0,-228.0,-53.0,-0.8767655943372447,0.21388924093081663,-0.4113394930386024,0.12780182575864352
-13.071051597595215,-15632.0,368.0,4336.0,-102.0,137.0,-30.0,-0.8694769292612706,0.22102306280141007,-0.4225654013544298,0.12882995292417504
-13.094506740570068,-15624.0,412.0,4332.0,-109.0,78.0,-61.0,-0.8637155903603672,0.2304456607817051,-0.4287040897111496,0.13077836159036585
-13.118019819259644,-15872.0,432.0,4328.0,-111.0,137.0,-74.0,-0.8553737506080845,0.23977824672208062,-0.4389490605120045,0.13478079034184373
-13.141488790512085,-15608.0,432.0,4156.0,-101.0,124.0,-70.0,-0.8475750710878158,0.2483012817931162,-0.4480697363262327,0.1385513757380989
-13.16495394706726,-15588.0,396.0,4160.0,-81.0,82.0,4.0,-0.8426120493603944,0.2529162754407462,-0.455361790160574,0.1366891800824576
-13.188440322875977,-15612.0,364.0,4392.0,-114.0,97.0,-45.0,-0.8356277106774445,0.261684833155868,-0.4629923028950914,0.13742454185500724
-13.211879968643188,-15620.0,408.0,4308.0,-106.0,117.0,-17.0,-0.8282023989879662,0.26844968895040167,-0.47252875514800013,0.1368653585509921
-13.235387325286865,-15648.0,344.0,4176.0,-86.0,100.0,244.0,-0.8247413600830877,0.263106725928953,-0.4865148179276815,0.11781286719217235
-13.258878946304321,-15404.0,416.0,4360.0,-105.0,93.0,233.0,-0.8205538330403337,0.2595108561688927,-0.49964096078336556,0.09851108019293953
-13.282331943511963,-15640.0,384.0,4348.0,-92.0,72.0,-89.0,-0.8145105805244895,0.2691081438486855,-0.5036722130439759,0.10231140178571481
-13.305804252624512,-15364.0,400.0,4100.0,-106.0,59.0,-93.0,-0.8085420395206162,0.279950389580378,-0.506721837898431,0.10545391741643809
-13.329315662384033,-15872.0,360.0,4216.0,-126.0,94.0,-242.0,-0.7988526651047854,0.2983569290739904,-0.508575461752588,0.11903176900164751
-13.352820873260498,-15656.0,440.0,4300.0,-97.0,86.0,-72.0,-0.7917331844591473,0.30717042012115714,-0.5137816469532801,0.12179210517412335
-13.376253843307495,-15620.0,448.0,4356.0,-98.0,88.0,-64.0,-0.7844608083426212,0.315626529303922,-0.5192574465832099,0.12398725072315629
-13.39972186088562,-15396.0,320.0,4240.0,-114.0,151.0,-63.0,-0.7737286766647354,0.32438184136701514,-0.5291197531741058,0.12709304740604493
-13.423161029815674,-15656.0,384.0,4340.0,-118.0,151.0,-245.0,-0.7604795209452515,0.3416473338209073,-0.5335895544858241,0.14223285436060826
-13.446707725524902,-15564.0,420.0,4328.0,-93.0,124.0,-34.0,-0.751506184512701,0.34761984251789435,-0.5419947615512622,0.1436682921802403
-13.470223426818848,-15576.0,376.0,4372.0,-60.0,96.0,9.0,-0.7452944350564811,0.34970092495092714,-0.549366803443661,0.1429740656077201
-13.493699789047241,-15596.0,380.0,4576.0,-107.0,125.0,-1.0,-0.7360264374251855,0.354908125890931,-0.5588122194296612,0.1415422516560799
-13.517138719558716,-15596.0,404.0,4468.0,-98.0,101.0,-32.0,-0.727695158392955,0.3612881225586398,-0.565536823457153,0.1417700612382542
-13.540814876556396,-15648.0,312.0,4316.0,-69.0,103.0,-52.0,-0.7198283401639871,0.36674151973152463,-0.5713126637602277,0.1447399690098217
-13.564325094223022,-15676.0,336.0,4188.0,-78.0,102.0,-39.0,-0.7117919940260431,0.37208028784221064,-0.5774754308346354,0.14639174642731476
-13.587815046310425,-15668.0,388.0,4380.0,-72.0,112.0,-9.0,-0.7037385912284602,0.37536277540229124,-0.5850703520855001,0.14679054863519134
-13.611310005187988,-15648.0,380.0,4328.0,-109.0,108.0,-31.0,-0.6942863185219527,0.3820380788390543,-0.5920744261873662,0.14649671697720504
-13.634878873825073,-15624.0,372.0,4376.0,-75.0,128.0,-58.0,-0.6844627608900892,0.3877281342748697,-0.5988375982135525,0.15023699215662262
-13.658555507659912,-15644.0,452.0,4120.0,-52.0,78.0,-80.0,-0.6776386497756405,0.39379660326702404,-0.6014767408957883,0.1547766963951024
-13.682125568389893,-15588.0,368.0,4292.0,-103.0,107.0,-34.0,-0.6680666958853826,0.40002274895770185,-0.608009580814426,0.15489686828008267
-13.705591201782227,-15608.0,364.0,4412.0,-82.0,119.0,-51.0,-0.6582474186624603,0.405701147625856,-0.6142517923870124,0.15751714252300797
-13.729039907455444,-15684.0,336.0,4148.0,-88.0,95.0,-44.0,-0.6494946944262001,0.41161955002636713,-0.6193481787266283,0.15853649881436244
-13.752493381500244,-15564.0,396.0,4308.0,-85.0,124.0,-3.0,-0.6397510926693442,0.41469261617093833,-0.6274180231322062,0.1584146387508351
-13.775967121124268,-15652.0,444.0,4268.0,-120.0,71.0,-46.0,-0.6309436155694442,0.42274455033690833,-0.6313483587871399,0.15683255079666122
-13.79939866065979,-15380.0,476.0,4604.0,-121.0,127.0,-43.0,-0.6189296748937231,0.42984080834838556,-0.638350773280876,0.15707077152056126
-13.822888851165771,-15628.0,400.0,4360.0,-76.0,109.0,-40.0,-0.6095273646682542,0.4345075851199478,-0.643751291575922,0.1589459807234412
-13.846712827682495,-15740.0,316.0,4324.0,-91.0,143.0,57.0,-0.5988749910004454,0.433970765617921,-0.654719784886485,0.15607729822561284
-13.870176792144775,-15552.0,424.0,4596.0,-109.0,138.0,-55.0,-0.5861543383768116,0.44074302465709597,-0.6612599117047784,0.1578100345046075
-13.893620729446411,-15568.0,428.0,4288.0,-98.0,57.0,-40.0,-0.5786308909579301,0.44712762958850305,-0.6639615229032354,0.1562634665934905
-13.917102098464966,-15564.0,456.0,4244.0,-112.0,76.0,-4.0,-0.5698801189519066,0.45182251838616044,-0.6691353849605456,0.15281000784062201
-13.940635919570923,-15612.0,364.0,4332.0,-130.0,113.0,-92.0,-0.5569666154945065,0.46196745930334115,-0.6727733833208214,0.1541110977978728
-13.96407413482666,-15712.0,464.0,4272.0,-119.0,107.0,-41.0,-0.5453970117395516,0.46855583815157503,-0.6778619384053104,0.15329944090256067
-13.987523317337036,-15700.0,428.0,4324.0,-72.0,112.0,-16.0,-0.5356958207113047,0.47128676861110774,-0.6834639742047051,0.15425876107648476
-14.010966777801514,-15636.0,372.0,4288.0,-85.0,118.0,-9.0,-0.5251180127574985,0.47406175108166826,-0.6897069008136957,0.15434027280319607
-14.034428119659424,-15620.0,396.0,4292.0,-101.0,80.0,-41.0,-0.5156569048928378,0.4799427405955566,-0.6929953502672561,0.15333090586678275
-14.057889223098755,-15656.0,392.0,4516.0,-88.0,54.0,-47.0,-0.5081728473771999,0.48589840004228874,-0.6946047440446764,0.15227393596910288
-14.081334590911865,-15612.0,360.0,4420.0,-103.0,97.0,245.0,-0.501148073902046,0.4740773783306927,-0.7104537162862384,0.13912858942158335
-14.104809284210205,-15584.0,476.0,4344.0,-122.0,80.0,218.0,-0.49377890234554206,0.4647030712508428,-0.7242639007513566,0.12520085158214656
-14.128227233886719,-15668.0,416.0,4340.0,-86.0,45.0,-69.0,-0.4867908373996523,0.47216071460585834,-0.724299424232192,0.12445595310609142
-14.151710271835327,-15664.0,360.0,4272.0,-78.0,118.0,-72.0,-0.4754137422134889,0.47860758157958083,-0.7271192367365185,0.12733488185416467
-14.17514967918396,-15652.0,372.0,4372.0,-73.0,108.0,-33.0,-0.46523579840383017,0.48240929944400074,-0.730979266022574,0.1284765828413801
-14.198569297790527,-15620.0,396.0,4604.0,-60.0,107.0,-38.0,-0.45555235063770183,0.4859551468312928,-0.7343463770622846,0.13059498302820818
-14.222116470336914,-15552.0,424.0,4320.0,-69.0,97.0,-7.0,-0.44642858264706753,0.4879319758593635,-0.7386496471808196,0.13046304553151666
-14.24558138847351,-15596.0,420.0,4384.0,-91.0,116.0,-20.0,-0.43493413940240006,0.4913245664502306,-0.7432882007414467,0.13021180984584063
-14.269071340560913,-15648.0,428.0,4536.0,-94.0,91.0,-53.0,-0.42448873859390085,0.49718282694293503,-0.7454778789227078,0.12992797788348442
-14.292509317398071,-15652.0,368.0,4280.0,-81.0,109.0,-28.0,-0.41365750273459245,0.5006580075458317,-0.7491625124362453,0.13032482446499272
-14.315995693206787,-15656.0,404.0,4336.0,-61.0,101.0,-45.0,-0.4039747552450042,0.5045512583036805,-0.7514885635951544,0.1322776007289334
-14.339532852172852,-15648.0,360.0,4188.0,-89.0,118.0,-48.0,-0.39184870644875525,0.509358502320703,-0.7544923865135058,0.13322817292600742
-14.362951040267944,-15676.0,432.0,4356.0,-53.0,99.0,-22.0,-0.38282043233808755,0.5113758995807679,-0.7574777116516802,0.1347988214465328
-14.38640570640564,-15632.0,368.0,4304.0,-134.0,115.0,-103.0,-0.3680882303089938,0.5211629642095281,-0.7581786069901727,0.13440766104196814
-14.409899473190308,-15576.0,340.0,4552.0,-83.0,93.0,-53.0,-0.35763265504169806,0.526148021916827,-0.759676021963482,0.13475713240706447
-14.433399677276611,-15604.0,396.0,4324.0,-90.0,35.0,-39.0,-0.3508261503740719,0.5310500085218727,-0.7600052205364004,0.13152553143798848
-14.456838607788086,-15708.0,276.0,4376.0,-109.0,137.0,-177.0,-0.33469524278882956,0.5443718182239345,-0.7570703526826288,0.13595182627347832
-14.480340003967285,-15532.0,360.0,4288.0,-109.0,110.0,-83.0,-0.3213427732748798,0.5516165453654682,-0.7575483522189934,0.1363029823348097
-14.503805875778198,-15660.0,368.0,4168.0,-59.0,130.0,-67.0,-0.30919721368389946,0.5560504300528657,-0.7586040052785021,0.1404455960988114
-14.527349472045898,-15604.0,300.0,4096.0,-72.0,134.0,-84.0,-0.29588321621030056,0.5617987665157899,-0.758945131682353,0.14435219223150497
-14.55092167854309,-15868.0,368.0,4152.0,-106.0,165.0,-27.0,-0.27948841858571066,0.5641144134112205,-0.7631120764017129,0.14601750343037465
-14.57433795928955,-15400.0,408.0,4392.0,-108.0,34.0,213.0,-0.2746732585090945,0.5519592409978038,-0.7756403073631316,0.13519508471372393
-14.59783935546875,-15688.0,452.0,4256.0,-83.0,108.0,-73.0,-0.26259244691090783,0.5575232707424287,-0.7756267904020423,0.13644079821165256
-14.621221542358398,-15576.0,472.0,4332.0,-100.0,109.0,-4.0,-0.25039157544651186,0.5587002311024187,-0.7790624790115941,0.13498060789545727
-14.644686937332153,-15680.0,408.0,4304.0,-97.0,131.0,-9.0,-0.23673617054336038,0.5597929719117902,-0.7825564482395824,0.13488224298728324
-14.668171405792236,-15616.0,304.0,4324.0,-118.0,131.0,-240.0,-0.21923540903178018,0.5768528903700979,-0.7746707525603294,0.13806449009772553
-14.691611528396606,-15836.0,476.0,4392.0,-116.0,94.0,-55.0,-0.20646482385375864,0.5815695186728066,-0.77503208102107,0.13592073002256205
-14.715060949325562,-15648.0,380.0,4376.0,-117.0,130.0,-41.0,-0.19132908110355493,0.5848064429133154,-0.7765953940429038,0.13525605717486963
-14.738719940185547,-15668.0,364.0,4336.0,-82.0,95.0,-78.0,-0.17987484273312576,0.5902639116911154,-0.7751132911177655,0.1357679691216692
-14.76215934753418,-15744.0,312.0,4268.0,-79.0,164.0,21.0,-0.16504258353674026,0.5880373816912509,-0.7796172736390145,0.13845537185998366
-14.785621166229248,-15620.0,412.0,4304.0,-87.0,100.0,-22.0,-0.15360006954513952,0.5895135462295076,-0.7809369774055961,0.13790661611485552
-14.809071779251099,-15612.0,400.0,4096.0,-103.0,86.0,-84.0,-0.1415173002239452,0.5955050418523149,-0.7789441128512254,0.13635493361157092
-14.832547903060913,-15564.0,424.0,4288.0,-75.0,81.0,-103.0,-0.13097606349159105,0.6023971762024125,-0.7754271886367046,0.13665865511771588
-14.856195449829102,-15600.0,452.0,4432.0,-111.0,105.0,-101.0,-0.11691229540258578,0.609152850940707,-0.7725540662762778,0.135737003261807
-14.879680395126343,-15644.0,412.0,4136.0,-62.0,98.0,-50.0,-0.10650727819501449,0.6119412385078539,-0.7715958306844991,0.13720056259090743
-14.903172731399536,-15656.0,372.0,4396.0,-74.0,105.0,248.0,-0.0985206307024818,0.5944739771297299,-0.7864843914621987,0.13541298987867265
-14.926705360412598,-15564.0,356.0,4264.0,-130.0,129.0,-53.0,-0.08237942604760555,0.597607357171901,-0.7862837464135917,0.13355503339031996
-14.950226068496704,-15624.0,400.0,4600.0,-94.0,105.0,-67.0,-0.06957722459755662,0.6015886473221215,-0.7845791065156996,0.13298772443149695
-14.973681211471558,-15648.0,432.0,4336.0,-69.0,141.0,-74.0,-0.055526635467755575,0.6053579640591144,-0.7822739419497382,0.1360367885913681
-14.997113466262817,-15612.0,368.0,4308.0,-89.0,86.0,-79.0,-0.044102765842524,0.6101024516778167,-0.7795225638194212,0.13481289626053253
-15.020600080490112,-15636.0,424.0,4168.0,-94.0,68.0,-54.0,-0.03392405980062513,0.6132915751877512,-0.7779798645411654,0.1321738716194712
-15.044080257415771,-15656.0,384.0,4364.0,-105.0,83.0,-86.0,-0.021762051183299894,0.6184184654370415,-0.7747720316266764,0.12966616267886746
-15.067541122436523,-15644.0,408.0,4240.0,-113.0,126.0,-71.0,-0.006424690175395736,0.6219236687123231,-0.7723726242106345,0.1288805765875242
-15.09097170829773,-15608.0,308.0,4480.0,-89.0,121.0,-35.0,0.006872128640770985,0.622911996332655,-0.7714857138522647,0.12939556404557445
-15.114425659179688,-15648.0,332.0,4384.0,-135.0,134.0,-53.0,0.02374739621066491,0.6247919024717636,-0.7699483444924862,0.1274781808475775
-15.137914419174194,-15584.0,408.0,4252.0,-80.0,87.0,-251.0,0.03665745523765816,0.640340216917228,-0.7567611259070308,0.12622692220687065
-15.161404609680176,-15604.0,416.0,4388.0,-99.0,85.0,-69.0,0.0484834991187846,0.6435932424726182,-0.7536744888878331,0.12414448580764303
-15.184836864471436,-15364.0,400.0,4288.0,-111.0,114.0,-11.0,0.06225534153597086,0.6425526380752158,-0.7537178509004482,0.12312506238305111
-15.208261013031006,-15644.0,340.0,4216.0,-87.0,144.0,8.0,0.0764384041671155,0.6399413041140204,-0.7542518070395647,0.12544524397035867
-15.231688261032104,-15664.0,392.0,4324.0,-116.0,153.0,-39.0,0.09333106547165894,0.6399721031963468,-0.7522269170886774,0.12601462040427514
-15.255202293395996,-15652.0,368.0,4444.0,-101.0,98.0,-19.0,0.1055376600361032,0.6392769616025415,-0.75143424761801,0.12463282146000643
-15.278683423995972,-15868.0,392.0,4284.0,-87.0,96.0,-21.0,0.11683938655630682,0.6387751366655351,-0.7502891032454296,0.1240207405164236
-15.302140235900879,-15636.0,356.0,4324.0,-94.0,65.0,-27.0,0.12655437189545873,0.638856848147361,-0.7491123806062802,0.12114685200927645
-15.325617790222168,-15624.0,388.0,4380.0,-78.0,103.0,-14.0,0.13771129405094573,0.637790837377531,-0.7479837531753472,0.12156789145906577
-15.349094152450562,-15640.0,400.0,4228.0,-78.0,98.0,-70.0,0.1491170965648654,0.6403451230273218,-0.743691074991109,0.1210198326959569
-15.372516632080078,-15864.0,408.0,4324.0,-99.0,118.0,-75.0,0.16302089108708906,0.6426197089254486,-0.7389389341150854,0.12013887971262575
-15.395978927612305,-15592.0,380.0,4172.0,-95.0,88.0,-28.0,0.17424548121576489,0.6421220403664016,-0.7370754077247346,0.11848055063592516
-15.419406652450562,-15636.0,340.0,4196.0,-65.0,121.0,-88.0,0.18650408458017842,0.6454936050658701,-0.7309126673213502,0.11966998371841357
-15.442931652069092,-15688.0,380.0,4364.0,-54.0,98.0,-57.0,0.1963250279539856,0.6472045313687881,-0.7266373247320567,0.12075171336595467
-15.466368913650513,-15644.0,324.0,4508.0,-69.0,101.0,-60.0,0.2071917063184733,0.6487338056866325,-0.7222039162538277,0.12098574105989586
-15.489867925643921,-15660.0,384.0,4336.0,-110.0,93.0,-31.0,0.21953868039849803,0.6476804433163628,-0.7198792394836885,0.11868736965150108
-15.513302087783813,-15620.0,444.0,4424.0,-88.0,125.0,-52.0,0.2328327484963976,0.647920868842975,-0.7153943864481033,0.11915674879720267
-15.536811590194702,-15684.0,380.0,4596.0,-114.0,105.0,-240.0,0.24820756935637892,0.6593136212800896,-0.7006628983161797,0.11300466464665831
-15.560312032699585,-15676.0,424.0,4336.0,-111.0,85.0,-14.0,0.25986630038170155,0.6568981787891879,-0.6990652518103101,0.11073419679919647
-15.583762645721436,-15404.0,452.0,4224.0,-120.0,58.0,-29.0,0.2705023056972994,0.6553605683132968,-0.6972036741491308,0.10600973948402183
-15.607178926467896,-15676.0,328.0,4316.0,-96.0,200.0,-75.0,0.28875594212675326,0.6556937255671956,-0.688941189901738,0.10975327327729074
-15.630676031112671,-15536.0,348.0,4224.0,-131.0,82.0,-47.0,0.3015644664250749,0.6543914674215321,-0.6853759196812336,0.10531157902508682
-15.654127597808838,-15748.0,376.0,4376.0,-67.0,132.0,-34.0,0.31353539080605214,0.653415865420739,-0.6805187642349775,0.10787713869333886
-15.67760157585144,-15688.0,464.0,4352.0,-94.0,110.0,126.0,0.3241633900428099,0.6422577953300554,-0.6854872797486607,0.11193842144907634
