programtime,ax,ay,az,gx,gy,gz,q0,q1,q2,q3
-9851.964738607407,6628.0,-860.0,14420.0,119.0,1474.0,-2224.0,0.973937462340939,0.010072701460819775,0.12495959413647431,-0.18902237954120843
-9851.980327606201,6704.0,-1612.0,14232.0,136.0,1319.0,-2127.0,0.9030574322279392,0.019633358147147065,0.23094437380581212,-0.3616165117264256
-9851.995947122574,6752.0,-2372.0,14512.0,255.0,1139.0,-1797.0,0.8089891680580978,0.03866786409804123,0.31011556217563674,-0.4978651025601721
-9852.01154088974,6940.0,-2900.0,14992.0,436.0,1106.0,-1361.0,0.709726867932894,0.0795622030428413,0.3690741411177892,-0.5947620592634506
-9852.027131557465,7116.0,-3308.0,15356.0,656.0,1175.0,-957.0,0.6113724149889948,0.14869609391554833,0.41003181116416254,-0.660293234614909
-9852.042726278305,7020.0,-3424.0,14848.0,953.0,1220.0,-565.0,0.5174909758120118,0.24696301384407912,0.4230424192312398,-0.7016035000462589
-9852.058337688446,6816.0,-3176.0,14912.0,1145.0,1190.0,-372.0,0.4215415025656808,0.35384543256612233,0.41012782627951033,-0.7272491578393239
-9852.073982954025,6636.0,-2804.0,14780.0,1177.0,1024.0,-151.0,0.3358406467054458,0.45240886132089314,0.37418662031330924,-0.7365606936276903
-9852.089580774307,6412.0,-2000.0,14732.0,1130.0,960.0,63.0,0.2617453397870267,0.5446480220441812,0.3244186684434425,-0.7277365160197191
-9852.10518169403,6900.0,-1680.0,14880.0,1015.0,992.0,163.0,0.19426341319395385,0.630486811757617,0.27270664592105015,-0.7002707988802914
-9852.120786905289,6764.0,-1556.0,14864.0,877.0,1004.0,222.0,0.13474264140767392,0.7070294802835496,0.22234150214544818,-0.6576610000753903
-9852.136421203613,6736.0,-1472.0,14840.0,1016.0,972.0,208.0,0.06462070979226855,0.7728269000677154,0.16136136165347087,-0.6103484720739509
-9852.152078866959,6536.0,-1436.0,14632.0,512.0,788.0,82.0,0.023265967966726867,0.8160413843484875,0.1325449898753701,-0.5621094016507049
-9852.167698144913,6440.0,-1668.0,14480.0,848.0,558.0,-39.0,-0.045345211271882804,0.8413496392008438,0.09447768909668224,-0.5302344412561946
-9852.183309316635,6324.0,-2012.0,14536.0,863.0,427.0,-272.0,-0.12438935917827458,0.8521726002435863,0.07255009921525718,-0.503056288919202
-9852.198902606964,6252.0,-2204.0,14668.0,899.0,11.0,-460.0,-0.21075411400104777,0.836695828746433,0.06692221800101045,-0.5010431222238046
-9852.2144780159,6444.0,-1980.0,15040.0,932.0,120.0,-596.0,-0.30421101497367203,0.8174217873978468,0.06717851361062975,-0.4845248467984526
-9852.230088472366,6472.0,-1548.0,15196.0,989.0,251.0,-631.0,-0.40081058020583527,0.7936779465592083,0.06337653898362108,-0.4532213700247127
-9852.245674848557,6364.0,-1624.0,15028.0,1145.0,-82.0,-524.0,-0.4974800684208947,0.7429105476625812,0.0569252102749767,-0.44424882681980765
-9852.261288166046,6188.0,-1528.0,14116.0,1264.0,-231.0,-948.0,-0.6092574964196725,0.6678023808816292,0.07868310592242267,-0.4203025719498525
-9852.276889324188,6028.0,-1784.0,13908.0,1478.0,-421.0,-1092.0,-0.7229514635721239,0.5586109176270804,0.10906856164272899,-0.3916619369915098
-9852.292533159256,5916.0,-1436.0,13864.0,1615.0,-607.0,-1031.0,-0.8187492238674483,0.4195461233561998,0.1403238373797721,-0.3659781133568655
-9852.30812883377,5940.0,-1316.0,13868.0,1777.0,-899.0,-1327.0,-0.8959303321562508,0.2421261047525974,0.19228418587584695,-0.31892096384807805
-9852.32374048233,6204.0,-1252.0,14492.0,1886.0,-1256.0,-1525.0,-0.931088717210185,0.03288912499826657,0.2628655987065769,-0.25078632968599646
-9852.33935046196,6004.0,-968.0,14892.0,1839.0,-1488.0,-1377.0,-0.9069103697143379,-0.17593217135661915,0.3377422727059674,-0.1802542915265988
-9852.354943990707,6044.0,-980.0,15236.0,1742.0,-1318.0,-1385.0,-0.8420363622413565,-0.36601336663062556,0.3836007234063451,-0.09929483930792704
-9852.370576381683,6316.0,-932.0,15828.0,1773.0,-1120.0,-1225.0,-0.742150988706387,-0.53501745488629,0.40240846131456964,-0.032181721389157966
-9852.386193037033,6832.0,-716.0,16332.0,854.0,-1342.0,-1032.0,-0.6493187793827156,-0.6217946886860841,0.4328359946029302,0.06640398812427091
-9852.401799917221,7676.0,196.0,16680.0,246.0,-1923.0,-796.0,-0.5496911700456089,-0.6438983461688446,0.49187634792297985,0.20320481226798764
-9852.417390823364,8056.0,1020.0,16212.0,-872.0,-2140.0,-759.0,-0.48270232093672516,-0.5836040890427423,0.5247208482942901,0.3886808047488455
-9852.433003425598,7588.0,540.0,15176.0,-1034.0,-2425.0,-824.0,-0.38540192574074644,-0.4816193567635962,0.5345021529897404,0.5777677727904841
-9852.448585987091,7084.0,-176.0,14408.0,-1301.0,-2414.0,-908.0,-0.27320553970025274,-0.34749145259665665,0.49634529834524077,0.7471611394203616
-9852.464158296585,6812.0,-640.0,13888.0,-1117.0,-2314.0,-1135.0,-0.12905608855611678,-0.21268144781418663,0.43139203354574984,0.8671862782329527
-9852.479786634445,6832.0,-1520.0,14324.0,-785.0,-2099.0,-1055.0,0.014867560986730971,-0.0826230032932266,0.3674081586059031,0.9262632670828164
-9852.495438575745,6928.0,-1928.0,14464.0,-258.0,-1948.0,-1215.0,0.1702359185591354,0.03501679389131335,0.32845543882535433,0.9283913942319503
-9852.511078834534,7096.0,-1912.0,14820.0,-329.0,-1919.0,-1061.0,0.3065035176708683,0.15249311295316073,0.271250185660623,0.8995692196470019
-9852.526676416397,7344.0,-1568.0,14988.0,-163.0,-1900.0,-814.0,0.41085431623877383,0.27364035838834805,0.2146959115126216,0.8427486877289284
-9852.542299985886,7452.0,-1196.0,15136.0,-87.0,-1771.0,-540.0,0.47957655807595173,0.38560578387237165,0.15540208149145143,0.7727643220648333
-9852.557937145233,7864.0,-668.0,15156.0,-1.0,-1575.0,-361.0,0.5201686124884294,0.48201104972561626,0.10035531563249842,0.6978673033955475
-9852.573533773422,7964.0,-512.0,15168.0,102.0,-1324.0,-219.0,0.5371406731846821,0.5613679508719034,0.055147463714445503,0.6271400786032184
-9852.589160203934,8128.0,-544.0,15420.0,153.0,-1086.0,-78.0,0.5367114951005201,0.6246026882581714,0.01625698202922693,0.5670519935446231
-9852.604731559753,8196.0,-616.0,15520.0,129.0,-851.0,-56.0,0.5321978429805913,0.6706594896726488,-0.014199517664407338,0.5165071911763928
-9852.620322227478,8148.0,-580.0,15604.0,89.0,-561.0,-137.0,0.5318304650438683,0.6992276000143328,-0.028240246184300297,0.4769062888292301
-9852.6359770298,8080.0,-260.0,15352.0,48.0,-335.0,-276.0,0.5392302991743951,0.7154495630036238,-0.02497049511017546,0.44355279463009656
-9852.651551008224,7988.0,-376.0,15128.0,67.0,-78.0,-444.0,0.5516893617527612,0.7219132386978783,0.001639387302263876,0.4177049632585712
-9852.667104244232,7888.0,-512.0,14848.0,74.0,78.0,-414.0,0.561777805186826,0.72196863168303,0.034113262985370506,0.4024963077516329
-9852.68268084526,7464.0,-584.0,14560.0,94.0,145.0,-456.0,0.5709864908730286,0.7193767486076003,0.07314805945639888,0.3887426940805776
-9852.698252916336,7276.0,-672.0,14552.0,-3.0,323.0,-421.0,0.5828333920284681,0.7047283283385757,0.11540304382094595,0.3877439333510808
-9852.71384549141,7360.0,-908.0,14688.0,-52.0,454.0,-502.0,0.5974600937631817,0.6803741960778759,0.16726493625078298,0.39007028952856176
-9852.729506015778,7544.0,-1060.0,14840.0,-24.0,585.0,54.0,0.5877867497129111,0.6590345449575588,0.19341990317641825,0.4275148494143101
-9852.745125055313,7704.0,-1212.0,15268.0,58.0,740.0,24.0,0.5699148549809807,0.6333808701721613,0.2316027267839123,0.469452775386641
-9852.760730266571,7764.0,-1392.0,15072.0,207.0,857.0,416.0,0.5222523589185295,0.6146616931501367,0.2586910431225974,0.5315283819195181
-9852.776324510574,7796.0,-1448.0,14948.0,329.0,836.0,482.0,0.4615660358801076,0.5993031779211697,0.2849782605396765,0.5887103587293927
-9852.791915416718,7728.0,-1312.0,14840.0,425.0,774.0,564.0,0.38949045981677866,0.5881451475397812,0.3071101731611577,0.6388002885707293
-9852.807513713837,7456.0,-1056.0,14508.0,396.0,739.0,538.0,0.3181582363603924,0.5725818116972359,0.32535894012802463,0.681958184662611
-9852.82309126854,7068.0,-816.0,14732.0,375.0,617.0,511.0,0.2507284455724888,0.5590329983322864,0.33816026872658544,0.7143283460784551
-9852.838697195053,6692.0,-656.0,14740.0,301.0,714.0,351.0,0.19254207404035678,0.5299159373116931,0.3543399197832845,0.7460294031439265
-9852.854276180267,6220.0,-480.0,14816.0,504.0,615.0,-18.0,0.1510044986437401,0.49649982552657373,0.3972580129723961,0.7568828415089472
-9852.869847536087,5704.0,-428.0,14448.0,205.0,641.0,-491.0,0.1519147433108467,0.43859036138435137,0.4392495349933586,0.7691685456866147
-9852.88541340828,5580.0,-128.0,13960.0,290.0,592.0,-1254.0,0.20076187774102144,0.3518666600590937,0.5105580351664069,0.7584293076561422
-9852.900985002518,5820.0,64.0,13556.0,462.0,487.0,-1955.0,0.2896068210088103,0.23674614374316397,0.5999030814212134,0.7072449685570377
-9852.916573047638,6340.0,176.0,13816.0,633.0,319.0,-2454.0,0.4014667275967999,0.10205275145748093,0.6809224512204414,0.6039489365638625
-9852.932238340378,7188.0,24.0,14392.0,619.0,-117.0,-2708.0,0.5303049352313569,-0.03014434501291016,0.7127983091904775,0.4580246331238152
-9852.947931289673,8304.0,-392.0,14812.0,240.0,-666.0,-2734.0,0.6619184739328866,-0.15776928083335104,0.6644007871726288,0.30910254268782195
-9852.963539361954,9204.0,-928.0,14480.0,-53.0,-770.0,-2469.0,0.753560331451847,-0.2762681304283064,0.570035645821389,0.1757330630952031
-9852.979141235352,9580.0,-2012.0,13688.0,-144.0,-933.0,-1891.0,0.8118953981318207,-0.3594313468653234,0.45308859967305176,0.07965984075596126
-9852.994787931442,9388.0,-3032.0,13684.0,137.0,-678.0,-1027.0,0.8453089603135114,-0.38335814963557663,0.37145704778752103,0.022559972753896387
-9853.010388374329,9448.0,-3644.0,14196.0,473.0,-358.0,57.0,0.8715412310488214,-0.3453933066260297,0.34723977243654813,0.023321379848896907
-9853.026012420654,9524.0,-3912.0,14772.0,713.0,-512.0,798.0,0.9021950644937801,-0.26446477927149353,0.3318344137130224,0.07738454628463379
-9853.041613340378,9400.0,-3520.0,14632.0,710.0,-904.0,1801.0,0.9168827335998567,-0.14769604043057907,0.301599870633881,0.21575321666480246
-9853.057195186615,8760.0,-2676.0,14152.0,765.0,-1589.0,2405.0,0.8935721265063925,0.006581619874180549,0.21251268174309212,0.3953781697426335
-9853.072769880295,8248.0,-1956.0,13416.0,291.0,-2380.0,2993.0,0.7911346103712262,0.15830856973461507,0.033120609832429496,0.5898707063634168
-9853.088326692581,8180.0,-1576.0,12712.0,187.0,-2877.0,3535.0,0.5712285707830225,0.30613040170663147,-0.19049272438482767,0.7373565074158959
-9853.103947401047,8444.0,-1792.0,12436.0,115.0,-3123.0,3888.0,0.2438855099356934,0.41070208514338985,-0.4059518174311022,0.7791320666142958
-9853.119516849518,8852.0,-1948.0,12416.0,149.0,-3211.0,4150.0,-0.14310797813820744,0.44103937931924064,-0.5571305320142489,0.6889194022383265
-9853.135140180588,9164.0,-1820.0,12540.0,327.0,-3103.0,4029.0,-0.501495391170322,0.3907058569263978,-0.5972880917477422,0.4889767289500343
-9853.150790929794,9268.0,-2100.0,12644.0,620.0,-2846.0,3867.0,-0.7701654501420859,0.261078831566159,-0.53242897182555,0.23495193780063817
-9853.166427135468,9220.0,-1988.0,12320.0,771.0,-2763.0,3527.0,-0.9188391697198723,0.09480724768191068,-0.38211051775154686,-0.027160968302342853
-9853.182010412216,9068.0,-2008.0,12192.0,1570.0,-2753.0,3195.0,-0.9457798694338463,-0.1342082472549152,-0.17800934830316975,-0.23622289655988246
-9853.197598695755,9024.0,-2280.0,11864.0,2174.0,-2735.0,3061.0,-0.8337957218532835,-0.3869406848861441,0.0362102257119513,-0.392110214292988
-9853.21318769455,9324.0,-1968.0,12076.0,2700.0,-2679.0,2989.0,-0.5821102367541917,-0.6130850236686589,0.22102082401881665,-0.48623473895765834
-9853.228778123856,9456.0,-1804.0,12112.0,3100.0,-2639.0,2796.0,-0.22652588520115902,-0.7608495434519712,0.34271784404557354,-0.5023330318976764
-9853.244406461716,9512.0,-1788.0,12188.0,3246.0,-2863.0,2490.0,0.16855035723542677,-0.803058854947383,0.38717592292538866,-0.42045458407928127
-9853.260072469711,9580.0,-1440.0,12492.0,3274.0,-2983.0,2244.0,0.5333095306627628,-0.7234702996918725,0.34901875373814467,-0.26525003205859987
-9853.275661706924,9780.0,-1316.0,13156.0,3184.0,-2994.0,2202.0,0.8061541475563417,-0.5310112583699592,0.25280162140544615,-0.06506822632312796
-9853.291245698929,10648.0,-1332.0,14112.0,2987.0,-2652.0,2408.0,0.9418016066150646,-0.26179721846235343,0.14882899743197237,0.14940508594439386
-9853.306829690933,11252.0,-1960.0,14516.0,2780.0,-1989.0,2621.0,0.93324660455812,0.0250936970274163,0.076020551823108,0.35020273721195605
-9853.32244682312,11036.0,-2052.0,14608.0,2801.0,-1049.0,2768.0,0.8003720785182489,0.2861166829143122,0.06576809840334073,0.522701001451975
-9853.338044166565,11276.0,-2104.0,14120.0,2551.0,-289.0,2693.0,0.58538612223711,0.46877809340570575,0.08980642600281459,0.6553663043548333
-9853.353619098663,11400.0,-2084.0,13836.0,2285.0,393.0,2733.0,0.31729520679726964,0.5577059516558674,0.122703566783826,0.7571206363120927
-9853.369215250015,11200.0,-2116.0,13700.0,2434.0,846.0,2560.0,0.01956665661475392,0.5686084319689754,0.1736956755323085,0.8038229962772144
-9853.384803533554,11060.0,-2436.0,13592.0,2792.0,1377.0,2832.0,-0.31787478140101133,0.4876990259482062,0.21706748050717306,0.7835732207934993
-9853.400401115417,10564.0,-2916.0,14436.0,3258.0,1805.0,3317.0,-0.6580403295489301,0.3085702872154933,0.22781402072675705,0.6479722791101424
-9853.416058778763,9224.0,-2340.0,15308.0,3397.0,3063.0,3224.0,-0.8920717610558584,0.0037453048580705153,0.1410586742218687,0.4292975614244607
-9853.431649446487,7508.0,-1860.0,16808.0,2970.0,4266.0,3306.0,-0.9420187002294155,-0.3050106665804332,-0.07115949054649358,0.12043914893175724
-9853.447281837463,6060.0,-1004.0,18036.0,2124.0,4876.0,2572.0,-0.7842548610750179,-0.48591083129323165,-0.33876314085684794,-0.18459282572442665
-9853.462880849838,7064.0,2016.0,16544.0,1279.0,3338.0,1662.0,-0.5717225665242872,-0.5378159920919277,-0.4891232565423743,-0.3803231592822611
-9853.478459358215,8540.0,3680.0,14324.0,492.0,1342.0,1667.0,-0.42823315329041944,-0.5784288723387891,-0.48523009633730524,-0.4965764389057443
-9853.494030475616,9144.0,3012.0,12732.0,125.0,661.0,2471.0,-0.2799161229194022,-0.6431936398748723,-0.38107817670190486,-0.6022693160006036
-9853.509617090225,9596.0,784.0,12032.0,209.0,1325.0,2737.0,-0.07750328292898796,-0.6471020239747982,-0.261566278962848,-0.7119236570113952
-9853.525184392929,9188.0,-1124.0,13280.0,142.0,2399.0,2326.0,0.12466534143468959,-0.5298520379568327,-0.14892033271360683,-0.8255532115027062
-9853.540764093399,7904.0,-2132.0,14696.0,-158.0,2492.0,1750.0,0.2666131206468013,-0.3619669990862041,-0.02839238749583218,-0.8927996459473921
-9853.55633020401,6616.0,-1628.0,16420.0,-408.0,2195.0,259.0,0.274137926964416,-0.19704174539686292,0.061516135395769236,-0.9392756318869238
-9853.571959018707,5356.0,-16.0,17312.0,-709.0,1904.0,-1110.0,0.15751567632413344,-0.06247950824676741,0.1429371169763272,-0.975117481820467
-9853.58755326271,5264.0,1424.0,17864.0,-911.0,2039.0,-1975.0,-0.03967208804047067,0.07139437878976929,0.22978577584841808,-0.9698079528058494
-9853.603149414062,5896.0,1776.0,16904.0,-873.0,2438.0,-2472.0,-0.27910396716138924,0.22049778478819448,0.29631374501631697,-0.8863858454040645
-9853.618755340576,6504.0,1204.0,15864.0,-653.0,3314.0,-2663.0,-0.5227341532485206,0.3966961058828776,0.29700198974505,-0.6936649210479038
-9853.63436961174,5832.0,504.0,14776.0,-339.0,3943.0,-2908.0,-0.725543685693068,0.5288059615402064,0.21899098133196845,-0.38209104318960113
-9853.649986505508,4756.0,28.0,14544.0,-117.0,4326.0,-2819.0,-0.8177118779093888,0.5710991757473965,0.0720468448222907,-0.0015061001619618443
-9853.665573835373,3968.0,-296.0,15048.0,254.0,4603.0,-2933.0,-0.7760546306428897,0.4828544602151316,-0.09955628081394806,0.39329292830990054
-9853.681159257889,3492.0,-748.0,15552.0,137.0,4634.0,-2623.0,-0.5908416032329856,0.3056772222036612,-0.27032584448901703,0.6959824520174547
-9853.696775436401,3240.0,-896.0,15920.0,449.0,4858.0,-2273.0,-0.3169206247335857,0.037028303947338005,-0.3916725985595809,0.8630079940897666
-9853.712350845337,3448.0,-864.0,16364.0,702.0,4420.0,-1814.0,-0.0289762143376419,-0.2333957912591198,-0.41925475222955066,0.8768764088274509
-9853.727972984314,3884.0,-324.0,16024.0,940.0,4056.0,-1437.0,0.23206362505062608,-0.4606434121010489,-0.3609506459769166,0.7769612293963658
-9853.743562221527,4124.0,192.0,15856.0,1111.0,3782.0,-1124.0,0.4445872542716155,-0.6205765670374918,-0.2392695202316992,0.5999808284197754
-9853.759135723114,4308.0,948.0,16324.0,971.0,3729.0,-809.0,0.5839943208349857,-0.7198631426733569,-0.08275040291464718,0.36592357107787615
-9853.774707078934,4192.0,1552.0,16384.0,736.0,3862.0,-557.0,0.6387441997195502,-0.7573902397218537,0.09697118162316924,0.09467028062338599
-9853.790267467499,4324.0,1584.0,16880.0,372.0,3872.0,-767.0,0.6019620872205542,-0.7324434059968878,0.2506192889671919,-0.19585268585937526
-9853.805870294571,3952.0,1256.0,16736.0,-23.0,3770.0,-507.0,0.4834664835096151,-0.6455619514835086,0.3954258958805152,-0.43948638999034234
-9853.821514844894,3744.0,624.0,16788.0,-183.0,3387.0,-473.0,0.323982527858757,-0.516998363420082,0.4969377231029371,-0.6170906847623574
-9853.837146043777,3608.0,-68.0,16784.0,-272.0,2967.0,-414.0,0.15545993128250946,-0.37021269232956816,0.5578149878405978,-0.7263726395894353
-9853.852765321732,3908.0,-612.0,16384.0,-121.0,2695.0,-261.0,0.0036735091104242554,-0.20789669995951243,0.5775575749714149,-0.7894255601827814
-9853.868361234665,4344.0,-900.0,16632.0,0.0,2686.0,-207.0,-0.14215306207567083,-0.03234442010206838,0.5592537290207487,-0.8160769645120235
-9853.883989095688,4064.0,-984.0,16892.0,575.0,2741.0,-253.0,-0.28397034585120384,0.1392569111065917,0.46945869327229406,-0.8243645375058709
-9853.899580955505,4236.0,-572.0,16824.0,799.0,2813.0,-337.0,-0.4196321495994235,0.29825843820008374,0.33527795754622264,-0.7890116946209651
-9853.915217161179,3748.0,-252.0,16780.0,904.0,2788.0,-413.0,-0.5356861867091254,0.4307527458814411,0.17576557083766203,-0.7046976978767177
-9853.930869579315,3768.0,744.0,16556.0,1015.0,2652.0,-415.0,-0.6209641568910922,0.5236863231485515,0.004745124390370629,-0.5832097689495656
-9853.946498394012,3548.0,520.0,16260.0,1056.0,2404.0,-309.0,-0.6684898441168731,0.5734679306312913,-0.16094336714704424,-0.4453684917250377
-9853.962150096893,3452.0,340.0,15828.0,1093.0,2025.0,-247.0,-0.690510267996426,0.5800418074753442,-0.30306233122948817,-0.3080589144335671
-9853.977763175964,3444.0,232.0,15760.0,1127.0,1732.0,338.0,-0.6814790434981758,0.5406953322170789,-0.44740607349708766,-0.20751548469787168
-9853.993377923965,3524.0,16.0,15920.0,1106.0,1421.0,731.0,-0.6556745989295536,0.4653793580678976,-0.5781480408340952,-0.13877217402122857
-9854.00894665718,3796.0,208.0,16156.0,1059.0,1103.0,1068.0,-0.6219957562432531,0.359452020579383,-0.6883664910232231,-0.10033492987568028
-9854.024537563324,3700.0,464.0,16476.0,926.0,873.0,1161.0,-0.5819686268287427,0.24428124916802332,-0.7715739494271613,-0.0794533149550739
-9854.040142774582,3692.0,272.0,16500.0,788.0,641.0,1125.0,-0.5431422894537511,0.13175819383741988,-0.8263402610421021,-0.0692676312898687
-9854.055828809738,3748.0,532.0,16624.0,653.0,457.0,1062.0,-0.5079380295655003,0.02676559521322971,-0.85838049655744,-0.06682427825125609
-9854.07143330574,3736.0,824.0,16748.0,554.0,337.0,921.0,-0.4763775634421049,-0.06453907246764162,-0.8744517737446703,-0.06506320441524559
-9854.087003469467,3616.0,1096.0,16620.0,524.0,369.0,708.0,-0.4397736994179087,-0.13780394195744242,-0.8856790500064005,-0.05640733339767862
-9854.10260772705,3872.0,1160.0,16624.0,444.0,323.0,605.0,-0.4055065752878107,-0.19952897231850442,-0.890698212926159,-0.04908462176710059
-9854.118188142776,4092.0,1100.0,16720.0,370.0,331.0,496.0,-0.37055537900015545,-0.24930723338175276,-0.8936642552579511,-0.04357537552149172
-9854.13381075859,3700.0,836.0,16548.0,335.0,351.0,398.0,-0.3339132844356344,-0.28942320359744694,-0.8962692960194327,-0.03791407007468973
-9854.149398088455,3576.0,800.0,16668.0,189.0,128.0,319.0,-0.31792138486883725,-0.31927949545747153,-0.8920288078810334,-0.035653930131827986
-9854.164998531342,3516.0,748.0,16476.0,70.0,-108.0,176.0,-0.32381127564023127,-0.33520172449735974,-0.8841699390836052,-0.032087076575100265
-9854.180597782135,3632.0,728.0,16660.0,38.0,-509.0,123.0,-0.3612997411478507,-0.3468294072467077,-0.8653654640754532,-0.017733383796348756
-9854.196161031723,3740.0,596.0,16528.0,35.0,-447.0,147.0,-0.3934894412676617,-0.35942200163227717,-0.8461344151347145,-0.006199667583448449
-9854.211799144745,4076.0,372.0,16788.0,139.0,-555.0,213.0,-0.4294447562855141,-0.3796861045232304,-0.8192776724071623,0.014133606261404445
-9854.227421045303,3984.0,212.0,17108.0,271.0,-479.0,282.0,-0.45446010968932576,-0.40881962224878376,-0.7904621858699781,0.03875639141076049
-9854.243048667908,3936.0,212.0,17412.0,475.0,-350.0,336.0,-0.462044561144382,-0.4488664864115166,-0.7616127947409899,0.07056664778982841
-9854.258646726608,4004.0,392.0,17624.0,644.0,-192.0,6.0,-0.4489024329269266,-0.4732321770784288,-0.7483501472505498,0.12045733435527027
-9854.274242401123,3924.0,772.0,17380.0,737.0,-144.0,207.0,-0.42911054732175347,-0.5129244132537653,-0.724703763663629,0.16606366067649142
-9854.28981423378,3648.0,1000.0,17000.0,745.0,-241.0,114.0,-0.41173031923551656,-0.5432412202274471,-0.6980802008056215,0.2192057346676791
-9854.30539727211,3528.0,1284.0,17092.0,576.0,-274.0,53.0,-0.4015587625037262,-0.5610388476902856,-0.673616938857226,0.2650022477705666
-9854.320962190628,3444.0,1500.0,16948.0,425.0,-486.0,-17.0,-0.4083381851988101,-0.5627808356893393,-0.6465231498622491,0.3139195345650646
-9854.336564302444,3360.0,1272.0,17148.0,259.0,-685.0,-27.0,-0.4327071963190928,-0.5505660269846606,-0.6150404666608996,0.3624455221871818
-9854.352147340775,3116.0,780.0,17460.0,125.0,-866.0,-138.0,-0.46749209839177,-0.5188931026848989,-0.5832200588220443,0.41479567128275296
-9854.367776870728,3208.0,416.0,17332.0,235.0,-945.0,-227.0,-0.49491906056698415,-0.48083190623908756,-0.5443015577286684,0.47706563037398125
-9854.38336968422,3296.0,324.0,17564.0,408.0,-908.0,-307.0,-0.5061264083529904,-0.4441633241104127,-0.498837375256598,0.5456338271496725
-9854.398967027664,3392.0,636.0,17668.0,552.0,-655.0,-284.0,-0.49824037394345877,-0.42359832114001555,-0.45312623773540905,0.605803272338303
-9854.414618730545,3296.0,1100.0,17744.0,518.0,-440.0,-287.0,-0.48038329647325,-0.41056821746031485,-0.4162454513785123,0.6537624579980497
-9854.4302110672,3240.0,1408.0,17248.0,424.0,-301.0,-286.0,-0.45925081206768265,-0.4001435336295416,-0.3890447903915337,0.691099121095408
-9854.445805311203,3108.0,1464.0,17052.0,167.0,-217.0,-375.0,-0.4378661514797662,-0.3805921784436426,-0.38293897852719494,0.7188745132638725
-9854.461394309998,2580.0,1008.0,17000.0,7.0,-279.0,-436.0,-0.4192278857177097,-0.3483075252548435,-0.3858055802583592,0.7443681225905744
-9854.47698044777,2628.0,324.0,16848.0,-52.0,-460.0,-628.0,-0.3946274167791944,-0.29456178455052295,-0.3904118245216749,0.7778696319321435
-9854.492574691772,2792.0,232.0,17092.0,140.0,-649.0,-904.0,-0.3501268180438414,-0.22331837422293163,-0.37983091730731855,0.8266006225973958
-9854.508148908615,2988.0,104.0,17312.0,342.0,-691.0,-1088.0,-0.2859627336706755,-0.14672400073845224,-0.35269141621356603,0.8788095058021199
-9854.523784399033,3160.0,480.0,17460.0,448.0,-525.0,-1245.0,-0.19936655740642142,-0.07858228909828102,-0.3185124595037221,0.9233783692338023
-9854.539369106293,2964.0,832.0,17400.0,415.0,-435.0,-1220.0,-0.10951899943024052,-0.016605772553862967,-0.28363459816656283,0.9525131242164493
-9854.55494761467,2608.0,928.0,17096.0,208.0,-337.0,-1213.0,-0.01660401428192467,0.03928522803339395,-0.2629880800506155,0.96385592664017
-9854.570554971695,2384.0,904.0,17076.0,4.0,-484.0,-1063.0,0.06139827849603248,0.10388869268207226,-0.25669529277485215,0.9589290472176587
-9854.586155414581,2236.0,964.0,16840.0,-229.0,-760.0,-1019.0,0.13093068043845726,0.1878791232846041,-0.2687189632792114,0.9356007218508743
-9854.601790428162,2380.0,1072.0,16732.0,-572.0,-1129.0,-989.0,0.19274710569346437,0.293776674520374,-0.3088573088388535,0.8838274614037313
-9854.6173787117,2372.0,1240.0,16384.0,-822.0,-1504.0,-938.0,0.24219409942842368,0.4151628204871525,-0.3680332174775998,0.7959481148418489
-9854.632976770401,2520.0,848.0,16388.0,-968.0,-1737.0,-892.0,0.27850637073100354,0.5343591256415883,-0.43182606208351637,0.6711339496786354
-9854.648603439331,2652.0,416.0,16172.0,-986.0,-1982.0,-742.0,0.2874073619121553,0.6412228382938354,-0.4929645189220195,0.5130460632858175
-9854.664196968079,2512.0,224.0,16044.0,-1009.0,-2094.0,-554.0,0.2727738018317769,0.7180354323027769,-0.5478538720432584,0.331475045635734
-9854.679834842682,2328.0,-248.0,15960.0,-963.0,-2051.0,-366.0,0.2409019955380869,0.7568947340367658,-0.5898793400188169,0.14532361938840607
-9854.695435285568,2656.0,-344.0,15812.0,-943.0,-2463.0,-167.0,0.1739771074688816,0.7570206359310007,-0.6261566758566856,-0.0676722995877228
-9854.711000680923,2728.0,-344.0,15736.0,-846.0,-2677.0,-1.0,0.08118614951683875,0.7074711349448817,-0.6427284685050202,-0.28247746479962227
-9854.726618289948,2804.0,-272.0,15836.0,-758.0,-2895.0,122.0,-0.03037850223952858,0.6035631776675645,-0.630873283197827,-0.48660819733406596
-9854.742219686508,2860.0,-496.0,15980.0,-698.0,-3039.0,204.0,-0.14692494694179997,0.4486588226705879,-0.5825931414799718,-0.6615916809532061
-9854.757806539536,2784.0,-444.0,16124.0,-725.0,-3101.0,509.0,-0.23760825409041558,0.24345110686497262,-0.5013185478815567,-0.7955838043250072
-9854.773368358612,2592.0,-688.0,16020.0,-881.0,-3621.0,375.0,-0.3339102848369391,-0.00592518718645584,-0.3543893221204457,-0.8734283154351767
-9854.788946390152,2432.0,-1008.0,16092.0,-1051.0,-4035.0,413.0,-0.40175089862255303,-0.2777111199400283,-0.14669718471402524,-0.860205025162377
-9854.80452656746,2804.0,-1380.0,15684.0,-1205.0,-4479.0,491.0,-0.41813597293522226,-0.5352022574285072,0.10459421285124744,-0.7264853077791544
-9854.82011604309,3152.0,-1668.0,15788.0,-1536.0,-4642.0,597.0,-0.37639510738372256,-0.7054758050151158,0.3668614171056421,-0.4754401248476095
-9854.835755109787,3980.0,-1100.0,16092.0,-1365.0,-4617.0,524.0,-0.26795864781926887,-0.7694851248776823,0.5595306149113335,-0.15171122775784204
-9854.851355791092,5144.0,-136.0,16304.0,-1750.0,-4525.0,408.0,-0.14646610173305677,-0.707311701193746,0.6589199446952979,0.20995795979261303
-9854.866928815842,7584.0,620.0,16000.0,-2243.0,-3854.0,582.0,-0.06887663570206773,-0.5347747395268488,0.6544034088360592,0.5301208970811291
-9854.88256764412,9520.0,1436.0,15516.0,-2976.0,-2918.0,830.0,-0.07460476844586156,-0.3134988816993706,0.5371755747430412,0.7794837917480176
-9854.898166656494,10504.0,1072.0,14416.0,-4070.0,-875.0,580.0,-0.1731892513082311,-0.18788009514608903,0.2645010779961877,0.9299170569561811
-9854.913814783096,11400.0,100.0,13076.0,-5020.0,100.0,200.0,-0.2510277813129467,-0.10552586087756434,-0.12933668954305239,0.9534785610768564
-9854.929526090622,11260.0,-936.0,12760.0,-5365.0,560.0,46.0,-0.26955864135879665,-0.0314989417120169,-0.5315753292517522,0.8023550491339316
-9854.9451982975,9368.0,-1512.0,12572.0,-4979.0,2475.0,-661.0,-0.10968481883637979,-0.05112181104884552,-0.8447574212705519,0.5212875407682829
-9854.960784196854,7672.0,-1780.0,12844.0,-4138.0,3610.0,-1750.0,0.19450134558970686,-0.0417104161938085,-0.9606740732410167,0.19373898096987768
-9854.976363658905,6456.0,-1752.0,13848.0,-3151.0,3324.0,-2640.0,0.4598866287643158,0.06353425417278692,-0.878115592672557,-0.1156749460160843
-9854.991988420486,6596.0,-1892.0,14420.0,-2054.0,2463.0,-3154.0,0.5848479146862193,0.23055471301018587,-0.6896785745774497,-0.35936180203909934
-9855.007581472397,7720.0,-2032.0,14508.0,-1050.0,1575.0,-3183.0,0.5719239785214552,0.39764319804500575,-0.4873614321651655,-0.5265564397846152
-9855.023146629333,8376.0,-2140.0,14536.0,-93.0,1287.0,-2843.0,0.4817787920092254,0.5528196068074459,-0.3088473384726103,-0.6057169301066112
-9855.03881430626,8948.0,-2428.0,13740.0,765.0,1326.0,-2479.0,0.33885033972131406,0.6995640142269571,-0.1685370661257295,-0.6061236628041732
-9855.054451465607,9104.0,-2216.0,13584.0,1452.0,1159.0,-2016.0,0.15621571131605566,0.810550495949586,-0.08556193508614651,-0.557928042240407
-9855.070045948029,8776.0,-1964.0,13708.0,1867.0,816.0,-1468.0,-0.04031097802398562,0.866119012298153,-0.06006953172186664,-0.4945751034424777
-9855.085625171661,8824.0,-1576.0,14356.0,2090.0,534.0,-871.0,-0.22848392441570073,0.8686334069528849,-0.08459441788851485,-0.4314103441865151
-9855.101204156876,8568.0,-2092.0,14684.0,2099.0,283.0,-171.0,-0.38546287878437263,0.8245939124431457,-0.15368076806421288,-0.384506788195168
-9855.116843700409,8528.0,-2864.0,14736.0,1976.0,48.0,407.0,-0.5056743104449141,0.742777804459776,-0.24707934734220666,-0.3626657153287643
-9855.132452487946,8184.0,-3028.0,14108.0,1971.0,-155.0,887.0,-0.5982063664147294,0.6206789826462428,-0.3538217966728901,-0.3629282021023984
-9855.148072719574,8000.0,-2612.0,13676.0,1905.0,-398.0,1338.0,-0.6575805471818931,0.45758867824812505,-0.45621649385673935,-0.38738473929694234
-9855.16363120079,8084.0,-2336.0,13700.0,1806.0,-453.0,1549.0,-0.6804241550675308,0.27087320147621696,-0.5410988667732722,-0.4133554091811816
-9855.179273366928,8120.0,-1952.0,14308.0,1585.0,-280.0,1485.0,-0.665575031388654,0.09472516511708894,-0.6056908404004925,-0.42564730298743525
-9855.194899559021,8456.0,-1628.0,15532.0,1396.0,123.0,1300.0,-0.613901564701706,-0.04988724813830431,-0.6661341402633527,-0.42059652697756317
-9855.210569620132,8872.0,-1320.0,16092.0,1253.0,758.0,1088.0,-0.5179607104790738,-0.15059317758347213,-0.7386222710551288,-0.4043210827630558
-9855.226158380508,9076.0,-1316.0,16060.0,1525.0,1612.0,1030.0,-0.34978199390071174,-0.22402671865356755,-0.8329522228914151,-0.3655888133578597
-9855.241801977158,8268.0,-1608.0,15600.0,1722.0,2361.0,1006.0,-0.10846512904888214,-0.26494591421661706,-0.9078381747995121,-0.30638019958381946
-9855.257411241531,6756.0,-1856.0,13916.0,1897.0,2524.0,394.0,0.14067008255527313,-0.23763832620089298,-0.9378375044082259,-0.21023978957295797
-9855.272968292236,5656.0,-1812.0,12772.0,2189.0,2095.0,154.0,0.3484624089860011,-0.17875685585607368,-0.9174371528486165,-0.0702068841435679
-9855.288550138474,4252.0,-1956.0,12488.0,2324.0,1723.0,-39.0,0.5066425163029242,-0.09150510101877742,-0.8530458202520624,0.08516458015084868
-9855.304119825363,3584.0,-1848.0,13676.0,2846.0,1514.0,-222.0,0.6196692736894922,0.038152805607478406,-0.7378362849335841,0.26486217416766383
-9855.319732189178,4576.0,-892.0,14896.0,3008.0,1287.0,-510.0,0.6767197738808907,0.19592704091953345,-0.5733818875923474,0.41820587424873445
-9855.335311174393,5748.0,584.0,17116.0,2841.0,1276.0,-988.0,0.7002248182159428,0.35251501358232634,-0.3627690940245043,0.5038024946088918
-9855.350922584534,7152.0,1404.0,17676.0,2475.0,603.0,-1614.0,0.690702199243784,0.5108417345374491,-0.16175508411305625,0.4855991010886951
-9855.366537570953,7256.0,1304.0,16236.0,1962.0,959.0,-2356.0,0.6900936038864531,0.5984890020685838,0.08115799725313497,0.3987419112155355
-9855.382169008255,6276.0,512.0,14160.0,1577.0,1160.0,-2916.0,0.6702869598478945,0.6045660089307654,0.34245889153879816,0.26064773144880937
-9855.397800683975,4884.0,508.0,12604.0,1290.0,935.0,-3651.0,0.6209576155988281,0.5190886714976218,0.5847818656140858,0.05466955644196479
-9855.413391590118,4428.0,156.0,12128.0,1031.0,182.0,-4158.0,0.5477679171928886,0.3388676335507467,0.7379340324284162,-0.20142591593392098
-9855.428987264633,4644.0,464.0,12836.0,709.0,-1071.0,-4440.0,0.4801701278798891,0.06297426717049719,0.7470302822278506,-0.4554301784035924
-9855.444607973099,5488.0,564.0,13948.0,434.0,-2289.0,-4474.0,0.41112726683593526,-0.27602968807375744,0.60251302567117,-0.6259073698739216
-9855.46019935608,6500.0,548.0,15116.0,223.0,-3056.0,-4459.0,0.30166479513796784,-0.6053733757258544,0.337353651822825,-0.6547625072791322
-9855.475849151611,7060.0,212.0,15824.0,122.0,-3435.0,-4280.0,0.14848542618402005,-0.8336826425447039,0.012322131317586813,-0.5317645106721786
-9855.491464138031,7408.0,-324.0,15936.0,-109.0,-3216.0,-4187.0,-0.04570539338347705,-0.898019206419581,-0.2988084310324972,-0.31966551809837895
-9855.507074594498,7508.0,-676.0,15692.0,-252.0,-2796.0,-3761.0,-0.22517281022679034,-0.8114674612845536,-0.5324934038225887,-0.08525573116456574
-9855.522629022598,7268.0,-816.0,15584.0,-312.0,-2625.0,-3185.0,-0.3696257694016179,-0.63654668492599,-0.6622784235515866,0.13990138741992322
-9855.538205623627,7320.0,-688.0,15508.0,-415.0,-2490.0,-2531.0,-0.48280290792965036,-0.42614559244590233,-0.6945944568294599,0.32068649281719414
-9855.553815126419,7348.0,-364.0,15564.0,-370.0,-2003.0,-2022.0,-0.5446236309337068,-0.22489695008485486,-0.6748475560959943,0.4442828361555055
-9855.569401025772,7376.0,-32.0,15220.0,-197.0,-1459.0,-1712.0,-0.5573669640718902,-0.05695674325333848,-0.6344427537949844,0.5325226651667461
-9855.584988832474,7316.0,152.0,14924.0,-64.0,-796.0,-1539.0,-0.5243001854235314,0.06766219826456092,-0.5993967547115496,0.6010446513630419
-9855.600589752197,7312.0,16.0,14756.0,40.0,-774.0,-1951.0,-0.4551215188279299,0.2051362685031724,-0.5411967205657943,0.6766754200450776
-9855.616179943085,7316.0,264.0,14688.0,108.0,-734.0,-2165.0,-0.3568082716559719,0.3397713905631014,-0.45768214680181807,0.7401150666832649
-9855.631836652756,7376.0,692.0,14976.0,237.0,-652.0,-2227.0,-0.24105629025319086,0.45413032112366125,-0.3486880243073422,0.7836288522445636
-9855.64743590355,7744.0,720.0,15272.0,265.0,-560.0,-1947.0,-0.13329998726880873,0.5375552827630143,-0.23768750673310945,0.7979787469041449
-9855.663058519363,7840.0,548.0,15532.0,2.0,-459.0,-1415.0,-0.04396332762726828,0.5937540852888428,-0.16431456414799855,0.7864629908874292
-9855.678647756577,7520.0,404.0,15480.0,82.0,-323.0,-694.0,-0.005172964264554768,0.6240218994998824,-0.12113198933543563,0.7719436187604095
-9855.694252490997,7208.0,152.0,15244.0,-157.0,-316.0,27.0,-0.0017675850935179923,0.644654608449435,-0.13293156017898575,0.7528256848409353
-9855.709809303284,6804.0,44.0,14844.0,-283.0,-583.0,556.0,-0.02905210406459169,0.6745610973533068,-0.18218049917574472,0.7147961715811011
-9855.725383520126,6420.0,-84.0,14468.0,-424.0,-988.0,867.0,-0.0733537752611389,0.7181925755851647,-0.2552906819767625,0.6431526379679438
-9855.740948438644,6412.0,108.0,14492.0,-436.0,-1030.0,1272.0,-0.138869853784329,0.7423218275795967,-0.34907909865706455,0.5548128070706171
-9855.756532430649,6728.0,376.0,14756.0,-422.0,-1410.0,1045.0,-0.20260069594210217,0.774286825566821,-0.414977612896408,0.43269671890624484
-9855.772107124329,7044.0,580.0,15024.0,-384.0,-1398.0,1016.0,-0.26255625786291664,0.7877063392272985,-0.4678423803567614,0.30283071465799033
-9855.787741422653,7336.0,664.0,15216.0,-380.0,-1217.0,907.0,-0.30727055603415593,0.7842552816918453,-0.5076236995352396,0.18123641522349215
-9855.803337335587,7572.0,772.0,15588.0,-311.0,-962.0,895.0,-0.34043606863307735,0.7628726800593615,-0.544226015300003,0.07711421051520238
-9855.818931818008,7616.0,768.0,15508.0,-226.0,-564.0,880.0,-0.3565839655802944,0.7284099329319818,-0.58502955343454,0.002695682703902656
-9855.834531068802,7248.0,584.0,15328.0,-141.0,-136.0,786.0,-0.35389884999385607,0.6909622995589314,-0.6292221909610819,-0.0374985194827176
-9855.850160837173,7008.0,272.0,14724.0,24.0,4.0,881.0,-0.3512380486437716,0.6399494540947201,-0.6805393588614154,-0.06295006298073783
-9855.865778923035,6804.0,232.0,14508.0,146.0,-166.0,985.0,-0.3624700312337034,0.5738183205017416,-0.7284428001908225,-0.0933761123850858
-9855.88136768341,6788.0,-36.0,14668.0,164.0,-408.0,1072.0,-0.38595509190911864,0.4946087069275558,-0.7666426906436158,-0.13660116743129358
-9855.896941661835,7088.0,-20.0,15112.0,68.0,-519.0,1183.0,-0.4069662173803393,0.4043816719662217,-0.7959705752973637,-0.19309273562132057
-9855.912540435791,7356.0,20.0,15396.0,-1.0,-417.0,1036.0,-0.4165048229342363,0.32385783429098736,-0.8138326889687035,-0.24354915316387585
-9855.928178071976,7308.0,360.0,15680.0,-1.0,-149.0,1384.0,-0.39477013771628067,0.2207646429718386,-0.8413086562360336,-0.29600549948152144
-9855.943887233734,7188.0,552.0,15360.0,72.0,-252.0,1326.0,-0.3778105289726755,0.11358316620782663,-0.854086118578821,-0.33896160638419903
-9855.959475755692,6908.0,732.0,15280.0,152.0,100.0,1234.0,-0.3334040782288795,0.019392524019367193,-0.8689481307576326,-0.36523252413404506
-9855.975099086761,6108.0,320.0,14884.0,128.0,129.0,1059.0,-0.2888248690136936,-0.060300459118392824,-0.8747022346081249,-0.38449974049521374
-9855.991071939468,5876.0,192.0,14896.0,-58.0,391.0,879.0,-0.22897627285716685,-0.11244753607139649,-0.8748597852111629,-0.41175936458105017
-9856.006725788116,5816.0,396.0,15100.0,-323.0,465.0,613.0,-0.17414313100803913,-0.13574421588556454,-0.8641979291521599,-0.45211681789715424
-9856.022330522537,6252.0,576.0,15108.0,-482.0,369.0,505.0,-0.13176554476611899,-0.15160337073866564,-0.8427543393570613,-0.49941904517950203
-9856.038006782532,6892.0,524.0,15124.0,-531.0,422.0,328.0,-0.09322700156006303,-0.15091661445826038,-0.8182951774155486,-0.5467411675363699
-9856.05362868309,7332.0,172.0,15504.0,-515.0,691.0,119.0,-0.04481575005646055,-0.12191231708207509,-0.7954167115003069,-0.5919807349539289
-9856.069216012955,7588.0,-176.0,16108.0,-545.0,1073.0,125.0,0.030214924303607782,-0.07262822706229727,-0.7657861725960614,-0.6382661959118545
-9856.084792613983,7820.0,-372.0,16760.0,-772.0,1468.0,127.0,0.1292203432809708,-0.0013775503856586066,-0.7105544483418381,-0.69167375342636
-9856.100404500961,7764.0,-268.0,17444.0,-1114.0,1898.0,94.0,0.2480011700958753,0.09307220469546702,-0.610576926680992,-0.7463436212288523
-9856.116052389145,7940.0,-620.0,17284.0,-1031.0,2169.0,-110.0,0.3571085240884457,0.21319356114791918,-0.48487026726911076,-0.7693652132939346
-9856.1316781044,7464.0,-660.0,15900.0,-1347.0,2097.0,-342.0,0.43761723818539733,0.31876803347636745,-0.3150547664360371,-0.7794989338174421
-9856.14733171463,6804.0,-532.0,14736.0,-1295.0,1844.0,-563.0,0.47644862447130687,0.4018751837918211,-0.1379661973741418,-0.7697131759777853
-9856.16293334961,6512.0,-612.0,13320.0,-1133.0,1420.0,-712.0,0.47864830891897414,0.4520177742304664,0.021868867340160355,-0.752394498112526
-9856.178518772125,6488.0,-832.0,13016.0,-1059.0,733.0,-555.0,0.4790765618386431,0.4512966621504935,0.14283306720474906,-0.7391993543974263
-9856.194151878357,6856.0,-1096.0,12940.0,-1073.0,-17.0,-373.0,0.4951165664160533,0.3985507933055323,0.2248817451989099,-0.7385425184051364
-9856.209781169891,6880.0,-1464.0,13644.0,-1193.0,-596.0,-261.0,0.5278351836199976,0.3011600884787978,0.28304064141698615,-0.7420111962406949
-9856.225369930267,7324.0,-1860.0,13868.0,-1136.0,-977.0,-246.0,0.5610252904226426,0.17772890335021774,0.3151936186023846,-0.7445240380353432
-9856.24096775055,7404.0,-1884.0,14020.0,-884.0,-1388.0,12.0,0.6074829688043948,0.04394090736727274,0.3012265774369798,-0.733686709923209
-9856.256562709808,6732.0,-1348.0,13756.0,-499.0,-1667.0,-3.0,0.6456279370558029,-0.0884793572798372,0.24180308980180773,-0.7189347925860272
-9856.272117853165,6540.0,-904.0,13324.0,676.0,-1543.0,-469.0,0.6464731084134739,-0.1553907019824227,0.10729362539555434,-0.7391984360001779
-9856.287722587585,6320.0,-812.0,14164.0,1481.0,-1109.0,-621.0,0.6277832666107099,-0.1471053711212592,-0.05870489554572866,-0.7621036118467279
-9856.303297996521,5912.0,-792.0,15148.0,1856.0,-660.0,-730.0,0.5897741158492481,-0.08426909349565125,-0.22421773566203804,-0.771227345968909
-9856.318895816803,6036.0,-304.0,16904.0,1539.0,-524.0,-858.0,0.526454565453285,-0.023359086540986417,-0.3562744292606688,-0.7716012406964807
-9856.334495782852,6216.0,832.0,18116.0,738.0,-683.0,-1208.0,0.4215148996509681,0.002000190275261998,-0.43552075220489855,-0.79538849816299
-9856.350143432617,6760.0,2284.0,18024.0,-624.0,-1019.0,-1383.0,0.28337545021774385,-0.03873306863428614,-0.42388309571585625,-0.8593725762289631
-9856.365773916245,7320.0,2512.0,16840.0,-1254.0,-519.0,-1458.0,0.14842456679051197,-0.05402599552516585,-0.3422367284407332,-0.9262426040119012
-9856.3813662529,7012.0,1388.0,15876.0,-1391.0,-280.0,-1677.0,-0.001962991815067007,-0.04392272323668196,-0.23677089662351597,-0.9705701847670287
-9856.39696264267,6744.0,-88.0,14952.0,-1230.0,-371.0,-1900.0,-0.17182203782874453,-0.03535828319341396,-0.13684400720449663,-0.9749362526946096
-9856.412553071976,6708.0,-1080.0,14904.0,-895.0,-604.0,-2022.0,-0.34692529163362446,-0.04843044832721027,-0.0565117130646391,-0.9349351635200434
-9856.428159475327,6484.0,-1576.0,15212.0,-501.0,-673.0,-1974.0,-0.5046268567645796,-0.07728990079147609,-0.00328208719434534,-0.8598646606130483
-9856.443819761276,6416.0,-1660.0,16124.0,-92.0,-329.0,-1690.0,-0.6250898869286479,-0.09648991301192499,0.006932112710835277,-0.7745348770454727
-9856.459430217743,6504.0,-1760.0,15900.0,317.0,241.0,-1253.0,-0.7026310237971011,-0.09766256032308455,-0.037620343350323486,-0.70381558555859
-9856.475004911423,6056.0,-1196.0,15496.0,560.0,567.0,-1038.0,-0.7548502591913775,-0.0931847266266208,-0.11456150867233575,-0.6390566122441349
-9856.490623474121,5884.0,-948.0,14996.0,596.0,864.0,-780.0,-0.7798372911089877,-0.07598533474445827,-0.20939360419096517,-0.5850079886834763
-9856.506212711334,5464.0,-416.0,14408.0,543.0,993.0,-455.0,-0.7769853952954205,-0.05365231259435423,-0.3057095055318954,-0.54768314113029
-9856.52177619934,5268.0,-4.0,14100.0,474.0,885.0,-53.0,-0.750868568850737,-0.041955310874908135,-0.3868972766108165,-0.5336165679142367
-9856.537373542786,5124.0,0.0,14232.0,315.0,631.0,290.0,-0.7133917718235702,-0.042943600189769775,-0.4406673543747204,-0.5431761315499359
-9856.553007364273,5048.0,484.0,14080.0,331.0,269.0,260.0,-0.6888881957124103,-0.06078188803493112,-0.47148848401075877,-0.5472085757188436
-9856.568603038788,5280.0,540.0,14676.0,350.0,-107.0,579.0,-0.6626555291982223,-0.11060079082169294,-0.4776559786707461,-0.5661270888526106
-9856.584192276001,5396.0,692.0,15160.0,365.0,-349.0,549.0,-0.6452403130349896,-0.17150306037897706,-0.46902304856834076,-0.5781600285620007
-9856.599853992462,6248.0,692.0,15608.0,229.0,-289.0,309.0,-0.6375346489295887,-0.2114546267832442,-0.4590841691622483,-0.5814449568538653
-9856.61545419693,6540.0,724.0,15832.0,28.0,-246.0,101.0,-0.6416183448128956,-0.22947727429901515,-0.4446425516949107,-0.581342482020791
-9856.63107585907,6896.0,608.0,16020.0,-198.0,350.0,-13.0,-0.6323141497950672,-0.1999899034198899,-0.45398886499340946,-0.5950436664321705
-9856.646694421768,7048.0,136.0,16236.0,-349.0,571.0,124.0,-0.6083092156509574,-0.15570667029062038,-0.4642049826443721,-0.6246831717512995
-9856.662273168564,7144.0,-644.0,16284.0,-323.0,657.0,300.0,-0.5684075580293521,-0.11462335704881656,-0.4760782332351442,-0.6611534238236024
-9856.677853345871,6720.0,-1628.0,16268.0,-37.0,573.0,538.0,-0.5127515854562189,-0.10185076162909869,-0.4956379393895384,-0.6935814782744695
-9856.69341635704,6736.0,-2132.0,16012.0,463.0,410.0,885.0,-0.43542447846459664,-0.13545931810210032,-0.5316219206155719,-0.7137467549587588
-9856.708992242813,6620.0,-2084.0,15828.0,970.0,286.0,1184.0,-0.3338718300257619,-0.20756074303874328,-0.5834062585501089,-0.7106935180153378
-9856.724559307098,6428.0,-1504.0,15608.0,1283.0,314.0,1400.0,-0.2049200540170933,-0.29267550582320195,-0.6377171181536715,-0.6823970229760242
-9856.740139961243,6348.0,-72.0,14940.0,1342.0,298.0,1442.0,-0.06713008736357792,-0.3735945542939367,-0.6758959221729242,-0.6317320339847311
-9856.755767583847,6308.0,756.0,14416.0,999.0,264.0,1228.0,0.048299993795245445,-0.43310182676373543,-0.6857023690065356,-0.5830113029711513
-9856.771365404129,6216.0,1520.0,14044.0,439.0,33.0,819.0,0.10823529161266943,-0.47700262516231,-0.6746473830984172,-0.5528150917949353
-9856.786961555481,6288.0,1996.0,13712.0,-221.0,-369.0,481.0,0.100396286376325,-0.5243623217808934,-0.6463473685996461,-0.5451603619878348
-9856.802615880966,6448.0,2064.0,13720.0,-519.0,-888.0,-369.0,0.00897561045743398,-0.5478299303849555,-0.643339867576278,-0.5347107821788037
-9856.818209171295,6728.0,1556.0,14028.0,-1218.0,-1272.0,-840.0,-0.1576150798273034,-0.5529918207717612,-0.6186853572213271,-0.5353372409336793
-9856.833802938461,6968.0,976.0,14520.0,-1395.0,-1458.0,-1270.0,-0.355420452290381,-0.5221309837874883,-0.5821993269004547,-0.5119565231730795
-9856.849394798279,7260.0,192.0,14984.0,-1415.0,-1463.0,-1670.0,-0.5544589363546067,-0.4470602605285395,-0.5356433542235696,-0.45365031514239673
-9856.865002393723,7296.0,-512.0,15012.0,-1295.0,-1605.0,-1763.0,-0.7297092411765246,-0.35563871036513356,-0.46257613062504405,-0.3564671855968901
-9856.880587100983,7328.0,-1276.0,15128.0,-1093.0,-1674.0,-1752.0,-0.8628805117360687,-0.2603985141830772,-0.3664444440494882,-0.23097252153147402
-9856.896166563034,7144.0,-1488.0,15092.0,-908.0,-1770.0,-1623.0,-0.9493669408882095,-0.17145770561596282,-0.2454301047875708,-0.09522988185141615
-9856.911791324615,6952.0,-1504.0,14868.0,-695.0,-1856.0,-1247.0,-0.9894746172898201,-0.10040800725473409,-0.10215946574758203,0.020534297564465245
-9856.927439212799,6800.0,-1308.0,14968.0,-542.0,-1956.0,-878.0,-0.9917781524598812,-0.04137680007708563,0.05731384590034981,0.10667323838131255
-9856.943103313446,6756.0,-1056.0,15040.0,-480.0,-1810.0,-596.0,-0.9647732857694975,0.014003572651520331,0.20462602882900924,0.16475616936609894
-9856.958706617355,6964.0,-704.0,15196.0,-403.0,-1663.0,-267.0,-0.9202826733228584,0.06663869859762503,0.33537276833559354,0.19016884942037254
-9856.974314451218,6828.0,-460.0,15420.0,-352.0,-1508.0,-29.0,-0.8658589900049519,0.11800281324985494,0.44652577632666773,0.19229736495488248
-9856.989989757538,6776.0,-252.0,15432.0,-326.0,-1360.0,97.0,-0.8052478770741032,0.16794634063164443,0.5386318201871512,0.18233388444819124
-9857.00558590889,6792.0,-256.0,15440.0,-381.0,-1120.0,9.0,-0.7433259789479455,0.21179720402994165,0.6077746052478126,0.18225932788761073
-9857.021192789078,6808.0,-216.0,15260.0,-506.0,-967.0,-502.0,-0.6711313852405066,0.23206044519692084,0.6679621898079529,0.22261429987116707
-9857.036802530289,6968.0,-200.0,15140.0,-743.0,-856.0,-266.0,-0.5980433904549712,0.27525904898076586,0.7053209379785073,0.2628667600447915
-9857.05240702629,7232.0,-196.0,15480.0,-1076.0,-612.0,-855.0,-0.5106207203686611,0.29030785337497195,0.7267923175311024,0.3560347698986359
-9857.068072080612,7408.0,-232.0,15544.0,-1299.0,-342.0,-987.0,-0.4209999927910776,0.2931084500891899,0.7190169232416546,0.46889349179566353
-9857.083661079407,7472.0,-236.0,15548.0,-1430.0,31.0,-1066.0,-0.33873584272896295,0.27416270536274995,0.6783498310844562,0.5915524883783069
-9857.09927034378,7624.0,-392.0,15660.0,-1480.0,270.0,-1046.0,-0.2620451071893296,0.23899512917782947,0.6110914919048429,0.7076587302852404
-9857.114838123322,7260.0,-580.0,15740.0,-1442.0,927.0,-937.0,-0.22042337198971096,0.16238719179291053,0.5128086003416555,0.8136776243930578
-9857.130454778671,6852.0,-868.0,15700.0,-1382.0,1194.0,-870.0,-0.1896276371386585,0.06426144207992784,0.3976678582338588,0.8954172774872688
-9857.146055459976,6520.0,-1120.0,15848.0,-1223.0,1340.0,-721.0,-0.17053935940146084,-0.04451944846917281,0.27969006755110065,0.9437731781080668
-9857.161645174026,6368.0,-1284.0,15928.0,-978.0,1420.0,-499.0,-0.16593324797854092,-0.15700604526685333,0.17372876441389135,0.957931926276694
-9857.17722606659,6144.0,-1552.0,15892.0,-609.0,1326.0,-221.0,-0.17450461821745242,-0.2599976908954322,0.0996276216865896,0.9444700503175832
-9857.192861318588,6152.0,-1696.0,15892.0,-227.0,1200.0,-22.0,-0.18724452340947673,-0.35339588352286033,0.06172635344781593,0.9144619703696213
-9857.20849776268,6160.0,-1664.0,15360.0,60.0,977.0,198.0,-0.20570835820649577,-0.4294379753530137,0.056412814912302246,0.8775446945896046
-9857.224083423615,6264.0,-1296.0,15228.0,184.0,693.0,340.0,-0.22775292334316258,-0.48279676666948984,0.07062633189716082,0.8426433464075307
-9857.239692687988,6160.0,-844.0,15112.0,148.0,422.0,372.0,-0.25119378558007066,-0.5136472747558286,0.08867892423854128,0.815600519628181
-9857.25529384613,6532.0,-336.0,14884.0,16.0,300.0,364.0,-0.27852318219953914,-0.5319235622299674,0.09947537166094426,0.7934650662473689
-9857.270873785019,6968.0,-112.0,14920.0,-104.0,334.0,321.0,-0.30827406166363264,-0.5491143024048398,0.09897522191877592,0.7704832842093214
-9857.286469459534,7080.0,-156.0,15084.0,-180.0,457.0,163.0,-0.3315333176780384,-0.5728665240883979,0.08230710915614775,0.7450739189037742
-9857.302065372467,6984.0,-388.0,15040.0,-207.0,664.0,-160.0,-0.3356594129900122,-0.6098925651531398,0.0415558135744431,0.7166846808745739
-9857.31763267517,7156.0,-728.0,15232.0,-188.0,832.0,-367.0,-0.32472024345674866,-0.6554974940150794,-0.014063100489723444,0.6816758966209359
-9857.333206892014,6812.0,-1224.0,15236.0,-133.0,933.0,-600.0,-0.2941378741733976,-0.7030755573513005,-0.0823525896587977,0.6421726579420852
-9857.348860740662,6868.0,-1240.0,15200.0,-16.0,910.0,-625.0,-0.25241504547864907,-0.7456522526792806,-0.14429123759478613,0.5995576716577736
-9857.364445924759,6884.0,-1336.0,15104.0,93.0,857.0,-768.0,-0.19441825971001167,-0.7788778160470967,-0.20723591903340446,0.5591101517799649
-9857.380055904388,6760.0,-1420.0,15088.0,281.0,727.0,-212.0,-0.15145568891562167,-0.8132313658662099,-0.2197202318201283,0.5171449889493102
-9857.395637989044,6524.0,-1472.0,15068.0,406.0,602.0,80.0,-0.11447586896601246,-0.845558515164045,-0.20325425484848642,0.48022263664267073
-9857.411275625229,6352.0,-1496.0,14904.0,544.0,375.0,363.0,-0.0827105876850915,-0.8712436164952658,-0.15706086543468392,0.45763020436805224
-9857.426870822906,6216.0,-1272.0,15212.0,597.0,185.0,491.0,-0.05425553685678871,-0.8875185661924526,-0.09697013277029815,0.4471732603081109
-9857.442474126816,6320.0,-1072.0,14952.0,578.0,70.0,591.0,-0.03186876110959507,-0.8956238562317589,-0.028875271188362216,0.4427284821735458
-9857.458072900772,6260.0,-1008.0,14832.0,531.0,-63.0,548.0,-0.011664225028009142,-0.8940315237481312,0.03458809177993697,0.4465145510575363
-9857.473661899567,6388.0,-740.0,15056.0,584.0,-216.0,597.0,0.011264454434961352,-0.8818853289579843,0.10386815389156429,0.45974208556766744
-9857.489328622818,6460.0,-548.0,15000.0,517.0,-357.0,567.0,0.03146176304879482,-0.8595415020476176,0.16745676212004132,0.48182652121262365
-9857.504908800125,6456.0,-440.0,15356.0,462.0,-372.0,461.0,0.052064424619084095,-0.8340670093229596,0.21998068737302467,0.5032196506805247
-9857.520541667938,6620.0,-492.0,15336.0,533.0,-355.0,437.0,0.07831579374945959,-0.8057831098791898,0.27296770899325257,0.5196814852674557
-9857.53611779213,6672.0,-540.0,15164.0,455.0,-348.0,342.0,0.10292856270148333,-0.7773839971554082,0.314743421551606,0.5348050210468067
-9857.551757097244,6704.0,-580.0,15328.0,381.0,-467.0,239.0,0.1302556303481556,-0.7443620458112179,0.3439899174503807,0.5573415041164824
-9857.56735420227,6680.0,-660.0,15564.0,346.0,-442.0,232.0,0.15451705523721812,-0.7109142661802451,0.37033532362234645,0.5775613680465079
-9857.582933664322,6852.0,-800.0,15272.0,317.0,-440.0,85.0,0.18393093142915373,-0.6808774114865184,0.3851939491577587,0.5951478677801613
-9857.598504066467,6948.0,-864.0,15276.0,216.0,-388.0,34.0,0.20790968508332403,-0.6555602179218242,0.39188400562796694,0.6110984287819949
-9857.614070415497,6960.0,-904.0,15436.0,158.0,-298.0,-243.0,0.23997162593025875,-0.6446266822822757,0.3807160661145383,0.6180010810997053
-9857.629666805267,7144.0,-968.0,15244.0,142.0,-197.0,39.0,0.25237388786685533,-0.6295225398055303,0.386320767616103,0.6251120356450253
-9857.645340204239,6880.0,-1016.0,14892.0,153.0,-124.0,120.0,0.25839172335930777,-0.6151510707590745,0.3984138412276661,0.6293562493227403
-9857.660933971405,6816.0,-1000.0,15060.0,205.0,-76.0,186.0,0.26177164331370506,-0.5996305427598038,0.4177790199172177,0.6303804481925455
-9857.676526546478,6780.0,-1000.0,15064.0,234.0,-124.0,245.0,0.26495767469479714,-0.5781739884450598,0.4403861825445821,0.6336973093912169
-9857.692119121552,6672.0,-1036.0,14944.0,277.0,-231.0,296.0,0.2712472127099921,-0.5470911819832723,0.46487528719289406,0.6410983977132766
-9857.707745552063,6880.0,-1020.0,14972.0,427.0,-351.0,325.0,0.28727167765479583,-0.5032943764295118,0.495157987490672,0.6472930721829296
-9857.723329782486,6588.0,-1008.0,15000.0,556.0,-496.0,465.0,0.30599232911008956,-0.4398670752531876,0.5329450340110884,0.6548704004281375
-9857.73892569542,6568.0,-1036.0,15352.0,667.0,-613.0,484.0,0.33115168459134714,-0.362966629372064,0.5709283462482512,0.6577496569401101
-9857.754539012909,6740.0,-988.0,15176.0,760.0,-564.0,529.0,0.3514227813742925,-0.2809274168284676,0.6122112011969179,0.6502147801567323
-9857.770157814026,6868.0,-984.0,15144.0,734.0,-434.0,501.0,0.36285616436319146,-0.20617543495739732,0.6503438334010145,0.6347282823075037
-9857.785749912262,6992.0,-456.0,15132.0,675.0,-377.0,439.0,0.3709902574190284,-0.13851242307244366,0.6815699506148064,0.615339694781422
-9857.801357269287,7144.0,-220.0,15168.0,539.0,-297.0,337.0,0.3763914811179832,-0.08484609088426535,0.7035764096710393,0.596750223760226
-9857.816938877106,7112.0,-28.0,14872.0,422.0,-495.0,11.0,0.4087064851136232,-0.0444052028249095,0.7081525480306639,0.5740271384750241
-9857.83251285553,6992.0,228.0,15020.0,276.0,-156.0,131.0,0.4126955143368634,-0.018596740194312438,0.7165177769599179,0.5620843788976833
-9857.848119020462,6988.0,-184.0,14832.0,220.0,-153.0,253.0,0.4100223235130669,0.012687303995062243,0.7217532951785877,0.5574880334474754
-9857.863749742508,6680.0,-308.0,14960.0,93.0,-244.0,-164.0,0.4331432743260513,0.017579783028559955,0.7173827073945478,0.5453805151140296
-9857.87933397293,6536.0,-648.0,14924.0,104.0,-343.0,-327.0,0.4696421246255734,0.017374227375647346,0.7091448611377624,0.5255929764772169
-9857.894925832748,6652.0,-872.0,15068.0,242.0,-453.0,-279.0,0.5094941873104227,0.030792238078598568,0.7010994012108205,0.4979228261415939
-9857.910539865494,6844.0,-948.0,15108.0,402.0,-537.0,-102.0,0.5448024097991115,0.06567609329982076,0.6936567487577515,0.46660186449346686
-9857.926217079163,6872.0,-1032.0,15312.0,616.0,-450.0,176.0,0.5600959428194336,0.1236852561337401,0.6946241808122879,0.43415635395926044
-9857.941811561584,6936.0,-948.0,15356.0,675.0,-305.0,319.0,0.557886416844911,0.18713683948413948,0.7000269230362591,0.4046045677352405
-9857.957424402237,6668.0,-792.0,15056.0,624.0,-400.0,448.0,0.5547841514668705,0.2582962982327607,0.6932042651722766,0.38074323939815574
-9857.973011493683,6920.0,-516.0,15156.0,761.0,-359.0,409.0,0.543998518733625,0.3307312889454168,0.6895133719471799,0.34533134238605556
-9857.98864865303,6984.0,-140.0,15612.0,308.0,-340.0,163.0,0.5502131593293139,0.36508315047388296,0.6772604415002965,0.3244966362225387
-9858.00423836708,6992.0,28.0,15496.0,111.0,-361.0,-87.0,0.5702099173027129,0.3752743511034156,0.6653839341659881,0.30214902244974345
-9858.01985502243,7024.0,44.0,15380.0,56.0,-501.0,-315.0,0.6050265678307296,0.37246878225195,0.6512908464146957,0.26651471224520806
-9858.035435914993,6912.0,-188.0,15508.0,33.0,-169.0,-547.0,0.6255697039488434,0.34659792748031976,0.6600146833363192,0.23002834596666896
-9858.051060199738,6752.0,-416.0,15116.0,98.0,-102.0,-694.0,0.641262579199952,0.31340212598635747,0.676043414387986,0.18310301419608135
-9858.06664967537,6728.0,-652.0,14796.0,75.0,-152.0,-680.0,0.6578927900563291,0.27936606044652257,0.6859807122629419,0.1362429574903443
-9858.082226514816,6668.0,-668.0,14820.0,89.0,-150.0,-636.0,0.6712338156251585,0.24775387498313658,0.6927136522055989,0.09061444829667974
-9858.097802400589,6540.0,-940.0,14852.0,125.0,-197.0,-426.0,0.6832777228114711,0.23065455548314043,0.6906769396666472,0.05380887061776931
-9858.113380432129,6536.0,-1012.0,15044.0,117.0,-284.0,-289.0,0.6990093673623813,0.22137592515573026,0.679567686278514,0.023798400516747226
-9858.128942012787,6604.0,-856.0,15260.0,162.0,-437.0,-177.0,0.7215692651233522,0.22144033848146916,0.6559546933860776,-0.005041066091083552
-9858.144518136978,6664.0,-860.0,15160.0,321.0,-583.0,-110.0,0.7474880107514648,0.23467450924846822,0.6200515240809938,-0.041541015594776576
-9858.160136461258,7100.0,-900.0,15476.0,495.0,-558.0,16.0,0.7660724582639115,0.2652241411458699,0.5801886253296674,-0.07855127421623355
-9858.17577457428,6928.0,-916.0,15604.0,594.0,-483.0,-104.0,0.7744012143755378,0.29565579081194043,0.5448776334844222,-0.12648627222538467
-9858.191410541534,6996.0,-764.0,15444.0,691.0,-375.0,6.0,0.772746289616015,0.33766927106692485,0.5104306613912962,-0.16823547537144823
-9858.207010746002,7248.0,-592.0,15476.0,836.0,-309.0,17.0,0.7599204436907677,0.38904926350730623,0.4752609199012577,-0.21281129631638324
-9858.222630262375,7336.0,-344.0,15504.0,993.0,-251.0,323.0,0.7394649579212378,0.46157111587790917,0.4272152384702093,-0.24006420185568203
-9858.238213539124,7156.0,-416.0,15564.0,1007.0,-88.0,150.0,0.7026253610380578,0.5281564223859875,0.3927353850232834,-0.2704206221226235
-9858.253818273544,7208.0,-492.0,15336.0,888.0,198.0,92.0,0.6550824073444749,0.5885103654432163,0.37839454624610136,-0.2852019577858238
-9858.269413232803,7268.0,-436.0,14860.0,1010.0,300.0,45.0,0.5919962318843391,0.6524061606887083,0.3664806186753092,-0.29933028424388597
-9858.2850086689,7116.0,-364.0,14700.0,618.0,319.0,246.0,0.5519627769774653,0.6990516381515477,0.3520298301748881,-0.28764370094963304
-9858.300565958023,6780.0,-184.0,14676.0,470.0,284.0,-75.0,0.5121505574135674,0.7256334777772664,0.35802984871461785,-0.28804945738402155
-9858.316143751144,6780.0,-152.0,14776.0,370.0,159.0,-46.0,0.4823568717902685,0.7442339661453602,0.35848961926818845,-0.2914324016803941
-9858.331774950027,6844.0,-132.0,14564.0,298.0,76.0,-24.0,0.45990703480847533,0.7576576163775216,0.35550804150246007,-0.2967397649555804
-9858.347357034683,6860.0,-196.0,14660.0,177.0,-60.0,-96.0,0.44756238405557575,0.7600719914019531,0.3547758218854294,-0.31002031622181886
-9858.362929105759,6928.0,-292.0,14624.0,103.0,-257.0,-219.0,0.44260981789838766,0.7499718268368577,0.35628182913190765,-0.33867693497101997
-9858.378519296646,7112.0,-372.0,14676.0,-29.0,-352.0,-320.0,0.44566725572005383,0.7278290896727382,0.36414595511520637,-0.3728850181736236
-9858.394150018692,7056.0,-300.0,14648.0,-124.0,-513.0,-363.0,0.4573796011716077,0.6936449228056988,0.3706779370962529,-0.41504034556660113
-9858.409777641296,7112.0,-76.0,14724.0,-5.0,-518.0,-431.0,0.4580959223102577,0.6595451963924227,0.37558917105860073,-0.4626889175914072
-9858.425368785858,7384.0,-36.0,14968.0,-315.0,-257.0,-558.0,0.4613425565452031,0.6171007888947148,0.4093779679976293,-0.4886300657798177
-9858.440962076187,7140.0,-96.0,15136.0,-363.0,-519.0,-761.0,0.4653061219788405,0.5510355010482492,0.4432555409895083,-0.5323294232104925
-9858.45657491684,7188.0,-184.0,15248.0,-331.0,-767.0,-959.0,0.4635462004280172,0.4619352808489887,0.47066325211061205,-0.5917911958523692
-9858.472162246704,7348.0,-344.0,15328.0,-264.0,-319.0,-1010.0,0.433208192957883,0.3914243758437797,0.5097410110434998,-0.6318874276402593
-9858.48780298233,7320.0,-580.0,15232.0,-250.0,-101.0,-916.0,0.39438936104633154,0.334397766839543,0.5490285292765232,-0.656660368430021
-9858.503371715546,7188.0,-800.0,15240.0,-499.0,64.0,-817.0,0.35783195017402897,0.2806673767941568,0.601497604725324,-0.6567973435907274
-9858.518959283829,7120.0,-848.0,14976.0,-223.0,108.0,-680.0,0.31802257106382065,0.2436300971833246,0.6329743091322666,-0.6624572016507413
-9858.534572839737,7104.0,-692.0,15080.0,-170.0,45.0,-610.0,0.28345248149521335,0.20742167574748563,0.6559399367121974,-0.6681120703821396
-9858.550186872482,6708.0,-476.0,14932.0,-167.0,34.0,-569.0,0.25101303241494455,0.17239817008413438,0.6758328466810926,-0.6712088287980329
-9858.565809249878,6660.0,-296.0,15268.0,-6.0,34.0,-638.0,0.21138767054214558,0.1363504755355086,0.6853805083157946,-0.683357417011617
-9858.581382989883,6984.0,-140.0,15404.0,-268.0,161.0,-640.0,0.1664384453896652,0.10246531062479282,0.710498473288121,-0.6760111119427589
-9858.596956968307,7108.0,-48.0,15556.0,-348.0,10.0,-748.0,0.1244524142035573,0.051424021771419755,0.7358814273422768,-0.6635854816649113
-9858.61254644394,7060.0,-52.0,15652.0,-423.0,392.0,-822.0,0.05332757312827995,0.01662620465833438,0.7653184789030185,-0.6412233348159415
-9858.628137111664,6956.0,-120.0,15396.0,-450.0,481.0,-821.0,-0.02404119737059828,-0.013373921569077614,0.7905327376759466,-0.6118015607314392
-9858.643767595291,6828.0,-200.0,15276.0,-381.0,518.0,-798.0,-0.10248592110894451,-0.039850237669781095,0.8055728448989322,-0.5822035607015419
-9858.659415245056,6592.0,-404.0,15004.0,-285.0,265.0,-616.0,-0.15316485511035793,-0.06704061554951923,0.8138284973388386,-0.556533251427956
-9858.675011873245,6452.0,-628.0,14608.0,-124.0,263.0,-482.0,-0.1958163327311345,-0.08676425748928435,0.8124637499207866,-0.5422458690692961
-9858.690631628036,6484.0,-760.0,14880.0,65.0,40.0,-339.0,-0.21417541801352466,-0.10999149326196327,0.8056915763068931,-0.5411948314579967
-9858.706221580505,6592.0,-532.0,14992.0,188.0,-136.0,-173.0,-0.21098045842921717,-0.1320718558373797,0.797361763889539,-0.5497804002905438
-9858.721805334091,6680.0,-832.0,14940.0,199.0,-51.0,229.0,-0.19414554826099933,-0.12221415366989702,0.7910275954307823,-0.567138915963436
-9858.73736834526,6896.0,-644.0,14940.0,134.0,-8.0,29.0,-0.19078292997141413,-0.12288643350795515,0.7847019989984341,-0.5768392937890753
-9858.752985239029,6876.0,-612.0,15048.0,64.0,-67.0,123.0,-0.17936565550254407,-0.1189068726774079,0.7837625860054931,-0.5825850375989787
-9858.768559455872,6884.0,-652.0,15220.0,33.0,-63.0,84.0,-0.17049978126612947,-0.1168926034941117,0.783825228055672,-0.585562939144926
-9858.784112215042,7152.0,-668.0,15284.0,-21.0,-23.0,17.0,-0.16833737286111142,-0.11661102438845712,0.7853294712562877,-0.5842277119973112
-9858.799720525742,6896.0,-796.0,15408.0,104.0,22.0,6.0,-0.1685380654720618,-0.1166182518388591,0.7796478555580376,-0.5917299427515367
-9858.815274953842,7000.0,-868.0,15344.0,136.0,158.0,25.0,-0.1766507159576338,-0.10875615256276096,0.7703385939610912,-0.6029469914390899
-9858.830869913101,7036.0,-948.0,15184.0,184.0,112.0,169.0,-0.17355784418732426,-0.09432732648252827,0.7602258041159723,-0.6188996339924029
-9858.846464157104,6988.0,-780.0,14988.0,175.0,226.0,171.0,-0.17786864190170723,-0.07341366098635561,0.7483470143280855,-0.6347833699419535
-9858.862048625946,6904.0,-740.0,15068.0,220.0,246.0,236.0,-0.17940699836138962,-0.04777908707548735,0.7332932506091011,-0.6540728525082868
-9858.877627134323,6976.0,-660.0,15204.0,270.0,246.0,338.0,-0.1746335544209328,-0.016344630969011197,0.7146600568116543,-0.6771240491274558
-9858.893211841583,6848.0,-524.0,15076.0,201.0,232.0,290.0,-0.17163102017743342,0.0123459487648355,0.6990775314452459,-0.694032402334625
-9858.908794641495,6796.0,-628.0,15092.0,207.0,158.0,284.0,-0.1642660375546409,0.036079003576898264,0.6833699114024958,-0.7104368646098967
-9858.92446231842,6740.0,-704.0,14992.0,3.0,144.0,315.0,-0.15332927675193211,0.06367277296527928,0.6797085065973109,-0.7144454191419346
-9858.940109968185,6760.0,-672.0,15052.0,222.0,170.0,349.0,-0.14284235087393485,0.09188094262983415,0.6610381747147887,-0.7308778877131265
-9858.955766916275,6700.0,-552.0,14944.0,179.0,150.0,327.0,-0.1320553620279521,0.1179477389712349,0.6446214196400488,-0.7437156295066603
-9858.971405267715,6856.0,-572.0,15032.0,53.0,77.0,342.0,-0.11474129333573392,0.14143708146158862,0.6363616144990508,-0.749582472569518
-9858.987005472183,6884.0,-480.0,14912.0,-26.0,-45.0,210.0,-0.09822498515822858,0.150312020777067,0.6357050939464092,-0.750757738708811
-9859.002629756927,6956.0,-364.0,14960.0,-121.0,-132.0,48.0,-0.08621560260067895,0.14526356391734302,0.6439523288104279,-0.7461841361794422
-9859.018209457397,7016.0,-428.0,15060.0,-183.0,-192.0,-80.0,-0.07834892837915844,0.12952272715408655,0.6580402618093261,-0.7376098714159939
-9859.033797502518,6988.0,-744.0,15168.0,-247.0,-142.0,-214.0,-0.08119678286257996,0.10965114104445374,0.6769087363055208,-0.7233106334305333
-9859.049396753311,6928.0,-588.0,15228.0,-289.0,-35.0,-226.0,-0.0906421638421567,0.09602091685367879,0.6971105469335485,-0.7046991322646846
-9859.064984560013,6776.0,-540.0,15216.0,-342.0,79.0,-346.0,-0.11381894103458157,0.08239726395191874,0.7196654370642755,-0.6799541148122348
-9859.08057141304,6772.0,-652.0,15284.0,-345.0,155.0,-396.0,-0.1444743099903716,0.07001565787531398,0.7405171691894299,-0.6525789634525205
-9859.096155405045,6668.0,-652.0,15128.0,-403.0,176.0,-470.0,-0.17994169416225242,0.054609668180325296,0.7628398611590255,-0.6186389230157865
-9859.111803293228,6700.0,-660.0,15600.0,-422.0,192.0,-386.0,-0.21133470175667682,0.04579948829606517,0.7832883769395925,-0.5828373437388632
-9859.127413511276,6728.0,-704.0,15312.0,-347.0,176.0,-347.0,-0.23945969128934086,0.03735445773792729,0.7981819874687813,-0.5515153811228707
-9859.143009185791,6792.0,-692.0,15232.0,-229.0,212.0,-244.0,-0.2651478256375258,0.03529297321659509,0.8050170534491365,-0.5295267512197045
-9859.15865778923,6592.0,-664.0,15284.0,-204.0,243.0,-197.0,-0.29062427747865566,0.0373535248115955,0.8089277790608302,-0.5096843060050718
-9859.17425251007,6480.0,-604.0,15076.0,-97.0,276.0,-136.0,-0.3158028211305448,0.04244473235358937,0.8062933949603419,-0.4983552789975713
-9859.189825057983,6408.0,-476.0,15220.0,-56.0,243.0,-84.0,-0.3363464070061157,0.048605599967213774,0.8020574397135017,-0.4911338448387834
-9859.205401420593,6324.0,-460.0,15292.0,-51.0,148.0,-158.0,-0.3532837912175328,0.045348039060148296,0.8003438785583357,-0.4822694208329675
-9859.22097826004,6452.0,-412.0,15248.0,-23.0,30.0,-227.0,-0.3648587418824427,0.0314253254093991,0.80104865208068,-0.47350987782157206
-9859.236554861069,6520.0,-372.0,15276.0,-49.0,-115.0,-362.0,-0.3715273555425364,0.0028900458335620527,0.8072030725322058,-0.45867447216213814
-9859.252113580704,6588.0,-408.0,15292.0,-76.0,-228.0,-545.0,-0.3768449355699105,-0.04214295725598753,0.8165996638622255,-0.43517451059216516
-9859.267793178558,6772.0,-432.0,15104.0,-74.0,-357.0,-643.0,-0.37540612562653636,-0.09891723480070239,0.8269961683496873,-0.40664844649450177
-9859.283411979675,6872.0,-408.0,15020.0,-102.0,-498.0,-659.0,-0.36286423991039796,-0.16041366944335375,0.8389667864112375,-0.3724670849199544
-9859.299007177353,6876.0,-468.0,14920.0,-101.0,-574.0,-722.0,-0.34467704908734137,-0.2280100144589021,0.8474862218728383,-0.3331310085755994
-9859.314618110657,6820.0,-544.0,15036.0,-76.0,-607.0,-675.0,-0.31998872843510084,-0.2923849882239166,0.8517845695226431,-0.2942469701779666
-9859.330210208893,6896.0,-656.0,14892.0,-73.0,-593.0,-661.0,-0.2939315621088418,-0.35365101842175095,0.8507412794998189,-0.2545082892962927
-9859.345794200897,6924.0,-764.0,14896.0,-67.0,-512.0,-596.0,-0.27065405699985773,-0.4065965469539115,0.8449339877344907,-0.21797290153999635
-9859.361396312714,7008.0,-704.0,14924.0,-149.0,-532.0,-553.0,-0.24672494176538123,-0.4529233536356181,0.8387335319559572,-0.17468056908259472
-9859.376983880997,7040.0,-728.0,15016.0,-159.0,-523.0,-452.0,-0.2212561258376306,-0.48961992037700314,0.8329364153123356,-0.13241974322575936
-9859.392560720444,7112.0,-700.0,14880.0,-167.0,-507.0,-437.0,-0.1962898671147774,-0.5230727659908482,0.8244736535630426,-0.09004645538361972
-9859.408128261566,7140.0,-812.0,15176.0,-142.0,-527.0,-469.0,-0.16825871130370032,-0.5574301762178853,0.8115960560176347,-0.04767018532306995
-9859.423746824265,7132.0,-796.0,14940.0,-61.0,-575.0,-434.0,-0.13208720044364217,-0.5884976066575625,0.7975853472957917,-0.009008452493819225
-9859.43932056427,7160.0,-800.0,15012.0,49.0,-586.0,-339.0,-0.08892840606756053,-0.6120482001628148,0.7855095643641894,0.021528203922381372
-9859.454891681671,7208.0,-716.0,15048.0,159.0,-476.0,-169.0,-0.047466245897738235,-0.6233079138045516,0.7796424812131606,0.037306856967310634
-9859.470455884933,7100.0,-680.0,15064.0,206.0,-411.0,-106.0,-0.007967171685643235,-0.6295022510882519,0.7755930995424936,0.04603025083814529
-9859.486038208008,7052.0,-752.0,14924.0,172.0,-329.0,-42.0,0.023888610920202186,-0.63080804526855,0.7737957633562301,0.05244674350923279
-9859.501629114151,7120.0,-604.0,15024.0,142.0,-330.0,-32.0,0.05409621788055918,-0.6308508512705583,0.7716154795988828,0.0609126777084823
-9859.517210245132,7164.0,-704.0,15052.0,199.0,-215.0,25.0,0.07936075219284434,-0.6268787999022775,0.772782523901696,0.05943073276168712
-9859.532788991928,7232.0,-616.0,15336.0,267.0,-57.0,84.0,0.09733761569046974,-0.6188759568908626,0.7781290404799542,0.04509029735829242
-9859.548396587372,7180.0,-548.0,15288.0,249.0,82.0,47.0,0.10499545547237994,-0.6137264615129548,0.7821342085865569,0.02412186824471423
-9859.564076662064,7116.0,-572.0,15208.0,288.0,134.0,34.0,0.11115146173546415,-0.608813027002857,0.7854846597598404,-0.002428989019266192
-9859.57969713211,7016.0,-516.0,15356.0,290.0,143.0,-28.0,0.11669709717683953,-0.6076472746716096,0.7850061659192284,-0.030197625129429796
-9859.595299959183,7152.0,-452.0,14900.0,194.0,77.0,-132.0,0.12132553754724633,-0.6143735916827281,0.77809394023687,-0.0489389818896814
-9859.610872030258,6948.0,-412.0,15060.0,149.0,-50.0,-154.0,0.13202294154171956,-0.6233571852725517,0.7685234402784898,-0.0580300285909602
-9859.626445293427,6892.0,-264.0,14916.0,150.0,-61.0,-158.0,0.14344318705035858,-0.6324169015017777,0.7583108770250124,-0.06661477740924482
-9859.64201259613,6924.0,-540.0,14992.0,159.0,-27.0,-163.0,0.15302661639071838,-0.6412471833409419,0.7478943411178541,-0.07771073965165456
-9859.65758728981,6972.0,-680.0,15140.0,196.0,-26.0,-214.0,0.16418987156944748,-0.652568070905531,0.7339942081333125,-0.09191899333322612
-9859.673176288605,6980.0,-688.0,15008.0,217.0,48.0,-144.0,0.17227523797298308,-0.6581253493526761,0.724536114925301,-0.11063311027771583
-9859.688754558563,6960.0,-612.0,15108.0,180.0,139.0,-128.0,0.172546069985843,-0.6620012397823553,0.7173384889237929,-0.1319382604387164
-9859.704359054565,6936.0,-556.0,15024.0,103.0,118.0,-129.0,0.16959875904403676,-0.6670649205927667,0.7103522169833865,-0.14717465974846514
-9859.720005273819,7044.0,-580.0,15036.0,88.0,73.0,-104.0,0.16884603536172627,-0.6712126186440157,0.7041701844295415,-0.1584581593864298
-9859.735572338104,7132.0,-576.0,15000.0,85.0,106.0,17.0,0.16753448689299527,-0.6674009702867387,0.7054895340041598,-0.16968399444972385
-9859.751198291779,7108.0,-580.0,15116.0,93.0,123.0,37.0,0.16591039407869965,-0.6618765392375339,0.7079849000345043,-0.18207297785978227
-9859.766801834106,7004.0,-728.0,15200.0,114.0,149.0,91.0,0.16470844368848359,-0.6521241927186908,0.7134558656991227,-0.19643292378883173
-9859.782432079315,7060.0,-860.0,15196.0,210.0,189.0,132.0,0.16709397732449885,-0.6374050848739435,0.7198036915033129,-0.218350649682853
-9859.797992944717,7048.0,-824.0,15080.0,282.0,156.0,180.0,0.17632193892005307,-0.6186846924738291,0.7263240509676443,-0.24206031921813873
-9859.813577890396,7056.0,-516.0,15332.0,300.0,153.0,205.0,0.18704427730259474,-0.5974801421328209,0.7329566844016835,-0.26609475168853886
-9859.829126119614,7004.0,-684.0,14932.0,377.0,102.0,219.0,0.2051119753815632,-0.5745012751064926,0.7367003689249196,-0.29180460736933933
-9859.844738721848,6916.0,-476.0,14644.0,428.0,34.0,273.0,0.23111772164002786,-0.547872086844546,0.7393410493269907,-0.3159043968997404
-9859.860335588455,6976.0,-508.0,14924.0,437.0,-253.0,332.0,0.27712158454892577,-0.5238735654123085,0.7370072966439521,-0.32493131510037937
-9859.875952482224,6880.0,-496.0,14912.0,428.0,-79.0,404.0,0.3128282279127187,-0.4891084760778688,0.7404009093628429,-0.3387002979987592
-9859.891526937485,7016.0,-452.0,14960.0,426.0,-145.0,405.0,0.35188782448567696,-0.45494852906839234,0.7400637999795192,-0.3485718962238889
-9859.907094717026,6968.0,-524.0,15060.0,385.0,-163.0,401.0,0.38943398544072055,-0.4216347712235208,0.7382773438327028,-0.3542765223132561
-9859.922795534134,6992.0,-676.0,15008.0,411.0,-167.0,333.0,0.42515093467912723,-0.39090635711668503,0.7312364764121043,-0.3629491951659867
-9859.938452005386,6928.0,-608.0,15192.0,369.0,-204.0,421.0,0.46350885659285246,-0.3563177333312403,0.7253014478494745,-0.3635038136266656
-9859.954090833664,7012.0,-664.0,15032.0,419.0,-204.0,397.0,0.5013765663641159,-0.32024394403149775,0.715014669699534,-0.36717758254902594
-9859.969691753387,7012.0,-612.0,15084.0,424.0,-219.0,378.0,0.5382970469791721,-0.28471084618978937,0.7013440648883005,-0.37053006075263667
-9859.985362768173,7068.0,-524.0,15332.0,445.0,-193.0,451.0,0.5748479782734474,-0.24202779391900434,0.6878606109436507,-0.3712413349262953
-9860.000969409943,6984.0,-548.0,15116.0,409.0,-168.0,452.0,0.607353187031509,-0.19950701695868417,0.6746087880269909,-0.3690827000872171
-9860.016571521759,7004.0,-536.0,15184.0,413.0,-103.0,764.0,0.6434127845111536,-0.13554986506621342,0.667108997021451,-0.3501596905715579
-9860.032161712646,7016.0,-600.0,14868.0,431.0,-59.0,574.0,0.6682386945339854,-0.07957466850530819,0.6560146237127382,-0.34171586550059396
-9860.047765731812,7120.0,-576.0,15332.0,379.0,-31.0,558.0,0.688166702842841,-0.02640831717687891,0.6455481912475282,-0.330146516957764
-9860.063364982605,7080.0,-584.0,15164.0,392.0,94.0,559.0,0.6986948491989503,0.03127060962479278,0.639918564002721,-0.31835811301307465
-9860.07895207405,7060.0,-768.0,15156.0,424.0,143.0,528.0,0.7030188132859225,0.09040522997544442,0.6341496479349583,-0.30894282089588826
-9860.094577789307,6956.0,-544.0,15044.0,386.0,164.0,426.0,0.7015091108531233,0.1418727196748838,0.6294785562874797,-0.3025125550722526
-9860.110170125961,6868.0,-500.0,14996.0,369.0,154.0,427.0,0.6989246677398884,0.19171323032713225,0.6229614782569786,-0.29439657394423396
-9860.125785827637,6776.0,-492.0,15084.0,344.0,88.0,394.0,0.6978432398757183,0.2360963124943022,0.6121410168688084,-0.28732685090881227
-9860.141385316849,6772.0,-400.0,14988.0,284.0,59.0,412.0,0.6985797978124526,0.27658319856661717,0.5994447020484706,-0.2759602318179058
-9860.15700340271,6700.0,-420.0,14872.0,284.0,-59.0,329.0,0.7023055330518386,0.30942546498494977,0.5805423729415959,-0.27201722938623046
-9860.172577142715,6804.0,-456.0,15060.0,296.0,-67.0,255.0,0.7034255241231369,0.3386537991260505,0.5620884019802557,-0.27306183312368176
-9860.188151836395,6832.0,-472.0,15028.0,314.0,-79.0,274.0,0.7041544512588851,0.3691921546422696,0.5411892055923437,-0.273820936878875
-9860.203762292862,6928.0,-572.0,14900.0,274.0,-38.0,267.0,0.7031926516472592,0.39746194039697963,0.5233138944237363,-0.2714528845089455
-9860.21932888031,6964.0,-500.0,15064.0,274.0,-11.0,144.0,0.6974345596639384,0.42038937115422065,0.5108742314787388,-0.2754366192392274
-9860.234873533249,6940.0,-492.0,15212.0,230.0,-18.0,131.0,0.6928494919164787,0.4396262230686861,0.49922080700420707,-0.27832885476627717
-9860.250485420227,6948.0,-476.0,15004.0,180.0,-28.0,75.0,0.6889705398094584,0.45297589216497686,0.49011922186228707,-0.2826934466044675
-9860.266140937805,6876.0,-416.0,15204.0,160.0,-47.0,23.0,0.685236721527646,0.46231366049570294,0.48229962098403883,-0.2900065350776764
-9860.281731843948,6860.0,-280.0,15112.0,114.0,-44.0,59.0,0.6840224854288581,0.4704099390991335,0.4742847621249058,-0.293055784861174
-9860.297358751297,6904.0,-640.0,15200.0,141.0,-27.0,-6.0,0.6792312845745946,0.4777902796964546,0.4691948537047278,-0.3003622811534914
-9860.312948226929,6864.0,-600.0,15104.0,149.0,-17.0,-249.0,0.6670575680102141,0.47576525914180073,0.47443384162932617,-0.32186044968413413
-9860.32852768898,6856.0,-628.0,15060.0,205.0,9.0,235.0,0.664612773999194,0.4974406976885075,0.4591909055987149,-0.3162061434186548
-9860.344107151031,6868.0,-540.0,15112.0,121.0,4.0,-47.0,0.6579449847474728,0.5025922524797144,0.45801934415269246,-0.32361660213121385
-9860.359729766846,6884.0,-592.0,15056.0,171.0,-40.0,241.0,0.658711819993278,0.5206799232352619,0.44009523132327144,-0.3182881447798225
-9860.375298976898,6888.0,-508.0,15036.0,170.0,-57.0,-54.0,0.6516735304143482,0.5266630302292145,0.43441817183892156,-0.3304973741547887
-9860.390876054764,6680.0,-492.0,15124.0,148.0,-1.0,-62.0,0.6431415538989957,0.5325852649499057,0.43282823662030206,-0.33967866402054736
-9860.406437635422,7144.0,-756.0,14872.0,104.0,-46.0,-36.0,0.6390252800157334,0.5356070429648078,0.4287441068172082,-0.347779064776508
-9860.422022342682,6892.0,-524.0,15084.0,74.0,-48.0,-48.0,0.6359637787636462,0.5363957042808244,0.4259789037057869,-0.35548796622017814
-9860.43760061264,6964.0,-764.0,15108.0,60.0,-246.0,-43.0,0.6408873815343545,0.5302932681456516,0.412301605988292,-0.37156399132439877
-9860.453166007996,6972.0,-464.0,14860.0,69.0,22.0,-82.0,0.634297312883145,0.5318223726040228,0.41499980961905364,-0.3776334742620137
-9860.46876168251,6988.0,-532.0,14988.0,67.0,246.0,-101.0,0.6188531480313716,0.539760381273397,0.4309085220833502,-0.37416220757206514
-9860.484355688095,7156.0,-524.0,15052.0,92.0,-51.0,-87.0,0.6136317854602688,0.5396899176725009,0.4291512486657095,-0.38473371363081027
-9860.499988555908,6932.0,-592.0,15196.0,86.0,-65.0,-121.0,0.607970160727346,0.5374610944316959,0.42837318822150827,-0.3974975059675081
-9860.515581130981,6940.0,-584.0,15012.0,102.0,-92.0,-215.0,0.5990944316351167,0.531443964519552,0.4298661644213598,-0.4169751254513944
-9860.531194925308,6912.0,-572.0,15144.0,113.0,-100.0,-146.0,0.5922676097140268,0.5280778912005548,0.4271586564099106,-0.43346084201792445
-9860.546808958054,6972.0,-536.0,14964.0,96.0,-69.0,-196.0,0.5829580938631054,0.5229478744303658,0.42884192045777275,-0.45031099107877265
-9860.56242775917,6880.0,-588.0,15008.0,99.0,-105.0,-128.0,0.5773295248668102,0.5189214511544326,0.4253233183875132,-0.4653076639006445
-9860.57802605629,6924.0,-672.0,15044.0,110.0,-131.0,-76.0,0.5741187103172256,0.5161792869967591,0.4175732451796082,-0.4791442737311736
-9860.593594551086,6892.0,-648.0,14856.0,106.0,-102.0,-92.0,0.5692187155521237,0.513736247291941,0.412058024528207,-0.4922126639019923
-9860.609173059464,6672.0,-592.0,15016.0,84.0,-121.0,-77.0,0.5665069957939978,0.5098080702069293,0.405777626420092,-0.5044899138389412
-9860.624745845795,6916.0,-592.0,15016.0,61.0,-118.0,-71.0,0.5648666862660551,0.5049877307404738,0.40031081973680577,-0.5154262955554748
-9860.640323162079,7164.0,-540.0,15032.0,108.0,-112.0,-109.0,0.5591082827744499,0.5013124472595041,0.3946080768093584,-0.5294980869394263
-9860.655971288681,6956.0,-280.0,15104.0,95.0,-121.0,-104.0,0.5543091143698771,0.4966226433013749,0.3887374409605401,-0.5431303323165521
-9860.671552658081,6952.0,-536.0,14896.0,109.0,-146.0,-122.0,0.5487210675151958,0.49065507541099007,0.38165023847532664,-0.5590222558272129
-9860.68714594841,7028.0,-544.0,15100.0,139.0,-148.0,-141.0,0.5407582524541167,0.48518685433419373,0.37365500129075735,-0.5766768321984712
-9860.702728271484,6972.0,-596.0,14868.0,79.0,-135.0,-164.0,0.5335201939026626,0.4765799310221429,0.3701030444753933,-0.592664752212446
-9860.718312740326,7004.0,-572.0,15044.0,124.0,-161.0,-127.0,0.5269402523529334,0.4697183709438318,0.361316044704969,-0.6092202707452015
-9860.733930110931,6948.0,-636.0,15052.0,122.0,-111.0,-78.0,0.5212862323988254,0.4668016648796981,0.3527966061842513,-0.6212015971018218
-9860.749526977539,6972.0,-612.0,14872.0,150.0,-81.0,-24.0,0.5163695095947177,0.468333894604455,0.3418365326615832,-0.630217167065005
-9860.765186786652,6972.0,-604.0,14928.0,135.0,-101.0,-21.0,0.5127126869972746,0.46807234928154706,0.3305997661103641,-0.6393260287817639
-9860.780770540237,6948.0,-636.0,15116.0,130.0,-69.0,-22.0,0.5081815045361386,0.4692494727127205,0.32104883838178955,-0.6469034968060721
-9860.79633975029,7016.0,-592.0,15088.0,136.0,-102.0,-45.0,0.5029281871001002,0.46808796587433227,0.31057143500248424,-0.6568883303761258
-9860.811959505081,6960.0,-528.0,15072.0,130.0,-35.0,-93.0,0.49324165492080474,0.46909786499656986,0.30526962950143366,-0.665935669723963
-9860.827516078949,7040.0,-720.0,14992.0,151.0,-14.0,-195.0,0.4760425914356094,0.46935667059808406,0.3037261985666494,-0.6788506192150107
-9860.843096256256,7076.0,-424.0,14972.0,107.0,-54.0,-106.0,0.4668188748122657,0.4676236294927253,0.2993771743824842,-0.6883179401394536
-9860.858649730682,6980.0,-548.0,14984.0,148.0,-64.0,-59.0,0.45890674907631546,0.468088169997466,0.29017543612115765,-0.6972060506281675
-9860.874228715897,6912.0,-544.0,15044.0,148.0,-98.0,-44.0,0.45265823386451143,0.4667488340858455,0.2789281720216298,-0.7067143157222989
-9860.889812469482,6916.0,-604.0,14988.0,171.0,-155.0,-17.0,0.4483753201097847,0.4633010651715857,0.2628178684370709,-0.7178011307859
-9860.90539932251,7012.0,-684.0,14936.0,147.0,-163.0,-21.0,0.4448210730425153,0.45813479360887704,0.24795588775079647,-0.72853593019972
-9860.921093702316,7040.0,-556.0,15024.0,180.0,-143.0,249.0,0.4564028923067892,0.4610726310100448,0.2208259468903693,-0.7282474373504134
-9860.936747550964,7072.0,-536.0,15028.0,200.0,-84.0,36.0,0.4522314752923567,0.46415916458212925,0.2032046296130457,-0.7339964858179795
-9860.952348709106,7160.0,-552.0,14996.0,239.0,-73.0,17.0,0.44487981599973636,0.4689528524546162,0.18420529996631532,-0.7404279701328411
-9860.968049049377,7036.0,-756.0,14852.0,223.0,-43.0,47.0,0.43944367979015486,0.4753349432885026,0.16609830478511894,-0.743879894290008
-9860.983633041382,6988.0,-512.0,15328.0,194.0,-82.0,27.0,0.43431650152192147,0.4776026106559868,0.14914511971363698,-0.7490131214244177
-9860.99927186966,6936.0,-532.0,14888.0,221.0,-156.0,50.0,0.43033336540594974,0.4761332670345266,0.12659907568629675,-0.7563616731939773
-9861.014889717102,6824.0,-500.0,14956.0,228.0,-190.0,81.0,0.42820524853116376,0.47271063263023333,0.1009476025217361,-0.7635407680496191
-9861.030494451523,7148.0,-528.0,14972.0,237.0,-249.0,138.0,0.42964852953663013,0.4657729457214501,0.07005907946600697,-0.7704215920425324
-9861.04607129097,6920.0,-664.0,15028.0,252.0,-262.0,163.0,0.43176216752941243,0.4581427226684952,0.036589133017166306,-0.7761107599442583
-9861.061676502228,7092.0,-588.0,15024.0,307.0,-277.0,124.0,0.42852524567322975,0.45083507582913696,0.0003493810416565333,-0.7830157892122752
-9861.077336072922,7180.0,-492.0,14972.0,269.0,-270.0,191.0,0.43076550995388074,0.4419484515985507,-0.03566371886192039,-0.78603482157011
-9861.092921257019,7184.0,-324.0,14988.0,355.0,-213.0,169.0,0.4277432258384941,0.4396220231759488,-0.07452223646080865,-0.7862662689959705
-9861.108530044556,7220.0,-324.0,15316.0,396.0,-129.0,139.0,0.4210082898408436,0.44412358271190744,-0.11178727045558061,-0.7829494679278596
-9861.124136447906,7328.0,-228.0,15488.0,511.0,18.0,184.0,0.41355795278789104,0.4616230288532443,-0.1530192957569295,-0.7697136441848348
-9861.13975405693,7340.0,-208.0,15568.0,667.0,122.0,238.0,0.40358630227032727,0.48957454906636566,-0.20262135032954662,-0.7459084702005065
-9861.155334949493,7348.0,-388.0,15628.0,880.0,124.0,431.0,0.3948507038780057,0.5189391790567625,-0.27294709128569866,-0.7073153012947009
-9861.170942306519,7284.0,-652.0,15236.0,1076.0,129.0,606.0,0.3844300875342017,0.5462157982415842,-0.36026048653563836,-0.6512097906134857
-9861.186614513397,7240.0,-828.0,14744.0,1127.0,21.0,725.0,0.37012760632763797,0.5585097411036316,-0.4550658304127611,-0.5865044877213399
-9861.202201843262,7004.0,-460.0,14148.0,966.0,-2.0,712.0,0.3575337268108435,0.5581916648011591,-0.536344972267168,-0.522422980220999
-9861.217817783356,7132.0,176.0,13920.0,654.0,-454.0,643.0,0.3324969413715737,0.5256259927626992,-0.6092237201925124,-0.4919446701261952
-9861.23338007927,7324.0,716.0,13764.0,372.0,-661.0,765.0,0.31183841823212277,0.46523388168548513,-0.6764759481473845,-0.47822016668522094
-9861.248946666718,7632.0,1016.0,13840.0,87.0,-760.0,304.0,0.2754941251532958,0.4167876248303666,-0.7112790232732221,-0.49444232610666805
-9861.264563083649,7756.0,944.0,14292.0,-139.0,-801.0,104.0,0.23478931989176127,0.3714075379414945,-0.7264359288464602,-0.5284139071844932
-9861.280131340027,7860.0,644.0,14336.0,-310.0,-815.0,-127.0,0.18682672727956975,0.33446762242315264,-0.7225503588420883,-0.5754547440605369
-9861.29574894905,8084.0,148.0,14416.0,-483.0,-897.0,-2.0,0.14375565810612112,0.2804887168834719,-0.7100111872808694,-0.6297177974295705
-9861.311316490173,8076.0,-44.0,14480.0,-548.0,-922.0,-224.0,0.08738359081859409,0.2356705260098169,-0.6828006945769195,-0.6860078153426395
-9861.326897144318,8436.0,-656.0,14368.0,-554.0,-1042.0,-257.0,0.021227268529634725,0.1832741219957064,-0.6486233119713423,-0.7384089642229437
-9861.342485427856,8052.0,-884.0,14124.0,-494.0,-1031.0,-211.0,-0.04257414332940415,0.12711711913639331,-0.6120848909686677,-0.7793463713844477
-9861.358072757721,7740.0,-780.0,13924.0,-260.0,-1614.0,-15.0,-0.12562670440316182,0.018809172643001595,-0.582222422049736,-0.8030449535535514
-9861.37366938591,7780.0,-1044.0,13808.0,-145.0,-2027.0,234.0,-0.20866254153999073,-0.13157564677426542,-0.5415086784009184,-0.8036890842549103
-9861.389331579208,7784.0,-836.0,14212.0,-107.0,-2221.0,462.0,-0.27703747818176055,-0.30145210108046605,-0.47875714182509993,-0.7766392119821947
-9861.404923915863,7880.0,-728.0,14396.0,-107.0,-2260.0,713.0,-0.3191668593544814,-0.4718538406483662,-0.3896497598925464,-0.7236432363885285
-9861.42051935196,8012.0,-612.0,14692.0,-99.0,-2193.0,961.0,-0.329978391563033,-0.6266856908025974,-0.2765867275789195,-0.6495221999069237
-9861.436097621918,8076.0,-552.0,14536.0,-56.0,-1944.0,1041.0,-0.31517235268905014,-0.7466315495285054,-0.15748121945698176,-0.5642759811186844
-9861.451727628708,7620.0,-352.0,14332.0,-25.0,-1680.0,813.0,-0.2959717455269199,-0.8288665842995071,-0.05624971484039736,-0.47139885538871446
-9861.467306613922,7188.0,-496.0,13880.0,109.0,-1517.0,279.0,-0.2815323955982521,-0.8873733503081096,-0.0013162144287948787,-0.3651113733797506
-9861.4828748703,6904.0,-56.0,13816.0,355.0,-1554.0,236.0,-0.24432415141328942,-0.9363985506047632,0.04342914028605583,-0.24814788581708455
-9861.498447179794,6956.0,-236.0,13800.0,696.0,-1545.0,-88.0,-0.1815366343917964,-0.974395641976817,0.05353732209909215,-0.12137272515991429
-9861.514021873474,7396.0,-340.0,14176.0,1016.0,-1543.0,-284.0,-0.08975487773778956,-0.9950113261013096,0.04251319599693444,0.009441981704811739
-9861.52959036827,7920.0,-580.0,15272.0,1312.0,-1247.0,-393.0,0.02877049784202179,-0.9928317472501443,0.0189863091329788,0.11444168895841611
-9861.545158863068,8396.0,-740.0,16160.0,1421.0,-751.0,-235.0,0.15398721627691145,-0.9724250719629397,0.010819285501056488,0.17481521587781113
-9861.560768842697,8316.0,-604.0,16916.0,1209.0,-377.0,29.0,0.2550026014372261,-0.9446298440020746,0.026495243639219384,0.20480755148519778
-9861.576355934143,8116.0,-232.0,16820.0,728.0,77.0,174.0,0.31111604829042705,-0.9273878779067993,0.055443201814157066,0.20021133779151226
-9861.591981649399,7928.0,16.0,15584.0,124.0,63.0,231.0,0.31677287320302855,-0.9237335533933879,0.07798707553713978,0.20072191008230109
-9861.607570886612,7504.0,100.0,14352.0,-265.0,-398.0,179.0,0.29473260413626917,-0.921941654567934,0.07668186150047357,0.2393244027432548
-9861.623157262802,7436.0,-300.0,13788.0,-369.0,-874.0,253.0,0.26467647296132807,-0.9081409053026057,0.06658957873167498,0.31747801306744505
-9861.63877773285,7964.0,-1120.0,13072.0,-45.0,-1097.0,-118.0,0.26955292296986405,-0.8753902326749649,0.030484788896041393,0.40012977882386774
-9861.654368638992,9000.0,-1584.0,13292.0,400.0,-1189.0,-226.0,0.30931915468666316,-0.8199609924662169,-0.0008061856898576695,0.4816481926078183
-9861.670015096664,9952.0,-2480.0,14024.0,699.0,-912.0,106.0,0.3531065705220163,-0.7588633675455049,0.011459023124615473,0.547093072557774
-9861.685592412949,10300.0,-2576.0,14628.0,858.0,-438.0,640.0,0.3779661183963453,-0.7072005404368997,0.08088349930173254,0.5920024227069206
-9861.701167106628,10788.0,-2672.0,15796.0,625.0,-126.0,1322.0,0.34636250326017803,-0.6652251837767411,0.18904870574718388,0.6338525523020784
-9861.716736793518,10984.0,-2088.0,15472.0,104.0,12.0,1828.0,0.24796907709632787,-0.6245806902146062,0.29749834822513027,0.6781629826364461
-9861.732299566269,9840.0,-2288.0,14632.0,-247.0,53.0,2184.0,0.10200692041045835,-0.5659487808711785,0.3958339616389238,0.715969301319572
-9861.747928857803,9024.0,-1892.0,13756.0,-437.0,-171.0,2434.0,-0.06431052269851083,-0.4642252310348982,0.47618692961492576,0.7440464364572612
-9861.763548612595,8524.0,-1648.0,12820.0,-434.0,-524.0,2616.0,-0.2239139907112014,-0.3103902686356733,0.5420145648311984,0.7481581499996545
-9861.77913236618,8468.0,-1384.0,12592.0,-344.0,-929.0,2774.0,-0.35884127855443004,-0.10811207523148153,0.5934802342292348,0.7122681570685137
-9861.794721364975,8348.0,-1312.0,12556.0,-149.0,-1047.0,2845.0,-0.4668770656328801,0.10550545378930742,0.6222629700885359,0.6194216664464827
-9861.810298204422,8480.0,-1364.0,12388.0,104.0,-996.0,2910.0,-0.5516292595167227,0.30251101677938963,0.6195568982855949,0.4694054692468601
-9861.825915813446,8648.0,-1660.0,12224.0,463.0,-886.0,3065.0,-0.6176537839901233,0.4642273313628542,0.5776823584233926,0.2632107154064814
-9861.841518878937,8924.0,-2044.0,12272.0,833.0,-648.0,3140.0,-0.6638042628067748,0.5691541332032819,0.4845798641982264,0.02469470693901233
-9861.857145547867,9112.0,-2424.0,12444.0,1331.0,-354.0,3094.0,-0.6921371922801268,0.5979814870747212,0.33967673567298895,-0.21905242162786054
-9861.87275505066,8936.0,-2312.0,12352.0,1823.0,-297.0,2690.0,-0.6993562606418949,0.5403008599633334,0.1753849212901316,-0.43383859995155144
-9861.88833451271,8672.0,-1996.0,11976.0,2148.0,-714.0,1937.0,-0.693423546039972,0.3983730765429931,0.04484339730336948,-0.5987083993074707
-9861.903980016708,8284.0,-1648.0,11752.0,2478.0,-1353.0,1364.0,-0.6781520726450523,0.17632964773637574,-0.04829827164490023,-0.7118180235513152
-9861.919616937637,8592.0,-1376.0,11620.0,2700.0,-1920.0,1210.0,-0.6237637960476393,-0.10329353930435416,-0.11546217229276527,-0.7661055137823082
-9861.935273647308,9200.0,-1116.0,12148.0,2727.0,-2211.0,1396.0,-0.501532586611666,-0.39293963236981966,-0.15626640864450947,-0.7547478515431694
-9861.950853347778,9576.0,-896.0,13048.0,2431.0,-2126.0,1375.0,-0.3409105584751117,-0.6292318274659069,-0.1682332275265192,-0.6778973960564483
-9861.96650147438,9648.0,-708.0,13740.0,1957.0,-1874.0,1161.0,-0.18617702835037328,-0.7896033606549521,-0.15921544888189007,-0.562596736387946
-9861.982188940048,9912.0,-344.0,13628.0,1586.0,-1305.0,737.0,-0.057765265733038494,-0.8739365463876008,-0.16214009369964322,-0.4545422719373583
-9861.997896194458,9684.0,-80.0,13428.0,1527.0,-1139.0,183.0,0.04919298468483953,-0.9166762715461773,-0.20023204955940885,-0.34233286399531476
-9862.013529777527,9148.0,-20.0,13548.0,1131.0,-1190.0,-143.0,0.11347383221470064,-0.9352292748681766,-0.2480236253529205,-0.22573031276026834
-9862.029153823853,9500.0,-400.0,13588.0,1080.0,-1269.0,-131.0,0.1698229805854175,-0.936766510456625,-0.2895034392762054,-0.09907784212048397
-9862.044768810272,10632.0,-1176.0,13776.0,1072.0,-1302.0,123.0,0.22327248314604115,-0.9252077319415482,-0.3047206616048535,0.035852048985758916
-9862.060368776321,11436.0,-2060.0,14016.0,1144.0,-1557.0,558.0,0.26845994757717245,-0.8991201169658161,-0.28211595483506813,0.19980705653639158
-9862.07606458664,12112.0,-2984.0,14292.0,1335.0,-1806.0,1205.0,0.3004715551488889,-0.8453223912711441,-0.201662849879785,0.3930381588858849
-9862.091665744781,12772.0,-3752.0,14840.0,1598.0,-1507.0,1857.0,0.31834346630632854,-0.760744206017673,-0.04787248352549155,0.5635902020011645
-9862.107294797897,12804.0,-4404.0,15080.0,2076.0,-872.0,2415.0,0.32076783967409,-0.6439701945212623,0.1829185864506551,0.670038187217683
-9862.122897148132,13108.0,-4272.0,15016.0,2513.0,-70.0,2867.0,0.28039817993767735,-0.49686052220458604,0.46402700784948214,0.6776322145149837
-9862.138478755951,13008.0,-3352.0,14484.0,2862.0,580.0,3005.0,0.19093433282484695,-0.3186851338242864,0.7304819775994729,0.5730444541486205
-9862.154037714005,12728.0,-2340.0,14680.0,2998.0,1405.0,3042.0,0.03030379204372998,-0.13495561449649984,0.9201409770831472,0.3663457992063152
-9862.16967177391,11572.0,-1456.0,17032.0,2660.0,2370.0,2773.0,-0.20230652643828326,0.0177198139912932,0.9714133854051173,0.12293946562580776
-9862.185341835022,10344.0,124.0,18960.0,1754.0,4335.0,1431.0,-0.5408195597118017,0.05662749747991202,0.8382387612021036,-0.04078369258243397
-9862.200932741165,10740.0,3020.0,19708.0,327.0,4599.0,545.0,-0.8128684720644249,0.09028517842845457,0.5719772522164509,-0.06273321788899455
-9862.21650671959,10168.0,4596.0,16992.0,-1012.0,3078.0,-956.0,-0.9245185879677674,0.1257498437204837,0.35153235896078333,0.07666392834851844
-9862.232084989548,10840.0,2860.0,13348.0,-708.0,2651.0,-891.0,-0.9621120662581701,0.13334692064587894,0.13834125961944194,0.19344422090515453
-9862.247689962387,11260.0,524.0,11388.0,83.0,2601.0,-438.0,-0.9619211138458045,0.07515180300814832,-0.07135472096787647,0.2529199103231454
-9862.263291358948,10368.0,-1304.0,11700.0,145.0,2258.0,-30.0,-0.9302514279598993,0.01313672076429908,-0.25233184137422765,0.2660607997710681
-9862.278888702393,9692.0,-2908.0,12756.0,-289.0,2123.0,84.0,-0.8701106147486865,-0.014202563181590806,-0.4239087455926245,0.25101231187099865
-9862.294454813004,8428.0,-2800.0,14860.0,-800.0,1852.0,-79.0,-0.7888003373209341,0.00883245031656163,-0.5731834086903073,0.22175841735083326
-9862.31004166603,7344.0,-1252.0,16700.0,-1390.0,2025.0,-640.0,-0.6581718294148439,0.09508454018196755,-0.7214156715305562,0.19320507771075301
-9862.32561159134,6240.0,676.0,16980.0,-1855.0,1664.0,-1393.0,-0.49931000866579317,0.25356978995765417,-0.8118470049072417,0.16521597226096937
-9862.341208696365,5776.0,1820.0,15980.0,-2127.0,1213.0,-1961.0,-0.3260351547903491,0.45115027524093676,-0.8217060519743253,0.12232608527876483
-9862.356803178787,6236.0,2740.0,14760.0,-2198.0,551.0,-1771.0,-0.17560567544201405,0.6157536733348922,-0.7672918475925092,0.03568306524410141
-9862.372401237488,6720.0,3024.0,14112.0,-2274.0,198.0,-1744.0,-0.033627072500636464,0.7437850251407104,-0.6631333431340245,-0.07685847770650969
-9862.388031482697,6824.0,1660.0,15056.0,-2502.0,195.0,-1897.0,0.12286078191565529,0.8314666423414723,-0.5050512455521832,-0.19619299250141592
-9862.403633594513,6408.0,228.0,16604.0,-2492.0,720.0,-2020.0,0.2892438599046826,0.8709563391599845,-0.29608037063594,-0.2647819081972238
-9862.419259786606,6036.0,-888.0,17872.0,-2259.0,1356.0,-1818.0,0.4373178063227524,0.8593006184483257,-0.06877267687328467,-0.2561755302972223
-9862.43484044075,5416.0,-1732.0,18356.0,-1710.0,1998.0,-1227.0,0.533360335396455,0.8201177248488476,0.1335542796547816,-0.15842008837399246
-9862.450457572937,4472.0,-2016.0,17436.0,-794.0,2308.0,-337.0,0.5462198353274919,0.7929579659743662,0.2699285503098536,0.00036526733261795435
-9862.46604681015,3148.0,-2240.0,16104.0,185.0,2236.0,523.0,0.4713488630617408,0.7980149376230748,0.3336470300401982,0.17228484543394842
-9862.48162984848,2804.0,-2164.0,14668.0,906.0,2291.0,1870.0,0.3026085895460698,0.8257041117100277,0.30048695353216875,0.3692537774959772
-9862.497215509415,2616.0,-1680.0,14024.0,1255.0,1624.0,2885.0,0.07317247697370316,0.8428092426447811,0.16802431608651158,0.5060496006615592
-9862.512784719467,2576.0,-972.0,13988.0,1405.0,1112.0,3603.0,-0.19404287481442867,0.8071039951284286,-0.026327016035705437,0.5569895798021152
-9862.528354406357,3424.0,188.0,14424.0,1483.0,772.0,3821.0,-0.4534376648707955,0.6912006632650565,-0.22222332803111455,0.516964911437171
-9862.543985128403,3848.0,792.0,14804.0,1790.0,500.0,3443.0,-0.66920052219221,0.5024107604796206,-0.3491169795492997,0.4217480568329112
-9862.559569120407,4724.0,1600.0,15516.0,1781.0,198.0,3067.0,-0.8159230678837162,0.28418059373114324,-0.41023961961863925,0.29191504232737664
-9862.575177669525,5500.0,1400.0,15408.0,2120.0,296.0,1986.0,-0.8804408144015327,0.05277828570762668,-0.4131811896752361,0.22653858256881237
-9862.590799570084,5984.0,1072.0,15452.0,2363.0,389.0,1150.0,-0.8768572588095719,-0.173395887835317,-0.39105773867049737,0.21938336030948793
-9862.606413125992,6440.0,844.0,15116.0,2464.0,506.0,407.0,-0.8103907518654089,-0.3763179715515459,-0.3672740786342771,0.2583822067048931
-9862.622008562088,6460.0,1000.0,14980.0,2404.0,437.0,-244.0,-0.6962139465390806,-0.5361536969732873,-0.34403351362783424,0.3308569107140447
-9862.637602329254,6356.0,984.0,14852.0,2080.0,500.0,-717.0,-0.5526359547786304,-0.6430512337879409,-0.3412670658582226,0.4057282365946916
-9862.653174877167,6184.0,1096.0,14700.0,1471.0,440.0,-1251.0,-0.4067020536907754,-0.682158694893152,-0.3750042964130434,0.478147186729291
-9862.668778657913,6388.0,1480.0,14664.0,908.0,277.0,-1847.0,-0.2622592745617139,-0.6547802336737129,-0.44956098112385967,0.5480673706283873
-9862.684370040894,6548.0,1716.0,14744.0,458.0,223.0,-2560.0,-0.1022632708835567,-0.5610490267293466,-0.5645785133010964,0.5966718657293747
-9862.699976921082,6716.0,1760.0,15036.0,275.0,126.0,-3227.0,0.08226818165190358,-0.39545567772030366,-0.682597052224332,0.609022181485303
-9862.715523481369,6664.0,1668.0,15416.0,374.0,4.0,-3820.0,0.28307312463266543,-0.1567443384057909,-0.753341178951832,0.5725188962679694
-9862.731102228165,6820.0,1248.0,15504.0,473.0,372.0,-4159.0,0.49000096499990287,0.1031780168688249,-0.7297773801935185,0.46548719261872873
-9862.746677875519,6528.0,776.0,15152.0,615.0,556.0,-4065.0,0.644200226713252,0.34399011468936586,-0.6057735992285431,0.31577716094785585
-9862.76227068901,6384.0,444.0,14728.0,624.0,645.0,-3758.0,0.723234412598335,0.5305882532558125,-0.416309135167823,0.14864317648754086
-9862.777927160263,5804.0,128.0,14816.0,408.0,713.0,-3157.0,0.7418337678798895,0.6364072500245793,-0.21133247660061372,-0.002656554748136606
-9862.793516874313,5716.0,0.0,15112.0,192.0,643.0,-2400.0,0.7256185705711837,0.6773052774608771,-0.03558462120951805,-0.11605596020563315
-9862.8091442585,5808.0,-192.0,15116.0,17.0,532.0,-1786.0,0.6990942996842118,0.6802724396010124,0.10215671462612318,-0.1950911933561467
-9862.824732542038,5704.0,-348.0,15040.0,-59.0,299.0,-1515.0,0.6681847517886919,0.6621657573908416,0.20942867043637384,-0.26684317344715797
-9862.84032535553,5568.0,-640.0,14764.0,-244.0,-80.0,-1449.0,0.6447966263313554,0.6144485179785691,0.2917516989927789,-0.34867072656084774
-9862.855942487717,5832.0,-748.0,14876.0,229.0,-480.0,-1370.0,0.5982271757181367,0.573059667729654,0.32849556297353466,-0.4536711678744647
-9862.871532678604,6484.0,-464.0,15404.0,411.0,-709.0,-1277.0,0.5427648706772821,0.5251530590315245,0.3360740572491089,-0.5627386496346487
-9862.887113332748,7220.0,-36.0,15868.0,484.0,-656.0,-1252.0,0.4743722086874598,0.47501031444598263,0.3356947876995781,-0.6607913576207279
-9862.902664422989,7284.0,560.0,16076.0,433.0,-434.0,-1351.0,0.38802552904920407,0.42466036477037644,0.34579328146660593,-0.7413007283766372
-9862.918733358383,7064.0,1076.0,15752.0,311.0,-129.0,-1658.0,0.27021658218106837,0.37263856731612965,0.37855928956074547,-0.8030045835175712
-9862.934456586838,6784.0,1320.0,15540.0,327.0,177.0,-1863.0,0.12150699523673314,0.3266110510719692,0.4146478811040945,-0.8406119236140355
-9862.950065851212,6332.0,1340.0,15624.0,427.0,404.0,-1887.0,-0.0431202035347468,0.2881014518186704,0.43486620853993907,-0.8520736952735922
-9862.965660095215,6132.0,880.0,15680.0,609.0,733.0,-2040.0,-0.23355386118479782,0.2578223359728894,0.429777924677762,-0.8332293636561487
-9862.98137140274,5944.0,440.0,15808.0,797.0,773.0,-1557.0,-0.3884156808643857,0.2359695479767926,0.3856353026249244,-0.8029551946750622
-9862.996974468231,5732.0,-120.0,15476.0,833.0,1364.0,-1381.0,-0.5392618715003356,0.25240825565107355,0.3042013887936983,-0.7436048826366882
-9863.012580871582,5296.0,-324.0,14628.0,835.0,1610.0,-961.0,-0.6524763510065598,0.2872921519043401,0.19223799746455839,-0.674375550537054
-9863.028171777725,5272.0,-240.0,14032.0,745.0,1349.0,-555.0,-0.7192369442129961,0.3115331200728835,0.0845921466033454,-0.6152150046202092
-9863.043812990189,5296.0,60.0,14252.0,435.0,1047.0,-126.0,-0.7419851348300319,0.33759172260495746,-0.0010207737064722045,-0.5792139902841758
-9863.059421539307,5588.0,108.0,14820.0,141.0,1023.0,292.0,-0.7281981371512418,0.37826599966378827,-0.08256026384167384,-0.5655317050194528
-9863.075024843216,5644.0,216.0,15464.0,-64.0,512.0,496.0,-0.6966494731721884,0.40304650249086743,-0.12797247184416607,-0.579530909278259
-9863.090642213821,6040.0,24.0,15960.0,-291.0,278.0,457.0,-0.6593517439012712,0.42891304244890244,-0.14592545216624542,-0.5999955351847674
-9863.106215000153,6088.0,336.0,15768.0,-477.0,162.0,494.0,-0.6124866620187812,0.45752042321255365,-0.14838887399180384,-0.6273084514558539
-9863.12180018425,6124.0,572.0,15560.0,-507.0,-34.0,130.0,-0.5850297425034074,0.4804127949353107,-0.12379179444447405,-0.6415756685513071
-9863.137382030487,6232.0,760.0,15316.0,-541.0,-245.0,159.0,-0.5553648668847344,0.49172971836861684,-0.08745743658204164,-0.6649232628579931
-9863.15295124054,6372.0,792.0,14896.0,-263.0,-270.0,164.0,-0.5363486278576531,0.48707595291764805,-0.06604352453129017,-0.6860943217605454
-9863.168525218964,6488.0,696.0,15064.0,-499.0,-182.0,127.0,-0.5080745518135379,0.4980697378019448,-0.03294757121164716,-0.7019268078914124
-9863.184112071991,6796.0,468.0,15356.0,-564.0,11.0,-61.0,-0.48673977949950065,0.5231229339054904,0.0038140636208775633,-0.6995800425924008
-9863.199749469757,6880.0,432.0,15752.0,-789.0,211.0,-441.0,-0.4762300797120599,0.5673660405712051,0.06299603584550868,-0.6688289666661802
-9863.215327501297,6756.0,656.0,15744.0,-927.0,392.0,-831.0,-0.4779809939432304,0.6200673677493782,0.1410840966620815,-0.6059256609110095
-9863.23091840744,6608.0,900.0,15524.0,-976.0,372.0,-1243.0,-0.4906616301945959,0.6584617052456861,0.24205480398758497,-0.5168063653306298
-9863.24651837349,6220.0,996.0,15048.0,-933.0,440.0,-1170.0,-0.49463900827857626,0.6871175737160512,0.32950964691716284,-0.4178816626370196
-9863.262142419815,5648.0,608.0,15008.0,-1016.0,481.0,-1159.0,-0.4851098234565837,0.7081217099725837,0.41125067870817894,-0.3067653538349602
-9863.27781534195,5744.0,-52.0,14764.0,-525.0,437.0,-1118.0,-0.49514722822621743,0.6973109599381276,0.472821803267975,-0.21219375552659794
-9863.293412446976,5888.0,-456.0,15088.0,-243.0,406.0,-982.0,-0.5130778970403702,0.6717088409365881,0.517198988956981,-0.13440055951570093
-9863.308998346329,6380.0,-796.0,15596.0,-31.0,508.0,-689.0,-0.5408644207132061,0.6460851672302252,0.533699201670883,-0.07214428062931877
-9863.324572324753,6676.0,-820.0,15560.0,117.0,56.0,-534.0,-0.5528989050239042,0.6152638961783409,0.5597655837332082,-0.04914906052648853
-9863.340145587921,6936.0,-732.0,15568.0,109.0,-94.0,-266.0,-0.5552104073406317,0.5963297326511834,0.5778895612814917,-0.046646634377015356
-9863.35573887825,7212.0,-88.0,15428.0,59.0,-211.0,-103.0,-0.5480378227419455,0.5872201605992199,0.593075296278075,-0.05557626089229245
-9863.371347427368,7316.0,464.0,15124.0,-52.0,-343.0,-9.0,-0.5275192070530604,0.5872471673570582,0.6098913926899889,-0.06997670858140811
-9863.386917114258,7224.0,792.0,15100.0,-287.0,-332.0,-125.0,-0.4956023137151475,0.5912553644292057,0.6328150438986179,-0.06588293321847448
-9863.402507781982,7020.0,888.0,14620.0,-541.0,-471.0,-300.0,-0.44246621813625614,0.593964889199241,0.6702253204003207,-0.047195085560044286
-9863.418095111847,6696.0,728.0,14188.0,-727.0,-668.0,-424.0,-0.36592167312888113,0.5918515552413197,0.7178394412792497,-0.022794785300282866
-9863.433698415756,6472.0,644.0,14052.0,-742.0,-949.0,-538.0,-0.26750284886971787,0.57611963746436,0.7723103900789221,-0.008065392158027042
-9863.449353694916,6400.0,384.0,14216.0,-691.0,-1138.0,-588.0,-0.1552634982334372,0.547399358462466,0.8223277923569771,-0.004918372545502202
-9863.464924573898,6380.0,-4.0,14340.0,-604.0,-1303.0,-575.0,-0.03286748509815065,0.5091244647365282,0.8599187287992717,-0.015867819330689713
-9863.480524778366,6464.0,-396.0,14704.0,-605.0,-1452.0,-530.0,0.10119154664098004,0.46421661196313674,0.879299278824851,-0.03310568416404973
-9863.496113538742,6540.0,-512.0,14936.0,-591.0,-1581.0,-513.0,0.24214525448334923,0.41021623854332917,0.8774898282667194,-0.05567687720229667
-9863.511742591858,6844.0,-716.0,15188.0,-676.0,-1727.0,-423.0,0.39123584132472466,0.35033350547646536,0.8478053024148977,-0.07366899348226756
-9863.527325868607,7180.0,-368.0,15288.0,-651.0,-1803.0,-262.0,0.5353464701393196,0.292960773158039,0.7872589400985317,-0.0883261203435966
-9863.542899608612,7316.0,-176.0,15456.0,-616.0,-1757.0,-111.0,0.6623202150358718,0.23982803195058341,0.7034308003380492,-0.09486599486284801
-9863.558475017548,7384.0,-256.0,15660.0,-442.0,-1480.0,-57.0,0.7552062212659107,0.19671383330273212,0.6170473820930226,-0.10109282566412126
-9863.574047327042,7424.0,-92.0,15956.0,-499.0,-1234.0,86.0,0.8255035264362931,0.15647530470071225,0.5348961953605058,-0.0891373493487395
-9863.589618206024,7404.0,-168.0,16028.0,-103.0,-916.0,38.0,0.867254261970697,0.14320247783130796,0.46750886107603673,-0.09380064100006116
-9863.605179309845,7060.0,-364.0,15960.0,-153.0,-588.0,110.0,0.892856923741979,0.13106043608230453,0.4220836506744243,-0.08645847357707039
-9863.62076663971,6676.0,-312.0,15372.0,-213.0,-369.0,54.0,0.9087490362517898,0.11353754141031189,0.393841329507682,-0.07857113320785471
-9863.636363267899,6844.0,-104.0,15412.0,-263.0,-296.0,89.0,0.921653152244079,0.09360264142940532,0.3708391190518223,-0.0653632944155893
-9863.652002334595,6796.0,484.0,15164.0,-268.0,-337.0,-12.0,0.9341091041514057,0.06965051944136524,0.3448848996666293,-0.06036052240450778
-9863.667587041855,6744.0,244.0,15036.0,-325.0,-361.0,-219.0,0.9448591642839312,0.03459069891853166,0.31791100616804024,-0.07054952426645461
-9863.683224916458,6964.0,148.0,15012.0,-412.0,-408.0,-330.0,0.9538525474322493,-0.011058412616967151,0.28705549922662216,-0.08741950372288888
-9863.69881439209,7120.0,-12.0,14932.0,-475.0,-476.0,-384.0,0.9602675352582261,-0.06371840354424625,0.24984148840152734,-0.1067963316419321
-9863.714417219162,7132.0,-212.0,14852.0,-259.0,-464.0,-461.0,0.9628944847227153,-0.09960215128583463,0.21012633665269664,-0.13696914030075472
-9863.72999882698,7184.0,-476.0,14868.0,-547.0,-522.0,-552.0,0.9579713324384587,-0.16137024304506375,0.16715003475574094,-0.16826002724003122
-9863.74557352066,7128.0,-640.0,15128.0,-478.0,-491.0,-496.0,0.9485806224461943,-0.21512958147981517,0.12550133070693398,-0.19535475904799116
-9863.761155605316,7160.0,-536.0,14984.0,-404.0,-375.0,-541.0,0.9338025167367716,-0.26019720072678554,0.09070531633629528,-0.22821661214370192
-9863.77676987648,7224.0,-324.0,14916.0,-423.0,-377.0,-553.0,0.9140304270019104,-0.305687033301188,0.05546269023252336,-0.26082121496993804
-9863.792343378067,7240.0,-356.0,15076.0,-396.0,-466.0,-535.0,0.8913496568328673,-0.349425862976729,0.01277553212472828,-0.28850327784243324
-9863.807957410812,7176.0,-356.0,15056.0,-341.0,-351.0,-398.0,0.8700551749452469,-0.38445760455191513,-0.018233955560133273,-0.30799978200938744
-9863.82353758812,7420.0,-404.0,15008.0,-325.0,-178.0,-231.0,0.8520968569027677,-0.4130517906777852,-0.030892265314359593,-0.31994504624708053
-9863.839123010635,7488.0,-376.0,15172.0,-390.0,-4.0,-279.0,0.8295726943943883,-0.44082807474029906,-0.030457542346602636,-0.3413972632435725
-9863.854714632034,7456.0,-436.0,15124.0,-421.0,103.0,-11.0,0.8128075568358705,-0.4676836841353425,-0.010983324786323702,-0.34712420503435715
-9863.870285511017,7444.0,-400.0,15036.0,-380.0,209.0,-286.0,0.7880890771460626,-0.4873511466259579,0.0035677192717624923,-0.37602092726951963
-9863.885876893997,7200.0,-364.0,15112.0,-312.0,215.0,-359.0,0.7622438233862631,-0.5011700827072983,0.013207608696812567,-0.4094367606617206
-9863.901497602463,7112.0,-412.0,14948.0,-506.0,136.0,-383.0,0.7251688498811885,-0.5293968423396063,0.023445634550358054,-0.43968104883356013
-9863.917383670807,6976.0,-332.0,14920.0,-246.0,48.0,-364.0,0.6992765988764954,-0.5433020357607838,0.01899778959471442,-0.46419200789374193
-9863.933054685593,6976.0,-252.0,14792.0,-298.0,11.0,-355.0,0.6702552905767963,-0.5610137162927639,0.014809656645606378,-0.48559461452453934
-9863.94871878624,7020.0,-156.0,14780.0,-376.0,-83.0,-360.0,0.6360784320377709,-0.5862187022462195,0.008174114814314045,-0.5016822154313741
-9863.964306354523,7064.0,-184.0,14676.0,-442.0,-159.0,-339.0,0.5980255464982352,-0.6170269825205664,0.0012841066279549907,-0.5115090416084742
-9863.979921579361,7244.0,-208.0,15080.0,-262.0,-274.0,-407.0,0.5651653922073302,-0.6420852383572238,-0.02327239295903944,-0.517467894521817
-9863.995532274246,7420.0,-356.0,14960.0,-480.0,-339.0,-466.0,0.5154810595737864,-0.6785442147955434,-0.04438347392692819,-0.5214279749211425
-9864.011120080948,7496.0,-464.0,14932.0,-375.0,-315.0,-511.0,0.4679564023220751,-0.706304282235213,-0.07165094816026614,-0.5263242423161941
-9864.02669262886,7604.0,-632.0,14836.0,-195.0,-271.0,-549.0,0.4283988728700075,-0.7220341929330312,-0.10746038139709556,-0.5325347842059186
-9864.042263507843,7532.0,-584.0,14884.0,-15.0,-224.0,-484.0,0.402471865396486,-0.7275668897232972,-0.145494775192831,-0.5361847526125935
-9864.05783700943,7516.0,-608.0,14948.0,90.0,-218.0,-319.0,0.3903100973314558,-0.730011223282539,-0.17751686652422788,-0.5321930137666784
-9864.073523044586,7388.0,-568.0,15028.0,125.0,-143.0,-325.0,0.380812371418472,-0.7268626007931477,-0.20878387762852996,-0.5320357034873281
-9864.089138507843,7396.0,-408.0,14944.0,62.0,-123.0,-271.0,0.3698451372189061,-0.7252177631782041,-0.23284966547540456,-0.532028950090428
-9864.104728221893,7428.0,-240.0,14960.0,21.0,-25.0,-246.0,0.35921325476295884,-0.7204316388684296,-0.2501273708582027,-0.5379408793422501
-9864.120306015015,7524.0,-180.0,14920.0,-62.0,-8.0,-200.0,0.3457456078005745,-0.71816537932428,-0.2599780741092166,-0.5450778509617566
-9864.135926008224,7448.0,-184.0,14940.0,-58.0,6.0,-246.0,0.33051512576362574,-0.7137759244335278,-0.272366862700303,-0.5541660161389471
-9864.151513814926,7220.0,-288.0,14844.0,-29.0,79.0,-228.0,0.31953968599118504,-0.7051146094857146,-0.282796589253748,-0.5663337052241462
-9864.167083978653,7632.0,-264.0,14852.0,251.0,76.0,-186.0,0.32759464241488806,-0.6893946072392731,-0.30437939070156017,-0.5698859642828705
-9864.182695865631,7404.0,-612.0,14644.0,131.0,45.0,-102.0,0.3316209041399824,-0.68052561596068,-0.31567018086804327,-0.5720706240224668
-9864.198286771774,7236.0,-556.0,14756.0,239.0,-38.0,77.0,0.34859071661858443,-0.677363558007562,-0.3240074281103189,-0.5609655150720179
-9864.213933944702,7272.0,-532.0,14796.0,287.0,-140.0,7.0,0.36186538326234613,-0.6753260700525743,-0.34173093513449376,-0.5442500449938846
-9864.229536771774,7192.0,-540.0,14776.0,357.0,-191.0,419.0,0.39667167440038437,-0.6846454041835838,-0.33954148338622064,-0.5085507195143643
-9864.245163679123,7248.0,-388.0,14832.0,352.0,-141.0,459.0,0.43338811492127843,-0.6912956156382369,-0.3321318971531179,-0.47325840355750937
-9864.26075720787,7316.0,-188.0,14852.0,283.0,-119.0,444.0,0.46491174700516286,-0.6975106867352385,-0.32114418737472233,-0.44068392335343115
-9864.276360750198,7176.0,-116.0,15012.0,194.0,-115.0,320.0,0.4855986964754672,-0.7025279648755133,-0.3135810040295089,-0.4151088031601375
-9864.291971683502,7200.0,8.0,15116.0,132.0,-160.0,285.0,0.49947888410557423,-0.7101019586299387,-0.3075015850616107,-0.3895110112271182
-9864.307547569275,7440.0,-56.0,15020.0,61.0,-181.0,75.0,0.5009473284886822,-0.7154019115314628,-0.3127504109148106,-0.3734153980887754
-9864.323114871979,7364.0,-172.0,15024.0,95.0,-81.0,-46.0,0.5032120051844182,-0.7124926731973977,-0.3222217094441434,-0.3678383319356443
-9864.338690519333,7316.0,-332.0,14872.0,106.0,-74.0,-78.0,0.5052531858228937,-0.7078662603551061,-0.33367778067692044,-0.3637357754596302
-9864.354268312454,7216.0,-444.0,14952.0,117.0,-106.0,-110.0,0.5059112933951171,-0.7026788093834342,-0.348792853091366,-0.3586639091003497
-9864.369839906693,7244.0,-424.0,14892.0,159.0,-136.0,-68.0,0.5093814608171878,-0.6976275383894647,-0.3638562922958686,-0.34850386455978827
-9864.385507822037,7260.0,-440.0,14880.0,224.0,-80.0,27.0,0.5212712433982767,-0.6907202635315709,-0.37247583578128834,-0.33532605045227626
-9864.401133537292,7304.0,-340.0,14984.0,241.0,-78.0,11.0,0.5335408186990398,-0.6821395325686246,-0.38229556031522327,-0.32228862445374384
-9864.416725158691,7300.0,-436.0,15032.0,201.0,0.0,27.0,0.5462689457717359,-0.6734844261317077,-0.38625300427564113,-0.3143526416805211
-9864.432312726974,7288.0,-312.0,14876.0,195.0,76.0,4.0,0.5603976071037639,-0.6620327797790377,-0.3876501850842826,-0.3120808460231695
-9864.447906017303,7284.0,-336.0,14908.0,131.0,128.0,-91.0,0.5698168025477562,-0.6488594382989835,-0.39012235638592774,-0.31952275022675647
-9864.463495492935,7336.0,-296.0,14876.0,97.0,45.0,-126.0,0.5733576202744853,-0.6383241298097889,-0.39765105458799116,-0.32507996456381805
-9864.479130983353,7340.0,-316.0,14944.0,130.0,74.0,-136.0,0.5793091072104888,-0.6248003465079499,-0.4051141634141521,-0.33152375466591194
-9864.49477648735,7268.0,-760.0,14992.0,196.0,109.0,-120.0,0.5903263557066248,-0.6072407201202074,-0.4116737781592411,-0.3365979827065568
-9864.510369062424,7296.0,-456.0,14928.0,171.0,85.0,-110.0,0.5991931386101143,-0.5917654180344064,-0.41802533435603645,-0.34064070880863373
-9864.525974273682,7272.0,-400.0,14896.0,113.0,38.0,-193.0,0.6006523842053003,-0.5774639415142622,-0.4292337022573825,-0.34858361758080625
-9864.541545629501,7420.0,-328.0,14880.0,8.0,-25.0,-130.0,0.5962166005366519,-0.5727909293741041,-0.4372586317823735,-0.3538943421461767
-9864.557155370712,7220.0,-228.0,14848.0,-62.0,-69.0,-182.0,0.5848610621723035,-0.5710090832698183,-0.4479086706277931,-0.3623037227996558
-9864.572732686996,7216.0,-276.0,14824.0,-65.0,-52.0,-232.0,0.5722114487323359,-0.5666706120120688,-0.45990830318097276,-0.37408933169325637
-9864.588311195374,6996.0,-368.0,14936.0,-18.0,-70.0,-164.0,0.5631795970097856,-0.5631077686749935,-0.47081146196441603,-0.37957206121195847
-9864.60393834114,7356.0,-264.0,15024.0,76.0,27.0,-183.0,0.5619674052942609,-0.5507779834195776,-0.48086223263790095,-0.38679162554221946
-9864.61953663826,7352.0,-552.0,15028.0,80.0,91.0,-141.0,0.5648913172903,-0.5376997045210025,-0.4857463711248932,-0.39474965528427486
-9864.635117053986,7276.0,-460.0,15304.0,73.0,73.0,-89.0,0.5683990331734232,-0.5276816743441549,-0.48873365133932484,-0.39951721827400416
-9864.650696516037,7324.0,-360.0,14888.0,32.0,121.0,-122.0,0.5708069195332964,-0.516515815955963,-0.489334610540013,-0.40980789573641513
-9864.666264295578,7304.0,-504.0,14920.0,30.0,253.0,-170.0,0.576771533424147,-0.49843664250402975,-0.4852134975757985,-0.4283262464653885
-9864.6818420887,7260.0,-276.0,15008.0,46.0,-254.0,-142.0,0.562615433518195,-0.4993440348587443,-0.505651720368256,-0.4224165556731241
-9864.697401046753,7236.0,-292.0,15040.0,44.0,16.0,-207.0,0.5576049895820258,-0.4872838994375464,-0.5153404525792683,-0.43134127425689633
-9864.71299815178,7416.0,-280.0,15040.0,49.0,30.0,-200.0,0.5535112124100099,-0.4746075681228684,-0.5240596503338103,-0.44015278814168884
-9864.728565216064,7236.0,-404.0,14616.0,71.0,-38.0,-222.0,0.5461646494276753,-0.46230088814604936,-0.5376163218692392,-0.44603896129677856
-9864.744127988815,7284.0,-396.0,14684.0,89.0,-53.0,-194.0,0.5397125568180909,-0.4508562691341287,-0.5512424860736171,-0.44896625947025365
-9864.759762763977,7316.0,-420.0,14768.0,94.0,-109.0,-150.0,0.5322983315306431,-0.4433361598657076,-0.5657769642507904,-0.44722249756511706
-9864.775335073471,7260.0,-496.0,14680.0,91.0,-142.0,-180.0,0.5217575915059977,-0.4355934790284486,-0.5826631311440662,-0.44556819044804563
-9864.790914058685,7312.0,-484.0,14804.0,67.0,-179.0,-191.0,0.5077297587429769,-0.4296083971037214,-0.6004226781472315,-0.44400419456495666
-9864.806485176086,7356.0,-400.0,14936.0,91.0,-183.0,-157.0,0.4954387576984335,-0.4242753362581048,-0.617699070749321,-0.43929344908469814
-9864.822060585022,7408.0,-460.0,14904.0,55.0,-167.0,-161.0,0.482290968689305,-0.41947728581112714,-0.6327651153858775,-0.4370841302998301
-9864.83764719963,7340.0,-436.0,15068.0,68.0,-120.0,-200.0,0.4705129275130761,-0.4100063164284728,-0.6475002123473425,-0.437328115425908
-9864.853236913681,7264.0,-364.0,14984.0,82.0,-102.0,-200.0,0.4600433014726266,-0.39909768143303614,-0.6617458227036538,-0.4372341107223969
-9864.868859529495,7368.0,-456.0,14880.0,80.0,-131.0,-168.0,0.44885912161848857,-0.39106469813020545,-0.6756917219986793,-0.4347810801296093
-9864.884455680847,7280.0,-456.0,15060.0,87.0,-139.0,-158.0,0.43764302018746265,-0.38350152328012765,-0.689611911707972,-0.43108071141434096
-9864.900078058243,7208.0,-516.0,14896.0,79.0,-186.0,-77.0,0.4262128511080066,-0.38274846773720056,-0.702059948638855,-0.423034330181863
-9864.91572546959,7276.0,-512.0,15016.0,99.0,-232.0,-25.0,0.4143726016410697,-0.3859776052724526,-0.7149283576843354,-0.41011471397175314
-9864.931459188461,7264.0,-436.0,15044.0,72.0,-218.0,25.0,0.4040995110495888,-0.39263137149581195,-0.7243269556176961,-0.3973596011831111
-9864.947051525116,7332.0,-408.0,14864.0,125.0,-157.0,222.0,0.4061107551705261,-0.40753955889599536,-0.7262726544886821,-0.37618292599697545
-9864.962663888931,7344.0,-32.0,14852.0,130.0,-134.0,-46.0,0.400763828881441,-0.4043293405345954,-0.736757499987746,-0.3648212220457477
-9864.978259086609,7356.0,-236.0,14876.0,115.0,-131.0,-151.0,0.39160061327120615,-0.3946606640156963,-0.7501153044790018,-0.3580767375168056
-9864.993854999542,7348.0,-128.0,14712.0,187.0,-88.0,-205.0,0.3858386947160271,-0.377449855763024,-0.7657207612308503,-0.3497596658626489
-9865.009433984756,7420.0,-88.0,14828.0,163.0,-111.0,-348.0,0.37302789509972145,-0.3518525653332736,-0.785362165712591,-0.3467798010454104
-9865.025013685226,7416.0,-140.0,14756.0,133.0,-87.0,-430.0,0.3579351415645483,-0.320403234654626,-0.8047243016358503,-0.3487735655302914
-9865.040600061417,7392.0,-208.0,14848.0,95.0,-79.0,-419.0,0.34212621350760325,-0.29018443143758804,-0.8211486470829349,-0.3527854151974814
-9865.056193113327,7400.0,-248.0,14952.0,82.0,-42.0,-359.0,0.3300518443354612,-0.2631507790878232,-0.833528642149573,-0.3564371616884541
-9865.07184958458,7356.0,-216.0,14996.0,66.0,24.0,-432.0,0.3197254984151484,-0.22889860954962576,-0.8441420455478799,-0.36442453148446813
-9865.087475299835,7320.0,-264.0,15072.0,64.0,33.0,-489.0,0.3076789521884449,-0.18985251849204973,-0.8541774609225526,-0.3737252317603775
-9865.10309267044,7316.0,-360.0,15176.0,27.0,97.0,-466.0,0.2999807897706489,-0.15108945006227842,-0.8593768853910352,-0.3855578720556227
-9865.118724822998,7256.0,-292.0,15020.0,5.0,83.0,-519.0,0.2885853493777736,-0.10912395568460742,-0.8632535836930753,-0.3995043287141141
-9865.13432264328,7180.0,-488.0,14912.0,-26.0,12.0,-464.0,0.272918454823724,-0.07434665592224972,-0.8656981725394435,-0.4129827669911632
-9865.14999294281,7308.0,-328.0,15100.0,-27.0,-120.0,-344.0,0.25122678371870377,-0.053308883267283634,-0.869321894796293,-0.422282736250174
-9865.165583372116,7212.0,-416.0,14776.0,-32.0,-228.0,-229.0,0.2253224699151809,-0.04503766731097267,-0.8738073397320709,-0.4285581945370663
-9865.181161642075,7276.0,-460.0,14860.0,28.0,-3.0,-115.0,0.22096469548375108,-0.035844463205698306,-0.8752708199826588,-0.42870825685325037
-9865.196739435196,7328.0,-588.0,14592.0,77.0,-291.0,-10.0,0.1986043423571816,-0.04449055375046648,-0.8834456782845425,-0.42201971440231684
-9865.212316513062,7364.0,-496.0,14768.0,125.0,-492.0,37.0,0.16242213316463852,-0.06325874679213803,-0.8955116596677792,-0.409482904419215
-9865.227908611298,7456.0,-724.0,15048.0,152.0,-187.0,112.0,0.15267191858216125,-0.07653998080493736,-0.90269710952479,-0.39493144350685855
-9865.243486881256,7384.0,-400.0,14984.0,127.0,-168.0,154.0,0.1456178196800392,-0.09276571270327733,-0.9080138375682864,-0.3817077991380295
-9865.259104967117,7660.0,-316.0,14932.0,69.0,-130.0,157.0,0.14114312265489473,-0.10866005185736742,-0.9104984934124473,-0.3731810626910795
-9865.274693250656,7524.0,-252.0,14852.0,134.0,-63.0,153.0,0.14242960566411308,-0.12121409332182026,-0.9139969318274407,-0.3600424414156738
-9865.290298223495,7496.0,-284.0,14620.0,102.0,-75.0,99.0,0.1406861833763008,-0.1302013197175824,-0.9169649234552883,-0.34990047628353843
-9865.30588889122,7452.0,-288.0,14844.0,107.0,-95.0,115.0,0.13785534343903302,-0.14098720411815507,-0.919943616484867,-0.3388543271805687
-9865.321503639221,7408.0,-348.0,14872.0,116.0,-105.0,46.0,0.13225986644534765,-0.14638668257273857,-0.9239494109992633,-0.32771291217668186
