programtime,ax,ay,az,gx,gy,gz,q0,q1,q2,q3
-4071.39315533638,5068.0,-1644.0,15728.0,-35.0,-460.0,-174.0,0.9990626933577943,-0.003153192635834769,-0.0404185503122611,-0.015170132086654313
-4071.4087569713593,5136.0,-1704.0,15996.0,-103.0,-344.0,-206.0,0.9968754213510848,-0.011986762155312594,-0.07058360888795634,-0.03337163459409059
-4071.4243834018707,5228.0,-1588.0,15976.0,-261.0,-345.0,-266.0,0.9926946298933204,-0.034164128945980116,-0.10030792151157347,-0.05769319679437395
-4071.4400515556335,5124.0,-1708.0,15704.0,-190.0,-285.0,-327.0,0.9871022658570582,-0.049297808070682195,-0.12519242907652395,-0.08675078421090622
-4071.455661058426,4864.0,-1944.0,15484.0,-24.0,-175.0,-367.0,0.9816505970165254,-0.048893022636893144,-0.14177831538616983,-0.11777303172113555
-4071.4712862968445,4736.0,-2288.0,15404.0,222.0,-194.0,-415.0,0.9749735359342183,-0.027033045707413557,-0.16226358808626887,-0.14955382525725727
-4071.486893415451,4840.0,-1864.0,15412.0,533.0,-82.0,-399.0,0.9682417754089987,0.022557668944519545,-0.17671716839165932,-0.1754139627288936
-4071.5024976730347,4904.0,-1624.0,15544.0,678.0,94.0,-260.0,0.9624674741032416,0.08482386723185777,-0.1781745890852185,-0.18631985574670132
-4071.5181455612183,4972.0,-1292.0,16000.0,603.0,168.0,-112.0,0.9573854352417771,0.13943070671475252,-0.17270384129752273,-0.1847852526935463
-4071.5337719917297,5104.0,-1476.0,15888.0,390.0,93.0,-6.0,0.9534285868726324,0.17320001837460272,-0.17101207536627477,-0.1781307201131009
-4071.549387216568,5216.0,-1496.0,15880.0,129.0,-52.0,132.0,0.9526880330687881,0.18083318734235893,-0.1792943488056211,-0.16594699903732857
-4071.564980983734,5192.0,-1592.0,15696.0,-36.0,-239.0,149.0,0.9514475609929535,0.17170000678434122,-0.20090756797638568,-0.15780619595133633
-4071.580582857132,5280.0,-1764.0,15608.0,-64.0,-460.0,19.0,0.9438941712246854,0.15929693360742117,-0.23826432399192574,-0.1640682552598386
-4071.5961804389954,5332.0,-1972.0,15632.0,-9.0,-453.0,-2.0,0.9339176927366808,0.1517205363281452,-0.27512370148888887,-0.17054492349157574
-4071.6117992401123,5132.0,-1928.0,15728.0,42.0,-375.0,32.0,0.9244154306528224,0.14847031702761754,-0.3064464601447658,-0.1717650825907818
-4071.6274518966675,5344.0,-1916.0,15860.0,43.0,-376.0,136.0,0.9153695325812088,0.14235569616345342,-0.33884037680321083,-0.16437966309655155
-4071.643082380295,5196.0,-1928.0,15184.0,7.0,-499.0,179.0,0.9022267896268621,0.1301232072822025,-0.38047134275143224,-0.155872795417036
-4071.6586792469025,5276.0,-1896.0,14984.0,-76.0,-697.0,203.0,0.8810264647145098,0.1075268592430509,-0.43558254106317223,-0.14999397632880979
-4071.674246788025,5424.0,-1852.0,15200.0,-154.0,-713.0,221.0,0.8564789092336954,0.07764741107719039,-0.48921456648854533,-0.1452028426935713
-4071.6898448467255,5808.0,-1864.0,15488.0,-224.0,-723.0,192.0,0.8277576358323662,0.04334565592594734,-0.5403004159257767,-0.14496175697056793
-4071.7054331302643,6048.0,-2124.0,15828.0,-287.0,-585.0,161.0,0.8020389639090688,0.007535488985804456,-0.5783875194120942,-0.14881059829775786
-4071.721022129059,6160.0,-2184.0,16072.0,-322.0,-467.0,198.0,0.7802966980868313,-0.03107065793758646,-0.6060367588806215,-0.15129812971608597
-4071.7366576194763,6084.0,-2292.0,16064.0,-371.0,-280.0,184.0,0.766301462317805,-0.06973190825247205,-0.6189666598872647,-0.15747953444516424
-4071.7522554397583,5900.0,-2476.0,15760.0,-321.0,-164.0,223.0,0.7581547980885824,-0.10544937323278479,-0.6235901239019713,-0.15879889543695688
-4071.7679119110107,5700.0,-2464.0,15552.0,-277.0,-109.0,244.0,0.7527502720727667,-0.13849860084571733,-0.6242188276837131,-0.15663977982404548
-4071.7835099697113,5384.0,-2180.0,15492.0,-345.0,-145.0,172.0,0.7426715721006147,-0.17240098458745048,-0.6264025222977537,-0.1622859099425808
-4071.7991240024567,5428.0,-2004.0,15608.0,-426.0,-147.0,119.0,0.7294261149802019,-0.20841383741796013,-0.6274505426032587,-0.17551932014591864
-4071.8147304058075,5440.0,-1984.0,15476.0,-495.0,-87.0,82.0,0.7163247507897995,-0.24548429934289454,-0.623167259173925,-0.1956498844255164
-4071.8303542137146,5448.0,-2040.0,15428.0,-268.0,-76.0,-18.0,0.7060499261543624,-0.262446802368327,-0.6234164167235001,-0.20968344966565916
-4071.8459951877594,5476.0,-2112.0,15368.0,-466.0,21.0,-105.0,0.6941088654566111,-0.2847828067399056,-0.6153381804418943,-0.241806864191935
-4071.861592769623,5716.0,-2200.0,15504.0,-443.0,104.0,-189.0,0.684177217067645,-0.29895867530113784,-0.6037026845576285,-0.27940707715745794
-4071.8771884441376,5792.0,-2232.0,15564.0,-382.0,183.0,-128.0,0.6803373643105338,-0.31028800918065214,-0.5862341402720508,-0.31175624269802976
-4071.892798423767,5984.0,-2360.0,15544.0,-325.0,230.0,-12.0,0.6826786269231118,-0.32247283448874203,-0.5635852695439673,-0.33516086781159976
-4071.9084043502808,5788.0,-2468.0,15528.0,-329.0,246.0,40.0,0.6863569613549482,-0.3365776411743577,-0.5376921046392719,-0.3556920208125254
-4071.924115419388,5672.0,-2368.0,15472.0,-328.0,230.0,104.0,0.6904049759193147,-0.3536763671178664,-0.5102043562526363,-0.37141016602806076
-4071.9397690296173,5688.0,-2396.0,15520.0,-388.0,205.0,118.0,0.6909488024869409,-0.37530176143101707,-0.481113185783258,-0.3876447377098295
-4071.955369234085,5708.0,-2216.0,15608.0,-343.0,297.0,129.0,0.6960671512086443,-0.39094028406585074,-0.44685562049206434,-0.4037031951043324
-4071.9709649086,5604.0,-2296.0,15588.0,-383.0,428.0,250.0,0.7075484013961136,-0.40817228903074493,-0.3980944995158458,-0.41748222908817884
-4071.9875254631042,5620.0,-1980.0,15420.0,-344.0,541.0,-146.0,0.707705068494347,-0.40384385424631997,-0.35663419228290305,-0.4570292444796176
-4072.0032896995544,5184.0,-1928.0,15496.0,-229.0,528.0,-422.0,0.6979759024346458,-0.38291236085151625,-0.3289913280401904,-0.5079099030359733
-4072.01890873909,5128.0,-2044.0,15560.0,-182.0,454.0,-627.0,0.6755993609240346,-0.3548727032768054,-0.31332511656162626,-0.5652063687890397
-4072.0346291065216,5172.0,-2004.0,15256.0,-190.0,297.0,-736.0,0.6399955712908171,-0.3303196259542201,-0.3082970976574616,-0.6214881439042825
-4072.0502574443817,5220.0,-2136.0,15236.0,-164.0,162.0,-683.0,0.6014780343375917,-0.3115714577657929,-0.3092544434984776,-0.6674646732910535
-4072.065861225128,5272.0,-2360.0,15164.0,-125.0,118.0,-762.0,0.5556729495672107,-0.289910355342714,-0.3155717836724829,-0.7124563202990799
-4072.081511259079,5492.0,-2680.0,15588.0,-46.0,91.0,-628.0,0.5172598551267317,-0.2686892837180746,-0.32347728720300084,-0.7453930209984044
-4072.0971953868866,5544.0,-2832.0,15580.0,-24.0,108.0,-483.0,0.48795984365890516,-0.24881845600106944,-0.32783532255433345,-0.7697457815508423
-4072.1128072738647,5636.0,-3040.0,15616.0,-32.0,61.0,-310.0,0.4680969888753289,-0.23708501099977616,-0.32945851512417285,-0.7849413948679617
-4072.1284329891205,5540.0,-2716.0,15492.0,-21.0,74.0,-141.0,0.4601758178032277,-0.22876381313065122,-0.3276442747864569,-0.792814331171373
-4072.1440603733063,5472.0,-2640.0,15484.0,26.0,102.0,86.0,0.46961911679256507,-0.22307659822562925,-0.32336560019448063,-0.7906512537635767
-4072.1596426963806,5284.0,-2596.0,15272.0,102.0,14.0,163.0,0.4832702080628553,-0.2224719200231509,-0.3263679114849363,-0.7813066857214638
-4072.1752800941467,5260.0,-2588.0,15344.0,115.0,40.0,148.0,0.4967562644186323,-0.21905095959724277,-0.3293613715784559,-0.7725095324799115
-4072.190865278244,5304.0,-2628.0,15500.0,164.0,75.0,103.0,0.5090006247385113,-0.20978449366704316,-0.33490163660336597,-0.7646892990182709
-4072.206480026245,5416.0,-2772.0,15756.0,153.0,91.0,-14.0,0.5135583911933548,-0.19646444414893063,-0.34104300760433204,-0.7624625682512791
-4072.222081899643,5568.0,-2404.0,15628.0,98.0,154.0,-137.0,0.5106969973956923,-0.1777020988501476,-0.3426991179915401,-0.7682238316031967
-4072.237720966339,5380.0,-2264.0,15560.0,146.0,202.0,-107.0,0.5117768354827141,-0.15440906348565514,-0.3448011407737717,-0.77159217537368
-4072.2533729076385,5192.0,-2280.0,15600.0,251.0,168.0,-155.0,0.5096448514977016,-0.12718174582127503,-0.35588613282688647,-0.7729372479918805
-4072.268969774246,5100.0,-2324.0,15476.0,262.0,90.0,-99.0,0.5085946585220299,-0.10638546632639181,-0.37029119992626236,-0.7699987228135804
-4072.2845718860626,5088.0,-2492.0,15456.0,223.0,-9.0,-44.0,0.5074105857658824,-0.09570528364757734,-0.38577300193849534,-0.7645614344904029
-4072.3001630306244,5024.0,-2484.0,15640.0,172.0,-108.0,-24.0,0.5036222278362374,-0.0945285360057245,-0.40193956355479066,-0.7588633571067085
-4072.3157920837402,5152.0,-2328.0,15616.0,160.0,-122.0,21.0,0.5020690755724331,-0.09635321253478356,-0.41743664121833535,-0.7512585123354172
-4072.331416130066,5176.0,-2176.0,15412.0,180.0,-103.0,-26.0,0.49813760113973515,-0.09430793963922018,-0.43368064650314914,-0.7449067322157626
-4072.3469803333282,5300.0,-2076.0,15420.0,166.0,-85.0,-92.0,0.49032023689477955,-0.08917077959469782,-0.44863991777757417,-0.7418604056926428
-4072.362648010254,5300.0,-1952.0,15560.0,144.0,-44.0,-185.0,0.47773068761174375,-0.07864489797214794,-0.46098026752385307,-0.7436972254154226
-4072.378237962723,5172.0,-2076.0,15744.0,156.0,19.0,-226.0,0.46485546784370774,-0.061845813731029896,-0.47152832111150284,-0.7468236282613999
-4072.393830060959,5384.0,-2216.0,15680.0,179.0,79.0,-250.0,0.45269753499769977,-0.03918919322854581,-0.4809609683984396,-0.7498037715418197
-4072.4093928337097,5348.0,-2272.0,15648.0,161.0,161.0,-292.0,0.44075997439939646,-0.010094563938891363,-0.48569226848738845,-0.7548057797062113
-4072.424994468689,5284.0,-2372.0,15636.0,160.0,137.0,-286.0,0.42775255038665216,0.01712628919226863,-0.49079657936702836,-0.7588498952611391
-4072.440603017807,5260.0,-2248.0,15468.0,147.0,73.0,-177.0,0.41893344869972743,0.03493987921919823,-0.49725680007855755,-0.7589529927316541
-4072.456238746643,5276.0,-2216.0,15488.0,137.0,252.0,-86.0,0.42370039998438114,0.06026738231005849,-0.4965146229972625,-0.755194705246571
-4072.47190284729,5324.0,-2252.0,15552.0,180.0,-26.0,247.0,0.43784068023655204,0.05438977770396852,-0.5102925478597234,-0.7381997063194609
-4072.4875020980835,5348.0,-2108.0,15576.0,204.0,6.0,-41.0,0.43451775039557655,0.0642978200475688,-0.5227651399505094,-0.7306002486865317
-4072.5030946731567,5288.0,-2292.0,15688.0,171.0,-15.0,25.0,0.43450898599919513,0.06858978274204004,-0.5341619206710646,-0.7219199576783775
-4072.51868391037,5336.0,-2180.0,15612.0,238.0,64.0,39.0,0.4385136030554684,0.07972554624505196,-0.5466844681837688,-0.7088622923092108
-4072.534292936325,5304.0,-2196.0,15372.0,217.0,77.0,8.0,0.4411762929392791,0.09230975975626673,-0.5569619806478479,-0.6975928174192463
-4072.5498826503754,5356.0,-2268.0,15456.0,289.0,47.0,46.0,0.44387868926795343,0.10394432548266286,-0.5727902825536066,-0.681233130892705
-4072.5655064582825,5264.0,-2172.0,15460.0,279.0,40.0,87.0,0.4484653575906722,0.11266369248789641,-0.5882932070395981,-0.6633979333606096
-4072.581141471863,5288.0,-2524.0,15468.0,0.0,1.0,78.0,0.45311540973663494,0.10863333954158495,-0.5888802607732169,-0.6603826629090987
-4072.596727848053,5264.0,-2228.0,15676.0,244.0,8.0,116.0,0.45786632740676086,0.11267309988282113,-0.6034340824316415,-0.6430633770863673
-4072.6123127937317,5136.0,-2084.0,15668.0,218.0,9.0,144.0,0.4642525944618833,0.11420271495012119,-0.6164440454354192,-0.6256388792911182
-4072.627912044525,5456.0,-2132.0,15868.0,188.0,110.0,136.0,0.47570095739206286,0.12040773221369436,-0.6233334660287563,-0.6088234286622085
-4072.643518447876,5328.0,-2176.0,15672.0,268.0,132.0,129.0,0.4868228733585002,0.1314079480511703,-0.6330800346317685,-0.5873202796725084
-4072.659101009369,5228.0,-2136.0,15684.0,333.0,172.0,82.0,0.4965321115680886,0.1496921737876304,-0.643312284825496,-0.5632028226856372
-4072.6747024059296,5076.0,-2124.0,15748.0,364.0,168.0,77.0,0.5047738269809695,0.16922947179090095,-0.6544120018398077,-0.5369447842379834
-4072.690281867981,5144.0,-2080.0,15640.0,333.0,90.0,100.0,0.5095325937530611,0.18225156965182798,-0.6671057010933239,-0.5119871920580702
-4072.705863714218,5372.0,-1968.0,15648.0,311.0,112.0,98.0,0.5153546617028232,0.19522848902108994,-0.6771831765832669,-0.4875636933656019
-4072.721449136734,5112.0,-2028.0,15804.0,267.0,102.0,117.0,0.5217241928127191,0.20452778341616112,-0.6856143194330815,-0.46465606359231015
-4072.7370824813843,5172.0,-2032.0,15556.0,315.0,62.0,114.0,0.5243048236191055,0.21440906426062709,-0.6972101909266286,-0.43935310942415684
-4072.752724647522,5096.0,-2076.0,15716.0,325.0,9.0,138.0,0.5239150457764168,0.22106621263047632,-0.7114279339238042,-0.4129322574893117
-4072.768302679062,5184.0,-2108.0,15724.0,316.0,-22.0,128.0,0.5209348926057034,0.2266193452164163,-0.7258971434254932,-0.3877419853540187
-4072.783924818039,5224.0,-2008.0,15708.0,265.0,-27.0,113.0,0.5177427106330476,0.23046948983498583,-0.7380234891757439,-0.36626169505751816
-4072.799503803253,5172.0,-1976.0,15636.0,201.0,-11.0,30.0,0.5139689360596582,0.23718198196232762,-0.7453651802742878,-0.352152507065907
-4072.815084218979,5188.0,-2112.0,15576.0,191.0,11.0,88.0,0.5134483548606217,0.2402743660123832,-0.7523731799477922,-0.3355199159863923
-4072.8306617736816,5148.0,-2108.0,15572.0,177.0,79.0,108.0,0.5180895147944048,0.24333537652589957,-0.75607657018101,-0.317363150372593
-4072.8462376594543,5056.0,-2208.0,15472.0,122.0,60.0,195.0,0.5248462065401155,0.23754738627820599,-0.7606588615524927,-0.2991751913085525
-4072.861824989319,5024.0,-2256.0,15708.0,99.0,-6.0,242.0,0.5286766255696623,0.22575373212355093,-0.7682748116112403,-0.28158496382491033
-4072.8774189949036,5112.0,-2180.0,15620.0,91.0,-7.0,263.0,0.5328215390860545,0.21203723202395794,-0.7757255968802036,-0.2634221290370993
-4072.89301609993,5064.0,-2072.0,15692.0,109.0,-80.0,281.0,0.5317525222374507,0.19612607828915196,-0.7867994684241527,-0.24437760330377611
-4072.9086351394653,5140.0,-2048.0,15656.0,113.0,-72.0,254.0,0.5302261440868654,0.18229499037916086,-0.7965877330165642,-0.22600167304019508
-4072.9243302345276,5120.0,-2080.0,15640.0,126.0,-46.0,226.0,0.52944298326854,0.17142375786854558,-0.8045252115037147,-0.20746856812741052
-4072.940052986145,5280.0,-2268.0,15836.0,147.0,21.0,225.0,0.5327465718955311,0.16271740727621564,-0.8092981621531959,-0.18638835864486078
-4072.9556679725647,5176.0,-2280.0,15648.0,161.0,47.0,206.0,0.5370885979959473,0.15634206235044357,-0.8123778603167816,-0.1647276828887162
-4072.971298456192,5348.0,-2188.0,15716.0,230.0,57.0,165.0,0.5402951322096126,0.15616352230696853,-0.8149434509463153,-0.13986170373261228
-4072.986891269684,5044.0,-1980.0,15644.0,161.0,66.0,96.0,0.5439873747445043,0.1576808908725843,-0.8149199348466839,-0.12296329762041577
-4073.002464532852,5024.0,-2024.0,15612.0,152.0,81.0,15.0,0.5478576643312354,0.16465382801179543,-0.8127564407243195,-0.11030895075070388
-4073.0180490016937,4896.0,-2024.0,15572.0,145.0,134.0,50.0,0.5557754963630428,0.16927550254528737,-0.8082720381460218,-0.0956854964544243
-4073.0336406230927,5264.0,-2136.0,15680.0,113.0,137.0,-19.0,0.5636476287487004,0.17719041482322936,-0.8021263507553068,-0.08659229137003813
-4073.049237728119,5268.0,-2252.0,16100.0,56.0,188.0,-15.0,0.575849479029964,0.18235819997631886,-0.7928844572845019,-0.08048044358088967
-4073.0648601055145,5224.0,-2184.0,15776.0,58.0,122.0,-57.0,0.5830263145470852,0.19002667222386663,-0.7861193626445436,-0.07737265708571026
-4073.0805113315582,4880.0,-2240.0,15504.0,28.0,57.0,-214.0,0.5850214902042411,0.20644780547254338,-0.7796416897329579,-0.0853697560329074
-4073.096110343933,4964.0,-1924.0,15444.0,21.0,-25.0,-282.0,0.5807676691331349,0.22642040037023417,-0.775687139550794,-0.09875311803358557
-4073.1117508411407,4988.0,-2032.0,15372.0,46.0,-138.0,-296.0,0.5678332972126655,0.24746472017600768,-0.7768434906220016,-0.11331703280189885
-4073.1273832321167,5080.0,-2216.0,15512.0,52.0,-141.0,-261.0,0.554479350803484,0.26621508914359293,-0.7783803176783679,-0.12572293703115228
-4073.142975330353,5192.0,-2328.0,15756.0,120.0,-138.0,-9.0,0.5422483722294453,0.27104555909172734,-0.7860114542633281,-0.12118993967329895
-4073.1586174964905,5200.0,-2432.0,15792.0,74.0,-71.0,-81.0,0.5348346800695274,0.2792978234021483,-0.7881340552928479,-0.12161127301939943
-4073.1742084026337,5200.0,-2244.0,15740.0,48.0,-234.0,-41.0,0.5171149183714022,0.28177469216963985,-0.7983394807881671,-0.1258938341036701
-4073.1898181438446,5152.0,-2092.0,15856.0,69.0,32.0,-36.0,0.51733540731363,0.28770650308779616,-0.7966967065842759,-0.12191555330801945
-4073.205380678177,5060.0,-2100.0,15576.0,87.0,255.0,-48.0,0.5323180618269193,0.29756601778717545,-0.7846269082261654,-0.11159104354097167
-4073.220967769623,5004.0,-2128.0,15460.0,69.0,-77.0,-39.0,0.5249462956398934,0.3026412057997388,-0.7877772547481161,-0.11066473759764463
-4073.2365956306458,5056.0,-2284.0,15552.0,50.0,-174.0,-97.0,0.5107387906525572,0.30983473859564126,-0.7934962531180018,-0.11624120943033169
-4073.2521872520447,5108.0,-2272.0,15728.0,128.0,-169.0,-66.0,0.49490454951904145,0.31830253150909066,-0.800350046506243,-0.1148598639983251
-4073.267838716507,5212.0,-2296.0,15836.0,141.0,-117.0,-20.0,0.48264388007229103,0.3245416404185001,-0.8061167858848095,-0.10910241142145749
-4073.283442258835,5112.0,-2168.0,15772.0,132.0,-10.0,66.0,0.47888136516786717,0.32530327468819825,-0.8095572515499493,-0.09730094570448289
-4073.2990753650665,5060.0,-2080.0,15624.0,135.0,11.0,12.0,0.47598516803532936,0.3301368015535144,-0.8104879113433301,-0.08693191379879459
-4073.3146731853485,5064.0,-2300.0,15448.0,148.0,-125.0,46.0,0.4632465555208636,0.33200119116984145,-0.8179692855579339,-0.0781286486745099
-4073.3302896022797,5088.0,-2120.0,15608.0,174.0,-141.0,-14.0,0.4480444168073411,0.338980947142586,-0.8242581566288438,-0.07033213542119562
-4073.3459310531616,5192.0,-2148.0,15632.0,118.0,-160.0,-58.0,0.4327016050814802,0.34670232795550526,-0.8293554799659009,-0.06882081517007899
-4073.3615295886993,5368.0,-2096.0,15644.0,120.0,-137.0,-61.0,0.4188125954518383,0.35475144505527756,-0.833256881005892,-0.06656119273585685
-4073.377329349518,5184.0,-2040.0,15688.0,106.0,-63.0,-155.0,0.4100694880649211,0.3694546321893878,-0.8312227016368006,-0.06644629406969213
-4073.3929438591003,5180.0,-2060.0,15672.0,112.0,-35.0,-168.0,0.40296110432596716,0.3853643740112626,-0.8275472206437152,-0.06543886649512673
-4073.408535718918,5212.0,-2176.0,15496.0,127.0,-33.0,-95.0,0.3958036094101817,0.39644120209451855,-0.8261294462959727,-0.0606960791355985
-4073.4241325855255,5232.0,-2320.0,15532.0,88.0,-32.0,-30.0,0.3903564664021063,0.4014359196310599,-0.8266084205868014,-0.05647610630186982
-4073.439801454544,5240.0,-2296.0,15704.0,102.0,-72.0,-34.0,0.38147323750807555,0.4069599491738471,-0.8282971747657538,-0.05277839622987388
-4073.455432653427,5240.0,-2148.0,15868.0,70.0,-60.0,-51.0,0.3744746306812125,0.4126615857983677,-0.8287483998214541,-0.051529179849141196
-4073.4710235595703,5152.0,-2248.0,15856.0,48.0,-23.0,-70.0,0.3708313776840716,0.41915644078633885,-0.8271487385684287,-0.051155955243932474
-4073.486661672592,5160.0,-2144.0,15484.0,28.0,-37.0,-138.0,0.366564968685622,0.4298047719037347,-0.8233347816167655,-0.05493468086155181
-4073.5022485256195,5144.0,-2208.0,15432.0,43.0,-21.0,-121.0,0.36291319469629907,0.43972573624326583,-0.8196004057793236,-0.05648419997673675
-4073.517853975296,5264.0,-2088.0,15640.0,93.0,-96.0,-66.0,0.35219416842055645,0.446860768971286,-0.8204784604702235,-0.055586120474047776
-4073.5335257053375,5188.0,-2416.0,15684.0,83.0,-160.0,-18.0,0.33743906125823925,0.44984801341499875,-0.8249783597999178,-0.056412326893815784
-4073.549155473709,5356.0,-2340.0,15704.0,94.0,-158.0,32.0,0.32255444325289123,0.44945471111900015,-0.8312263111589188,-0.05488090221461436
-4073.564764738083,5360.0,-2292.0,15856.0,81.0,-123.0,111.0,0.3110110682867369,0.44301583269044714,-0.8393095429199925,-0.05068114592395746
-4073.5803611278534,5248.0,-2204.0,15516.0,119.0,-63.0,75.0,0.3021644197176057,0.44041554804104865,-0.8443565203226202,-0.04234235573397222
-4073.596004962921,5184.0,-2160.0,15464.0,152.0,-72.0,75.0,0.29131875498679594,0.43855763564466427,-0.849577840630486,-0.03190730199101387
-4073.6116049289703,5292.0,-2072.0,15544.0,168.0,-85.0,109.0,0.2789009814694434,0.4344157331107738,-0.8562131052441211,-0.01990808301745509
-4073.6272563934326,5248.0,-2224.0,15864.0,130.0,-111.0,126.0,0.2659098328938856,0.42788277130658314,-0.8637594293420041,-0.01131118968630579
-4073.6428878307343,5192.0,-2120.0,15416.0,146.0,-59.0,56.0,0.25609634403500714,0.42693263680108534,-0.8672610804399042,-0.0011851414201142108
-4073.658432006836,5100.0,-2076.0,15664.0,97.0,-51.0,85.0,0.2486693217152277,0.4226178131252383,-0.8715041983523987,0.0061793786963278965
-4073.6740293502808,5216.0,-2020.0,15652.0,101.0,-55.0,62.0,0.24076798345001063,0.4200844231861548,-0.8748631683194499,0.013201979390412994
-4073.689624786377,5276.0,-2180.0,15608.0,108.0,-76.0,60.0,0.23097258436950466,0.4178152714652061,-0.8784555610940309,0.019947214920872845
-4073.705206155777,5168.0,-2104.0,15816.0,125.0,-99.0,18.0,0.2188239813993498,0.41907667243901275,-0.880794383429912,0.02630706939783478
-4073.7207775115967,5264.0,-2140.0,15656.0,124.0,-101.0,-33.0,0.20663041034083826,0.424162280383503,-0.8811330891948191,0.031539063845305734
-4073.736401081085,5224.0,-2148.0,15708.0,125.0,-176.0,-34.0,0.18857528302511917,0.42943031677295995,-0.8825360789159857,0.034044604269522744
-4073.752073287964,5256.0,-2068.0,15736.0,146.0,-106.0,231.0,0.17424126465228848,0.41420922280050426,-0.8922071713965183,0.045133853679882714
-4073.767715215683,5204.0,-2172.0,15692.0,98.0,-112.0,-37.0,0.16215261238140896,0.41897881988475116,-0.8920998300220849,0.04817854356903265
-4073.7833178043365,5216.0,-2136.0,15488.0,62.0,-71.0,-58.0,0.15463764306805275,0.42464600808419223,-0.8906745791360378,0.04961613896062292
-4073.7989161014557,5232.0,-2120.0,15612.0,52.0,-96.0,-25.0,0.14539106863314427,0.42768150049269316,-0.8907698386730635,0.0497902179990748
-4073.8145186901093,5340.0,-2172.0,15520.0,98.0,-44.0,-2.0,0.13835621687622232,0.42924781018621866,-0.890782551005952,0.05577025663706578
-4073.8301498889923,5244.0,-2192.0,15668.0,110.0,-76.0,-34.0,0.12852180343552067,0.43355386922521516,-0.8898207534921702,0.06109185850956693
-4073.845821619034,5132.0,-2112.0,15772.0,133.0,-25.0,20.0,0.12146989578744827,0.4335903959268204,-0.8900798416216119,0.07072699990990608
-4073.86141705513,5120.0,-2136.0,15708.0,112.0,27.0,-59.0,0.11972301502826296,0.4391632265180121,-0.8868063666108313,0.07985316703379645
-4073.8770110607147,5064.0,-2128.0,15696.0,104.0,45.0,-8.0,0.11930671131248183,0.44052976442228586,-0.885254595142552,0.08957531508647826
-4073.8926000595093,5144.0,-2220.0,15820.0,89.0,-15.0,-33.0,0.11501604878786029,0.44410418888617353,-0.883408218300296,0.0955651493719293
-4073.908163547516,5152.0,-2224.0,15792.0,125.0,-33.0,-20.0,0.10782139983503104,0.4471434780431047,-0.8818572319757847,0.10375489479121837
-4073.9238522052765,5252.0,-2192.0,15652.0,46.0,-40.0,-88.0,0.10377499023923238,0.45468931576229465,-0.8783369964144261,0.10494045102889521
-4073.939507961273,5208.0,-2092.0,15664.0,95.0,38.0,-62.0,0.10351527566366342,0.45992656552803907,-0.874606854640013,0.11320332081066081
-4073.955142259598,5196.0,-2064.0,15732.0,86.0,-1.0,-96.0,0.10096325096048851,0.4680094245215151,-0.869849352396122,0.1188936695143051
-4073.970784187317,5180.0,-2096.0,15600.0,84.0,14.0,-121.0,0.09987626499771243,0.47774841571715443,-0.8638310818951243,0.12480803228059766
-4073.9864032268524,5120.0,-2160.0,15732.0,57.0,-12.0,-78.0,0.09747375808956404,0.484236204162202,-0.8600230244808394,0.12796312916347688
-4074.002015352249,5224.0,-2272.0,15564.0,81.0,-22.0,-100.0,0.09354212231879179,0.49264233466573426,-0.8550149459709662,0.13229831296527053
-4074.017604827881,5228.0,-2164.0,15628.0,70.0,-98.0,-149.0,0.08495858694683331,0.5053920317784122,-0.8484727349195983,0.13211718592576405
-4074.033224582672,5196.0,-2100.0,15512.0,90.0,-32.0,-98.0,0.07977330998295253,0.5136464478471315,-0.843280773885003,0.1366787548388487
-4074.048863172531,5220.0,-2208.0,15712.0,41.0,-39.0,-88.0,0.07614028390064984,0.5208495491093886,-0.8390748494816803,0.13737467498549485
-4074.0645208358765,5160.0,-2176.0,15712.0,44.0,13.0,-95.0,0.07625653403370818,0.527918067634139,-0.8340984184463055,0.14059617074434996
-4074.0801074504852,5076.0,-2180.0,15688.0,20.0,13.0,-93.0,0.07744817870063919,0.5346401687768702,-0.8294437655775302,0.1420729013244983
-4074.095721244812,5056.0,-1796.0,15592.0,-36.0,-27.0,-119.0,0.07867363033757031,0.5433104795102413,-0.8244605082598745,0.13743745145966785
-4074.111307621002,5084.0,-2120.0,15524.0,30.0,-99.0,-225.0,0.07283647409907694,0.5607625469997379,-0.8139119315043586,0.13337009289201857
-4074.126895427704,5064.0,-2204.0,15524.0,38.0,-141.0,-239.0,0.06374837972880153,0.5794495487255806,-0.8024203814206554,0.12765538000571405
-4074.1424763202667,5076.0,-2244.0,15476.0,66.0,-230.0,-193.0,0.04645770993167972,0.5956809094651285,-0.7929113277038,0.11957241189211967
-4074.158093690872,5136.0,-2300.0,15536.0,32.0,-233.0,-108.0,0.029807320103536802,0.6055607869721071,-0.7877005255732173,0.10924989227292049
-4074.1736855506897,5300.0,-2476.0,15540.0,-23.0,-242.0,-82.0,0.015179575467809703,0.6132914695433235,-0.7840142587716048,0.09468260619997206
-4074.1893463134766,5312.0,-2356.0,15684.0,-54.0,-223.0,-122.0,0.0038321787870600325,0.6232511728397452,-0.7780211657433801,0.0789072595832473
-4074.2049202919006,5328.0,-2228.0,15512.0,-78.0,-255.0,-77.0,-0.008695144843536853,0.6300257500046387,-0.7742248445942401,0.05973138873546522
-4074.220546245575,4888.0,-2260.0,15428.0,-3.0,-225.0,-89.0,-0.02325679841335705,0.6370741387370152,-0.7690016262094647,0.047245761368077704
-4074.2361364364624,5480.0,-2088.0,15108.0,247.0,-329.0,49.0,-0.05923093141977065,0.6342260192513764,-0.7695353730676451,0.04543526015485375
-4074.251758813858,4728.0,-1872.0,15184.0,648.0,-289.0,-33.0,-0.11416765150723705,0.6330232285246783,-0.7621774563573946,0.07302646450490793
-4074.2673506736755,4232.0,-2564.0,14500.0,807.0,-126.0,-408.0,-0.16403319172932826,0.650864452486848,-0.7309062783277245,0.1234689791048758
-4074.2829473018646,4500.0,-2752.0,14760.0,961.0,-57.0,-603.0,-0.21473503899573887,0.672887263035298,-0.682112536490899,0.18929892190479028
-4074.298636198044,5252.0,-2780.0,15104.0,1004.0,-77.0,-538.0,-0.26809713242633165,0.6839766075975902,-0.6293366719783318,0.25344680141463166
-4074.3142404556274,5240.0,-3312.0,16136.0,905.0,68.0,-647.0,-0.30268394989659814,0.6935429270543964,-0.5695535766657848,0.32091955084573154
-4074.329840660095,6464.0,-2392.0,16664.0,815.0,237.0,-313.0,-0.33047422092043494,0.67879232595791,-0.5323356119034182,0.3829445962891963
-4074.345488548279,6908.0,-1492.0,17548.0,282.0,99.0,5.0,-0.3426641100483919,0.6668588021174157,-0.5258337184978785,0.4017207316208152
-4074.361100435257,6908.0,-1832.0,16788.0,69.0,-244.0,690.0,-0.38132599761958136,0.6403329368255336,-0.5550894940121945,0.36937767554781126
-4074.37672495842,5392.0,-2228.0,15916.0,-36.0,-128.0,741.0,-0.40857223329132664,0.6084119995423669,-0.592081949271862,0.3351753784850985
-4074.3923008441925,4656.0,-2640.0,15096.0,-109.0,-353.0,646.0,-0.4390551439390524,0.5879748691517152,-0.6156424500653163,0.287229015777056
-4074.40793132782,4352.0,-2620.0,14664.0,-120.0,-466.0,457.0,-0.4686691231912106,0.5787058612529454,-0.6231522065501327,0.23901905068502244
-4074.4235446453094,4736.0,-2200.0,14360.0,27.0,-510.0,193.0,-0.5012915372310305,0.5770687418005835,-0.6107293285824094,0.20665950049906046
-4074.439143896103,4912.0,-1956.0,14640.0,104.0,-571.0,-25.0,-0.5358941577559249,0.583379689909246,-0.5818056123250347,0.18435785459684395
-4074.4547843933105,5196.0,-1896.0,14928.0,128.0,-592.0,-349.0,-0.5658755873233539,0.6034948469979587,-0.5332283535415362,0.1767662645918111
-4074.470381259918,5472.0,-1976.0,15616.0,99.0,-514.0,-586.0,-0.5846706192328893,0.6322927947723262,-0.4742617634531714,0.18287117982645215
-4074.4859960079193,5860.0,-1908.0,16336.0,37.0,-419.0,-722.0,-0.5910367364877592,0.6651743024560439,-0.4112774793775382,0.197660209528558
-4074.501608848572,5936.0,-1804.0,16568.0,-15.0,-254.0,-815.0,-0.5836787146705561,0.6976052237405658,-0.350073303825357,0.2238633328600336
-4074.5172040462494,5844.0,-1984.0,16148.0,-32.0,-166.0,-663.0,-0.572901486091917,0.7213968588869406,-0.3012687408858208,0.24618611859079367
-4074.532800912857,5548.0,-2228.0,15640.0,219.0,-134.0,-542.0,-0.5778524836301684,0.7265176367988189,-0.2553228410739538,0.27031255503329865
-4074.548442363739,5264.0,-2444.0,15296.0,44.0,-225.0,-305.0,-0.578219073791301,0.7359244290784096,-0.22341369068655723,0.2723311590754133
-4074.564077615738,5128.0,-2468.0,15156.0,47.0,-447.0,-97.0,-0.587258210164546,0.7453946556568996,-0.19329692928149866,0.2493008203813403
-4074.5796773433685,4884.0,-2316.0,15208.0,65.0,-654.0,-246.0,-0.5961359029978881,0.7589458770609993,-0.14203754810323907,0.22011014464995265
-4074.5952908992767,5300.0,-2068.0,15404.0,44.0,-710.0,87.0,-0.6084229832526009,0.7676414060354873,-0.10975280471483188,0.16882673676610993
-4074.610886335373,5300.0,-1928.0,15668.0,54.0,-671.0,37.0,-0.6180359862079448,0.772892915981465,-0.07563059197163255,0.12226231527196556
-4074.62645983696,5612.0,-1844.0,15908.0,1.0,-440.0,-86.0,-0.6197083552345122,0.7774295232090566,-0.04600924201351812,0.09720103160366358
-4074.6420493125916,5388.0,-1856.0,16096.0,23.0,-141.0,-309.0,-0.6190339049407153,0.7781991700643822,-0.017178433951864566,0.1044412641244708
-4074.6576323509216,5312.0,-1908.0,15888.0,64.0,79.0,-335.0,-0.6200129682285489,0.7740786470741595,0.0019192737099356664,0.12799407705315854
-4074.6732058525085,5072.0,-1964.0,15732.0,134.0,192.0,-430.0,-0.6238189238903108,0.7638244075452142,0.02208424251739617,0.1641173691812354
-4074.6887826919556,5032.0,-2000.0,15412.0,203.0,157.0,-414.0,-0.6312478624117802,0.7489528217593998,0.04402860068619218,0.19661457041838634
-4074.704372406006,5060.0,-1972.0,15596.0,229.0,14.0,-417.0,-0.6386578253563618,0.7337586905757799,0.07440402452105793,0.21949580235318727
-4074.7200033664703,5200.0,-2124.0,15596.0,249.0,-112.0,-324.0,-0.6473224916080478,0.7193211307104719,0.106112651827535,0.22867183450063447
-4074.7356021404266,5384.0,-2192.0,15856.0,256.0,-135.0,-215.0,-0.657624483565409,0.7050993506270914,0.1322940361978907,0.2299200564262595
-4074.7512571811676,5500.0,-2288.0,15800.0,274.0,-62.0,-65.0,-0.6723521015285067,0.6895305495568744,0.1453109257211647,0.22666055603931998
-4074.7668590545654,5456.0,-2280.0,15840.0,251.0,-9.0,146.0,-0.6901108456313293,0.6764920585560916,0.14197304683655326,0.21435757375119507
-4074.782453775406,5368.0,-2080.0,15664.0,222.0,53.0,177.0,-0.7070635390738412,0.6639851656486195,0.13244294974606316,0.20406792147104383
-4074.798052549362,5272.0,-2056.0,15460.0,230.0,15.0,167.0,-0.7234193603041011,0.6511226083212761,0.12590165714741164,0.19197018205346036
-4074.8136467933655,5188.0,-1880.0,15424.0,247.0,-32.0,159.0,-0.7396253741587439,0.6374625726954628,0.12299147968949997,0.1773946736427201
-4074.829294204712,5236.0,-1892.0,15504.0,195.0,-92.0,27.0,-0.749873390218453,0.6263356418370426,0.13043485580184513,0.16846456837808813
-4074.8449018001556,5308.0,-1904.0,15644.0,221.0,-102.0,-83.0,-0.7594848718652797,0.6121269963265566,0.14487129008136232,0.16581790942527658
-4074.860519886017,5152.0,-1948.0,15680.0,208.0,-55.0,-213.0,-0.766655178439314,0.596083790884773,0.16285540906332582,0.1743618861891513
-4074.876097202301,5300.0,-2104.0,15624.0,185.0,-16.0,-184.0,-0.7731547733152007,0.5810268016596407,0.1762674570407654,0.18321936535604275
-4074.8916985988617,5316.0,-2096.0,15844.0,148.0,22.0,-226.0,-0.7772703950512772,0.566893612690338,0.18855092607684595,0.1973091815990634
-4074.907282114029,5284.0,-2280.0,15632.0,162.0,38.0,-205.0,-0.7822765179913703,0.5515663014563156,0.19883935206203884,0.21043045542089858
-4074.922946214676,5252.0,-2296.0,15516.0,132.0,-247.0,-131.0,-0.7817587313533955,0.5444546011008744,0.22433537259154973,0.20517337521478768
-4074.93869304657,5168.0,-2060.0,15340.0,155.0,-78.0,-81.0,-0.7861415988181882,0.5334522783455452,0.2362216751793825,0.20398375795875517
-4074.954304456711,5436.0,-2244.0,15112.0,159.0,-188.0,-90.0,-0.7879655760151101,0.5237325751377043,0.2560450253423034,0.19812971950786232
-4074.9699387550354,5576.0,-2192.0,15384.0,226.0,-227.0,-93.0,-0.791386040803443,0.5096571446308849,0.27966048073137556,0.1890707403731215
-4074.9855477809906,5572.0,-2188.0,15424.0,235.0,-211.0,-252.0,-0.7921449267088565,0.4902888062223288,0.3090837111733903,0.1912865940670923
-4075.0011854171753,5592.0,-2228.0,15564.0,325.0,-227.0,64.0,-0.8006145474381704,0.47288708280633635,0.32720289248957907,0.1683223707406114
-4075.01678109169,5524.0,-2364.0,15616.0,328.0,-200.0,146.0,-0.8101752909439716,0.45662604009107494,0.33968078879621705,0.14044792336440898
-4075.0323688983917,5528.0,-2380.0,15852.0,340.0,-170.0,190.0,-0.8205621710849254,0.43984366509643263,0.3479791915563492,0.11011701005167453
-4075.048060655594,5560.0,-2300.0,15644.0,355.0,-49.0,213.0,-0.8343084601711512,0.42092323403373477,0.3464099210310109,0.08217780082670213
-4075.063661813736,5592.0,-1816.0,15676.0,369.0,254.0,499.0,-0.8577640157366786,0.4064580545553688,0.3116072667818221,0.04397333832123622
-4075.0792803764343,5672.0,-1832.0,15756.0,422.0,128.0,248.0,-0.8764190116706282,0.38056290269798304,0.29448234539930795,0.018486246792879947
-4075.0948600769043,5380.0,-1692.0,15740.0,376.0,225.0,128.0,-0.8942899371874304,0.3542507033307619,0.2733299839513587,0.006532021747704696
-4075.1104435920715,5672.0,-1576.0,15876.0,404.0,315.0,-103.0,-0.9133824632349341,0.3195331195857286,0.251823543196478,0.014695728449738134
-4075.126035451889,5632.0,-1588.0,15828.0,402.0,292.0,-235.0,-0.9297280906013204,0.2813906500927968,0.2352722238687788,0.032740804251197055
-4075.141611814499,5384.0,-1528.0,15660.0,444.0,362.0,-363.0,-0.9454506707505922,0.23621430748141087,0.21562427944991036,0.061903152020228655
-4075.157215356827,5604.0,-1476.0,15580.0,447.0,508.0,-503.0,-0.958976858792283,0.18634777380636797,0.185913995635896,0.10523249367468326
-4075.1728620529175,5652.0,-1404.0,15564.0,393.0,752.0,-623.0,-0.9678120085306406,0.1355760402931395,0.1360948046605381,0.16259537996735962
-4075.188490152359,5536.0,-1280.0,15508.0,207.0,423.0,-728.0,-0.9622100177892031,0.10284890929788067,0.11170969050228448,0.22604187348856752
-4075.204097032547,5504.0,-1200.0,15340.0,-14.0,329.0,-851.0,-0.9454868556210511,0.08879749961378852,0.09143940380863486,0.2996805721785752
-4075.2197155952454,5532.0,-1256.0,15344.0,-116.0,150.0,-1009.0,-0.9156942345308043,0.08605653863362372,0.08383471424833523,0.3834971729913322
-4075.235319852829,5376.0,-1352.0,15344.0,-100.0,40.0,-1155.0,-0.8720877410248106,0.0839310091279427,0.08583086122422201,0.4743960591346817
-4075.250907421112,5584.0,-1588.0,15428.0,-107.0,-15.0,-1110.0,-0.8213276655461181,0.08420671014753058,0.0904721239870916,0.5569065366432306
-4075.2665288448334,5680.0,-1564.0,15504.0,-100.0,24.0,-1074.0,-0.7651849289100625,0.08165153485659123,0.09152539005613007,0.6320191092044122
-4075.2821609973907,5716.0,-1792.0,15536.0,-82.0,134.0,-978.0,-0.7090867585826681,0.07197710195394716,0.08475040862578381,0.6962992415871201
-4075.297793149948,5816.0,-1708.0,15604.0,-117.0,190.0,-877.0,-0.6544364962728694,0.06131906002484065,0.071195691878523,0.7502559687744572
-4075.3133766651154,5728.0,-1576.0,15668.0,-147.0,1.0,-738.0,-0.6040408439621907,0.06524752738812728,0.06535006867693528,0.7915849843946635
-4075.3289706707,5800.0,-1592.0,15740.0,-119.0,359.0,-670.0,-0.5578815808228258,0.04312979529013136,0.04194072018561509,0.8277372400267902
-4075.344571352005,5760.0,-1492.0,15860.0,-50.0,558.0,-622.0,-0.5134478809710687,0.0032979155436456816,0.013517533196655874,0.8580079682471856
-4075.3601603507996,5652.0,-1408.0,15700.0,15.0,683.0,-557.0,-0.4711720960429058,-0.048706508031581844,-0.015681369287859917,0.8805558623069645
-4075.3757989406586,5520.0,-1488.0,15604.0,-52.0,657.0,-479.0,-0.4326074478078039,-0.0958421374078475,-0.04852703266205212,0.8951593198416299
-4075.391417503357,5436.0,-1452.0,15416.0,-23.0,552.0,-412.0,-0.39757208886598694,-0.13580200958143346,-0.07438570173426971,0.9044119723477129
-4075.407048225403,5544.0,-1496.0,15504.0,-102.0,441.0,-421.0,-0.36217514225679254,-0.16380594663681897,-0.10248747793743736,0.9118624320826638
-4075.4226989746094,5676.0,-1416.0,15612.0,-193.0,383.0,-477.0,-0.3230530043551039,-0.18335053615830338,-0.1364604475397468,0.918366965610619
-4075.4383113384247,5716.0,-1192.0,15560.0,-409.0,288.0,-464.0,-0.28847403971777624,-0.18877598661315523,-0.18435127839932994,0.9204134730867805
-4075.4539823532104,5684.0,-788.0,15416.0,-629.0,160.0,-466.0,-0.2582047230651223,-0.1776202520789089,-0.24585754938455362,0.917243387792417
-4075.4695789813995,5536.0,-1048.0,15332.0,-786.0,50.0,-478.0,-0.2303011215151096,-0.15293983484217585,-0.3161520162453118,0.9075344086982898
-4075.4851727485657,5604.0,-1044.0,15244.0,-905.0,18.0,-484.0,-0.2027231389773835,-0.1221444130849986,-0.39292532864731944,0.8885908830179802
-4075.5007576942444,5280.0,-1508.0,15376.0,-993.0,42.0,-452.0,-0.17599816840393312,-0.0917669339696027,-0.4731944083769494,0.8583067787388542
-4075.516343832016,5240.0,-1960.0,15672.0,-1175.0,165.0,-433.0,-0.14525594278593384,-0.06767359615468566,-0.5636560250229223,0.8103165313161401
-4075.531971693039,5264.0,-2416.0,15940.0,-1421.0,228.0,-479.0,-0.10759247440136462,-0.04177379505754701,-0.6639598233700971,0.738807256629922
-4075.547598361969,5292.0,-2452.0,16260.0,-1562.0,268.0,-679.0,-0.05334413011766647,-0.004928828713931268,-0.7610153057692618,0.6465182246576001
-4075.5632503032684,5684.0,-1728.0,15836.0,-1891.0,376.0,-1013.0,0.02752564863217965,0.049103938961526,-0.8545472338059771,0.5163140197984104
-4075.578836917877,5724.0,-1204.0,15564.0,-2081.0,235.0,-1178.0,0.10482698952288387,0.11881947066412424,-0.9226086535554933,0.3516909268707202
-4075.5944595336914,5620.0,-1184.0,15900.0,-2198.0,209.0,-1486.0,0.1851933656306146,0.20647873039768938,-0.9475064590280471,0.15906433075927323
-4075.610062599182,5492.0,-1484.0,15888.0,-2260.0,35.0,-1631.0,0.2443959638261123,0.2957317073775135,-0.9220111638017364,-0.05204597911514403
-4075.625655889511,5380.0,-1832.0,16428.0,-2403.0,184.0,-1825.0,0.3026482048918763,0.37919691320655896,-0.8315715302260452,-0.2703748420394469
-4075.6412518024445,5448.0,-2564.0,16436.0,-2481.0,202.0,-1570.0,0.35104653452447676,0.41876052274320613,-0.6931730111258135,-0.4700182250051212
-4075.6568806171417,5284.0,-3312.0,15652.0,-2382.0,36.0,-1552.0,0.36559573977818255,0.42811022254013803,-0.5217295492135761,-0.6409833616327927
-4075.672515630722,5100.0,-3372.0,14692.0,-2314.0,-2.0,-1389.0,0.3643498282328866,0.4061914944007478,-0.3312739007319015,-0.7697501381857773
-4075.6881046295166,4548.0,-3692.0,14388.0,-2157.0,-738.0,-1110.0,0.3368017198308325,0.31238617130121393,-0.16634333042687396,-0.8725304452689646
-4075.703727722168,4492.0,-3720.0,14632.0,-1922.0,-1006.0,-728.0,0.3130005022892038,0.18593910313226783,-0.029018461058619466,-0.9309217284019443
-4075.719337463379,4736.0,-3940.0,15064.0,-1721.0,-1095.0,-148.0,0.321052848659367,0.04926198270601458,0.08207795181175058,-0.9422109823462925
-4075.7349281311035,5224.0,-4164.0,15380.0,-1508.0,-1154.0,455.0,0.36787723309859155,-0.08373539916374441,0.16932851772356833,-0.9104848034866655
-4075.7505779266357,5296.0,-3984.0,15544.0,-1402.0,-908.0,783.0,0.427711999504156,-0.18714041174088192,0.25380379372478173,-0.8471272313321762
-4075.766177177429,5616.0,-3776.0,15444.0,-1150.0,-756.0,985.0,0.4931409839674385,-0.2613439282047421,0.3229224670534667,-0.7643509674189232
-4075.781797885895,5704.0,-3816.0,15540.0,-669.0,-180.0,1165.0,0.5568109717592291,-0.26741886908616586,0.3834808962189831,-0.6865792688541541
-4075.7973971366882,5592.0,-3704.0,15428.0,-326.0,173.0,1213.0,0.6123972636431512,-0.2308626880145236,0.436866501736006,-0.6171058826700924
-4075.812996864319,5204.0,-3652.0,15104.0,-137.0,355.0,1196.0,0.6566387466775313,-0.1724241736493485,0.4842325809411484,-0.551918715263556
-4075.8285944461823,4888.0,-3532.0,14536.0,-83.0,292.0,1104.0,0.6928374502358682,-0.1158944080782944,0.5188171622159917,-0.48720991976455885
-4075.844254255295,4760.0,-3420.0,13996.0,-125.0,11.0,1080.0,0.7337710417115049,-0.07378168588040361,0.5331583049330104,-0.414582371857774
-4075.8599183559418,4768.0,-3352.0,13628.0,-111.0,-17.0,997.0,0.7670635097888,-0.03501821881589131,0.5402769915798363,-0.34422095908136036
-4075.875516653061,5288.0,-3352.0,13976.0,22.0,-501.0,856.0,0.8135066260462468,-0.008248492120030567,0.5066306366746031,-0.2854195678983553
-4075.891090154648,5780.0,-3272.0,14236.0,245.0,-592.0,684.0,0.854126741584598,0.024510497280549663,0.4572809394868295,-0.24649723571508905
-4075.9066863059998,5992.0,-3444.0,14596.0,481.0,-567.0,537.0,0.8845308485662995,0.06931374895922708,0.40203524113324074,-0.22620443635511728
-4075.92235827446,6524.0,-3632.0,14732.0,518.0,-716.0,394.0,0.9111321826489706,0.10851659023421355,0.3327576215922239,-0.21756530205331304
-4075.9380071163177,6512.0,-3716.0,14804.0,296.0,-769.0,151.0,0.9311132994990702,0.12139205420787902,0.26363315063881904,-0.22088357692548308
-4075.9536476135254,6412.0,-3592.0,14400.0,70.0,-1245.0,-44.0,0.9525867995086688,0.10131562228296645,0.1603964259564319,-0.23787921435814738
-4075.9692430496216,6780.0,-3520.0,14296.0,40.0,-1491.0,-133.0,0.962181715238774,0.07103271751295594,0.03623509720355413,-0.26047594444313743
-4075.9848074913025,7048.0,-3828.0,14036.0,127.0,-1647.0,-150.0,0.953248270827027,0.04309205938174216,-0.10316118011655087,-0.28074646836689504
-4076.000401735306,6836.0,-4252.0,14152.0,202.0,-1858.0,44.0,0.9246062027051994,0.013488916937459572,-0.2595031481925591,-0.27853103079742564
-4076.016012430191,6932.0,-4392.0,14688.0,355.0,-1841.0,384.0,0.8797064129977127,-0.011442133711589983,-0.41133142947564993,-0.2383110564626455
-4076.0316064357758,7028.0,-4504.0,15188.0,493.0,-1785.0,827.0,0.8206797369475303,-0.0399367454291221,-0.5490974585008739,-0.15291110749760226
-4076.0472917556763,6868.0,-4584.0,15076.0,649.0,-1749.0,1082.0,0.7406828847233445,-0.06753137696109895,-0.6673989692851564,-0.0375099080344592
-4076.0629160404205,6488.0,-4448.0,14300.0,692.0,-1900.0,1302.0,0.6248499343986011,-0.10265389681991549,-0.7679748749236872,0.09612142547682552
-4076.0785279273987,6192.0,-4176.0,13856.0,711.0,-2123.0,1589.0,0.46259159224411,-0.14838579947555122,-0.8397093007835684,0.24264987837753177
-4076.0941712856293,5828.0,-3944.0,13960.0,755.0,-2631.0,1898.0,0.22989658580793448,-0.19327964871250136,-0.8693231271352345,0.39251476132146174
-4076.109820127487,5736.0,-3964.0,13672.0,783.0,-3087.0,1916.0,-0.05396243342409186,-0.20656871522774203,-0.8295169917694077,0.5160610254940232
-4076.125419139862,5656.0,-4100.0,13632.0,883.0,-3478.0,1931.0,-0.35504684462900676,-0.18262604891251316,-0.6957809137198315,0.5970581081274975
-4076.1410188674927,5892.0,-4564.0,14048.0,770.0,-3895.0,1959.0,-0.6356129109011394,-0.11416994800696163,-0.469754734951058,0.6019069192648722
-4076.1567208766937,6204.0,-5000.0,14156.0,1244.0,-3851.0,2109.0,-0.8285977536704429,-0.062431279744685785,-0.1575299406904668,0.5335844972521175
-4076.1723375320435,6704.0,-4956.0,14256.0,1521.0,-4264.0,1944.0,-0.8905735691039522,-0.0003065265896747194,0.21351511877754759,0.4016091608869345
-4076.1879687309265,7356.0,-4432.0,14336.0,1541.0,-4183.0,1893.0,-0.8096294394748452,0.05721897430429676,0.5458552798931592,0.2080100313157345
-4076.2035689353943,8012.0,-3616.0,14528.0,1820.0,-3631.0,2179.0,-0.6358989490563856,0.09129971662351664,0.7648992131719419,-0.04718137368066151
-4076.2191891670227,8192.0,-3508.0,14812.0,1753.0,-2830.0,2605.0,-0.4224733067703635,0.1466129275382199,0.8386583543520837,-0.31092301172579984
-4076.2347950935364,8112.0,-3968.0,14840.0,1622.0,-2913.0,2906.0,-0.1410588622285631,0.20566121661890147,0.8067788430185378,-0.5356433139910234
-4076.250466823578,7760.0,-4608.0,14936.0,1579.0,-2853.0,3104.0,0.1643496222077204,0.25257105025551096,0.662945308076369,-0.6853470542378772
-4076.2660627365112,7464.0,-5148.0,14980.0,1625.0,-2696.0,3078.0,0.43745013203117195,0.27315117943488676,0.42855851081743124,-0.7418648245908321
-4076.2816321849823,7592.0,-5612.0,15048.0,1773.0,-2349.0,3678.0,0.6670303562119694,0.3016571224477981,0.12602936494432626,-0.6694700019716918
-4076.297251701355,8060.0,-5244.0,15120.0,2156.0,-1827.0,4027.0,0.7954831210470036,0.33490948008419474,-0.19518875273176614,-0.4657720419755462
-4076.312884092331,8684.0,-4536.0,15500.0,2424.0,-1099.0,4603.0,0.8101375584172171,0.34457748578154473,-0.4577130785777975,-0.12426677123468885
-4076.3285031318665,8952.0,-4124.0,16116.0,2804.0,-417.0,5203.0,0.6801043998150682,0.2933818953455108,-0.598711674024404,0.3048432387679894
-4076.344108104706,8808.0,-4020.0,15912.0,2358.0,64.0,5536.0,0.4212577909721897,0.12593081297975742,-0.5965331057972649,0.6714399136001353
-4076.359751701355,8404.0,-4176.0,15696.0,1888.0,158.0,5491.0,0.07759293245396646,-0.0890306099172384,-0.48186319857692383,0.8682515448809607
-4076.3753492832184,8224.0,-3572.0,15128.0,1537.0,38.0,5117.0,-0.2687971110475856,-0.2687818322224624,-0.2947444922621424,0.8767155319946942
-4076.390955686569,8064.0,-3220.0,14620.0,1329.0,-179.0,4645.0,-0.5506526591612478,-0.3736549505089196,-0.07350770062149489,0.742805657536454
-4076.4066269397736,8172.0,-3416.0,13940.0,1303.0,-542.0,3978.0,-0.7221562807583166,-0.40015311239322965,0.15653038816815157,0.5420941157984049
-4076.4222264289856,8604.0,-3596.0,13572.0,1472.0,-623.0,3344.0,-0.7807148859918793,-0.39728377394382874,0.36371107919935397,0.3168029681352065
-4076.43781542778,9304.0,-4116.0,14424.0,1868.0,-97.0,2988.0,-0.7604107513962822,-0.40797761098579943,0.5023346573144966,0.054677693404059
-4076.4534335136414,9560.0,-4556.0,14692.0,2517.0,942.0,3065.0,-0.6847504966900303,-0.41924962300773694,0.5284696375914693,-0.2758012926629758
-4076.469037771225,8976.0,-4460.0,14388.0,3062.0,1774.0,2819.0,-0.5457140366899513,-0.3993668625970797,0.4202268133173336,-0.6050716689682987
-4076.484705209732,8008.0,-3860.0,13212.0,3116.0,1758.0,3031.0,-0.3160774781155844,-0.31799146759852537,0.2568005422375395,-0.8561716742973537
-4076.500298976898,7072.0,-2840.0,12452.0,2617.0,1481.0,2823.0,-0.061812977825602404,-0.2032605174644018,0.09276484371112202,-0.9727584497621629
-4076.5159220695496,6424.0,-2316.0,12692.0,2293.0,1625.0,2487.0,0.1680152102290292,-0.05498900103002297,-0.06315501548769147,-0.9822212291109192
-4076.5315058231354,5668.0,-1784.0,15088.0,2602.0,2355.0,1898.0,0.3364131854128845,0.16460497026082416,-0.22890893382809216,-0.8985165955392674
-4076.5471036434174,4912.0,-856.0,17332.0,2769.0,3762.0,1265.0,0.43396937488934945,0.4748516978167937,-0.3257882283277479,-0.6928553074211982
-4076.5626962184906,4764.0,1460.0,19292.0,2265.0,4765.0,495.0,0.45892180865710974,0.7575409311727009,-0.2747802934773429,-0.3741901942239932
-4076.5782911777496,4848.0,2504.0,21052.0,332.0,4906.0,-705.0,0.4878217755896354,0.869699931649756,-0.03895560730580108,-0.06429933754263169
-4076.593945980072,5412.0,3192.0,22012.0,-957.0,4794.0,-1336.0,0.5206863714934206,0.7867910232176636,0.24872610525597566,0.21904545849962492
-4076.609550476074,6412.0,1396.0,21140.0,-1418.0,4549.0,-3301.0,0.5197444340223666,0.5029077358925603,0.5844834862503977,0.3678703396344556
-4076.625159263611,5284.0,-3360.0,18652.0,-697.0,3436.0,-4450.0,0.4643192620308988,0.11999631735196631,0.8186578012935626,0.3159239008214438
-4076.6407618522644,4584.0,-5980.0,16096.0,584.0,2218.0,-4272.0,0.3845386105004064,-0.20518616677411108,0.8927072630450941,0.1144658748514185
-4076.6563749313354,4104.0,-5748.0,15088.0,1844.0,1961.0,-3571.0,0.2799084695922107,-0.41096798082110053,0.8504697242197671,-0.17163279283379265
-4076.6720099449158,3852.0,-4288.0,14384.0,3277.0,2515.0,-2059.0,0.1668977142744071,-0.4137497386116398,0.7317562849668691,-0.5152562917425311
-4076.687617778778,3396.0,-2164.0,14456.0,3629.0,3140.0,-1299.0,0.03575380890149889,-0.2775787452242605,0.5203850870960618,-0.8067658064623119
-4076.703268766403,3404.0,-312.0,14808.0,3114.0,3265.0,-828.0,-0.0885899568691781,-0.07008513187125592,0.27019336740691263,-0.9561565970288648
-4076.7188534736633,3732.0,-464.0,15560.0,2452.0,3065.0,-623.0,-0.18696549315276006,0.14359096764650964,0.03569261316104021,-0.9711599125510797
-4076.734454393387,3980.0,-1956.0,16232.0,1953.0,2438.0,-496.0,-0.2517035768962532,0.3051151063406731,-0.15746456517778695,-0.9048508119981561
-4076.7500805854797,3972.0,-2360.0,16356.0,1949.0,2503.0,351.0,-0.23267402862479664,0.438289938754309,-0.36184168510897907,-0.7891991642847486
-4076.7656700611115,3328.0,-2096.0,15616.0,2026.0,2575.0,723.0,-0.1718680452832048,0.5293716339950154,-0.5578639067114589,-0.6156418680699083
-4076.781286239624,2676.0,-780.0,14864.0,2052.0,2184.0,846.0,-0.11087048978965837,0.5545973326981333,-0.7140616155449947,-0.4126082188507513
-4076.7968883514404,2528.0,320.0,14580.0,1863.0,1550.0,663.0,-0.07870259315657499,0.5382589749075071,-0.8090241305863378,-0.22262779226990154
-4076.8125257492065,2616.0,876.0,14708.0,1492.0,1060.0,130.0,-0.07051953038126721,0.5326347684377137,-0.8406954233615808,-0.06751595681763808
-4076.82811999321,3056.0,364.0,15132.0,1185.0,587.0,-296.0,-0.08369641529158307,0.5467103328369384,-0.8317313653950993,0.04822507495760763
-4076.8437445163727,3344.0,-304.0,16012.0,1083.0,441.0,-509.0,-0.10059928643470889,0.5703734790792697,-0.8011493268017592,0.15071043128106779
-4076.8594172000885,3624.0,-1300.0,16628.0,1132.0,552.0,-471.0,-0.11140084336459993,0.5821100364242721,-0.7624075779314156,0.2597545816815189
-4076.87499666214,3740.0,-1300.0,16744.0,1153.0,639.0,-343.0,-0.1188532762950628,0.5751741868659798,-0.7199547082948515,0.3697482541960997
-4076.890625,3840.0,-1180.0,15884.0,1112.0,598.0,-161.0,-0.1311040516822165,0.5510445654274954,-0.6779766053390444,0.4685182356731436
-4076.9062173366547,3828.0,-760.0,15516.0,979.0,553.0,26.0,-0.14583384812753153,0.5131904687666954,-0.6423779516494482,0.5501986902401664
-4076.92186999321,3732.0,-216.0,15268.0,833.0,506.0,115.0,-0.15971709058689323,0.470079394512903,-0.6116573269479237,0.6159473420835272
-4076.9375195503235,3536.0,-104.0,15148.0,752.0,481.0,102.0,-0.16985850743483877,0.42693456383259243,-0.5802514963709995,0.6724456607163873
-4076.953187942505,3404.0,-472.0,15712.0,835.0,353.0,54.0,-0.1856890171155704,0.3898250106000259,-0.5366999923382509,0.7249201116381475
-4076.968789100647,3624.0,-1008.0,16104.0,883.0,266.0,31.0,-0.2045775420068553,0.35601579568785824,-0.4844998812170693,0.7724381189634677
-4076.984381914139,3824.0,-1124.0,16340.0,809.0,135.0,11.0,-0.2241799314682485,0.3310860687590022,-0.43145559592510035,0.8086850079885969
-4076.999979496002,3868.0,-1268.0,15784.0,675.0,-240.0,240.0,-0.26908516178538683,0.3249982628133986,-0.3850468633604864,0.8207973062160087
-4077.015620470047,3784.0,-1060.0,15924.0,698.0,171.0,389.0,-0.3102257151977639,0.28247170094401136,-0.3490269474155144,0.8379438726869722
-4077.0312671661377,3640.0,-1008.0,16036.0,818.0,341.0,623.0,-0.36395339898825924,0.21535011528874226,-0.3121992059528063,0.8507020083510181
-4077.046869277954,3616.0,-768.0,16040.0,848.0,184.0,712.0,-0.42571051076157207,0.15453716928308803,-0.26694715412835057,0.8506632948704594
-4077.0625038146973,3832.0,-596.0,15976.0,835.0,-75.0,837.0,-0.4982064187949119,0.10896503189358822,-0.21205248626452813,0.8336370488198148
-4077.078166246414,3964.0,-680.0,15860.0,641.0,-225.0,738.0,-0.5600143545550046,0.08349808598241977,-0.16173494134595892,0.8082411775438276
-4077.0938172340393,3928.0,-596.0,15688.0,427.0,-387.0,606.0,-0.6097053959456442,0.08120120918054076,-0.11649778195603057,0.7798037962088338
-4077.1094200611115,3892.0,-660.0,16128.0,284.0,-394.0,328.0,-0.637201156639116,0.08949938979845352,-0.07811064799451432,0.7614875388825177
-4077.1250002384186,3984.0,-828.0,15960.0,198.0,-211.0,112.0,-0.6473746760547058,0.09176529178224509,-0.053753008310046285,0.7547156909226177
-4077.1405963897705,4244.0,-912.0,16168.0,249.0,-112.0,-17.0,-0.6485670555621286,0.08519814533744816,-0.030560540569493515,0.7557566432593431
-4077.1562390327454,4256.0,-1004.0,15900.0,280.0,-61.0,-57.0,-0.6468153294901529,0.07361832355690014,-0.007907890388547724,0.7590439626548776
-4077.1718764305115,4244.0,-1164.0,15740.0,161.0,52.0,-147.0,-0.6379307396518936,0.06137649499594267,0.0010253435010828865,0.7676433064515745
-4077.1874668598175,4112.0,-1072.0,15620.0,114.0,63.0,-229.0,-0.6230228757105373,0.051016391235941226,0.006602974018291036,0.7805102336937982
-4077.203090906143,4312.0,-820.0,15936.0,115.0,26.0,-282.0,-0.6041120054233913,0.0430692049057977,0.014480762936174849,0.7956029386552674
-4077.2186875343323,4228.0,-804.0,16000.0,112.0,-50.0,-807.0,-0.5470436521797949,0.03979857413454877,0.028021040989051667,0.8356878229150754
-4077.2342998981476,4512.0,-852.0,16076.0,133.0,-138.0,-994.0,-0.47283427880786866,0.041237491742658346,0.04766488205411439,0.8788943469369822
-4077.2500166893005,4636.0,-1188.0,16108.0,84.0,-125.0,-979.0,-0.3960644140516874,0.043450578465111,0.0625149462937489,0.9150611502204814
-4077.26562333107,4436.0,-1376.0,15596.0,-22.0,-92.0,-852.0,-0.3265528319400839,0.0470774876541933,0.06684583373843789,0.9416361253795935
-4077.2812356948853,4132.0,-1504.0,15400.0,46.0,-43.0,-1018.0,-0.2419090127885614,0.043455499029529894,0.07554093432219913,0.9663773674799546
-4077.2968854904175,4072.0,-1508.0,15828.0,148.0,-3.0,-651.0,-0.1872617332597611,0.03646526562923545,0.09017201974716935,0.9774826517713016
-4077.312509059906,4384.0,-1392.0,15704.0,264.0,-102.0,-560.0,-0.13935275789680726,0.03662338902371886,0.11573832670382768,0.9827737155493982
-4077.3281121253967,5008.0,-1204.0,16088.0,199.0,-172.0,-485.0,-0.09658030437879205,0.044227621453801505,0.13605347651291433,0.9849901592581466
-4077.343749523163,5280.0,-980.0,16016.0,26.0,-43.0,-420.0,-0.06006714194614755,0.04289266999774408,0.13992722777753613,0.9874069719448914
-4077.35938000679,4908.0,-960.0,16112.0,-215.0,172.0,-417.0,-0.02544355118143448,0.024265722207008244,0.1216801705425409,0.9919464383351494
-4077.374950170517,4356.0,-1124.0,16184.0,-309.0,349.0,-301.0,-0.0024657266526045165,-0.008256410302850615,0.09442206332081428,0.9954949652505661
-4077.3905820846558,3976.0,-1568.0,16564.0,-213.0,416.0,-213.0,0.012426469949497913,-0.04584165138731701,0.07535931627286196,0.9960246479347609
-4077.406175136566,4008.0,-1564.0,16504.0,-54.0,285.0,-179.0,0.0258737116180758,-0.0715589331344533,0.07003490002615395,0.9946381165600332
-4077.4218220710754,4328.0,-1588.0,16396.0,197.0,214.0,-142.0,0.03810057019267158,-0.09024646523304061,0.08653252103292505,0.9914212247413414
-4077.4374198913574,4492.0,-1296.0,16108.0,347.0,356.0,-189.0,0.054432205854877735,-0.12091853609813279,0.11597051173231608,0.9843610531721586
-4077.453042984009,4196.0,-820.0,15880.0,336.0,391.0,-217.0,0.07256842446033535,-0.15466151460745448,0.1440791282626541,0.9747075686941938
-4077.468769311905,3844.0,-660.0,16080.0,331.0,397.0,-256.0,0.09369740799225872,-0.18906963119246226,0.1709254269808037,0.9624229676746646
-4077.48437666893,3492.0,-1080.0,15892.0,354.0,488.0,-183.0,0.10746924812752208,-0.2293259820657442,0.2011676864916729,0.9462512967325725
-4077.5000483989716,3876.0,-1492.0,16124.0,488.0,312.0,-56.0,0.1162385747694787,-0.2509702362297986,0.24281111502665792,0.9298092797352747
-4077.5156576633453,4128.0,-1512.0,15940.0,530.0,289.0,-159.0,0.1344327998976697,-0.2718271810667253,0.28470245077150097,0.9093856830133692
-4077.5313124656677,4832.0,-776.0,15764.0,300.0,648.0,-376.0,0.15491030366150046,-0.3280987740404197,0.3063079532073542,0.8800735367539446
-4077.5469160079956,4724.0,-472.0,15704.0,141.0,726.0,-480.0,0.17589636936473213,-0.3934736874482889,0.31217602641857894,0.846631592287731
-4077.562612771988,4160.0,-572.0,15632.0,207.0,495.0,-652.0,0.21712676984163887,-0.44329679421624213,0.3117396562400544,0.8118881109999527
-4077.578233718872,4000.0,-824.0,16052.0,499.0,323.0,-789.0,0.2825394739921559,-0.4763014671941228,0.3214169530144387,0.768114249509717
-4077.593836069107,4240.0,-1460.0,16624.0,521.0,245.0,-699.0,0.34316361554477115,-0.49782090246119465,0.3322105651325044,0.723912441151072
-4077.6094360351562,4516.0,-1516.0,16456.0,891.0,350.0,-637.0,0.4099762402752295,-0.5090564793766806,0.36938261245793946,0.660558452241854
-4077.6250026226044,4564.0,-972.0,16368.0,709.0,390.0,-589.0,0.4611708482026151,-0.5230761801328144,0.39646442016135836,0.5971002613396363
-4077.6406338214874,4236.0,-724.0,15860.0,332.0,198.0,-658.0,0.5027245903392494,-0.5415175083842955,0.390757536437787,0.5489401808016697
-4077.6562716960907,3992.0,-964.0,15484.0,61.0,34.0,-765.0,0.5399653549955707,-0.5652117942896194,0.3581346688827568,0.5106002369218551
-4077.6719279289246,3832.0,-1500.0,15452.0,21.0,-116.0,-639.0,0.5722694424885837,-0.5780142410082888,0.321485474860275,0.4848240008903035
-4077.6875388622284,4172.0,-2036.0,15852.0,125.0,-335.0,-531.0,0.6095844109029814,-0.5715119153510461,0.28273071440139436,0.4710035241162435
-4077.70313167572,4524.0,-2192.0,15728.0,225.0,-471.0,-486.0,0.6512432484883094,-0.5510016999905019,0.24212171087939421,0.46222985086080937
-4077.7187712192535,4732.0,-1892.0,15572.0,255.0,-475.0,-318.0,0.6854477553664222,-0.5231659109508665,0.20971204514436417,0.4609551631161662
-4077.734380722046,4800.0,-1532.0,15628.0,7.0,-345.0,-118.0,0.6965742990693777,-0.510638138591237,0.18377696504000426,0.4693175517842548
-4077.749998807907,4328.0,-1784.0,15840.0,241.0,-300.0,55.0,0.7095644059402944,-0.48239424760335464,0.17766326833606208,0.4819231336903624
-4077.765648126602,4312.0,-1640.0,16076.0,221.0,-302.0,307.0,0.7101020393548959,-0.4506893350474115,0.18091938221524476,0.5098062319326768
-4077.781281709671,4540.0,-1588.0,16360.0,134.0,-371.0,451.0,0.7002995293473179,-0.4180240831187599,0.18126976795289368,0.5495249824666293
-4077.796886920929,4776.0,-1608.0,16052.0,118.0,-431.0,606.0,0.6809773963722977,-0.37956731729593446,0.18217977280802958,0.5991735705539663
-4077.8124985694885,4712.0,-1284.0,16252.0,138.0,-335.0,614.0,0.6575755802451262,-0.34324309018431465,0.18933010887378696,0.6433759765330441
-4077.8280925750732,4384.0,-1072.0,16148.0,235.0,-216.0,541.0,0.6369242466189857,-0.3080415373951274,0.2058882425714463,0.6760532130527335
-4077.8437085151672,4152.0,-980.0,16324.0,324.0,-180.0,430.0,0.622802025379646,-0.27116702106632967,0.22613079375378772,0.6981768744274657
-4077.859328508377,4124.0,-928.0,16320.0,377.0,-182.0,292.0,0.6169746444723212,-0.2334124974121155,0.2457090937913006,0.710273141374746
-4077.8749101161957,4248.0,-824.0,16108.0,257.0,-181.0,53.0,0.6226240252490817,-0.20696885805756762,0.2526911126497277,0.7110910044184358
-4077.8905205726624,4272.0,-800.0,15856.0,110.0,-179.0,-168.0,0.6388657668976954,-0.1933736206985364,0.2464905086738566,0.7026376049129891
-4077.9061691761017,4300.0,-740.0,15836.0,43.0,-137.0,-338.0,0.6629827023253294,-0.18958879648787194,0.23545867415345273,0.684886295256068
-4077.9218769073486,4152.0,-776.0,16224.0,136.0,0.0,-410.0,0.6893119062386395,-0.1898497027586232,0.2364283504569432,0.6579573096944241
-4077.937514781952,4080.0,-804.0,16368.0,237.0,118.0,-471.0,0.7171203319464095,-0.19171739215603667,0.24884763100724827,0.6221396367344235
-4077.953204870224,3988.0,-848.0,16196.0,388.0,159.0,-472.0,0.7447304239343441,-0.18588872360759748,0.2713485471290685,0.5806823090753273
-4077.9688580036163,4024.0,-1024.0,15672.0,383.0,180.0,-447.0,0.7683049895135707,-0.18031373603369308,0.2945689094475511,0.5389096002791228
-4077.985671043396,3704.0,-600.0,15580.0,187.0,206.0,-512.0,0.7890943678467832,-0.19026016331620044,0.30851119396461807,0.49593547169556657
-4078.001507282257,3424.0,-340.0,15532.0,-252.0,226.0,-107.0,0.7831631120028588,-0.22005615780538235,0.31103776292474183,0.49141259390119646
-4078.017161130905,3136.0,-8.0,15888.0,-247.0,335.0,-30.0,0.7701872622694667,-0.25182811792889215,0.32236492449495563,0.48936186561032463
-4078.032763004303,3172.0,-320.0,16320.0,49.0,388.0,-104.0,0.7644039276725457,-0.26774109466919005,0.3478626023308046,0.47222129503419236
-4078.0483474731445,3448.0,-332.0,16164.0,80.0,294.0,-105.0,0.7614659032686562,-0.27748321818813887,0.36800972507663066,0.45578677474475515
-4078.0640604496,3776.0,-384.0,16424.0,32.0,143.0,-60.0,0.760054166558053,-0.2828361073961794,0.3771363285021262,0.4473137489220028
-4078.079669237137,3880.0,-344.0,16396.0,101.0,75.0,-99.0,0.7639614524543108,-0.2821879910647057,0.3834153590794324,0.4355749066288774
-4078.095314502716,3576.0,-276.0,16780.0,233.0,36.0,-216.0,0.7764977795190414,-0.27503472695532083,0.38904448459788443,0.41237299423528767
-4078.110913991928,3572.0,-284.0,16840.0,280.0,-4.0,-345.0,0.7952687586167373,-0.2673243823277623,0.3901152693874786,0.379335409330594
-4078.1265165805817,3700.0,-156.0,16296.0,379.0,-130.0,-332.0,0.8187800077365526,-0.24765891516285002,0.3853315138370515,0.3460982304423665
-4078.1421508789062,4012.0,-92.0,15948.0,365.0,-279.0,-2.0,0.8355336732192432,-0.2129404491842676,0.3758991161207658,0.33946973431749117
-4078.1577999591827,4192.0,-88.0,15772.0,191.0,-329.0,-150.0,0.8538674502288504,-0.19396369839252117,0.3543626450793437,0.3282005132810553
-4078.173394680023,4124.0,-112.0,15848.0,24.0,-204.0,130.0,0.8567554755920969,-0.1821711431911143,0.34177033707367266,0.3405536174054693
-4078.1889877319336,3672.0,-188.0,15528.0,-81.0,24.0,412.0,0.8420288033964239,-0.17643416927881714,0.3472690681946322,0.37317914255342804
-4078.204578399658,3236.0,-112.0,15596.0,-134.0,184.0,746.0,0.8083096463151269,-0.1691740572583423,0.3668634260277453,0.4282836451089987
-4078.22017288208,2840.0,68.0,15688.0,-180.0,334.0,1088.0,0.7505875887852261,-0.15862416127940307,0.3975621325206255,0.5033895090341466
-4078.235808134079,2744.0,260.0,15692.0,-188.0,477.0,1408.0,0.6639950501236788,-0.14174332067183226,0.4361438815537204,0.590591160651283
-4078.2514419555664,2692.0,520.0,15544.0,-405.0,434.0,1651.0,0.5509974972031821,-0.1232173753674061,0.4553560809145713,0.6883822165465341
-4078.2670962810516,2572.0,600.0,15232.0,-848.0,44.0,1697.0,0.43231753854769467,-0.09778371717167614,0.418878102155049,0.7925156314263692
-4078.282694578171,2580.0,848.0,15536.0,-1221.0,-202.0,1717.0,0.30536283107408535,-0.06590254815201331,0.3355636521895145,0.8887111065327842
-4078.2982680797577,2512.0,1048.0,16096.0,-1428.0,-364.0,1554.0,0.1840793690580532,-0.029590737389650134,0.21998513019982058,0.9575206089891192
-4078.3138706684113,2488.0,1168.0,16212.0,-1621.0,-552.0,1163.0,0.09179566943376707,0.012766039357520154,0.0771432540804852,0.9927031286654648
-4078.3294751644135,2392.0,1056.0,16172.0,-1674.0,-789.0,753.0,0.0332147166103366,0.0719438992330573,-0.07412260465429034,0.9940959196389967
-4078.3450798988342,2432.0,1004.0,15920.0,-2043.0,-993.0,389.0,0.005780680796291812,0.14674037720749766,-0.25134122177556006,0.9566929683356628
-4078.360698699951,2548.0,652.0,15704.0,-1877.0,-1132.0,55.0,0.00041267383650276957,0.23479948617902985,-0.4018110782524821,0.8851084048770218
-4078.3763060569763,2088.0,24.0,15688.0,-1814.0,-1335.0,-49.0,-0.00532867747545706,0.3331509984543861,-0.5306729045456219,0.7793383641309602
-4078.3919208049774,2208.0,-536.0,15760.0,-1665.0,-1736.0,-192.0,-0.02373260119086062,0.4509761060730765,-0.6237588637792427,0.6379515618357783
-4078.4074971675873,2508.0,-840.0,15740.0,-1480.0,-2174.0,-198.0,-0.07095574868793457,0.5709274726410847,-0.6761359552378987,0.46026869624854183
-4078.42311167717,3040.0,-924.0,15832.0,-1318.0,-2499.0,14.0,-0.14887135690282402,0.6589172103194346,-0.6935060659242624,0.2504291627686723
-4078.4387040138245,3268.0,-1056.0,15800.0,-1196.0,-2583.0,505.0,-0.23998421299827347,0.6790650092895675,-0.693385484467865,0.022245462445705407
-4078.454291343689,3208.0,-1152.0,15816.0,-1067.0,-2599.0,1045.0,-0.3251621051231089,0.6222594154525409,-0.6800520402492126,-0.21116829266121762
-4078.469969034195,3028.0,-1524.0,15348.0,-1175.0,-2774.0,1502.0,-0.3822103462519834,0.4943906358898008,-0.6343930836641549,-0.45501490718601934
-4078.485550880432,3032.0,-1820.0,15076.0,-1183.0,-3209.0,1915.0,-0.40953626494758527,0.28413650734967083,-0.5326040024471808,-0.6840171558237081
-4078.5011727809906,3260.0,-2116.0,15044.0,-958.0,-3632.0,2232.0,-0.3937311456008608,-0.00215800839818026,-0.37447186110361275,-0.8394891025053175
-4078.5167536735535,3440.0,-2212.0,15188.0,-469.0,-4172.0,2500.0,-0.3191866132603593,-0.34353460129084407,-0.18030107204595155,-0.8646359968509311
-4078.532351732254,3680.0,-2272.0,15432.0,103.0,-4816.0,2760.0,-0.16521995455494853,-0.6777783616306432,0.026134705635030394,-0.715985919053938
-4078.547951698303,4148.0,-2680.0,15868.0,624.0,-5688.0,2923.0,0.0587518169102771,-0.9031730162787105,0.2111896544938333,-0.36908760004981583
-4078.5635640621185,4584.0,-3052.0,15700.0,760.0,-6905.0,2693.0,0.2789570484141774,-0.898741931794919,0.3048192872396657,0.14673481965876242
-4078.579133272171,4912.0,-2400.0,16368.0,422.0,-7984.0,2342.0,0.39996969789828657,-0.5854169454429391,0.24224238792013397,0.6622913756392752
-4078.5947058200836,5116.0,-840.0,16804.0,-354.0,-9482.0,1971.0,0.3576503285163937,-0.0059633969036525115,-0.0065750229854113105,0.9338133911452686
-4078.610253572464,5892.0,272.0,16704.0,-1085.0,-9674.0,2282.0,0.12474108839218696,0.5631669182664871,-0.29820885231872724,0.7604959983035465
-4078.6258313655853,7868.0,604.0,17284.0,-1499.0,-8922.0,3071.0,-0.18251674653809194,0.8134147230896904,-0.4959605303975381,0.24303760569480765
-4078.641399383545,9208.0,-696.0,17804.0,-2024.0,-7414.0,3598.0,-0.3504604099451782,0.6807650551630856,-0.5434064312628636,-0.34415968850523093
-4078.6569969654083,10028.0,-3452.0,18144.0,-2394.0,-5348.0,3250.0,-0.3144443152325409,0.37906644679361406,-0.43243812885228894,-0.7552686053636373
-4078.672690629959,11276.0,-5904.0,19012.0,-2452.0,-3379.0,2130.0,-0.2040423521394923,0.1324449517579943,-0.22990383272594017,-0.9423212196406962
-4078.6882824897766,12324.0,-5616.0,18968.0,-2417.0,-2571.0,58.0,-0.21302377932692568,-0.035667340310667914,0.013568142015602639,-0.9763014984105477
-4078.703899383545,12028.0,-2516.0,17828.0,-2840.0,-2004.0,-1968.0,-0.3655575627045345,-0.14752112586063215,0.2707925117045628,-0.8782235486361465
-4078.7194871902466,10596.0,-700.0,16020.0,-3740.0,-1795.0,-3184.0,-0.5598846981218317,-0.21945532998275732,0.5217315704687837,-0.6051154033135835
-4078.735076904297,9600.0,-700.0,15016.0,-4361.0,-1335.0,-4010.0,-0.7020282194931264,-0.22923512903782675,0.6541258172723514,-0.16348409656018617
-4078.75066447258,8788.0,-2764.0,14692.0,-5130.0,-663.0,-4306.0,-0.7142522353479586,-0.14668418382159992,0.5877691833564521,0.3505066070896878
-4078.7662584781647,8620.0,-5408.0,14624.0,-4792.0,250.0,-3756.0,-0.5947302050833554,-0.04250860530458784,0.33316790459353457,0.7304027306803569
-4078.781814098358,8228.0,-7936.0,14532.0,-3846.0,1232.0,-3062.0,-0.41126090013649547,-0.009359249649890829,0.011439535738829616,0.9113978349145836
-4078.7973778247833,7476.0,-8868.0,14168.0,-2751.0,2122.0,-1862.0,-0.25298080757523905,-0.07655940312890762,-0.26967222839698585,0.9259677413509226
-4078.812945842743,6952.0,-7888.0,13336.0,-2001.0,2672.0,-1208.0,-0.10103915157607271,-0.20975218617050942,-0.4760937510411984,0.8480152418824798
-4078.8285133838654,6128.0,-5560.0,12856.0,-1614.0,2484.0,-1131.0,0.05437384548004489,-0.32018640741230153,-0.6149840339293114,0.7185532599940991
-4078.8440721035004,6576.0,-3364.0,13152.0,-1317.0,2284.0,-1223.0,0.2102910309511147,-0.39154860494372423,-0.6987445814561712,0.5605563148817257
-4078.859678506851,7468.0,-1936.0,13476.0,-1299.0,2106.0,-1477.0,0.3556235155411535,-0.41535236773398126,-0.7507086016095136,0.3707437407177837
-4078.8752913475037,8300.0,-1836.0,14080.0,-1535.0,1793.0,-1877.0,0.4625502217933655,-0.3848638781080549,-0.7859672112010467,0.14206558542935696
-4078.8908817768097,8708.0,-2912.0,14648.0,-1807.0,1908.0,-2225.0,0.5367258004898723,-0.31487400564764656,-0.7719167215917117,-0.13009362237640862
-4078.9064626693726,8732.0,-4268.0,14976.0,-1967.0,2087.0,-2391.0,0.5668930640093252,-0.21126147495804484,-0.68211409256927,-0.41075687199981464
-4078.9221630096436,8544.0,-5516.0,14580.0,-1779.0,2162.0,-2230.0,0.5564447898471646,-0.08496749440924849,-0.5272013409360246,-0.6365598690311983
-4078.937822818756,8540.0,-5972.0,14056.0,-1447.0,2250.0,-1816.0,0.5278452038332332,0.05123136240379934,-0.33762614583704836,-0.7776653354391743
-4078.953418970108,8424.0,-6208.0,13628.0,-1254.0,2389.0,-1217.0,0.5047702538989094,0.18517960032573982,-0.1324962390263539,-0.83268256439408
-4078.969057559967,7972.0,-5780.0,13388.0,-1171.0,2312.0,-746.0,0.4830775222911882,0.3017230965032665,0.06482601677165363,-0.8193881058710873
-4078.9846980571747,7792.0,-5244.0,13292.0,-1185.0,2285.0,-367.0,0.4633717687163743,0.4026228337255158,0.24924576285236488,-0.7490380547206109
-4079.000284910202,7672.0,-4424.0,13120.0,-1036.0,2049.0,-196.0,0.43374019463622315,0.48063562284460176,0.3987240203893432,-0.6495213600600611
-4079.0159046649933,7176.0,-3652.0,13400.0,-792.0,2574.0,-293.0,0.3511224400639516,0.5705641401557984,0.5384978349794414,-0.5110671930130768
-4079.031483411789,7012.0,-3488.0,13496.0,-511.0,2702.0,-369.0,0.2265674494504451,0.639567173067109,0.643867251653356,-0.353632555391639
-4079.047105550766,6704.0,-3708.0,13644.0,-421.0,2883.0,-492.0,0.07052958216205144,0.6706202672996087,0.7178598843447889,-0.17312198466842424
-4079.06272315979,6488.0,-3712.0,13728.0,-550.0,2966.0,-959.0,-0.09413324377777214,0.6284067238626467,0.7716602289034434,0.028007373114501403
-4079.0783195495605,6408.0,-3844.0,13728.0,-705.0,2887.0,-1452.0,-0.23676514028719703,0.5085496130072483,0.7934403197032628,0.23616100127698014
-4079.0939836502075,6544.0,-3728.0,13652.0,-711.0,2751.0,-1774.0,-0.3448052506181435,0.3298359621082034,0.768456274050612,0.4263713547115542
-4079.109569311142,6612.0,-3836.0,13768.0,-581.0,2485.0,-1919.0,-0.40788901781546544,0.1214744423425324,0.7005044988548728,0.5728559645209166
-4079.1251599788666,6452.0,-4052.0,13804.0,-475.0,2250.0,-1877.0,-0.43239312036665595,-0.08602312199377012,0.596722587412351,0.6704911376102899
-4079.140751361847,6280.0,-4412.0,13632.0,-385.0,2070.0,-1755.0,-0.42839838801257785,-0.27617258246957077,0.469511716134789,0.7209454031010102
-4079.15633559227,6316.0,-4760.0,13860.0,-331.0,1824.0,-1518.0,-0.4068874349424006,-0.4313343847911561,0.3365053919785351,0.7315445201436485
-4079.1719822883606,6432.0,-4860.0,14136.0,-265.0,1698.0,-1367.0,-0.37273691572041445,-0.5601748893311562,0.20403252986506595,0.7110850946116932
-4079.187574863434,6628.0,-4408.0,14280.0,-201.0,1691.0,-1256.0,-0.3292108995582177,-0.6695292585016175,0.07384282372881881,0.6617386138091823
-4079.203155040741,6904.0,-4068.0,14668.0,-133.0,1871.0,-1272.0,-0.2703715059029205,-0.7670370660515995,-0.06078213099679834,0.5786699583097684
-4079.2187662124634,6504.0,-3740.0,14624.0,-184.0,1961.0,-1425.0,-0.19596647515675353,-0.8355360321501443,-0.20716491968703887,0.4696374938657402
-4079.2343456745148,6044.0,-4000.0,14088.0,-7.0,2021.0,-1438.0,-0.0986927820173536,-0.8720334330042007,-0.3390577736643871,0.3389059642708179
-4079.249966621399,5820.0,-4144.0,14324.0,249.0,1769.0,-1434.0,0.014769281456063389,-0.8668948670843247,-0.4472445497285385,0.21965306846533947
-4079.265578508377,5760.0,-4300.0,14216.0,309.0,1366.0,-1387.0,0.11640652215298491,-0.8263831530653957,-0.5366379950949572,0.12474000220621446
-4079.2811572551727,5660.0,-4020.0,14300.0,381.0,1200.0,-1607.0,0.21428146828718234,-0.748491290139227,-0.6263521112565924,0.0390803487550202
-4079.296732902527,5684.0,-3736.0,14624.0,390.0,1120.0,-1729.0,0.3019505021887312,-0.6398332008217266,-0.7053150491079208,-0.044385254939997225
-4079.3123254776,5752.0,-3528.0,14816.0,518.0,1135.0,-1765.0,0.3871714963788755,-0.5041920336833464,-0.7625069638567924,-0.12029861026582898
-4079.327961921692,5740.0,-3812.0,15208.0,572.0,1064.0,-1666.0,0.45842390494731805,-0.3570568777525091,-0.7931380367598313,-0.1824553755504137
-4079.343547821045,5604.0,-4080.0,15056.0,599.0,941.0,-1612.0,0.509265283885949,-0.20352058403013978,-0.8035236303660533,-0.23146925918564804
-4079.3590948581696,5528.0,-4240.0,14784.0,624.0,1020.0,-1544.0,0.5528265385418373,-0.04620994139567273,-0.7867914580298662,-0.2705672950881097
-4079.3746836185455,5380.0,-4180.0,14836.0,680.0,538.0,-1494.0,0.5511136251985436,0.10075668410047633,-0.7740864588139988,-0.29480844121293304
-4079.3902707099915,5460.0,-4292.0,14404.0,745.0,506.0,-1286.0,0.5407127837808056,0.23428271669798917,-0.7505216822591165,-0.29909613600240204
-4079.405864238739,5496.0,-4408.0,14464.0,820.0,-198.0,-915.0,0.4843383545511675,0.3257955360360913,-0.7580543156661844,-0.2909076855455975
-4079.4215004444122,5680.0,-4780.0,14336.0,927.0,-546.0,-1023.0,0.392679161738328,0.415301216035058,-0.7691258707398848,-0.28596043582093705
-4079.437070608139,6316.0,-5116.0,14832.0,987.0,-591.0,-710.0,0.29751002858335285,0.47869553919613,-0.7828386578374285,-0.2636323186586814
-4079.4526958465576,6292.0,-4940.0,15152.0,1106.0,-430.0,-612.0,0.20648877196378687,0.5356984873294717,-0.7885442866204687,-0.2204255560592261
-4079.468305826187,6584.0,-4804.0,15216.0,1096.0,-367.0,-708.0,0.11559057996561892,0.5929800063231256,-0.7777178068588712,-0.17369094052041253
-4079.483921766281,6640.0,-4212.0,14828.0,1070.0,-38.0,-571.0,0.04872520171126782,0.6383893718049877,-0.7605169545391124,-0.10816111382184952
-4079.4995024204254,6476.0,-3460.0,14460.0,723.0,235.0,-798.0,0.01644673441348281,0.6934579498401346,-0.7185573366080155,-0.05020887110307131
-4079.515062570572,6704.0,-3260.0,14688.0,474.0,406.0,-1163.0,0.008084926808459642,0.7638146436071366,-0.6453803934741932,0.002443744851741563
-4079.530659675598,7156.0,-3900.0,15036.0,708.0,554.0,-1220.0,-0.007575141762384396,0.8257321896823514,-0.5586236296247309,0.07777280099469634
-4079.5462527275085,6896.0,-4344.0,15148.0,1104.0,1176.0,-1171.0,-0.021532221719821578,0.8611729895686427,-0.4605715078011679,0.21398909240186367
-4079.561868429184,6352.0,-4352.0,15324.0,1404.0,1546.0,-1332.0,-0.03914200374591393,0.863233227750531,-0.3294902375432107,0.3804372240118903
-4079.577506542206,5396.0,-3372.0,14992.0,1461.0,2191.0,-1712.0,-0.02832823013821681,0.8049571498274736,-0.15375876707254954,0.5723632936057272
-4079.593118429184,5040.0,-2352.0,15056.0,1325.0,1934.0,-2260.0,0.016765785093258045,0.7072751911885136,0.06393816185960656,0.7038413342774584
-4079.608724594116,4956.0,-1580.0,14772.0,924.0,1560.0,-2470.0,0.09926267533289178,0.5785388473368003,0.2661021511985715,0.7646105992827043
-4079.624311685562,5296.0,-1332.0,15140.0,360.0,1046.0,-2807.0,0.23606752273657933,0.43181076273842994,0.426319898329944,0.7589880988396432
-4079.6399235725403,5960.0,-2260.0,15968.0,-93.0,630.0,-2915.0,0.39603558482606505,0.2705961059271442,0.5253568171582181,0.7028042242857744
-4079.6555032730103,6816.0,-3680.0,16272.0,-274.0,583.0,-2443.0,0.51332979935943,0.11065332974138875,0.5725109209043697,0.6296662633109553
-4079.671087741852,7408.0,-4192.0,15644.0,-993.0,490.0,-1846.0,0.5896183534388422,-0.05210737278010504,0.5479896425201771,0.5910519187690979
-4079.6866574287415,6932.0,-4300.0,14356.0,-1427.0,-413.0,-1600.0,0.6733650389184033,-0.17755716076295366,0.43779985171191016,0.5686688569503743
-4079.7022285461426,5832.0,-3840.0,13620.0,-1627.0,-1371.0,-1496.0,0.7556268441063387,-0.25573775895635054,0.24680108701562892,0.5501958692663753
-4079.7177953720093,5260.0,-3788.0,13612.0,-1458.0,-1967.0,-1109.0,0.797117379892659,-0.2737741230820547,0.02149137357480479,0.5377636405202404
-4079.733373403549,5184.0,-3752.0,14060.0,-1078.0,-2024.0,-852.0,0.7972195744021617,-0.24953077412241076,-0.18626919265213313,0.5171838462525961
-4079.748960494995,5424.0,-3468.0,14576.0,-520.0,-1254.0,-687.0,0.7896673024386585,-0.21576143570442666,-0.3092696885108555,0.4839677820789475
-4079.764569044113,6196.0,-2848.0,15144.0,-108.0,-724.0,-451.0,0.7850356460269187,-0.17970557537525486,-0.3710866744152272,0.46229819458612875
-4079.7801525592804,6412.0,-2652.0,16292.0,-158.0,-755.0,-195.0,0.7642425827595274,-0.15319974369277595,-0.431067963586933,0.4545806023122072
-4079.795774459839,6576.0,-2588.0,16768.0,-178.0,-260.0,224.0,0.7428834505995192,-0.1629590316598197,-0.45205441122178525,0.4660636674541053
-4079.8113725185394,6240.0,-3208.0,16776.0,-185.0,-591.0,460.0,0.6967578674974315,-0.16856398905002365,-0.49008577087506994,0.49591389662093927
-4079.8269386291504,5688.0,-3128.0,16328.0,-110.0,-637.0,487.0,0.6453146035898251,-0.16799320116354277,-0.5249576574196133,0.5289298674427869
-4079.842649936676,5136.0,-2764.0,15704.0,-65.0,-388.0,336.0,0.6105557291657213,-0.16887566959901618,-0.5441818600609543,0.5500625536982118
-4079.8582332134247,5096.0,-2196.0,15724.0,-193.0,-54.0,66.0,0.6019808931825529,-0.17958606261864077,-0.5551159943878652,0.5451734431637708
-4079.8738555908203,5520.0,-2160.0,15812.0,-296.0,-20.0,-14.0,0.59694615988025,-0.1933548823441902,-0.5701452152219052,0.5302863426842659
-4079.8894412517548,5868.0,-2696.0,15748.0,-133.0,168.0,228.0,0.5923965733201397,-0.21923787030010383,-0.5633584200859598,0.5325676920947068
-4079.9050323963165,5868.0,-2844.0,15720.0,-21.0,460.0,311.0,0.5995603192090855,-0.2566034865856386,-0.533842170400167,0.5382328598333926
-4079.9207310676575,5808.0,-2868.0,15476.0,-254.0,595.0,364.0,0.6033419491781886,-0.31404281001076134,-0.5053063991319579,0.531056540152462
-4079.9363481998444,5708.0,-2956.0,15504.0,74.0,644.0,518.0,0.6082805358247028,-0.3617733504336739,-0.45247190476370575,0.542571661674576
-4079.9519805908203,5384.0,-3052.0,15492.0,136.0,513.0,331.0,0.6163519066404824,-0.3911960761249602,-0.4076449410912188,0.5485449472995018
-4079.967613220215,5564.0,-3004.0,15028.0,308.0,694.0,97.0,0.6455892388873952,-0.4102321607074686,-0.3513934057324054,0.5398581141020818
-4079.983264684677,5612.0,-2808.0,14848.0,448.0,628.0,69.0,0.6762081468378693,-0.415569778755028,-0.29170381631895037,0.5338100642368517
-4079.9988663196564,5692.0,-2832.0,14948.0,619.0,646.0,-252.0,0.7245773732344746,-0.4012016498025536,-0.23307465834753893,0.5096087421037007
-4080.0144481658936,5836.0,-3364.0,15140.0,923.0,607.0,129.0,0.7600421377021706,-0.37048893876083333,-0.14840861833881427,0.5128828103726528
-4080.030028820038,5976.0,-3768.0,15204.0,1203.0,836.0,313.0,0.7891460802941185,-0.32912020400634423,-0.028784420297374796,0.5177835575019692
-4080.045595407486,5768.0,-3632.0,15020.0,1335.0,996.0,356.0,0.8051602140977029,-0.2797745112762727,0.1090358444771868,0.5114239308962877
-4080.06117105484,5660.0,-3544.0,14696.0,1280.0,1021.0,387.0,0.8009385398274838,-0.22909435869203248,0.24454021316227034,0.4961988657595418
-4080.07679605484,5456.0,-3156.0,14844.0,1591.0,1265.0,507.0,0.7711206651056559,-0.1590946956104975,0.4050883723285419,0.46472057010619483
-4080.092393398285,4996.0,-2576.0,15188.0,1283.0,1135.0,-16.0,0.7413227795143992,-0.11798161780545705,0.5272605273670167,0.39814219911196064
-4080.10804772377,5052.0,-2668.0,14968.0,1732.0,807.0,-408.0,0.7258242641454719,-0.051956142996740236,0.6262867831486245,0.2797222944921163
-4080.123637199402,5076.0,-3172.0,15160.0,1972.0,719.0,-523.0,0.6960354439726701,0.026370825549448647,0.7050529324081987,0.13319010021847896
-4080.1392810344696,5032.0,-3000.0,15540.0,1872.0,1041.0,-1149.0,0.6271513907139197,0.05603163318872398,0.77537289511892,-0.048357654230795015
-4080.1548697948456,5272.0,-2132.0,16348.0,1714.0,1860.0,-1218.0,0.47379706944635813,0.07310214627562935,0.8507004316180523,-0.215594964780718
-4080.1704897880554,5376.0,-1536.0,16608.0,1511.0,2063.0,-986.0,0.2844235950091952,0.09841122614745856,0.8887658158036258,-0.3457076421329363
-4080.186059474945,5460.0,-960.0,16512.0,1050.0,1844.0,-986.0,0.1005245949716443,0.1015212074793907,0.8928690625251186,-0.4270516214970142
-4080.2016599178314,5372.0,-2216.0,16176.0,693.0,1272.0,-983.0,-0.0409438815054687,0.07748530837359761,0.8766933883787613,-0.4729992899851762
-4080.2172906398773,5136.0,-4160.0,15836.0,757.0,752.0,-587.0,-0.12717126884250937,0.06054473388699911,0.841920954308705,-0.520894336958522
-4080.2328855991364,5044.0,-5404.0,15372.0,1106.0,586.0,-154.0,-0.18203413590487272,0.06319079592467929,0.7811446257593505,-0.5938716783304757
-4080.2485139369965,5084.0,-4712.0,15496.0,1455.0,762.0,372.0,-0.2204195392485727,0.10379325912227078,0.684105494415788,-0.6874895334391311
-4080.2640976905823,4984.0,-3260.0,15332.0,1611.0,1066.0,871.0,-0.24235217744886417,0.18557877272535792,0.5495792413522183,-0.7776815535129173
-4080.2797157764435,4904.0,-1756.0,15128.0,1364.0,1244.0,1206.0,-0.23795662367788273,0.29353302625533567,0.40359337840995857,-0.8332630992962805
-4080.2952897548676,4896.0,-1336.0,15056.0,1051.0,1128.0,1508.0,-0.19164129757098708,0.3996924682800716,0.2604056685373682,-0.8577344761982573
-4080.310863018036,4992.0,-1584.0,15100.0,874.0,797.0,1133.0,-0.15391335648703994,0.4655771904317742,0.14063108476229513,-0.860099678201968
-4080.3264377117157,5248.0,-2384.0,15868.0,929.0,619.0,973.0,-0.12522253039331951,0.5071100751685544,0.022835239458508075,-0.8524301973670981
-4080.3419716358185,5308.0,-2680.0,16024.0,1085.0,587.0,786.0,-0.11504016818271233,0.5359759918933062,-0.09827860455065408,-0.830564152673384
-4080.3575587272644,5244.0,-2776.0,16048.0,1108.0,758.0,732.0,-0.10639287551645124,0.5683446741682734,-0.21848196242106438,-0.786085567531004
-4080.3731603622437,5068.0,-2200.0,15620.0,1045.0,330.0,750.0,-0.09983094852041535,0.563096677339982,-0.32821365711039724,-0.7518189336352238
-4080.3887445926666,4824.0,-1872.0,15332.0,843.0,11.0,729.0,-0.09268444427730006,0.532974643748976,-0.41744230681190553,-0.7301298126999166
-4080.4043402671814,4788.0,-1880.0,15320.0,1014.0,268.0,799.0,-0.07865872860020506,0.5092949008381044,-0.5179376699946113,-0.6827679535507345
-4080.4199588298798,4680.0,-2108.0,15544.0,651.0,302.0,907.0,-0.03968968253968099,0.47931946988263396,-0.5960540701743773,-0.6429596568369499
-4080.43555021286,4724.0,-2320.0,15776.0,612.0,263.0,986.0,0.003713901349553976,0.43825077134473894,-0.66892630095592,-0.6003832711209875
-4080.4511296749115,4868.0,-2540.0,16068.0,582.0,138.0,866.0,0.03476250599952122,0.39340748007739657,-0.7294031588591782,-0.5585634741388293
-4080.4667506217957,4824.0,-2000.0,16028.0,532.0,144.0,675.0,0.05842882576841152,0.3579963029010459,-0.7758109637514149,-0.5162771232115638
-4080.482336997986,4796.0,-1760.0,15628.0,583.0,170.0,663.0,0.08138213236682638,0.3227095449564114,-0.8193885171118701,-0.4667311390411663
-4080.560312986374,4740.0,-2332.0,16180.0,478.0,-298.0,213.0,0.0552352770748495,0.2982942960100946,-0.8457890477714212,-0.4388740865034289
-4080.57594704628,4912.0,-2100.0,16412.0,627.0,-270.0,50.0,0.020881256430629484,0.28675167086611364,-0.8708411013275847,-0.3987144700458331
-4080.591503381729,4896.0,-1808.0,15888.0,731.0,-183.0,105.0,-0.007632581559493073,0.27311587489566436,-0.8972546611591975,-0.34681916845354366
-4080.6070835590363,4628.0,-1704.0,16096.0,831.0,-125.0,76.0,-0.03482172254867126,0.26210433562261837,-0.9216360431085513,-0.2840348023214438
-4080.6226847171783,4424.0,-1740.0,15412.0,944.0,-8.0,190.0,-0.052155515084220685,0.24288653369442026,-0.9460241447852494,-0.20814478489634627
-4080.6382689476013,4304.0,-1952.0,15576.0,1114.0,107.0,404.0,-0.059269233541712756,0.20528709448283766,-0.9700991154921028,-0.11511764815010898
-4080.65385556221,4440.0,-2140.0,15820.0,1178.0,31.0,807.0,-0.06909979253878037,0.1301539214418673,-0.9889036190827133,-0.018836336414320705
-4080.66951751709,4540.0,-2256.0,16084.0,1137.0,-53.0,1065.0,-0.08405792720860752,0.030985597279651157,-0.9933990513237461,0.07164134604889259
-4080.685135126114,4696.0,-2092.0,16244.0,910.0,-76.0,1267.0,-0.10009838040423827,-0.08430689856692049,-0.9814955725509931,0.1397823385026648
-4080.7007386684418,4788.0,-1764.0,16252.0,700.0,-46.0,1263.0,-0.11339289600545853,-0.19651454032395746,-0.9556824738263303,0.18760356019528107
-4080.7163286209106,4676.0,-1452.0,15900.0,551.0,120.0,1098.0,-0.11126079069176978,-0.29382901768444974,-0.9236590770615077,0.21940705135231536
-4080.7319507598877,4672.0,-1136.0,15720.0,593.0,231.0,991.0,-0.09589337474709148,-0.38189754411682914,-0.8844580365004557,0.25038511965950927
-4080.7475390434265,4556.0,-1272.0,15720.0,624.0,286.0,946.0,-0.07329673816613042,-0.46399351384371246,-0.8373220541039633,0.27969516441349107
-4080.763130903244,4660.0,-1768.0,15880.0,662.0,222.0,998.0,-0.0543034982730435,-0.5435215823313272,-0.7777647169175373,0.3109943162399323
-4080.778801679611,4764.0,-1896.0,16240.0,815.0,345.0,1116.0,-0.022319780405502875,-0.6276736043546546,-0.6989344491279651,0.3420793908163349
-4080.7944202423096,4700.0,-2028.0,16220.0,953.0,517.0,1261.0,0.02356001510459246,-0.7143994986110261,-0.5961336429057521,0.3656541560935732
-4080.810006380081,4772.0,-1940.0,15976.0,1118.0,638.0,1383.0,0.0812678630641303,-0.7936908812469272,-0.4665778360265508,0.3817793111042646
-4080.8255620002747,4228.0,-1800.0,15776.0,1107.0,746.0,1302.0,0.14310784516424882,-0.8524843662329193,-0.3298380674573891,0.3794698923984328
-4080.841152191162,3964.0,-1344.0,15764.0,1050.0,817.0,1788.0,0.1821637728384227,-0.9009943609574517,-0.14899707613193766,0.36445218162644927
-4080.856733083725,4048.0,-1144.0,15872.0,899.0,875.0,1409.0,0.21654873605079988,-0.9204407216461934,0.004277951287264588,0.32538780244966065
-4080.8723380565643,3948.0,-308.0,16088.0,682.0,739.0,1168.0,0.23580783232474836,-0.9197960585252909,0.13028896175881008,0.28529749977778396
-4080.8879537582397,3844.0,8.0,16348.0,407.0,583.0,777.0,0.24152359990814254,-0.9132326170374254,0.2139058859111746,0.2488308860229011
-4080.9035472869873,4120.0,224.0,16040.0,81.0,419.0,397.0,0.23126914565192255,-0.9120210265294465,0.2558110627900204,0.2220201107824353
-4080.9192197322845,4052.0,184.0,15556.0,-319.0,190.0,97.0,0.1996693482550725,-0.91945245764663,0.2610343834342003,0.21587121197624637
-4080.9348318576813,3844.0,-164.0,15204.0,-856.0,179.0,-234.0,0.130914991890755,-0.940140379958906,0.2285241317904618,0.21627309601146136
-4080.9504673480988,3800.0,-668.0,15076.0,-1044.0,29.0,-430.0,0.052539695336060385,-0.9565546863088422,0.17301267842362525,0.22871232065472472
-4080.9660589694977,4124.0,-1176.0,15276.0,-1468.0,-86.0,-693.0,-0.05435172589449139,-0.962391598843591,0.08459161828540018,0.2523738466708146
-4080.9817090034485,4744.0,-2008.0,16044.0,-1381.0,-128.0,-926.0,-0.1474732475141183,-0.9498399067629237,-0.02278215351876984,0.2748395282147149
-4080.9973590373993,5252.0,-2224.0,16728.0,-1186.0,-288.0,-1052.0,-0.2190025887144588,-0.9165374936846425,-0.1334426891000034,0.3069037919811338
-4081.0129568576813,5752.0,-1736.0,16984.0,-1246.0,-272.0,-1366.0,-0.281567991949958,-0.8581560921850153,-0.2673775011901463,0.33585243666277786
-4081.02854514122,5876.0,-1212.0,16908.0,-1711.0,-89.0,-1339.0,-0.3660601798209565,-0.7684921108899437,-0.408358887082468,0.32964047019462794
-4081.0441143512726,5180.0,-1004.0,16464.0,-2503.0,-43.0,-1513.0,-0.476717397976571,-0.6136174014250136,-0.5624443381623807,0.28261382415576025
-4081.0597217082977,4676.0,-876.0,16204.0,-3263.0,-153.0,-1859.0,-0.582648253893985,-0.3636708273550363,-0.6994333205125094,0.19762988570061643
-4081.0753338336945,4564.0,-776.0,16604.0,-3896.0,-158.0,-2496.0,-0.6239598527447021,-0.009607728753090466,-0.776753587513522,0.08506267098963063
-4081.0908958911896,4304.0,-1180.0,15828.0,-4240.0,-239.0,-2990.0,-0.5661322597200263,0.3878570734969763,-0.72648227755765,-0.03584209030325965
-4081.1064686775208,4092.0,-1908.0,14948.0,-4070.0,-766.0,-3317.0,-0.44223161078565126,0.7231407582532786,-0.5113466574284751,-0.14150350565101508
-4081.1220507621765,3992.0,-2732.0,14704.0,-3683.0,-749.0,-3455.0,-0.2611615912401118,0.9227907599934597,-0.1998589990204657,-0.20076906395698357
-4081.137647628784,4260.0,-3772.0,14592.0,-3040.0,-896.0,-3342.0,-0.0840014209081835,0.9600030320607336,0.13274872243329608,-0.2317665127060678
-4081.1532847881317,4540.0,-4440.0,14356.0,-2179.0,-1011.0,-3009.0,0.04682857971517859,0.8726779583561135,0.41367988776467596,-0.25516507515776843
-4081.1689093112946,4904.0,-5052.0,13988.0,-1164.0,-1465.0,-2592.0,0.12583342025887187,0.7143780169395736,0.607857389415364,-0.3230160884423175
-4081.1845095157623,5016.0,-5124.0,13768.0,-447.0,-2126.0,-1833.0,0.2084895755558654,0.5359785433861769,0.6904746859531475,-0.4387525566558778
-4081.200097799301,5100.0,-4956.0,14280.0,-185.0,-2501.0,-970.0,0.3219769546939789,0.36830194242795283,0.6789498427528186,-0.547459250424825
-4081.2157096862793,5564.0,-4936.0,15040.0,-437.0,-2869.0,86.0,0.4945372901980636,0.21707760062394643,0.5974850622231206,-0.592724037247639
-4081.231297016144,5604.0,-4740.0,15832.0,-871.0,-3093.0,873.0,0.6890231091947109,0.06230877183089426,0.472811934310179,-0.5457230494696427
-4081.2468750476837,5696.0,-3952.0,15664.0,-1214.0,-2947.0,1139.0,0.835813381004391,-0.09990595387519849,0.33280238009654745,-0.4250616053190041
-4081.2624418735504,5468.0,-3148.0,15156.0,-1347.0,-2675.0,1103.0,0.9081345286704604,-0.25568308729072653,0.18976589359415671,-0.27185794514483974
-4081.2780196666718,5312.0,-2616.0,14540.0,-1203.0,-2615.0,1015.0,0.9167513145820004,-0.38283092444741074,0.032303665650257274,-0.1093799967291617
-4081.2935967445374,5244.0,-2612.0,13736.0,-977.0,-2677.0,381.0,0.8684434075088789,-0.47069973575926377,-0.15518627592739745,0.012846263048547343
-4081.3091802597046,5324.0,-3140.0,13636.0,-797.0,-2778.0,0.0,0.7739442656776896,-0.511773648333443,-0.355549954126529,0.1126154368491389
-4081.324751138687,5492.0,-3588.0,13952.0,-614.0,-2891.0,-206.0,0.6379660549332397,-0.5018019775285608,-0.5480298334483495,0.20213210965088757
-4081.340326309204,6028.0,-4112.0,14568.0,-324.0,-3036.0,-240.0,0.46651809540789646,-0.43929035836453006,-0.7084060732284125,0.2958811976419806
-4081.355967760086,6512.0,-4984.0,14872.0,126.0,-3241.0,-125.0,0.2638823015261899,-0.3296943211206188,-0.8100040097289758,0.406892233625854
-4081.371562242508,6716.0,-5204.0,14812.0,571.0,-3237.0,-12.0,0.04992906100683181,-0.19289687768426664,-0.8310603055041864,0.5192654928472771
-4081.387147665024,6996.0,-5260.0,14680.0,809.0,-3232.0,274.0,-0.17594227021099124,-0.06019544423870081,-0.7716272444618689,0.6082862990813548
-4081.402724981308,6912.0,-4592.0,14336.0,977.0,-3405.0,567.0,-0.41057458124716784,0.06437495332228324,-0.6340288026870573,0.6521440454237724
-4081.4183208942413,7032.0,-3564.0,14140.0,1107.0,-3429.0,741.0,-0.6176764429882957,0.17037210660480287,-0.430492154798996,0.635708786886642
-4081.4339690208435,6976.0,-3284.0,14068.0,1187.0,-3439.0,920.0,-0.7750638368847911,0.24961571046451758,-0.18310530175757408,0.5508543312991084
-4081.4495651721954,6932.0,-3336.0,14144.0,1218.0,-3564.0,1127.0,-0.8632859640067616,0.30317543528483626,0.08727773680479782,0.3939601457596933
-4081.465179681778,6784.0,-4240.0,14644.0,1262.0,-3897.0,1331.0,-0.8544149936942902,0.32945587972687207,0.36430769916253586,0.16945129741220083
-4081.48077917099,7020.0,-4796.0,15076.0,1569.0,-4151.0,1218.0,-0.7290880699409865,0.2899414150712334,0.614239826274538,-0.08410706221503075
-4081.496370077133,6976.0,-4532.0,15148.0,1917.0,-3679.0,1172.0,-0.535242888715237,0.19066574375363252,0.7529975626278037,-0.33189801884800324
-4081.5119712352753,7356.0,-3508.0,14972.0,1961.0,-2879.0,1419.0,-0.32079721194921373,0.10343328415074064,0.7667298652663003,-0.5463661942727828
-4081.5275373458862,7220.0,-2836.0,14348.0,1742.0,-2405.0,1541.0,-0.09805863862174474,0.04131694844388416,0.7074456087619757,-0.6987117601746323
-4081.543117046356,7208.0,-2772.0,13744.0,1529.0,-2327.0,1924.0,0.1509573478232049,0.0048500203931550225,0.6013692266599838,-0.7845657459172829
-4081.558691263199,7180.0,-3372.0,13764.0,1035.0,-2677.0,1859.0,0.40083345849394714,-0.0645289241718588,0.47363521167103034,-0.7815614133018223
-4081.5743296146393,7152.0,-3708.0,14612.0,917.0,-2478.0,2119.0,0.6261824894335066,-0.1093058614816921,0.3223290079779128,-0.7014639899442994
-4081.589988708496,7000.0,-3784.0,15344.0,448.0,-1844.0,2290.0,0.7961416802463872,-0.12911258333999032,0.20879400619304703,-0.5530763317803349
-4081.605581998825,7196.0,-3716.0,15788.0,-15.0,-1686.0,1956.0,0.8985637810448318,-0.17167453705781693,0.11132603643276782,-0.3882235159448358
-4081.6211733818054,7728.0,-3520.0,15572.0,-455.0,-1539.0,1182.0,0.9327249274202136,-0.24437097762763058,0.023101056344024255,-0.2641465052921648
-4081.6367614269257,8800.0,-3644.0,15292.0,-178.0,-1434.0,657.0,0.9379930885683659,-0.2877660532032122,-0.07509960677509384,-0.17810029052208162
-4081.65235042572,9300.0,-3804.0,15108.0,367.0,-1438.0,352.0,0.9350023821223181,-0.27973265398671926,-0.18826794856521137,-0.10988797596727146
-4081.667981863022,9100.0,-4004.0,14852.0,935.0,-949.0,425.0,0.9393662315214509,-0.21763559065722746,-0.2624759761678941,-0.036499242337047565
-4081.683588027954,8272.0,-4064.0,14576.0,1105.0,-118.0,694.0,0.9537100112730568,-0.14211902132374485,-0.26072069363065514,0.04758274990242917
-4081.6992053985596,7488.0,-3916.0,14008.0,834.0,599.0,1006.0,0.9659953134980078,-0.09707501097432301,-0.193250961128,0.1417164865755737
-4081.7148036956787,7100.0,-3608.0,13636.0,406.0,660.0,831.0,0.96553009147378,-0.08455009780459631,-0.1252481725167725,0.2119335242501192
-4081.730412006378,7452.0,-3640.0,13760.0,254.0,229.0,752.0,0.9535072357690464,-0.075369712291196,-0.0957776432685608,0.2756265605037633
-4081.746013402939,8088.0,-4660.0,14776.0,646.0,-154.0,657.0,0.9375380672383296,-0.023322269189626224,-0.08876088576513158,0.3355591593103269
-4081.7615764141083,8708.0,-5284.0,15664.0,1394.0,-112.0,718.0,0.9099501312825178,0.08756449481318201,-0.055444297722220225,0.4015583988377417
-4081.777189016342,9188.0,-5492.0,16276.0,1804.0,370.0,686.0,0.8613595224611624,0.21131230809478388,0.03116176048165187,0.4609076113461543
-4081.7927837371826,8740.0,-4768.0,15852.0,2417.0,929.0,554.0,0.7716933050790671,0.34784221122584347,0.18293160417389578,0.5000312662024512
-4081.808369398117,8120.0,-4076.0,14500.0,2383.0,882.0,449.0,0.6494657460721366,0.46528049280780454,0.32439506167881355,0.5064347456976941
-4081.824008703232,7768.0,-3264.0,13424.0,2279.0,207.0,282.0,0.528047066652817,0.5816037353328399,0.41693074227483184,0.45724407770074055
-4081.83957862854,7724.0,-3712.0,13640.0,1630.0,-418.0,512.0,0.4350100493114678,0.6840106675574839,0.43158753776424774,0.3957623793543211
-4081.855150938034,8444.0,-4848.0,14028.0,1261.0,-706.0,984.0,0.3483054293261121,0.784258013257507,0.38507156395316583,0.33962124076388955
-4081.870780944824,9092.0,-5276.0,14792.0,1381.0,-427.0,1063.0,0.23375552745669806,0.8640898709329519,0.33611797447298686,0.29279985582423407
-4081.886380672455,9232.0,-4956.0,15108.0,1781.0,699.0,962.0,0.05338388364526599,0.8952677244464811,0.3178048175035571,0.3076458361540086
-4081.902002811432,8708.0,-4420.0,15632.0,2187.0,2092.0,944.0,-0.19366995940263582,0.8437221386836073,0.30116627373130495,0.39990470750785345
-4081.9176020622253,8036.0,-3784.0,15116.0,2410.0,2877.0,986.0,-0.4558307044127759,0.6898940263338201,0.25004844008432275,0.5037264922106636
-4081.933254003525,6800.0,-2584.0,14948.0,2120.0,2637.0,762.0,-0.6456746651130942,0.4843803459507542,0.18415178098520651,0.5608636455036982
-4081.9488759040833,6584.0,-1320.0,14728.0,1784.0,2398.0,99.0,-0.7397397757626547,0.25914125815284167,0.127831035799413,0.607692437639328
-4081.9644997119904,6984.0,-648.0,15028.0,1546.0,2128.0,-150.0,-0.7703600450954995,0.04337211253583186,0.07396128817043911,0.6318180027720073
-4081.9801251888275,7380.0,-784.0,15196.0,1033.0,2223.0,-537.0,-0.741478357095838,-0.14833107408120969,-0.015921830160907778,0.6541821105355137
-4081.995743751526,8024.0,-1676.0,14988.0,632.0,2239.0,-975.0,-0.6588291636450639,-0.3080694851311173,-0.134010384688826,0.6731110920623331
-4082.011342048645,7444.0,-3288.0,15872.0,460.0,1969.0,-1037.0,-0.5518363372159251,-0.42949943632950954,-0.24327654474221333,0.6721781117375328
-4082.0269379615784,7400.0,-4608.0,17372.0,521.0,1875.0,-994.0,-0.42653795136279166,-0.5337292182959155,-0.3342157684125544,0.6492290179350193
-4082.0426108837128,7536.0,-3608.0,18364.0,726.0,1672.0,-927.0,-0.28690680028032867,-0.6185959691456892,-0.39227700125117737,0.6173672077451093
-4082.0582094192505,7452.0,-2376.0,18244.0,1134.0,1635.0,-1186.0,-0.10369141120676961,-0.6806571407516762,-0.4274793800999369,0.5858458223586434
-4082.0738382339478,6752.0,-2196.0,16644.0,1682.0,1744.0,-1781.0,0.14742590820385854,-0.6950109485173487,-0.447881440930987,0.5427960923780364
-4082.089437007904,5452.0,-2476.0,14832.0,2104.0,1834.0,-1784.0,0.4143824097279632,-0.6580593594820692,-0.4157731583261863,0.4715694845105684
-4082.1050431728363,4080.0,-2452.0,13660.0,2240.0,1878.0,-675.0,0.6182308945882117,-0.6092042681377262,-0.2847779521169267,0.40689339961165066
-4082.120688199997,2644.0,-1756.0,13580.0,2313.0,2243.0,380.0,0.7539284015587941,-0.5516651886225464,-0.05902008512523221,0.3518154552273992
-4082.1362612247467,1564.0,-604.0,14724.0,2232.0,2395.0,866.0,0.8124897897977491,-0.4628182117062146,0.20026829032009608,0.2924931730480842
-4082.1518924236298,2164.0,292.0,15700.0,2092.0,2548.0,888.0,0.7953300081978405,-0.3486697160394056,0.45059130044685725,0.20699537951034844
-4082.167471885681,3356.0,1408.0,16500.0,2118.0,2536.0,1017.0,0.7101560821078801,-0.19851987066151405,0.6661020907547097,0.11214367877827991
-4082.1830887794495,3648.0,2168.0,17088.0,1984.0,2586.0,457.0,0.5668745047257813,-0.07134953920605179,0.8204906205218484,-0.018912450466724566
-4082.1986470222473,3904.0,2400.0,16776.0,1609.0,2923.0,-92.0,0.35279749756509055,0.006258964938024555,0.9234721858231006,-0.15064485746556175
-4082.214245557785,3608.0,2356.0,16160.0,985.0,2806.0,-768.0,0.11204047617938219,0.011189364068311405,0.9633222371215883,-0.24358160295125456
-4082.229833126068,3592.0,1812.0,15672.0,637.0,2128.0,-1055.0,-0.08796126415079275,-0.025473470139366326,0.9499695928004845,-0.2986162940673781
-4082.2454104423523,3704.0,1336.0,15620.0,641.0,1129.0,-2032.0,-0.2281628383530957,-0.16584443240405938,0.9003191780333858,-0.33145545869773063
-4082.260987520218,4048.0,924.0,15860.0,621.0,337.0,-2625.0,-0.3129742697269677,-0.36464165620582767,0.8149640914331366,-0.32390909021344877
-4082.276595592499,4208.0,560.0,15552.0,566.0,-360.0,-3036.0,-0.3428555828890385,-0.5850888058555528,0.6872492765842577,-0.2604027080864467
-4082.2921681404114,4168.0,204.0,14888.0,642.0,-904.0,-3325.0,-0.31698152324703605,-0.7882374536329525,0.5066746307967159,-0.14657847426289927
-4082.3077969551086,4200.0,-728.0,14788.0,846.0,-965.0,-2596.0,-0.2417593915707553,-0.9101672952403347,0.33342986445546235,-0.04441189875971919
-4082.3234102725983,4320.0,-2288.0,15560.0,1145.0,-832.0,-1877.0,-0.13114873364458746,-0.9719314798942557,0.1933902252255967,0.027375698003453908
-4082.3389949798584,4132.0,-2976.0,16300.0,1295.0,-415.0,-1464.0,-0.010620484978961002,-0.9954519053492038,0.07588012342535884,0.0566119802197716
-4082.354637145996,4420.0,-2356.0,16616.0,1193.0,-55.0,-1672.0,0.10008695871255696,-0.9915374810463541,-0.06247017988473537,0.054161803894356424
-4082.370228767395,4924.0,-1224.0,15492.0,1148.0,-189.0,-1725.0,0.20327649410400772,-0.9555676619915698,-0.2046572666677136,0.06070019358164121
-4082.3858213424683,4756.0,288.0,15068.0,1483.0,-525.0,-1360.0,0.31962115743273123,-0.8876534920910593,-0.31442517175895085,0.1051209068847066
-4082.401407957077,4444.0,1132.0,15760.0,2003.0,-312.0,-1092.0,0.4669946384894278,-0.7832389157803276,-0.3817297331702408,0.15078202559709253
-4082.416996240616,4556.0,664.0,17120.0,1992.0,348.0,-1001.0,0.616194054529718,-0.6605109786137059,-0.402026325472343,0.14968289120736888
-4082.4325988292694,4340.0,-256.0,17404.0,1691.0,703.0,-1112.0,0.7401465236676853,-0.5304253729010494,-0.39927468991548337,0.10682588299807343
-4082.448179244995,4092.0,-624.0,16344.0,1221.0,686.0,-1210.0,0.8213171303095979,-0.4103172646547619,-0.3944139266113285,0.03893030029777374
-4082.4637961387634,4036.0,-724.0,15428.0,843.0,494.0,-1244.0,0.864638269026562,-0.30568424700567554,-0.396824642860024,-0.038574702673361716
-4082.479418516159,3924.0,-56.0,15048.0,684.0,-369.0,-1212.0,0.8593701748382168,-0.21151172177547153,-0.45560036744112054,-0.09578099674582705
-4082.4950079917908,4156.0,164.0,14948.0,645.0,-455.0,-1251.0,0.8358961055318849,-0.11611444459436683,-0.5137912384229876,-0.15431688123125928
-4082.5106081962585,4584.0,316.0,15596.0,548.0,-292.0,-1030.0,0.8101438519149878,-0.03363720743726844,-0.549720245432965,-0.20085599130045617
-4082.5261812210083,4940.0,268.0,15580.0,121.0,-429.0,-1217.0,0.7638258575653796,0.025633478553195057,-0.5818692332384534,-0.27810282181644524
-4082.5417881011963,5016.0,-252.0,14888.0,-508.0,-1070.0,-1234.0,0.6733240384111685,0.028118480233321235,-0.6309721604008988,-0.3843412847536239
-4082.5573828220367,5056.0,-856.0,14152.0,-988.0,-1942.0,-1164.0,0.5179569268407306,-0.03033930296639373,-0.6930541422227533,-0.5004758781211169
-4082.5729694366455,5276.0,-1280.0,14420.0,-1234.0,-2323.0,-936.0,0.32388969983560495,-0.12729855314261518,-0.7253183580063802,-0.5939729120482911
-4082.588578939438,5700.0,-1392.0,15300.0,-1315.0,-2070.0,-792.0,0.13388835953651715,-0.2162728684388216,-0.7067059580809701,-0.6602019708927886
-4082.6041707992554,6104.0,-1516.0,16032.0,-1283.0,-1173.0,-656.0,-0.00043790717725726114,-0.2550720943752113,-0.6502617527482811,-0.7156100109843913
-4082.6198420524597,6452.0,-1400.0,16156.0,-1234.0,-398.0,-488.0,-0.08036124704593495,-0.2503611106095287,-0.579685097179536,-0.7712500064022935
-4082.6354372501373,6368.0,-968.0,15464.0,-1433.0,-250.0,-297.0,-0.14309054668989848,-0.2400983291018714,-0.48375392162077513,-0.8293732761109417
-4082.6510536670685,6080.0,-724.0,15068.0,-1617.0,-401.0,-50.0,-0.19544003363595974,-0.24423700116785999,-0.35876581432525867,-0.8794535638590817
-4082.6666646003723,5948.0,-268.0,14944.0,-1828.0,-631.0,179.0,-0.23700934244424207,-0.2633062512014703,-0.2007659090330352,-0.9133397174340527
-4082.6822867393494,5912.0,-476.0,14872.0,-2262.0,-940.0,98.0,-0.29101631668024824,-0.28658746133996793,0.0014775564932866863,-0.912784173425122
-4082.6978554725647,5728.0,-468.0,15232.0,-2531.0,-1129.0,-121.0,-0.3535795268136629,-0.3032451104656926,0.22246811247248252,-0.8564647454097613
-4082.713436126709,6112.0,-524.0,15536.0,-2468.0,-1011.0,-188.0,-0.4025759320993745,-0.29813345474542136,0.42170339509920485,-0.7557878727643649
-4082.729010105133,6140.0,-464.0,15836.0,-2262.0,-871.0,26.0,-0.4184887226456369,-0.2691251883914021,0.5890176024469503,-0.6367865309500208
-4082.74458360672,5804.0,-888.0,16168.0,-1974.0,-672.0,8.0,-0.42300652779082765,-0.23014317204936022,0.7116687104775028,-0.5114951068511748
-4082.760173559189,5556.0,-1444.0,16928.0,-1623.0,-343.0,329.0,-0.41520225236238734,-0.16330139405849883,0.7947096073350428,-0.41155362268012363
-4082.7758276462555,5600.0,-2280.0,17028.0,-1271.0,-219.0,494.0,-0.397587782005968,-0.09016994752346406,0.8491328899366084,-0.33580749156487577
-4082.791447877884,5392.0,-2516.0,16696.0,-171.0,-288.0,712.0,-0.355959201784,-0.039804554773787956,0.8676420581092381,-0.34482735257592806
-4082.8070681095123,5252.0,-2000.0,16160.0,497.0,-42.0,1117.0,-0.3157111023053974,0.027926090059440488,0.8529611732149873,-0.41473349317702257
-4082.822642326355,5160.0,-888.0,15412.0,583.0,210.0,1211.0,-0.28698444764210046,0.1088493156999691,0.817312459130028,-0.48763931079644623
-4082.838232278824,5476.0,68.0,15020.0,400.0,334.0,1294.0,-0.25770301861087336,0.20383168534697707,0.7738450874941404,-0.5414846062526995
-4082.853818178177,5692.0,520.0,15396.0,61.0,435.0,1150.0,-0.23254732954941645,0.2989421816120432,0.7364165005971426,-0.5605765328844279
-4082.869392156601,5932.0,436.0,15768.0,-107.0,630.0,846.0,-0.22794836947157804,0.38463486771389316,0.7037288566684328,-0.5521424233710944
-4082.885009765625,5892.0,-716.0,16040.0,-26.0,841.0,652.0,-0.24631882188434276,0.46368928849971663,0.6634535663949109,-0.5330559510539299
-4082.900584459305,5932.0,-1520.0,16316.0,236.0,1098.0,639.0,-0.287971112275465,0.5432128848543833,0.5991603262231358,-0.5128345773280071
-4082.9161870479584,5892.0,-2148.0,16148.0,341.0,1291.0,630.0,-0.3407179180080721,0.6201927902866529,0.517258598401794,-0.4813686171782616
-4082.931911468506,5664.0,-2532.0,15908.0,407.0,1518.0,714.0,-0.3968941165213019,0.6961867887834814,0.41168275272130694,-0.4339542908025299
-4082.947506427765,5476.0,-2100.0,15416.0,437.0,1342.0,603.0,-0.44494766660123564,0.7468119537132158,0.30921396501571224,-0.38559072034532577
-4082.963092803955,5152.0,-1424.0,15236.0,296.0,1179.0,556.0,-0.47422405493638065,0.7846172018609215,0.21574448245782624,-0.33606801477177084
-4082.978726863861,5096.0,-816.0,15156.0,173.0,949.0,360.0,-0.4914904304576403,0.8087533061219695,0.1461427311135645,-0.2880929515764237
-4082.994354248047,4992.0,-716.0,15204.0,121.0,520.0,148.0,-0.5024437170702787,0.817512251556184,0.1102220436691146,-0.258988669291813
-4083.009984731674,5076.0,-980.0,15236.0,85.0,495.0,0.0,-0.5128672548265194,0.8241246129882437,0.08651951435992634,-0.2242770046808411
-4083.025581598282,5276.0,-1524.0,15316.0,69.0,381.0,-126.0,-0.5229350916015677,0.8269617031462195,0.07714300309433508,-0.1916303435647688
-4083.041175842285,5568.0,-1616.0,15412.0,195.0,397.0,-175.0,-0.5422354104756385,0.8227537110809666,0.06834992793556956,-0.15615818223844624
-4083.0567779541016,5948.0,-1688.0,15880.0,167.0,367.0,-248.0,-0.5594139735159908,0.8176117120758718,0.06647606516642324,-0.11894548024789169
-4083.072359085083,6084.0,-1556.0,15880.0,163.0,490.0,-509.0,-0.5781109133526543,0.8100987931548195,0.07704950601082328,-0.05992571080223468
-4083.0879969596863,5948.0,-1584.0,15948.0,88.0,571.0,-256.0,-0.5887123225468807,0.8056284228264801,0.06579550624777471,-0.007183103310900186
-4083.103588104248,5588.0,-1508.0,15544.0,246.0,605.0,-308.0,-0.6085648160879628,0.7899546212227261,0.056117519835050034,0.04971302642413005
-4083.1191964149475,5456.0,-1380.0,15344.0,-20.0,529.0,-344.0,-0.6074562206446568,0.7857647640220764,0.05159146330715928,0.1044461417921547
-4083.1348016262054,5236.0,-1292.0,15348.0,-18.0,555.0,-414.0,-0.6039351532024284,0.7782911179124039,0.05032152808823443,0.1642954969434189
-4083.1504073143005,5264.0,-1184.0,15436.0,20.0,521.0,-428.0,-0.6004926216417983,0.7664704481468395,0.05214783138556721,0.22183838070344225
-4083.166005373001,5388.0,-1180.0,15704.0,243.0,569.0,-533.0,-0.6075619598346678,0.7383198466963097,0.06254785816623003,0.28607697281503197
-4083.181620836258,5372.0,-1312.0,15832.0,-18.0,597.0,-538.0,-0.5948479157018877,0.7195544318122824,0.06496605865931977,0.35238727001226555
-4083.19721698761,5272.0,-1284.0,15996.0,-67.0,616.0,-580.0,-0.5747969117583396,0.6987677810842947,0.06717870295089683,0.42049865662263636
-4083.212862968445,5052.0,-1696.0,15864.0,9.0,658.0,-565.0,-0.5569488346040938,0.6688132285521251,0.06876794068403609,0.48761442890966794
-4083.228484392166,4940.0,-1636.0,15364.0,73.0,695.0,-597.0,-0.5383135118849319,0.629938148925099,0.07271144463851595,0.5550761544774833
-4083.2440745830536,4808.0,-1568.0,15456.0,24.0,622.0,-569.0,-0.5146859883204887,0.5933058876917825,0.07572952108756097,0.6142894242070888
-4083.2596611976624,4796.0,-1500.0,15512.0,-66.0,470.0,-452.0,-0.48940121706712764,0.5669918811537471,0.07435712237645972,0.658390213923963
-4083.275272846222,4932.0,-1484.0,15564.0,-110.0,223.0,-550.0,-0.45322763331723365,0.5543659290006624,0.08560313162441598,0.692773579906873
-4083.2908806800842,5324.0,-1636.0,15784.0,-207.0,9.0,-525.0,-0.4110913480635589,0.5572398183869596,0.09799863343537621,0.7147614680410194
-4083.3064708709717,5196.0,-1688.0,16076.0,-280.0,-41.0,-761.0,-0.3488249583510364,0.5617585043232948,0.11869138412591974,0.740716468418332
-4083.3220365047455,5080.0,-1788.0,15932.0,-296.0,-248.0,-462.0,-0.3015102662036828,0.5810579664915778,0.1295387161691072,0.7447703806971087
-4083.3376162052155,4996.0,-1576.0,15912.0,-179.0,86.0,-418.0,-0.26606239861361447,0.5748285429867764,0.13668486714142508,0.7616430878739733
-4083.353182554245,4816.0,-1568.0,15628.0,34.0,186.0,-467.0,-0.23875612874255203,0.5554093316071443,0.1578552981437691,0.7807673726530311
-4083.3687477111816,4856.0,-1436.0,15640.0,188.0,224.0,-477.0,-0.21823325283423653,0.5288657840447657,0.1888379380718822,0.7981324845969268
-4083.3843359947205,4908.0,-1432.0,15412.0,159.0,311.0,-420.0,-0.20125631132155755,0.49652802701771254,0.21305609303870968,0.8170452354418444
-4083.3999598026276,4912.0,-1456.0,15620.0,25.0,286.0,-367.0,-0.18138168895745593,0.46832660289934985,0.2254336597224029,0.8348356371117966
-4083.415528535843,5012.0,-1632.0,15948.0,-81.0,157.0,-305.0,-0.15890748332665744,0.4518037640787776,0.22928669410227895,0.8473779454379752
-4083.4311335086823,4920.0,-1708.0,15832.0,-148.0,85.0,-339.0,-0.12967473371282615,0.440396609934569,0.23027491791187302,0.8580260786102756
-4083.446706533432,4952.0,-1696.0,15768.0,-58.0,96.0,-405.0,-0.0990223816826571,0.4252918674843487,0.24011552003233314,0.8669866967936541
-4083.4622988700867,5088.0,-1636.0,15844.0,-12.0,87.0,-483.0,-0.06383520862344458,0.4081750964156202,0.25600423260594907,0.8739450724696259
-4083.4779267311096,4968.0,-1792.0,15716.0,74.0,179.0,-491.0,-0.033025480453693856,0.3826020147951108,0.27769175391083195,0.8805749858617665
-4083.4935257434845,4820.0,-1556.0,15668.0,98.0,235.0,-524.0,-0.0017570931897038962,0.3509843495743596,0.3014862165503102,0.8865173208728444
-4083.5091519355774,4796.0,-1428.0,15600.0,109.0,508.0,-451.0,0.016365612782073286,0.29914825591303923,0.32289209142867775,0.8977656626287667
-4083.524744987488,4956.0,-1524.0,15384.0,103.0,175.0,-315.0,0.03336883270746058,0.2764837400028174,0.33904916919615025,0.8986038745660937
-4083.5403208732605,5052.0,-1608.0,15660.0,144.0,146.0,-247.0,0.04488876256818792,0.25798330790300933,0.35637721396674965,0.8968973704966559
-4083.5559210777283,5188.0,-1988.0,15828.0,168.0,21.0,-184.0,0.05480415550893192,0.2511725559219588,0.3734516499586887,0.8913151613395324
-4083.571481704712,5240.0,-1852.0,15896.0,145.0,25.0,-56.0,0.05512364059048255,0.2480366142672785,0.3858321103533943,0.8868893983192735
-4083.5870921611786,5252.0,-1732.0,15792.0,212.0,37.0,65.0,0.044209486886285364,0.2483018317574587,0.40072928624913745,0.8807995008839407
-4083.602660894394,5076.0,-1588.0,15756.0,226.0,118.0,167.0,0.02229945487318433,0.24582401918732022,0.41459135319754925,0.8758922854762314
-4083.6182425022125,5004.0,-1544.0,15804.0,231.0,76.0,120.0,0.005377862564614973,0.2447071122269391,0.42950714016569,0.8692601016764079
-4083.6338198184967,5048.0,-1516.0,15696.0,185.0,-30.0,91.0,-0.004393697015318055,0.2504140469772771,0.4413199268709357,0.8616903287432393
-4083.6494131088257,5192.0,-1472.0,15812.0,136.0,-114.0,6.0,-0.0034679007270371548,0.25911079296546835,0.4512193163596835,0.85396176681234
-4083.6649997234344,5152.0,-1460.0,15640.0,107.0,-144.0,-38.0,0.002574222617754661,0.26825437755613835,0.4598566829316882,0.8465015023394511
-4083.680603981018,5368.0,-1564.0,15664.0,132.0,-190.0,14.0,0.006032213432793162,0.28280158250945925,0.46896578802437133,0.8366946677217006
-4083.6961908340454,5000.0,-1568.0,15868.0,170.0,-163.0,4.0,0.008176282509324267,0.294864517694568,0.4809264640307999,0.8256499263028545
-4083.7118606567383,4872.0,-1516.0,15612.0,216.0,-200.0,40.0,0.008090422575878038,0.31097361061403983,0.49499381822115207,0.8113020883043852
-4083.7274503707886,4796.0,-1512.0,15444.0,182.0,-222.0,127.0,0.003710997252790525,0.3321513151084417,0.5039367749398206,0.7973139025718635
-4083.7430806159973,4836.0,-1616.0,15372.0,133.0,-285.0,114.0,0.00441916468314703,0.35685555831253396,0.5094339042261169,0.7830144818008722
-4083.7586648464203,5084.0,-1680.0,15640.0,99.0,-372.0,110.0,0.010316184263418335,0.3869368136081503,0.5121809883831266,0.7667099280405193
-4083.7742280960083,5292.0,-1640.0,15804.0,177.0,-431.0,94.0,0.017265592020150926,0.4197426591131986,0.5198891529062096,0.7437965233471037
-4083.78981924057,5364.0,-1524.0,16080.0,226.0,-484.0,80.0,0.025694165864532895,0.4545913253511821,0.5301976307780438,0.715246117831709
-4083.80539560318,5308.0,-1504.0,16100.0,11.0,-430.0,73.0,0.04054174724377965,0.48444704645381775,0.526537313246703,0.6974423873493331
-4083.8209624290466,5228.0,-1300.0,15632.0,20.0,-372.0,191.0,0.04510887295517077,0.5155548590535615,0.5179184949703001,0.6811231969729677
-4083.8365404605865,5268.0,-1592.0,15628.0,246.0,-300.0,287.0,0.030483518613658587,0.5468057875564196,0.5178983464741211,0.6571571261936568
-4083.852116584778,5184.0,-1544.0,15604.0,176.0,-281.0,309.0,0.0170205303782232,0.5768664530286984,0.5120159935727813,0.6362193169351353
-4083.8677637577057,5176.0,-1600.0,15564.0,122.0,-257.0,327.0,0.004172231644101472,0.6054575420898286,0.5015102696220516,0.6179734676127029
-4083.8833549022675,5192.0,-1580.0,15436.0,67.0,-301.0,261.0,-0.00029984505603558137,0.6327066217865346,0.4908475197914532,0.5989582232134327
-4083.8989305496216,5280.0,-1316.0,15560.0,65.0,-369.0,218.0,0.0004950211519911839,0.6608203947813761,0.48180930220750723,0.5754788937062417
-4083.914575576782,5244.0,-1500.0,15716.0,130.0,-400.0,120.0,0.0037617469972792816,0.6854253001496954,0.4809955731305762,0.5466454662786632
-4083.9302463531494,5260.0,-1744.0,15780.0,189.0,-380.0,79.0,0.004609182101640822,0.7063980053026473,0.4847703575390533,0.5157308542217086
-4083.9458467960358,5248.0,-1604.0,15712.0,200.0,-321.0,84.0,0.0020523936448227005,0.724035960502554,0.48814367875238474,0.48732275185297824
-4083.961438894272,5288.0,-1656.0,15656.0,203.0,-300.0,146.0,-0.004228081243479089,0.7425931700315681,0.4871765318869874,0.45956124067422427
-4083.9770679473877,5272.0,-1740.0,15492.0,188.0,-356.0,128.0,-0.006431890215925071,0.7617035250915561,0.48618812160178176,0.4282376455482148
-4083.9929082393646,5308.0,-1676.0,15488.0,246.0,-389.0,201.0,-0.013805598546690126,0.7838607345498642,0.48174572033795326,0.3915262637624473
-4084.008537054062,5416.0,-1632.0,15572.0,500.0,-436.0,301.0,-0.039916512931250425,0.8091630441073772,0.47777451217677075,0.3396959751903768
-4084.0241339206696,5652.0,-1704.0,15788.0,301.0,-477.0,450.0,-0.05454930876498128,0.839346975557583,0.4556544825665521,0.2913760800968544
-4084.0397684574127,5716.0,-1744.0,15744.0,272.0,-457.0,551.0,-0.07019074699033556,0.8696373575454369,0.42341778163890065,0.24397030063169772
-4084.055367708206,5680.0,-1820.0,15824.0,286.0,-412.0,665.0,-0.09062995508691842,0.8988543383799951,0.3805351525521558,0.19758564545156568
-4084.0709517002106,5636.0,-1540.0,15652.0,342.0,-349.0,641.0,-0.1166724082340737,0.9211732081061537,0.33805674345126796,0.15344415280942478
-4084.0866124629974,5592.0,-1508.0,15724.0,337.0,-500.0,610.0,-0.13683987184362204,0.939800051603523,0.29777422931152314,0.09685670259597395
-4084.1022181510925,5592.0,-1356.0,15728.0,296.0,-169.0,499.0,-0.16076272507834224,0.949335265480469,0.26099428940059927,0.06928117233988654
-4084.1178011894226,5444.0,-1416.0,16048.0,6.0,-70.0,507.0,-0.1626083993908471,0.9602586705838575,0.21977821548642912,0.05620791771334368
-4084.133368253708,5492.0,-1328.0,15860.0,218.0,-32.0,93.0,-0.18072346385937554,0.9588872416077556,0.21346134908531522,0.04804726776015252
-4084.148945093155,5408.0,-1408.0,15492.0,217.0,-15.0,40.0,-0.19878010923975975,0.9560834133374734,0.21122250950756158,0.04214292810096435
-4084.164516687393,5420.0,-1484.0,15436.0,268.0,14.0,-254.0,-0.22040102050253949,0.9461935984568823,0.23304558774228226,0.042788064159406336
-4084.180097579956,5476.0,-1520.0,15364.0,214.0,-22.0,-22.0,-0.23755333183052224,0.9415290863566991,0.23604536452716454,0.037067235745000364
-4084.195784330368,5556.0,-1612.0,15564.0,237.0,-77.0,11.0,-0.25547240400719,0.9368526331300524,0.237450857339664,0.025653166212629558
-4084.2114078998566,5712.0,-1600.0,15756.0,165.0,-104.0,57.0,-0.26695069046405806,0.9344236903969567,0.2354438481453974,0.01248559394590297
-4084.2269973754883,5824.0,-1580.0,15724.0,131.0,-116.0,61.0,-0.27533877948181723,0.9326117390783806,0.23328689586615195,-0.0010605959630443176
-4084.242607355118,5752.0,-1596.0,15780.0,156.0,-49.0,109.0,-0.2870461394070492,0.9309222258877025,0.22554667186269586,-0.010817671258431166
-4084.258178472519,5560.0,-1576.0,15488.0,134.0,-20.0,121.0,-0.2974490369966093,0.9297918567233924,0.21606501497813915,-0.018085432346309167
-4084.273782968521,5468.0,-1544.0,15556.0,183.0,-37.0,73.0,-0.31150149845132963,0.9261963808199716,0.21078359308107797,-0.026407527457014152
-4084.2894158363342,5616.0,-1612.0,15524.0,119.0,-55.0,17.0,-0.32011276665336347,0.9230631743943783,0.21062113153499895,-0.033480317403206276
-4084.305161714554,5484.0,-1764.0,15556.0,205.0,-58.0,29.0,-0.3354852849596047,0.9175132288261133,0.2092736655521446,-0.04270399760001649
-4084.320763349533,5520.0,-1744.0,15360.0,193.0,-63.0,24.0,-0.34971387227394,0.9118939590571519,0.20844879474638234,-0.05194915728883632
-4084.3363542556763,5584.0,-1736.0,15460.0,160.0,-44.0,40.0,-0.3614968725244618,0.9074098152868095,0.20586483752519114,-0.059557593528600475
-4084.3519699573517,5652.0,-1628.0,15556.0,151.0,-26.0,117.0,-0.3723994952233271,0.9044555188344755,0.19661043156699476,-0.06799388653629924
-4084.3675668239594,5584.0,-1660.0,15664.0,145.0,-32.0,153.0,-0.3823956521875364,0.9019915923576212,0.1846842614072905,-0.077951626619817
-4084.3831901550293,5492.0,-1620.0,15600.0,112.0,-58.0,118.0,-0.389504658405979,0.8996272287121236,0.17655370229767803,-0.0882369573635052
-4084.3988304138184,5508.0,-1504.0,15692.0,69.0,-36.0,83.0,-0.3937828389724208,0.8982068916329262,0.17072693697918429,-0.09493033521295052
-4084.4144608974457,5560.0,-1456.0,15800.0,76.0,40.0,-10.0,-0.4004826540307379,0.8957185989533422,0.1695089955774102,-0.0925663855181536
-4084.4300475120544,5556.0,-1396.0,15744.0,49.0,123.0,-28.0,-0.40640581990047386,0.8944890782032868,0.1669984255783057,-0.08267481103954834
-4084.4456140995026,5488.0,-1308.0,15856.0,69.0,161.0,-30.0,-0.4143813092878462,0.8926238765510301,0.16311906518953256,-0.0700208261561843
-4084.461179971695,5428.0,-1608.0,15608.0,106.0,199.0,-19.0,-0.42558374436367663,0.8895252370841851,0.15673015726255404,-0.05530810906342848
-4084.476740837097,5384.0,-1624.0,15648.0,119.0,19.0,-117.0,-0.435679476764644,0.8834619075933913,0.1645247361009481,-0.05108877145171677
-4084.4923326969147,5384.0,-1780.0,15376.0,124.0,265.0,-142.0,-0.4495798757544434,0.8774934486904368,0.16478524287347582,-0.027000121353668114
-4084.5079514980316,5388.0,-1376.0,15652.0,103.0,319.0,-213.0,-0.4623616223637855,0.870572597999672,0.16824473198292073,0.004334966807817154
-4084.523512840271,5312.0,-1432.0,15668.0,97.0,329.0,-492.0,-0.47381018946181824,0.8580847555522564,0.1921351057011422,0.04773424146450112
-4084.539096593857,5424.0,-1432.0,15388.0,7.0,503.0,-504.0,-0.4798261580377406,0.8455623599345751,0.2087131706858921,0.10597153347411249
-4084.5546872615814,5420.0,-1560.0,15460.0,-37.0,184.0,-267.0,-0.4778668419409297,0.8401500883246195,0.22028348960796096,0.13140127346291613
-4084.5702612400055,5428.0,-1660.0,15540.0,-33.0,170.0,-304.0,-0.47509025985558684,0.833286427704516,0.2349981981291951,0.15715858637003924
-4084.5858674049377,5388.0,-1716.0,15860.0,30.0,194.0,-310.0,-0.4768373888625096,0.8225419349315765,0.24978180289707796,0.18346640238280024
-4084.601454257965,5340.0,-1848.0,15476.0,63.0,212.0,-355.0,-0.48006143401038154,0.8081843187670293,0.26727134919968054,0.21200271784095479
-4084.617035627365,5224.0,-1708.0,15540.0,46.0,120.0,-308.0,-0.4802861849482303,0.7964490039691233,0.2846923949494982,0.23225934832076148
-4084.6326880455017,5320.0,-1684.0,15628.0,79.0,75.0,-283.0,-0.48181963992061017,0.7842437302519695,0.3027064771852949,0.24734670973618866
-4084.648291349411,5292.0,-1680.0,15568.0,34.0,79.0,-211.0,-0.48166796126066125,0.7753130980657394,0.31448495903252693,0.26073892230546064
-4084.6639075279236,5124.0,-1576.0,15568.0,39.0,42.0,-141.0,-0.48229280199922564,0.7687123230634205,0.32310320147962796,0.2684759555412555
-4084.679478406906,5424.0,-1604.0,15720.0,15.0,119.0,-83.0,-0.4847554288351947,0.7628210298305552,0.3239688999478857,0.27957181998480213
-4084.695109128952,5316.0,-1644.0,15740.0,53.0,151.0,-85.0,-0.49050344244060795,0.754325090974054,0.3244712362555403,0.29175065882307755
-4084.7106795310974,5392.0,-1672.0,15704.0,30.0,126.0,-123.0,-0.49294023471201215,0.7461845843840238,0.3278772698572912,0.30449135774375774
