programtime,ax,ay,az,gx,gy,gz,q0,q1,q2,q3
-85.96242785453796,8820.0,9884.0,9720.0,699.0,969.0,347.0,0.9941608142729669,0.06088785493091697,0.08384900076609929,0.030104643438348875
-85.97021770477295,8844.0,9936.0,9672.0,715.0,964.0,340.0,0.9766564111573548,0.12237134211829957,0.1663296963913887,0.05917720229742688
-85.9779999256134,8892.0,10028.0,9816.0,807.0,881.0,329.0,0.9480443895472269,0.19045725411797013,0.24041611579570588,0.08448645493553802
-85.9857804775238,8624.0,10052.0,9772.0,863.0,881.0,321.0,0.9072861897723561,0.2606472763281633,0.3121575351571818,0.10701607559457203
-85.99359393119812,8564.0,10096.0,9780.0,886.0,851.0,258.0,0.8564563227055422,0.3280393916266822,0.3794422467766609,0.12205042482505365
-86.00137090682983,8760.0,9936.0,10072.0,807.0,824.0,238.0,0.7993709706665738,0.3855139971392347,0.44029346835954275,0.13611271426738303
-86.00917434692383,8976.0,9848.0,10104.0,704.0,815.0,333.0,0.7369054219070634,0.4356963990188385,0.49176743530123823,0.15907179707048055
-86.01695251464844,8968.0,9844.0,9984.0,720.0,789.0,346.0,0.667709820327507,0.4836254368611883,0.5366386400367191,0.17969140958480362
-86.02473616600037,9240.0,9968.0,9792.0,743.0,875.0,506.0,0.5839801963602714,0.5337448874163805,0.5743738692101136,0.21018606943491103
-86.03250885009766,9200.0,9968.0,9956.0,515.0,973.0,480.0,0.49970274080342175,0.5631392288793642,0.607627162840793,0.2529043509090973
-86.0402979850769,9248.0,9592.0,9752.0,759.0,1099.0,544.0,0.38905672836615013,0.5961414063943852,0.6404394911180343,0.2882491004524135
-86.04807567596436,9208.0,9636.0,10040.0,797.0,1169.0,738.0,0.26116554404670295,0.6289770097233011,0.6553927255268058,0.3265591143558378
-86.05585503578186,9196.0,9632.0,9916.0,838.0,1246.0,505.0,0.1282725819696677,0.6353936413773471,0.6734941718345143,0.3552839226829886
-86.06365537643433,9136.0,9500.0,9784.0,798.0,1307.0,538.0,-0.009412365390258852,0.6291156660992651,0.6762363996889533,0.38318300821142987
-86.07142901420593,9368.0,9476.0,10060.0,711.0,1273.0,530.0,-0.14005679087406478,0.6116152247560606,0.6637655503792845,0.4070948369929758
-86.07919764518738,9312.0,9864.0,9636.0,675.0,1313.0,519.0,-0.26813184830968084,0.5813195759978247,0.6380279501733691,0.42789390890886997
-86.0869631767273,8992.0,9924.0,9268.0,740.0,1310.0,430.0,-0.391079973323645,0.5339800880984087,0.6075136018659514,0.4391456973800962
-86.09473156929016,8848.0,10072.0,9304.0,767.0,1337.0,427.0,-0.5091702396471344,0.4744822141068704,0.5658555906290049,0.4420630567100373
-86.10250949859619,8796.0,10052.0,9572.0,807.0,1529.0,406.0,-0.6263074808493742,0.3948160797870671,0.506156744369185,0.4423398610833875
-86.11031675338745,8720.0,10060.0,9660.0,830.0,1190.0,429.0,-0.7178166224228748,0.31949341352830746,0.4544144961522178,0.4197269600254096
-86.11809158325195,8812.0,10068.0,9512.0,885.0,1145.0,437.0,-0.7969968907969591,0.2371504748385149,0.39947272528360933,0.38597558225661543
-86.12586712837219,8848.0,10016.0,9584.0,912.0,1044.0,486.0,-0.8615623746437194,0.1539625987990311,0.3447522260332078,0.33934008813353
-86.13362097740173,9200.0,9896.0,9520.0,914.0,989.0,539.0,-0.9122327158836434,0.07131721875244534,0.28802767828943115,0.28246306470079907
-86.14140558242798,8996.0,9908.0,9584.0,953.0,957.0,627.0,-0.9496312619939845,-0.012546512966968149,0.22965150773245135,0.21284556902198823
-86.14918732643127,9076.0,9924.0,9760.0,987.0,965.0,636.0,-0.9711345167603551,-0.09889534801641657,0.16743307508214506,0.13814349737095988
-86.1569721698761,9124.0,9808.0,9696.0,1007.0,1011.0,676.0,-0.9760806847715582,-0.18499931314271464,0.09902058873794359,0.0568917740855491
-86.16474556922913,9124.0,9736.0,9776.0,1062.0,1080.0,656.0,-0.9615490262505733,-0.27249749307953225,0.022919161879219437,-0.02536332787113636
-86.17253279685974,9168.0,9720.0,9852.0,1054.0,1124.0,752.0,-0.9267191945206127,-0.35312591132622867,-0.05493989093861815,-0.11608287401998595
-86.18031287193298,9236.0,9664.0,9848.0,1017.0,1192.0,848.0,-0.8705995281901447,-0.42235298883217387,-0.13360434683039804,-0.2140660945774686
-86.18810200691223,9244.0,9592.0,9804.0,1057.0,1210.0,921.0,-0.790072382739577,-0.48453443589714384,-0.20835698006360012,-0.31240899366186664
-86.19587731361389,9172.0,9620.0,9960.0,1027.0,1216.0,1010.0,-0.6877549189983048,-0.5333808469177456,-0.27358375806634255,-0.40945081616384715
-86.203693151474,9152.0,9564.0,9812.0,1008.0,1072.0,1178.0,-0.5655404770462785,-0.5759299891622286,-0.3146895447807802,-0.4994387918569482
-86.21151161193848,9324.0,9396.0,9876.0,994.0,1146.0,1239.0,-0.42394603301883577,-0.600299846480707,-0.34711225981951543,-0.58260014974751
-86.21930289268494,9064.0,9632.0,9656.0,1101.0,1162.0,1330.0,-0.2591939474449764,-0.6121436859692654,-0.3702290768387506,-0.648867502652875
-86.22706317901611,8844.0,9748.0,9588.0,1194.0,1102.0,1355.0,-0.08168946247692893,-0.6101069394075895,-0.38381225846767053,-0.6883200596066342
-86.23487567901611,8760.0,9852.0,9572.0,1333.0,1123.0,1388.0,0.10824621678625264,-0.5875064114953659,-0.390626856221782,-0.7003782065438563
-86.24266052246094,8608.0,10220.0,9688.0,1417.0,1063.0,1042.0,0.27639762980537785,-0.5359606873015724,-0.4072669387778929,-0.6859184590632325
-86.25044918060303,8464.0,10108.0,9672.0,1390.0,1039.0,1356.0,0.45124047407889845,-0.47948404894568986,-0.394769850853056,-0.6408071833376668
-86.25824499130249,8716.0,10108.0,9740.0,1335.0,1026.0,1372.0,0.6083315149936221,-0.40931716207357455,-0.3651483273935028,-0.5736365815560638
-86.26601457595825,8724.0,10156.0,9496.0,1345.0,974.0,1390.0,0.7438124062801174,-0.3274273819174502,-0.3254349842429226,-0.48334923695530374
-86.27378153800964,8584.0,10232.0,9724.0,1311.0,960.0,1369.0,0.8517471085054654,-0.23643396440063758,-0.27472312732740906,-0.37835571482643826
-86.28158402442932,8588.0,10156.0,9612.0,1294.0,915.0,1400.0,0.9308703297841979,-0.14095561000290774,-0.21702461899819941,-0.25789970896620534
-86.28934073448181,8568.0,10080.0,9672.0,1250.0,898.0,1431.0,0.9791068636815907,-0.04527510321598154,-0.1522303330863403,-0.12698755926783964
-86.2971179485321,8584.0,10100.0,9720.0,1203.0,847.0,1477.0,0.9951180543944148,0.04677850439746681,-0.08612282385593716,0.01160553987066738
-86.30489540100098,8556.0,10152.0,9796.0,1232.0,521.0,1491.0,0.977628849169164,0.14016411774760326,-0.045221157858262584,0.15016957165208258
-86.31270098686218,8544.0,10216.0,9740.0,1216.0,1017.0,1468.0,0.9310769833454399,0.22113746800703044,0.038650523682093575,0.2875760914034664
-86.320476770401,8628.0,10192.0,10196.0,1173.0,710.0,1396.0,0.8585204500371232,0.29922614294709016,0.09721272090218958,0.40491485418524215
-86.32825303077698,8628.0,10296.0,10028.0,1122.0,741.0,1383.0,0.7632488093370076,0.36390903081915904,0.15385879167595867,0.511222989074156
-86.33602213859558,8584.0,10388.0,10188.0,1056.0,742.0,1305.0,0.6531155195742032,0.4135371292066196,0.20605532992972722,0.5999736343093898
-86.34378838539124,8612.0,10472.0,10124.0,981.0,713.0,1167.0,0.5379319862662284,0.44836228583594095,0.2529535078441762,0.6675439773235669
-86.35159158706665,8708.0,10300.0,10152.0,967.0,653.0,1273.0,0.4068639272676726,0.4783957903361468,0.2866546385682689,0.7234834695169438
-86.35936880111694,8760.0,10624.0,9924.0,829.0,709.0,957.0,0.29174128931540344,0.4830498688503961,0.32147628341085127,0.7603965041454014
-86.36715149879456,8852.0,10528.0,9760.0,724.0,668.0,898.0,0.18165994524716236,0.4789892053666145,0.34620503062036495,0.7859459791920875
-86.37492752075195,8808.0,10388.0,9648.0,724.0,591.0,824.0,0.07658482945191063,0.4718927052600539,0.36852090928611786,0.7972730887463234
-86.38270950317383,8800.0,10356.0,9488.0,520.0,496.0,830.0,-0.018417052497596967,0.4652513436552445,0.3720631470918633,0.8029763470865059
-86.39048385620117,8736.0,10344.0,9728.0,803.0,267.0,799.0,-0.11504510645830555,0.4686020031821036,0.3934125533056074,0.7825620416269112
-86.39826703071594,8504.0,10360.0,9644.0,830.0,487.0,705.0,-0.2126599408580663,0.4486014634251797,0.4141286204211585,0.7629088820528299
-86.40604615211487,8448.0,10324.0,9860.0,796.0,502.0,670.0,-0.3049859517790673,0.42228657859806645,0.4293964949030579,0.7377508149221683
-86.41383194923401,8276.0,10344.0,9828.0,754.0,476.0,591.0,-0.38693664836252206,0.391813004822977,0.44157416143727524,0.7083606845079244
-86.42160606384277,8200.0,10336.0,9636.0,728.0,390.0,516.0,-0.45706665297271665,0.3614918984444626,0.4541371688709441,0.6739236707144364
-86.42938756942749,8088.0,10476.0,9612.0,737.0,386.0,511.0,-0.5237314275821269,0.3282376393755045,0.464293587184793,0.6343476245396215
-86.43715333938599,8072.0,10364.0,9564.0,696.0,332.0,494.0,-0.5825765696425146,0.29689248489888115,0.4720019252543189,0.5913320348757917
-86.44495797157288,7988.0,10356.0,9504.0,622.0,173.0,549.0,-0.6323951912037806,0.27796862625923024,0.47977801338458687,0.5409462291490985
-86.45272731781006,7740.0,10452.0,9804.0,521.0,143.0,548.0,-0.6753557645693521,0.2645876103182157,0.4821002096511933,0.49139330030365425
-86.46051144599915,7704.0,10456.0,9924.0,378.0,66.0,472.0,-0.7061021553638198,0.25874752654463634,0.4828368803764744,0.4487070432319006
-86.46831703186035,8084.0,10308.0,10132.0,224.0,2.0,500.0,-0.7299945389842637,0.2654088020641068,0.4796397802896986,0.408181114217326
-86.47610521316528,8316.0,10328.0,10188.0,201.0,-122.0,451.0,-0.7448864729831947,0.2753357047224739,0.48364899194776884,0.3679919084158538
-86.48387885093689,8584.0,10428.0,10104.0,177.0,-263.0,414.0,-0.7505748236505078,0.2892350757990192,0.49597364288686036,0.327094253375204
-86.49167394638062,8780.0,10400.0,9904.0,145.0,-444.0,419.0,-0.7458859184732536,0.30987880926958467,0.5178513189526014,0.2818853164817678
-86.49944829940796,8880.0,10500.0,9820.0,70.0,-577.0,435.0,-0.7309746978831279,0.33831196517532763,0.5442834548960438,0.2344707359145358
-86.50721669197083,9152.0,10480.0,9848.0,-31.0,-727.0,437.0,-0.7025906962682815,0.374734509686678,0.5755527916432608,0.18622391038420802
-86.51503705978394,8944.0,10384.0,10096.0,9.0,-885.0,364.0,-0.6620977385027141,0.40530189029606467,0.6159197629253335,0.13416336321824024
-86.52284574508667,8996.0,10480.0,10076.0,-65.0,-885.0,289.0,-0.6136377175770418,0.43340718229224184,0.6539129449541413,0.08946969501311627
-86.53062105178833,9020.0,10048.0,10224.0,-151.0,-886.0,151.0,-0.5568439857176936,0.4554992463373739,0.6922881562886953,0.056412062703968424
-86.53840494155884,8996.0,9812.0,9900.0,-168.0,-824.0,19.0,-0.49918925076731124,0.4675339949027221,0.7287936744403398,0.0328912697295195
-86.54620265960693,9140.0,9664.0,9952.0,-162.0,-754.0,-126.0,-0.44328638790862446,0.46759119819626527,0.7645474158247229,0.017969380068433224
-86.5539824962616,9276.0,9624.0,9796.0,-125.0,-723.0,-198.0,-0.3888322796318299,0.45928504346643517,0.7986526494393813,0.004544525036350399
-86.56175994873047,9412.0,9516.0,9756.0,-130.0,-697.0,-495.0,-0.3339447900850762,0.428201658066249,0.8397128904718884,0.0025453447106520426
-86.56957912445068,9636.0,9320.0,9488.0,-188.0,-590.0,-297.0,-0.28315907363357157,0.41126810973516714,0.866412382321222,0.0030107630768556604
-86.57736015319824,9764.0,9232.0,9752.0,-290.0,-554.0,-231.0,-0.23045863299191843,0.4004048214461647,0.8868187723391444,0.010828779665955017
-86.58514547348022,9912.0,9128.0,9976.0,-372.0,-383.0,-163.0,-0.18748837414674496,0.3951409096435715,0.8987979435600573,0.029563960121631552
-86.59294891357422,10080.0,9116.0,9768.0,-425.0,-158.0,-55.0,-0.16021778684026974,0.3978546741530658,0.90146098419771,0.05839531662607392
-86.60071802139282,10132.0,9172.0,9920.0,-368.0,73.0,66.0,-0.1534846622983202,0.40758163607982234,0.8957668889865746,0.08900196045582198
-86.60849142074585,10164.0,9112.0,9928.0,-308.0,208.0,143.0,-0.1598552699921897,0.42100356522700044,0.8849515555820114,0.11858766797123936
-86.61637544631958,10284.0,9328.0,10024.0,-263.0,425.0,189.0,-0.18482536688948895,0.43438339058114833,0.8683910238609093,0.15181463506260864
-86.62414932250977,10164.0,9492.0,10044.0,-175.0,556.0,180.0,-0.22245479107380772,0.4428324012576358,0.849051416068224,0.18309839758241625
-86.63192296028137,10168.0,9672.0,10156.0,-151.0,600.0,179.0,-0.26358012706135225,0.4487026636636297,0.8267359169089056,0.21377361841975764
-86.63968873023987,10064.0,9972.0,10140.0,-196.0,735.0,126.0,-0.3106415318864568,0.44753793319790125,0.7993926148935833,0.2533438064563362
-86.64751243591309,9860.0,10128.0,10064.0,-11.0,858.0,53.0,-0.3702595934814852,0.4312968008308682,0.7716071953325511,0.28550523487147833
-86.65529298782349,9568.0,10196.0,9832.0,-312.0,1020.0,254.0,-0.4316160156840563,0.4310330464585802,0.7179780114209771,0.33529942287697884
-86.66307091712952,9400.0,10016.0,9656.0,-295.0,1114.0,-32.0,-0.48697436103925956,0.40540179983336067,0.6651691198195234,0.39503847207683085
-86.67086887359619,9100.0,9856.0,9620.0,-212.0,1115.0,-94.0,-0.5383448261727452,0.3685781788721209,0.6107251342378014,0.4487201629106577
-86.67864298820496,8860.0,9676.0,9308.0,-38.0,1031.0,-135.0,-0.5844059442814268,0.3213191729230285,0.5627620349961352,0.4883877285186472
-86.68642902374268,8620.0,9476.0,9444.0,24.0,932.0,-78.0,-0.6254566920812576,0.27544201736334684,0.5166581839773021,0.5157518224212655
-86.69424057006836,8548.0,9224.0,9448.0,40.0,787.0,-67.0,-0.6573167169710251,0.23404375717594217,0.47593030696415833,0.5353957379643624
-86.70203304290771,8460.0,9128.0,9628.0,-74.0,651.0,-47.0,-0.6795068339582734,0.2053388271496179,0.43534547596008977,0.5536973408188861
-86.7098126411438,8472.0,9088.0,9608.0,-208.0,554.0,-18.0,-0.6949810177382705,0.18969729814984734,0.39225860130310497,0.5719698503958558
-86.71763563156128,8340.0,9220.0,9472.0,-188.0,442.0,-67.0,-0.7029521601857401,0.1763069867682283,0.3569408244578774,0.5893787871498601
-86.72546458244324,8292.0,9272.0,9728.0,-181.0,267.0,-98.0,-0.7030568587536409,0.17027884698437673,0.33274528042105345,0.6049766491251122
-86.7332649230957,8448.0,9320.0,9912.0,-147.0,95.0,-140.0,-0.6960183600723471,0.16992542079917694,0.32133769199570084,0.6192139222524791
-86.74103355407715,8632.0,9476.0,10036.0,-104.0,-98.0,-230.0,-0.6790171377015486,0.1747907090515156,0.32517039897539723,0.6345456219745319
-86.7488329410553,8752.0,9600.0,10000.0,-152.0,-170.0,-375.0,-0.6505344031247342,0.18219074873059693,0.3324859135006811,0.6580764687722451
-86.75662064552307,8816.0,9880.0,10008.0,-276.0,-212.0,-485.0,-0.6112113620478415,0.19545211115283923,0.33610865922630406,0.6893838642894223
-86.76444840431213,8916.0,10168.0,10080.0,-359.0,-150.0,-706.0,-0.5567300213803892,0.20217538755789155,0.3339122293242521,0.7332662675095016
-86.77221918106079,9012.0,10304.0,10112.0,-417.0,-31.0,-814.0,-0.49468964024967044,0.1998361943709235,0.32227060025030974,0.7819778228717891
-86.78001546859741,9080.0,10424.0,10008.0,-536.0,70.0,-904.0,-0.4237176097232227,0.19178322111916796,0.29742046485392243,0.8338007258294224
-86.78778195381165,9064.0,10356.0,9980.0,-550.0,185.0,-1035.0,-0.34207521246194794,0.17077897994535735,0.2667308092498639,0.8846885126556404
-86.79560804367065,8728.0,10384.0,9864.0,-762.0,218.0,-1032.0,-0.25441996287692487,0.15169204800252536,0.21568174873930387,0.9304522493514967
-86.80339026451111,8852.0,10216.0,9856.0,-595.0,190.0,-1050.0,-0.16390310404678332,0.1290655033884371,0.1763372645173532,0.961968314167081
-86.81121134757996,8768.0,9600.0,9876.0,-586.0,150.0,-1008.0,-0.07459449410492572,0.10892648085093899,0.135903507665285,0.9818864088187248
-86.81902885437012,8924.0,9300.0,9804.0,-517.0,52.0,-852.0,0.0026924933001596825,0.09756269810597076,0.09923088490240706,0.9902663792634773
-86.82681226730347,8964.0,9092.0,10216.0,-438.0,-84.0,-668.0,0.06471171164550207,0.09891497090213128,0.06711044722280646,0.9907191381925025
-86.83458757400513,9128.0,8940.0,10064.0,-384.0,-221.0,-763.0,0.1348861413021095,0.11129074839195328,0.039350672291066126,0.9838046669930102
-86.84240555763245,9200.0,8892.0,10124.0,-307.0,-273.0,-341.0,0.16790560348358363,0.13004521036398584,0.013288156176083952,0.977097424254941
-86.85021829605103,9012.0,9140.0,10116.0,-223.0,-301.0,-296.0,0.19587283229487135,0.15219772990674663,-0.006547846630150711,0.9687243210968363
-86.8580014705658,9052.0,9292.0,10384.0,-226.0,-232.0,-337.0,0.22707026508815972,0.16822017383921084,-0.024888663420561855,0.9589169006016302
-86.86578392982483,9128.0,9376.0,10484.0,-12.0,-116.0,-381.0,0.2587552073465407,0.1786246157736898,-0.022348784822853296,0.9490202954245457
-86.87359595298767,9096.0,9608.0,10732.0,-385.0,-233.0,-268.0,0.286234757262295,0.18976877767712014,-0.05502363093569592,0.9375659309043706
-86.88137125968933,9172.0,9756.0,10792.0,-451.0,114.0,-588.0,0.3416774471282868,0.17184322191811346,-0.07892622645409902,0.9205960460388773
-86.88915061950684,8976.0,9704.0,10596.0,-527.0,255.0,-688.0,0.4053999836597593,0.14017508326360448,-0.10279376306055857,0.897460440106726
-86.89695739746094,9104.0,9648.0,10372.0,-579.0,310.0,-830.0,0.47827962104928445,0.10267431847654213,-0.12627816637084008,0.8629950249638457
-86.90474343299866,8956.0,9560.0,10216.0,-600.0,316.0,-883.0,0.5510917829466798,0.06353733617141559,-0.14948183362024675,0.8184839858533697
-86.9125566482544,8744.0,9528.0,10492.0,-487.0,311.0,-932.0,0.6216312503593292,0.030206633959764872,-0.16324020477348086,0.7655160242522882
-86.92034673690796,8616.0,9720.0,10176.0,-273.0,202.0,-958.0,0.6865824449813891,0.015783271457906645,-0.16720701512358022,0.7073876226503589
-86.92813372612,8256.0,9740.0,10144.0,-220.0,72.0,-1253.0,0.7606439108232727,0.016640967762320463,-0.17356563450201692,0.6253150323151705
-86.93591499328613,8316.0,9504.0,10316.0,-333.0,-20.0,-1017.0,0.8128262353259208,0.011295958562585296,-0.19067547363157356,0.5502988063238173
-86.9437038898468,8280.0,9668.0,10208.0,-339.0,-123.0,-983.0,0.8547995021325585,0.009788582117993641,-0.2137555058991582,0.472790205600586
-86.95152235031128,8400.0,9604.0,10020.0,-445.0,-236.0,-953.0,0.8862230131875802,0.004405973667785409,-0.24776637167663346,0.391409227483156
-86.95931887626648,8448.0,9456.0,10128.0,-444.0,-350.0,-977.0,0.9078398804121967,0.0034463200189529634,-0.28819103876559066,0.3045665766079811
-86.96710419654846,8380.0,9404.0,10164.0,-430.0,-377.0,-895.0,0.9183748845561518,0.002209789797316043,-0.327772528627179,0.22169316120005125
-86.97489929199219,8408.0,9444.0,10104.0,-455.0,-400.0,-857.0,0.9197852865190227,-0.001692553956097855,-0.366888038868721,0.13923120662871735
-86.98267769813538,8192.0,9224.0,10216.0,-482.0,-408.0,-825.0,0.9129657846377712,-0.008681452875637645,-0.4039013153426812,0.057287310297820034
-86.99047112464905,8636.0,9236.0,10092.0,-474.0,-375.0,-800.0,0.8999790137759714,-0.01602701458191886,-0.43503538224079563,-0.022915622728296517
-86.99825382232666,8692.0,9444.0,10288.0,-472.0,-311.0,-712.0,0.8833407078594432,-0.02633392695084118,-0.4580063750447529,-0.09615549151291716
-87.00604844093323,8944.0,9436.0,10368.0,-392.0,-203.0,-661.0,0.8667194882643692,-0.03149694341087976,-0.47068031464136395,-0.1620657663654743
-87.0138669013977,8788.0,9412.0,10264.0,-330.0,-89.0,-657.0,0.8511041440160664,-0.030408235545054008,-0.47348271403803593,-0.2247469571693707
-87.02165341377258,8736.0,9320.0,10376.0,-289.0,-127.0,-685.0,0.82986586752587,-0.025749564661369212,-0.4779441967635916,-0.2867559007506041
-87.02942776679993,8796.0,9196.0,10620.0,-305.0,-157.0,-614.0,0.8057563236226035,-0.025863584174186507,-0.4820534505396463,-0.3430922511201206
-87.03720307350159,8824.0,9172.0,10724.0,-496.0,-262.0,-579.0,0.7743703391680251,-0.043885855895809824,-0.4856217881402728,-0.4032320527345686
-87.04497766494751,8888.0,9224.0,10628.0,-153.0,-272.0,-528.0,0.7426110888232492,-0.04112642354228214,-0.4998196573244073,-0.44386675725433766
-87.05275511741638,8856.0,9276.0,10736.0,-162.0,-271.0,-434.0,0.7126255520746543,-0.04293892263684716,-0.5119736094444135,-0.4777071222888981
-87.06053042411804,8824.0,9340.0,10532.0,-176.0,-312.0,-318.0,0.6841873647755886,-0.05245229342833514,-0.5246332575977887,-0.5038812874257943
-87.06831192970276,8808.0,9376.0,10328.0,-176.0,-306.0,-497.0,0.6466195511497369,-0.053415865415352586,-0.5365344752436964,-0.5395930487578702
-87.07608222961426,8736.0,9296.0,10340.0,-215.0,-335.0,-181.0,0.6209917874056057,-0.07266469243851753,-0.545599913994601,-0.5580410166795003
-87.08386421203613,8628.0,9428.0,10048.0,-200.0,-308.0,-67.0,0.6015083514103011,-0.09512846573662044,-0.5525301730418659,-0.5690770475678878
-87.09167742729187,8604.0,9204.0,10128.0,-124.0,-336.0,-75.0,0.5802923699776974,-0.11452224938064826,-0.564195877294976,-0.5760455119049327
-87.09946322441101,8584.0,9284.0,10252.0,-73.0,-201.0,-92.0,0.5649612935154862,-0.1236440671474167,-0.5713606973483246,-0.582303902626618
-87.1072461605072,8660.0,9412.0,10144.0,-63.0,-149.0,-219.0,0.5456033382601485,-0.12324347575468174,-0.5775606902518741,-0.5946021291915006
-87.11509084701538,8448.0,9680.0,10228.0,-34.0,-115.0,-236.0,0.5270882518837053,-0.11878427760639913,-0.5835085427603769,-0.6062887518710591
-87.12290692329407,8956.0,9480.0,10180.0,-94.0,-61.0,-376.0,0.5028631202752766,-0.10703029337578736,-0.5847369722868916,-0.6274996986514533
-87.130695104599,8712.0,9900.0,10132.0,-100.0,-31.0,-534.0,0.4706160621366474,-0.08568148823737162,-0.5847850284576441,-0.6551379054246647
-87.13849067687988,8756.0,9888.0,10344.0,-213.0,-45.0,-673.0,0.42749134267538297,-0.0624888826805193,-0.5782074426423665,-0.6921144737338707
-87.14627408981323,8724.0,9900.0,10196.0,-257.0,-68.0,-700.0,0.3796436006810356,-0.04077829716057804,-0.5676398440648907,-0.7293784164428012
-87.15405511856079,8668.0,9884.0,10100.0,-216.0,-205.0,-753.0,0.3200869922314151,-0.023686663019832917,-0.5617785506963122,-0.7624881109740542
-87.16183733940125,8576.0,9732.0,10008.0,-123.0,-294.0,-777.0,0.25314914197894234,-0.0086855328873917,-0.5617406028426917,-0.7875833724449219
-87.1696343421936,8540.0,9608.0,9908.0,-75.0,-386.0,-618.0,0.1914239389154235,-0.00671466166862505,-0.564283205559759,-0.8030543274598445
-87.17741584777832,8576.0,9532.0,9868.0,-46.0,-448.0,-557.0,0.13016805272330642,-0.011592136124927528,-0.5676247216753654,-0.8128493561375612
-87.18520593643188,8652.0,9392.0,9496.0,33.0,-530.0,-514.0,0.067469460624696,-0.023478432500259477,-0.5751832955543565,-0.8148992646981426
-87.19299101829529,8656.0,9420.0,9928.0,128.0,-581.0,-403.0,0.010002947628240914,-0.04389231034938485,-0.5872475502438228,-0.8081545154632058
-87.20077776908875,8684.0,9304.0,9896.0,257.0,-662.0,-283.0,-0.0426965736839631,-0.07583959726899399,-0.6055555225068949,-0.7910296247569545
-87.2085587978363,8820.0,9396.0,9940.0,334.0,-751.0,-188.0,-0.09280411466129106,-0.11880879811184761,-0.6252313287848534,-0.7657399371190446
-87.21636915206909,8908.0,9412.0,10148.0,441.0,-804.0,-121.0,-0.13965056761709305,-0.1690693973677112,-0.6472013052510042,-0.7300984374174069
-87.22415924072266,9064.0,9244.0,10216.0,422.0,-743.0,-67.0,-0.17909051521305552,-0.2172495728894402,-0.6640321693591944,-0.6926691046208142
-87.2319643497467,9268.0,9500.0,10264.0,445.0,-666.0,32.0,-0.2067514657221481,-0.26573794806152856,-0.6781285703127615,-0.6532831059405727
-87.23973846435547,9316.0,9536.0,10488.0,398.0,-587.0,134.0,-0.22413149575813657,-0.3137441532792697,-0.6856373974933293,-0.6174390966329137
-87.24757885932922,9368.0,9520.0,10256.0,379.0,-527.0,234.0,-0.2322202427090883,-0.3629365264358161,-0.6879797646221466,-0.5839817463973441
-87.25533986091614,8968.0,9392.0,10200.0,343.0,-519.0,30.0,-0.2505961422370911,-0.39757321832773557,-0.6928618185097092,-0.5468817148303948
-87.2631196975708,9120.0,9424.0,10176.0,368.0,-496.0,322.0,-0.25196681007704325,-0.44795629761171624,-0.6870342725875118,-0.5136455882607687
-87.27090120315552,9180.0,9452.0,10140.0,393.0,-442.0,341.0,-0.24736776318453782,-0.4959874098764692,-0.6802997608379115,-0.4795809779223842
-87.27866816520691,9080.0,9612.0,10120.0,360.0,-423.0,508.0,-0.2351249350358304,-0.5504399361457059,-0.6627294572328906,-0.450024230609982
-87.28641939163208,9180.0,9724.0,10012.0,349.0,-355.0,219.0,-0.23003587742858275,-0.5835445216105282,-0.6578158244205841,-0.4169383977710244
-87.29423093795776,9460.0,9792.0,9896.0,293.0,-335.0,108.0,-0.2302408076219721,-0.6073201965364043,-0.6556614144009019,-0.3850447494128106
-87.30201387405396,9280.0,9840.0,9864.0,316.0,-309.0,48.0,-0.22940107589919487,-0.6263164572754614,-0.6569737108346532,-0.3514091418764632
-87.30979108810425,9188.0,9864.0,9776.0,341.0,-290.0,9.0,-0.22695646099387837,-0.6420521288534888,-0.6605772754516839,-0.31606564477125226
-87.31763339042664,8976.0,9912.0,9744.0,431.0,-213.0,-24.0,-0.2155754150844746,-0.6544939214840257,-0.668956948442578,-0.2786782163751099
-87.3254144191742,8944.0,9736.0,9808.0,467.0,-193.0,-90.0,-0.20217249988585706,-0.6620484070606456,-0.6811046384924734,-0.2385679325106415
-87.33319163322449,8844.0,10060.0,9856.0,466.0,-64.0,-151.0,-0.18204461932594795,-0.6620057695982043,-0.6977243833558753,-0.20442309669854636
-87.34097862243652,8880.0,10136.0,10000.0,396.0,-255.0,-183.0,-0.17780533678790814,-0.6610570370656138,-0.7105956598461975,-0.16261200497969794
-87.34877300262451,8880.0,9996.0,9980.0,313.0,47.0,-140.0,-0.1587626745490314,-0.6562633409514855,-0.7234927368759853,-0.14377447680631386
-87.35655879974365,8916.0,10052.0,9768.0,223.0,44.0,-80.0,-0.14419782745664528,-0.6536042346778306,-0.7313010924192673,-0.13117622953255367
-87.3643491268158,8868.0,9856.0,9928.0,259.0,252.0,22.0,-0.11303960081241018,-0.6550558127877288,-0.7357969574097791,-0.12933200782362597
-87.37213611602783,8816.0,9632.0,9956.0,346.0,-56.0,93.0,-0.0957644640637604,-0.6647424100758695,-0.7334501225609571,-0.10486950645646398
-87.37992548942566,8732.0,9552.0,9716.0,474.0,-254.0,234.0,-0.0822820897486003,-0.6851163607006506,-0.7211322973709671,-0.06175305413799558
-87.38770461082458,8484.0,9544.0,9616.0,595.0,-358.0,324.0,-0.06734870164890555,-0.7101329235603985,-0.7008190824380385,-0.005291214650128424
-87.39552903175354,8796.0,9604.0,9788.0,706.0,-457.0,409.0,-0.05119461973833384,-0.737071299417517,-0.6708714644814905,0.06353336626750093
-87.40331244468689,8820.0,9692.0,9880.0,697.0,-486.0,423.0,-0.037042943422358136,-0.7596693679096899,-0.6354418452168665,0.1332063555153583
-87.41110873222351,8884.0,9756.0,9732.0,630.0,-447.0,389.0,-0.024528902979693804,-0.7758900115593207,-0.599172473134207,0.19592184747834565
-87.4189281463623,9004.0,9808.0,9816.0,561.0,-409.0,316.0,-0.013315801427035626,-0.7848984843670249,-0.5660490003390546,0.2516854939917276
-87.42672204971313,9132.0,9864.0,10200.0,434.0,-319.0,266.0,-0.005195775012713148,-0.7904636909227858,-0.537181356682477,0.2942385890523489
-87.43450498580933,9460.0,9704.0,10156.0,374.0,-196.0,312.0,0.003387325012064781,-0.7994014503115312,-0.5054277182968241,0.32479019204149195
-87.44229650497437,9116.0,9616.0,10112.0,366.0,-90.0,4.0,0.024812861077994675,-0.7964972028141846,-0.4945299331723134,0.34701105606434385
-87.45006155967712,9040.0,9528.0,10084.0,381.0,-80.0,175.0,0.04250497341604314,-0.8002567462425937,-0.4706669234742226,0.36912750436052433
-87.45782947540283,9008.0,9512.0,9908.0,415.0,-245.0,183.0,0.05546330501616051,-0.7975418851614887,-0.44496791355228443,0.4035521268915207
-87.46561074256897,8928.0,9552.0,9680.0,447.0,-248.0,148.0,0.07164610522590499,-0.7915424210463586,-0.41966192354329607,0.43841909312662053
-87.47338771820068,8860.0,9748.0,9728.0,450.0,-39.0,104.0,0.09723806641660465,-0.7904021358210953,-0.3951681993711304,0.45787696637283404
-87.48116254806519,8772.0,9944.0,9592.0,444.0,-85.0,125.0,0.11983231524660724,-0.7868899958461782,-0.3692016655150473,0.47972333781123755
-87.4889702796936,8892.0,10144.0,9568.0,495.0,-169.0,67.0,0.14541776363590395,-0.7759709744578641,-0.3452636212153194,0.5074600995973277
-87.49675011634827,8896.0,10208.0,9356.0,548.0,-290.0,125.0,0.16799692162325788,-0.7587741133099337,-0.3157104338760466,0.5443948945734439
-87.50452613830566,8984.0,10336.0,9440.0,603.0,-448.0,160.0,0.1875609217088454,-0.7313952225887007,-0.2823775065280049,0.5917304055304069
-87.51233720779419,9028.0,10436.0,9376.0,621.0,-547.0,17.0,0.21229090150765617,-0.691565007610998,-0.2574781630231294,0.6406055018116078
-87.5201325416565,8856.0,10392.0,9424.0,663.0,-613.0,344.0,0.2185247364805351,-0.6503817419771031,-0.21021981563883158,0.696461167877806
-87.52788138389587,8828.0,10364.0,9596.0,592.0,-584.0,334.0,0.22043666048217941,-0.607796698658888,-0.16585849332184757,0.7446353550616757
-87.5356867313385,8808.0,10228.0,9876.0,479.0,-526.0,358.0,0.21444291974057267,-0.5681191877021209,-0.12549529532603773,0.7845417475117888
-87.54349446296692,8804.0,9988.0,10212.0,350.0,-391.0,304.0,0.2064015613289091,-0.5372646457628393,-0.0935760657147065,0.8123968339547343
-87.55126976966858,8940.0,9908.0,10324.0,286.0,-221.0,240.0,0.20083492222719113,-0.51790875431152,-0.06590414346083372,0.8289104294772636
-87.55905485153198,9068.0,9620.0,10332.0,184.0,-159.0,233.0,0.19128365144346784,-0.5041688028472049,-0.04475355038851691,0.8409646262796625
-87.56686758995056,9012.0,9552.0,10368.0,216.0,-94.0,219.0,0.1842557487100823,-0.4941816329061295,-0.020745534839737262,0.8493550232674979
-87.57465887069702,9116.0,9504.0,10264.0,196.0,245.0,211.0,0.1773929073557781,-0.5091524194182881,0.0069015655889442485,0.8421685927489755
-87.58243489265442,9176.0,9456.0,10044.0,499.0,-14.0,244.0,0.1814009921397552,-0.4995174771282424,0.0542218832121128,0.8453614359994667
-87.59025859832764,9080.0,9548.0,9796.0,277.0,-120.0,265.0,0.17435021595812183,-0.48457112413455855,0.08433865618833766,0.853041510667958
-87.59804654121399,9048.0,9548.0,9752.0,263.0,-243.0,226.0,0.1702777190392112,-0.46033324360539135,0.10978296123996453,0.8643185203684619
-87.60583448410034,8840.0,9596.0,9724.0,458.0,-302.0,183.0,0.17749490217940272,-0.42826545988546916,0.1470914625736405,0.8737553188435303
-87.61361074447632,8700.0,9608.0,9624.0,316.0,-489.0,329.0,0.17015011667281538,-0.3810069767471619,0.17569147920515002,0.8916362069818169
-87.62141752243042,8572.0,10072.0,9552.0,570.0,-583.0,226.0,0.17990242002039578,-0.32260640267046237,0.21839809917847736,0.9032510716860823
-87.62920141220093,8684.0,10256.0,9716.0,520.0,-538.0,79.0,0.19807183892364805,-0.2696966576604957,0.2527028708610304,0.9078394783940358
-87.63698959350586,8564.0,10424.0,9784.0,339.0,-411.0,15.0,0.21361775269594133,-0.23042829937843348,0.27258532925587053,0.9093775304312106
-87.64477133750916,8656.0,10380.0,9740.0,162.0,-352.0,-48.0,0.22884495010685027,-0.2002223570947756,0.27781229946241265,0.9112416379849047
-87.65256071090698,8812.0,10444.0,9700.0,124.0,-316.0,-12.0,0.23943971723802854,-0.1725467645910677,0.28108315963572833,0.9131749521353087
-87.66035079956055,8868.0,10248.0,9680.0,110.0,-248.0,-23.0,0.24885959907056932,-0.15071476351827184,0.2842873234859229,0.9135286956156753
-87.6681387424469,8892.0,10060.0,9728.0,119.0,-329.0,28.0,0.25615098934895913,-0.12085283518186106,0.2869003553783149,0.9151335689219645
-87.67591500282288,8992.0,9928.0,9856.0,177.0,-366.0,137.0,0.255974781828188,-0.08387367926897359,0.29412039220081104,0.9170252514983096
-87.68369150161743,8968.0,9820.0,9836.0,7.0,-439.0,120.0,0.25739737334755336,-0.0451606898603434,0.28554397797994585,0.9220475806185418
-87.69156908988953,9148.0,9840.0,10352.0,273.0,-413.0,139.0,0.2572302750707715,-0.0020166008308936914,0.2984904504621224,0.9190930148200579
-87.69935441017151,9324.0,9824.0,10252.0,285.0,-325.0,39.0,0.2623334285810876,0.03175552346879486,0.3138296953451577,0.9119669299364312
-87.70713114738464,9220.0,9984.0,10492.0,182.0,-216.0,234.0,0.24889120765576947,0.05980178481782818,0.32252879434162685,0.9112914408161591
-87.71493482589722,9552.0,9888.0,10336.0,116.0,-125.0,-104.0,0.2599288819363634,0.06963370516139082,0.32949514878653313,0.9049978289294117
-87.72277879714966,9504.0,9732.0,10328.0,14.0,34.0,-96.0,0.26633000024664855,0.06480928493571407,0.33189161451917926,0.9026162217501932
-87.73058271408081,9512.0,9724.0,10004.0,253.0,128.0,-105.0,0.2692618404698189,0.057852434966411875,0.3552195172040943,0.8932918065405911
-87.7383987903595,9388.0,9568.0,9948.0,47.0,120.0,-34.0,0.267826986091513,0.04884316962051046,0.36178657213658877,0.8916240948540004
-87.74620866775513,9240.0,9328.0,10000.0,78.0,107.0,-254.0,0.28368440684433743,0.03460449953942884,0.3712548371018487,0.8834565817591048
-87.75399374961853,9132.0,9304.0,10116.0,152.0,107.0,51.0,0.2756811377541538,0.03205437911307596,0.3853378966732214,0.8800495056834633
-87.7617609500885,8968.0,9332.0,9888.0,2.0,133.0,-30.0,0.27337922795316744,0.021161759147852472,0.38867024260609323,0.8796314115503259
-87.76956152915955,8884.0,9544.0,9720.0,267.0,322.0,-152.0,0.2733187304312499,-0.0020552677111684192,0.4167507981055259,0.8669552582160698
-87.77742099761963,8752.0,9972.0,9492.0,159.0,410.0,-227.0,0.27524503231581404,-0.037229071273609915,0.43805230949923424,0.8549645270886729
-87.78594160079956,8676.0,9684.0,9424.0,93.0,491.0,-276.0,0.27692402116470566,-0.08182155217509747,0.4552662065678206,0.8422297793707926
-87.79386019706726,8692.0,9720.0,9456.0,43.0,484.0,-307.0,0.28011761973787425,-0.1281505391853182,0.46729460728308664,0.8287021831895015
-87.80166554450989,8736.0,9700.0,9204.0,54.0,399.0,-507.0,0.3005491447025932,-0.17585322441709295,0.4744911535011979,0.8084577913099446
-87.80945110321045,8944.0,9772.0,9080.0,146.0,269.0,-132.0,0.30075170899107234,-0.19616696109388185,0.48958803583225174,0.7945882506582
-87.81724095344543,8940.0,9896.0,9204.0,198.0,107.0,-20.0,0.3008149053182829,-0.19899512084432153,0.5056589476436983,0.7837221212179569
-87.82502865791321,8916.0,9860.0,9328.0,190.0,-38.0,-43.0,0.308606062968819,-0.19307312271913776,0.5168001041093789,0.7748565800036167
-87.83280920982361,9012.0,9868.0,9640.0,144.0,-139.0,-34.0,0.3194740119003566,-0.18110154418996752,0.5220990740632886,0.7697734363269213
-87.8405864238739,9012.0,9888.0,9864.0,119.0,-228.0,-67.0,0.3360807442974755,-0.1652776567063876,0.5224894266008738,0.7659881386786549
-87.8483681678772,9184.0,10140.0,9912.0,92.0,-199.0,-155.0,0.3566736591485972,-0.15610254369498153,0.5203735833190094,0.7600179145949395
-87.85614728927612,9320.0,10044.0,9800.0,-91.0,-104.0,-329.0,0.3817267077256689,-0.16670166187148602,0.5063194933969234,0.7550734051365401
-87.86392712593079,9340.0,9892.0,9796.0,-240.0,-7.0,-754.0,0.42715895244876667,-0.2068694575311526,0.4781127405874006,0.7390185817499071
-87.87170243263245,9356.0,9716.0,9432.0,-336.0,106.0,-705.0,0.4610075929304768,-0.25485781980730765,0.44657166941470733,0.7232518475743254
-87.87955451011658,8972.0,9200.0,9320.0,-240.0,195.0,-900.0,0.5031225498959428,-0.31064953882778057,0.4177820979525274,0.6897990159768834
-87.8873519897461,8556.0,8288.0,9224.0,-101.0,212.0,-1065.0,0.5542656651371931,-0.3648671868812013,0.39034448646934605,0.6381948685710392
-87.89513611793518,8096.0,7740.0,9552.0,104.0,210.0,-1232.0,0.6153956246609507,-0.4109042826844101,0.3648547577635634,0.5650901709966829
-87.90293049812317,7968.0,7744.0,9792.0,260.0,162.0,-1323.0,0.6800971748973206,-0.44381885955057443,0.3365437641782273,0.4766874735050841
-87.9107096195221,8176.0,8428.0,10156.0,758.0,15.0,-1348.0,0.7582854129807556,-0.4349683935061068,0.3138707767593816,0.3705278189391237
-87.9185254573822,8676.0,8732.0,10428.0,672.0,-37.0,-1518.0,0.8253538107726477,-0.4262971914848471,0.27261913787133174,0.2504807322759415
-87.92630696296692,8936.0,9768.0,10224.0,498.0,-155.0,-1044.0,0.8659942396804905,-0.40961871896906954,0.23222194351058598,0.16834325309472317
-87.9341025352478,9284.0,10836.0,10424.0,386.0,-369.0,-920.0,0.8970145457487686,-0.39183480534096765,0.176264240801495,0.10373672181638044
-87.94187641143799,9456.0,11568.0,10436.0,357.0,-607.0,-1018.0,0.9224892595076909,-0.37172139896616324,0.0964909651666079,0.03906739413893964
-87.9496648311615,9640.0,12036.0,10376.0,495.0,-712.0,-682.0,0.9425806167827959,-0.3334510168651657,0.01851807644819136,0.0030464834826818003
-87.95744442939758,9564.0,12260.0,10212.0,48.0,-684.0,-696.0,0.9419147042931747,-0.3290374628671634,-0.057917893132145494,-0.03430095510877936
-87.9652316570282,9400.0,12232.0,10212.0,-126.0,-714.0,-527.0,0.930326540425264,-0.3376128978108596,-0.13110079305725678,-0.057642358312892925
-87.9730155467987,9416.0,11392.0,10352.0,-385.0,-662.0,-909.0,0.9020465391507378,-0.3596443154512577,-0.20870172324292202,-0.11580845515422306
-87.98080778121948,9272.0,11068.0,10296.0,-543.0,-640.0,-946.0,0.858613475745195,-0.3890455784166715,-0.28168927208159966,-0.17910218082796084
-87.98858785629272,9052.0,10896.0,10008.0,-552.0,-532.0,-1148.0,0.8030690109783172,-0.40734500694775816,-0.3494685314124151,-0.258885987402733
-87.99638390541077,8860.0,10868.0,10264.0,-645.0,-363.0,-1218.0,0.7358913116073201,-0.42016383365589133,-0.4006170737765164,-0.3484713626500512
-88.00415468215942,8608.0,10636.0,10132.0,-515.0,-219.0,-1303.0,0.6646473312744859,-0.41100775536350304,-0.4434633280864708,-0.43892690359925496
-88.01193642616272,8512.0,10420.0,10124.0,-967.0,-109.0,-1334.0,0.5687450086938852,-0.4151615565011007,-0.4559074712302787,-0.5443513339432435
-88.01974058151245,8264.0,10440.0,10268.0,-1077.0,-114.0,-1334.0,0.45666566297623684,-0.41611026668213297,-0.45366877394618865,-0.6422564610545854
-88.02754855155945,8160.0,10004.0,10348.0,-1101.0,-226.0,-1533.0,0.31741261051986625,-0.4062121565525769,-0.4504654823837962,-0.7289182174514519
-88.03532934188843,8088.0,9548.0,10384.0,-1203.0,-434.0,-1317.0,0.1716731534402593,-0.4099527547817619,-0.4271564874640832,-0.7874035829560774
-88.0431079864502,8040.0,9084.0,10396.0,-1158.0,-627.0,-1176.0,0.025696491899599692,-0.42139966711560745,-0.39432017112762296,-0.8162558505155054
-88.05088996887207,7980.0,8908.0,10176.0,-1012.0,-523.0,-1145.0,-0.11004784809428539,-0.4172296169107701,-0.36183435162294403,-0.8263684528634385
-88.05866718292236,8016.0,8852.0,9820.0,-891.0,-927.0,-1237.0,-0.25790470076155536,-0.4311283315494356,-0.32960585516148433,-0.7993581846104781
-88.06644105911255,8028.0,8856.0,9680.0,-798.0,-1275.0,-1048.0,-0.3927354930737825,-0.4659429701779173,-0.2809165392035438,-0.7414458031601348
-88.0742495059967,8172.0,8960.0,9620.0,-737.0,-1184.0,-1521.0,-0.5414592391203464,-0.47231558035858384,-0.2502807549885395,-0.6489217430508215
-88.082035779953,8500.0,8972.0,9580.0,-727.0,-1418.0,-1223.0,-0.6615629256973045,-0.48412690570698885,-0.1893942862531855,-0.540449293503142
-88.08980584144592,8792.0,9136.0,9556.0,-645.0,-1294.0,-1162.0,-0.7551680531136873,-0.4823973112549922,-0.13139877655121074,-0.42396746003824676
-88.09760808944702,9052.0,9412.0,9932.0,-594.0,-1679.0,-1002.0,-0.8234998173713881,-0.4861700743551949,-0.040055420184359196,-0.28962436517774026
-88.10539770126343,9180.0,9696.0,9872.0,-583.0,-1647.0,-956.0,-0.865184590632796,-0.4753603629302839,0.05197129649243522,-0.1509540785379617
-88.11319875717163,9440.0,9732.0,9836.0,-644.0,-1583.0,-819.0,-0.8835172289817678,-0.44514942393950907,0.1443037471743772,-0.02038933569626917
-88.12101531028748,9716.0,10116.0,9968.0,-638.0,-1396.0,-824.0,-0.8820711328076297,-0.4040359827510558,0.21880308854035696,0.10407040768179059
-88.12880635261536,9872.0,10376.0,9500.0,-668.0,-1292.0,-1014.0,-0.861512506673327,-0.35586544900303013,0.27343842313557626,0.23746033732908334
-88.13659000396729,9876.0,10436.0,9776.0,-581.0,-1036.0,-655.0,-0.8354592274227091,-0.3040489889919152,0.3169702037143369,0.33029075307149625
-88.14438915252686,9780.0,10440.0,9768.0,-541.0,-828.0,-587.0,-0.8059740675257492,-0.25550969299671006,0.34466789239114665,0.40782918386914274
-88.15217113494873,9632.0,10364.0,9800.0,-461.0,-643.0,-547.0,-0.7747529275897191,-0.2157091595462426,0.3602491050453833,0.4727029109208165
-88.15996313095093,9500.0,10068.0,9824.0,-450.0,-499.0,-768.0,-0.732995602250695,-0.18790624874595696,0.3597637442558665,0.5458742868851425
-88.16773962974548,9288.0,9936.0,9820.0,-387.0,-398.0,-535.0,-0.6998219401658058,-0.16042624962421548,0.3574229772056659,0.5972951413325864
-88.17557501792908,9028.0,9632.0,9876.0,-356.0,-363.0,-435.0,-0.6697129069521637,-0.13290091950305466,0.3545545008813111,0.6388372826954685
-88.18334174156189,8912.0,9396.0,9868.0,-333.0,-424.0,-422.0,-0.6358360983981273,-0.1024737507867377,0.355454643030243,0.6773947026082998
-88.19113850593567,8792.0,9164.0,9852.0,-275.0,-497.0,-423.0,-0.5967719942280862,-0.07061889582849712,0.3625090232599759,0.7123646303067658
-88.19891905784607,8756.0,9192.0,9768.0,-167.0,-613.0,-316.0,-0.5577270645481878,-0.033548861689880284,0.3815748506820206,0.7363529239955312
-88.20670461654663,8716.0,9468.0,9836.0,-62.0,-526.0,-341.0,-0.5177274100744049,-0.007879669777999644,0.4017805067047623,0.7552937601317141
-88.21448373794556,8660.0,9352.0,9480.0,-10.0,-887.0,-302.0,-0.4652174066799916,0.0405281673929915,0.4396798375485982,0.7672104487185685
-88.22228837013245,8688.0,9608.0,9700.0,-254.0,-949.0,-357.0,-0.4024446632472109,0.10055355754868842,0.4605613793919199,0.7847359370519192
-88.2300705909729,8656.0,9788.0,9716.0,-21.0,-1011.0,-362.0,-0.33546067261178353,0.15537549394750838,0.49542248251435855,0.7860541691453126
-88.23785042762756,8864.0,10032.0,9696.0,-70.0,-937.0,-416.0,-0.2644508756087898,0.2028688456634217,0.5214083156019603,0.7855210590875725
-88.2456259727478,8776.0,10068.0,9732.0,-114.0,-892.0,-491.0,-0.18747345739805302,0.2432886237566072,0.5405400898669375,0.7832501258017643
-88.25339770317078,8800.0,10228.0,9952.0,-147.0,-1014.0,-529.0,-0.09988611144196771,0.28855201940941483,0.5553428888021196,0.773533950575324
-88.26116800308228,8888.0,10236.0,9812.0,-191.0,-705.0,-688.0,-0.014437903770166802,0.30326467433897114,0.5636026902356418,0.768227890532457
-88.26897263526917,8916.0,10456.0,9716.0,-167.0,-567.0,-755.0,0.06821523802795264,0.3032720722408717,0.5709445653231462,0.7598651425269362
-88.27671146392822,8888.0,10316.0,9912.0,-119.0,-764.0,-770.0,0.15973329773441983,0.31344942277923193,0.5761141283215303,0.7377853645218079
-88.28449273109436,8880.0,10292.0,9932.0,-28.0,-474.0,-851.0,0.2382258719023242,0.29972851950607343,0.5886984754192373,0.7119307224654241
-88.29230380058289,8796.0,10244.0,10080.0,-126.0,-476.0,-827.0,0.3162087846313282,0.2832346851510384,0.5903690255160394,0.6864798113277714
-88.30007982254028,8872.0,10232.0,10148.0,-245.0,-492.0,-849.0,0.3968993141958348,0.26124714357272816,0.5806832732828684,0.6610807821253465
-88.30785846710205,8932.0,10108.0,10076.0,-341.0,-579.0,-782.0,0.4771703426879161,0.2423099740938288,0.5563732623706538,0.6356438731182582
-88.31566667556763,9008.0,10064.0,10084.0,-291.0,-640.0,-715.0,0.5519218022695327,0.2301981982417642,0.5265189807371767,0.6042920458100379
-88.32347130775452,9156.0,9732.0,9700.0,-200.0,-696.0,-632.0,0.6190462555796854,0.2275517735897161,0.4932391661687797,0.5672010655367921
-88.33125329017639,8984.0,9944.0,9608.0,-113.0,-676.0,-588.0,0.6773682159658572,0.2290236383123381,0.4611910334689058,0.5253791999511345
-88.3390486240387,8936.0,9872.0,9616.0,-65.0,-621.0,-629.0,0.7303017051458005,0.22779905708039702,0.43259134533188676,0.47710767862021086
-88.34685921669006,8804.0,9888.0,9584.0,-48.0,-565.0,-620.0,0.7763063556163191,0.22440280972670426,0.4056226327623457,0.42715582754705933
-88.35464859008789,8936.0,9832.0,9600.0,-61.0,-471.0,-627.0,0.8156256830444986,0.2152759540156601,0.3826133027065686,0.37685284843399286
-88.36242341995239,8664.0,9880.0,9872.0,-23.0,-421.0,-656.0,0.8497323611987702,0.20525626151828943,0.36316281268445155,0.3223934753096226
-88.37023973464966,8736.0,9888.0,9896.0,-12.0,-329.0,-607.0,0.8758800074085994,0.19418488072719955,0.34845180426385164,0.2714917767155047
-88.37801814079285,8712.0,9808.0,9876.0,-15.0,-367.0,-539.0,0.8986331393497272,0.1851946215417667,0.32842314536200523,0.22427588056895997
-88.38580560684204,8824.0,9976.0,9916.0,51.0,-410.0,-414.0,0.9164941657927901,0.18526609992532886,0.3033332624729909,0.18358607834944224
-88.39361596107483,8964.0,9684.0,9768.0,114.0,-466.0,-383.0,0.9318118789580694,0.19158702277479095,0.27344661086664146,0.1422954178547977
-88.40140175819397,8996.0,9672.0,9828.0,13.0,-497.0,-510.0,0.947985135178142,0.18643102430535669,0.241001526500372,0.09211905819224422
-88.4091796875,8728.0,9664.0,9748.0,386.0,-478.0,-192.0,0.9518194266352106,0.21797304325771386,0.2070929355341357,0.06033280653710718
-88.4169659614563,9008.0,9544.0,9512.0,258.0,-478.0,-98.0,0.9549723276640015,0.24000125147316137,0.17013604460638293,0.038483490135510647
-88.42477345466614,8964.0,9884.0,9760.0,537.0,-471.0,-55.0,0.9490521893406505,0.28508469299940165,0.1332918015862859,0.01612313105563291
-88.4325647354126,8992.0,10064.0,9968.0,559.0,-403.0,23.0,0.938102161098627,0.3317095816862428,0.09965206935662038,0.0015980715149411027
-88.44034481048584,8944.0,10156.0,9820.0,574.0,-290.0,62.0,0.9225338710660986,0.37874085630856374,0.07377801206769416,-0.00658979770508821
-88.44812417030334,8944.0,10264.0,9688.0,500.0,-198.0,123.0,0.906310000256878,0.4192137269866533,0.05312349837809859,-0.006318897088056522
-88.455890417099,8832.0,10180.0,9672.0,459.0,-144.0,164.0,0.8894189673716151,0.4557385438929472,0.03515549122272597,-0.0006095300116209664
-88.46367907524109,8832.0,10172.0,9720.0,447.0,-124.0,152.0,0.8712700873204828,0.49040370911898973,0.01916863492307221,0.0050200057850099625
-88.47145128250122,8964.0,10104.0,9492.0,439.0,-197.0,230.0,0.8518287713805703,0.5236159391469306,-0.0057121628597736245,0.013470846855697107
-88.47922396659851,8892.0,10096.0,9580.0,531.0,-6.0,283.0,0.8261471444359609,0.5620816116977816,-0.018666221235021197,0.034593781469177826
-88.48702788352966,8812.0,10116.0,9676.0,530.0,-235.0,221.0,0.798002520839089,0.5996451567112424,-0.04497353513809704,0.039938000756058925
-88.494797706604,8788.0,10048.0,9756.0,563.0,-159.0,216.0,0.766118400329481,0.6374852683243435,-0.06543759305340337,0.04891881807048894
-88.5025680065155,8856.0,10060.0,9840.0,484.0,-56.0,146.0,0.7376231822591411,0.6684591676227607,-0.07527301375328424,0.05838112379426988
-88.51036834716797,8908.0,10220.0,9804.0,405.0,40.0,57.0,0.7136177847306465,0.6933765741196724,-0.07399797892099148,0.0671035237062818
-88.51812982559204,8980.0,10240.0,9736.0,266.0,116.0,-61.0,0.6985049131027835,0.7092943963123464,-0.06157667366694748,0.0721155946470064
-88.52593445777893,9088.0,10288.0,9896.0,170.0,198.0,-155.0,0.689890874845965,0.7188712470174401,-0.038895841281448115,0.07590668315022234
-88.53374171257019,9100.0,10244.0,9808.0,142.0,208.0,-178.0,0.6827300607687655,0.7262687379226928,-0.014330444293169344,0.07879100713417211
-88.54152846336365,9044.0,10156.0,9728.0,213.0,196.0,-205.0,0.6706708180783559,0.7374077795712036,0.011725825887920167,0.07932796110591758
-88.54931855201721,8888.0,10012.0,9732.0,296.0,120.0,-203.0,0.6526546535965532,0.7531852471136425,0.03376861129103918,0.07492374497179885
-88.55712151527405,8800.0,10124.0,9664.0,345.0,64.0,-224.0,0.6309427160800308,0.7711590559330277,0.054283714081572815,0.06540854579903915
-88.56491708755493,8712.0,10120.0,9680.0,371.0,83.0,-187.0,0.6063389959728097,0.7896074215620258,0.07343591493153459,0.058994136785129984
-88.57269597053528,8556.0,10116.0,9956.0,344.0,6.0,-1.0,0.5824418483947266,0.8073345618048726,0.07549085684107742,0.057214762843768564
-88.58047246932983,8488.0,9660.0,9860.0,132.0,-30.0,-81.0,0.5737941574744675,0.8135100215531512,0.08026253664079425,0.05019596490498438
-88.58825159072876,8904.0,9840.0,9448.0,239.0,-113.0,47.0,0.5573604839151615,0.8260081282447427,0.07222701566096638,0.042931588046383064
-88.59601974487305,8504.0,10172.0,9592.0,395.0,-140.0,16.0,0.5294579043060558,0.8452176552767424,0.0656400059008655,0.031190261327214402
-88.60378813743591,8564.0,10372.0,9724.0,440.0,-79.0,-57.0,0.4973288613836124,0.864711115566158,0.0672884924678914,0.020271877875735374
-88.61165404319763,8688.0,10580.0,9396.0,753.0,68.0,-157.0,0.439483695793728,0.8942772987778281,0.08318746686807436,0.014214055655942498
-88.61944842338562,8860.0,10436.0,9264.0,413.0,81.0,-181.0,0.4066598950382236,0.9079373498572034,0.10081556184073942,0.010664004525280851
-88.62727212905884,8928.0,10352.0,9592.0,364.0,102.0,-169.0,0.3769247389627292,0.9186392909822562,0.11805570066057439,0.009614871971941838
-88.63505363464355,8936.0,10360.0,9724.0,357.0,131.0,-131.0,0.34693967725821295,0.928321302665251,0.13305504696090864,0.01219728822684401
-88.6428599357605,8976.0,9992.0,9692.0,332.0,78.0,-138.0,0.31920382634065914,0.9361801921203797,0.14684765162871613,0.010551414220974555
-88.65064716339111,8980.0,10268.0,9756.0,273.0,100.0,-85.0,0.2956758188878189,0.9422517720261269,0.15674938618289616,0.01292432473775967
-88.65844535827637,9008.0,10192.0,9880.0,206.0,43.0,-35.0,0.27822021887043447,0.9468553392763001,0.16091735260932924,0.012809446703694114
-88.6662368774414,9000.0,10024.0,9820.0,145.0,65.0,-24.0,0.2654058358220537,0.9498534139609808,0.16460207037124336,0.01563306520702367
-88.67402744293213,9008.0,9964.0,9724.0,141.0,145.0,-248.0,0.25195262206956587,0.9489699281278698,0.18862125910906422,0.019949244430984676
-88.68180561065674,9004.0,9892.0,9640.0,192.0,170.0,90.0,0.23310390488618943,0.9540927352732849,0.18516537596757665,0.032915126740422844
-88.68959784507751,9188.0,9884.0,9532.0,0.0,220.0,84.0,0.22933340950740935,0.9545981187289138,0.182587746935791,0.053012580316722076
-88.69737553596497,8876.0,9920.0,9636.0,340.0,505.0,68.0,0.19243879807795686,0.9587626673424068,0.18831756061712218,0.09098325707514217
-88.70516443252563,8852.0,9948.0,9476.0,397.0,309.0,74.0,0.15346693768158973,0.963227137680216,0.19026777676026757,0.11153274587186676
-88.71300411224365,8832.0,10020.0,9488.0,405.0,308.0,103.0,0.11324789030492839,0.9663553487829947,0.18947342924929825,0.13203058292869332
-88.72086977958679,8920.0,10052.0,9972.0,404.0,305.0,141.0,0.07248605235042554,0.968131078695488,0.18505175193399567,0.1523936868269854
-88.72871351242065,8904.0,10120.0,9596.0,421.0,304.0,142.0,0.030135370362787725,0.9679593306084643,0.18037623342298723,0.17207849417416266
-88.73652124404907,8992.0,10244.0,9768.0,447.0,271.0,252.0,-0.015609425548134284,0.9677746969834852,0.1663016932053847,0.18844688522128172
-88.74434232711792,9036.0,10084.0,9604.0,394.0,234.0,316.0,-0.057368903567037666,0.9668185155631291,0.14560551196481902,0.20191533313071258
-88.75214648246765,8988.0,10168.0,9448.0,467.0,193.0,422.0,-0.10644673547247606,0.9648344333778769,0.11707513384013891,0.20989764579898904
-88.75993537902832,8920.0,9840.0,9224.0,530.0,172.0,511.0,-0.16180776112822268,0.9598786165761563,0.08198933202289532,0.21384349256630583
-88.76769733428955,8880.0,9888.0,9576.0,632.0,135.0,538.0,-0.22512761167199544,0.9497158883384101,0.04669720905650586,0.21254801943744597
-88.77554106712341,8804.0,9924.0,9532.0,708.0,145.0,609.0,-0.2946805217771216,0.9324176776970236,0.006500041416104133,0.20908948769567978
-88.7833206653595,8780.0,10180.0,9272.0,746.0,155.0,579.0,-0.3647599203698377,0.9075588923102439,-0.030858998235178684,0.2057541730034021
-88.79110813140869,8712.0,10336.0,9492.0,706.0,172.0,656.0,-0.43042705227729955,0.877018533842592,-0.07531631527284535,0.19974608035750355
-88.79889369010925,8452.0,10208.0,9708.0,464.0,214.0,690.0,-0.4752379501612617,0.8489259732815204,-0.1276955057571066,0.19278858997353054
-88.80667304992676,8640.0,10316.0,9796.0,432.0,217.0,669.0,-0.5147609386496605,0.8177653054245965,-0.17850179448986317,0.1855214021298773
-88.81445860862732,8396.0,10708.0,9664.0,513.0,277.0,578.0,-0.5550121600625738,0.7792120887466542,-0.22328917882170496,0.18690095118773697
-88.82221341133118,8364.0,10640.0,9916.0,334.0,280.0,514.0,-0.5796755604408727,0.7471369730531175,-0.2658661997632332,0.18729055488209131
-88.82999801635742,8832.0,10416.0,9948.0,180.0,336.0,465.0,-0.5904302138050076,0.7207359160848062,-0.30978165628853105,0.18965027634755122
-88.83777523040771,9192.0,10452.0,9696.0,195.0,263.0,514.0,-0.6032671683906273,0.6914410337881379,-0.35190428314661915,0.18477390464838309
-88.84559726715088,8996.0,10016.0,9548.0,264.0,255.0,518.0,-0.6188019556914781,0.6564915420595392,-0.39169469700159704,0.18077128969368272
-88.85337781906128,8984.0,9896.0,9448.0,362.0,192.0,599.0,-0.6411809765666172,0.6121834809700615,-0.4297749175258838,0.17149886641630419
-88.86116576194763,9072.0,9928.0,9320.0,471.0,123.0,616.0,-0.669424623608778,0.5595384242235725,-0.46139990144217546,0.160927176302818
-88.86898303031921,9092.0,10028.0,9396.0,494.0,100.0,533.0,-0.6956321024863269,0.5067354910659586,-0.485297005310372,0.15427876302777016
-88.87677192687988,9116.0,10184.0,9492.0,551.0,120.0,470.0,-0.7198250475615566,0.4507928766043277,-0.5048676688545997,0.1540984109299007
-88.8845624923706,9132.0,10364.0,9412.0,489.0,236.0,337.0,-0.7321181035729303,0.4013764275277899,-0.5255086674681264,0.16352579693026803
-88.89234113693237,9020.0,10260.0,9544.0,388.0,376.0,155.0,-0.7298605086253729,0.36362167299979364,-0.5487116096931947,0.1843867844012863
-88.90012812614441,9056.0,10592.0,9620.0,234.0,504.0,52.0,-0.7132018510468245,0.33766698761425207,-0.5779624172634059,0.20804703643633202
-88.90790820121765,9004.0,10256.0,9588.0,143.0,528.0,-14.0,-0.6897994834112946,0.319479786589034,-0.6070758456333164,0.2314481719416469
-88.91569828987122,8708.0,10408.0,9500.0,55.0,516.0,-37.0,-0.6626170267277222,0.3073533666116851,-0.6352977938821543,0.250737506192121
-88.92352843284607,8836.0,10356.0,9252.0,98.0,442.0,5.0,-0.6403961479977667,0.29147864486941205,-0.6582936827240458,0.2675488749748857
-88.93132281303406,8452.0,10316.0,9372.0,89.0,347.0,23.0,-0.623001994065177,0.2769165120770789,-0.6758243226718209,0.28008435446317326
-88.9391028881073,8952.0,10116.0,9376.0,177.0,224.0,77.0,-0.6157887092688779,0.2571657230036767,-0.685270916059705,0.29167418132508516
-88.9468936920166,8732.0,10044.0,9460.0,223.0,86.0,162.0,-0.6196240341906457,0.23320383919257817,-0.6875924157131463,0.29815884272131093
-88.95467162132263,8712.0,10116.0,9524.0,337.0,7.0,98.0,-0.6283676305579001,0.2087915658655475,-0.6808307089642462,0.3130970274878141
-88.96245789527893,8600.0,10184.0,9588.0,353.0,-36.0,137.0,-0.6403836866486663,0.18214576757241932,-0.6712850493780426,0.32574228419294277
-88.97024464607239,8580.0,10280.0,9668.0,403.0,-43.0,169.0,-0.6536917891464401,0.1507992480472578,-0.6595679835207409,0.33899366764777716
-88.97803282737732,8600.0,10212.0,9476.0,397.0,-43.0,149.0,-0.6654013205696586,0.12072610396089112,-0.6468162868751336,0.35255493393178233
-88.98581886291504,8532.0,10260.0,9644.0,388.0,46.0,86.0,-0.6691958044620612,0.09182970407872672,-0.6379926774985003,0.36974264590047357
-88.99360132217407,8576.0,10196.0,9576.0,348.0,40.0,131.0,-0.6736934209934722,0.06284858251359862,-0.6297336836958389,0.38160544781883377
-89.00137424468994,8620.0,10320.0,9584.0,340.0,-16.0,138.0,-0.680754390205289,0.035748961921927794,-0.6178223737310867,0.3919068594130693
-89.00915598869324,8564.0,10316.0,9500.0,296.0,-26.0,132.0,-0.6873914421338545,0.011890224112323888,-0.6062278543901293,0.39979922012585095
-89.01694345474243,8616.0,10284.0,9744.0,232.0,-17.0,107.0,-0.6921687432911653,-0.00713292368821569,-0.5969750007601002,0.4055519703784773
-89.02476048469543,8820.0,10264.0,9756.0,170.0,-20.0,99.0,-0.6965834139645083,-0.02188651894471864,-0.5894960642290691,0.4083955410340202
-89.03254508972168,8932.0,10224.0,9772.0,238.0,17.0,49.0,-0.6969219676646564,-0.0395110067591765,-0.5817132678211947,0.41755038662667643
-89.04032707214355,9076.0,10256.0,9640.0,202.0,12.0,53.0,-0.6975111365125249,-0.05495249840302175,-0.5746918789177524,0.4244851960507634
-89.05587673187256,9008.0,10284.0,9884.0,1.0,82.0,-56.0,-0.6913749136644373,-0.05527323130487103,-0.5797812329943356,0.4275503719144424
-89.06367874145508,9012.0,10344.0,9640.0,210.0,104.0,-56.0,-0.6829383612849497,-0.06901160622542675,-0.5782519169298366,0.44097314369310897
-89.07146143913269,9000.0,10332.0,9488.0,191.0,95.0,-33.0,-0.6756830885562287,-0.08240525772171597,-0.5765485352455396,0.4519441600963064
-89.07924795150757,8884.0,10288.0,9508.0,205.0,71.0,37.0,-0.6720516311615845,-0.09917039483633618,-0.5721645568116032,0.4594992467563364
-89.08703851699829,8708.0,10196.0,9464.0,187.0,116.0,-58.0,-0.6622646429824415,-0.1119028607369413,-0.5717441787687594,0.47116014948026425
-89.09486603736877,8528.0,10196.0,9512.0,88.0,56.0,36.0,-0.6601426998385898,-0.12111115146330671,-0.5708694658297642,0.4729183416027438
-89.10265922546387,8632.0,10096.0,9684.0,-251.0,-33.0,92.0,-0.6681373590730325,-0.10986370037982308,-0.5780826377121753,0.4553492074501721
-89.11045026779175,8636.0,9796.0,9320.0,158.0,-147.0,154.0,-0.6800590291200869,-0.1210001453581317,-0.5614883917882908,0.45564181943995746
-89.11826729774475,8360.0,10288.0,9256.0,347.0,-216.0,74.0,-0.6895536660178289,-0.13657668312084825,-0.5336101815691774,0.4702368822570062
-89.12609529495239,8332.0,10260.0,9124.0,474.0,-225.0,-47.0,-0.6918080172970122,-0.15355151477816528,-0.5005072226302443,0.4973088774673811
-89.13388347625732,8492.0,10660.0,9556.0,338.0,-168.0,-82.0,-0.6907542045260202,-0.16302340740400667,-0.47636817761024924,0.5189945634862683
-89.14168000221252,8920.0,10472.0,9672.0,236.0,-59.0,-82.0,-0.6860520963443536,-0.17114950315861704,-0.46301105900914913,0.5344727569346286
-89.14946269989014,9028.0,10432.0,9604.0,154.0,-103.0,-56.0,-0.6852936506659536,-0.17329663069358225,-0.45026650240274035,0.5455281541416402
-89.15725588798523,9116.0,10356.0,9624.0,88.0,-95.0,-109.0,-0.6825216382462012,-0.1697495813549999,-0.4418245749463215,0.5569024492036521
-89.16504120826721,9252.0,10320.0,9584.0,32.0,-82.0,-94.0,-0.6806870788812495,-0.16404705671578906,-0.4365761066728922,0.5649380204140432
-89.17283701896667,9332.0,10272.0,9504.0,5.0,-35.0,-58.0,-0.6791662147153844,-0.16041643216291052,-0.43489771884171613,0.5690903225565959
-89.18061757087708,9320.0,10484.0,9316.0,29.0,-255.0,-62.0,-0.6852652750277344,-0.14708866976720653,-0.4189193587574811,0.5773066749358595
-89.18841028213501,9220.0,10284.0,9340.0,17.0,-19.0,-38.0,-0.683909293834189,-0.1457695845436358,-0.41722525048876435,0.5804673947637238
-89.19619607925415,9036.0,10368.0,9224.0,4.0,-15.0,-30.0,-0.6829698512768766,-0.14416924757296232,-0.41632046638306625,0.5826188115497758
-89.2039623260498,8936.0,10416.0,9236.0,-14.0,-29.0,-93.0,-0.679533655566277,-0.1384899931109315,-0.4162713746625123,0.5880243833358008
-89.21174788475037,8832.0,10520.0,9316.0,-76.0,-22.0,-72.0,-0.6776149618281495,-0.13024668785204765,-0.4195317962810056,0.5898023700524097
-89.2195692062378,8944.0,10496.0,9716.0,-172.0,-35.0,-93.0,-0.676050356685766,-0.11486217421752065,-0.42712322663009084,0.5893456926390253
-89.22738552093506,8908.0,10376.0,9528.0,-1.0,244.0,-110.0,-0.6612114021527373,-0.12323570295872462,-0.4423732585089858,0.5932270588363466
-89.23517036437988,8960.0,10368.0,9632.0,-275.0,23.0,-116.0,-0.657136769269204,-0.10405169092139038,-0.4588582956457033,0.5888918208023891
-89.2429563999176,9040.0,10296.0,9512.0,-277.0,108.0,-113.0,-0.6493522673123141,-0.08916649025773199,-0.47996823286709056,0.5831135956140252
-89.25073742866516,9072.0,10168.0,9460.0,-238.0,144.0,-135.0,-0.6381491157039513,-0.07733382717322476,-0.5009580028501648,0.5795051895206644
-89.2585117816925,9052.0,10080.0,9524.0,-180.0,138.0,-56.0,-0.630443664485075,-0.07183537220928089,-0.5178755726840193,0.5737467702979977
-89.26626825332642,9064.0,10096.0,9584.0,-78.0,91.0,-32.0,-0.6252549485709801,-0.07066089191900848,-0.5268217503048288,0.5714211503317564
-89.2740466594696,8964.0,10112.0,9584.0,-63.0,121.0,-30.0,-0.6186114230694334,-0.07188463428790853,-0.5365798247003577,0.5694160151645171
-89.28183364868164,8928.0,10084.0,9680.0,-18.0,135.0,-238.0,-0.6004732118089678,-0.06646722923290156,-0.5459725341642858,0.5804550122758448
-89.28961038589478,8928.0,10076.0,9672.0,-77.0,134.0,26.0,-0.5958655508063131,-0.07046164725991035,-0.5565705705448771,0.5746378003847807
-89.29737830162048,8820.0,10000.0,9544.0,-163.0,163.0,100.0,-0.5938924559674565,-0.07500876321919331,-0.5723538746302769,0.5604252656518787
-89.30516743659973,8748.0,10084.0,9480.0,-232.0,173.0,109.0,-0.591955493896687,-0.07687351142240788,-0.591632337351461,0.5418951318171858
-89.3129575252533,8652.0,10028.0,9348.0,-310.0,203.0,196.0,-0.5924970742203552,-0.08053881255804342,-0.6149578755795404,0.5140890272849221
-89.32075119018555,8616.0,9936.0,9492.0,-323.0,166.0,322.0,-0.5998385213821315,-0.08850318209356048,-0.63511270999704,0.47853190136669915
-89.32854700088501,8672.0,9908.0,9304.0,-289.0,61.0,389.0,-0.6144496959133269,-0.09741476106895672,-0.646701905766311,0.44129194485750567
-89.33635830879211,8576.0,9948.0,9540.0,-146.0,10.0,433.0,-0.6313751826278688,-0.11434414786225884,-0.6485823143872204,0.4094285970415304
-89.34414386749268,8608.0,10116.0,9296.0,-48.0,-104.0,262.0,-0.6469778438876024,-0.12280430574317168,-0.6416693981993998,0.3931909910258715
-89.35193610191345,8520.0,10156.0,9320.0,56.0,-191.0,614.0,-0.6771501803431588,-0.15358996724425003,-0.6213056809560461,0.36312120020026595
-89.35971355438232,8648.0,10128.0,9628.0,98.0,-408.0,638.0,-0.7166745203596986,-0.1806841525434669,-0.5841333137712851,0.335438728577102
-89.36753940582275,8780.0,10432.0,9684.0,84.0,-559.0,712.0,-0.7623852190324245,-0.20526935260974125,-0.5336778221133702,0.303020218573596
-89.3753273487091,8972.0,10548.0,9504.0,76.0,-683.0,786.0,-0.8103546532811136,-0.22797728463472952,-0.4700411708893722,0.2653544634355519
-89.38311672210693,9452.0,10596.0,9848.0,-122.0,-737.0,762.0,-0.8570418290966597,-0.23258298074434905,-0.4036519375368928,0.22011263836826414
-89.39090490341187,9328.0,10744.0,9736.0,-273.0,-517.0,674.0,-0.8911287720700188,-0.22535439186273606,-0.35525796084298966,0.1699902671179656
-89.3986988067627,9148.0,10804.0,9740.0,-348.0,-383.0,642.0,-0.9170735768014948,-0.21204074157634922,-0.3169555147985994,0.11642156279237723
-89.40648555755615,9144.0,10688.0,9692.0,-383.0,-265.0,487.0,-0.9348879225099763,-0.19192796826931754,-0.2898785950290962,0.07154458389668336
-89.41428089141846,9184.0,10532.0,9928.0,-462.0,-145.0,748.0,-0.9481549392932882,-0.17184116091308385,-0.2673414834631664,0.0011652165027120978
-89.4220700263977,9324.0,10360.0,9688.0,-578.0,-31.0,259.0,-0.9561576486706536,-0.12998720077600173,-0.2602988406992686,-0.03332254572573172
-89.42988324165344,9284.0,10244.0,9720.0,-633.0,-57.0,761.0,-0.9588762819105032,-0.09442039331916292,-0.2439075271114094,-0.11022787094623876
-89.43767142295837,9440.0,9964.0,9568.0,-691.0,3.0,497.0,-0.9571239991706618,-0.047196481130458684,-0.23253686558957185,-0.16617084137188118
-89.44547033309937,9344.0,9748.0,9488.0,-689.0,25.0,545.0,-0.9487994215137198,-0.0005443690247911939,-0.22151595979387598,-0.22518890060168031
-89.45324635505676,9452.0,9548.0,9520.0,-641.0,35.0,605.0,-0.9335371583483828,0.0411808176512726,-0.21096032275897877,-0.28689415550308195
-89.46103835105896,9288.0,9428.0,9224.0,-608.0,50.0,715.0,-0.9095110488861026,0.07830091911693758,-0.20152430342246658,-0.3550303834175799
-89.46880745887756,9332.0,9304.0,9376.0,-629.0,15.0,814.0,-0.8762388692108424,0.11366814877987648,-0.1878749115258627,-0.42893823990897534
-89.47658944129944,9248.0,9240.0,9436.0,-632.0,33.0,976.0,-0.8286677521804598,0.14621688498695784,-0.17538982529039107,-0.5110467573769555
-89.48437523841858,9288.0,9124.0,9436.0,-664.0,32.0,1011.0,-0.7703625785814064,0.17892534062622226,-0.15999813989700812,-0.5907011217466019
-89.49215579032898,9296.0,9144.0,9316.0,-705.0,26.0,1151.0,-0.6948747239691726,0.2098668071481552,-0.14231945468765592,-0.6729414640692111
-89.49993324279785,9388.0,9132.0,9320.0,-791.0,20.0,1147.0,-0.6083142183204784,0.24270264366324812,-0.11718228313566517,-0.7465370393136087
-89.50771880149841,9444.0,9220.0,9132.0,-841.0,13.0,1216.0,-0.5069502820479003,0.2732280679150015,-0.08810014249972746,-0.8127645411350802
-89.5155119895935,9484.0,9328.0,9368.0,-817.0,87.0,1183.0,-0.39974186432424247,0.3038007989250692,-0.06174928059474987,-0.8626114668986841
-89.5233039855957,9580.0,9508.0,9232.0,-793.0,88.0,1189.0,-0.28648978508588013,0.32888193117347775,-0.03642045073232725,-0.89912948408864
-89.53113555908203,9644.0,9216.0,9116.0,-806.0,96.0,1161.0,-0.1706209546951062,0.3499850564918385,-0.008910057091182318,-0.9210426488138143
-89.53892636299133,9584.0,9536.0,9104.0,-795.0,2.0,1157.0,-0.052894802641781376,0.3581954039414249,0.019372714868450155,-0.9319457550562438
-89.54671883583069,9364.0,9636.0,9456.0,-770.0,-104.0,1113.0,0.061504419239474924,0.35251053354026085,0.04722579365427161,-0.9325895423877
-89.55450797080994,9072.0,9600.0,9168.0,-844.0,-16.0,1052.0,0.17204040401553183,0.3484267963387381,0.08274197638135695,-0.9176898344886485
-89.5622968673706,8920.0,9492.0,9364.0,-932.0,-392.0,993.0,0.280679561463464,0.3076949545790311,0.1202141220414612,-0.9011611196479165
-89.57007956504822,8348.0,9388.0,9264.0,-921.0,-568.0,866.0,0.37681071384566645,0.24759214560218729,0.15414868646180954,-0.8791757491135226
-89.577871799469,7980.0,9076.0,9240.0,-1076.0,-729.0,655.0,0.45652946982632175,0.1636388951999501,0.19676492997845113,-0.8521072218262279
-89.58565306663513,7624.0,8788.0,9068.0,-1074.0,-905.0,417.0,0.5142920557486784,0.060121319488016675,0.23246807117516516,-0.8233150698371289
-89.59344029426575,7328.0,8700.0,8852.0,-1028.0,-1164.0,130.0,0.5476443605357169,-0.06646340994022988,0.250822667699594,-0.7954597782921533
-89.60122179985046,6992.0,8156.0,8476.0,-896.0,-1484.0,-132.0,0.5593878430291666,-0.21278485941000944,0.23832849498149938,-0.7648577470071753
-89.60901427268982,6904.0,7980.0,8240.0,-679.0,-1850.0,-403.0,0.549943681188233,-0.3721011376454503,0.18279180453988528,-0.7250447207428995
-89.61679887771606,7056.0,7792.0,7984.0,-394.0,-2277.0,-634.0,0.5220311807010849,-0.5336171761611225,0.07596236138677263,-0.6610339441618761
-89.62459206581116,7180.0,7720.0,7940.0,-123.0,-2691.0,-754.0,0.4766016290438899,-0.6794387482087074,-0.07271806084132783,-0.5531057387631878
-89.63239550590515,7760.0,8012.0,8024.0,235.0,-3246.0,-781.0,0.41485954619460946,-0.7883818636388435,-0.25487975427223364,-0.37600785215028754
-89.6401879787445,8436.0,8436.0,8508.0,468.0,-3815.0,-702.0,0.320989010208906,-0.8338210706692903,-0.43231291922825316,-0.12171284772517196
-89.64797520637512,9120.0,8880.0,8804.0,598.0,-4098.0,-543.0,0.19176135469164157,-0.7892772744946062,-0.5571726514382855,0.17270669732938432
-89.6557674407959,9772.0,9624.0,9084.0,661.0,-4770.0,-363.0,0.009938471216668137,-0.6345696834926586,-0.6008815423305308,0.48596699030735113
-89.66366672515869,10552.0,10388.0,9224.0,643.0,-4999.0,-508.0,-0.17844115559732662,-0.3615232755759564,-0.5543022185707805,0.7281543282117001
-89.6714506149292,11440.0,10916.0,9144.0,471.0,-4986.0,-202.0,-0.3591292023175736,-0.03858866347007223,-0.41501715422642604,0.835043647237757
-89.67922973632812,11952.0,11140.0,8944.0,320.0,-4717.0,-370.0,-0.4637803965604204,0.2851930969849327,-0.22626173134061692,0.8076993686571438
-89.68703436851501,12056.0,11184.0,8848.0,164.0,-4294.0,-553.0,-0.4804088870726229,0.5539040796678738,-0.025117589085717762,0.6795341628405819
-89.69481420516968,12224.0,10948.0,8624.0,-245.0,-3856.0,-721.0,-0.4106808048570523,0.7514024157369844,0.14859901939241074,0.49462512833680583
-89.7025933265686,12160.0,10244.0,8520.0,-57.0,-3426.0,-753.0,-0.31549135889038,0.8524565921127036,0.30447987421412664,0.2847366629495521
-89.7104127407074,12364.0,9412.0,8548.0,-77.0,-3319.0,-656.0,-0.1968268024887744,0.8819332181334646,0.4246870496499438,0.05562300274546673
-89.71827745437622,12484.0,8512.0,8528.0,-23.0,-2769.0,-487.0,-0.08744930963237332,0.8524218259694782,0.4949784475417599,-0.1439652226227955
-89.72612619400024,13012.0,7692.0,8440.0,29.0,-2448.0,-100.0,0.014572023168025456,0.7990560025413335,0.5092426953515825,-0.31932591215639017
-89.73396825790405,13500.0,7316.0,8508.0,179.0,-2264.0,367.0,0.11074687679131226,0.7377740108656121,0.4664710486067484,-0.4752151081183742
-89.74176335334778,13924.0,7272.0,8412.0,431.0,-2124.0,894.0,0.2023821434067649,0.6762227391926111,0.36295254997593196,-0.6083006834575266
-89.74959182739258,14312.0,7544.0,8700.0,727.0,-2015.0,1517.0,0.29621943168607107,0.6141943189865559,0.1941338843142154,-0.7052172869246023
-89.7573778629303,14428.0,8220.0,8212.0,1129.0,-1541.0,1864.0,0.36678979812532375,0.5649200040243056,-0.014836349765163449,-0.738992906440927
-89.76515483856201,14120.0,8996.0,8652.0,1313.0,-1447.0,2073.0,0.42115647373361675,0.49571680165164705,-0.24086506254479703,-0.7203305483164085
-89.77299070358276,13736.0,9528.0,8844.0,1209.0,-819.0,2057.0,0.4698199046776204,0.4348253511820166,-0.42589967443671933,-0.6393791038600213
-89.78078269958496,13500.0,10424.0,8964.0,825.0,-98.0,2029.0,0.5384627690566831,0.3806506573577939,-0.5431689606197618,-0.5197407080575238
-89.7885754108429,13020.0,10248.0,8900.0,420.0,305.0,1900.0,0.6162639409520404,0.3192712275038002,-0.6021679056809299,-0.39456108746088925
-89.79635381698608,12288.0,10432.0,8460.0,74.0,769.0,1846.0,0.7076204596072191,0.24878317100329114,-0.6055408132634861,-0.2658957360376646
-89.80414032936096,11844.0,9908.0,8528.0,-187.0,1232.0,1906.0,0.805401159146622,0.1618309079282813,-0.5554712010195147,-0.1288078993009501
-89.81190752983093,11764.0,9196.0,8412.0,-257.0,1259.0,2012.0,0.8740152681636372,0.05920754862741187,-0.4819617373182009,0.017454539913718564
-89.81970191001892,11328.0,8748.0,7960.0,-211.0,1165.0,2156.0,0.9003681973974453,-0.047973555605261765,-0.3955247584882669,0.1749165872656497
-89.82750630378723,11040.0,8384.0,7756.0,-37.0,975.0,2182.0,0.8816544709203484,-0.13782448711980577,-0.3038471966416374,0.33371647509426483
-89.83530807495117,11012.0,8172.0,7744.0,159.0,745.0,2235.0,0.8210696075546341,-0.2020251321493318,-0.2106452972494771,0.4905701828248468
-89.84307289123535,10924.0,7868.0,7840.0,435.0,576.0,2153.0,0.7329879254794762,-0.23033830240109546,-0.11068388172436629,0.63041418597197
-89.85089755058289,11024.0,7808.0,7976.0,597.0,487.0,2125.0,0.6208862920614998,-0.23466993604248135,-0.003922108195556744,0.7479404057244415
-89.85867142677307,11084.0,7872.0,8168.0,722.0,435.0,2068.0,0.4916184853571529,-0.2202247988487539,0.10710759551425468,0.8356675569928029
-89.86644124984741,11124.0,8152.0,8076.0,512.0,442.0,1959.0,0.34878558941987814,-0.20851263790926222,0.197864596227961,0.8920317785845385
-89.87424397468567,11060.0,8104.0,8140.0,852.0,463.0,2021.0,0.1952057439649477,-0.18002444767469553,0.30922688136616405,0.9131618978051309
-89.88200545310974,10988.0,8064.0,8404.0,865.0,479.0,1617.0,0.06601275074368212,-0.1574026855233377,0.40622623605299313,0.8976897885525443
-89.88977146148682,10984.0,8136.0,8644.0,942.0,279.0,1575.0,-0.05375296921454111,-0.11621045493971796,0.4967885533015162,0.8583745579710007
-89.89757585525513,10800.0,8128.0,8840.0,785.0,616.0,1521.0,-0.1842803035494986,-0.09861383014549331,0.561064038884082,0.8009514507751526
-89.90534472465515,10792.0,8196.0,8836.0,1050.0,636.0,1504.0,-0.3072973064567313,-0.08488745907499037,0.6281572962888072,0.7097752431970036
-89.91312527656555,10788.0,8120.0,8684.0,1110.0,645.0,1504.0,-0.42152891007025034,-0.07094392894501668,0.6806025980849469,0.5950297811041491
-89.92092633247375,10668.0,8012.0,8940.0,1237.0,602.0,1494.0,-0.5192702081865447,-0.05796562365609841,0.7205935655537554,0.4557887127239855
-89.92869830131531,10716.0,8184.0,8612.0,1386.0,413.0,1606.0,-0.5918212086973317,-0.03553575781348498,0.7517545631789022,0.2887039029738754
-89.93651223182678,10780.0,7872.0,8472.0,1534.0,227.0,1611.0,-0.630780249226898,-0.014529381761417104,0.7690553684190763,0.10226932363461862
-89.94432806968689,10732.0,7876.0,8200.0,1642.0,109.0,1299.0,-0.6371548068431484,-0.01846175187551902,0.7665330286493254,-0.07823063226159982
-89.95210266113281,10660.0,7808.0,8080.0,1832.0,71.0,1472.0,-0.6161895267493781,-0.021019032739182666,0.7370027523040855,-0.27693972355602836
-89.95988321304321,10696.0,7940.0,8088.0,2025.0,149.0,1342.0,-0.5768782276623261,-0.0392310211755348,0.6675231637391142,-0.4691324581591236
-89.96768164634705,10816.0,8036.0,8036.0,2145.0,304.0,1209.0,-0.5256892460628849,-0.06302136127500098,0.5555522840502625,-0.6411246246116411
-89.97549843788147,10968.0,8276.0,8268.0,2205.0,475.0,1045.0,-0.4673705840561723,-0.08513332897024735,0.4065347737865589,-0.7804143330050695
-89.98329496383667,11152.0,8572.0,8204.0,2239.0,757.0,1278.0,-0.3803419927298507,-0.07767535341584851,0.22635505596431355,-0.8933475788725246
-89.99107050895691,11164.0,8904.0,8444.0,2229.0,779.0,1355.0,-0.26760275057457406,-0.06268514561620311,0.03476888144462241,-0.9608592328156541
-89.99889135360718,10992.0,9040.0,8604.0,2192.0,1279.0,1422.0,-0.13596127063759242,-0.0025248790963137476,-0.16600495006175006,-0.9767039031493404
-90.00665640830994,10904.0,9108.0,8724.0,2058.0,1460.0,1776.0,0.03579067042111183,0.06900376678771633,-0.34611883079222694,-0.9349648458904407
-90.0144431591034,10832.0,9040.0,8500.0,1921.0,1487.0,1600.0,0.19366153033288538,0.14316237502463966,-0.4922905093395995,-0.8364507160978385
-90.02225518226624,10688.0,8972.0,8764.0,1830.0,1407.0,1607.0,0.33866267915345927,0.20152704486622117,-0.6042341830427242,-0.6925283329790779
-90.03004837036133,10768.0,8888.0,8804.0,1923.0,1056.0,1811.0,0.4562971552136815,0.21983290710739778,-0.6998063661308761,-0.5037235839419373
-90.03782534599304,10716.0,8312.0,8860.0,1775.0,877.0,1732.0,0.5381045135967737,0.21752618476017055,-0.7563863802078263,-0.30167123698915266
-90.04561734199524,10732.0,8628.0,8628.0,1746.0,837.0,1652.0,0.5894811849767948,0.20740361817698555,-0.775410487328097,-0.09074275655418633
-90.05339741706848,11096.0,8876.0,8764.0,1407.0,926.0,1557.0,0.6267137309724367,0.17821657678498623,-0.7520640235305268,0.09934010107063804
-90.06119203567505,11616.0,8752.0,8972.0,1210.0,1099.0,1393.0,0.6566531444628904,0.14102231398015472,-0.6909714299605436,0.26735339497556904
-90.06896996498108,11612.0,8616.0,8884.0,1453.0,1093.0,1374.0,0.6598335279702163,0.11379402234506654,-0.5994641042368855,0.4385355442565364
-90.07674980163574,11596.0,7868.0,8996.0,1549.0,1014.0,1393.0,0.6315379363641215,0.08964107644774197,-0.4856494755243766,0.5977197497733655
-90.08452439308167,11716.0,7424.0,9000.0,1603.0,1002.0,1507.0,0.5704205527588834,0.0607259181835416,-0.3507307953994636,0.740216633837335
-90.09234714508057,11856.0,7060.0,9252.0,1607.0,1010.0,1559.0,0.48127727853649765,0.02740807367225495,-0.20023125762166896,0.8529527666484958
-90.10012221336365,11936.0,6848.0,9292.0,1690.0,1156.0,1603.0,0.36880008788171237,-0.01498100450704106,-0.028889656939994835,0.9289388851825993
-90.11567163467407,11700.0,6780.0,9172.0,1999.0,1489.0,1519.0,0.2442402174536528,-0.07254170179678576,0.17746372490854156,0.9505740602500177
-90.12344908714294,11556.0,6928.0,8848.0,2234.0,1746.0,1505.0,0.10249387075463395,-0.14072415310258352,0.3943759300510281,0.9023077883891281
-90.1312735080719,11416.0,7196.0,8544.0,2460.0,1989.0,1518.0,-0.05298135780238376,-0.21307538833980186,0.5971640501622599,0.7714836043643859
-90.13905167579651,11504.0,7708.0,8392.0,2466.0,2142.0,1627.0,-0.2176877191459237,-0.2703586200135212,0.7465951059036139,0.5675508975926314
-90.14685797691345,11552.0,7864.0,8316.0,2540.0,2259.0,1844.0,-0.3756295596531119,-0.29396403465745086,0.8271260588855184,0.29723738485465184
-90.15463304519653,11652.0,8180.0,8332.0,2517.0,2058.0,2081.0,-0.4868618438556325,-0.2649526096108489,0.8323091575695881,-0.0052082515009367215
-90.16240692138672,11752.0,8368.0,7968.0,2395.0,2267.0,2202.0,-0.5625602803601549,-0.19440650966020123,0.7424972550161044,-0.3072944292635192
-90.17020893096924,11760.0,8276.0,8288.0,2397.0,2076.0,2246.0,-0.5647281908505927,-0.10504843613069738,0.5817148987432019,-0.5758946718847968
-90.1780014038086,11548.0,8312.0,8208.0,2330.0,1953.0,2152.0,-0.5083067743941888,-0.012005426314813663,0.36893220846501007,-0.7780547014195758
-90.1857841014862,11992.0,8232.0,8136.0,2325.0,1903.0,1913.0,-0.4176384675918403,0.07201387429659724,0.12272822918512649,-0.8974017461858519
-90.19361281394958,12204.0,8344.0,8376.0,2285.0,1991.0,1567.0,-0.31689459553548527,0.15443812763412165,-0.13296103447679242,-0.926308827208361
-90.20139908790588,12412.0,8376.0,8644.0,2229.0,2189.0,1193.0,-0.21604886953089955,0.24537682689208187,-0.37421677098961686,-0.8677988863261454
-90.20918869972229,12704.0,8672.0,8896.0,2126.0,2461.0,822.0,-0.11406813714254321,0.34992915391510904,-0.5751415943879344,-0.7305820923989245
-90.21696829795837,12940.0,8352.0,9100.0,1803.0,2727.0,538.0,0.00208513151222074,0.4599005883699546,-0.7048399029909057,-0.5400813014679522
-90.22475481033325,12944.0,8256.0,9340.0,2294.0,2977.0,508.0,0.11126953604854671,0.540496306590946,-0.7906549986487773,-0.26523104271707915
-90.2325496673584,12572.0,8136.0,9368.0,1979.0,3200.0,90.0,0.22890916787929802,0.5962093613039854,-0.7691875997327371,0.02203240276710349
-90.24034881591797,12308.0,8312.0,9132.0,2026.0,3388.0,-190.0,0.33221620959451886,0.6077564586662603,-0.6500702990468079,0.3125269321663187
-90.24813222885132,11820.0,8396.0,9512.0,1924.0,3369.0,-337.0,0.4077181082889576,0.5592995251516858,-0.4562781213361466,0.5592497307360367
-90.25590062141418,11744.0,8328.0,9568.0,1701.0,3331.0,-511.0,0.4581772488451875,0.4535492048547343,-0.2180611778850018,0.7326773165014043
-90.26368880271912,11548.0,8552.0,9788.0,1471.0,3147.0,-548.0,0.47321803496712933,0.3074254705491242,0.022753112851179903,0.8252493970280013
-90.27150821685791,11396.0,8916.0,9856.0,1107.0,2972.0,-694.0,0.4691225470296422,0.13280253652419968,0.23463319604942628,0.8409725236134598
-90.27929043769836,11468.0,8980.0,9476.0,862.0,2824.0,-928.0,0.4531253493169183,-0.055852608496992466,0.4095258547148679,0.7898395268980651
-90.28708124160767,11324.0,9448.0,9160.0,706.0,2653.0,-1112.0,0.4244014388468254,-0.24236157610709513,0.5399091370887655,0.6853046102425502
-90.29489755630493,11180.0,9680.0,9008.0,621.0,2376.0,-1310.0,0.39247697892669253,-0.4111223633726977,0.6193447368959027,0.5416200884630935
-90.30267405509949,10900.0,9884.0,9352.0,638.0,1877.0,-1327.0,0.3686995072116753,-0.5381326098589266,0.6522167623758369,0.38611819753058624
-90.31044721603394,10472.0,10572.0,10528.0,709.0,1470.0,-1244.0,0.3545766192667146,-0.6256928583595821,0.6545886249107251,0.2330184546440242
-90.31825399398804,9912.0,12112.0,12540.0,639.0,1227.0,-1094.0,0.3376244692846083,-0.6852974583826078,0.6383074441985944,0.09455536978555125
-90.32601189613342,10104.0,14016.0,13900.0,173.0,1331.0,-990.0,0.27902052502992164,-0.738560112629896,0.6132852979128216,-0.023614614291235597
-90.33382964134216,10940.0,16244.0,14456.0,-922.0,1556.0,-1238.0,0.1313056135208857,-0.809409689383208,0.5630588073870413,-0.10285703677612444
-90.34161591529846,11812.0,17452.0,14332.0,-2482.0,2791.0,-1812.0,-0.18575729402619176,-0.8478966895639415,0.46001769961035893,-0.1869469111479777
-90.3493971824646,12232.0,17616.0,12596.0,-4019.0,3979.0,-3155.0,-0.6046475625903412,-0.73509727017292,0.19806597877005028,-0.23410082548282998
-90.35715341567993,12032.0,15672.0,11156.0,-5112.0,4864.0,-4825.0,-0.8939691059056334,-0.3599880675995931,-0.2114319350628579,-0.16286302744259817
-90.36495471000671,11548.0,12976.0,9512.0,-5368.0,5812.0,-5868.0,-0.7878193273938119,0.18929749118618303,-0.5860096773373552,0.009991260298269834
-90.37273097038269,10912.0,10360.0,8376.0,-5027.0,5971.0,-6307.0,-0.2962911456761919,0.6411928244262795,-0.6745755917069732,0.21454857252223108
-90.38050580024719,10024.0,7840.0,7808.0,-4227.0,5515.0,-5931.0,0.2941067604308588,0.7790746805795191,-0.44124997888245243,0.334428335649091
-90.38831329345703,9996.0,5824.0,7580.0,-3544.0,4863.0,-4874.0,0.7164540578352374,0.6079100766755288,-0.07318880987814602,0.3343386304278876
-90.39610075950623,10412.0,4744.0,7652.0,-2147.0,3807.0,-3536.0,0.8599749330840681,0.34562846820201487,0.2600909173370556,0.27080766450407207
-90.40390253067017,10808.0,4748.0,8356.0,-1237.0,2755.0,-1746.0,0.8381083668217684,0.14165885965202074,0.46884282308425734,0.24019479633793317
-90.41168570518494,10784.0,6000.0,9612.0,129.0,1764.0,158.0,0.7521027665068623,0.1192461398991891,0.5914218635084822,0.26522059892855515
-90.41950726509094,11220.0,7804.0,10964.0,876.0,1173.0,1082.0,0.6492799553528265,0.20299523044668166,0.6689381173829864,0.29958349604915885
-90.42728924751282,10720.0,10204.0,12308.0,1350.0,1625.0,1938.0,0.46546626905707184,0.3397656970829147,0.7391050894015416,0.34874645557566564
-90.43511390686035,10092.0,12432.0,12936.0,1153.0,2670.0,1667.0,0.19989212844485574,0.3962977849371502,0.7996349054405376,0.4044443356517627
-90.44289636611938,8852.0,14536.0,12804.0,265.0,4378.0,933.0,-0.13763449029676164,0.29004783809291806,0.7943436824856032,0.5157006038328698
-90.450688123703,7704.0,15460.0,12516.0,-956.0,6013.0,-565.0,-0.4454461419679824,-0.007380926665550645,0.6115943890728976,0.6538161513620988
-90.4584732055664,6712.0,15188.0,11596.0,-2028.0,6694.0,-2162.0,-0.5735821127861134,-0.3589644813698302,0.1971785892718876,0.7094143112028792
-90.46626400947571,5800.0,14236.0,10980.0,-2755.0,6735.0,-3250.0,-0.47185756950751007,-0.5696553165717047,-0.33835612633396506,0.5816858139686151
-90.47403526306152,5312.0,12784.0,10212.0,-3235.0,6306.0,-3922.0,-0.20205357035934332,-0.5232136349937904,-0.7816581692149376,0.2728229340821232
-90.48182392120361,4488.0,11192.0,9952.0,-3314.0,5515.0,-4280.0,0.10344912250395469,-0.25208483836703416,-0.9561294247989816,-0.10755480627195171
-90.4896092414856,3824.0,9708.0,9616.0,-3289.0,4462.0,-4257.0,0.31033262423433094,0.09853056825342861,-0.8353837941262207,-0.4428535942800625
-90.49739813804626,3772.0,8168.0,9804.0,-2574.0,3445.0,-3943.0,0.3843370526258625,0.40053079499109306,-0.5422577176277787,-0.6307271041550224
-90.50515842437744,4204.0,7100.0,10584.0,-2555.0,2448.0,-3455.0,0.36671602496450634,0.5627957797765687,-0.1823356167533343,-0.718006956904386
-90.51296663284302,4560.0,6536.0,11040.0,-1912.0,1693.0,-2981.0,0.28463500181739565,0.6196453366137006,0.13062744437299492,-0.7196937149439928
-90.52075171470642,4628.0,6380.0,11616.0,-1428.0,1253.0,-2816.0,0.1637203195931599,0.6046744183998375,0.38705648187788194,-0.6765735617960907
-90.52853035926819,5036.0,6160.0,11840.0,-1033.0,1140.0,-2370.0,0.038642865936536465,0.5603341332586708,0.5722560097497391,-0.5975411678895199
-90.53633117675781,5172.0,6728.0,11800.0,-682.0,1304.0,-2215.0,-0.10585120263742723,0.5020347610865092,0.7018832351762024,-0.4940815173021651
-90.54412174224854,5316.0,7508.0,11560.0,-414.0,1580.0,-2284.0,-0.2749067416733588,0.4215676429146476,0.7820724925520095,-0.36751819305091893
-90.55189943313599,5456.0,7968.0,11044.0,-331.0,1817.0,-2471.0,-0.4500612605226947,0.3081010676517582,0.8111114288263007,-0.21122699618166
-90.55967307090759,5956.0,8732.0,10616.0,-512.0,2532.0,-2699.0,-0.6326032206417403,0.174691332190288,0.7545167508328471,-0.000759212699595627
-90.56744980812073,6140.0,9572.0,10312.0,-245.0,2910.0,-2691.0,-0.7754848456054911,0.010477300363544563,0.5997757319747957,0.19693286101465615
-90.57522511482239,6184.0,10076.0,10508.0,429.0,3101.0,-2324.0,-0.8503812306827888,-0.1833353680289186,0.37792952404390284,0.3168740762323036
-90.5830237865448,5924.0,10800.0,11224.0,660.0,3240.0,-1798.0,-0.8520795160185948,-0.3623598937328513,0.12042273594090687,0.35798627133444727
-90.5908591747284,5768.0,11420.0,11944.0,630.0,3406.0,-1295.0,-0.7876263793133162,-0.5035736613617153,-0.14642264422906387,0.3234480846279995
-90.59864377975464,5548.0,11544.0,12336.0,380.0,3612.0,-910.0,-0.6646355645650113,-0.5893314398162773,-0.4028625274261812,0.2205670064973723
-90.60643744468689,5704.0,12272.0,13020.0,249.0,3839.0,-682.0,-0.4768530962521528,-0.6187171612840066,-0.6206773292286623,0.06752667553619582
-90.61424326896667,5568.0,12068.0,12836.0,-395.0,3993.0,-603.0,-0.262400480363814,-0.5591141517747822,-0.7745862487271071,-0.13621122006969064
-90.62202572822571,5124.0,11772.0,13000.0,-596.0,4037.0,-588.0,-0.02404829807171768,-0.43065687801969704,-0.8361309521569085,-0.33888252185582446
-90.62981081008911,4676.0,11244.0,12704.0,-622.0,3782.0,-597.0,0.19979520689466432,-0.2594052087629549,-0.8032610470446506,-0.49755653273703226
-90.63772630691528,4344.0,10692.0,11832.0,-493.0,3363.0,-569.0,0.38278917684688785,-0.0785217755959796,-0.7047889772992947,-0.5920973520659848
-90.64550232887268,3504.0,10268.0,11308.0,-282.0,2870.0,-573.0,0.511253629889982,0.09268975417414449,-0.5793270876088978,-0.6280194749830981
-90.65328621864319,3136.0,10128.0,10820.0,-81.0,2360.0,-466.0,0.5927917416636631,0.2368625489242461,-0.4556588172024093,-0.6203782122529542
-90.66109418869019,2952.0,10120.0,10500.0,200.0,1864.0,-499.0,0.626927917476914,0.3627336913151924,-0.3544937758852189,-0.591371134171727
-90.6688756942749,3012.0,10308.0,10272.0,325.0,1500.0,-543.0,0.6288480388407212,0.46981592887647633,-0.26926287562963536,-0.5579611463424421
-90.67665386199951,3108.0,10748.0,9992.0,482.0,1251.0,-671.0,0.6008408487058834,0.5679322669601474,-0.19496077016969338,-0.52766799482889
-90.68447136878967,3444.0,10936.0,10092.0,483.0,1178.0,-970.0,0.5471132400481808,0.6574901171555171,-0.10639591403328096,-0.5070046921714129
-90.69224953651428,4072.0,11180.0,10044.0,363.0,1242.0,-1310.0,0.47391401103538255,0.7324531027513683,0.011789100342103783,-0.48865016067466177
-90.70002818107605,4848.0,11492.0,10208.0,267.0,1290.0,-1407.0,0.3901602683127948,0.785968805976033,0.1416435991412953,-0.4582194800365833
-90.70782566070557,5520.0,11524.0,10268.0,264.0,1309.0,-1420.0,0.29494767409358236,0.8179809579002142,0.26915068538782977,-0.4140904860229165
-90.71567893028259,6132.0,11848.0,10792.0,273.0,1354.0,-1249.0,0.19601912341804031,0.833663907694864,0.37831319634236327,-0.35136891970488315
-90.72355055809021,6640.0,11824.0,11736.0,219.0,1392.0,-912.0,0.10508815255296934,0.8410175072120076,0.45687873955535624,-0.2700145368275812
-90.73135709762573,7112.0,12124.0,12292.0,162.0,1443.0,-567.0,0.022126610981346755,0.8461156348227451,0.5032733855734338,-0.17411101334618964
-90.7392053604126,7372.0,12048.0,12924.0,24.0,1496.0,-428.0,-0.05136830198128405,0.8423662613542706,0.5325158172148141,-0.0648635776042853
-90.74702787399292,7440.0,11972.0,12860.0,-312.0,1605.0,-560.0,-0.10499426850750776,0.817567246878852,0.5619056558624187,0.06944086924378869
-90.75483822822571,7396.0,11872.0,12560.0,-549.0,1719.0,-840.0,-0.14288145591463453,0.7595776653084882,0.5938726610379162,0.22347689453714215
-90.76263046264648,6592.0,11352.0,12124.0,-686.0,1690.0,-1121.0,-0.16034732309125826,0.6654908621465009,0.622945770527114,0.37861486415532447
-90.77043008804321,5992.0,10768.0,11724.0,-618.0,1617.0,-1379.0,-0.16375759103283363,0.5357411726697008,0.6479870313671422,0.5160209825827
-90.7782552242279,5440.0,10484.0,11172.0,-388.0,1433.0,-1514.0,-0.15581087812786734,0.38448741242088075,0.6694032862234068,0.6162723751233882
-90.78605842590332,4808.0,9616.0,10900.0,-111.0,1115.0,-1606.0,-0.1289700531250547,0.2287733144699288,0.69203894486757,0.6723924410416465
-90.7938461303711,4552.0,8932.0,10884.0,119.0,685.0,-1530.0,-0.08206733924974732,0.09375678607863792,0.7141020697554923,0.6888634486337576
-90.80164432525635,4444.0,8288.0,10860.0,197.0,318.0,-1410.0,-0.01860818920595839,-0.014541355824460887,0.7291985958310493,0.6838945036358225
-90.80943393707275,4584.0,7964.0,10920.0,272.0,-84.0,-1198.0,0.058215031274654744,-0.08568350820661962,0.7396858200355877,0.6649317515304689
-90.81722784042358,4556.0,7684.0,10892.0,327.0,-428.0,-1275.0,0.16108134297365195,-0.14041944156967337,0.7414757459681566,0.6360415863102286
-90.82501220703125,4668.0,8152.0,10800.0,485.0,-669.0,-782.0,0.2524618512349238,-0.14627513589210117,0.7456713295655139,0.5990332766673163
-90.83280897140503,4924.0,8464.0,11208.0,734.0,-958.0,-737.0,0.3599700481465031,-0.1269360678808736,0.7477899954542434,0.543248489926009
-90.84060215950012,5344.0,8920.0,11452.0,792.0,-1107.0,-145.0,0.44470497018725297,-0.05852389940658929,0.7436011117286458,0.4958526286356906
-90.84838628768921,5784.0,9244.0,11764.0,880.0,-1126.0,172.0,0.5108270803977257,0.03533836241968662,0.7330202606816413,0.44775907752277777
-90.85616755485535,5900.0,9540.0,12080.0,897.0,-1031.0,455.0,0.5519129037439514,0.14368620017930483,0.7149838256247524,0.40440641890794243
-90.86395215988159,6384.0,10028.0,12380.0,838.0,-729.0,544.0,0.5644392687516853,0.2423958144672446,0.6984613960443818,0.3671569953787578
-90.87171173095703,6540.0,10396.0,12336.0,728.0,-290.0,368.0,0.553377148044192,0.30916003176660783,0.6976243988267228,0.3339371272293637
-90.8795325756073,6540.0,10744.0,12000.0,671.0,150.0,71.0,0.5231531505410834,0.34094006978174207,0.7211045806064436,0.30013136078151603
-90.88732600212097,6540.0,10996.0,11732.0,496.0,507.0,-17.0,0.47605227064585637,0.34860033364305065,0.756224263790635,0.28280188445480714
-90.89510154724121,6164.0,11432.0,10932.0,356.0,800.0,-507.0,0.42331622142215103,0.30900282996255846,0.8104591239684019,0.2616804083846805
-90.90287733078003,6244.0,11336.0,10436.0,270.0,1018.0,-685.0,0.3575459266648057,0.24582113580689852,0.86746568380031,0.24338481247783764
-90.91065549850464,6168.0,10960.0,10340.0,234.0,1005.0,-676.0,0.2891311217503231,0.17957412323919,0.9129933412138145,0.22494329862770174
-90.91842412948608,6008.0,10724.0,10720.0,143.0,957.0,-762.0,0.2242962616374361,0.10309197984336745,0.9464186064616595,0.208218760083274
-90.92623281478882,5816.0,10064.0,11232.0,141.0,730.0,-162.0,0.16529509273871065,0.07904618416373466,0.96259077431596,0.19962022514628755
-90.93400812149048,5592.0,9820.0,11276.0,43.0,466.0,-1.0,0.12574361081294919,0.0714185685881855,0.9692444222794135,0.19913106809531744
-90.94180488586426,5268.0,9748.0,11664.0,-33.0,219.0,139.0,0.1049634926733953,0.07900220188324526,0.9699374126962017,0.2048480723746238
-90.94960403442383,5016.0,9832.0,11488.0,-34.0,-25.0,91.0,0.10566943185779969,0.0868504239727684,0.9684169899748639,0.20846944273591905
-90.95738077163696,4740.0,10080.0,11348.0,-56.0,-219.0,-144.0,0.12718143346204208,0.07813537345419994,0.9661858645065007,0.210248951544446
-90.96517586708069,4356.0,10204.0,11244.0,-86.0,-409.0,-329.0,0.16811351822466508,0.05688955267930908,0.9612553107192106,0.2109257011371237
-90.97295570373535,4116.0,10392.0,11200.0,-86.0,-600.0,-605.0,0.22938468147808105,0.015879800239333382,0.9511968434196949,0.20580346186584603
-90.98074102401733,4124.0,10368.0,10860.0,-126.0,-822.0,-878.0,0.31185577686380783,-0.04451014796207547,0.9285117873171782,0.19654689511189025
-90.98851156234741,4308.0,10340.0,10744.0,-237.0,-974.0,-1207.0,0.40680037307541395,-0.13083110960541053,0.8849600969886937,0.18504676155740482
-90.99634528160095,4656.0,10432.0,10364.0,-350.0,-1212.0,-1342.0,0.5115542499774782,-0.22443124618295238,0.8105137075421307,0.17609768582538524
-91.0041093826294,5016.0,10528.0,9988.0,-371.0,-1400.0,-1417.0,0.6155903205119256,-0.31479561301757947,0.703594034079025,0.16403571112813978
-91.01189923286438,5560.0,11000.0,10164.0,-503.0,-1612.0,-1444.0,0.7082897643180169,-0.39991377156997415,0.5596374391149799,0.1587467222081573
-91.01967906951904,6136.0,10692.0,10684.0,-102.0,-1746.0,-1289.0,0.7937889669059068,-0.4371216696093833,0.3981418296047596,0.14250194909310124
-91.02749276161194,6504.0,10716.0,11284.0,20.0,-1683.0,-1280.0,0.8545968730907219,-0.45154823341155775,0.2290116250256676,0.11542119826775747
-91.03527235984802,6532.0,10844.0,12272.0,50.0,-1792.0,-721.0,0.8871987831253773,-0.4378456515794456,0.06641401248022691,0.12945533422805194
-91.0430908203125,6460.0,10532.0,12880.0,7.0,-1234.0,-439.0,0.893841983062412,-0.42296642932934125,-0.045611793050666025,0.14165265020515944
-91.0508964061737,6764.0,10728.0,13172.0,-113.0,-916.0,-299.0,0.8866362149655125,-0.41757380299812297,-0.12910096247232222,0.1511333280584871
-91.05867552757263,6860.0,10644.0,13116.0,-173.0,-703.0,-134.0,0.8724703131279763,-0.4191144429583195,-0.19031501604908166,0.1640695921868103
-91.06644463539124,6772.0,10624.0,12552.0,-183.0,-518.0,-65.0,0.8571988631003791,-0.42386599845385275,-0.23451146868116254,0.17479157734610673
-91.07424879074097,6516.0,10528.0,12160.0,-51.0,-420.0,252.0,0.8421900137398561,-0.4258553140084189,-0.25716718243613096,0.2079140990060891
-91.08202028274536,6248.0,10492.0,11636.0,197.0,-394.0,114.0,0.838033714418052,-0.40628214157718767,-0.2781035838778731,0.23514402303358656
-91.08979296684265,6140.0,10636.0,11436.0,424.0,-421.0,186.0,0.8378768368399997,-0.3704049101838048,-0.2931594823278218,0.27353267943704207
-91.0975968837738,5484.0,10988.0,11064.0,661.0,-480.0,189.0,0.8402953060851108,-0.3144051987830732,-0.30553400628312377,0.31890773047088433
-91.10537457466125,4836.0,11264.0,11048.0,830.0,-583.0,244.0,0.8373561291343952,-0.24259779432310763,-0.31713774652522236,0.3733693518749622
-91.11314630508423,4576.0,11556.0,11312.0,939.0,-797.0,149.0,0.8255788895857465,-0.15101661841352776,-0.33957322744994467,0.4246215976991004
-91.1209466457367,4012.0,11756.0,11292.0,815.0,-1049.0,32.0,0.7987746340002171,-0.05377701346608693,-0.38186289021536907,0.46178766763183793
-91.12872862815857,3632.0,11752.0,11156.0,482.0,-1232.0,-203.0,0.7630628186307424,0.0362058757238059,-0.4461018382849098,0.46628040840807694
-91.13649868965149,3512.0,11408.0,10932.0,59.0,-1385.0,-409.0,0.7199991206747912,0.11170705558632554,-0.5302916159340658,0.43349002529446745
-91.1443452835083,3692.0,10848.0,10764.0,-198.0,-1679.0,-615.0,0.6595261577242412,0.18906295826136538,-0.6294467281586357,0.36479756235664346
-91.15213418006897,3832.0,10264.0,10544.0,-305.0,-2021.0,-706.0,0.5661306893267254,0.2699592818017169,-0.7308357643135863,0.2692528818262194
-91.159916639328,4028.0,9872.0,10688.0,-342.0,-2382.0,-683.0,0.4283117952163934,0.3445409295390719,-0.821071456123985,0.15389027873553823
-91.16769027709961,4220.0,9716.0,10560.0,-218.0,-2816.0,-525.0,0.2329803634371255,0.399501250625848,-0.886023353654412,0.03288643763129473
-91.17550277709961,4348.0,9592.0,10480.0,25.0,-3133.0,-403.0,-0.008650606618653864,0.42434662582566063,-0.9019434282272314,-0.0797067151074184
-91.18328523635864,4140.0,9876.0,10516.0,28.0,-3305.0,-234.0,-0.2607956274796895,0.40322191555478193,-0.8558946594045512,-0.1919428547942708
-91.19107389450073,4276.0,10032.0,11140.0,542.0,-3444.0,-156.0,-0.5163598820237529,0.32983964734442484,-0.747173427600673,-0.2575075695267678
-91.19888734817505,4428.0,10528.0,11420.0,742.0,-3528.0,-195.0,-0.736512285578131,0.21911808884250658,-0.5714735138764574,-0.28801899116582447
-91.20667338371277,4688.0,11236.0,11940.0,528.0,-3378.0,-181.0,-0.8811758731432331,0.10457377508573172,-0.3487898099947642,-0.3015610628022052
-91.21445298194885,5032.0,11756.0,12136.0,654.0,-3174.0,-229.0,-0.9522444227012558,-0.02166928693237168,-0.11513356967778365,-0.2819667756517517
-91.22224116325378,5144.0,11980.0,12420.0,377.0,-2916.0,-331.0,-0.9575136167285883,-0.1178619407021686,0.11365968943413658,-0.23739779213588375
-91.23001599311829,5736.0,11576.0,12508.0,114.0,-2583.0,-263.0,-0.9129455210407542,-0.17926648057427658,0.31635720885364854,-0.18523531240146193
-91.23781895637512,6020.0,11036.0,12476.0,-159.0,-2556.0,-131.0,-0.8266050154619683,-0.2066572234938721,0.5077843393800879,-0.1271691985948277
-91.24559712409973,6036.0,10720.0,12644.0,-245.0,-2056.0,129.0,-0.7267789600750735,-0.20288176089609108,0.6504280024961194,-0.087033027390778
-91.25336194038391,6136.0,10364.0,12340.0,-177.0,-1809.0,420.0,-0.6160357892792521,-0.17924518096573294,0.7637980507185524,-0.0705946821381732
-91.2611448764801,5536.0,10040.0,12272.0,-76.0,-1596.0,717.0,-0.5007021693016064,-0.1356524543501161,0.8513453500381917,-0.07814630032064064
-91.26896667480469,5280.0,10072.0,12012.0,35.0,-1421.0,926.0,-0.38428350743952394,-0.07724968794078717,0.9141691341625416,-0.1032156275354511
-91.27674150466919,4612.0,10184.0,11948.0,144.0,-1404.0,1101.0,-0.2583030031737893,-0.006813656641252665,0.9557796030327261,-0.14042251621866436
-91.28451561927795,4376.0,10452.0,11424.0,243.0,-1406.0,1186.0,-0.12474937560136191,0.06851236597076144,0.9725369462818049,-0.18416171456907285
-91.29231572151184,3980.0,10748.0,11488.0,377.0,-1543.0,1271.0,0.02401381058725579,0.14522349491250594,0.9606582693237302,-0.23551892282025289
-91.3000853061676,3472.0,10956.0,11148.0,477.0,-1597.0,1169.0,0.17320677737584284,0.20816205413112285,0.9183046577119385,-0.2887637912127252
-91.3078544139862,3360.0,11256.0,10980.0,500.0,-1710.0,1264.0,0.3271891007033021,0.2691048228756091,0.8417068108084338,-0.3347529407260628
-91.31565594673157,3384.0,11108.0,10936.0,516.0,-1944.0,875.0,0.4748967819288502,0.2861462140063617,0.7371302051026003,-0.3863061628408817
-91.32342791557312,3532.0,11164.0,10912.0,508.0,-2221.0,527.0,0.6103748709027325,0.26086241505060964,0.6022754806918008,-0.44346089200953936
-91.33119940757751,3768.0,11152.0,10752.0,537.0,-2536.0,623.0,0.7360000936638168,0.21825393696890835,0.42081250163361156,-0.48330727243989047
-91.33904242515564,4280.0,11168.0,11204.0,555.0,-2738.0,578.0,0.8252472302190647,0.15494086210972227,0.20405165473098297,-0.5033122892062201
-91.34683442115784,4424.0,11396.0,11432.0,577.0,-2783.0,598.0,0.8659067357839895,0.08237646374525748,-0.0291867918086957,-0.49251169968708186
-91.35461759567261,4848.0,11588.0,11464.0,625.0,-2748.0,635.0,0.8549047507825573,0.009746395068873207,-0.2603738994640786,-0.44860707456575505
-91.3624119758606,5108.0,11856.0,11540.0,547.0,-2577.0,553.0,0.7958106767067669,-0.06093693853935738,-0.46203442615955154,-0.38664744329218326
-91.37023401260376,5104.0,12244.0,11528.0,492.0,-2337.0,464.0,0.7041669110829987,-0.12138814314724607,-0.6245150018538899,-0.3152695552991565
-91.37800645828247,4884.0,12296.0,11788.0,329.0,-2083.0,276.0,0.5916536087838656,-0.17048193163085557,-0.7458656293938026,-0.25409915601872357
-91.38577604293823,4724.0,12680.0,12004.0,223.0,-1818.0,93.0,0.47271627422551044,-0.2026768879595549,-0.8326708203093591,-0.20523330181703192
-91.39358496665955,4408.0,12888.0,11516.0,134.0,-2040.0,-227.0,0.31771551585424423,-0.21371988660581936,-0.9087080567978998,-0.16622373045161837
-91.40136814117432,4180.0,12956.0,10968.0,13.0,-1785.0,-500.0,0.1669769339491218,-0.19700215027963355,-0.9552883014413137,-0.14398999077547397
-91.40914130210876,4028.0,13008.0,10332.0,10.0,-1895.0,-799.0,-0.000880180778872085,-0.15160638511671962,-0.98108145928728,-0.12039061224355839
-91.4169545173645,4032.0,12844.0,9528.0,12.0,-2036.0,-1142.0,-0.18331149518045733,-0.0736864931079384,-0.9760966463863063,-0.090567838560744
-91.42472839355469,4212.0,12364.0,9064.0,31.0,-2390.0,-1421.0,-0.3867616203080603,0.027195200228521343,-0.9205018509581142,-0.04849961364691414
-91.43250751495361,4444.0,11904.0,9028.0,221.0,-2882.0,-1454.0,-0.6015100892313783,0.11965205963847142,-0.7897772813579296,0.010992862593923505
-91.44034934043884,4956.0,11464.0,9364.0,271.0,-3510.0,-1283.0,-0.8032619851318548,0.18741569395091562,-0.5624582208798032,0.05732617785667609
-91.44813561439514,5140.0,11152.0,9764.0,765.0,-3868.0,-964.0,-0.9434428245353026,0.18884857511110759,-0.2559645886323439,0.0934557749827677
-91.4559097290039,5844.0,10932.0,9928.0,863.0,-4691.0,-719.0,-0.9738305774812208,0.15843656465624514,0.1376593671827217,0.08718807240312149
-91.46368217468262,6176.0,10608.0,10080.0,842.0,-5026.0,-580.0,-0.8403193469480025,0.10756609368336184,0.5287655664695352,0.051960623078792664
-91.47146272659302,6732.0,10364.0,10576.0,784.0,-5302.0,-506.0,-0.5437350052924801,0.04575689392779651,0.8380035815628567,0.002923690389175641
-91.47923851013184,6936.0,10252.0,10752.0,702.0,-5126.0,-455.0,-0.15624345141819554,-0.017846197345035668,0.9866201754301639,-0.04301309757974061
-91.48703646659851,7452.0,9920.0,10816.0,706.0,-5356.0,-502.0,0.2749293807960399,-0.08209316227625178,0.9546027575548868,-0.08005075609385105
-91.49483323097229,8092.0,9776.0,11012.0,711.0,-5152.0,-574.0,0.6415776256758956,-0.13539944179781102,0.7475889640687092,-0.10562140974062009
-91.50262403488159,8344.0,9724.0,10936.0,527.0,-4917.0,-687.0,0.8822428375343903,-0.17968708344000267,0.42093879698467557,-0.11032070003941657
-91.5104010105133,8392.0,9388.0,11192.0,990.0,-4566.0,-708.0,0.9787578185561041,-0.1602189556249443,0.044858547991175425,-0.11979453053404439
-91.51822662353516,8236.0,9188.0,11244.0,1412.0,-4329.0,-802.0,0.933857615163768,-0.08139101199465798,-0.3255784479032141,-0.12362900965412434
-91.52601361274719,7968.0,9244.0,10884.0,1756.0,-4157.0,-856.0,0.7601520936997967,0.03851653808503309,-0.6399013367930176,-0.10588460656898542
-91.53379988670349,7816.0,9636.0,10752.0,2162.0,-4135.0,-852.0,0.47505490503006337,0.17689338059747567,-0.8604567950649888,-0.05143610535569381
-91.5416259765625,7548.0,10180.0,10428.0,2534.0,-4028.0,-771.0,0.11984931640069606,0.2966372976538732,-0.946545428420193,0.041160745082256776
-91.54941701889038,7724.0,10652.0,10540.0,2605.0,-3865.0,-571.0,-0.24505269213390957,0.3562106188614419,-0.890909631105538,0.13907984142810206
-91.55719256401062,8212.0,10504.0,10576.0,2361.0,-3650.0,-411.0,-0.5581550258370767,0.356939343994892,-0.7208118076795071,0.20368507493459018
-91.5649802684784,8840.0,10988.0,10636.0,2164.0,-3836.0,-200.0,-0.8058024164502082,0.3100990723804115,-0.4565271376255232,0.21471842855996331
-91.57275605201721,9000.0,11044.0,10588.0,2009.0,-3330.0,-22.0,-0.9398306545075411,0.2196803306836383,-0.17417154412804484,0.1952515464079783
-91.5805447101593,9640.0,11336.0,10840.0,1824.0,-3692.0,-84.0,-0.9687881271519166,0.1261659997338344,0.15204217801633477,0.14971600216641098
-91.58832740783691,9884.0,11272.0,10764.0,1555.0,-3916.0,-326.0,-0.8721945514771737,0.03871566225807915,0.4758370322223146,0.10656866629225414
-91.59611892700195,9984.0,11268.0,10496.0,1525.0,-4166.0,-693.0,-0.6497964778047368,-0.06300278942815636,0.7536300585448084,0.07639974355047449
-91.60394716262817,10076.0,11276.0,10444.0,890.0,-4407.0,-1031.0,-0.32303402648101337,-0.14099167861361048,0.9311548649225355,0.093386197204271
-91.61179280281067,10064.0,11132.0,10044.0,313.0,-4656.0,-1209.0,0.06362493828441804,-0.1936980488410199,0.9679059925038935,0.1469384999873701
-91.61966705322266,10076.0,11064.0,9440.0,-92.0,-4958.0,-1436.0,0.4552513609945484,-0.22968735797172962,0.8341306616628141,0.21027590250557482
-91.62746119499207,10072.0,11452.0,9188.0,-263.0,-5013.0,-1731.0,0.7682437212739107,-0.2486998693608648,0.5401665144926877,0.23700231290838347
-91.63525867462158,10448.0,11288.0,8472.0,-867.0,-4938.0,-2229.0,0.9275074732670311,-0.27928878286313996,0.1286414242098557,0.2125536327092379
-91.64348125457764,10936.0,10908.0,8624.0,-1150.0,-4752.0,-2785.0,0.9016578468974836,-0.28298611317756645,-0.31003149245797174,0.10398298207461817
-91.6524612903595,11412.0,10536.0,8724.0,-1368.0,-4552.0,-3185.0,0.6921252380442443,-0.23519229137096323,-0.6793908623960015,-0.06383805318688238
-91.66142654418945,11876.0,10100.0,8988.0,-1428.0,-4521.0,-3398.0,0.33492842413323015,-0.12921909215605876,-0.9038670750534656,-0.23270085424056325
-91.67040371894836,11804.0,9852.0,9564.0,-1399.0,-4555.0,-3479.0,-0.09852421389680198,0.010551754190123145,-0.931549569330524,-0.3498528828516973
-91.67938089370728,12488.0,9808.0,9780.0,-1500.0,-4563.0,-3376.0,-0.5083666140577102,0.14113991034685328,-0.7505515378898976,-0.3978885527253716
-91.68835473060608,12816.0,9740.0,10320.0,-1726.0,-4506.0,-3156.0,-0.7967127838996508,0.23932348882143797,-0.40350260821006895,-0.38099691972097993
-91.69731378555298,13384.0,9912.0,10500.0,-1841.0,-4401.0,-2930.0,-0.908098998455693,0.2911285926565358,0.022542312951363188,-0.30015362011542573
-91.70629000663757,13680.0,9584.0,11284.0,-1902.0,-4054.0,-2518.0,-0.8374619354272693,0.3015451411826752,0.41771409196485715,-0.18232655295789357
-91.71531987190247,13840.0,9480.0,11496.0,-1974.0,-3333.0,-2317.0,-0.6521506388617988,0.2866511138648973,0.7013002290028219,-0.026620893162156607
-91.72438740730286,13932.0,9808.0,11164.0,-2082.0,-2332.0,-2160.0,-0.4389011874186372,0.25381135354166984,0.8474996878325141,0.15712995774086796
-91.73336267471313,13940.0,9948.0,10996.0,-2079.0,-1298.0,-2175.0,-0.2567729418828429,0.18297096183251602,0.8814940790617944,0.35150742811768965
-91.7422616481781,13688.0,10104.0,10928.0,-2059.0,-386.0,-2162.0,-0.1237338499488437,0.07214747793424728,0.8331381685380235,0.5341960950153717
-91.75006937980652,13284.0,10324.0,10372.0,-2004.0,85.0,-2190.0,-0.014786161549062581,-0.06717648907574628,0.7283997964045297,0.6816908576033133
-91.75788474082947,12952.0,10852.0,9996.0,-1839.0,476.0,-2198.0,0.07253995413578346,-0.22562167044835196,0.5868251566497531,0.7742538681860534
-91.76568102836609,12716.0,11316.0,9484.0,-1643.0,851.0,-2091.0,0.13386948311973526,-0.38908638213630276,0.4274787823693151,0.8049550542417792
-91.7734797000885,11816.0,11756.0,9536.0,-1680.0,1188.0,-1859.0,0.1584345635341565,-0.5456429574972685,0.2529267636491131,0.7830710722797523
-91.78128719329834,11376.0,11712.0,9504.0,-2028.0,1471.0,-1623.0,0.1357104479784276,-0.6870289632200519,0.05555266743539639,0.7116795480741931
-91.78912472724915,10792.0,11192.0,9276.0,-2560.0,1646.0,-1417.0,0.05967507467140187,-0.7930855686749692,-0.16210171925264946,0.5841037569112174
-91.79695153236389,10540.0,10548.0,8816.0,-3169.0,1718.0,-1298.0,-0.0656874688220437,-0.8334426705166927,-0.3836821075215156,0.3922327265407678
-91.80474925041199,10208.0,9960.0,8276.0,-3624.0,1649.0,-1162.0,-0.22037158876038418,-0.7806197051431323,-0.5658026248784649,0.14811019036552603
-91.81254816055298,9972.0,9468.0,7568.0,-4089.0,1554.0,-1165.0,-0.37872623864410865,-0.6180085318186864,-0.6769799076058229,-0.1277892619111978
-91.82034230232239,9788.0,9096.0,7104.0,-4122.0,1415.0,-1232.0,-0.49402552188733756,-0.36561544705561055,-0.6920547673508859,-0.37858199585450536
-91.82814049720764,9684.0,9168.0,6936.0,-4399.0,1179.0,-1245.0,-0.5587227783928607,-0.05713563064628567,-0.589084075917578,-0.5809856522462038
-91.83593273162842,9680.0,9284.0,6856.0,-4243.0,803.0,-1363.0,-0.5651289706318956,0.24220205615917362,-0.39039182854439514,-0.685245671821841
-91.843740940094,9776.0,9308.0,7108.0,-4070.0,324.0,-1405.0,-0.5166061387671477,0.4772606216160907,-0.12465539966449354,-0.6998581483252209
-91.851567029953,10068.0,9216.0,7384.0,-4075.0,-193.0,-1417.0,-0.4075461186161532,0.6218048659915747,0.1796751948989595,-0.6441907280985416
-91.85934042930603,10288.0,9136.0,8108.0,-3750.0,-742.0,-1384.0,-0.2546697182979506,0.6518843149581901,0.46373379815195853,-0.543268937953471
-91.86713910102844,10648.0,8800.0,8260.0,-3704.0,-770.0,-1494.0,-0.0787895751349971,0.6004776813201813,0.6987976343156913,-0.38065814500832473
-91.87493515014648,11192.0,8132.0,8660.0,-3821.0,-1138.0,-1712.0,0.1253145544124198,0.45308907126916614,0.8634851345391015,-0.18275660967212934
-91.88272619247437,11592.0,7852.0,8720.0,-3716.0,-1007.0,-1906.0,0.29753115703360467,0.23661735528838462,0.9242865509866208,0.03437745534258682
-91.8905029296875,11896.0,7248.0,9164.0,-3341.0,-899.0,-1987.0,0.42025953599871546,-0.007329184306195152,0.8800942180460755,0.22082203880368675
-91.89829683303833,12036.0,7144.0,9352.0,-2896.0,-787.0,-1994.0,0.4934600975321436,-0.23996676799583602,0.7575222006960862,0.3536568928407288
-91.90608882904053,12004.0,7288.0,9428.0,-2570.0,-460.0,-1990.0,0.5109116530716666,-0.44990184732103417,0.5928070246119954,0.43027600688787077
-91.91387605667114,12004.0,7748.0,9128.0,-2363.0,-239.0,-2086.0,0.4905026822100965,-0.6306375832527471,0.3966400174239279,0.4520841226052753
-91.92166900634766,11792.0,8228.0,8500.0,-2241.0,696.0,-2175.0,0.4130753442560399,-0.7987635100010924,0.21022366526185368,0.38360347446596627
-91.92945528030396,11428.0,9060.0,8020.0,-2197.0,1439.0,-2426.0,0.300425455519571,-0.9266061477292725,0.018505537535432836,0.22539551403410973
-91.93724370002747,10908.0,9220.0,7860.0,-2223.0,1968.0,-2462.0,0.15719041926925337,-0.9738868083156857,-0.16374175158268295,0.004929043241654078
-91.94511127471924,10392.0,9684.0,8092.0,-2269.0,2233.0,-2796.0,-0.0024555562585613336,-0.9060115293026968,-0.34869547668307116,-0.2398927751200842
-91.95293879508972,9776.0,9860.0,7944.0,-2328.0,2322.0,-2462.0,-0.15766028001486362,-0.7360057409850157,-0.4660841735067144,-0.46497777210238317
-91.96072769165039,9216.0,9892.0,8008.0,-2451.0,2225.0,-2382.0,-0.30270168175309525,-0.4851424645477605,-0.518325268346977,-0.6358831631277928
-91.96851658821106,8776.0,9784.0,8020.0,-2813.0,1952.0,-2250.0,-0.43159391793132224,-0.1889238774946083,-0.4791671692375829,-0.7405628146497331
-91.97634029388428,8484.0,9828.0,8124.0,-2709.0,1617.0,-2104.0,-0.5169737714425516,0.10009722054215567,-0.37929412819889086,-0.7608249669891509
-91.98412656784058,8488.0,9976.0,8264.0,-2794.0,1174.0,-2004.0,-0.5593027350586688,0.3529032060600029,-0.21847389224914332,-0.7175715546995809
-91.99190139770508,8416.0,9680.0,8360.0,-2970.0,625.0,-1903.0,-0.5489147832005936,0.5470320187226579,-0.004155502898150671,-0.632005746074925
-91.99969220161438,8536.0,9424.0,8224.0,-3135.0,77.0,-1886.0,-0.4794270087015676,0.6687857814858086,0.24306267689149044,-0.5136106082551509
-92.0075113773346,8520.0,9028.0,8716.0,-3365.0,-389.0,-2028.0,-0.34574578613048695,0.7082146091349235,0.4997704963674046,-0.35933462085019974
-92.01530146598816,8584.0,8796.0,8888.0,-3446.0,-699.0,-2146.0,-0.1595610356050742,0.6555526908977373,0.7167192185789979,-0.17636469911204594
-92.02308130264282,8756.0,8632.0,8920.0,-3333.0,-862.0,-2056.0,0.050426168801355004,0.5286115275117037,0.8472948886896815,0.010882374837353909
-92.03088593482971,8988.0,8700.0,8836.0,-2999.0,-882.0,-2444.0,0.24223562624419276,0.31700172467783805,0.9008196829462122,0.17133507155876104
-92.0386688709259,9328.0,8748.0,9052.0,-2755.0,-932.0,-2661.0,0.40806117808069087,0.060001525874061316,0.8638036751391587,0.2893598151994605
-92.046471118927,9608.0,8768.0,8964.0,-2456.0,-935.0,-2816.0,0.5332140212798135,-0.2048854786239561,0.7423450748082121,0.3501835776669616
-92.05425906181335,9780.0,9320.0,9264.0,-2277.0,-832.0,-2987.0,0.6045445542068243,-0.45401771974407323,0.5503702144986167,0.35424062320689714
-92.06204962730408,10080.0,9472.0,9468.0,-2154.0,-582.0,-3179.0,0.6112963280377229,-0.6651765332381758,0.3097294854831909,0.29652086735870165
-92.06982779502869,10304.0,9596.0,9808.0,-2092.0,-366.0,-3160.0,0.5518747599088897,-0.8092163923128005,0.04986216042034247,0.19523535731515687
-92.07761716842651,10456.0,9812.0,9816.0,-1944.0,-127.0,-3129.0,0.4459497811035795,-0.870358388577389,-0.20033051249152242,0.05893007662920602
-92.0853943824768,10584.0,9736.0,9892.0,-1993.0,145.0,-3048.0,0.2980413790904398,-0.8532185339955372,-0.415995587742031,-0.10068336791912182
-92.09318542480469,10692.0,9956.0,9924.0,-2134.0,387.0,-3004.0,0.1206045279122711,-0.757572374699157,-0.581273067389076,-0.2714042484336473
-92.10096955299377,10756.0,10008.0,10080.0,-2249.0,570.0,-3004.0,-0.06679840631513842,-0.584044626391449,-0.6840505101108312,-0.431861953538561
-92.10876059532166,10508.0,9584.0,9980.0,-2463.0,697.0,-2952.0,-0.24799032584407002,-0.3474465419586449,-0.7057701111931556,-0.5653938882895114
-92.11654138565063,10168.0,9800.0,10228.0,-2536.0,737.0,-2900.0,-0.3998035581886229,-0.07335697624673945,-0.6475048822419393,-0.6446032084689808
-92.1243269443512,9768.0,9616.0,10004.0,-2549.0,688.0,-2835.0,-0.5084298913776366,0.20312651451392538,-0.517368315032283,-0.6576995448195209
-92.13210606575012,9344.0,9692.0,9792.0,-2616.0,806.0,-3019.0,-0.5643225977615441,0.4726699879361012,-0.3291845092958272,-0.5914056535068074
-92.13988876342773,8848.0,9652.0,9544.0,-2750.0,930.0,-3258.0,-0.5535669338786295,0.7005617803303386,-0.09214522913893786,-0.4407789677418064
-92.14769244194031,8464.0,9428.0,9300.0,-2800.0,900.0,-3557.0,-0.47491008402347207,0.8339264892876018,0.17589507453562084,-0.21928963794804027
-92.15553307533264,8096.0,9144.0,9580.0,-2721.0,819.0,-3688.0,-0.33354090824897575,0.8391048552437175,0.42848621090903505,0.03245106302860186
-92.16332817077637,7936.0,8864.0,9556.0,-2624.0,691.0,-3898.0,-0.14424611174368762,0.7091754192082084,0.6341239569328881,0.27230514369263453
-92.17111372947693,7808.0,8580.0,9536.0,-2373.0,484.0,-3927.0,0.06419542187549367,0.473189241890304,0.7557100499998971,0.44818881009978345
-92.17889785766602,7812.0,8588.0,9972.0,-2088.0,265.0,-3958.0,0.26800561214361074,0.17693376433257405,0.7812370830749196,0.5352906266013117
-92.186678647995,7892.0,8540.0,9768.0,-1916.0,60.0,-3941.0,0.44609934285616515,-0.1302046888182276,0.7041383222836594,0.5368718081670892
-92.19445371627808,7884.0,8672.0,9784.0,-1790.0,-130.0,-3896.0,0.5771888053250747,-0.40568855557609473,0.5346183930864147,0.4652451532855496
-92.2022352218628,7904.0,8808.0,9840.0,-1653.0,-370.0,-3791.0,0.6486201978549421,-0.6118321626177753,0.29574867469794747,0.3427622574547548
-92.21001148223877,7252.0,9000.0,9660.0,-1294.0,-676.0,-3532.0,0.6665803225186869,-0.7171353738885018,0.028554143158127796,0.20142539576028448
-92.21778440475464,7164.0,9188.0,9268.0,-696.0,-1189.0,-3318.0,0.6530100936772293,-0.7108026595724368,-0.2486643658317407,0.08064384580304515
-92.22559905052185,7656.0,9216.0,9052.0,-160.0,-1855.0,-2606.0,0.5982724376444813,-0.6262113789186118,-0.4981578388121528,0.042049576665954
-92.23337841033936,7676.0,9072.0,9520.0,-52.0,-2344.0,-2357.0,0.482311838267169,-0.49723652142575814,-0.7199195675901183,0.04297614022469647
-92.2411458492279,7460.0,8872.0,9480.0,43.0,-2507.0,-2114.0,0.3217011346760314,-0.33947492311765043,-0.8816521097911746,0.06288651543208705
-92.24895858764648,7484.0,8800.0,10224.0,196.0,-2448.0,-1905.0,0.14440692690451468,-0.16782103013223817,-0.9706838626664396,0.09357125662461332
-92.25673389434814,7320.0,8812.0,10776.0,458.0,-2059.0,-1727.0,-0.008943309061088846,0.0010911588672805012,-0.9905434877412174,0.13690297837822626
-92.26451349258423,7540.0,8492.0,10796.0,517.0,-1698.0,-1622.0,-0.13348174623794884,0.15780160517061378,-0.9619338308770928,0.17878641402792972
-92.27233958244324,8164.0,8012.0,10732.0,832.0,-1291.0,-1516.0,-0.2256868329670071,0.29045513183323524,-0.8972486475757969,0.24422558064310873
-92.28010654449463,7924.0,7668.0,10200.0,772.0,-1435.0,-1411.0,-0.3219030822052181,0.4091854721877739,-0.8026576738274414,0.2910091298622259
-92.28789854049683,7528.0,7812.0,9684.0,768.0,-1268.0,-1227.0,-0.4013756435840791,0.4988091180106789,-0.6939534557366239,0.3294171486095892
-92.29568386077881,7380.0,8280.0,9184.0,1782.0,-1112.0,-722.0,-0.5159569288642625,0.5027283727354277,-0.5618193563013955,0.4067083004916831
-92.3035020828247,7100.0,8424.0,9232.0,2457.0,-1156.0,-343.0,-0.6500127681246117,0.43759885184333486,-0.39625441806634204,0.47851131888731696
-92.3112781047821,7312.0,8576.0,9856.0,2941.0,-1392.0,24.0,-0.7806388668128397,0.31550331138197774,-0.18778990966353284,0.5057623651051295
-92.31906270980835,7960.0,8908.0,10232.0,3145.0,-1679.0,243.0,-0.864406129153029,0.16346050398058834,0.05629122009115403,0.4721376982001527
-92.32687592506409,8312.0,9452.0,10708.0,3169.0,-1836.0,427.0,-0.8739634860115765,0.0018644181504058183,0.3041502583351331,0.3790474500878819
-92.33466386795044,8268.0,10152.0,10568.0,3180.0,-2223.0,579.0,-0.7895218672405586,-0.1438189037317192,0.5476753512234298,0.23669189622942513
-92.34243583679199,8376.0,10504.0,10984.0,2960.0,-2116.0,578.0,-0.6314216490404769,-0.26327684828078834,0.7251839609796562,0.07810393728997313
-92.35024905204773,8884.0,10936.0,11000.0,2587.0,-1950.0,646.0,-0.4353387046403876,-0.33793111232112405,0.831201866433957,-0.07339095859943096
-92.35802483558655,8908.0,10828.0,11212.0,2361.0,-1733.0,822.0,-0.22694433661294175,-0.366434250093618,0.8757987845439367,-0.21725261201882679
-92.36580896377563,8628.0,10536.0,11496.0,2222.0,-1629.0,772.0,-0.016284337264874882,-0.3709542969753694,0.8640702828922322,-0.3398680275311155
-92.37358260154724,8448.0,10348.0,11096.0,2179.0,-1745.0,1165.0,0.21309380505576023,-0.32677369353928903,0.8117995023724626,-0.43450149758702833
-92.38136720657349,8516.0,10012.0,11240.0,2078.0,-1836.0,1401.0,0.439709384103729,-0.24948083066089802,0.7130197765985085,-0.48581660206633603
-92.38914704322815,8320.0,9520.0,10920.0,2552.0,-1903.0,1510.0,0.6478321103006682,-0.13213529915921696,0.5396284270298498,-0.5212053149391103
-92.39696002006531,8220.0,9260.0,10556.0,2887.0,-1817.0,1295.0,0.7867288007225062,0.009034191689234602,0.3052181662028522,-0.5364867645282757
-92.40471601486206,8256.0,9020.0,10464.0,3418.0,-1708.0,1674.0,0.8531348747712334,0.19581011533213305,0.02472048223244537,-0.4829163301658826
-92.41249227523804,8208.0,8800.0,10328.0,3918.0,-1619.0,1764.0,0.801989091003896,0.392684440092426,-0.2704698963943312,-0.35980336791709233
-92.42030096054077,8340.0,8756.0,10204.0,4237.0,-1299.0,1856.0,0.6312496802446479,0.5574044081213476,-0.5147696226754492,-0.1607370603454465
-92.42807626724243,8516.0,8788.0,10128.0,4371.0,-1045.0,1864.0,0.36626629679736045,0.6440827714982819,-0.6667185387776645,0.08057774717386929
-92.43584632873535,8504.0,9196.0,10356.0,4302.0,-704.0,2037.0,0.06381447265805983,0.6159009954400781,-0.7131289762717195,0.3286955127423316
-92.44366836547852,8836.0,9404.0,10080.0,4275.0,-514.0,2150.0,-0.23936501245055233,0.4800032114524943,-0.653569016548344,0.5339933037200649
-92.45145320892334,9196.0,9532.0,10052.0,4169.0,-332.0,2266.0,-0.4974033105131829,0.25776815352464744,-0.5053573208889978,0.6563227132614826
-92.45923066139221,9376.0,9580.0,10100.0,3883.0,-78.0,2290.0,-0.6694266288235841,-0.006861559057173726,-0.30790602852764226,0.6760286866883172
-92.4670307636261,9164.0,9808.0,10148.0,3680.0,176.0,2262.0,-0.7447264658470578,-0.27418066930748014,-0.09303407882697827,0.6012920353886859
-92.47480750083923,8896.0,10124.0,10384.0,3638.0,369.0,2179.0,-0.7209287116542313,-0.5133366737134208,0.11841862366928484,0.45024913292718666
-92.48258996009827,8568.0,10492.0,10420.0,3600.0,549.0,2072.0,-0.6075048331814473,-0.6948622276100346,0.2989935101825266,0.24229577621315113
-92.49038290977478,8288.0,11192.0,10464.0,3469.0,518.0,1906.0,-0.42595826116395813,-0.7931583944487741,0.43489004828513433,0.01816499282063383
-92.49820280075073,8068.0,11816.0,10248.0,3244.0,1078.0,1685.0,-0.23255556462751897,-0.8079466878763248,0.4901885952903328,-0.22990258797530488
-92.5059802532196,7676.0,12792.0,10492.0,2973.0,1045.0,1306.0,-0.039771372391887404,-0.7585260170537901,0.4805382173619812,-0.4383372457881588
-92.5137677192688,7236.0,13676.0,10080.0,2545.0,1693.0,1051.0,0.09416786622509496,-0.6337550356783019,0.43002938372069593,-0.6360516463777178
-92.52157425880432,7164.0,14440.0,9812.0,2058.0,1815.0,991.0,0.18879970039542185,-0.46405552374712844,0.3734938823401108,-0.7807108708509756
-92.52935767173767,6736.0,14836.0,9756.0,1539.0,1715.0,429.0,0.21983936214494704,-0.3015788529013882,0.3077282987621975,-0.875228052838407
-92.53713154792786,6444.0,14900.0,9376.0,1038.0,1772.0,490.0,0.23302194037566015,-0.13092027498375003,0.27055722736303534,-0.9248564448731317
-92.5449595451355,6236.0,14500.0,9100.0,576.0,1171.0,231.0,0.22904749875294222,-0.019112740792887824,0.24859776065848313,-0.9409416027841432
-92.55273485183716,5988.0,14008.0,8720.0,159.0,806.0,221.0,0.22934567820718008,0.05486783278928002,0.25105874150143676,-0.9388075357219982
-92.56052255630493,6000.0,13304.0,8720.0,-193.0,329.0,-53.0,0.21861488767052317,0.07670816091236969,0.2732951263323626,-0.9336129620250698
-92.56832671165466,6192.0,12632.0,8676.0,-389.0,-182.0,35.0,0.2282733733953186,0.05519118960277029,0.30082498767181964,-0.9243102976712971
-92.57610654830933,6364.0,11880.0,8364.0,-402.0,-602.0,224.0,0.2635279496420127,0.004426725484356802,0.31924626327622374,-0.9102830588575903
-92.58388233184814,6472.0,11028.0,8784.0,-509.0,-945.0,482.0,0.32664382702447703,-0.0686231859302725,0.3357613489366084,-0.8808285787710636
-92.59167885780334,6724.0,10224.0,9148.0,-458.0,-1167.0,724.0,0.41050305272198223,-0.1490333682418597,0.3391074426171553,-0.8332361257279189
-92.59944319725037,7036.0,9288.0,9256.0,-204.0,-1344.0,795.0,0.5007411277287901,-0.22842264763903644,0.3129570153449172,-0.7740409056328181
-92.60724258422852,7408.0,8700.0,9324.0,171.0,-1504.0,1363.0,0.6274816329465228,-0.28090934721424743,0.25856109201234573,-0.6786036403231374
-92.6150472164154,7700.0,8688.0,9544.0,625.0,-1481.0,1727.0,0.7625315247354886,-0.28929828329159857,0.17879299989551167,-0.5503501069841529
-92.62286353111267,8232.0,8400.0,9692.0,782.0,-1391.0,2114.0,0.8822840216016405,-0.2640173240393553,0.09917906115599791,-0.3768730179539907
-92.63063764572144,8756.0,8576.0,9820.0,1422.0,-1219.0,2500.0,0.9723641324882756,-0.16673216615937614,0.015348987627366051,-0.1627046010318705
-92.63841819763184,9436.0,9032.0,10004.0,1710.0,-934.0,2791.0,0.9951474635769445,-0.02964786840522856,-0.045830710988110465,0.08186620527253374
-92.64624357223511,9720.0,9684.0,10032.0,1880.0,-518.0,2972.0,0.9328214846174674,0.12005032879545531,-0.06674742054228819,0.33313177309154707
