programtime,ax,ay,az,gx,gy,gz,q0,q1,q2,q3
-662.1229405403137,7684.0,4444.0,14056.0,504.0,122.0,-82.0,0.9989478847967788,0.044101061874781675,0.010349942329696788,-0.007148321154670086
-662.1307232379913,7780.0,4444.0,13932.0,511.0,78.0,-102.0,0.9957900672457013,0.08862922903628576,0.016898193013098486,-0.01616950240815407
-662.1384952068329,7832.0,4584.0,13960.0,343.0,23.0,-77.0,0.9925236315564318,0.11837269271686378,0.018679426115274834,-0.023147904030289417
-662.1462779045105,7824.0,4348.0,13904.0,310.0,-22.0,-91.0,0.9887808705562192,0.14500384466213542,0.01675498346856391,-0.031710338759664225
-662.1540608406067,7840.0,4604.0,13932.0,313.0,-32.0,-52.0,0.9843468433619494,0.17178893568571907,0.013454246970464072,-0.036997794228730896
-662.1618430614471,7812.0,4384.0,13820.0,317.0,-59.0,-22.0,0.9792142978292102,0.1986938620042652,0.0073666516786032536,-0.04007294064232103
-662.1696150302887,7744.0,4456.0,13760.0,335.0,-108.0,-17.0,0.9729712075446898,0.2267660239135852,-0.0030539163329693247,-0.04353014222906577
-662.1773996353149,7840.0,4512.0,13792.0,312.0,-83.0,49.0,0.9665912145523851,0.2527364164565911,-0.012556096825553913,-0.0408420393630527
-662.1851625442505,7804.0,4624.0,13832.0,217.0,-67.0,-5.0,0.9615552603240987,0.2706382353779898,-0.019158109925649525,-0.042419261174840635
-662.1929543018341,7852.0,4372.0,13712.0,201.0,-122.0,-33.0,0.9563136159030101,0.28690814044916163,-0.0296297146728024,-0.047645220021766084
-662.2007842063904,7972.0,4708.0,13700.0,204.0,-116.0,-24.0,0.9506450177875855,0.3033013986759874,-0.039817336759687925,-0.05193160319301327
-662.2085733413696,8176.0,4672.0,14068.0,265.0,-90.0,7.0,0.9431172624425926,0.32459128481792765,-0.04890469732815823,-0.05271297451556159
-662.2163648605347,8208.0,4576.0,13864.0,279.0,-47.0,-2.0,0.9347770377387127,0.34706279834277937,-0.054213438364625305,-0.05291698048454632
-662.2241494655609,8244.0,4532.0,13916.0,314.0,-27.0,60.0,0.9251195133716696,0.3719366923978307,-0.05986955624327448,-0.04725059853969951
-662.2319166660309,8120.0,4488.0,13972.0,330.0,3.0,61.0,0.914358631606417,0.3979082472914175,-0.0631262516875908,-0.040402919352290276
-662.2397167682648,8116.0,4468.0,13992.0,315.0,-62.0,3.0,0.9028170584697693,0.42244802574225265,-0.06942700859649385,-0.04048351466719009
-662.2474946975708,8004.0,4432.0,14016.0,277.0,-49.0,36.0,0.8922505158113152,0.44354944552218956,-0.07571500919903164,-0.03768479525472734
-662.2552635669708,7820.0,4436.0,14080.0,241.0,-48.0,38.0,0.8826154562854488,0.46160204147825046,-0.08182268518065065,-0.03490787617384759
-662.2630324363708,7848.0,4440.0,14060.0,191.0,15.0,-59.0,0.8748125686298993,0.4765155093706104,-0.07897319645188626,-0.03740552550890602
-662.2708425521851,7836.0,4356.0,13856.0,170.0,76.0,-28.0,0.8681578938424026,0.4896815228731716,-0.07266037316043814,-0.03513328461617169
-662.2786064147949,7732.0,4652.0,14000.0,175.0,48.0,-84.0,0.8606972237082928,0.5033605463268229,-0.0660651437617055,-0.038260244146429805
-662.2863748073578,7588.0,4676.0,13984.0,141.0,49.0,-86.0,0.854506072367671,0.5143741445003691,-0.0591712592975572,-0.04168181653229052
-662.2941739559174,7608.0,4728.0,13928.0,80.0,102.0,-132.0,0.8509558238520258,0.5211501374243911,-0.04602345776871075,-0.04646032124157145
-662.3019404411316,7568.0,4788.0,14056.0,55.0,54.0,-142.0,0.8481169911361612,0.5258008668027102,-0.03587567959226868,-0.05425821071004712
-662.3096985816956,7648.0,4696.0,14000.0,247.0,81.0,-220.0,0.835733506602534,0.5447530651060258,-0.021049420754254877,-0.06595851639730105
-662.3175287246704,7568.0,4712.0,14112.0,-32.0,44.0,-174.0,0.8363363681189371,0.5427635323044073,-0.009483365557257479,-0.07654601975136077
-662.3253002166748,7616.0,4552.0,14232.0,-98.0,17.0,-208.0,0.8395410218697664,0.5356291099420758,0.002159945217971074,-0.09092669474463198
-662.333080291748,7528.0,4400.0,13944.0,-84.0,-38.0,-229.0,0.8415698969593906,0.5288500143677746,0.0106328775305172,-0.10938332939889109
-662.3408362865448,7548.0,4384.0,14044.0,-93.0,-102.0,-216.0,0.8437910554512675,0.5205580885641506,0.013877808381801752,-0.1297818847350885
-662.356410741806,7632.0,4328.0,14160.0,-20.0,-113.0,-213.0,0.8423439275967746,0.5172756627427835,0.015334995933093112,-0.1504906451397762
-662.3641860485077,7612.0,4228.0,14160.0,251.0,-171.0,-228.0,0.8279018274229026,0.5327322958666609,0.009632080838847855,-0.17516303294122484
-662.3719720840454,7620.0,4188.0,14160.0,68.0,-191.0,-213.0,0.8214848461506619,0.5342180322990114,0.0045790724009312205,-0.19938097604170468
-662.3797490596771,7612.0,4204.0,14020.0,136.0,-230.0,-191.0,0.811690643496317,0.5395163159791049,-0.005483825626130663,-0.22371940396257892
-662.3875374794006,7424.0,4220.0,14084.0,155.0,-492.0,-189.0,0.7996593622651414,0.5402048610233268,-0.034534361097336444,-0.2598672552902235
-662.3953099250793,7720.0,4336.0,14164.0,138.0,-12.0,-101.0,0.7908539410537387,0.5496503650456254,-0.033835384777249886,-0.2670012862552456
-662.403067111969,7752.0,4376.0,14056.0,159.0,-164.0,-98.0,0.7803907486469523,0.5568081234834554,-0.04424755971040116,-0.2810643102721451
-662.4108572006226,7680.0,4452.0,14040.0,113.0,-143.0,-40.0,0.7733800109788722,0.5609228117339755,-0.05490144437752885,-0.29023230230288266
-662.41867852211,7928.0,4456.0,14316.0,89.0,-40.0,-25.0,0.7682860074620007,0.5658614379921149,-0.05871798302988268,-0.2934103648484437
-662.426454782486,7912.0,4500.0,14056.0,63.0,6.0,-27.0,0.764618471992813,0.5702156554076598,-0.05868147165624107,-0.2945660936014981
-662.4342331886292,7896.0,4364.0,13924.0,118.0,33.0,4.0,0.7590928666891632,0.5787358451252842,-0.05979438989736229,-0.2920059455654178
-662.4420356750488,7924.0,4808.0,13848.0,128.0,64.0,40.0,0.7540368834091902,0.5884425630162039,-0.06091798569402257,-0.28539924230533475
-662.4498136043549,7912.0,4572.0,14100.0,176.0,93.0,55.0,0.7468603375148875,0.6018090396975927,-0.062076594984479455,-0.2759927758847008
-662.4575843811035,7912.0,4560.0,14116.0,183.0,163.0,25.0,0.7386826313433429,0.6172486836194003,-0.0572352392790625,-0.2647190210514932
-662.4653930664062,7840.0,4584.0,14072.0,139.0,212.0,20.0,0.7326545347285222,0.6307208713976367,-0.047916710137444966,-0.2512220213570908
-662.4731578826904,7736.0,4556.0,14024.0,163.0,185.0,22.0,0.7248872921779314,0.6448311824581278,-0.040933054585146955,-0.23886323453166308
-662.4809310436249,7784.0,4472.0,14016.0,125.0,142.0,252.0,0.7234563595943457,0.6544289761278577,-0.04878975413659498,-0.21436690709629383
-662.4886965751648,7560.0,4596.0,13928.0,79.0,67.0,-40.0,0.7185646845027229,0.6606884808301302,-0.04381481044457769,-0.2126870655907
-662.4964666366577,7600.0,4412.0,14220.0,93.0,15.0,-101.0,0.7114494083261944,0.6670188504151178,-0.03883577292408087,-0.21775531066908954
-662.5042703151703,7496.0,4412.0,14040.0,77.0,-242.0,-135.0,0.7034748086683182,0.6673311795186483,-0.04751561634054727,-0.239863620866317
-662.5120575428009,7568.0,4504.0,14004.0,82.0,61.0,-229.0,0.6941089751743296,0.6743163937567008,-0.03220123608038401,-0.24994641843462231
-662.5198278427124,7592.0,4564.0,14068.0,74.0,76.0,-243.0,0.6846000336286441,0.680847721278844,-0.014966839919236696,-0.2598945326240955
-662.5276443958282,7704.0,4564.0,14100.0,96.0,172.0,-235.0,0.6736645073058563,0.6904406730839783,0.007032831784436628,-0.2634736188402792
-662.5354492664337,7660.0,4580.0,14204.0,115.0,210.0,-213.0,0.6615637165743989,0.7015282059800083,0.029497570483955158,-0.2632897993889687
-662.5432183742523,7504.0,4504.0,14100.0,100.0,207.0,-199.0,0.6502192132136017,0.7112043423263481,0.05125678434252492,-0.26225197860625415
-662.5510196685791,7572.0,4484.0,14064.0,98.0,181.0,-209.0,0.6384445302572895,0.7196522760586894,0.072173340024576,-0.2632113073896966
-662.5588204860687,7572.0,4464.0,14140.0,27.0,214.0,-200.0,0.6307078692621686,0.7244933962620161,0.09594766622295711,-0.2609807421436923
-662.5665953159332,7640.0,4440.0,13880.0,31.0,191.0,-158.0,0.6235088585911138,0.7289785077873635,0.11565657052059271,-0.2577801313870607
-662.5743746757507,7708.0,4352.0,13896.0,63.0,241.0,-188.0,0.612716634843111,0.7355884654000484,0.13920274484426629,-0.2532005742188542
-662.5821928977966,7676.0,4400.0,14212.0,102.0,17.0,-161.0,0.6024230353111735,0.7392934026054203,0.14811173781896178,-0.2619058313799439
-662.5899698734283,7776.0,4376.0,13864.0,143.0,266.0,-218.0,0.5845673828215255,0.7496184346317636,0.17274514091666637,-0.25789977450765156
-662.5977609157562,7748.0,4556.0,14036.0,178.0,337.0,-127.0,0.5647340934783455,0.7638483672269694,0.19406543148608663,-0.24484624532551744
-662.605562210083,7728.0,4420.0,14092.0,222.0,377.0,-88.0,0.5413519767231534,0.7807187404695087,0.21355569377875805,-0.2276186530851803
-662.6133980751038,7620.0,4372.0,14128.0,238.0,351.0,-105.0,0.5162215778613937,0.7963617292125534,0.2323499529657085,-0.21292434842619112
-662.621175289154,7548.0,4276.0,14180.0,229.0,270.0,-68.0,0.4934074374067812,0.8098831014915323,0.2448203672516305,-0.20174600469131063
-662.6289627552032,7476.0,4472.0,14252.0,250.0,288.0,-32.0,0.46883983341720864,0.8245471801375653,0.254899513634363,-0.18798243608773282
-662.636766910553,7424.0,4400.0,14268.0,209.0,305.0,-49.0,0.44605208611313935,0.8365446783348786,0.26729918407283226,-0.1725737054643873
-662.6445508003235,7284.0,4460.0,14284.0,219.0,258.0,-50.0,0.42317683227358255,0.8473903276042987,0.2775381506449712,-0.16069715693236425
-662.6523163318634,7220.0,4100.0,14264.0,175.0,191.0,-50.0,0.40486958436241816,0.8550755482189742,0.2857301992689787,-0.15259318373352473
-662.6601271629333,7260.0,4096.0,14320.0,187.0,159.0,-78.0,0.38587991743027483,0.8616214557632912,0.2945771758138563,-0.14808593377455956
-662.6678984165192,7328.0,4384.0,14152.0,187.0,166.0,-110.0,0.3660889353918904,0.8669761613587088,0.30591027606833626,-0.14404905419732764
-662.6756911277771,7280.0,4296.0,14228.0,210.0,166.0,-155.0,0.34375377181515404,0.8713053339954742,0.3201632021264825,-0.14197141725716292
-662.6834888458252,7472.0,4304.0,14144.0,252.0,14.0,-206.0,0.32157346539894555,0.8729211972229872,0.3329707668390438,-0.15404401390745015
-662.6912598609924,7428.0,4252.0,14416.0,252.0,347.0,-203.0,0.28936420844324084,0.8780010045964565,0.35446716107325227,-0.14048353113550055
-662.6990251541138,7792.0,4432.0,14552.0,511.0,469.0,-161.0,0.23331324498597145,0.8899582587685734,0.3716525400979738,-0.12415158799809498
-662.7068283557892,7704.0,4460.0,14220.0,314.0,424.0,-154.0,0.19331390999055387,0.8949227756815993,0.38838920427855145,-0.10438766100636412
-662.714629650116,7556.0,4460.0,14272.0,387.0,378.0,-43.0,0.14974065701222344,0.9024294693174569,0.39414876688648287,-0.08857504223439962
-662.7224109172821,7480.0,4504.0,14112.0,404.0,379.0,-8.0,0.10471904841021096,0.9093052324295872,0.39613916432895885,-0.0726063197041978
-662.7302062511444,7384.0,4544.0,14188.0,330.0,387.0,51.0,0.06542218492403411,0.915629735607159,0.3931411726750346,-0.05274602676437419
-662.7379512786865,7340.0,4524.0,14212.0,331.0,408.0,-25.0,0.024838483384557675,0.9175760221408804,0.39552600572563706,-0.031566946795607176
-662.7457189559937,7308.0,4508.0,14132.0,277.0,413.0,-240.0,-0.012245746880732917,0.9099725854523892,0.4143999804593285,-0.008520070641447592
-662.7534959316254,7348.0,4540.0,14168.0,318.0,409.0,-256.0,-0.052421803844675624,0.899531670343416,0.43351093134334456,0.012767182017985068
-662.7612583637238,7352.0,4412.0,14168.0,325.0,402.0,16.0,-0.09308192528399167,0.897285121757117,0.4303401686013827,0.03197662813485329
-662.769033908844,7280.0,4440.0,14244.0,292.0,357.0,-243.0,-0.12856287421962526,0.8838671572373481,0.44682806156293525,0.050942311779775346
-662.7767989635468,7168.0,4360.0,14244.0,285.0,403.0,-46.0,-0.16592739096942824,0.8762536771433707,0.4467062758138361,0.07142196698028454
-662.78457903862,7492.0,4416.0,14396.0,273.0,387.0,-54.0,-0.20141098875742544,0.8670182129732008,0.44654977671101614,0.09113906352303168
-662.7923486232758,7488.0,4108.0,14416.0,14.0,390.0,-99.0,-0.2167793578129585,0.8592629542705669,0.4470234253058948,0.12183572001758784
-662.8001708984375,7528.0,4320.0,14272.0,284.0,334.0,-141.0,-0.24944267618830654,0.8441321972863463,0.45393494659830563,0.1384277755991697
-662.8079850673676,7632.0,4388.0,14508.0,296.0,276.0,-165.0,-0.2800266318096824,0.8271871832097716,0.4633248035934204,0.15058743568414584
-662.8158140182495,7712.0,4356.0,14032.0,311.0,285.0,-221.0,-0.31087444533021735,0.8061742411478412,0.47599402682482517,0.1639202811656318
-662.8236465454102,7744.0,4604.0,13932.0,320.0,276.0,-159.0,-0.34236242990263527,0.7862893456563257,0.4838968623105408,0.17430105606256047
-662.8314518928528,7580.0,4836.0,13892.0,352.0,270.0,-112.0,-0.37596844293057974,0.7662800529203143,0.4884807125099092,0.18124349346281918
-662.8392386436462,7500.0,4644.0,13704.0,334.0,15.0,-151.0,-0.39640763237642235,0.7482149978307391,0.5031140439856329,0.17294960178991245
-662.8470158576965,7520.0,4540.0,13988.0,299.0,325.0,-114.0,-0.42820350112184186,0.7273311492080843,0.5034244205700974,0.18491893843602347
-662.8548159599304,7556.0,4484.0,14244.0,271.0,432.0,-88.0,-0.4625594671493121,0.7055864312742602,0.4967243537625477,0.20359627632001898
-662.8626117706299,7544.0,4420.0,14080.0,245.0,451.0,-24.0,-0.4963408187208242,0.6858849829186409,0.4838501632234413,0.22157752915601975
-662.8703992366791,7700.0,4300.0,14216.0,254.0,265.0,-58.0,-0.5214102879902118,0.6668823783406067,0.4804899685029213,0.22919117610589157
-662.8782060146332,7724.0,4264.0,14376.0,261.0,597.0,27.0,-0.5613418204710978,0.6430706393664978,0.4562137284236694,0.2514449191626909
-662.8860220909119,7684.0,4292.0,14672.0,290.0,726.0,86.0,-0.6070590266609899,0.6148101101335621,0.4211679925362293,0.27587205130272147
-662.8937969207764,7668.0,4312.0,14608.0,331.0,873.0,253.0,-0.6607266959978297,0.5833621659724529,0.3679729978704815,0.296183539964547
-662.9015762805939,7536.0,4444.0,14768.0,274.0,920.0,395.0,-0.7115942011390461,0.5540598573125718,0.30063842810056224,0.3102706930557225
-662.9093754291534,7332.0,4692.0,14720.0,669.0,977.0,530.0,-0.7790249545445049,0.49662373109962377,0.2309649078344984,0.30518879608305116
-662.9171521663666,7364.0,4876.0,14648.0,677.0,1054.0,593.0,-0.8393559008310764,0.43113566517307816,0.1505521629676463,0.29485209204206597
-662.9249286651611,7352.0,4524.0,14816.0,693.0,1277.0,757.0,-0.8926707493967462,0.3536345195081011,0.045941651731943464,0.2756282358900603
-662.9327411651611,7412.0,4124.0,14436.0,689.0,814.0,358.0,-0.9214287651302946,0.28023495036075113,-0.011758390555878968,0.26888500076855043
-662.9405181407928,7384.0,4200.0,14176.0,643.0,742.0,142.0,-0.9362631696346767,0.20996897258242717,-0.05939742196899252,0.27531119483549155
-662.9482986927032,7536.0,4500.0,13828.0,655.0,691.0,51.0,-0.9426874383483498,0.13891776948212073,-0.10046909225586423,0.28626597493174294
-662.9560983181,7572.0,4804.0,13716.0,640.0,694.0,-16.0,-0.9408124494761083,0.0686881586732986,-0.1406329594700443,0.30062641680253877
-662.963870048523,7368.0,5096.0,13596.0,628.0,747.0,-61.0,-0.9304760281304695,-0.0018247995392142295,-0.1841664575865866,0.3166918803524894
-662.9716393947601,7320.0,4956.0,13532.0,582.0,729.0,-63.0,-0.9139518067206509,-0.0680528619848408,-0.22624425109569926,0.329961273203199
-662.9794135093689,7268.0,5012.0,13648.0,556.0,1019.0,23.0,-0.8867357622172755,-0.14149687714792142,-0.2896153075252694,0.331362785190759
-662.9871985912323,7348.0,4832.0,13340.0,535.0,771.0,42.0,-0.8590700189149648,-0.2055608425872146,-0.3319318872609237,0.3310055359290506
-662.9949927330017,7244.0,4652.0,13716.0,256.0,698.0,83.0,-0.8349812053013802,-0.2467697444794657,-0.3743684773788768,0.3189973716945253
-663.0027782917023,7624.0,4504.0,13876.0,455.0,663.0,185.0,-0.806686637759352,-0.30361512296890836,-0.40479513307657833,0.3053120138523898
-663.0105550289154,7604.0,4404.0,13988.0,471.0,666.0,252.0,-0.7753483661505072,-0.36238962779307016,-0.4310989481406589,0.28576627808010596
-663.0183794498444,7680.0,4328.0,14296.0,552.0,592.0,288.0,-0.7408227201610734,-0.42412331073977516,-0.4468894369332586,0.2675648439869387
-663.0261867046356,7672.0,4352.0,14196.0,525.0,549.0,401.0,-0.7074560645741574,-0.48513922462520065,-0.45388877533773336,0.24110335760772214
-663.0339751243591,7440.0,4524.0,14164.0,582.0,497.0,466.0,-0.6709793351059682,-0.5482941278063496,-0.45111516565264537,0.21367121610552456
-663.0417518615723,7756.0,4700.0,14244.0,569.0,537.0,537.0,-0.6305550529975786,-0.6106607448962155,-0.4446409700621898,0.17829242138737947
-663.0495710372925,7612.0,4832.0,14388.0,500.0,621.0,529.0,-0.5860860272984414,-0.6660321118129167,-0.4412301583679323,0.1349827469944445
-663.0573754310608,7380.0,5060.0,13904.0,493.0,462.0,517.0,-0.5443105407423623,-0.7146188111656673,-0.4277568134912935,0.10034988030237198
-663.0651595592499,7340.0,4992.0,14212.0,456.0,459.0,266.0,-0.5002083274793744,-0.7488218280533088,-0.4281269651763675,0.07592628425032702
-663.0729355812073,7224.0,5028.0,14048.0,435.0,441.0,458.0,-0.45737304765372383,-0.7860611623899986,-0.4135816730029166,0.04321971793218353
-663.0807449817657,7268.0,4900.0,13968.0,430.0,407.0,445.0,-0.4140598742398955,-0.8191035393639574,-0.3968064978701327,0.012977503377775675
-663.0885109901428,7224.0,4760.0,13924.0,431.0,347.0,359.0,-0.37108121553564705,-0.8460941500454701,-0.38252472281326133,-0.009912475576641778
-663.096289396286,7224.0,4624.0,13920.0,463.0,238.0,281.0,-0.328317393145428,-0.8690986910282169,-0.36936108274184576,-0.021155263340402124
-663.1040487289429,7388.0,4396.0,13956.0,430.0,136.0,221.0,-0.2906763348708438,-0.8874345848785036,-0.35692086673682955,-0.023971249350032663
-663.1118407249451,7588.0,4492.0,13904.0,480.0,173.0,209.0,-0.24742735208463992,-0.9047089245918759,-0.3457048869310809,-0.027741635787447927
-663.119649887085,7848.0,4584.0,14000.0,485.0,268.0,230.0,-0.20024864485044133,-0.9202091165487654,-0.33402993918794316,-0.03923852421029205
-663.1274566650391,7844.0,4696.0,13972.0,260.0,262.0,291.0,-0.17062120767034464,-0.9315519678719435,-0.3158462811822671,-0.057796724045182886
-663.1352226734161,7920.0,4712.0,13888.0,545.0,197.0,268.0,-0.11936798750434224,-0.9445935594073287,-0.2992618777948953,-0.06274248627548823
-663.1429922580719,7556.0,4388.0,14004.0,488.0,107.0,322.0,-0.07449711250121042,-0.9562143215477974,-0.2761202391173534,-0.062144710520228456
-663.1507494449615,7440.0,4860.0,13832.0,432.0,253.0,328.0,-0.030542780943878026,-0.9642379953242978,-0.25238198313166227,-0.07493705022032252
-663.1585235595703,7324.0,4624.0,14188.0,391.0,-54.0,314.0,0.003211486622736987,-0.971607119015739,-0.2281432395039091,-0.06260954320444802
-663.166291475296,7168.0,4756.0,14144.0,372.0,-71.0,269.0,0.034775139704381106,-0.9764434903952177,-0.2072110558899695,-0.0491159652283178
-663.1740996837616,7508.0,4720.0,14236.0,330.0,-60.0,232.0,0.06276244677010957,-0.9792734475970541,-0.1889150995448905,-0.03735606069639676
-663.1818721294403,7464.0,4788.0,14388.0,292.0,-90.0,233.0,0.0869431565233447,-0.981256666735247,-0.17034965582035985,-0.023605852733477425
-663.1896359920502,7536.0,4748.0,14348.0,378.0,-28.0,169.0,0.11917130464888125,-0.9803147199394037,-0.156766030538411,-0.01434090958210684
-663.1974020004272,7440.0,4892.0,14584.0,452.0,-253.0,135.0,0.1543897256538426,-0.9767108945379197,-0.14825458506338754,0.014839781371395341
-663.2051713466644,7356.0,4884.0,14444.0,543.0,-8.0,43.0,0.20030606453515104,-0.9688429556705841,-0.14383627382114325,0.023063696390119563
-663.212940454483,7328.0,4876.0,14396.0,645.0,-56.0,64.0,0.25362815904301383,-0.9567110905467315,-0.13788953035183202,0.036920503581161626
-663.2207870483398,7180.0,4652.0,14500.0,757.0,-124.0,-36.0,0.3147880211199957,-0.9370082511490941,-0.140894564998171,0.05543248679113682
-663.2285859584808,7404.0,4748.0,14112.0,819.0,-190.0,-67.0,0.37877147364739644,-0.9102837303100837,-0.14724577492718507,0.07895810819562099
-663.2363648414612,7428.0,5116.0,14164.0,840.0,-10.0,-212.0,0.445619513046252,-0.8771908270038685,-0.15819403513833794,0.08327154291437557
-663.2441537380219,7356.0,4976.0,14208.0,833.0,-277.0,-340.0,0.5063953928771784,-0.8352324904765319,-0.18832937720152768,0.1023837809812796
-663.2519237995148,7256.0,5068.0,14092.0,847.0,-214.0,-398.0,0.5662652243572797,-0.7865343577418893,-0.21848728700049072,0.11388900383407927
-663.2597062587738,7184.0,5172.0,14004.0,851.0,-127.0,-425.0,0.6243796804102169,-0.7324748625251719,-0.24464294140907838,0.11739004079682477
-663.2675111293793,7076.0,5244.0,13836.0,852.0,-29.0,-450.0,0.680520340730702,-0.6736716298908378,-0.2653417133042838,0.11248278140559272
-663.2753005027771,7012.0,5256.0,14016.0,824.0,14.0,-437.0,0.7312553513784585,-0.6126117457922798,-0.2811976707474277,0.10440464531774188
-663.2830760478973,7000.0,5240.0,13828.0,732.0,111.0,-471.0,0.7752339900589816,-0.5535940381010731,-0.2917813263999436,0.0860787964627057
-663.2908580303192,7016.0,5156.0,14124.0,673.0,113.0,-434.0,0.8119647249973709,-0.4964676945794828,-0.299308103522015,0.06817457564908036
-663.2986319065094,6928.0,5064.0,14148.0,627.0,149.0,-361.0,0.8435170148345673,-0.44239957226890547,-0.3000348380289744,0.052352269385357496
-663.3064119815826,7292.0,5036.0,14116.0,592.0,260.0,-311.0,0.8729857478642808,-0.39090052974811595,-0.2896244292600459,0.03479008255634671
-663.3142280578613,7416.0,5032.0,14140.0,581.0,368.0,-186.0,0.9010198283857337,-0.34217161286846726,-0.265648855526589,0.022639385153942457
-663.3220708370209,7396.0,5064.0,14084.0,519.0,372.0,-116.0,0.9239699271724123,-0.2986861209440389,-0.2384539814149767,0.014348295500017797
-663.3298516273499,7476.0,4572.0,14532.0,257.0,313.0,-100.0,0.9367611966350129,-0.2758317559369475,-0.21536884141277365,0.0034007417129934938
-663.3376111984253,7500.0,4296.0,14192.0,483.0,382.0,-14.0,0.9542563709929991,-0.23558159111334556,-0.1840973426068458,0.0020641688094298048
-663.3454074859619,7624.0,4580.0,14020.0,495.0,433.0,112.0,0.9697770947417128,-0.19561790675596033,-0.14546066012697548,0.010354584789553178
-663.3531820774078,7484.0,4512.0,13940.0,536.0,485.0,253.0,0.9827009240372977,-0.15327049247936758,-0.09948531091395765,0.03016161374539745
-663.3609552383423,7628.0,4588.0,13924.0,577.0,561.0,327.0,0.9916102804102073,-0.10751104319277426,-0.045497599972247595,0.05550131325614765
-663.3687341213226,7508.0,4672.0,13872.0,589.0,606.0,456.0,0.9938719318895143,-0.06081277542618413,0.013832038616010582,0.091263706120748
-663.3765139579773,7364.0,4808.0,13992.0,602.0,675.0,626.0,0.9867535805519263,-0.012930526479219618,0.07989391188725296,0.1405956457230272
-663.384286403656,7300.0,4896.0,13892.0,588.0,655.0,738.0,0.9689674539080462,0.03482933258899852,0.14336486090833805,0.1983318116568696
-663.3920516967773,7272.0,4852.0,13960.0,609.0,633.0,825.0,0.9397689798079715,0.08537443451456919,0.20352660605037118,0.2610026650278104
-663.3998177051544,7288.0,4820.0,13912.0,622.0,624.0,873.0,0.8989539272140289,0.13699635055517928,0.2605679125016067,0.32437354956221703
-663.4076154232025,7348.0,4788.0,14076.0,605.0,576.0,876.0,0.8491395922037808,0.18711691032462444,0.31041657926470684,0.3841754314634934
-663.4153873920441,7384.0,4872.0,13984.0,566.0,551.0,856.0,0.7922249562474349,0.23263687928555,0.35417331673967983,0.4391138380928627
-663.423181772232,7288.0,4928.0,14080.0,587.0,542.0,880.0,0.7259682932254476,0.2781962705859581,0.3939336325645936,0.4902990571048028
-663.4309267997742,7204.0,4932.0,14068.0,616.0,438.0,854.0,0.6561971159641224,0.326250038480722,0.42500114247061116,0.5313570233754055
-663.4387080669403,7108.0,5024.0,14084.0,634.0,410.0,841.0,0.5811403378705299,0.37293089478163477,0.45155869140231547,0.5650603539765677
-663.4464914798737,7060.0,5044.0,14028.0,662.0,334.0,808.0,0.5042982206887231,0.41994637789704226,0.47252237844365946,0.5882609507448966
-663.4542751312256,7192.0,5128.0,13944.0,640.0,289.0,776.0,0.4273174163456732,0.4633260267308376,0.48748308884648434,0.6042259980588094
-663.4620752334595,7188.0,5048.0,13840.0,607.0,240.0,697.0,0.35458575619074373,0.50118983027088,0.4984024741054726,0.6121051129873271
-663.4698493480682,7272.0,4880.0,14128.0,554.0,200.0,587.0,0.28953979116255735,0.5317431250531877,0.507065738668096,0.6134332033409919
-663.4776163101196,7328.0,4912.0,14288.0,511.0,244.0,537.0,0.22575716621717887,0.5540263344345799,0.5143774667282024,0.6144138217657942
-663.4854006767273,7344.0,5040.0,14172.0,762.0,297.0,514.0,0.14748954157992905,0.5741027509423842,0.5342563899162343,0.6026798290291472
-663.4931683540344,7384.0,5124.0,14100.0,468.0,356.0,472.0,0.08242721864101749,0.5820970824217387,0.5385625060288737,0.6035885745796592
-663.5009486675262,7388.0,5072.0,14100.0,408.0,411.0,748.0,0.0029503745443301326,0.5964539661126216,0.5231541704017064,0.6087229875648481
-663.5087492465973,7312.0,5084.0,14172.0,414.0,409.0,571.0,-0.06746032218042024,0.599320856342265,0.5141613111039145,0.6098374883921058
-663.516529083252,7244.0,5052.0,14068.0,430.0,408.0,595.0,-0.13958018342998763,0.6000902328676957,0.5021115383216126,0.606871557987973
-663.5243017673492,7184.0,4948.0,14164.0,373.0,424.0,520.0,-0.20480890587255676,0.5944621807526927,0.4883127480178861,0.6051600514353699
-663.5321168899536,7120.0,5088.0,14028.0,352.0,463.0,602.0,-0.2739025451292744,0.5877151794012466,0.4660941038367006,0.6019340080455078
-663.5398886203766,7048.0,5004.0,14168.0,356.0,389.0,533.0,-0.33530777606650036,0.5791115783853381,0.44714811014339173,0.5935124621139588
-663.5476830005646,7144.0,5012.0,14120.0,367.0,363.0,585.0,-0.3974462265860408,0.5709660077229128,0.4249346515546024,0.5791932811295766
-663.5554885864258,7260.0,4928.0,14124.0,318.0,376.0,560.0,-0.45462688086577613,0.5603908450596929,0.3991717478836975,0.5656309889486365
-663.5632562637329,7232.0,4852.0,14228.0,348.0,297.0,582.0,-0.5097091368677471,0.5509176405399224,0.37528131431514244,0.5439212114464379
-663.5710220336914,7212.0,4864.0,14240.0,360.0,334.0,571.0,-0.5638963326812672,0.5364501750542658,0.34927371795458934,0.5217758193123201
-663.5788271427155,7204.0,4848.0,14180.0,392.0,281.0,590.0,-0.6163723882230485,0.5210426104072021,0.32493290714121326,0.4929688459051178
-663.5865902900696,6928.0,4864.0,14168.0,407.0,334.0,591.0,-0.6682407452742676,0.5001817371359936,0.2968796063826723,0.46382651444799994
-663.5943655967712,7084.0,4832.0,14140.0,476.0,359.0,594.0,-0.7204808551614637,0.4718284053836774,0.26855477484412726,0.4314668308541485
-663.6021299362183,7100.0,4956.0,14244.0,486.0,432.0,697.0,-0.7742464365519689,0.43962358798680395,0.23020349154265038,0.3927848124021086
-663.6098952293396,7012.0,5076.0,14292.0,759.0,368.0,678.0,-0.830360793113714,0.3874030583132391,0.2044607151983926,0.34440621308227704
-663.6176738739014,7052.0,4696.0,14332.0,538.0,350.0,613.0,-0.8706662547674089,0.3475567929157819,0.17406391135527613,0.30140720507494867
-663.6254472732544,7140.0,4832.0,14212.0,527.0,376.0,586.0,-0.9052011391101437,0.3053883585068876,0.14124025505581478,0.2596151740440751
-663.6332232952118,7148.0,4988.0,14340.0,465.0,393.0,554.0,-0.9326312650205195,0.26563354937428274,0.10578642673591479,0.22010673063650987
-663.640971660614,7416.0,5112.0,14132.0,487.0,438.0,585.0,-0.9564349964696736,0.22207005771974075,0.06586942584245586,0.177702576603694
-663.6487638950348,7128.0,5096.0,14048.0,447.0,525.0,592.0,-0.9742737822102505,0.17919931152420507,0.017613409259917178,0.13552849095753625
-663.6565370559692,6984.0,5052.0,13992.0,417.0,456.0,599.0,-0.9858397218303275,0.13863656165922156,-0.025326390380987215,0.09087640278466577
-663.6643218994141,7008.0,5020.0,13996.0,411.0,387.0,557.0,-0.9920362635399413,0.09851632344872747,-0.061728715918737055,0.048457728659953486
-663.6721227169037,7052.0,5000.0,14024.0,372.0,357.0,583.0,-0.9935240393491674,0.06131636487545221,-0.09560807672521938,0.003063053815919584
-663.6799001693726,7020.0,5060.0,14168.0,410.0,376.0,607.0,-0.9902280436943331,0.020365937612232043,-0.13075011648971716,-0.044023369979975954
-663.687673330307,7116.0,5044.0,14180.0,495.0,363.0,643.0,-0.9815854224509074,-0.02842677196126006,-0.16439689959190762,-0.09303567311684416
-663.6954870223999,7064.0,4924.0,14200.0,542.0,405.0,728.0,-0.964938970630989,-0.08183472817602405,-0.20064897618807948,-0.1481075574595668
-663.7032582759857,7192.0,4864.0,14208.0,570.0,374.0,751.0,-0.9409775728005031,-0.1377100433956934,-0.23295163532063148,-0.20329950082544176
-663.7110369205475,7088.0,4708.0,14352.0,545.0,306.0,727.0,-0.9121676298714306,-0.1912101117631243,-0.2578305200309398,-0.25477898483753614
-663.7188708782196,7416.0,4560.0,14584.0,534.0,288.0,724.0,-0.877748897023456,-0.24281499197472192,-0.2793312961376399,-0.3042561099542422
-663.7266571521759,7204.0,4372.0,14672.0,575.0,323.0,736.0,-0.8350969740331271,-0.2951353945269648,-0.30237016665151356,-0.3522505148005653
-663.7344305515289,7372.0,4608.0,14500.0,594.0,454.0,706.0,-0.7830147264035617,-0.3417174255388927,-0.3339608084963679,-0.3982302320350364
-663.7421917915344,7232.0,4968.0,14532.0,603.0,599.0,731.0,-0.7187812186124259,-0.38156856776051623,-0.3720681849285478,-0.4464574488472561
-663.7499694824219,7360.0,5100.0,14232.0,561.0,668.0,514.0,-0.6558664678780814,-0.40581618983897944,-0.4169089004832528,-0.48097750994776056
-663.7577590942383,7312.0,5096.0,14104.0,547.0,766.0,838.0,-0.5700383089954438,-0.43282709571552275,-0.4511529028798626,-0.5330835672904897
-663.7655591964722,7192.0,5268.0,14236.0,258.0,863.0,801.0,-0.4863832909619346,-0.43461512693449994,-0.4730736324946268,-0.5922350242522689
-663.7733356952667,7052.0,5140.0,14232.0,452.0,872.0,719.0,-0.39386710001937925,-0.4359249763307067,-0.5032093335835285,-0.6337337683347938
-663.7811002731323,6896.0,5012.0,14224.0,425.0,850.0,671.0,-0.30170506748200765,-0.43073429622739184,-0.5275635447708794,-0.6671721850751535
-663.7889053821564,6796.0,4852.0,14148.0,413.0,791.0,629.0,-0.21216390542380975,-0.4225553294203898,-0.5461952667594283,-0.6914507946219597
-663.7967004776001,6724.0,4824.0,14196.0,435.0,719.0,554.0,-0.1279052680655857,-0.4119974714253856,-0.5630397025965317,-0.7049004321463908
-663.8045125007629,6676.0,4760.0,14168.0,423.0,640.0,265.0,-0.06475807504460358,-0.3893438977992217,-0.5850963657762268,-0.7084348690729999
-663.812285900116,6684.0,4808.0,14016.0,412.0,641.0,457.0,0.010232413768917776,-0.37420838144128976,-0.5967539480045466,-0.7097521472377091
-663.8200922012329,6560.0,4672.0,14084.0,442.0,591.0,495.0,0.08589326095420775,-0.3618528509629297,-0.6055036393201576,-0.7035980420259118
-663.8278698921204,6656.0,4948.0,14092.0,393.0,620.0,532.0,0.163274477099119,-0.3478110753107673,-0.6061749312179883,-0.6963625878678751
-663.8356444835663,6728.0,4944.0,14172.0,354.0,591.0,567.0,0.23907666800383987,-0.3357739498043457,-0.600118555039096,-0.6855333116244299
-663.8434171676636,6792.0,5032.0,14192.0,332.0,566.0,607.0,0.3138729590842809,-0.32572336877933267,-0.588472532105239,-0.6701403819681131
-663.8511891365051,6836.0,4988.0,14192.0,286.0,572.0,596.0,0.38518258321920856,-0.31406085891396757,-0.5708020013707689,-0.6535940863517073
-663.8589856624603,6744.0,4952.0,14128.0,360.0,767.0,749.0,0.4737502997328082,-0.2940071078102631,-0.5422560713197815,-0.628552962905239
-663.866751909256,7128.0,5056.0,14140.0,429.0,758.0,838.0,0.5635450616301967,-0.27273253975828726,-0.509978740411835,-0.5898776225601124
-663.8745338916779,7248.0,4916.0,14196.0,515.0,478.0,957.0,0.6429776257949569,-0.2638597941213239,-0.48745575939533065,-0.528530665530066
-663.8822929859161,7296.0,4860.0,14256.0,518.0,479.0,985.0,0.7167971939023748,-0.25305231965212194,-0.45909574568958894,-0.45977973272218275
-663.8900871276855,7212.0,4776.0,14268.0,545.0,481.0,997.0,0.783654745336813,-0.23806528821569228,-0.42626702662532284,-0.384065854600328
-663.8978667259216,7160.0,4764.0,14256.0,585.0,443.0,1043.0,0.8421208733825728,-0.2204572843041658,-0.3913780449044144,-0.2984195810891157
-663.9056522846222,7028.0,4744.0,14164.0,590.0,486.0,990.0,0.8906323204746479,-0.19686561038510378,-0.3498009726733182,-0.21367564365281547
-663.9134259223938,6912.0,4796.0,14112.0,584.0,458.0,999.0,0.9278811820159575,-0.17216868262520812,-0.3060490364174491,-0.1254130937809965
-663.9212276935577,6792.0,4792.0,14124.0,595.0,435.0,991.0,0.9538161455777142,-0.14458279162001353,-0.2608782124142696,-0.0356810186257611
-663.9290006160736,6780.0,4976.0,14272.0,563.0,425.0,920.0,0.9685618398920282,-0.11644946907419317,-0.21452265577981147,0.04803658620764405
-663.9367768764496,6716.0,4896.0,14252.0,591.0,436.0,907.0,0.9739248716927903,-0.08455300442022858,-0.1651245148146636,0.13059490169572863
-663.9445295333862,6664.0,5336.0,14384.0,763.0,525.0,834.0,0.9719030839477565,-0.037165659129785644,-0.10507127013930215,0.2073237501725327
-663.9523117542267,6936.0,5580.0,14396.0,431.0,561.0,739.0,0.9612619935831207,-0.017155699260022462,-0.04720715931350972,0.2710213013492726
-663.960111618042,6868.0,5460.0,14096.0,403.0,477.0,721.0,0.943520306973338,0.0026842021087406637,0.0032588813935534363,0.3312877979643078
-663.9678928852081,6804.0,5444.0,14540.0,408.0,446.0,679.0,0.9207767439666961,0.023779834150380038,0.05127814195097098,0.38597313302343483
-663.9756648540497,6808.0,5244.0,14320.0,390.0,375.0,635.0,0.8945330141377834,0.045460072330042484,0.09277203934903183,0.43489931841328633
-663.9834849834442,6772.0,5120.0,14376.0,432.0,325.0,584.0,0.8659355605412752,0.07163209423438939,0.13166935247229772,0.4771662495244074
-663.9912536144257,6756.0,5032.0,14280.0,371.0,504.0,556.0,0.8324552030701371,0.08504264367458761,0.18099427961166772,0.5167467023466596
-663.9990203380585,6712.0,4880.0,14264.0,386.0,182.0,520.0,0.8018841289194614,0.11306773047152839,0.20714385440819125,0.5488979465201271
-664.0068130493164,6412.0,4852.0,14156.0,403.0,145.0,573.0,0.7663426592791697,0.14454657359993503,0.23022207818426688,0.5820850550786941
-664.0145785808563,6728.0,4800.0,14192.0,404.0,232.0,654.0,0.7215877896501464,0.1726148233908756,0.2571057248574851,0.619202576560418
-664.022382736206,6768.0,4616.0,14308.0,377.0,279.0,684.0,0.6709254500115699,0.1962000803385533,0.28372927241971063,0.6564009970849367
-664.0301775932312,6748.0,4848.0,14492.0,385.0,206.0,788.0,0.6121917597581678,0.22582457075425655,0.3031511077429486,0.6944954415992066
-664.0379388332367,6732.0,4840.0,14108.0,404.0,156.0,1022.0,0.535632511962649,0.2638039850366999,0.31409922684605546,0.7381374840109729
-664.045706987381,6748.0,4856.0,14248.0,358.0,165.0,741.0,0.4738441671327059,0.28945746891036866,0.3266897472290606,0.7648267045689028
-664.0534746646881,6780.0,5052.0,14260.0,306.0,148.0,686.0,0.4151585580658179,0.31108620090903044,0.33492070974015925,0.7865728608691284
-664.0612354278564,6836.0,5156.0,14280.0,340.0,225.0,574.0,0.3592499520548483,0.3240944228513208,0.349944474453791,0.8021478304056668
-664.0689966678619,6880.0,5340.0,14228.0,321.0,232.0,543.0,0.3045266457454215,0.33388400513450744,0.3634933692690794,0.8146518051559177
-664.0767614841461,6812.0,5124.0,14460.0,306.0,236.0,458.0,0.2551919512043829,0.3392472801245232,0.3774590905429566,0.8229902708629654
-664.0845284461975,6732.0,5324.0,14744.0,348.0,181.0,439.0,0.20710297765404953,0.34793581361053094,0.39278013896261876,0.8256953364834454
-664.092297077179,6772.0,5312.0,14384.0,347.0,175.0,365.0,0.16406675279971059,0.35365865550415626,0.40924156645016124,0.8249418138888158
-664.1001229286194,6800.0,5156.0,14452.0,380.0,135.0,311.0,0.12498056376764256,0.3600636660917039,0.42833963053621715,0.8193040802736313
-664.1078915596008,6776.0,5024.0,14480.0,343.0,101.0,395.0,0.08206967908356155,0.37087940493569727,0.4409141728487916,0.8132082924753843
-664.1156830787659,6872.0,4968.0,14388.0,367.0,158.0,380.0,0.037071665401238456,0.37640841509572986,0.45511072934518165,0.8061120397962036
-664.1235256195068,6776.0,5056.0,14276.0,370.0,187.0,344.0,-0.006732084580533311,0.37761842219328606,0.46977981206198294,0.7979134880652549
-664.1313164234161,6824.0,5024.0,14308.0,376.0,190.0,298.0,-0.04764761436061098,0.3759253047910222,0.4853975680799149,0.7879080345862859
-664.139054775238,6736.0,5076.0,14236.0,320.0,294.0,312.0,-0.09198827699820016,0.367114923266735,0.4952656868833789,0.781969749674306
-664.146861076355,6752.0,5204.0,14128.0,279.0,364.0,293.0,-0.1365391612500082,0.3522183201685499,0.5012932006632885,0.7784628696036472
-664.154632806778,6680.0,5280.0,14208.0,229.0,334.0,273.0,-0.17661655740320906,0.3383500455355429,0.5038824608507184,0.7748730889533842
-664.1623952388763,6704.0,5220.0,14280.0,138.0,316.0,245.0,-0.2110538985410138,0.3253210219616763,0.5006252541558529,0.7739488610249632
-664.1701903343201,6708.0,5120.0,14172.0,133.0,504.0,206.0,-0.2505102642827644,0.2973841508891636,0.49373767669701063,0.7778369886414177
-664.1779544353485,6696.0,5068.0,14232.0,130.0,297.0,161.0,-0.27752088509237643,0.2810924274423248,0.49149000685220473,0.776148683395485
-664.1857206821442,6804.0,5096.0,14200.0,106.0,282.0,133.0,-0.3011525857449031,0.2649352507109717,0.4882145460600285,0.7750890207229577
-664.1934912204742,6892.0,5032.0,14392.0,95.0,294.0,47.0,-0.31898952180254825,0.24438152512537004,0.4854794345617709,0.7764232568484558
-664.2012658119202,6832.0,5116.0,14404.0,157.0,297.0,100.0,-0.34159382591526516,0.22394087219979097,0.4853171124507715,0.7730662612075458
-664.2090513706207,6844.0,4820.0,14464.0,158.0,301.0,67.0,-0.3618468439503893,0.20160152336996157,0.48529225641640905,0.7700098136779322
-664.2168164253235,6900.0,4816.0,14624.0,166.0,322.0,87.0,-0.38411411126547385,0.17825367296215444,0.4843054850505042,0.7655913888963434
-664.2246146202087,7136.0,4904.0,14488.0,173.0,290.0,140.0,-0.4082806369632536,0.15887052086354514,0.48352487787632614,0.7578065528590457
-664.2323842048645,6852.0,5096.0,14404.0,221.0,317.0,124.0,-0.4327224811250999,0.1351352806263356,0.4846262843415686,0.7480822647170993
-664.2401671409607,6776.0,5096.0,14496.0,168.0,289.0,134.0,-0.4555247194083636,0.11550111284309122,0.48266103691305795,0.739050097345201
-664.2557141780853,6608.0,5040.0,14272.0,164.0,225.0,151.0,-0.47628977789118837,0.10076812697514993,0.4823840492763632,0.7282166305887429
-664.2634863853455,6408.0,4936.0,14136.0,191.0,232.0,185.0,-0.49933605275731285,0.08581395570240223,0.48281845858124983,0.7142729222619867
-664.2712638378143,6700.0,4804.0,14324.0,191.0,183.0,180.0,-0.5195800903689131,0.07363465459707486,0.4850066391016053,0.6995591664483903
-664.27903008461,6772.0,4780.0,14252.0,173.0,129.0,197.0,-0.5380918952116434,0.06623436155444452,0.4880886066161424,0.6839880362612561
-664.2868449687958,6812.0,4636.0,14200.0,171.0,132.0,287.0,-0.5616497616531353,0.06252664052872343,0.4899921971822976,0.6637376071608663
-664.2946186065674,6920.0,4668.0,14352.0,219.0,177.0,351.0,-0.5903830649067938,0.056509235318834894,0.4915028594119307,0.6377142637457917
-664.3023960590363,7028.0,4596.0,14296.0,320.0,228.0,416.0,-0.6242112642653498,0.045122455635381566,0.4946926023705142,0.6029954317584628
-664.3101904392242,6740.0,4720.0,14332.0,276.0,205.0,264.0,-0.6476710694779829,0.03066722135981858,0.49645167421764247,0.5771632719272888
-664.3179640769958,6988.0,4636.0,14308.0,307.0,177.0,750.0,-0.6922281867260892,0.03680271649660629,0.4983959087003127,0.5206411583338094
-664.3257691860199,6992.0,4772.0,14264.0,307.0,193.0,528.0,-0.7245654535006341,0.03238061096330635,0.4980107223161936,0.47533327264685216
-664.3335630893707,7004.0,4916.0,14384.0,299.0,1.0,493.0,-0.7450592845130019,0.0347821175627158,0.5081179750069603,0.4306889716879838
-664.3413302898407,7040.0,5100.0,14480.0,298.0,291.0,428.0,-0.7739989414834286,0.023365755482113455,0.49822468187732155,0.39006646410775153
-664.3491013050079,6804.0,5152.0,14308.0,8.0,272.0,384.0,-0.7983323017188472,0.030182074515211182,0.4787352872945816,0.3640976560062155
-664.3568823337555,6868.0,5052.0,14432.0,271.0,220.0,346.0,-0.8185691254364612,0.018674535114620642,0.47047275443518854,0.3290155557942616
-664.3646476268768,6824.0,4984.0,14376.0,252.0,212.0,184.0,-0.8326053674583463,0.002061277339372505,0.4618080842134788,0.3057733581762134
-664.3724141120911,6968.0,4936.0,14340.0,183.0,171.0,100.0,-0.8420549826034878,-0.011836299536266226,0.4539111957511872,0.29114933394678255
-664.3801779747009,6940.0,4956.0,14088.0,209.0,119.0,76.0,-0.8483685521483555,-0.027269504033085923,0.450231574630449,0.2771618716224854
-664.3879148960114,6824.0,4808.0,14272.0,186.0,84.0,41.0,-0.8521704150227021,-0.0415067256042883,0.44831689888555415,0.2666359571837339
-664.3956701755524,6784.0,4744.0,14364.0,159.0,111.0,78.0,-0.8577047358309765,-0.05289195464095798,0.4437495075005918,0.2542270675210561
-664.4034700393677,6820.0,4700.0,14204.0,173.0,160.0,160.0,-0.8664808067893,-0.06320530591278926,0.43599118310184315,0.23479307704378702
-664.4112362861633,6836.0,4716.0,14172.0,182.0,199.0,279.0,-0.87835869708226,-0.07041511105116673,0.42573979640797943,0.205604808188181
-664.4190130233765,6916.0,4632.0,14260.0,190.0,186.0,349.0,-0.889809190219125,-0.07531874550933196,0.41649990971651313,0.17057114874040724
-664.4268383979797,7140.0,4612.0,14260.0,201.0,194.0,393.0,-0.9006892704741216,-0.07948870526465232,0.4064163944693258,0.1314005254734431
-664.4346213340759,6948.0,4644.0,14416.0,172.0,160.0,450.0,-0.9095349917974932,-0.07884426933750656,0.39830683241698406,0.0887769516176207
-664.442390203476,7156.0,4664.0,14320.0,180.0,185.0,404.0,-0.9171478027929331,-0.08051006154271768,0.3872193377534054,0.04918559029123732
-664.4501993656158,6848.0,4940.0,14588.0,161.0,211.0,371.0,-0.9240965125647783,-0.08177977747268148,0.3730933523961319,0.012611655717986912
-664.4579465389252,6792.0,5080.0,14116.0,141.0,176.0,290.0,-0.9287464030893482,-0.08396892585554838,0.36070123337726684,-0.01655169113360424
-664.4657254219055,6704.0,5192.0,14276.0,117.0,161.0,237.0,-0.9323553420739112,-0.0858510392554007,0.3488542588773232,-0.04054406526436563
-664.4734964370728,6656.0,5252.0,14304.0,111.0,107.0,91.0,-0.9344220202913596,-0.09185971699367912,0.3401581627698258,-0.05205482388320811
-664.4812831878662,6680.0,5236.0,14216.0,108.0,252.0,44.0,-0.9406328366866035,-0.09832774218784969,0.31913496051538903,-0.0607815649682895
-664.4890587329865,6712.0,5364.0,14280.0,181.0,-29.0,7.0,-0.9381815664576667,-0.1132913396326952,0.3203369382115646,-0.06606562449949427
-664.4968402385712,6816.0,4912.0,14244.0,237.0,-23.0,-43.0,-0.9353099611407036,-0.13411716720736236,0.32010259815556097,-0.06886355135561525
-664.5046067237854,6832.0,4864.0,14336.0,208.0,48.0,-239.0,-0.9353671678945799,-0.1574904038702944,0.3117501214312079,-0.05564975922025057
-664.5123872756958,6928.0,4872.0,14392.0,235.0,92.0,22.0,-0.9343925273410171,-0.1755955597168371,0.3030606128544829,-0.06504666934795801
-664.5201559066772,7148.0,4884.0,14404.0,247.0,149.0,140.0,-0.9334789800435522,-0.19108117779215372,0.2912783061818145,-0.08521693293158307
-664.5279748439789,6904.0,4812.0,14276.0,269.0,162.0,125.0,-0.9318687220533048,-0.20845785054878058,0.2777902370390417,-0.10487417989722644
-664.5357439517975,6888.0,4892.0,14228.0,291.0,188.0,190.0,-0.9289348729532727,-0.2255641980284889,0.26289691551819117,-0.13071345068535561
-664.543505191803,6884.0,4972.0,14560.0,298.0,238.0,229.0,-0.9253130977343833,-0.24143824676861975,0.2443045529705012,-0.16068145367894276
-664.5512673854828,6804.0,5024.0,14388.0,245.0,222.0,301.0,-0.9200552511764267,-0.25133652835632564,0.2289090375232773,-0.19475352843180777
-664.559032201767,6764.0,5008.0,14264.0,215.0,248.0,242.0,-0.9156909292679628,-0.2592027386204055,0.2103311342967122,-0.22379650643724294
-664.5668318271637,6784.0,4980.0,14088.0,213.0,246.0,504.0,-0.90439130164472,-0.2615974805814673,0.19748816735803323,-0.27320606767852584
-664.5746033191681,6748.0,4628.0,14148.0,204.0,213.0,264.0,-0.8966579980774056,-0.26768516478500337,0.18159297997476606,-0.30227979863320154
-664.5823647975922,6784.0,4852.0,14360.0,230.0,220.0,233.0,-0.8881793295308859,-0.27579021676804893,0.16352979158283207,-0.32914319405689424
-664.5901288986206,6720.0,4984.0,14388.0,242.0,245.0,305.0,-0.8764603876112665,-0.2826819614022519,0.14471412135744746,-0.3618921396297882
-664.5978951454163,6748.0,4948.0,14376.0,300.0,236.0,268.0,-0.8629304779082526,-0.29428311152337655,0.12364769994924785,-0.3917393098304226
-664.6056549549103,6728.0,4908.0,14368.0,306.0,498.0,342.0,-0.8473321364495762,-0.2958231070501968,0.08432342653315093,-0.43290472348159115
-664.6134250164032,6780.0,4832.0,14484.0,289.0,11.0,373.0,-0.8251943257256252,-0.31351243951740676,0.08227648493525005,-0.4625957793633388
-664.6211907863617,6776.0,4836.0,14448.0,315.0,264.0,370.0,-0.8026439101965022,-0.3222469099830271,0.060681583293330656,-0.49823431021947395
-664.6289722919464,6812.0,4876.0,14408.0,302.0,299.0,373.0,-0.7786051698365178,-0.32777568494760734,0.03716070553629466,-0.5338128621764547
-664.6367547512054,6796.0,4944.0,14456.0,313.0,278.0,388.0,-0.7515768305517325,-0.33418192310161593,0.014904035606984571,-0.5685354692299713
-664.6445457935333,6732.0,5064.0,14376.0,284.0,286.0,381.0,-0.7239415720602786,-0.33750016991983306,-0.006678388188293548,-0.6016291504558126
-664.6523196697235,6644.0,5068.0,14392.0,293.0,276.0,380.0,-0.694412857515549,-0.34112501156817326,-0.028115375652224463,-0.6329565825960243
-664.6601274013519,6616.0,5068.0,14556.0,264.0,191.0,346.0,-0.6664209757229602,-0.3469139644913524,-0.04376847089645473,-0.6584968529254611
-664.6679029464722,6648.0,5140.0,14204.0,304.0,126.0,332.0,-0.6371449339503777,-0.35812453562893865,-0.05829118918530075,-0.6799965348332955
-664.6756827831268,6640.0,5104.0,14140.0,280.0,156.0,315.0,-0.6084590275550579,-0.3655587659402493,-0.07351379472661666,-0.7005284593904009
-664.6834852695465,6628.0,5052.0,14432.0,283.0,112.0,496.0,-0.5676768233008423,-0.376238402495742,-0.08067554110284927,-0.727790592026497
-664.6912655830383,6436.0,4980.0,14340.0,496.0,81.0,250.0,-0.5343312141144165,-0.3967479572948791,-0.10772391895844814,-0.7385639913301949
-664.6990356445312,6740.0,4908.0,14260.0,227.0,39.0,285.0,-0.5074988717509236,-0.40710198920119817,-0.11410384379213,-0.7507950308784873
-664.7068471908569,6756.0,4828.0,14432.0,243.0,27.0,248.0,-0.48215024149301566,-0.4181821425249807,-0.12222248244543255,-0.76007664421841
-664.714617729187,6692.0,4884.0,14456.0,188.0,58.0,509.0,-0.4404328007130495,-0.42699903243714893,-0.1183011508994098,-0.7808300788581808
-664.7223947048187,6760.0,4872.0,14476.0,179.0,110.0,192.0,-0.4194448433885418,-0.428034285135234,-0.12743268307160271,-0.7903249871974839
-664.7379903793335,6764.0,5148.0,14580.0,133.0,207.0,227.0,-0.39637993578137315,-0.42076830250253444,-0.1355499870259508,-0.8046509697604015
-664.745766878128,6660.0,5208.0,14428.0,140.0,213.0,171.0,-0.3766069262030172,-0.4123252463192241,-0.14632132378124954,-0.8165446617243963
-664.7535531520844,6668.0,5060.0,14360.0,129.0,193.0,160.0,-0.3580158989236598,-0.40453320709127505,-0.15594422030337793,-0.8269576171922616
-664.7613217830658,6628.0,4960.0,14316.0,111.0,181.0,76.0,-0.3461044868266716,-0.39570039247596867,-0.16677782535069874,-0.834157083866164
-664.7691016197205,6908.0,4872.0,14316.0,108.0,94.0,39.0,-0.33815381518163984,-0.39247044589467117,-0.17597995921893772,-0.837048385895726
-664.7769055366516,6656.0,4916.0,14092.0,153.0,112.0,6.0,-0.3307250620965587,-0.38866085835972825,-0.19009237265758425,-0.838706480443377
-664.7846703529358,6656.0,5104.0,14380.0,180.0,128.0,-78.0,-0.3281520952230821,-0.38293704978456716,-0.209420984122921,-0.8377459458045623
-664.7924437522888,6700.0,4888.0,14408.0,157.0,117.0,-48.0,-0.3242335691263644,-0.3777851659671905,-0.2256572563529635,-0.8373946284052546
-664.8002922534943,6688.0,4848.0,14408.0,146.0,155.0,253.0,-0.2977535796140022,-0.37526864729503284,-0.2321007830331495,-0.8465491566942838
-664.8081288337708,6656.0,4780.0,14404.0,159.0,119.0,32.0,-0.28772834139526837,-0.3710538265865544,-0.2456824220113827,-0.8480398615914373
-664.8159184455872,6732.0,4784.0,14316.0,199.0,121.0,27.0,-0.2766305295978451,-0.36746279688552985,-0.26234103419060306,-0.8483064450888514
-664.8236911296844,6704.0,4836.0,14308.0,198.0,82.0,62.0,-0.2637579340046516,-0.3673967029971311,-0.2767562211867563,-0.8478545918439451
-664.8315122127533,6740.0,4888.0,14492.0,168.0,80.0,50.0,-0.2526974768198887,-0.3663798100067849,-0.2892024893041426,-0.8475091387168289
-664.8392775058746,6676.0,5000.0,14348.0,152.0,98.0,46.0,-0.24192272251597763,-0.36347956781929974,-0.30091353960354356,-0.847824888636574
-664.8470513820648,6632.0,5044.0,14448.0,155.0,40.0,18.0,-0.23459379627598442,-0.3641173629618783,-0.312443169428082,-0.8454369063485723
-664.8548457622528,6616.0,4896.0,14520.0,148.0,7.0,-13.0,-0.23063258633360015,-0.3661392951068763,-0.32371127550494005,-0.8414045619145877
-664.8627932071686,6652.0,5120.0,14532.0,123.0,-4.0,-105.0,-0.2344969480193647,-0.365802134701977,-0.335805907596039,-0.8357238611172237
-664.871511220932,6508.0,5164.0,14456.0,31.0,-38.0,-175.0,-0.24735063317482067,-0.36393352803082557,-0.3426543072563518,-0.83003498550466
-664.8794934749603,6524.0,4960.0,14388.0,21.0,-97.0,-279.0,-0.26970215454630375,-0.3628572668168502,-0.35064458143873733,-0.8201486019368316
-664.8873357772827,6508.0,4904.0,14108.0,4.0,-218.0,-378.0,-0.30308175311765784,-0.3666400937037509,-0.35732669637521847,-0.8037624802599362
-664.8951518535614,6336.0,4864.0,14144.0,-1.0,-297.0,-481.0,-0.34570107797376376,-0.371916552166204,-0.36416686574470264,-0.7807376875790362
-664.9029424190521,6452.0,4920.0,14264.0,18.0,-399.0,-552.0,-0.3947226451702605,-0.3813587457874836,-0.37043668495559207,-0.7493571930930545
-664.9107346534729,6660.0,4976.0,14184.0,-20.0,-382.0,-606.0,-0.4465114832624653,-0.3852441470172275,-0.3752242014582557,-0.7151372184019904
-664.9185311794281,6768.0,5096.0,14272.0,-29.0,-431.0,-553.0,-0.4952055235283074,-0.3921130443402785,-0.37432768187901794,-0.6788944222074113
-664.9264483451843,6896.0,5060.0,14172.0,-1.0,-424.0,-400.0,-0.5321244012194393,-0.4035499999711069,-0.3689714438168555,-0.6464140258362887
-664.9353175163269,6912.0,4968.0,14148.0,50.0,-428.0,-270.0,-0.5588533347798884,-0.42085583260231046,-0.3608881343730499,-0.6167033912982429
-664.9442901611328,7108.0,4828.0,14160.0,24.0,-377.0,-187.0,-0.5795474704001691,-0.43607559719661615,-0.35024587003933005,-0.5926977590667711
-664.9533131122589,7048.0,4620.0,14428.0,86.0,-333.0,-88.0,-0.5907561873518089,-0.4546785344405281,-0.34086560234376917,-0.5727872192737784
-664.9622848033905,7060.0,4576.0,14392.0,49.0,-371.0,-68.0,-0.6029540046567351,-0.47339761750061343,-0.32653966503117565,-0.5529132040153106
-664.9713134765625,6980.0,4704.0,14112.0,15.0,-313.0,-56.0,-0.6137615864184572,-0.4874299715630832,-0.31282500537479785,-0.5365158468035855
-664.9802820682526,6960.0,4888.0,14348.0,246.0,-369.0,-139.0,-0.6194186875396269,-0.5135886530985514,-0.31008425733637407,-0.5063545578813836
-664.9892873764038,6972.0,4996.0,14216.0,-3.0,-358.0,-169.0,-0.6363835064876465,-0.524275638559596,-0.2978516475553707,-0.481077419478369
-664.9982540607452,6896.0,5056.0,14272.0,251.0,-493.0,-143.0,-0.6429781640254679,-0.5544254514945471,-0.2870564599645751,-0.44361028855754947
-665.0072705745697,6844.0,5044.0,14068.0,33.0,-539.0,-181.0,-0.6611413618749025,-0.5718156916157564,-0.26638738318370336,-0.40614858921425845
-665.016265630722,6956.0,5108.0,13972.0,31.0,-595.0,-206.0,-0.6797715645223961,-0.5889235295216996,-0.24294198192193955,-0.3633990779601922
-665.0252287387848,7004.0,5000.0,13828.0,46.0,-635.0,-206.0,-0.6962934518955591,-0.606297022129763,-0.21682674263366764,-0.31712066076309453
-665.033593416214,7044.0,4928.0,14152.0,51.0,-686.0,-167.0,-0.7099263322303558,-0.6239346196912702,-0.18492183616390237,-0.26928443636132254
-665.0413999557495,7144.0,4936.0,14136.0,23.0,-719.0,-105.0,-0.7213811403660059,-0.6391752787584717,-0.14623028138008812,-0.2228921671027737
-665.0491840839386,7164.0,4976.0,14252.0,44.0,-641.0,-85.0,-0.7276890954711176,-0.652179958431041,-0.11119575572441864,-0.18101211578838536
-665.05695104599,7092.0,5032.0,14364.0,20.0,-567.0,-174.0,-0.7339155846448484,-0.6597226094331593,-0.08520449254599066,-0.13738336023002715
-665.0647611618042,7012.0,5284.0,14424.0,255.0,-527.0,-178.0,-0.724356017580188,-0.6799721862371771,-0.0645825982970171,-0.0936764310614474
-665.0725319385529,6936.0,5164.0,14400.0,-62.0,-477.0,-192.0,-0.7316516081933429,-0.6780646576587187,-0.045196795437100416,-0.05358632236379526
-665.08030128479,6804.0,5296.0,14160.0,-72.0,-458.0,-241.0,-0.7381871107575291,-0.6738417858405984,-0.029775708842723413,-0.011421222768083187
-665.0881125926971,6764.0,5416.0,14240.0,-134.0,-415.0,-306.0,-0.7467552990024438,-0.6639897096298388,-0.02081093874758057,0.03226598434726003
-665.0958957672119,6908.0,5352.0,14232.0,-1.0,-395.0,-453.0,-0.7453433532973466,-0.6609612321842018,-0.02122283702379753,0.08451701860376809
-665.103687286377,6596.0,5264.0,14104.0,-357.0,-421.0,-263.0,-0.763803799783889,-0.6331170887874158,-0.011553025829932373,0.12503213553008247
-665.1115038394928,6576.0,5168.0,14172.0,-433.0,-498.0,-611.0,-0.7792823125117299,-0.5962308751354259,-0.016715117808990747,0.19221973306153065
-665.119292974472,6524.0,5088.0,14276.0,-460.0,-564.0,-744.0,-0.788428938932702,-0.5519781633146233,-0.02459989004870062,0.2703604277383444
-665.1270685195923,6640.0,5136.0,14012.0,-461.0,-701.0,-814.0,-0.7889520796302977,-0.49921995870566777,-0.026211010881696355,0.357277247785945
-665.1349101066589,6780.0,5196.0,13912.0,-478.0,-850.0,-868.0,-0.7797196269766258,-0.4348343603003296,-0.02014496904441239,0.450056177195508
-665.1426885128021,6828.0,5308.0,13868.0,-542.0,-970.0,-871.0,-0.7621174700337282,-0.35544705020054035,-0.008260191089198112,0.5410786686021672
-665.1504790782928,6724.0,5244.0,13948.0,-559.0,-1045.0,-858.0,-0.7338218402653751,-0.26594054025932223,0.008350652713286324,0.6250691180944553
-665.1582565307617,6784.0,4888.0,13792.0,-595.0,-1187.0,-721.0,-0.7014254912295037,-0.1619933485070883,0.035088476362962,0.6932021596326979
-665.1660919189453,6844.0,5152.0,13468.0,-678.0,-1345.0,-600.0,-0.6640114834626747,-0.040367720674108404,0.06750838447326678,0.743573678247882
-665.1738739013672,6988.0,5156.0,13248.0,-818.0,-1534.0,-499.0,-0.6178182383396318,0.10248687976345214,0.10061176378333411,0.7730940025893824
-665.1816608905792,7108.0,5388.0,12776.0,-1112.0,-1613.0,-320.0,-0.5636822116720762,0.2644696877172134,0.11403799087531065,0.7741533989852132
-665.1894390583038,6960.0,5484.0,12340.0,-1455.0,-1511.0,-115.0,-0.49893852908761843,0.4296413955245018,0.09143527774396533,0.7470663996108555
-665.1972279548645,6484.0,5484.0,12564.0,-1588.0,-1235.0,122.0,-0.4308649831305038,0.5713485815017256,0.03666580453925831,0.6975469758413446
-665.2050018310547,6212.0,5224.0,13104.0,-2172.0,-1071.0,184.0,-0.3231442423942035,0.7030843236405322,-0.06299320326480921,0.6303031721329427
-665.2127847671509,5948.0,4700.0,13472.0,-2341.0,-1236.0,353.0,-0.20032102683055059,0.8133006180157839,-0.17387408933234708,0.5178623291991268
-665.2205600738525,6172.0,4264.0,13580.0,-2300.0,-1605.0,425.0,-0.07823294819778798,0.8926334702911464,-0.27171142303160317,0.3510811816751341
-665.2283301353455,6916.0,4264.0,13516.0,-2175.0,-1858.0,565.0,0.028964874506874762,0.9216350514307957,-0.35826450329421977,0.14627513014282795
-665.2361404895782,7392.0,4484.0,14088.0,-2018.0,-1973.0,909.0,0.11428565304337557,0.884161488190461,-0.4474059266229223,-0.07088856841524424
-665.2439157962799,7244.0,4384.0,14992.0,-1951.0,-2077.0,1098.0,0.1841660754676331,0.7816535717546412,-0.5225524901003008,-0.2864252878152296
-665.2516849040985,7280.0,3628.0,15820.0,-1811.0,-2241.0,1265.0,0.22873048561649464,0.615953945427394,-0.5781929199659837,-0.48371070834051105
-665.259486913681,7712.0,2948.0,16448.0,-1360.0,-2294.0,999.0,0.2215797920295116,0.42841087148925355,-0.6019403242560746,-0.6364231037513239
-665.2672536373138,8292.0,3020.0,16136.0,-835.0,-2760.0,284.0,0.11986382911880569,0.23646672304373959,-0.6005906216891579,-0.7543255639980418
-665.2750234603882,9092.0,3812.0,15896.0,-320.0,-2923.0,-95.0,-0.03191251514107866,0.044088451066547026,-0.5889398128955755,-0.8063421709463344
-665.2828278541565,8756.0,4848.0,15832.0,71.0,-3200.0,-369.0,-0.21428303584869945,-0.156404521045093,-0.561673421242778,-0.7836730020956143
-665.290607213974,8692.0,5540.0,15384.0,382.0,-3305.0,-606.0,-0.3956398850808972,-0.34524774594417984,-0.5122422468139979,-0.6796182427161478
-665.2983801364899,8248.0,5724.0,15028.0,453.0,-3295.0,-900.0,-0.5580205062374863,-0.4942462565880062,-0.43312275458665556,-0.5066936272803024
-665.306174993515,7812.0,5820.0,14188.0,456.0,-3145.0,-1061.0,-0.6759134974571289,-0.5906653310252706,-0.33184070451725195,-0.2900640575899973
-665.3139553070068,7328.0,5920.0,13772.0,332.0,-2976.0,-1204.0,-0.7465055039645538,-0.6262871892147913,-0.21813084404603142,-0.05397058506102535
-665.3217504024506,6820.0,6016.0,13128.0,212.0,-2661.0,-1434.0,-0.7660937752957353,-0.604461218701959,-0.11989285098795184,0.18262712509496173
-665.3295805454254,6436.0,5972.0,13288.0,95.0,-2556.0,-1513.0,-0.7393520470361856,-0.5363685112091113,-0.02630173005307433,0.40617187214643286
-665.3373918533325,6276.0,5744.0,13112.0,0.0,-2102.0,-1485.0,-0.6748229539321156,-0.44714118899294475,0.03897678000300849,0.5857982148939227
-665.3451817035675,6384.0,5296.0,13184.0,-117.0,-1862.0,-1465.0,-0.5858254787355612,-0.34256890714275956,0.08383884294480312,0.7296753392687344
-665.3529539108276,6640.0,4924.0,13464.0,-172.0,-1766.0,-1453.0,-0.47615090543713684,-0.22719199963085682,0.11753217378481066,0.8413383972460454
-665.3607819080353,7160.0,4252.0,13464.0,-504.0,-1724.0,-1382.0,-0.36007228563669413,-0.09177515505864293,0.12250330874518527,0.920281592436147
-665.3685550689697,7200.0,4076.0,13856.0,-217.0,-1654.0,-1211.0,-0.2430102943377249,0.03467881844431255,0.1451320146141403,0.9584779990856543
-665.3763315677643,7416.0,3532.0,13920.0,-200.0,-1691.0,-1120.0,-0.12537867235478284,0.16391133354375573,0.16511342656136807,0.9644432692614031
-665.384114742279,7636.0,3376.0,14084.0,-191.0,-1748.0,-1065.0,-0.007773218760143247,0.29336821963202714,0.1803936585388861,0.9387932641103672
-665.3919062614441,7816.0,3600.0,14208.0,-201.0,-1846.0,-973.0,0.10440282768500575,0.4222835528068622,0.18679048445141844,0.8808438939554463
-665.3996856212616,8168.0,3908.0,14368.0,-219.0,-1910.0,-940.0,0.2122238544149898,0.5422638764463388,0.18390856143675569,0.7918892378034306
-665.4075026512146,7928.0,3900.0,14452.0,-263.0,-2068.0,-885.0,0.3130141878801996,0.6533463024563457,0.1660276028137865,0.6690258308587403
-665.4152672290802,8028.0,4340.0,14672.0,-359.0,-2223.0,-900.0,0.40924566003243584,0.7437257397559455,0.13266382419001418,0.5116544962378118
-665.4230535030365,8308.0,4364.0,14600.0,-502.0,-2236.0,-925.0,0.49765999030773966,0.7965386022717115,0.08834520032575696,0.3317467629342153
-665.4308941364288,8400.0,4904.0,14440.0,-665.0,-2219.0,-808.0,0.5715316808192649,0.8072990640022273,0.028195703210803915,0.14430787019938177
-665.4386682510376,8192.0,5144.0,14276.0,-836.0,-2130.0,-1112.0,0.6343374424731024,0.7708319242494831,-0.010031187955199996,-0.057736720574779236
-665.4464364051819,8344.0,5148.0,14288.0,-1016.0,-1993.0,-1211.0,0.6784327082533802,0.6887275717352392,-0.03302646611094162,-0.2535599432873569
-665.4542045593262,8200.0,4936.0,14132.0,-1153.0,-1880.0,-1323.0,0.695837998683362,0.5683890008886808,-0.03841141659756948,-0.4373419558332683
-665.461972951889,8028.0,4788.0,14208.0,-1179.0,-1745.0,-1443.0,0.676899584630608,0.42443712199781997,-0.02722055729824872,-0.6007654476228561
-665.4697425365448,7868.0,4508.0,14320.0,-1198.0,-1720.0,-1557.0,0.6197505526264258,0.26028941912017645,-0.008256106440979098,-0.7403313498155782
-665.4775278568268,7756.0,4436.0,14052.0,-1190.0,-1685.0,-1617.0,0.5275237664288316,0.08576900094322885,0.013685929062951387,-0.8450887821262473
-665.4852998256683,7816.0,4232.0,14224.0,-1165.0,-1580.0,-1662.0,0.405482958377393,-0.08448006106240058,0.03810773930614949,-0.9093923740352043
-665.4930670261383,7872.0,4204.0,14100.0,-1275.0,-1778.0,-1711.0,0.2586890147485067,-0.26871849663490627,0.06166848532021851,-0.9257793263694284
-665.5008358955383,7808.0,4144.0,14220.0,-999.0,-1398.0,-1672.0,0.10534498596536494,-0.404404654947089,0.06979793509530406,-0.9058076822623633
-665.50861287117,7860.0,4116.0,14280.0,-990.0,-1295.0,-1742.0,-0.05825359061680474,-0.5153048527535653,0.07290613174533082,-0.8519108661490407
-665.5163810253143,7692.0,4076.0,14084.0,-977.0,-1300.0,-1756.0,-0.2198226158126772,-0.6049638069001787,0.07152479598150692,-0.7619586691402096
-665.5241556167603,7908.0,4152.0,13912.0,-927.0,-1256.0,-1785.0,-0.371839918950455,-0.6675622011816696,0.0616560477900043,-0.6421014826328623
-665.5319373607635,7736.0,4256.0,14068.0,-948.0,-1189.0,-1778.0,-0.5098866299850491,-0.6984550928048529,0.04875101195202312,-0.499799406493353
-665.539731502533,7800.0,4332.0,14168.0,-988.0,-1129.0,-1779.0,-0.630144337548068,-0.6969485862266841,0.03297750321013713,-0.340724619443266
-665.5475108623505,7928.0,4456.0,13884.0,-1051.0,-957.0,-2037.0,-0.7349269788841546,-0.6580509025465683,-0.0068542203602796024,-0.16372038672416156
-665.5552930831909,8136.0,4552.0,14304.0,-1088.0,-723.0,-1756.0,-0.8084258257606308,-0.5867955274261718,-0.044909706170542726,-0.010090169847859974
-665.5630691051483,7948.0,4508.0,14372.0,-1081.0,-747.0,-1602.0,-0.8543733377240258,-0.496696528557249,-0.07202654648317591,0.13472540557442086
-665.5708565711975,8320.0,4444.0,14372.0,-1072.0,-332.0,-1449.0,-0.8748748437707301,-0.39852944447005906,-0.1210065925937712,0.24723611017885716
-665.5786371231079,8352.0,4324.0,14296.0,-1279.0,-313.0,-1389.0,-0.880590545720725,-0.27548698351393863,-0.1704632115523899,0.3458460729991188
-665.5864205360413,8368.0,4212.0,14260.0,-894.0,-308.0,-1264.0,-0.8604745594027552,-0.176894994094092,-0.20201813968789784,0.43299002866362485
-665.5941998958588,8336.0,4156.0,14180.0,-853.0,-314.0,-1095.0,-0.8314877787319225,-0.08095706922528781,-0.22557851974204132,0.5011869493441495
-665.6019916534424,8356.0,4144.0,14316.0,-737.0,-302.0,-1099.0,-0.7891154629281719,0.007376161189759166,-0.2416974451436403,0.5646456618312026
-665.609766960144,8348.0,4088.0,13968.0,-669.0,-167.0,-1062.0,-0.7354466309254282,0.08360381181652632,-0.26061469348583455,0.6198456559898348
-665.6175861358643,8364.0,4196.0,13932.0,-633.0,-106.0,-981.0,-0.6766756973387045,0.1515009396045582,-0.27916812107026884,0.664245907859589
-665.6253755092621,8360.0,4292.0,13720.0,-622.0,-95.0,-856.0,-0.6185148862261323,0.21367828341813663,-0.2967677572299857,0.6954925053376473
-665.6331653594971,8252.0,4252.0,13664.0,-592.0,-60.0,-883.0,-0.5530615695866807,0.27096514216609396,-0.3114129316877956,0.7236869336631951
-665.6409401893616,8128.0,4292.0,13792.0,-549.0,-14.0,-822.0,-0.48673455436845176,0.3194777059388362,-0.3245435875251132,0.7454494810435731
-665.6487414836884,7956.0,4288.0,13720.0,-521.0,-19.0,-849.0,-0.4159303160742882,0.3654828450608986,-0.3324976696488559,0.7634589457296405
-665.6565136909485,7872.0,4292.0,13860.0,-765.0,-64.0,-842.0,-0.33560508864979344,0.41984542011913095,-0.3523619492470776,0.7661201631599016
-665.6642911434174,7888.0,4320.0,13856.0,-477.0,-21.0,-808.0,-0.2638294714619891,0.4584926352284117,-0.3526805270493463,0.771877554583361
-665.6720867156982,7680.0,4384.0,13660.0,-474.0,-40.0,-806.0,-0.19111589912074334,0.49521554416420316,-0.350112316534754,0.7717886004160014
-665.6798660755157,7828.0,4480.0,14012.0,-482.0,-31.0,-843.0,-0.1139847044902577,0.5291519176293011,-0.34424229285483254,0.7671394782055931
-665.6876604557037,7856.0,4412.0,14004.0,-437.0,15.0,-732.0,-0.04415884943214882,0.5528997288492933,-0.3387686896430293,0.7599918820439805
-665.6954636573792,7836.0,4352.0,13888.0,-411.0,252.0,-763.0,0.033700156132634246,0.55852965029884,-0.3290304067463449,0.7606891090649494
-665.7032413482666,7840.0,4244.0,13856.0,-371.0,-73.0,-753.0,0.09948900046243858,0.5822656902616421,-0.3161852277381124,0.7423580716145791
-665.7110142707825,7876.0,4112.0,13832.0,-391.0,-86.0,-724.0,0.163549395789458,0.6027737706207407,-0.3045598550432663,0.7191374495077991
-665.7188205718994,7908.0,4104.0,13804.0,-375.0,-159.0,-705.0,0.22282264469354193,0.6244808229748885,-0.29243029437741025,0.6890996253653914
-665.726594209671,8056.0,4448.0,13720.0,-323.0,-159.0,-728.0,0.2795414582225142,0.6446360410459473,-0.2744803837444457,0.6564765545386522
-665.7343738079071,8004.0,4480.0,13700.0,-299.0,-103.0,-636.0,0.32979433532501606,0.6571204073432235,-0.2577584933932438,0.6268883678329438
-665.742181301117,8096.0,4560.0,13752.0,-317.0,-24.0,-569.0,0.3780481361669985,0.6609366500758029,-0.24268919686068163,0.601119210352116
-665.7499625682831,8080.0,4420.0,13868.0,-355.0,-6.0,-578.0,0.42806699427119665,0.6605122509762507,-0.2277022637492292,0.5732659887080223
-665.7577412128448,8148.0,4308.0,13832.0,-372.0,79.0,-572.0,0.4789344503650083,0.6527356000789326,-0.20995121991837348,0.5481592048829884
-665.7655427455902,8148.0,4188.0,13944.0,-358.0,77.0,-521.0,0.5249485571366598,0.6425117849617725,-0.1938295075879548,0.5234861416824583
-665.7733228206635,7968.0,4136.0,13828.0,-294.0,27.0,-447.0,0.5617937489050082,0.6345392177423232,-0.18071962738979558,0.49908734818096784
-665.7811059951782,8128.0,4056.0,14204.0,-218.0,50.0,-458.0,0.5941095656300239,0.6281312956170427,-0.16220668172013694,0.4755774299719255
-665.7889068126678,7932.0,4124.0,13888.0,-98.0,-14.0,-333.0,0.612915569213248,0.6279090386667442,-0.1486544198429563,0.456033559771383
-665.7967231273651,8188.0,4148.0,13872.0,-17.0,246.0,-277.0,0.6278232645473035,0.6203244811866196,-0.12091445736420309,0.4543293745005248
-665.8045599460602,8160.0,4184.0,13864.0,92.0,-97.0,-106.0,0.6260390388750648,0.630107900531264,-0.11683216453408841,0.4442852696441189
-665.8123548030853,7896.0,4168.0,13888.0,159.0,-65.0,-57.0,0.6188524190101511,0.6416686826617217,-0.11107240168082794,0.43925608335150895
-665.8201308250427,8004.0,4068.0,13956.0,153.0,-53.0,14.0,0.6092575562950734,0.6516181619733539,-0.10884923660997603,0.438578208274475
-665.8279156684875,8028.0,4108.0,14068.0,115.0,-112.0,57.0,0.5994906644449387,0.6612645261833945,-0.11363925480899309,0.43637860788685956
-665.8357322216034,8008.0,4104.0,13768.0,126.0,-169.0,35.0,0.5891933208100688,0.6736926204959366,-0.11968783889467147,0.4297258486789507
-665.8435175418854,8028.0,4324.0,13816.0,118.0,-194.0,84.0,0.5770371021299896,0.6858741781170471,-0.13015115218772355,0.42386964050506987
-665.8512907028198,8032.0,4588.0,13840.0,81.0,-210.0,-49.0,0.5715911984795803,0.6980112704399869,-0.13476704940660555,0.40975799022553555
-665.8590753078461,8108.0,4412.0,13832.0,71.0,-171.0,-41.0,0.5667335324597893,0.7079314624803852,-0.13824002337685165,0.3981655981533306
-665.8668696880341,8124.0,4528.0,13916.0,58.0,-49.0,-80.0,0.5654037898267464,0.7133150653004003,-0.13369503704915583,0.3919512841329427
-665.8746328353882,8072.0,4548.0,13616.0,42.0,245.0,-77.0,0.5682253069819897,0.7075995529861321,-0.11534006444417101,0.4038806044526822
-665.8824155330658,8392.0,4452.0,13892.0,53.0,53.0,-4.0,0.5657015862237066,0.7082609220514159,-0.11059780417150512,0.40757368333995975
-665.8902199268341,8188.0,4584.0,13908.0,74.0,113.0,255.0,0.5530573616015126,0.7050846991957269,-0.11811610650617628,0.4278220507667487
-665.8980123996735,8276.0,4304.0,14036.0,15.0,165.0,-6.0,0.5540863424091418,0.6995099945486742,-0.10921000022281178,0.43788956202849416
-665.9057807922363,8304.0,4260.0,14060.0,-13.0,221.0,-77.0,0.5598960221888044,0.6908946120313498,-0.09429906267854331,0.4475363294539925
-665.9135670661926,8368.0,4276.0,14060.0,9.0,4.0,-71.0,0.5622316803898247,0.6916183149671444,-0.08947563207623807,0.44447019611285454
-665.9213454723358,8308.0,4356.0,14156.0,-18.0,286.0,-129.0,0.5704239510281475,0.680257551238889,-0.0683321121149018,0.45518886468127095
-665.929101228714,8292.0,4356.0,14136.0,-73.0,343.0,-239.0,0.5859776514793118,0.6638264464089991,-0.03994951017960859,0.46299965189101355
-665.9369218349457,7948.0,4308.0,13852.0,-23.0,348.0,-13.0,0.5888526724118208,0.6481867016220659,-0.02234004371674829,0.4822939482105258
-665.9446978569031,8120.0,4596.0,13784.0,42.0,304.0,-512.0,0.6078751878451525,0.637533824342037,0.023958804005746074,0.47272016514281656
-665.9524691104889,8004.0,4304.0,13332.0,170.0,297.0,-154.0,0.6038946875591039,0.633493193031806,0.05521739408486225,0.48057113949001984
-665.9602751731873,7972.0,4232.0,13512.0,201.0,241.0,-68.0,0.5943047790433263,0.6332628294790081,0.08001604847496256,0.4892621489477354
-665.9680531024933,8044.0,4236.0,13716.0,240.0,176.0,37.0,0.57809541756459,0.6381014800992585,0.09724558807770066,0.49917480393683755
-665.9758403301239,7980.0,4164.0,13740.0,510.0,123.0,172.0,0.5405870538732173,0.6590440569004883,0.11588705014060169,0.5098987741292688
-665.9836475849152,8076.0,4236.0,13628.0,248.0,138.0,199.0,0.5158904533678722,0.6661891945537443,0.12186438354156268,0.5245932416718303
-665.9914467334747,7976.0,4180.0,13724.0,196.0,169.0,218.0,0.49255531278623205,0.669181460511681,0.12565325669612423,0.5420301613703506
-665.9992265701294,8172.0,4248.0,13604.0,0.0,193.0,491.0,0.46676540831353486,0.6646061485583049,0.10509494914277898,0.5739196568902935
-666.0070140361786,8076.0,4236.0,13940.0,231.0,244.0,223.0,0.4397362590810997,0.6632994317083726,0.11354757095620636,0.5947880592905805
-666.0148136615753,7936.0,4304.0,13996.0,197.0,226.0,197.0,0.41571092181009794,0.6606256742092079,0.12093366276134118,0.6132969894549901
-666.0225944519043,7744.0,4208.0,13840.0,252.0,188.0,165.0,0.39022461457544366,0.660999386800006,0.13161821456664377,0.6272808034873627
-666.0303645133972,7648.0,4232.0,13844.0,288.0,191.0,76.0,0.36712538246930204,0.6607796821458822,0.14938861573004134,0.6373948593299273
-666.0382082462311,7576.0,4432.0,13964.0,340.0,188.0,93.0,0.33972951825076814,0.6618981965778677,0.16881488240647846,0.6465107634634973
-666.0459823608398,7584.0,4700.0,14148.0,357.0,142.0,125.0,0.30980973283308827,0.6657742989155387,0.18578703736778474,0.6528749413873338
-666.0537674427032,7552.0,4704.0,14292.0,323.0,118.0,107.0,0.28292999072462477,0.6690673469048518,0.201020384046067,0.6571836203468847
-666.0615634918213,7616.0,4728.0,14252.0,240.0,247.0,98.0,0.2588699032565011,0.6621008828467172,0.21501135288766382,0.6696110156284645
-666.0693793296814,7648.0,4744.0,14244.0,169.0,-24.0,40.0,0.24722231596478586,0.66787589619067,0.22195946271895867,0.6660006836978685
-666.0771515369415,7668.0,4640.0,14132.0,197.0,24.0,91.0,0.22997455963077884,0.6722565441145999,0.2285333993376317,0.6655488909200518
-666.0849289894104,7676.0,4496.0,13980.0,219.0,127.0,26.0,0.21305815225184502,0.6695133842705823,0.24217058651476797,0.6691124412747641
-666.0927021503448,7748.0,4512.0,13792.0,502.0,140.0,13.0,0.1798442022549303,0.6701420614566183,0.27300124362878087,0.6663602639406859
-666.100476026535,7684.0,4332.0,13796.0,288.0,152.0,29.0,0.15764628761967794,0.6661349431573584,0.2902704925003684,0.6686964383695118
-666.1083471775055,7888.0,4348.0,13680.0,405.0,85.0,68.0,0.12790638156230313,0.6679186669201852,0.31086170464142204,0.6639951901351623
-666.1162412166595,7432.0,4584.0,13752.0,497.0,68.0,149.0,0.08837468080702307,0.6727679228577411,0.33134262434842976,0.6555801271056292
-666.1240572929382,7448.0,4448.0,13884.0,552.0,74.0,233.0,0.04044024291199827,0.6784941810950872,0.34928394736604157,0.6449891139280738
-666.1318407058716,7760.0,4104.0,14056.0,653.0,68.0,324.0,-0.018508219071113025,0.6853617219443249,0.3663029780760196,0.6290937006304901
-666.1396446228027,7776.0,4288.0,13840.0,702.0,169.0,411.0,-0.08824910139836807,0.6861985414293648,0.37895187709279066,0.6146048589870106
-666.1474480628967,7888.0,4448.0,14196.0,652.0,268.0,417.0,-0.15814426470235116,0.6787703823627044,0.38586460524464666,0.6044581590055126
-666.1552240848541,8184.0,4548.0,14220.0,626.0,293.0,464.0,-0.2289970805969535,0.6684423326826148,0.38630268569573634,0.5928873585936524
-666.163013458252,8112.0,4592.0,14236.0,589.0,452.0,438.0,-0.30044471316898,0.6461197001058646,0.3810830902109428,0.5890993004742029
-666.1708228588104,8008.0,4532.0,13976.0,565.0,262.0,442.0,-0.36297529830181996,0.6310244455011909,0.3774692969309479,0.5723408179372456
-666.1786098480225,7980.0,4688.0,14124.0,544.0,589.0,478.0,-0.4348153541316886,0.5980130223374669,0.35844079021633474,0.5699440611456812
-666.1863822937012,7848.0,4724.0,14312.0,590.0,633.0,570.0,-0.5117192039389316,0.5595456736030778,0.3326321830585904,0.5607208987240092
-666.1941962242126,7868.0,4720.0,14052.0,572.0,651.0,651.0,-0.5878294594043985,0.5185671984856272,0.2984060334645348,0.544516690747918
-666.2019698619843,7716.0,4852.0,14220.0,523.0,625.0,726.0,-0.6593370887887032,0.478596452212245,0.25716705778752164,0.5196971653438177
-666.2097475528717,7624.0,4800.0,14068.0,421.0,594.0,692.0,-0.7189242279539095,0.4410695409921681,0.21237635377793548,0.4934591156578451
-666.2175552845001,7592.0,5104.0,14324.0,381.0,572.0,675.0,-0.7705813066758518,0.40340210853373926,0.16636777676133604,0.46453519940663346
-666.2253313064575,7472.0,4900.0,13976.0,301.0,489.0,577.0,-0.8096649287974644,0.3705505716563223,0.1251331727176164,0.437580468035529
-666.2331027984619,7664.0,4952.0,13972.0,328.0,447.0,514.0,-0.8429804540454237,0.3349558520924492,0.08937118705279508,0.4113408831749733
-666.2409224510193,7324.0,4944.0,13968.0,299.0,421.0,374.0,-0.8671190342515642,0.30006363677692577,0.058249002099967,0.39328545368116213
-666.2486979961395,7616.0,4812.0,14056.0,264.0,394.0,510.0,-0.8919225923471125,0.2684326845177913,0.024267801979441405,0.36308271362110534
-666.2564721107483,7352.0,4744.0,14100.0,187.0,428.0,107.0,-0.8998426785962785,0.24011160444651503,-0.005428932563137548,0.3641429635157321
-666.2642776966095,7384.0,4720.0,14116.0,187.0,427.0,-33.0,-0.9017873816755023,0.21149234795007818,-0.032079967101189565,0.37552813572379873
-666.272057056427,7356.0,4648.0,14000.0,217.0,399.0,-179.0,-0.8980186376820359,0.18149041003684188,-0.052773523374224314,0.39728920532910217
-666.2798225879669,7392.0,4828.0,14004.0,263.0,408.0,-206.0,-0.8922408459653034,0.14736231427105687,-0.07202722086590425,0.42071688886724323
-666.2876329421997,7288.0,4664.0,14096.0,13.0,350.0,-203.0,-0.8822306883392499,0.13455676825367072,-0.09585058477363498,0.4408811110357684
-666.2954134941101,7352.0,4736.0,14028.0,308.0,283.0,-250.0,-0.873095824669606,0.10183692616936707,-0.10247050698656772,0.4656530002166753
-666.3032081127167,7364.0,4660.0,14184.0,279.0,268.0,-156.0,-0.8662896740392234,0.07094608437151655,-0.10979118257705664,0.48213561369566654
-666.3110046386719,7436.0,4640.0,14140.0,224.0,294.0,-198.0,-0.8559829176869463,0.04344685239114157,-0.12097558722684973,0.5007699301481308
-666.3188245296478,7452.0,4572.0,14184.0,205.0,20.0,-151.0,-0.8497655283042382,0.028810520776769023,-0.11259476105817731,0.5141895764994098
-666.3266115188599,7476.0,4552.0,14084.0,188.0,240.0,-75.0,-0.8442271959533063,0.004812261180030244,-0.12140504185014019,0.522032661400145
-666.3343830108643,7536.0,4560.0,14124.0,142.0,210.0,-48.0,-0.8396967338390622,-0.014706423255091533,-0.1300378106382821,0.5270515004242522
-666.3421864509583,7568.0,4560.0,13968.0,154.0,185.0,-36.0,-0.8355937823087188,-0.03407168479310962,-0.1362121580844516,0.53110111961127
-666.3499672412872,7604.0,4452.0,14040.0,132.0,236.0,40.0,-0.8340565644423794,-0.05506677755224581,-0.14683201872725093,0.528921218705647
-666.3577508926392,7596.0,4488.0,14136.0,136.0,275.0,0.0,-0.8296323543130458,-0.07759268374319446,-0.16020808531580208,0.5291719016595327
-666.365553855896,7704.0,4568.0,14152.0,128.0,376.0,73.0,-0.826425838585944,-0.1051306753600256,-0.18061612785519587,0.5228247208907203
-666.3733212947845,7848.0,4692.0,14148.0,101.0,459.0,55.0,-0.8201439957597912,-0.13405468769260387,-0.2081444334148577,0.5158188264935759
-666.381100654602,8012.0,4792.0,14228.0,47.0,508.0,87.0,-0.8135326390142981,-0.1616416937052844,-0.24085557388783035,0.5040091275380664
-666.3889164924622,8088.0,4572.0,14364.0,-19.0,591.0,-22.0,-0.79943317035163,-0.18551310328801196,-0.2833355175506178,0.49619802412375325
-666.3966941833496,8032.0,4496.0,14564.0,-99.0,610.0,-48.0,-0.7828234557435372,-0.20347349716867216,-0.3302499823960762,0.48653974371585335
-666.4044754505157,8064.0,4476.0,14184.0,-92.0,656.0,-127.0,-0.7589410197299054,-0.22094457576063414,-0.3803685664138035,0.48011641994165644
-666.4122726917267,8096.0,4580.0,14308.0,3.0,735.0,-100.0,-0.7288660555869337,-0.2480565239293909,-0.42977674026027973,0.4717140950623169
-666.4200518131256,8012.0,4720.0,14008.0,102.0,726.0,-28.0,-0.6969430118880483,-0.28276807328846704,-0.47124648821009396,0.4606944782160923
-666.42782330513,7964.0,4640.0,13932.0,194.0,711.0,-21.0,-0.660794861396267,-0.3215960471397365,-0.5060337601246245,0.4515041165155846
-666.435640335083,7740.0,4352.0,13612.0,219.0,633.0,26.0,-0.6267327688261984,-0.3596748334484791,-0.5321586391465777,0.44118843303617783
-666.4434149265289,7616.0,4576.0,13812.0,221.0,584.0,41.0,-0.5934502999886269,-0.3955413597584175,-0.5533846248627492,0.43026646526238266
-666.4511904716492,7516.0,4552.0,13808.0,162.0,553.0,43.0,-0.5621298886877557,-0.4262122594759062,-0.5736471928031197,0.4162715415512268
-666.4589884281158,7360.0,4668.0,13760.0,90.0,262.0,-51.0,-0.5437250144351792,-0.4374394547264029,-0.5848776481542783,0.4134343585330708
-666.4667677879333,7296.0,4724.0,13852.0,58.0,473.0,-47.0,-0.5152939445177446,-0.45444573121303417,-0.6064302779998524,0.40024185944328194
-666.4745352268219,6948.0,4740.0,13920.0,-8.0,495.0,-86.0,-0.48601089705727124,-0.46636214790279623,-0.6317191471397156,0.38370649470936435
-666.4823043346405,7160.0,4808.0,14064.0,-102.0,422.0,-129.0,-0.46227959922492046,-0.468676380897093,-0.6577253181032481,0.3661112236133047
-666.4901065826416,7196.0,4788.0,14060.0,-140.0,407.0,-192.0,-0.43819676183494805,-0.4646073690550551,-0.6858543858056263,0.3488944711632626
-666.4978804588318,7224.0,4772.0,14084.0,-204.0,327.0,-264.0,-0.41856301862957285,-0.45057542278190466,-0.7146510833746696,0.33325758333760186
-666.5056321620941,7300.0,4712.0,14204.0,-213.0,258.0,-327.0,-0.4010518453755796,-0.42953513370945184,-0.7424845479753839,0.3215177790540293
-666.513424873352,7616.0,4772.0,14272.0,-235.0,240.0,-398.0,-0.3827898770059248,-0.4018291651179468,-0.7715811584267978,0.31091437419836937
-666.5212154388428,7688.0,4556.0,14276.0,-308.0,260.0,-466.0,-0.3629513408813006,-0.3666738918570279,-0.8037897448497566,0.29620706820947
-666.5290002822876,7884.0,4412.0,14220.0,-259.0,286.0,-487.0,-0.3381199264381585,-0.33120327422166124,-0.833892519997952,0.2839059203006703
-666.5368180274963,7948.0,4436.0,14136.0,-114.0,304.0,-481.0,-0.30700058344550724,-0.2999727147993357,-0.8584826547357814,0.2806680310577596
-666.5446026325226,7960.0,4468.0,14096.0,-29.0,299.0,-410.0,-0.27505813870916457,-0.27552299164280675,-0.8770691468280233,0.2813890777702847
-666.5523889064789,7780.0,4604.0,14036.0,108.0,260.0,-323.0,-0.24446451431738864,-0.2595894544598595,-0.8877989161605642,0.2909699311559934
-666.560170173645,7640.0,4260.0,13932.0,213.0,252.0,-212.0,-0.21460634932326791,-0.2539533608793381,-0.8920409628041065,0.3061286102404524
-666.5679540634155,7588.0,4232.0,13804.0,332.0,194.0,-42.0,-0.19091191387183556,-0.2619324440607952,-0.8872221857823281,0.3282999070145458
-666.5757324695587,7628.0,4212.0,13860.0,406.0,150.0,76.0,-0.17206241791538568,-0.278671835496695,-0.8756976850321408,0.3548099447188079
-666.5835161209106,7496.0,4240.0,13948.0,437.0,142.0,193.0,-0.15640461414265042,-0.3040912535900594,-0.8587794475141107,0.38152846118248307
-666.5912919044495,7484.0,4304.0,13948.0,377.0,193.0,328.0,-0.14269334511541182,-0.3398740789115851,-0.8392246389275738,0.3997827224389006
-666.5990746021271,7484.0,4496.0,14032.0,346.0,264.0,279.0,-0.12269575960030643,-0.37344577228953646,-0.8213140841748074,0.4134334056063595
-666.6068484783173,7480.0,4372.0,14288.0,496.0,318.0,287.0,-0.09392597156425847,-0.4101287347785127,-0.7961498757830919,0.43487665845070794
-666.6146311759949,7496.0,4604.0,14256.0,155.0,353.0,292.0,-0.07485395825224966,-0.4446843388274415,-0.7819982650934917,0.43026902877890344
-666.6223940849304,7404.0,4604.0,14220.0,67.0,394.0,179.0,-0.05203327911586969,-0.4717822062514268,-0.7745325149237877,0.41810700909554116
-666.6302030086517,7364.0,4668.0,14260.0,17.0,425.0,130.0,-0.027310737617876918,-0.4957748426513818,-0.7699009521475159,0.4008914477600059
-666.6380133628845,7316.0,4828.0,14292.0,-47.0,365.0,82.0,-0.007665548327708207,-0.5136577073624644,-0.7684455665995144,0.38156049351252763
-666.6457908153534,7168.0,4844.0,14184.0,-90.0,360.0,-64.0,0.014587824787925883,-0.5210033272656934,-0.7741320875182611,0.359252333911212
-666.6535747051239,7460.0,4832.0,14184.0,-105.0,285.0,-137.0,0.03337489783707557,-0.5205862642110906,-0.7829601761174753,0.3388944088107647
-666.6613476276398,7480.0,4636.0,14248.0,-52.0,6.0,-230.0,0.03824252971276881,-0.5050775865512728,-0.7947641605124404,0.3343412473053025
-666.669116973877,7416.0,4668.0,14120.0,-16.0,198.0,-298.0,0.05996826625458635,-0.48998476715247447,-0.8073139038150008,0.3233620195816722
-666.6769244670868,7464.0,4624.0,14176.0,59.0,177.0,-286.0,0.08303273647933301,-0.47429399399289857,-0.8165914710872837,0.3183223857703444
-666.6846978664398,7524.0,4532.0,14068.0,58.0,142.0,-328.0,0.1046544183206365,-0.45419785494259757,-0.8271165755329317,0.3140540268332638
-666.6924707889557,7456.0,4472.0,14000.0,134.0,165.0,-295.0,0.12994310916631016,-0.43596259045247826,-0.8332102374334183,0.3143439332042279
-666.7002763748169,7412.0,4404.0,14048.0,170.0,113.0,-292.0,0.15261565594940596,-0.41567820764991875,-0.8379674321570801,0.3189524602321685
-666.7080519199371,7340.0,4268.0,14008.0,165.0,73.0,-240.0,0.17061608468549624,-0.3978004698988637,-0.8408153499382214,0.32507612201313874
-666.7158191204071,7408.0,4332.0,14024.0,166.0,59.0,-151.0,0.1850113298988819,-0.3858187261022851,-0.8402903355198886,0.33290669928634653
-666.72363448143,7196.0,4372.0,14080.0,146.0,133.0,-179.0,0.20488581257918836,-0.37407174945599914,-0.8396919549879679,0.33616893192438
-666.7314140796661,7552.0,4284.0,14164.0,119.0,176.0,-197.0,0.22744080010374015,-0.36252670603973647,-0.8392057397224274,0.3355276386128014
-666.7392084598541,7528.0,4096.0,14192.0,56.0,217.0,-224.0,0.25163862718382035,-0.3511991589224215,-0.8400114610775122,0.328204048329159
-666.7470259666443,7636.0,4252.0,14264.0,255.0,206.0,-190.0,0.2799201497732234,-0.33735334214258683,-0.8335341832948823,0.3362412788089771
-666.7548353672028,7620.0,4284.0,14084.0,-79.0,247.0,-218.0,0.30190553446733376,-0.33049430294776544,-0.8358539678944011,0.3177651779730588
-666.7626276016235,7804.0,4228.0,14320.0,-127.0,14.0,-226.0,0.305530462411946,-0.31762475561078773,-0.845292421842547,0.30207014539191285
-666.7703902721405,7796.0,4132.0,14280.0,-150.0,324.0,-205.0,0.33054880786789315,-0.3148060991905181,-0.8457240550308628,0.27637913863336133
-666.7782135009766,7740.0,4208.0,14208.0,-73.0,400.0,-155.0,0.3616323516980109,-0.31485888644097404,-0.839574989620861,0.2553424379879837
-666.7860269546509,7804.0,4604.0,14280.0,2.0,411.0,-36.0,0.39244071259925395,-0.3210739864908868,-0.8269849754763011,0.24289428282670833
-666.7938425540924,7716.0,4284.0,14272.0,53.0,378.0,16.0,0.42072830809071854,-0.32820654072095257,-0.8119843633741924,0.23653657441274195
-666.8016777038574,7540.0,4296.0,14248.0,103.0,343.0,106.0,0.4456558512346957,-0.338797013635004,-0.7937715294145928,0.2377692261481707
-666.809472322464,7456.0,4216.0,14236.0,73.0,346.0,124.0,0.4690573191541375,-0.3514964840613185,-0.7746819168811434,0.2372833342184444
-666.8406491279602,7288.0,4552.0,14236.0,-77.0,269.0,-111.0,0.48711012680425186,-0.35254310308226583,-0.7683698756916513,0.21919128395871193
-666.8484382629395,7204.0,4496.0,14380.0,-120.0,245.0,-289.0,0.5051705384114952,-0.3426913346300987,-0.7686438461156515,0.19118581045417724
-666.856228351593,7192.0,4528.0,14400.0,-170.0,214.0,-394.0,0.5206597027446612,-0.3269838431573523,-0.7731146382664827,0.15584863281394118
-666.8640012741089,7188.0,4460.0,14376.0,-199.0,244.0,-445.0,0.5369904716419336,-0.3089131019809346,-0.7765124166622845,0.11507560801311807
-666.8717617988586,7172.0,4300.0,14108.0,-282.0,232.0,-538.0,0.5497308843302928,-0.2874783284260355,-0.7816718277785192,0.06435308194791879
-666.8795328140259,7132.0,4256.0,14080.0,-284.0,505.0,-634.0,0.5790968255817227,-0.2599004164744215,-0.7727193954861521,0.0018373777809251636
-666.8872888088226,7204.0,4188.0,14440.0,-353.0,229.0,-694.0,0.5852808075900081,-0.23033881795399222,-0.7749383010322841,-0.062137225586137296
-666.8950681686401,7196.0,4076.0,14372.0,-396.0,189.0,-687.0,0.5850000946819093,-0.20251100161868438,-0.7749162464732312,-0.12754996823752093
-666.9028415679932,7396.0,4048.0,14292.0,-368.0,184.0,-715.0,0.5815762738467438,-0.17040268987602747,-0.7719831569644913,-0.19176539402272105
-666.9106097221375,7272.0,4060.0,14140.0,-365.0,133.0,-748.0,0.5711457646350153,-0.13589371815710216,-0.7680833420590183,-0.25568221008973413
-666.9183871746063,7280.0,3984.0,14348.0,-375.0,106.0,-711.0,0.5566440548821462,-0.10426270298123518,-0.7608641804743123,-0.3168002269610333
-666.9262001514435,7264.0,3996.0,14244.0,-331.0,68.0,-740.0,0.536433567205677,-0.06912230296660672,-0.7531424196180968,-0.37448315179642366
-666.9339716434479,7328.0,3952.0,14208.0,-507.0,72.0,-719.0,0.5131829855428053,-0.04310398359237016,-0.7352468150093158,-0.44067833049345473
-666.941792011261,7268.0,4024.0,14156.0,-162.0,76.0,-760.0,0.487185594348167,0.0013341048817526004,-0.726669230894683,-0.48435549516312676
-666.9495558738708,7304.0,4028.0,14216.0,-49.0,33.0,-611.0,0.4628885910235585,0.03932738733484845,-0.7219714351802521,-0.5127813917152285
-666.9573802947998,7236.0,4140.0,14296.0,90.0,59.0,-538.0,0.44181113422163065,0.07938932930812594,-0.7208295141863196,-0.5281146348547033
-666.9651544094086,7284.0,4132.0,14292.0,171.0,96.0,-460.0,0.4251579568840855,0.11919900108517177,-0.721027823649126,-0.5339954937658671
-666.9729332923889,7224.0,4180.0,14212.0,209.0,91.0,-387.0,0.41045848897911896,0.15538611933523302,-0.7227092562877803,-0.5339197632780405
-666.9807469844818,7196.0,4120.0,14372.0,294.0,93.0,-375.0,0.39460820782742906,0.19368359725462567,-0.727246794644392,-0.5271462094610848
-666.9885289669037,7144.0,3872.0,14332.0,300.0,113.0,-356.0,0.3800973248136926,0.2315567984457991,-0.7304176852410967,-0.5180709197108483
-666.9962997436523,7252.0,4256.0,14136.0,300.0,106.0,-299.0,0.36710527809870164,0.2651154371490234,-0.7338147624424471,-0.5064221699322533
-667.0041210651398,7288.0,4296.0,14356.0,343.0,115.0,-344.0,0.3510941493157548,0.30287849334484157,-0.7365641456597184,-0.49241321663210297
-667.0118877887726,7228.0,4340.0,14316.0,370.0,81.0,-300.0,0.33342713952587616,0.3366302123455513,-0.7413352147950703,-0.4753194105741193
-667.0196731090546,7256.0,4404.0,14116.0,337.0,105.0,-256.0,0.3195633814265778,0.36703847384448013,-0.7441482794245514,-0.4576082846699849
-667.0274860858917,7368.0,4352.0,14332.0,293.0,91.0,-21.0,0.3152297634000785,0.3800184224203573,-0.752323900911592,-0.4361478453518239
-667.0352711677551,7444.0,4260.0,14320.0,274.0,42.0,-272.0,0.2984662765809287,0.40673442640692714,-0.7521034872652475,-0.42405817120154415
-667.0430638790131,7348.0,3840.0,14192.0,265.0,13.0,-249.0,0.2806438449390167,0.43020124963809603,-0.7523188082913688,-0.4125316082419875
-667.0508527755737,7392.0,4204.0,14056.0,290.0,19.0,-279.0,0.26088324792791107,0.4559832365056642,-0.751323773874228,-0.3994143284708142
-667.0586280822754,7624.0,4244.0,14140.0,346.0,99.0,-480.0,0.23663256012481146,0.4980688064930672,-0.7409866203125652,-0.38323794697956415
-667.0664012432098,7508.0,4396.0,14188.0,415.0,120.0,-212.0,0.2191502515281553,0.5238655341070731,-0.7424999543774549,-0.35529127090224805
-667.0742065906525,7524.0,4596.0,14260.0,436.0,165.0,-186.0,0.20402411104463258,0.5488164910577269,-0.7436314988502964,-0.3227798246067943
-667.081976890564,7380.0,4348.0,14280.0,401.0,99.0,-225.0,0.18482211879063665,0.5728397371546389,-0.7417515032563451,-0.2958042044314048
-667.0897450447083,7268.0,4100.0,14204.0,344.0,62.0,-200.0,0.16644154807929318,0.5925479046118469,-0.7391681168560483,-0.2735227355021167
-667.097558259964,7244.0,4360.0,14236.0,297.0,-42.0,-260.0,0.14214704851110652,0.6122457356969893,-0.7329753317572048,-0.2601855852191833
-667.1053349971771,6912.0,4376.0,14316.0,308.0,-55.0,-302.0,0.11529071032281824,0.6336650396260899,-0.7239876332791979,-0.247019384922948
-667.1130969524384,7200.0,4464.0,14352.0,308.0,-52.0,-342.0,0.08758392553265983,0.6567037528558248,-0.7116522016251442,-0.23371003593224293
-667.1208827495575,7196.0,4460.0,14420.0,294.0,24.0,-391.0,0.06424328834849274,0.6830925324034788,-0.6944186120261588,-0.2168874900690171
-667.1286540031433,7292.0,4408.0,14144.0,285.0,39.0,-395.0,0.04215070900946643,0.7087171259181613,-0.6754305087925009,-0.19934136789087203
-667.1364321708679,7228.0,4280.0,14460.0,306.0,253.0,-445.0,0.03040116192962306,0.7394726761359378,-0.651414984548659,-0.16707617576169728
-667.1442742347717,7260.0,4080.0,14420.0,258.0,44.0,-503.0,0.008947866075101719,0.7684552536799442,-0.6218344399862386,-0.15072620220584007
-667.1520445346832,7272.0,3920.0,14408.0,325.0,60.0,-591.0,-0.01730137414877869,0.8001793809573255,-0.5854012660063508,-0.12930188900969933
-667.1598188877106,7336.0,4052.0,14520.0,362.0,146.0,-551.0,-0.04123779048360362,0.8279993561809855,-0.550269124577431,-0.09960121152220813
-667.1676344871521,7448.0,4280.0,14396.0,450.0,349.0,-526.0,-0.06139901849263478,0.8527305776851133,-0.5162418359407863,-0.05074533706105762
-667.1754224300385,7576.0,4520.0,14300.0,492.0,541.0,-360.0,-0.07501693609210311,0.8665244105663514,-0.4932775586907319,0.013607177668499488
-667.1832094192505,7480.0,4620.0,14096.0,539.0,597.0,-211.0,-0.08956592859612467,0.8690863095501515,-0.47932330848246385,0.08316307433372605
-667.1910166740417,7252.0,4620.0,14328.0,602.0,553.0,-141.0,-0.11075909155838287,0.8640028794588643,-0.46735001792963704,0.15104770327655034
-667.1988353729248,7028.0,4496.0,14124.0,627.0,376.0,-81.0,-0.1413276271207027,0.8545261576450597,-0.4556599336022716,0.2053912671521739
-667.2066044807434,6696.0,4316.0,13984.0,640.0,228.0,-156.0,-0.17685820010504258,0.8471764698979449,-0.43454217990534266,0.24937181033543876
-667.2143878936768,6716.0,4300.0,13912.0,638.0,61.0,-190.0,-0.21720893033662458,0.8417667415754712,-0.40683227495983687,0.2806003089991831
-667.2221946716309,6692.0,4308.0,14024.0,657.0,-18.0,-303.0,-0.2581828796050484,0.8388271561405619,-0.3673761366856143,0.3078073699473995
-667.2299890518188,6824.0,4316.0,13940.0,714.0,-134.0,-366.0,-0.3041621133339269,0.8359515098881254,-0.3175417374135786,0.32838655107718473
-667.2377750873566,6828.0,4224.0,14080.0,745.0,-8.0,-385.0,-0.3467918161761251,0.8248396435306324,-0.2671290985978871,0.3577946944489312
-667.2455751895905,6856.0,4240.0,14156.0,1009.0,-450.0,-284.0,-0.4190077248690805,0.8109279147314811,-0.20051195553455176,0.3558418178025156
-667.2533884048462,6996.0,4212.0,14288.0,649.0,-764.0,-695.0,-0.45419177441947856,0.8184157180341058,-0.10258585045052046,0.33672197405537413
-667.2611722946167,6940.0,4232.0,14208.0,615.0,-568.0,-881.0,-0.4746882553540501,0.8139948725777134,0.0009870173518472523,0.3347871464720042
-667.2689468860626,6976.0,4320.0,14564.0,618.0,-641.0,-911.0,-0.48894699108202067,0.8020336496099674,0.1097002361167278,0.32502111162367353
-667.2767674922943,6932.0,4456.0,14260.0,695.0,-585.0,-956.0,-0.5016091642135826,0.7746247438271687,0.21989407912088518,0.31621408348652374
-667.2845480442047,6956.0,4480.0,14208.0,743.0,-654.0,-1023.0,-0.5072060771324717,0.734777494543844,0.33564983991192404,0.30030520108526293
-667.2923219203949,7068.0,4524.0,14136.0,764.0,-624.0,-1047.0,-0.5065564587571626,0.6812013959835507,0.44695463793437135,0.28212898438554634
-667.3001244068146,6956.0,4464.0,14240.0,519.0,-692.0,-1140.0,-0.47868582826728684,0.625874422642911,0.5538103374240373,0.26913787369996495
-667.3079092502594,7040.0,4348.0,14196.0,856.0,-600.0,-1161.0,-0.4649336393736181,0.5429808857654068,0.6563253042383717,0.2413411769438143
-667.315675497055,6932.0,4348.0,14284.0,943.0,-619.0,-1150.0,-0.4456280925556727,0.44740460229683326,0.7484274898449259,0.20273385857628354
-667.3234810829163,6844.0,4148.0,14324.0,1120.0,-645.0,-1054.0,-0.4241863564766423,0.3427346089247745,0.825762922698141,0.14392539150989492
-667.3312592506409,6852.0,4120.0,14188.0,1303.0,-592.0,-1035.0,-0.4028183717795352,0.22463193553324975,0.884533338992678,0.06984715531740857
-667.3390336036682,6796.0,3920.0,14292.0,1472.0,-257.0,-923.0,-0.40160561622901025,0.10195621249123338,0.9099761436610622,-0.01616408721522213
-667.3468406200409,6776.0,4288.0,14276.0,1660.0,-333.0,-634.0,-0.3861350278297578,-0.007003132827308079,0.9136085443992985,-0.12716180249630904
-667.3546214103699,6940.0,4340.0,14356.0,1901.0,-302.0,-494.0,-0.361072043997206,-0.11217186612803229,0.8890687470333939,-0.25807211112692097
-667.36239361763,6904.0,4288.0,14524.0,2068.0,-231.0,76.0,-0.31609529270311965,-0.17382659025166708,0.8367503864234578,-0.4119670778989535
-667.3701968193054,7124.0,4312.0,14172.0,2201.0,-142.0,307.0,-0.25657223963022097,-0.21326680478318089,0.7520361023884917,-0.5684449459121184
-667.3779780864716,7176.0,4244.0,14184.0,2317.0,-147.0,991.0,-0.15107382669861233,-0.2025580345540167,0.6432846951089068,-0.7227252192658649
-667.3857660293579,7308.0,4204.0,14036.0,2344.0,-37.0,1355.0,-0.02154961187654518,-0.15545929593529292,0.5057895063028781,-0.8482599818741682
-667.3935635089874,7284.0,4172.0,14284.0,2384.0,86.0,1621.0,0.12312227021181767,-0.07956904906814007,0.3403028281157255,-0.9288184204594131
-667.4013404846191,7332.0,4228.0,13904.0,2284.0,195.0,1812.0,0.27135582933083063,0.014067155266539136,0.16431531937906796,-0.9482450130890429
-667.4091255664825,7352.0,4464.0,14168.0,2240.0,231.0,1851.0,0.40553957502148336,0.10914070559866211,-0.017572094367253994,-0.9073682719669942
-667.4169306755066,7588.0,4884.0,13828.0,2107.0,315.0,1971.0,0.5254625607421766,0.19910037501513336,-0.18637194086256847,-0.8059240892207075
-667.4247481822968,7524.0,4880.0,14152.0,2097.0,338.0,1920.0,0.6108719766094852,0.2789450631903665,-0.34132349794241595,-0.6576650740820107
-667.4325108528137,7300.0,5356.0,13984.0,2038.0,392.0,1854.0,0.6602853604085978,0.34462300563661524,-0.4688896988937809,-0.47476381189742467
-667.440336227417,7460.0,5664.0,14004.0,1956.0,418.0,1736.0,0.6728867766445794,0.39310890241915564,-0.563154618270872,-0.2748556940939431
-667.4481205940247,7420.0,5656.0,13972.0,1816.0,409.0,1541.0,0.6534058482869473,0.4244008742320534,-0.6218151875251922,-0.07931310067380884
-667.4559078216553,7452.0,6144.0,13588.0,1731.0,370.0,1363.0,0.6074884331187564,0.44330053350665505,-0.6508469018178832,0.10411892725962858
-667.4636747837067,7628.0,6272.0,13268.0,1679.0,484.0,1161.0,0.5504390858384469,0.4543816940928673,-0.644051869077234,0.2752295020392112
-667.4714906215668,7652.0,6444.0,13200.0,1557.0,60.0,960.0,0.46324535483777696,0.46782526541205316,-0.6337139709092401,0.4061402040401896
-667.4792680740356,7916.0,6460.0,13296.0,1411.0,-149.0,691.0,0.36951531242173113,0.4873231010389873,-0.6120622688144198,0.501352578704209
-667.4870553016663,8124.0,6356.0,13296.0,1164.0,-317.0,406.0,0.28366208106259944,0.5138754703552496,-0.5849239265997777,0.5597605066682572
-667.494859457016,8444.0,6324.0,13116.0,919.0,-441.0,122.0,0.2132113918697864,0.5497346370374186,-0.5540959449877514,0.5876311895793286
-667.502637386322,8636.0,6344.0,13224.0,734.0,-531.0,-138.0,0.15897393447436015,0.5953895443690506,-0.5179573671786374,0.5932611097983168
-667.5104057788849,8644.0,6448.0,13024.0,601.0,-632.0,-440.0,0.12159992095589173,0.6539579186851818,-0.4709370946021039,0.5794572915583988
-667.5182037353516,8676.0,6456.0,13188.0,415.0,-759.0,-706.0,0.10201980615060412,0.7223259252982236,-0.4156495495181773,0.5432059174754953
-667.5259544849396,8668.0,6548.0,13448.0,290.0,-982.0,-970.0,0.09347206776987721,0.8005891206763626,-0.34679686150199174,0.4796373309635527
-667.5337302684784,8532.0,6528.0,13360.0,132.0,-1157.0,-1036.0,0.09182377976833853,0.8733919430047731,-0.2757210206174302,0.39081047344343994
-667.5415768623352,8592.0,6424.0,13640.0,148.0,-1376.0,-1413.0,0.09429618415743678,0.9415731670128679,-0.17140710053291314,0.2741674792925017
-667.5493876934052,8460.0,6072.0,13660.0,299.0,-1578.0,-1576.0,0.08231114787095839,0.9865163400157996,-0.04679629414757532,0.13349341808512474
-667.5571615695953,8472.0,5816.0,13612.0,468.0,-1776.0,-1644.0,0.0527499047048741,0.9945271145066076,0.08551837021538208,-0.028633449329275123
-667.56494307518,8560.0,5736.0,13592.0,597.0,-1813.0,-1765.0,0.009827301863845382,0.9552854010699646,0.2232321278425304,-0.1936508294316598
-667.5727593898773,8584.0,5708.0,13504.0,664.0,-1757.0,-1768.0,-0.04016792146040406,0.8699269261224372,0.34919183307883267,-0.345946159111159
-667.5805354118347,8436.0,5688.0,13208.0,677.0,-1625.0,-1743.0,-0.09253908701430583,0.7480539729544474,0.4562595061445203,-0.47294717884176435
-667.5883166790009,8416.0,5720.0,12972.0,659.0,-1498.0,-1667.0,-0.14182595871757714,0.6020777847295874,0.5389115175581953,-0.571806011521456
-667.5961201190948,8024.0,5700.0,12668.0,662.0,-1302.0,-1553.0,-0.18965982677791055,0.44809602396779147,0.5934000808347497,-0.6411828502667096
-667.6039021015167,7900.0,5768.0,12624.0,554.0,-1159.0,-1427.0,-0.22803096557304703,0.29594278032307686,0.6285911736058539,-0.6821238054629716
-667.6116795539856,7772.0,5836.0,12648.0,758.0,-1051.0,-1379.0,-0.2684784529175363,0.14062189271346934,0.6313805664926397,-0.713795057326766
-667.6194908618927,7932.0,5860.0,12544.0,446.0,-1080.0,-1321.0,-0.2933623891209061,-0.009900336154271164,0.6375128815515388,-0.7123326595412849
-667.6272721290588,7932.0,5876.0,12588.0,366.0,-1136.0,-1316.0,-0.30806773376208657,-0.16129309830153066,0.6350003424793439,-0.6898212615642556
-667.6350586414337,7976.0,6016.0,12564.0,253.0,-1325.0,-1315.0,-0.3062345767837844,-0.3165741475087341,0.6283157929504053,-0.6412647327276609
-667.6428799629211,7960.0,6008.0,12988.0,173.0,-1517.0,-1225.0,-0.28283162967123077,-0.46656173141851137,0.6162804720813025,-0.5679126691354256
-667.6506774425507,7968.0,5900.0,13004.0,47.0,-1734.0,-1345.0,-0.24987157652742162,-0.6148532429781165,0.5911372336718852,-0.4583409820316585
-667.658454656601,8192.0,6188.0,12920.0,-59.0,-1899.0,-1429.0,-0.20789019049019133,-0.7473504372526548,0.5465167694002717,-0.3155446298077464
-667.6662406921387,8308.0,6308.0,12852.0,-159.0,-2302.0,-1528.0,-0.14640766825353357,-0.8561333668456007,0.47917234778256484,-0.12646862840532572
-667.6740448474884,8356.0,6364.0,12832.0,-337.0,-2161.0,-1667.0,-0.09692752067007081,-0.919293140382081,0.37525929293521154,0.06845174102219394
-667.6818332672119,8448.0,6492.0,12744.0,-471.0,-2226.0,-1817.0,-0.04944134497396269,-0.931895385381056,0.23790745687524087,0.2693076049349779
-667.6896090507507,8564.0,6660.0,12684.0,-636.0,-2301.0,-1937.0,-0.007639228654070968,-0.8839995300012429,0.07275200534916003,0.4617289452274229
-667.6974654197693,8672.0,6800.0,12440.0,-833.0,-2372.0,-1832.0,0.016350516338508918,-0.7715125964100357,-0.09707807927855217,0.6285513668107775
-667.7052454948425,8448.0,7144.0,12312.0,-987.0,-2492.0,-2295.0,0.052230345348221796,-0.5893661358734522,-0.29561524218786567,0.7500207847097375
-667.7130405902863,8756.0,7104.0,12540.0,-1171.0,-2572.0,-2470.0,0.08298399357705846,-0.3444763102823791,-0.4856293787824104,0.7991331772161953
-667.7208201885223,8824.0,6892.0,12056.0,-1296.0,-2515.0,-2616.0,0.11365989209467939,-0.06391280773278966,-0.6377250431506273,0.7591464623346853
-667.7285907268524,8500.0,6640.0,12468.0,-1377.0,-2530.0,-2567.0,0.12823355220987442,0.22086574856681362,-0.7281145822024193,0.6361003320089174
-667.7363786697388,8932.0,6560.0,12416.0,-1390.0,-2501.0,-2955.0,0.15081153031489966,0.500734474484971,-0.7305723160220055,0.43907284070935293
-667.7442054748535,8880.0,6344.0,12352.0,-1404.0,-2592.0,-2980.0,0.15137143144535828,0.7246676243769945,-0.6462949017462715,0.1850578933705991
-667.7519931793213,8880.0,6116.0,12512.0,-1431.0,-2657.0,-3314.0,0.13560235874213533,0.8713271961940614,-0.4608440632660479,-0.10011826421090007
-667.759782075882,8792.0,6000.0,12784.0,-1493.0,-2788.0,-3134.0,0.10223577044511747,0.8904663772804376,-0.2259584090786497,-0.38152362383107075
-667.7675518989563,8764.0,5980.0,12328.0,-1536.0,-2754.0,-3132.0,0.05879129947049542,0.7894614626818052,0.04107670646157744,-0.609595674388479
-667.7753276824951,8772.0,5780.0,12112.0,-1282.0,-2813.0,-3097.0,-0.007039617739794013,0.5810886221284027,0.28796623973993046,-0.7611582632968238
-667.7830872535706,8660.0,5740.0,12096.0,-1480.0,-3049.0,-2931.0,-0.04662270462969249,0.2846474411472947,0.499913102853553,-0.8166327493167554
-667.7908635139465,8540.0,5584.0,12068.0,-1421.0,-3188.0,-2875.0,-0.07178619047017244,-0.058029298853719165,0.6376420200891784,-0.7647823203689517
-667.7986526489258,8520.0,5472.0,11980.0,-1327.0,-3509.0,-2851.0,-0.06806381006618768,-0.4094428312751745,0.6785115540207883,-0.6060907165902953
-667.8064820766449,8776.0,5580.0,11968.0,-1245.0,-3303.0,-2740.0,-0.05773854696975955,-0.6885770580962192,0.6204653757991658,-0.3708781642153888
-667.8142719268799,8456.0,5448.0,11680.0,-1168.0,-3454.0,-2783.0,-0.02881571241008538,-0.8775271606962951,0.4719490441187164,-0.07987388004866018
-667.8221216201782,8768.0,5416.0,11640.0,-1122.0,-3439.0,-2814.0,0.0067204689528592414,-0.9420328679802558,0.253336829518017,0.21988488295402864
-667.8299226760864,9456.0,5652.0,11488.0,-1148.0,-3426.0,-2748.0,0.03791586997718744,-0.8717697718393468,0.003086990555783387,0.4884366102170832
-667.8377797603607,9700.0,5724.0,11788.0,-1275.0,-3260.0,-3071.0,0.06733075906841578,-0.6834872128389385,-0.27398494706027376,0.6732340213872953
-667.8456737995148,9364.0,6512.0,11888.0,-1303.0,-3185.0,-2893.0,0.0776618442049167,-0.4046700670364801,-0.5044042126111971,0.7588064081829174
-667.8534891605377,9328.0,6820.0,12188.0,-1375.0,-3057.0,-3041.0,0.08923668264753794,-0.07209905010346034,-0.6729492531803443,0.7307378764565706
-667.8612558841705,9200.0,6768.0,12224.0,-1422.0,-2880.0,-3096.0,0.10125157711653052,0.2632164166313076,-0.7505860228819762,0.5975666141957787
-667.8690543174744,9040.0,6664.0,12500.0,-1415.0,-2748.0,-3030.0,0.10462971935162647,0.5543653160659093,-0.7287153674800646,0.3882082319708568
-667.8768434524536,9280.0,6688.0,12444.0,-1467.0,-2511.0,-2918.0,0.10808368573460149,0.7638006073199967,-0.6211690217510825,0.13811442919706574
-667.8846228122711,9312.0,6472.0,12372.0,-1529.0,-2239.0,-2893.0,0.11678261920079769,0.8819102169655839,-0.4420944179931247,-0.11466784485477392
-667.8923916816711,9324.0,6208.0,12232.0,-1571.0,-1998.0,-2938.0,0.12432833724757793,0.908456248825683,-0.20887599516744282,-0.34003018567420085
-667.9001615047455,9324.0,6188.0,12092.0,-1692.0,-1815.0,-2993.0,0.1293909982094457,0.8435227667592466,0.05585493480012168,-0.518273612872258
-667.9079267978668,9124.0,6280.0,12344.0,-1824.0,-1830.0,-3000.0,0.12943665293674117,0.685674659481363,0.3200081237086519,-0.6408519446659413
-667.9157018661499,8720.0,6276.0,12504.0,-1973.0,-1739.0,-3167.0,0.11196390407124458,0.44944755540317605,0.564888016466724,-0.682907393414015
-667.9235055446625,8880.0,6292.0,12344.0,-2175.0,-1627.0,-3082.0,0.0882956996129993,0.16865785949803266,0.752590113022436,-0.6303701433604463
-667.9312822818756,8964.0,6552.0,12556.0,-2454.0,-1467.0,-3612.0,0.020427578223438443,-0.15616358798116076,0.8623457545775184,-0.48120208582144125
-667.9390788078308,9148.0,6668.0,12632.0,-2707.0,-1158.0,-3808.0,-0.08234261871728026,-0.4575642554302023,0.8500544621421978,-0.24751173040388247
-667.9468886852264,9176.0,6780.0,12736.0,-2867.0,-1041.0,-3955.0,-0.18804257624041282,-0.6901868091637514,0.6980257131756519,0.032284078472994
-667.9546768665314,9420.0,7028.0,12960.0,-2929.0,-853.0,-3975.0,-0.2761588047760183,-0.8079811682517714,0.42535903198129105,0.29995406349493414
-667.9624540805817,9244.0,6972.0,13180.0,-2987.0,-641.0,-3978.0,-0.3288319703420333,-0.794074145011721,0.07514754051657098,0.505636860463308
-667.9702327251434,9072.0,6868.0,13212.0,-3116.0,-521.0,-4085.0,-0.32928355568564066,-0.6457921102992253,-0.30134860544094266,0.61944645307653
-667.9780337810516,8600.0,6556.0,12892.0,-3110.0,-747.0,-3699.0,-0.298270705643963,-0.38504091766462434,-0.6037991696147534,0.6310345796001757
-667.9858253002167,8464.0,6260.0,12544.0,-2988.0,-1127.0,-3543.0,-0.24276817455213687,-0.053897959927988785,-0.7921587237505553,0.557353729444879
-667.9936001300812,8540.0,5764.0,12312.0,-2959.0,-1191.0,-3458.0,-0.15799615315684337,0.28297390210871654,-0.8576153322219169,0.3993230875505408
-668.0014135837555,8248.0,5260.0,12084.0,-2839.0,-1516.0,-3297.0,-0.0801614224063609,0.5769097022830602,-0.7925073819313354,0.18077995285373966
-668.009191274643,8540.0,5352.0,12016.0,-2678.0,-1604.0,-3275.0,-0.004214492059143646,0.7882859195827207,-0.6125583916352817,-0.05796347023345486
-668.0169768333435,8648.0,4964.0,11532.0,-2529.0,-1785.0,-3246.0,0.054003155752061126,0.8881064928925078,-0.34987669539062355,-0.2931498157487487
-668.0247805118561,8800.0,4960.0,11624.0,-2288.0,-1983.0,-3133.0,0.08477491792125656,0.8620110970615502,-0.05401991218762327,-0.49682183015788317
-668.0325589179993,9024.0,5112.0,11624.0,-2090.0,-1925.0,-3080.0,0.09338380650048693,0.730232794128888,0.2386546640987086,-0.6333115207906211
-668.0403482913971,8988.0,4924.0,12284.0,-1924.0,-2005.0,-2845.0,0.09498182202890637,0.5142783618571172,0.48179217679090536,-0.7031162908031005
-668.0481684207916,8944.0,5076.0,12468.0,-1880.0,-2016.0,-2872.0,0.08302531958135076,0.24002601061007864,0.6700472527303318,-0.6975177342889282
-668.0559391975403,8620.0,5288.0,13124.0,-2163.0,-1846.0,-2855.0,0.05892199337276477,-0.051973882141021964,0.8000774456674765,-0.5947293461788961
-668.0637097358704,8532.0,5620.0,13056.0,-2409.0,-1782.0,-2781.0,0.02639919818146374,-0.33071587464744306,0.8507640304104107,-0.4075912868933611
-668.071485042572,8684.0,6104.0,12840.0,-2509.0,-1172.0,-2669.0,-0.051203964742445957,-0.5464580342918389,0.8155193401141736,-0.18354829514952387
-668.0792536735535,8916.0,6648.0,13188.0,-2662.0,-672.0,-2579.0,-0.1631449208909918,-0.6924534605859616,0.7011981033307287,0.047044230202932726
-668.0870225429535,9352.0,6956.0,13384.0,-2864.0,-341.0,-2517.0,-0.2894064743224709,-0.7628455114251506,0.5141858150437016,0.26443064483259404
-668.0948309898376,8968.0,6992.0,13260.0,-3048.0,-127.0,-2501.0,-0.4056618449277024,-0.7517907966188943,0.26520576304311977,0.4471185177754301
-668.1026022434235,8996.0,6824.0,12992.0,-3277.0,24.0,-2689.0,-0.48433055401669023,-0.65541780384175,-0.03749766169603454,0.5783124953003117
-668.1103708744049,8796.0,6844.0,13032.0,-3113.0,-111.0,-2564.0,-0.503178517107932,-0.4807753149047145,-0.3174513426383845,0.6441204247316042
-668.1181709766388,8564.0,6692.0,12636.0,-3509.0,-17.0,-2934.0,-0.45139440534986497,-0.22690769487483758,-0.5916114181452207,0.628292860651488
-668.1259498596191,8424.0,6400.0,12448.0,-3693.0,-611.0,-3109.0,-0.354946934381234,0.10374203352016562,-0.7653940252777014,0.5267088857458757
-668.1337361335754,8684.0,6164.0,12308.0,-3806.0,-803.0,-3218.0,-0.20697580236861313,0.4334025023077434,-0.81105756218516,0.33392951209726973
-668.141548871994,9160.0,5956.0,12280.0,-3943.0,-649.0,-3275.0,-0.007521396200559482,0.6886485251917105,-0.7204591856526255,0.08151809099354586
-668.149359703064,9512.0,5768.0,12340.0,-4134.0,-543.0,-3341.0,0.20905736739822828,0.8204898468733702,-0.4972411969330255,-0.1893214736548595
-668.157145023346,9652.0,5424.0,12492.0,-4199.0,-330.0,-3255.0,0.4006267691396317,0.7977401315356742,-0.18204244544892398,-0.4122734801574815
-668.1649215221405,9428.0,5224.0,12404.0,-4220.0,-173.0,-3082.0,0.52848160571585,0.6302952825213525,0.16226269092596368,-0.5450741861295493
-668.1726925373077,9176.0,5236.0,12356.0,-4222.0,120.0,-2905.0,0.5667956104783922,0.36512304737768114,0.4823378935679791,-0.5592656369244111
-668.1804752349854,8708.0,5244.0,12252.0,-4261.0,321.0,-2654.0,0.5123909198926193,0.05327695097572419,0.7240126069309735,-0.45871871196991865
-668.1882741451263,9204.0,5344.0,12416.0,-4355.0,675.0,-2491.0,0.3569844569857912,-0.2487363429253776,0.8599136570265944,-0.26690978183239633
-668.1960473060608,8872.0,5324.0,12700.0,-4496.0,790.0,-2172.0,0.13673585546329597,-0.48807966005899395,0.8619227407111022,-0.013066763657460434
-668.2038261890411,8996.0,5192.0,12980.0,-4729.0,1641.0,-1808.0,-0.1726006812316428,-0.6155033343139384,0.734469710470712,0.22785718046150216
-668.2116284370422,8988.0,5532.0,13408.0,-5190.0,2116.0,-1813.0,-0.4901262829200398,-0.6185948510824892,0.44636599992319553,0.4217511483301306
-668.2193970680237,8508.0,5544.0,13800.0,-5737.0,3034.0,-2030.0,-0.7253258121036548,-0.4848348192132482,-0.003675250781711308,0.488696385198747
-668.2271716594696,8256.0,5868.0,13228.0,-6117.0,3581.0,-1806.0,-0.7637477401934701,-0.2103645624946473,-0.4784195114206041,0.3788811308152912
-668.2349727153778,8172.0,6272.0,12748.0,-6341.0,3989.0,-1664.0,-0.5472695170638846,0.12458685968053128,-0.8179687922490216,0.12610013875600218
-668.242751121521,7688.0,6220.0,11900.0,-6389.0,4413.0,-1465.0,-0.1206745943587647,0.3999210863006105,-0.8916331341250195,-0.1746170700100144
-668.2505493164062,6676.0,5440.0,13492.0,-6250.0,5203.0,-1495.0,0.3889821486326872,0.536300642804777,-0.6478364866754682,-0.37600850403184627
-668.2583632469177,5432.0,4012.0,15336.0,-5243.0,5601.0,-932.0,0.7632006089206086,0.49302965009112354,-0.20051696017521872,-0.3663871495512997
-668.266170501709,4560.0,1352.0,18904.0,-3325.0,5321.0,1592.0,0.914519948094266,0.36012559757498547,0.16698625647476995,-0.07796414982197278
-668.2739560604095,1612.0,-872.0,23656.0,-617.0,4359.0,4037.0,0.7962513786763681,0.3539676717313325,0.34772242620127436,0.34609210283070896
-668.2817301750183,284.0,-3432.0,27512.0,2264.0,2697.0,6212.0,0.38774320090246317,0.5247069967206796,0.34924259373228217,0.672582625756438
-668.2895500659943,2504.0,-5400.0,31176.0,5027.0,1220.0,8381.0,-0.28187262188234086,0.6662736248487898,0.22879431739923262,0.6513681310824534
-668.2973296642303,7068.0,-5152.0,28992.0,6184.0,-58.0,9097.0,-0.8350392354432444,0.5041863344382649,0.03801315666655065,0.21693458773628516
-668.3051183223724,12524.0,-2560.0,22996.0,4370.0,1544.0,8030.0,-0.9208425836080647,0.14217138746893526,-0.2682343389026376,-0.2447173312878496
-668.3129286766052,16176.0,2624.0,17008.0,1999.0,4288.0,6795.0,-0.5675431243692084,-0.06978974312372563,-0.5995378361524969,-0.5599808717782632
-668.3207371234894,15360.0,7312.0,16032.0,-469.0,4706.0,6381.0,-0.010035458709276943,-0.1237283414276363,-0.6334043757821157,-0.7637993740741931
-668.3285126686096,11660.0,9716.0,14896.0,-1551.0,4914.0,5534.0,0.5123597837730448,-0.08411404822673416,-0.39589635616175506,-0.757415575520331
-668.3363003730774,9320.0,11580.0,12856.0,-2239.0,5169.0,4475.0,0.8217021746324084,0.0026224033568998622,0.013482334231175013,-0.5697516001457861
-668.3441007137299,8408.0,12408.0,11824.0,-2360.0,6511.0,3048.0,0.8063194952627234,0.1342217799098313,0.4979995373732186,-0.2895338428114473
-668.351883649826,7828.0,11824.0,10792.0,-2391.0,7527.0,1083.0,0.4388515826325624,0.16690066143700122,0.8827525226685285,-0.017362066557171447
-668.3596510887146,6964.0,10764.0,9960.0,-2517.0,9041.0,-1203.0,-0.17190840646137392,-0.00654702064727594,0.964107339031106,0.202241625623696
-668.3674585819244,5172.0,9512.0,10000.0,-2187.0,8421.0,-3501.0,-0.6345629454426804,-0.3226858464422036,0.6167485748177619,0.3358941920266674
-668.3752267360687,2112.0,7716.0,11036.0,-1408.0,6901.0,-4957.0,-0.719732495238259,-0.5705642773566416,0.042725288574269805,0.3932125257654547
-668.3830201625824,620.0,4420.0,14284.0,-333.0,4748.0,-5147.0,-0.49258705178288525,-0.62408891589284,-0.446390595295921,0.41061716708742
-668.3908169269562,792.0,2096.0,16064.0,873.0,2537.0,-4086.0,-0.1837680743747954,-0.5457017184626043,-0.6868399680620811,0.4434972238695747
-668.3985893726349,2228.0,372.0,15732.0,1761.0,575.0,-2822.0,0.04203961524289049,-0.4095738376773379,-0.7312011748928001,0.5438996084535049
-668.4063804149628,4708.0,-476.0,15080.0,2125.0,333.0,-2122.0,0.23211093312496728,-0.2727662895755839,-0.6815947942287697,0.6380843223863653
-668.4141821861267,7084.0,-128.0,14880.0,1853.0,868.0,-1287.0,0.39101592972408694,-0.20245946735337916,-0.5786161922287818,0.6865275004482045
-668.4219539165497,8564.0,364.0,15520.0,1421.0,1348.0,-497.0,0.5062694753757011,-0.20633244258096659,-0.4491891711477233,0.7066450523176439
-668.4297249317169,9588.0,1980.0,16040.0,986.0,2761.0,881.0,0.5584553741359279,-0.3549745317944875,-0.241905711217882,0.7096494231352237
-668.4375288486481,9404.0,2416.0,16120.0,904.0,3761.0,2018.0,0.5055738815568013,-0.5479078022419568,0.05604947869255034,0.6641163651561912
-668.4453275203705,7520.0,2144.0,16120.0,895.0,4199.0,2496.0,0.3516097981422515,-0.6784973805408994,0.3785666169023114,0.5222060618344465
-668.4530801773071,6176.0,2192.0,15264.0,936.0,4399.0,2712.0,0.12552336832862915,-0.6914395024302425,0.6516599800027902,0.28547253623635455
-668.4608545303345,4984.0,2764.0,15084.0,808.0,4365.0,2385.0,-0.12216308268875042,-0.6001753582526127,0.7904818924492071,0.002024421954499532
-668.4686450958252,3512.0,3188.0,15076.0,618.0,4942.0,1985.0,-0.3905407293036941,-0.42627725816369416,0.7624925936393653,-0.29046631917056354
-668.4764170646667,2480.0,3556.0,15744.0,434.0,4835.0,1567.0,-0.599765073663464,-0.19563771778321734,0.5891284732396928,-0.5049112613245047
-668.4841961860657,1328.0,3720.0,15876.0,301.0,4353.0,1048.0,-0.7191459470951531,0.031993262472121246,0.3405128380726489,-0.6048607650035793
-668.4919669628143,1056.0,3936.0,16276.0,307.0,3447.0,534.0,-0.7596237470220821,0.20128326049589487,0.10157132716386363,-0.6100328495273387
-668.4997494220734,1840.0,3876.0,15704.0,478.0,2405.0,179.0,-0.7625144203203329,0.29230607690098726,-0.0846523983202652,-0.5709315963133657
-668.5075216293335,2756.0,3896.0,15268.0,693.0,1568.0,-207.0,-0.770298718610637,0.3219617445447637,-0.21578489309375565,-0.5063767363031396
-668.5153014659882,3504.0,3800.0,14392.0,1042.0,1389.0,-358.0,-0.7800413259441702,0.3160745741622696,-0.3410215456038095,-0.4187322519479358
-668.523074388504,4708.0,3780.0,14140.0,1208.0,1374.0,-275.0,-0.7726038194653686,0.28834775332100837,-0.4650073404697284,-0.322035843675081
-668.5308570861816,4808.0,3540.0,13912.0,1345.0,1292.0,-167.0,-0.7488680569322894,0.2374853682816151,-0.5779705308310987,-0.2207881306805715
-668.5386333465576,5072.0,3408.0,13780.0,1356.0,1350.0,-35.0,-0.6999403017895571,0.17415013183964734,-0.6820852673508411,-0.12047818712907786
-668.5464322566986,4896.0,3204.0,13840.0,1520.0,1525.0,132.0,-0.6200540992260716,0.08787455705977588,-0.779484991732402,-0.014632973670114116
-668.5542280673981,4456.0,3156.0,14368.0,1173.0,1704.0,271.0,-0.5045423140594302,0.007969531481534326,-0.861082074431906,0.06253959532620869
-668.5620446205139,4020.0,2932.0,14932.0,1154.0,1908.0,222.0,-0.3564480607251476,-0.06866824653354175,-0.9214812238322188,0.13820928350862097
-668.569819688797,3712.0,2740.0,15496.0,1104.0,1949.0,127.0,-0.19099795804089828,-0.13420438367410578,-0.9499863270960974,0.20744864848276862
-668.5775899887085,3256.0,2508.0,15940.0,1117.0,1729.0,-139.0,-0.031520382503963724,-0.16987797409759584,-0.9450045365765997,0.27769473393088745
-668.5853934288025,3216.0,2328.0,16400.0,1153.0,1361.0,-341.0,0.10481823355740601,-0.17571251876745217,-0.91442495372475,0.34923523972788256
-668.59317278862,3560.0,2940.0,16152.0,1178.0,1087.0,-605.0,0.22562226124136228,-0.14811899742732426,-0.8681667358919656,0.4164635356476588
-668.6009249687195,4212.0,3252.0,15744.0,1123.0,1223.0,-722.0,0.35472539798087455,-0.11430456139905247,-0.8025827072584147,0.4657954028116142
-668.6086835861206,4740.0,3272.0,15676.0,1034.0,1569.0,-757.0,0.4980884759349349,-0.09159236035529975,-0.70844480342692,0.49155332382433503
-668.6164600849152,4836.0,3216.0,15384.0,914.0,1539.0,-718.0,0.6226999877792136,-0.0724163713844116,-0.5995088690787729,0.4975838725995576
-668.6242589950562,4380.0,3248.0,15128.0,828.0,1411.0,-616.0,0.7202800715895238,-0.05574338039356756,-0.4849833032995095,0.49282906725758835
-668.632022857666,4532.0,3564.0,15072.0,831.0,1330.0,-725.0,0.8028206098912296,-0.02957995375995954,-0.3648361429431898,0.47063646636418766
-668.6397981643677,4420.0,3864.0,15064.0,786.0,1064.0,-335.0,0.8465839163374212,-0.007340491560151468,-0.2568291331046479,0.4661336569817337
-668.6476230621338,4256.0,4096.0,14892.0,751.0,841.0,-90.0,0.8654249916314005,0.01608322251003876,-0.16318783548013915,0.47344550284567083
-668.655396938324,4456.0,4264.0,15228.0,688.0,520.0,-19.0,0.8702135679136098,0.0469742442206773,-0.09502664150200403,0.481135847764237
-668.6631667613983,4820.0,4264.0,15484.0,498.0,713.0,-23.0,0.872541267631159,0.05520912416606317,-0.019760720035702128,0.4850084564552426
-668.6709303855896,4748.0,4552.0,15872.0,139.0,778.0,10.0,0.870716435272331,0.03308408356692191,0.04511417002132813,0.48859292301922286
-668.6787109375,4692.0,4508.0,16128.0,-227.0,1045.0,-65.0,0.8662671011722042,-0.02857659916382829,0.11435173297160697,0.48547746453705365
-668.6864893436432,4348.0,4512.0,16760.0,-597.0,969.0,-199.0,0.8592240245801052,-0.11591083551779356,0.16081344873609996,0.47163310793405433
-668.6942727565765,4136.0,4388.0,16672.0,-905.0,842.0,-399.0,0.8493020432800671,-0.22237111966364503,0.18134040881808003,0.4431171183214788
-668.7020809650421,4232.0,4376.0,16512.0,-1147.0,758.0,-632.0,0.8323482978810705,-0.34351045440065076,0.1792192009016749,0.3963298585270968
-668.7098648548126,4128.0,4144.0,15872.0,-1167.0,628.0,-864.0,0.8098427129664657,-0.4589880817785666,0.156988895962386,0.3299078774216487
-668.7176315784454,3704.0,3720.0,15784.0,-946.0,457.0,-1169.0,0.792033130845643,-0.5497289815349075,0.11408707381463952,0.23972005775874283
-668.7254111766815,3732.0,3296.0,15368.0,-669.0,142.0,-1387.0,0.7805669390156164,-0.6071200144723728,0.042913713547319994,0.14240419562792175
-668.7331790924072,4228.0,2928.0,15232.0,-395.0,-44.0,-1638.0,0.7719519855961094,-0.6326828748025236,-0.051287386563239556,0.03423617743485645
-668.740959405899,4812.0,2600.0,15336.0,-163.0,-174.0,-1870.0,0.7576673039854879,-0.6262236398991505,-0.16458955003478884,-0.08181985897181247
-668.7487740516663,4976.0,2620.0,15352.0,192.0,-166.0,-1932.0,0.7414197997563257,-0.5785092765365697,-0.2785581202900026,-0.1950104384665735
-668.7565560340881,5352.0,2588.0,15484.0,257.0,-11.0,-1959.0,0.7103785491276763,-0.5068039189101327,-0.37698915666580923,-0.3104694517549054
-668.7643253803253,5388.0,2840.0,15796.0,827.0,197.0,-1953.0,0.6887874589483767,-0.37927007938784235,-0.46555349691069003,-0.406184668335483
-668.7721366882324,5636.0,3568.0,15924.0,891.0,652.0,-1822.0,0.6687803444629968,-0.22455193267209442,-0.5094299227987628,-0.4927376930481662
-668.7799110412598,6404.0,4432.0,16368.0,790.0,1143.0,-1777.0,0.6463138467234154,-0.049201260562603634,-0.5017247517278449,-0.5728262572510663
-668.7876789569855,5468.0,5056.0,16516.0,523.0,1067.0,-1162.0,0.6306574669580742,0.0837010248253848,-0.46757484298215385,-0.6137092666918268
-668.7955057621002,5684.0,5660.0,16440.0,93.0,1304.0,-986.0,0.6241222674375941,0.19684734525165393,-0.3894098100555954,-0.6481377305699751
-668.8033311367035,5496.0,5624.0,16540.0,-362.0,1264.0,-745.0,0.6258364446678548,0.2714311830161443,-0.2846563024275705,-0.6735166270406536
-668.8111128807068,5200.0,5392.0,16140.0,-615.0,1160.0,-632.0,0.6271291649657021,0.3189211941965114,-0.16875037318860586,-0.6903054352171933
-668.8188862800598,4832.0,5248.0,15996.0,-789.0,976.0,-623.0,0.6214073340830435,0.3409207608492021,-0.05011688858869756,-0.7036435585209274
-668.8266546726227,4792.0,4980.0,15844.0,-820.0,1006.0,-740.0,0.5997893478622753,0.3582071163078885,0.07606448106805497,-0.711445426394169
-668.8344287872314,4696.0,4800.0,16016.0,-781.0,815.0,-853.0,0.5616633449169564,0.35935436427888984,0.1922845261536187,-0.7200176309315554
-668.842200756073,4480.0,4300.0,15844.0,-651.0,691.0,-1007.0,0.5036309950543965,0.35126758676268066,0.29634744533056795,-0.7315361200627669
-668.8499927520752,4432.0,3680.0,15536.0,-767.0,761.0,-1327.0,0.41817179563381596,0.3280627647524064,0.41471856538920054,-0.7385903351932794
-668.8577680587769,3844.0,3400.0,15436.0,-501.0,355.0,-1192.0,0.340556367911972,0.2874640730554911,0.4906283995771168,-0.7487786992866113
