programtime,ax,ay,az,gx,gy,gz,q0,q1,q2,q3
-5040.542285442352,-2312.0,-2216.0,-16068.0,-63.0,128.0,206.0,0.999757034781199,-0.005724742566218854,0.011405574329912009,0.017972523536214615
-5040.55787396431,-2388.0,-2236.0,-15832.0,-143.0,4.0,-248.0,0.9997516549685046,-0.018669762032322425,0.011646906999896501,-0.0035239084449521932
-5040.573457241058,-2300.0,-2420.0,-15976.0,-204.0,82.0,-480.0,0.9981165231735997,-0.03713665021379765,0.01828147778337832,-0.045277620838545196
-5040.589068889618,-2104.0,-2480.0,-16048.0,-125.0,112.0,135.0,0.9978717962370086,-0.04761665392260932,0.029166019521795764,-0.03367307305837031
-5040.604663848877,-2224.0,-2340.0,-16132.0,42.0,153.0,370.0,0.9981083208580244,-0.042791438272430364,0.04408932905210508,-0.002191736363474595
-5040.620249032974,-2404.0,-2076.0,-16080.0,-91.0,100.0,-88.0,0.9972440102015554,-0.051251405452529805,0.052726688187829,-0.00987795064797761
-5040.635854244232,-2308.0,-2316.0,-15948.0,-227.0,-236.0,-365.0,0.9960644776883048,-0.07305112860245908,0.030958379133657343,-0.039505286467107395
-5040.651455879211,-2124.0,-2472.0,-15996.0,-227.0,80.0,109.0,0.9944805471505778,-0.09245740827158436,0.03956335420062359,-0.02991337492134266
-5040.6670660972595,-2140.0,-2564.0,-15876.0,85.0,135.0,719.0,0.9944923693893404,-0.08235125206225587,0.056917093548811984,0.031042599313049105
-5040.682676315308,-2224.0,-2304.0,-15956.0,131.0,196.0,654.0,0.9908331852867909,-0.06839530450433436,0.07903914358536851,0.08558326376975288
-5040.698256731033,-2416.0,-2264.0,-16192.0,45.0,53.0,509.0,0.9859105130350115,-0.0615564891074375,0.08714109843586956,0.12883201426352173
-5040.713847160339,-2384.0,-2252.0,-16092.0,-164.0,80.0,-125.0,0.9856044693706691,-0.07772358198046381,0.09173004084382819,0.11886325911515798
-5040.729445934296,-2252.0,-2448.0,-16036.0,-144.0,28.0,-70.0,0.9849889906883165,-0.09118754501112468,0.09238292523400071,0.1137845111729402
-5040.745037794113,-1804.0,-2312.0,-16012.0,-158.0,101.0,193.0,0.980684193756963,-0.10443700894308085,0.10120966103036105,0.13079765973593604
-5040.760698795319,-2148.0,-2376.0,-16044.0,83.0,130.0,748.0,0.9695566315224927,-0.0922549055170422,0.12004150609402935,0.1924552090577856
-5040.776321411133,-2288.0,-2348.0,-16000.0,6.0,106.0,344.0,0.9621938133071283,-0.0901106841970373,0.1320413434698847,0.22051805785852782
-5040.79194021225,-2440.0,-2232.0,-15880.0,-256.0,-8.0,64.0,0.9587350509612494,-0.11090413200279234,0.12714975183526883,0.2288237666224105
-5040.807533740997,-2320.0,-2388.0,-15848.0,-392.0,53.0,-7.0,0.9538657763779509,-0.14498896567615135,0.12382888083096182,0.2319152620230068
-5040.82310962677,-2288.0,-2812.0,-16112.0,-153.0,6.0,123.0,0.9491750159562015,-0.1567568410974984,0.12295250633823496,0.24367347627270503
-5040.838693618774,-2008.0,-2332.0,-15936.0,-73.0,142.0,460.0,0.9359613803667101,-0.1610068962533524,0.13950759987639844,0.28034033494599314
-5040.854229450226,-2324.0,-2264.0,-16016.0,14.0,57.0,294.0,0.927888487807795,-0.15788002970854978,0.14877710983207917,0.30325273618387094
-5040.869807720184,-2336.0,-2264.0,-16032.0,-242.0,40.0,3.0,0.9236745521183477,-0.17870363582855583,0.14581636075123397,0.3059867991399146
-5040.885394573212,-2324.0,-2348.0,-15984.0,-142.0,-23.0,-47.0,0.9228558914560534,-0.19037644498487122,0.13960814038927805,0.30430803462416633
-5040.900983333588,-2252.0,-2108.0,-16116.0,-502.0,43.0,78.0,0.9109389654137753,-0.23102736938124532,0.13108276641451794,0.31564832367173984
-5040.9165852069855,-2460.0,-2472.0,-16088.0,-101.0,250.0,82.0,0.9034236286579475,-0.2452046873443974,0.14992958833938164,0.31815330742776654
-5040.932240962982,-2244.0,-2300.0,-15884.0,-190.0,6.0,-25.0,0.8997570481688304,-0.26091124968492146,0.14472637253145326,0.31846012490145864
-5040.94793343544,-2208.0,-2384.0,-15952.0,-510.0,-249.0,65.0,0.8882859283057739,-0.29312429395828965,0.11248675871288757,0.33522080332173904
-5040.9635281562805,-2248.0,-2480.0,-16060.0,-150.0,22.0,5.0,0.8839104265555285,-0.3056065877455151,0.11003370723647611,0.3364514149543198
-5040.979169368744,-2296.0,-2220.0,-15956.0,-18.0,-252.0,124.0,0.8818474765918953,-0.298604657888549,0.09345849932008801,0.35276875601533403
-5040.994798183441,-2544.0,-2220.0,-15916.0,-256.0,-16.0,10.0,0.8746792321191663,-0.3179396345999146,0.0846918539208603,0.35591841695723747
-5041.01042175293,-2180.0,-2200.0,-15984.0,-153.0,77.0,39.0,0.8684470461010629,-0.33197520949009623,0.08697773266328464,0.35780869528715914
-5041.026015520096,-2376.0,-2248.0,-16136.0,-88.0,5.0,130.0,0.8616128660730432,-0.3380737546857406,0.08845644406972102,0.368109851691886
-5041.041616678238,-2312.0,-2152.0,-15960.0,-158.0,100.0,-52.0,0.8576161268881992,-0.353806496415526,0.08944143912037883,0.36237517983925177
-5041.057238817215,-2444.0,-2500.0,-16060.0,-71.0,13.0,87.0,0.8524175954956826,-0.3591249899483514,0.09093447206155443,0.3689775145924773
-5041.072878360748,-1992.0,-2048.0,-15960.0,-58.0,190.0,89.0,0.8459578488440027,-0.36907439682449705,0.10605123465938018,0.36998992312640394
-5041.088522672653,-2680.0,-2500.0,-16072.0,-91.0,14.0,-294.0,0.8519640698595616,-0.37911242345156265,0.09473620205230845,0.34850544626120156
-5041.104095697403,-2404.0,-2432.0,-15948.0,-422.0,-77.0,-402.0,0.8496219929859291,-0.4112109457529772,0.06287912625341315,0.3241824218077949
-5041.119710445404,-1932.0,-2492.0,-16120.0,-69.0,-36.0,545.0,0.8308385677515933,-0.41213325990066035,0.07777865874577375,0.3657921960127696
-5041.135303258896,-2024.0,-2444.0,-16116.0,121.0,45.0,906.0,0.8032833189823442,-0.397672074327811,0.11717424191310159,0.42762486805214595
-5041.150881528854,-2352.0,-2060.0,-15968.0,63.0,-43.0,460.0,0.7879733265881856,-0.3869116287414916,0.13245296366744985,0.46027561367713565
-5041.166476964951,-2692.0,-2096.0,-15796.0,-460.0,-181.0,-400.0,0.7892669831913185,-0.4155330698555785,0.08799063087125539,0.4434495980146477
-5041.182088851929,-2500.0,-2440.0,-16068.0,-364.0,-196.0,90.0,0.7734389159745174,-0.43231768342575827,0.06369223045999046,0.45916986359361706
-5041.197684049606,-2004.0,-2108.0,-16124.0,-119.0,248.0,634.0,0.7406931628797166,-0.4462380402074719,0.0994456809217948,0.4922964619830582
-5041.213342189789,-2668.0,-2340.0,-16096.0,30.0,-149.0,322.0,0.7288480125938702,-0.43517675176133347,0.10365858523147856,0.5183210076508852
-5041.228931427002,-2804.0,-2192.0,-15756.0,-423.0,-2.0,-387.0,0.7292696686357167,-0.46518589354823797,0.06968673698601967,0.49690199591058243
-5041.244528770447,-2304.0,-2484.0,-16116.0,-654.0,-327.0,-333.0,0.7172571328461892,-0.49371885894187695,0.007027510159892,0.4916650361855595
-5041.2601318359375,-2052.0,-2324.0,-16276.0,-198.0,-507.0,739.0,0.6750380606873411,-0.4826455298865401,-0.0013474831499012958,0.5580099402279275
-5041.275775909424,-2796.0,-2748.0,-16160.0,25.0,-296.0,772.0,0.6366895173935344,-0.4659246292151131,0.014915699965211495,0.6142623382777879
-5041.291363477707,-2448.0,-1324.0,-16068.0,346.0,-533.0,606.0,0.617054841994923,-0.4164170170601718,0.028428762203751602,0.6671071843061591
-5041.3069434165955,-2804.0,-2176.0,-16216.0,-135.0,-374.0,-503.0,0.6412664103580611,-0.40282928111605437,-0.0177964797840213,0.6528317137894779
-5041.322537660599,-2544.0,-1464.0,-15916.0,-64.0,-360.0,-1046.0,0.6947127862946731,-0.38279417561341,-0.07798739599717908,0.6039542447410409
-5041.338145971298,-2908.0,-2600.0,-16244.0,-303.0,-754.0,-1402.0,0.7458312286623858,-0.3487147982719887,-0.18469381750797467,0.536676775715526
-5041.353713989258,-2248.0,-2184.0,-15780.0,-564.0,-781.0,-1754.0,0.7862087226205668,-0.31607581578171834,-0.31070834971617456,0.43061844429832463
-5041.369364976883,-2556.0,-2860.0,-16276.0,111.0,-515.0,-1252.0,0.8165037366623774,-0.25363878075300267,-0.3739420379880374,0.35938331783745703
-5041.384971380234,-1696.0,-1888.0,-15716.0,114.0,-394.0,-466.0,0.8194378024164367,-0.217840402807346,-0.4083649543029224,0.3380906845401481
-5041.40056014061,-3020.0,-2624.0,-16140.0,582.0,-759.0,-81.0,0.802882796825237,-0.15062089667880302,-0.4456578045952424,0.3661716554419621
-5041.4161558151245,-2688.0,-1748.0,-16060.0,8.0,-349.0,-972.0,0.8170107248503397,-0.10085149036701374,-0.4809277676568509,0.30171333193425975
-5041.431779623032,-2888.0,-2268.0,-16180.0,206.0,-598.0,-1659.0,0.8273749088104451,-0.0009066996838219808,-0.5267138113012294,0.1949935874615473
-5041.447377443314,-2552.0,-2112.0,-15660.0,81.0,-626.0,-1814.0,0.8178878122735916,0.09756130115695069,-0.5630921899044589,0.06684687516616855
-5041.462968587875,-2964.0,-2960.0,-15940.0,211.0,-780.0,-3185.0,0.7653075229217413,0.26308220015258793,-0.5677931768905616,-0.15067534502627006
-5041.478646993637,-2984.0,-3396.0,-16112.0,469.0,-1200.0,-3451.0,0.6183176476721629,0.4281344475162071,-0.5474905478501979,-0.3669308946407285
-5041.494244098663,-2300.0,-3168.0,-15736.0,1007.0,-686.0,-5016.0,0.35291377540680885,0.6385070829525693,-0.39158840146433305,-0.5607308587781854
-5041.509832859039,-3160.0,-4492.0,-17068.0,2493.0,-823.0,-3376.0,0.01918617120351963,0.740636852193456,-0.3286972677123654,-0.5857021855908887
-5041.5254101753235,-924.0,-1060.0,-16312.0,4191.0,528.0,378.0,-0.2037365391942212,0.7164437796579803,-0.5312661105513953,-0.4036781551758052
-5041.541001796722,-3776.0,-1992.0,-15716.0,4052.0,315.0,-1166.0,-0.45355654457108596,0.6657896728762466,-0.5692265637229053,-0.16429148340766325
-5041.556590795517,-3172.0,-1516.0,-15084.0,645.0,333.0,-8091.0,-0.4815117950488918,0.854200932851895,-0.09928022072652844,0.169205778022614
-5041.572158813477,-3072.0,-4220.0,-16148.0,-1390.0,-408.0,-9390.0,-0.18673584797931736,0.7699415014918685,0.4597479346004685,0.4011877914275253
-5041.587829113007,-416.0,-3912.0,-16344.0,208.0,-49.0,-4224.0,-0.04766928500350177,0.5618929373821467,0.7051994856953407,0.42976464671066744
-5041.603440523148,-1112.0,-4424.0,-15688.0,1018.0,257.0,-801.0,-0.08282855747603689,0.49553427945258377,0.7765337979348047,0.3802373845623222
-5041.619058132172,-2480.0,-3320.0,-15520.0,1414.0,-39.0,10.0,-0.14054750430998295,0.4836695153337398,0.8171804273600797,0.28022553079378476
-5041.6346781253815,-2936.0,-2444.0,-15584.0,288.0,32.0,-810.0,-0.13467166959021715,0.4204561658319545,0.8556958166928129,0.269934850136279
-5041.650272607803,-3696.0,-2832.0,-15836.0,-1142.0,-214.0,-3172.0,-0.0018438088119269,0.19382946903973491,0.909115361894493,0.3686949905657579
-5041.665858030319,-3024.0,-2888.0,-16108.0,-807.0,-376.0,-2728.0,0.12559369958600278,-0.010069787240992768,0.9016366564909113,0.41373440959281166
-5041.681515216827,-2172.0,-2964.0,-15836.0,-1530.0,-103.0,-2527.0,0.21649186073573665,-0.21496314893194696,0.8164758324667156,0.4901931597179051
-5041.697137832642,-2200.0,-3384.0,-16096.0,-534.0,-512.0,-659.0,0.2700979070551792,-0.24926449954764748,0.7688929283991797,0.5231806519046805
-5041.712736368179,-1964.0,-3112.0,-15964.0,-118.0,24.0,783.0,0.22955931283594525,-0.2002254273982393,0.7794144489246106,0.5474718412128848
-5041.7283046245575,-2308.0,-2772.0,-16116.0,18.0,-67.0,1309.0,0.17073230409657408,-0.10701926993602497,0.7967889305520373,0.569670743807312
-5041.7439296245575,-2620.0,-2784.0,-15892.0,-208.0,-137.0,1003.0,0.12791612120370227,-0.03349543804410241,0.7907575230293837,0.5976772216998629
-5041.7595183849335,-2160.0,-2396.0,-15752.0,-397.0,-97.0,1053.0,0.07813761444045246,0.039566123802914535,0.7685286189168963,0.633792392635361
-5041.775111436844,-2740.0,-3544.0,-15748.0,-861.0,-211.0,369.0,0.07460771842477636,0.069845389059004,0.7159027851881916,0.6906797464371136
-5041.790777206421,-2660.0,-3600.0,-16008.0,-314.0,-403.0,1248.0,0.026306039577825912,0.1688888707891551,0.6822664851570741,0.7108424472671182
-5041.8063752651215,-1920.0,-2884.0,-15728.0,64.0,137.0,2789.0,-0.15137479948849974,0.31734901910747043,0.6273042119443164,0.6948846636876245
-5041.822028160095,-3068.0,-3240.0,-15740.0,425.0,83.0,3074.0,-0.34174244904292095,0.4585582440852503,0.547309076330646,0.6110558160018559
-5041.837619543076,-2896.0,-2400.0,-15748.0,211.0,97.0,2061.0,-0.45720364485096676,0.5369658341384766,0.4657766925456005,0.5344947079104171
-5041.853182792664,-2776.0,-2356.0,-15932.0,150.0,239.0,2488.0,-0.5762807249815217,0.6068370516020833,0.33877146251835794,0.4299804821161479
-5041.868778705597,-2756.0,-2132.0,-15792.0,172.0,168.0,2326.0,-0.6638000363396478,0.6475239918817944,0.20935177080335135,0.3102483323959196
-5041.884373426437,-3196.0,-3336.0,-15340.0,-1474.0,83.0,17.0,-0.5775265936985128,0.725199296677564,0.1623336690275644,0.3379301607868238
-5041.900005578995,-2672.0,-3968.0,-16164.0,-854.0,-234.0,1019.0,-0.5462542381786643,0.784348761175928,0.08385856509940923,0.2817287155635759
-5041.915596246719,-1208.0,-2668.0,-16188.0,90.0,5.0,3366.0,-0.6092312029453009,0.7721176417501697,-0.13870049830137565,0.11590453152024846
-5041.931327581406,-2628.0,-2764.0,-16120.0,708.0,115.0,3474.0,-0.6595646823807961,0.6605384856153227,-0.35516556881751365,-0.05020714594026812
-5041.9469401836395,-2948.0,-1844.0,-15688.0,106.0,-116.0,2128.0,-0.6485549927225133,0.5782175856801809,-0.4637589740373837,-0.17311400585936615
-5041.962559223175,-3008.0,-2084.0,-15500.0,-1044.0,-56.0,-77.0,-0.5965765075908915,0.6370688831807293,-0.43922970245764975,-0.21287784561216774
-5041.97817158699,-3100.0,-3316.0,-16040.0,-879.0,-406.0,320.0,-0.5549058109627893,0.6605814836835516,-0.41800726036994235,-0.28457261753756646
-5041.9938361644745,-1972.0,-2320.0,-15716.0,-432.0,55.0,2320.0,-0.46049948130486523,0.5861129540673339,-0.53258961650836,-0.4009490406272243
-5042.009491920471,-3112.0,-3196.0,-16016.0,331.0,-25.0,2986.0,-0.3617400531322217,0.41917457794667795,-0.6732470374765971,-0.4900767630607549
-5042.025114774704,-2680.0,-2800.0,-15744.0,-116.0,-58.0,2212.0,-0.26136670644055426,0.2852632005097313,-0.7339272020669906,-0.5582680478636413
-5042.040747880936,-3208.0,-2988.0,-16056.0,131.0,-191.0,2102.0,-0.17151895660605498,0.13616665872263156,-0.7753627704216397,-0.5923280027325772
-5042.056341648102,-2472.0,-2112.0,-16144.0,453.0,57.0,2726.0,-0.031216313556298957,-0.050597433008689546,-0.809014614101547,-0.5847741407680498
-5042.071942329407,-2368.0,-1596.0,-16024.0,1182.0,106.0,3493.0,0.15203267995880868,-0.2808070357456535,-0.8132685689768642,-0.4864439408756217
-5042.087581157684,-3240.0,-1804.0,-15776.0,592.0,241.0,1578.0,0.2478075287621615,-0.37068811449215006,-0.7880356904153573,-0.42447791590922185
-5042.103195428848,-3224.0,-2132.0,-15172.0,-406.0,-64.0,-915.0,0.19548652865593036,-0.317762755414022,-0.8010629112395571,-0.46809193607895877
-5042.118824958801,-3360.0,-3428.0,-15648.0,-1213.0,-186.0,-1723.0,0.07704827334847937,-0.22190915046394558,-0.7892906280704087,-0.5673096129580456
-5042.134447336197,-2116.0,-3180.0,-15916.0,-373.0,92.0,328.0,0.09226675646549547,-0.24226578489760797,-0.7632970714448165,-0.5917530868893286
-5042.150049209595,-2852.0,-3416.0,-15900.0,439.0,21.0,2185.0,0.21176728028053898,-0.3761958622509356,-0.7261698980694123,-0.5350780983797766
-5042.16564822197,-3144.0,-2660.0,-15632.0,75.0,57.0,1172.0,0.2710531386446534,-0.44417553950833444,-0.686695862421138,-0.5076288788741748
-5042.181264877319,-3396.0,-2380.0,-15972.0,-503.0,41.0,467.0,0.274093579606646,-0.48148658773369674,-0.6443349368709435,-0.527139321791207
-5042.196875810623,-3016.0,-2304.0,-15872.0,-752.0,123.0,-363.0,0.23197713474609646,-0.47225121664627157,-0.620523719595791,-0.5814771799048626
-5042.2125198841095,-2868.0,-2452.0,-15844.0,-943.0,62.0,-1204.0,0.13409650742526527,-0.41940209251424065,-0.6157317791085115,-0.653448075738914
-5042.228118896484,-3320.0,-2876.0,-16116.0,-929.0,-173.0,-1035.0,0.031484859211666494,-0.38179758913550216,-0.5983848320399874,-0.7036866471343732
-5042.243759870529,-2540.0,-2192.0,-15860.0,-664.0,53.0,-361.0,-0.010042335859293932,-0.3608444083896523,-0.5684544927654066,-0.7392901690670822
-5042.259353637695,-2912.0,-2648.0,-16012.0,-587.0,-93.0,-472.0,-0.06346969916108647,-0.3422799124259141,-0.5443843989444377,-0.7631917747355595
-5042.274947404861,-2568.0,-1784.0,-15624.0,-447.0,-95.0,-535.0,-0.1167536319481088,-0.320224285617791,-0.5292961246154515,-0.7769624243131487
-5042.29065322876,-3292.0,-2352.0,-15872.0,-736.0,-180.0,-1996.0,-0.27623036907866566,-0.2288885114420279,-0.5245462444684251,-0.7721127313693175
-5042.306250572205,-2936.0,-2208.0,-15784.0,-961.0,-95.0,-2257.0,-0.44181330719768475,-0.10644522875647212,-0.4916948083833011,-0.7427695674076418
-5042.321839570999,-2892.0,-2832.0,-15700.0,-910.0,-29.0,-1415.0,-0.5374355116555414,-0.012369176436602927,-0.44029969412247977,-0.7191288157496386
-5042.337403535843,-2684.0,-2844.0,-15880.0,-361.0,91.0,-380.0,-0.5575295396316964,0.024928856885154504,-0.42215315955309474,-0.714371104127125
-5042.353001356125,-3000.0,-3260.0,-16024.0,-149.0,38.0,3.0,-0.5555266562904656,0.03455319978797578,-0.41495673479614326,-0.719727114108167
-5042.368612527847,-2536.0,-2192.0,-15780.0,-138.0,152.0,264.0,-0.532746756342995,0.0413169612491175,-0.4145590284664208,-0.7366237942370133
-5042.384242534637,-3404.0,-2704.0,-15976.0,-207.0,-48.0,-338.0,-0.5550899266111154,0.06017421041075814,-0.3978331062671168,-0.727999352564386
-5042.399836063385,-2532.0,-1924.0,-15612.0,-718.0,67.0,-763.0,-0.5949276147043914,0.12529648883661265,-0.3502698328548662,-0.7125117313695152
-5042.4154489040375,-3192.0,-2932.0,-16072.0,-539.0,-184.0,-733.0,-0.6381034256966156,0.1638989676135414,-0.29845146063487954,-0.690570685863776
-5042.431069135666,-2204.0,-2204.0,-16052.0,-443.0,125.0,-347.0,-0.648546454453909,0.20508642051211598,-0.27363374333909063,-0.6800379629425314
-5042.446671962738,-3184.0,-3328.0,-16268.0,-88.0,-155.0,173.0,-0.6402091092462187,0.1969412641133358,-0.26285680914435294,-0.6944441898482944
-5042.462275028229,-2576.0,-2164.0,-15768.0,-239.0,35.0,373.0,-0.6121816843114298,0.20394149335710168,-0.25674713347119904,-0.7195292642660329
-5042.477901697159,-3096.0,-2556.0,-15788.0,-52.0,49.0,476.0,-0.5797140315134607,0.19920389235282374,-0.26452311378350324,-0.7444977993333324
-5042.493547439575,-2752.0,-2452.0,-15948.0,93.0,91.0,1082.0,-0.5066081767091323,0.17489051960849894,-0.2928476975026849,-0.7918343813638644
-5042.509190797806,-2852.0,-2400.0,-15804.0,291.0,118.0,1099.0,-0.42993068550799507,0.1416206388383736,-0.3334983026725529,-0.8269716333878464
-5042.524799108505,-3108.0,-2500.0,-15752.0,124.0,160.0,682.0,-0.3768462289619934,0.12862541973049318,-0.3564195082376625,-0.8452263337496662
-5042.540392160416,-2824.0,-2352.0,-15980.0,227.0,91.0,794.0,-0.3171523460109849,0.10309231593155098,-0.38430067143215385,-0.8608712782712602
-5042.55605506897,-2912.0,-2224.0,-16168.0,565.0,104.0,1608.0,-0.19577677122033565,0.041049539806956345,-0.439493311273483,-0.8756894543604182
-5042.571663618088,-2720.0,-1972.0,-15320.0,115.0,25.0,511.0,-0.15602319087005537,0.021478957288609903,-0.4503438171870865,-0.8788548598180953
-5042.58730506897,-3532.0,-2720.0,-16152.0,-35.0,-176.0,-357.0,-0.19016270774073646,0.022580706112537142,-0.4445950086434718,-0.8750220194860708
-5042.602902173996,-2160.0,-2040.0,-15728.0,-295.0,217.0,-550.0,-0.22279270386635155,0.06535708958921066,-0.424165039613562,-0.8753147326042063
-5042.618496417999,-3348.0,-3484.0,-16284.0,432.0,-175.0,497.0,-0.19344412876384848,0.02529491231133228,-0.4560461717320167,-0.8683095218333895
-5042.634077548981,-2300.0,-2080.0,-15568.0,73.0,305.0,755.0,-0.12394153952889728,0.017164986542370704,-0.46748471651943274,-0.8751010786400351
-5042.6496505737305,-3444.0,-2864.0,-16328.0,385.0,35.0,555.0,-0.08058896855934991,-0.0068600375888709045,-0.4974994081843919,-0.8636855312479185
-5042.665244817734,-2968.0,-2516.0,-15744.0,-170.0,118.0,328.0,-0.05084075044241049,-0.01093924286042917,-0.4853185760720085,-0.8727894538658973
-5042.680871248245,-3028.0,-2416.0,-16036.0,290.0,55.0,527.0,-0.008111285075355964,-0.03025218625895558,-0.5067198270593944,-0.8615416583926034
-5042.696533441544,-3000.0,-2816.0,-15940.0,-246.0,35.0,488.0,0.02941112419556594,-0.048926250528159576,-0.4866824789833191,-0.8717117484773622
-5042.712118148804,-2580.0,-2444.0,-15944.0,553.0,67.0,1386.0,0.13884992497646775,-0.10040514583450172,-0.5185510677937736,-0.8377017936676029
-5042.727742195129,-2676.0,-2380.0,-15952.0,667.0,12.0,2192.0,0.29951045845494106,-0.18695901488458305,-0.5375854836326388,-0.7657294951985063
-5042.743336439133,-2772.0,-2272.0,-15472.0,618.0,237.0,1453.0,0.41374037718334067,-0.22107383637984104,-0.5439736787181236,-0.6957283205521807
-5042.758934259415,-3664.0,-2972.0,-16116.0,301.0,-87.0,747.0,0.45953408373193944,-0.2504225655490216,-0.5498348538188863,-0.6509981552035742
-5042.774532079697,-2728.0,-1988.0,-15488.0,346.0,80.0,839.0,0.5168617957733903,-0.2715147433068649,-0.5464508591253467,-0.6004374128900396
-5042.790168523788,-3360.0,-2920.0,-15636.0,318.0,19.0,622.0,0.5567511821186094,-0.28543897506441,-0.5467114066679305,-0.5564704399542558
-5042.805787324905,-2736.0,-2124.0,-15680.0,344.0,125.0,314.0,0.5858875039398953,-0.2775250872245886,-0.5492492199808604,-0.5272958875607507
-5042.821387290955,-3252.0,-2756.0,-15848.0,314.0,-58.0,270.0,0.602606201283507,-0.2770349776324037,-0.5599575602761981,-0.4965530364748595
-5042.836960077286,-2788.0,-1956.0,-15736.0,326.0,117.0,793.0,0.6485801111345924,-0.29286942345043965,-0.5474144480987927,-0.44035072642286066
-5042.852562189102,-3204.0,-2136.0,-15936.0,121.0,240.0,805.0,0.6920326473774674,-0.31453943624785274,-0.5166962120179042,-0.39392992079171396
-5042.868114948273,-2960.0,-1624.0,-15608.0,-224.0,125.0,-303.0,0.6805409070097264,-0.31008132949280676,-0.5096616551192527,-0.42539233689319855
-5042.88373875618,-3512.0,-2564.0,-15700.0,-1051.0,-133.0,-2211.0,0.5514773928477746,-0.2730856581489462,-0.5266496580590195,-0.5864614617837188
-5042.899347543716,-2632.0,-2656.0,-16352.0,-195.0,-110.0,616.0,0.5722509207341623,-0.31603981099289064,-0.5066671238167616,-0.5620819755424755
-5042.914981365204,-2304.0,-1688.0,-15984.0,410.0,121.0,2911.0,0.7085880735955269,-0.40534926235683877,-0.42680869914612485,-0.3891391162529659
-5042.930687904358,-4596.0,-2828.0,-15444.0,-838.0,-74.0,-2033.0,0.5961217201603669,-0.3772873919566984,-0.46645593005673563,-0.533584092658752
-5042.946303129196,-2964.0,-1792.0,-16628.0,-44.0,-326.0,664.0,0.6109099727789253,-0.42108693768231925,-0.45872259708892316,-0.4889257356619438
-5042.961946249008,-2832.0,-1444.0,-15608.0,-82.0,93.0,1331.0,0.663767605761687,-0.47176597936903586,-0.3988132602569901,-0.4216603013025559
-5042.9775557518005,-4364.0,-2012.0,-14952.0,-784.0,-64.0,-2198.0,0.5372023694430866,-0.43433521540514514,-0.4549364835116344,-0.561960257397058
-5042.99324798584,-3476.0,-4092.0,-15816.0,-3584.0,-204.0,-6722.0,0.05285241079658496,-0.287852194728025,-0.45269730383070245,-0.8422665182515929
-5043.008886575699,-940.0,-4064.0,-17268.0,289.0,121.0,1400.0,0.16651189087836937,-0.33052314628159435,-0.4350209371359989,-0.8208440925179051
-5043.024513959885,-2120.0,-3044.0,-15888.0,1870.0,479.0,4445.0,0.5130367387850044,-0.40336377203076845,-0.39971332452035874,-0.6436771164728787
-5043.040107011795,-4056.0,-1496.0,-15428.0,1861.0,229.0,3492.0,0.7396065597549673,-0.4056041083709117,-0.35084023493211475,-0.4066676451266296
-5043.055732727051,-3240.0,-212.0,-15208.0,-277.0,217.0,1886.0,0.7922100244541901,-0.4672467398941347,-0.2568205515435833,-0.29686186268607206
-5043.071328639984,-4064.0,-1440.0,-15888.0,-979.0,-404.0,364.0,0.7489336538981719,-0.5511824977884118,-0.2434414280242358,-0.27573992694563004
-5043.086946964264,-3508.0,-2572.0,-14320.0,-2957.0,395.0,-5529.0,0.4225436244060846,-0.5416666784702358,-0.36165531168043286,-0.6302852770310607
-5043.102546453476,-3644.0,-5408.0,-16532.0,-3429.0,-661.0,-7836.0,-0.15330981748039346,-0.3661424650296787,-0.45461886332510865,-0.797344018774271
-5043.118181705475,-244.0,-3852.0,-18036.0,1063.0,404.0,2643.0,0.0782265213373305,-0.4435179881514442,-0.436173214162437,-0.7790541269980953
-5043.133820533752,-2520.0,-3072.0,-16372.0,3574.0,420.0,6031.0,0.5478527949313611,-0.5288632718315565,-0.37770332918826166,-0.526783779091214
-5043.149414539337,-3852.0,-268.0,-15104.0,2332.0,335.0,2672.0,0.7536659269442,-0.46814938696043995,-0.3301151655072588,-0.3222542467587033
-5043.1650059223175,-4100.0,72.0,-15180.0,-329.0,-15.0,358.0,0.7490262664003315,-0.5003055140008588,-0.30705776933855067,-0.3071963072557184
-5043.180597543716,-3124.0,2096.0,-16716.0,1093.0,-552.0,7921.0,0.8146290391157731,-0.5376601300488635,-0.021894738134395516,0.2163833025609361
-5043.196247577667,-2512.0,184.0,-11192.0,-5809.0,2847.0,-12127.0,0.4971100105709207,-0.6284753167919136,-0.31897079433230946,-0.5061205843833052
-5043.211884021759,-6488.0,-11364.0,-15624.0,-14411.0,-3583.0,-27396.0,-0.5533066044759748,-0.22416043482357367,-0.46262662574246777,-0.6554239132478402
-5043.227497577667,576.0,-10052.0,-24288.0,1725.0,-1756.0,5100.0,-0.26771039176050365,-0.550365783952782,-0.3379253240557099,-0.7150070806357939
-5043.243093490601,8488.0,1336.0,-15252.0,10029.0,4209.0,25961.0,0.7382691854423773,-0.4855898118293349,0.06966334282598789,-0.46293429678530923
-5043.258667230606,-8900.0,-3568.0,-16028.0,12007.0,1827.0,21319.0,0.8874348645136242,0.20785594112146166,0.25639765435352435,0.32173826603033673
-5043.274267673492,-4400.0,7532.0,-12048.0,2403.0,1830.0,3415.0,0.6568240523724186,0.38943333399248364,0.3752261338901423,0.5254799625546439
-5043.289881944656,-5700.0,-156.0,-13172.0,-9299.0,1986.0,-14384.0,0.8675284581815847,-0.3905250541334381,0.3053843005512785,0.04031110660803158
-5043.305514574051,-5676.0,-7104.0,-17220.0,-11355.0,-1443.0,-20615.0,0.25851182366451053,-0.7844227657084771,-0.2387102738213548,-0.5107543116176763
-5043.321131706238,80.0,-8820.0,-19320.0,-5048.0,-953.0,-3468.0,-0.22999547514556104,-0.7641152723967316,-0.23975615096100925,-0.5529438669331619
-5043.336730480194,2724.0,-6628.0,-17384.0,4644.0,1620.0,16705.0,0.5056132766419437,-0.6204789516765059,0.33947280218799947,-0.49408430615073057
-5043.352334260941,-1944.0,-3120.0,-15800.0,8915.0,2235.0,23016.0,0.8034538332903756,0.23119872080676146,0.5456439296333072,0.057286921043471724
-5043.36795592308,-5364.0,1308.0,-14672.0,5758.0,1969.0,12979.0,0.3299918232976658,0.7762017609564756,0.2815340847259305,0.4575530373435204
-5043.383533000946,-7300.0,2200.0,-14728.0,-1495.0,753.0,-3125.0,0.5134987482724936,0.598430656557145,0.43500321928345953,0.4347090797627686
-5043.399138212204,-5752.0,-996.0,-15508.0,-6396.0,-263.0,-12072.0,0.8452212874651001,-0.08763795946189792,0.5212635256165616,0.07877118850814391
-5043.414743185043,-816.0,-3116.0,-16408.0,-6198.0,-301.0,-8202.0,0.6457525741020289,-0.6816148991355186,0.2932047970184224,-0.18009910972146997
-5043.430339336395,304.0,-5612.0,-17288.0,-1488.0,439.0,3327.0,0.5695464269846607,-0.6415113667843143,0.5135557242707631,0.018454047367966867
-5043.445968866348,64.0,-3196.0,-16460.0,3153.0,1139.0,11053.0,0.476803554330811,0.006009333386958982,0.8410500861118576,0.25545451873276126
-5043.461567401886,-2860.0,-1352.0,-15744.0,2894.0,1091.0,9942.0,0.12831552395422643,0.6155886602673816,0.7000896162758321,0.33831975532818154
-5043.477176189423,-4920.0,104.0,-15420.0,624.0,393.0,2796.0,-0.01141077972006924,0.7580853290121635,0.5554082978373022,0.34161096401633595
-5043.492785453796,-4660.0,-568.0,-15528.0,-2260.0,253.0,-3211.0,0.20963021041989824,0.5648580724838153,0.6623490211131712,0.44529126092884624
-5043.508375644684,-2868.0,-2112.0,-16232.0,-1647.0,-12.0,-3025.0,0.3916873321947771,0.3451733371302014,0.7157656681112794,0.46380589634647
-5043.523997545242,-1692.0,-2440.0,-16224.0,-190.0,436.0,565.0,0.3464508298062271,0.3556482090590428,0.7046892444485687,0.5068522888161573
-5043.539570569992,-2252.0,-1656.0,-15984.0,1471.0,552.0,2235.0,0.1632942781089327,0.49920792073518905,0.6976903006120039,0.4871905941662499
-5043.555158615112,-3256.0,-1132.0,-15832.0,886.0,445.0,462.0,0.07756359785458818,0.518748410691086,0.7184490149048063,0.45685335467263166
-5043.5708091259,-3512.0,-1496.0,-15848.0,-110.0,14.0,-2447.0,0.17526800074469523,0.35603626225089435,0.8068384487369242,0.43764257735869744
-5043.58642244339,-2540.0,-1424.0,-16160.0,4.0,284.0,-1905.0,0.22469080119623783,0.20822936954691126,0.8586250593032438,0.4109958406752916
-5043.6020431518555,-2340.0,-2036.0,-15672.0,-155.0,257.0,-2022.0,0.2763242730833848,0.04377405027140155,0.8810870239548918,0.3813323810615716
-5043.617639064789,-3212.0,-2728.0,-15968.0,-326.0,-73.0,-2558.0,0.3592218492321594,-0.15451633803964634,0.8569442210019368,0.3357543244761404
-5043.633230686188,-2796.0,-2744.0,-15940.0,-570.0,69.0,-1959.0,0.39736972649643865,-0.3160007765231998,0.8034826441907587,0.3108962048419166
-5043.648854970932,-2284.0,-2740.0,-15832.0,-716.0,315.0,-673.0,0.3721155364220388,-0.3950597694626022,0.7734245516257211,0.3275244556488053
-5043.664463758469,-2920.0,-2984.0,-16216.0,-40.0,286.0,735.0,0.32948878022235806,-0.35419586520269836,0.8051159882008135,0.3431773278121999
-5043.680077075958,-2564.0,-1880.0,-16008.0,35.0,402.0,882.0,0.27477776200356063,-0.30227023026141875,0.842094903805866,0.35214494514363376
-5043.695695400238,-2960.0,-1760.0,-16116.0,6.0,343.0,-121.0,0.25320146898496426,-0.3214765301788005,0.8470004553099323,0.33931119249565356
-5043.7112917900085,-3128.0,-1472.0,-15668.0,-556.0,192.0,-1820.0,0.27340895335298127,-0.46757978872699413,0.7731369053031436,0.32996365111739895
-5043.7268834114075,-2872.0,-1704.0,-15784.0,-889.0,79.0,-2882.0,0.30428667126333947,-0.6630060877917383,0.6111036901387563,0.3072211404532009
-5043.7424602508545,-2332.0,-1908.0,-16360.0,-736.0,278.0,-1894.0,0.2928282128040996,-0.7787375814425693,0.48159495938508284,0.2754736142170698
-5043.758049964905,-2400.0,-2016.0,-16324.0,-216.0,-18.0,-1385.0,0.3097007767395966,-0.8359134783058337,0.3790527211658207,0.24830046365305009
-5043.773636341095,-2448.0,-2416.0,-15976.0,-180.0,281.0,-482.0,0.2971182276778811,-0.861795822691977,0.34717048786760785,0.22023026841463167
-5043.789273738861,-2324.0,-2256.0,-16228.0,173.0,230.0,223.0,0.2984960536834849,-0.8546555171778547,0.37307467219400986,0.20317318194134754
-5043.804897785187,-2488.0,-2268.0,-15940.0,371.0,257.0,410.0,0.30985360934908507,-0.8351293087311326,0.4163729876398524,0.18216287666664793
-5043.820527553558,-3064.0,-2136.0,-15628.0,43.0,217.0,-31.0,0.3052797650198949,-0.8384835706537741,0.4206328343328224,0.16376075688098032
-5043.836095094681,-2928.0,-2500.0,-15996.0,-30.0,170.0,-48.0,0.297234275278796,-0.8434688432310122,0.42121253249139895,0.1509705221896285
-5043.851709842682,-2444.0,-2224.0,-15920.0,167.0,287.0,611.0,0.29012732467209135,-0.8190498607200126,0.47499568079255555,0.13914943176872638
-5043.867324590683,-2456.0,-2088.0,-15984.0,314.0,353.0,769.0,0.2874394253030835,-0.781183869488648,0.5410773732484504,0.11985664349852725
-5043.882901906967,-2792.0,-1776.0,-15960.0,195.0,160.0,148.0,0.291250508320021,-0.7708095760125655,0.5570943403635734,0.10330360528816837
-5043.898512125015,-2772.0,-1620.0,-15944.0,-110.0,46.0,-531.0,0.2857854082373948,-0.7990096332723016,0.5210288623238821,0.09186528725328587
-5043.914181470871,-2792.0,-1976.0,-16372.0,-120.0,-89.0,-1115.0,0.28871862077172333,-0.8479864079054683,0.4380574753440102,0.07527455295441005
-5043.92982673645,-2476.0,-2160.0,-15932.0,-369.0,42.0,-782.0,0.26388773948042465,-0.8850051744056693,0.37779698028349157,0.06632151925112759
-5043.945433616638,-2528.0,-2312.0,-15960.0,-41.0,53.0,-177.0,0.25965408220171304,-0.8920448003296946,0.36510411286950445,0.05945434018230694
-5043.961009502411,-2668.0,-2604.0,-16068.0,9.0,164.0,11.0,0.2547360167715417,-0.8923219507417284,0.3697268072447944,0.04661744296307603
-5043.976830482483,-2512.0,-2168.0,-15724.0,53.0,207.0,526.0,0.24942468893700598,-0.874012231117625,0.4150363957009954,0.04043185191152957
-5043.992659330368,-2904.0,-2472.0,-15976.0,-84.0,174.0,445.0,0.23462277776218887,-0.8596282673073887,0.45210824688235124,0.03986887636011322
-5044.0082654953,-2816.0,-2076.0,-15904.0,234.0,2.0,531.0,0.2496159996978517,-0.8328910624923959,0.4922162315336784,0.041322053795937536
-5044.0239341259,-2556.0,-2268.0,-15900.0,226.0,285.0,881.0,0.24944971665203075,-0.7884988470317442,0.5613789074556299,0.029968806378547545
-5044.039524316788,-2692.0,-1704.0,-15948.0,299.0,132.0,398.0,0.2619379265756376,-0.7621305218839595,0.5918813369239296,0.01490212183821559
-5044.055116415024,-2788.0,-1568.0,-15820.0,-333.0,-152.0,-895.0,0.24761452958076774,-0.81293418972149,0.5266434681408871,0.021718779590444232
-5044.07070016861,-2704.0,-2356.0,-16060.0,-420.0,-137.0,-694.0,0.22453994542565583,-0.8515057160651028,0.4724907636417694,0.03566940832026539
-5044.086288928986,-2200.0,-2704.0,-16152.0,-54.0,40.0,577.0,0.2164925954168911,-0.8278976475378408,0.5153531554896417,0.04612555103016905
-5044.102001905441,-2356.0,-2368.0,-16124.0,439.0,146.0,1696.0,0.23179573368842657,-0.7353849434449864,0.6350165740889555,0.04726175441712429
-5044.117617607117,-2796.0,-2128.0,-15740.0,434.0,120.0,1665.0,0.24308527683052633,-0.6278300211759705,0.7378202969819116,0.04858211666787002
-5044.133229494095,-3068.0,-1948.0,-15904.0,286.0,-33.0,825.0,0.2563350600542359,-0.5669199056366387,0.7813243954830169,0.049257959793662195
-5044.14886879921,-2880.0,-1556.0,-15852.0,-317.0,33.0,-219.0,0.2389029383240684,-0.588797890806368,0.7694911269146071,0.06423266646953865
-5044.164519309998,-2880.0,-2308.0,-16104.0,-272.0,-39.0,-316.0,0.22888679044213855,-0.6151180577746188,0.7504672193626095,0.07771463712088096
-5044.180104017258,-2416.0,-2080.0,-16032.0,122.0,61.0,431.0,0.22807072379359647,-0.5844775542229326,0.7750930660533747,0.07483630478466305
-5044.195769548416,-2324.0,-2068.0,-15916.0,333.0,140.0,595.0,0.23100560829338027,-0.5375903192945882,0.8089582181158919,0.05674203803626859
-5044.211361885071,-2764.0,-2112.0,-15672.0,21.0,101.0,-18.0,0.2246606224903898,-0.5389704569727072,0.8102699323677445,0.05001087795302739
-5044.226944208145,-2756.0,-2356.0,-15612.0,-41.0,37.0,-32.0,0.21997742095257317,-0.5422469520021023,0.8093450991756356,0.050385392286502455
-5044.242534399033,-2688.0,-2388.0,-15992.0,-111.0,147.0,76.0,0.20370451018813154,-0.5396300447441592,0.8151941066095187,0.05255907045923426
-5044.258164167404,-2800.0,-2912.0,-15980.0,293.0,-66.0,1100.0,0.2158558940938832,-0.45369335210098904,0.8629393465625932,0.05389118108209394
-5044.273776769638,-2476.0,-1736.0,-15840.0,751.0,322.0,1859.0,0.20906101669056,-0.2965039586282744,0.9316715334596731,0.019158485299550398
-5044.289397716522,-2836.0,-1696.0,-16204.0,669.0,23.0,514.0,0.22274015107927927,-0.2419321466205491,0.944009517192383,-0.02648948808408688
-5044.304988145828,-2604.0,-884.0,-16744.0,1223.0,549.0,366.0,0.20238385629133443,-0.18540041803032103,0.9526712898985221,-0.13070911639941918
-5044.320574045181,-3044.0,-1356.0,-15124.0,-1056.0,-27.0,-3951.0,0.13398844029915094,-0.501801721127534,0.8480034525888093,-0.10550959642186525
-5044.336170911789,-3480.0,-3012.0,-16424.0,-443.0,-584.0,-2938.0,0.12641728444311956,-0.7055392499255169,0.6928727592512848,-0.07848806594685308
-5044.351804256439,-916.0,-2792.0,-15940.0,-497.0,438.0,27.0,0.06915994231384613,-0.7052287356663786,0.7016254890480518,-0.0747730291457332
-5044.367438554764,-2276.0,-2676.0,-16676.0,1416.0,-254.0,2550.0,0.18277684390087118,-0.525308859443682,0.8214253939457578,-0.12610927683826828
-5044.383060455322,-2964.0,-1692.0,-15908.0,1111.0,-41.0,1110.0,0.24639931975846716,-0.4245239473039037,0.8515566817976229,-0.18416843126306726
-5044.398662805557,-3340.0,-1128.0,-16020.0,997.0,-363.0,-1286.0,0.28645778376775205,-0.4992588715189037,0.7720876083529853,-0.2693756528647421
-5044.414259433746,-2544.0,-1464.0,-15876.0,-495.0,-279.0,-2967.0,0.20671061978090938,-0.6944154945150569,0.626212184568235,-0.28795162882935715
-5044.429870605469,-3016.0,-2500.0,-16696.0,443.0,-697.0,-1651.0,0.22714716177863065,-0.784116030378092,0.4961716057424691,-0.2956010071954348
-5044.445489883423,-2560.0,-2336.0,-16260.0,554.0,-813.0,-600.0,0.2832465502938568,-0.8160532313036496,0.42267316511954384,-0.2741822585677796
-5044.461086511612,-2944.0,-2120.0,-15984.0,731.0,-985.0,-802.0,0.3494596074368522,-0.8443568421340785,0.3212011726785107,-0.24853432877853596
-5044.476727485657,-2928.0,-2764.0,-16120.0,-123.0,-1045.0,-1809.0,0.32489882943882314,-0.9065909689974637,0.1562124035605527,-0.219388355514502
-5044.492345333099,-2488.0,-3172.0,-15704.0,-227.0,-936.0,-1479.0,0.28780745738342334,-0.9401253217261687,0.016875432917555257,-0.18178687160408952
-5044.507971048355,-2264.0,-3444.0,-15640.0,-181.0,-1020.0,162.0,0.2756957496156974,-0.9566947079332635,0.00743428939039459,-0.0931226116342653
-5044.52356171608,-2412.0,-3348.0,-15728.0,-52.0,-496.0,1531.0,0.2811271992234718,-0.9516998491427993,0.12257735278379285,-0.014480593318541374
-5044.539169311523,-2868.0,-3144.0,-15924.0,289.0,-528.0,2433.0,0.30632649140489543,-0.8980916205594854,0.3041702843100296,0.08411872494967747
-5044.554803609848,-2644.0,-2268.0,-15508.0,71.0,-486.0,2612.0,0.29741970876089235,-0.8021030028150059,0.48360976768721625,0.18518607483624014
-5044.570418357849,-3636.0,-2704.0,-15840.0,-22.0,-322.0,1923.0,0.27422050944682763,-0.7062804758180217,0.6009082108064907,0.2547161633315274
-5044.5860204696655,-3316.0,-1688.0,-15536.0,-637.0,-276.0,702.0,0.2327850318970494,-0.6761836196385724,0.6211785267937748,0.3205059739029579
-5044.601610422134,-3488.0,-3020.0,-15800.0,-777.0,-431.0,69.0,0.2076643021146096,-0.674269493245443,0.5930339502202028,0.38800376543534687
-5044.6171996593475,-2096.0,-2168.0,-15672.0,-613.0,-296.0,1088.0,0.1490675051149236,-0.6153429477142033,0.6270929895527876,0.453746975825685
-5044.63280582428,-2940.0,-3100.0,-16224.0,82.0,-545.0,3129.0,0.057236556662357656,-0.40628973355077513,0.7626027973707871,0.5000895944077691
-5044.648397445679,-2620.0,-1516.0,-15504.0,738.0,-429.0,2500.0,0.00280669450876432,-0.21205307130994727,0.8589047740814245,0.4661632830608713
-5044.664005041122,-3500.0,-1984.0,-15304.0,-101.0,-432.0,910.0,-0.003607895916393602,-0.1258803941295746,0.8682885336641386,0.47980843236464643
-5044.67958855629,-3372.0,-2620.0,-15676.0,-448.0,-497.0,301.0,0.016567093536053106,-0.08201260612612885,0.8514045336872036,0.5177931863833704
-5044.695192575455,-2836.0,-2536.0,-15700.0,111.0,-290.0,1374.0,-0.02295818679513092,0.0330460598944097,0.859529180763207,0.5095002129548776
-5044.710809469223,-2756.0,-2408.0,-15992.0,851.0,-88.0,2751.0,-0.13681651914394624,0.23429780762910427,0.8629081533919313,0.4263511419467015
-5044.726421117783,-3196.0,-1816.0,-15768.0,1164.0,-10.0,2352.0,-0.2410157744675228,0.387867836146415,0.8367075425324864,0.3023084954316792
-5044.742037534714,-4028.0,-2556.0,-15424.0,1033.0,-342.0,1124.0,-0.27790822151223343,0.4530822444935062,0.8255381493788347,0.18965828234169624
-5044.757640123367,-3316.0,-2160.0,-15240.0,872.0,-88.0,852.0,-0.31812158759530873,0.4920424981719529,0.8039329649956177,0.10190497187036214
-5044.773241043091,-3368.0,-2780.0,-15880.0,1349.0,-108.0,1803.0,-0.3770234099956066,0.5711745588914465,0.7276201045619249,-0.046711401474798485
-5044.788868188858,-2804.0,-1884.0,-16736.0,1927.0,-134.0,2328.0,-0.4397182609154411,0.6334578863687061,0.5880694887932517,-0.24403531212764082
-5044.80447936058,-3284.0,-1828.0,-16784.0,2464.0,-672.0,2008.0,-0.4795235763994579,0.6040109879008264,0.4333979433063621,-0.46625539022080653
-5044.820091247559,-3548.0,-1636.0,-16084.0,1916.0,-844.0,-920.0,-0.5745250350454268,0.4461327197229105,0.43086945780404956,-0.5340768585422273
-5044.835721254349,-2900.0,-1420.0,-15784.0,1000.0,-1235.0,-2833.0,-0.672419567246176,0.22334461444293519,0.5355397772089071,-0.4595282970730265
-5044.851335763931,-3040.0,-3468.0,-16112.0,839.0,-1067.0,-883.0,-0.6675117211406416,0.08934017822530485,0.5762087097834978,-0.46306582411593084
-5044.866925001144,-2912.0,-2940.0,-16740.0,3133.0,-678.0,1843.0,-0.5550299180147434,-0.026439574468872202,0.4520410400459039,-0.6977833740672457
-5044.882505893707,-3808.0,-1964.0,-16864.0,4755.0,-806.0,2629.0,-0.31747958288121114,-0.18221383084554438,0.1874658030048251,-0.9115159938289177
-5044.8981602191925,-4396.0,-92.0,-17488.0,5469.0,-1080.0,-376.0,-0.21815732152858935,-0.3828736078533959,-0.20080358488574487,-0.8749246274793213
-5044.9138350486755,-4944.0,500.0,-17984.0,5186.0,-2427.0,-4866.0,-0.3837484094182456,-0.4865047025873388,-0.5964730484148044,-0.5101668699005475
-5044.929543495178,-3968.0,348.0,-17444.0,4175.0,-1266.0,-10135.0,-0.5211207824532594,-0.1118030921379553,-0.8430238039418857,0.07241591448740872
-5044.945167064667,-3708.0,-1336.0,-19148.0,4596.0,-602.0,-11011.0,-0.3120001240279022,0.34127620354357313,-0.6190013768607793,0.6348415321526457
-5044.9607791900635,-3172.0,-2604.0,-19736.0,5676.0,83.0,-8889.0,0.01173773083485641,0.4874232186433189,-0.03113871337369839,0.8725314963550981
-5044.976403951645,-4036.0,-3792.0,-20148.0,7689.0,428.0,-7546.0,0.18964914681274622,0.3521280044923006,0.637798554715819,0.6582188641841556
-5044.992063045502,-3776.0,-2216.0,-19516.0,7174.0,331.0,-5854.0,0.22314906711469432,0.09802866312353493,0.960584086458814,0.13369026850949173
-5045.007685422897,-5168.0,-4296.0,-18984.0,7888.0,449.0,-3803.0,0.12886271033734525,-0.05752809266566899,0.8686519135926858,-0.47489869809310803
-5045.023330688477,-3380.0,800.0,-17128.0,9367.0,-1052.0,2399.0,0.2707252061052844,0.14189718761764974,0.36663120448627745,-0.8787232845568589
-5045.038942337036,-1304.0,6660.0,-14376.0,9482.0,-579.0,9527.0,0.5851612911038035,0.406280828106746,-0.3190495011629397,-0.6250836487337561
-5045.054580450058,-3284.0,11408.0,-11744.0,6489.0,-701.0,9170.0,0.5961589152037613,0.31696834425859016,-0.737648368832896,-0.0007074738228993592
-5045.070185661316,-4772.0,13488.0,-10676.0,-1647.0,-892.0,76.0,0.5764904146335946,0.22352256319022265,-0.7757733302534088,-0.12598494214783967
-5045.085819721222,-5128.0,10408.0,-13372.0,-9858.0,-1371.0,-11363.0,0.33285834488174576,0.2912479232876639,-0.3110878703904903,-0.8411921934487488
-5045.101440906525,-2852.0,6324.0,-16952.0,-14234.0,-1902.0,-13969.0,-0.18990689849257228,0.0584011907752684,0.5131036435256701,-0.8350145638380475
-5045.117034435272,-2120.0,2044.0,-19612.0,-12485.0,-2379.0,-7804.0,-0.35842526857685847,-0.15682096745778518,0.915208346509581,-0.0966032788802211
-5045.1326241493225,-756.0,588.0,-18104.0,-9929.0,-1957.0,-2473.0,-0.26529448718482324,-0.04460741406763413,0.7594194159632047,0.5923775521891805
-5045.148235082626,-340.0,-120.0,-16952.0,-9499.0,-1290.0,1139.0,-0.21076998817075737,0.24282471921004103,0.2316723614610387,0.9181176856820313
-5045.163850784302,-588.0,-580.0,-17284.0,-9093.0,-662.0,6142.0,-0.358515457628322,0.4239971874419196,-0.44357174307465846,0.703517704417313
-5045.179448604584,-1760.0,-244.0,-18172.0,-7730.0,-395.0,10642.0,-0.4866184595499511,0.18275091758776146,-0.8534788702217737,0.03712674280122899
-5045.195111274719,-3368.0,740.0,-17188.0,-8079.0,-133.0,10588.0,-0.26199048657168844,-0.17106810400072278,-0.6802405800000147,-0.6628494867319212
-5045.210716247559,-5592.0,-944.0,-16336.0,-10365.0,-394.0,3438.0,-0.174607036426751,-0.11649746402857201,-0.014888115216210772,-0.9776088521134041
-5045.226322889328,-4372.0,-1048.0,-16976.0,-11796.0,-667.0,-319.0,-0.22457598270299933,0.004810618455072764,0.6950318319274337,-0.6829884615062376
-5045.2419962883,-3464.0,-2572.0,-17276.0,-11723.0,-474.0,455.0,-0.11429717958227671,0.16338270172767871,0.9798285908432884,0.013348411207213702
-5045.257609844208,-3892.0,-3144.0,-17056.0,-10029.0,-624.0,3775.0,0.05688349565058336,0.42839133194169826,0.671848724188052,0.601551682273996
-5045.2732174396515,-4344.0,-2324.0,-16688.0,-9397.0,-388.0,6109.0,0.07880689623215954,0.5434802602462238,-0.03691104859472388,0.8348989485683812
-5045.288863420486,-5064.0,-2236.0,-16316.0,-10033.0,-283.0,5926.0,0.08547994244013739,0.33385701163240866,-0.7368192544733141,0.5816614663717189
-5045.3044974803925,-4376.0,-1516.0,-16624.0,-10470.0,-491.0,6332.0,0.025569855273702587,-0.08638889586824366,-0.9951203006955243,-0.04023342286702278
-5045.32009935379,-4496.0,-2328.0,-15712.0,-11468.0,-455.0,4552.0,-0.05760304163314634,-0.34620567498430643,-0.6269245484296265,-0.6955495171298587
-5045.335715293884,-5444.0,-3468.0,-16464.0,-11105.0,-1072.0,2949.0,-0.19224422112501094,-0.36422698937240133,0.09971142894693924,-0.9057805973822325
-5045.35130739212,-1788.0,-1332.0,-16056.0,-10898.0,431.0,5115.0,-0.09512896732836996,-0.07104818219527267,0.7695867211981281,-0.6274064981631127
-5045.366896390915,-2848.0,-2824.0,-16684.0,-8218.0,103.0,7641.0,0.18962244291258723,0.36860759064166204,0.904579020763632,-0.09954179252716037
-5045.382478237152,-2820.0,-948.0,-15900.0,-7042.0,710.0,7014.0,0.3174787163875615,0.612695255873567,0.567445863820368,0.44924044753793807
-5045.398152351379,-4604.0,-780.0,-15544.0,-8502.0,804.0,3209.0,0.4744539624023603,0.3948384167854931,0.06647819300274317,0.783949432072066
-5045.413796901703,-4360.0,-1620.0,-15588.0,-9927.0,582.0,703.0,0.5772192497330082,-0.039013390228043836,-0.4623375373710007,0.6719671827241982
-5045.429382801056,-5520.0,-4644.0,-14904.0,-8739.0,-132.0,-892.0,0.47157923830782567,-0.34568936123588834,-0.7813769038261983,0.2180871882810137
-5045.444988489151,-4180.0,-5920.0,-15040.0,-6835.0,-390.0,3156.0,0.1490604078015982,-0.6974211800654576,-0.6953395735101185,-0.08881199205564849
-5045.460595369339,-1592.0,-4176.0,-15104.0,-3685.0,443.0,10460.0,0.02342552976365803,-0.9888775757313768,-0.017504006969791052,-0.1458286477717212
-5045.476193904877,-2344.0,-1588.0,-15132.0,-2286.0,875.0,13158.0,-0.003266375754037595,-0.6520245015535835,0.7472187763549919,-0.12852035023988592
-5045.49183344841,-5120.0,-1024.0,-15008.0,-3920.0,1045.0,3725.0,-0.22758766081062504,-0.35714820835022265,0.9038915329957536,0.06024209904676671
-5045.507486104965,-3076.0,-1432.0,-14904.0,-5232.0,1408.0,-725.0,-0.44916643969166126,-0.286907630080518,0.7454754471450155,0.40024977071853146
-5045.523116111755,-700.0,-1796.0,-14896.0,-2139.0,1258.0,4204.0,-0.6727529362863185,0.02431862599769781,0.6687740270662696,0.31552082636378387
-5045.538698196411,-2100.0,252.0,-14244.0,-305.0,769.0,6154.0,-0.7792097042120409,0.33429739764205424,0.5296577287108171,-0.02324171268285825
-5045.554280281067,-4548.0,2668.0,-13736.0,-2910.0,1435.0,-2266.0,-0.7231227950555046,0.40689659181001014,0.47663939780246867,0.29041947473785695
-5045.569846630096,-3108.0,-1044.0,-15084.0,-4717.0,2158.0,-4668.0,-0.4500203263785132,0.3893786736867455,0.33038805684282196,0.7326047271344566
-5045.585430622101,-2540.0,-3636.0,-15704.0,-1768.0,1416.0,1732.0,-0.5254482994797359,0.40609714803049735,0.09995205049820095,0.7409445178530949
-5045.60102057457,-3540.0,-2868.0,-15576.0,811.0,1446.0,2642.0,-0.7117299328200524,0.2882614534862704,-0.007319245770092595,0.6405406043361367
-5045.616616725922,-4872.0,-2432.0,-15492.0,1484.0,1211.0,1554.0,-0.8164599469525912,0.12479752677041182,-0.03799439625998225,0.5624723621539105
-5045.632253646851,-3124.0,-456.0,-16076.0,3746.0,1111.0,4555.0,-0.9542568671308087,-0.18742903005026654,0.01491708009701101,0.2324686450889452
-5045.64791893959,-5724.0,3172.0,-15216.0,4662.0,-21.0,4829.0,-0.8420159761222524,-0.49113806525857595,0.16401265718485505,-0.15130216486262277
-5045.663528442383,-6704.0,4676.0,-14704.0,-45.0,637.0,-9298.0,-0.7568978356600541,-0.4753603630504467,-0.21781134937727475,0.3920413341678708
-5045.679131746292,-3728.0,188.0,-13900.0,-2849.0,696.0,-12498.0,-0.2891025315939727,-0.04907101998501767,-0.5859073049225777,0.755463031035899
-5045.694757699966,-8364.0,-9044.0,-13220.0,-5345.0,1581.0,-32391.0,0.6269046510455535,0.539125003536475,-0.3677927864707245,0.42551528207497863
-5045.71036863327,-6252.0,-9916.0,-19252.0,4876.0,-3737.0,-6884.0,0.4151027917375295,0.9079677794813281,-0.05250752413916156,0.02295960853827375
-5045.726016998291,7012.0,2324.0,-12872.0,12739.0,3615.0,7341.0,-0.3576139152799652,0.8016895979017593,-0.2882985493246705,0.38247878721772244
-5045.7416479587555,-5920.0,-1036.0,-14304.0,9390.0,2177.0,4764.0,-0.8158942045965222,0.23061596092077016,-0.2743862119180518,0.45370158935544874
-5045.757375001907,-5768.0,8324.0,-28304.0,8634.0,-3112.0,135.0,-0.834800831698509,-0.20617354981423822,0.22329691852832134,0.4590626590436534
-5045.772979974747,9392.0,23124.0,-32768.0,4914.0,12447.0,18176.0,-0.7772975063631764,-0.3208751499737286,-0.07212906539884081,-0.5363255752391586
-5045.78857922554,-32768.0,-17928.0,-22356.0,7562.0,-7524.0,-32768.0,-0.6772892785866483,-0.30907507965227826,-0.2629777958482617,0.613672964322452
-5045.804190635681,-2260.0,4712.0,-10596.0,-1695.0,-4667.0,-32349.0,0.2981877876849491,0.2588027125296407,-0.3141246391930662,0.8633834086399169
-5045.819811582565,11560.0,-3304.0,-7184.0,4052.0,3553.0,1008.0,0.20580927884554315,0.06239322120185346,0.054713298433043796,0.9750672190488769
-5045.835444450378,380.0,-6644.0,-15824.0,17545.0,4838.0,25669.0,-0.7176206065428459,0.030271843061446455,0.5114049885464164,0.47177242211958625
-5045.851070404053,-5068.0,4740.0,-17204.0,22002.0,1638.0,23425.0,-0.6082164616328591,-0.12402347703972753,0.4203386818525571,-0.6618204480674769
-5045.866684913635,-9184.0,12988.0,-14836.0,11619.0,-1377.0,-11085.0,-0.6212057288329933,-0.7109956063553481,-0.17251623046410347,-0.2807611804272751
-5045.88229393959,-7400.0,3220.0,-12604.0,-11249.0,391.0,-32768.0,-0.6644228182328482,0.12609420143223352,-0.6127387563018579,0.4088933693548223
-5045.897930860519,-1892.0,-9824.0,-18900.0,-10797.0,-811.0,-25766.0,0.12538950371605032,0.8189595732765236,-0.25329378193409946,0.4994246186664188
-5045.913569450378,7596.0,-7664.0,-19224.0,6016.0,1688.0,9661.0,-0.485808718196235,0.42184808501950977,-0.46797621557462876,0.6058319438147449
-5045.929237127304,4112.0,-2556.0,-17900.0,16988.0,5281.0,32767.0,-0.7720161754843988,-0.5627626512931414,-0.2938402191735647,0.03077578099719948
-5045.944894552231,-16228.0,3464.0,-15996.0,17538.0,-2786.0,13702.0,-0.008573840406724953,-0.9500800064911806,0.2791648150460462,-0.13907363720959082
-5045.960552930832,-10608.0,11564.0,-11484.0,-5129.0,1383.0,-32768.0,-0.28235325407272016,-0.563711737001021,-0.7754697068221988,-0.03394777287143994
-5045.976150512695,-2876.0,-2252.0,-15624.0,-10437.0,-710.0,-29631.0,-0.3190792778066303,0.5812435105653141,-0.7485127368518025,0.008548606362037843
-5045.991783380508,1528.0,-7340.0,-18056.0,-1645.0,377.0,-8113.0,-0.16587077813221357,0.9373291912811249,-0.28256896559791544,0.11855653425691294
-5046.007442474365,2676.0,-5440.0,-18036.0,8173.0,2949.0,13810.0,-0.5197529483266465,0.2575701624659204,-0.7876375940830549,0.20770533093807347
-5046.023079156876,-2364.0,-608.0,-16872.0,11847.0,2661.0,18479.0,-0.43154581713477075,-0.7353451332591668,-0.5103691481713821,0.11206728023985787
-5046.03867316246,-8356.0,2868.0,-14512.0,7750.0,40.0,2810.0,0.032713550501273024,-0.9357253088148871,-0.20772794523460109,0.28319087348552596
-5046.054250717163,-5116.0,3544.0,-14676.0,-1160.0,322.0,-13157.0,0.17608533785710764,-0.46428286587389667,-0.8582447791504282,0.1298124543666841
-5046.069872140884,-988.0,-2224.0,-16120.0,-1878.0,80.0,-13291.0,0.1663745077022521,0.325500997037375,-0.9199232799639891,-0.141808966905496
-5046.085525751114,776.0,-4960.0,-16640.0,2546.0,586.0,-1687.0,0.11584993192044503,0.48750288103317924,-0.8637717295182443,0.05308609557538662
-5046.101175069809,200.0,-2400.0,-16512.0,5847.0,1391.0,5295.0,-0.04335881576025504,0.11558702261522642,-0.8588497755861825,0.49712847059324544
-5046.116772890091,-4108.0,-364.0,-14684.0,3667.0,1169.0,-700.0,0.03556086931417681,0.0978946689681017,-0.6599582682160301,0.744047809333879
-5046.132372140884,-7468.0,-1224.0,-15920.0,-540.0,506.0,-10854.0,0.5613412835639409,0.4992786489998867,-0.43584764828354805,0.4956345644780396
-5046.147999763489,-2740.0,-456.0,-16720.0,-1766.0,76.0,-13031.0,0.7914044891016138,0.5947460449831632,0.03884147813178718,-0.1358212655780997
-5046.163585186005,-2428.0,-2488.0,-15556.0,-1457.0,1251.0,-9315.0,0.5787756157058344,0.3675133850627989,0.48173515137106815,-0.5457874516673218
-5046.179278850555,-4144.0,-3904.0,-15056.0,-1477.0,435.0,-11393.0,0.04595120346361138,-0.1166054240378412,0.6633413722555236,-0.7377464915805158
-5046.194877147675,-1520.0,-1956.0,-15828.0,-1768.0,990.0,-10223.0,-0.5085955098133236,-0.48215814705725335,0.5011050591647654,-0.5076887317082374
-5046.21048951149,-1716.0,-3196.0,-16920.0,-1527.0,1707.0,-5845.0,-0.7948613583957365,-0.5214048347467372,0.2168511170816827,-0.2220540750637974
-5046.226078033447,-2240.0,-3228.0,-16556.0,1956.0,887.0,-1881.0,-0.7363862155480904,-0.6556801944214743,0.030974153175653933,-0.16388845605847296
-5046.241655111313,-740.0,-968.0,-16012.0,1654.0,1895.0,80.0,-0.6304677344374477,-0.717772720748416,-0.10731796276300082,-0.2753100289693918
-5046.257250070572,-3316.0,-2568.0,-16116.0,1015.0,1099.0,-2339.0,-0.5953497227455115,-0.7050941755973663,-0.3292249912207013,-0.2000295386217797
-5046.272865533829,-2160.0,-2756.0,-15872.0,1933.0,620.0,-972.0,-0.4663935726877862,-0.7525227272731514,-0.4465486356739542,-0.12954109877035438
-5046.288470029831,-120.0,-2156.0,-16312.0,1942.0,1609.0,2561.0,-0.23559673669196693,-0.871397034957086,-0.3490998260573144,-0.2515764229311798
-5046.304077863693,-2144.0,-3508.0,-16176.0,3099.0,1040.0,3014.0,0.09148917048496416,-0.9361455252237598,-0.19516459105111636,-0.2777986135446947
-5046.319688081741,-3132.0,-3164.0,-15628.0,2050.0,795.0,2308.0,0.3164510453923083,-0.9055216380818334,-0.0481169641317978,-0.27852119595902863
-5046.335322856903,-2052.0,-2296.0,-15704.0,2231.0,296.0,2413.0,0.5309182007167623,-0.8139368641917205,0.09277295345615773,-0.21685438516305325
-5046.350925922394,-2120.0,-3392.0,-15660.0,2430.0,948.0,4317.0,0.7114748027702444,-0.5937098369032106,0.3637336031836414,-0.09492154919959134
-5046.3665227890015,-3076.0,-4052.0,-15364.0,2896.0,64.0,2497.0,0.8347402071625998,-0.3171485781940094,0.4489072003475543,-0.03328500220488347
-5046.382157325745,-2232.0,-2356.0,-14552.0,1737.0,1096.0,-209.0,0.825804852993883,-0.19269171919123038,0.5099215866687501,-0.14455525440503209
-5046.397782802582,-2964.0,-4100.0,-16400.0,759.0,460.0,203.0,0.8179083420405399,-0.12290091597662449,0.5354616357137485,-0.17088635273584218
-5046.413377046585,-404.0,-2540.0,-16676.0,1811.0,579.0,1602.0,0.8150355582922587,0.08771210064251085,0.554331361543099,-0.14401516493021943
-5046.42896604538,-1528.0,-2060.0,-17428.0,3062.0,387.0,4720.0,0.7465158130411013,0.48333284831555645,0.45536771518011504,0.04175814400085961
-5046.444561481476,-2204.0,-192.0,-15800.0,2007.0,-285.0,-2026.0,0.660000511805725,0.5187660299546774,0.5139044613845926,-0.17658803795913172
-5046.460139751434,-2452.0,-1920.0,-15920.0,-70.0,-180.0,-3688.0,0.5845558166318464,0.32998074661511356,0.6393661076102993,-0.3749909126158424
-5046.475760221481,-844.0,-1864.0,-15156.0,-455.0,175.0,-4652.0,0.40315156137512964,0.04909031877069445,0.7382105813743675,-0.538613123411141
-5046.491340875626,-2500.0,-4788.0,-16244.0,-691.0,72.0,-2877.0,0.25764376407829886,-0.15216393515627197,0.7607796607130155,-0.5759167782889408
-5046.506972551346,-2136.0,-3984.0,-16548.0,685.0,-25.0,-1110.0,0.21117300645240583,-0.21037796155020005,0.7067068151851018,-0.6416483086635271
-5046.522597551346,-2288.0,-2904.0,-15732.0,806.0,84.0,-1830.0,0.11652270902032498,-0.29918834750483103,0.6203764693227498,-0.7155709799247957
-5046.538201570511,-3876.0,-3108.0,-16312.0,705.0,-1075.0,-2628.0,0.02814708736198751,-0.4858901748430553,0.48161144503711556,-0.7288133474856805
-5046.553785085678,-1696.0,-1452.0,-15012.0,-690.0,-763.0,-5611.0,-0.29173331492510735,-0.6911692291907139,0.2559356235827634,-0.6096504950904449
-5046.569397449493,-1388.0,-2944.0,-15684.0,-563.0,-282.0,-3077.0,-0.46578675416093734,-0.7337010655231042,0.10375559101148046,-0.48369434918379867
-5046.585000514984,-1728.0,-3948.0,-15524.0,-1436.0,-248.0,-3767.0,-0.673715312523699,-0.679171038613374,-0.06290554520152249,-0.28438929368530086
-5046.600644826889,-1836.0,-4804.0,-17092.0,-245.0,-420.0,-23.0,-0.6902994722451907,-0.6746833416896175,-0.03348720256782902,-0.25916719377406394
-5046.616245269775,-384.0,-3360.0,-16568.0,990.0,73.0,3136.0,-0.5388759138123199,-0.7132486880621081,0.11954141373207156,-0.43197095839136773
-5046.631882190704,-1752.0,-2552.0,-16516.0,1982.0,437.0,4539.0,-0.2281928250486056,-0.6814396616643077,0.28148743680779115,-0.6358717205746378
-5046.647471904755,-1296.0,-728.0,-16044.0,427.0,-24.0,448.0,-0.176998433018756,-0.6794782031959448,0.2845913683685625,-0.6526780823197793
-5046.6630873680115,228.0,-2956.0,-15560.0,-1152.0,856.0,1333.0,-0.18781499372526037,-0.5717260672993207,0.41020270326201347,-0.6852653313417874
-5046.678679704666,-2200.0,-4432.0,-16940.0,2023.0,945.0,4835.0,0.15285367869816943,-0.3404604918977817,0.4671661300938627,-0.8015473867827663
-5046.694267511368,-2040.0,-1180.0,-15704.0,1635.0,696.0,1536.0,0.27478928186184215,-0.2032536256125165,0.39966813615701785,-0.8505552275954781
-5046.709877252579,-2680.0,-1988.0,-15720.0,331.0,612.0,-1524.0,0.14465027773385475,-0.20098526033335629,0.3592170016621026,-0.8998024049740813
-5046.725509643555,-3228.0,-3080.0,-15484.0,-622.0,-109.0,-4804.0,-0.221086097152967,-0.33899210504602,0.2972434171153168,-0.8647841588186884
-5046.74112868309,-2828.0,-4432.0,-16320.0,449.0,-486.0,-3822.0,-0.4580307549829882,-0.45808694072254125,0.15149191614230859,-0.7466018896123344
-5046.756728410721,-1148.0,-3332.0,-16016.0,-20.0,-387.0,-1496.0,-0.5461305924474094,-0.4980150063758026,0.10763387023216123,-0.6649341165832876
-5046.772331953049,-1900.0,-3820.0,-15236.0,839.0,-495.0,-726.0,-0.5439600054763951,-0.5705907698588653,0.05081117002385508,-0.6131491749931613
-5046.787960290909,-2716.0,-3416.0,-16048.0,770.0,-144.0,151.0,-0.49555845972936075,-0.6129426997596925,0.023947927838909644,-0.614938660806251
-5046.803566932678,-2760.0,-2776.0,-15700.0,-477.0,-456.0,-3467.0,-0.6747796877060815,-0.5966218972847901,-0.1110277115828848,-0.4199851568808691
-5046.819179534912,-2828.0,-4288.0,-15872.0,-920.0,-736.0,-3858.0,-0.8216535394902177,-0.5020675839468509,-0.2215843403255434,-0.15399344893683778
-5046.834824085236,-1224.0,-4528.0,-16024.0,-347.0,-447.0,-672.0,-0.8518802946985231,-0.46904336812539943,-0.21383166500106543,-0.09259752353497876
-5046.850451231003,-1036.0,-3648.0,-15408.0,420.0,184.0,1130.0,-0.8173408045491642,-0.5171713909877279,-0.1837651645338475,-0.1752658719391532
-5046.8660588264465,-3016.0,-4016.0,-15780.0,-116.0,147.0,1267.0,-0.7957360832905093,-0.52392959639468,-0.13460388475560103,-0.2723667710641081
-5046.88165807724,-3256.0,-3808.0,-15844.0,166.0,-554.0,788.0,-0.7729704836937297,-0.5560992678655208,-0.06393329536049812,-0.2986348428466794
-5046.897248744965,-1204.0,-2620.0,-15056.0,-1439.0,121.0,-788.0,-0.8537835686807844,-0.4471715739536937,-0.0721391257006239,-0.25668491938879034
-5046.91290473938,-1976.0,-4696.0,-16068.0,-76.0,165.0,2085.0,-0.7957157308073254,-0.4438583127934014,-0.0014128207720984578,-0.41209741305597253
-5046.928574562073,-2248.0,-3392.0,-15340.0,-373.0,765.0,1413.0,-0.7513986380307559,-0.3869119565880946,0.013460515415045263,-0.5343388804302552
-5046.944162130356,-2676.0,-4020.0,-15632.0,-800.0,205.0,1235.0,-0.7149893081692491,-0.3210286829249856,0.07839631911712805,-0.6161046105102553
-5046.959864139557,-1284.0,-2988.0,-15776.0,308.0,714.0,2906.0,-0.5367113091463376,-0.2729957775811059,0.09559444565392139,-0.792638617541078
-5046.975463628769,-2272.0,-3028.0,-15352.0,-392.0,1212.0,1358.0,-0.4561723405900701,-0.15763057188329613,0.09722115466689615,-0.8704064829569904
-5046.991112470627,-3532.0,-3860.0,-15536.0,-672.0,561.0,314.0,-0.4447981310929826,-0.08532116528333222,0.1301387597971812,-0.8820084038881577
-5047.006774902344,-856.0,-2576.0,-15376.0,-1474.0,1278.0,-741.0,-0.5187418780935769,0.060807294549591565,0.18573458634663473,-0.8322932177280746
-5047.022384881973,-1444.0,-4020.0,-16388.0,-918.0,2005.0,2522.0,-0.34855388059193865,0.2774078235306001,0.1425656059156113,-0.8838722417737933
-5047.038021802902,-3736.0,-3932.0,-16584.0,42.0,1046.0,2477.0,-0.16696279813981707,0.3776302178436853,0.04642623474538945,-0.9095952107042009
-5047.053602695465,-2276.0,-1620.0,-15848.0,-1197.0,1050.0,817.0,-0.0661056108173547,0.4762286162935545,0.09807986144966443,-0.8713304160992003
-5047.06920671463,-2904.0,-3228.0,-16060.0,-1564.0,-861.0,-269.0,-0.014033742661084762,0.41266245655820294,0.23039826388991655,-0.8811523086338615
-5047.084794521332,836.0,-1796.0,-14424.0,-2754.0,306.0,-563.0,0.03463445109361601,0.4159746637749038,0.4487634973323977,-0.79017520674645
-5047.1003794670105,-1220.0,-5100.0,-16256.0,-1743.0,756.0,3521.0,0.2936433130649289,0.5672599910995351,0.418832702912306,-0.6454214701736994
-5047.116018295288,-2180.0,-2916.0,-15860.0,-1066.0,378.0,2480.0,0.4593287475414409,0.6343369756720564,0.3560249568259355,-0.5097842024762351
-5047.131602048874,-2772.0,-3156.0,-16612.0,-2366.0,-19.0,1721.0,0.6465305549310878,0.5738970181656108,0.35405368137871324,-0.35677225898786025
-5047.1472136974335,-2204.0,-2184.0,-16580.0,-2366.0,-564.0,548.0,0.7810630913117572,0.4299230242558185,0.3602035486132598,-0.27451783944156993
-5047.162816524506,-2076.0,-4004.0,-15932.0,-2686.0,-640.0,669.0,0.8908689859836075,0.24527319869818157,0.3456097179649671,-0.16354641745106205
-5047.178457021713,-1044.0,-2324.0,-15488.0,-2935.0,-749.0,1063.0,0.9546066971646311,0.037156665017757995,0.2954313387742512,-0.008109256639552918
-5047.194071054459,-1708.0,-3024.0,-16576.0,-1910.0,-549.0,3887.0,0.9135835393404402,-0.020731994073991174,0.22311898839203984,0.33934233170475975
-5047.209698915482,-1452.0,-1580.0,-15812.0,-3131.0,-760.0,2485.0,0.8001496883963104,-0.18806466703528335,0.07031231846006532,0.565197607076468
-5047.225371837616,-2212.0,-2076.0,-16684.0,-1618.0,-671.0,4086.0,0.5371300790101687,-0.22671577487193925,0.010080419796852818,0.812397452472289
-5047.240978717804,-1740.0,-1244.0,-15816.0,-3571.0,-214.0,1618.0,0.33291206575288446,-0.35740791400114663,-0.20914445387840777,0.8471645276434789
-5047.256583690643,-3964.0,-2900.0,-16484.0,-3090.0,-1196.0,196.0,0.19225745814986098,-0.34827355406673294,-0.4479000910979866,0.8007047581461573
-5047.272185564041,-1388.0,-1856.0,-15948.0,-4165.0,-873.0,638.0,-0.012235615482545167,-0.3578317048162887,-0.6874498457432453,0.6318381678322544
-5047.287810325623,-1728.0,-3532.0,-16008.0,-2819.0,-1264.0,3445.0,-0.33937319138171035,-0.45608072406528616,-0.6807073780295382,0.4620104713138315
-5047.303416967392,-1180.0,-1596.0,-15604.0,-3089.0,-43.0,4645.0,-0.5861872310675003,-0.5744211838595806,-0.5567915869868274,0.1280935686420873
-5047.319055080414,-3628.0,-2404.0,-16560.0,-2525.0,-1028.0,5017.0,-0.7326741843854452,-0.6065653721575538,-0.2516293441171514,-0.17874468387525028
-5047.334680318832,-2260.0,-504.0,-15932.0,-2633.0,-1052.0,4859.0,-0.7353765755297652,-0.5041074208652294,0.1021425059853823,-0.44120733092475733
-5047.3502805233,-1284.0,108.0,-15456.0,-3866.0,-453.0,3151.0,-0.7147288686902105,-0.22510098039683984,0.3837072138866711,-0.5396859891608469
-5047.365878343582,-4116.0,-2848.0,-16620.0,-3659.0,-1102.0,2431.0,-0.5905723574092644,0.030292639189808318,0.6256765523127096,-0.5087587822937915
-5047.381498336792,-1916.0,-620.0,-15828.0,-4456.0,-1197.0,1608.0,-0.4064200676194652,0.2710050796016092,0.8105123586178967,-0.32318522861351334
-5047.397141933441,-2332.0,-2452.0,-16688.0,-4825.0,-1151.0,4342.0,-0.07643305060852941,0.6213121910889748,0.7669221746329825,-0.141278193770689
-5047.412785053253,-2516.0,-1740.0,-16296.0,-3669.0,-1303.0,6356.0,0.24169311699187937,0.8844126843814029,0.3991821792816207,-0.007226939048226126
-5047.428396463394,-2992.0,-752.0,-16032.0,-3408.0,-906.0,6520.0,0.4535326811239844,0.8725882804434961,-0.10155165320287485,0.15028327158042434
-5047.444065570831,-3240.0,-148.0,-16148.0,-4753.0,-1219.0,4851.0,0.6346831525040476,0.5634151842047673,-0.49822705378014703,0.17751177148737554
-5047.459671974182,-2824.0,352.0,-16584.0,-3653.0,-1416.0,4759.0,0.5977880424817903,0.1552345354770851,-0.763877701865262,0.1871965594076155
-5047.475279092789,-1792.0,936.0,-15660.0,-5223.0,-979.0,3894.0,0.46763267773760736,-0.3127696930907256,-0.8263601618264538,0.024973600902666447
-5047.490881681442,-3148.0,444.0,-16824.0,-3816.0,-1923.0,2839.0,0.19923879112901086,-0.6106534603465945,-0.762773237836197,-0.07472110222062438
-5047.506517410278,-2108.0,760.0,-16304.0,-5110.0,-1128.0,2567.0,-0.11740736816236122,-0.7823308309577957,-0.545734307113713,-0.2763115033312739
-5047.522139549255,-2308.0,140.0,-15544.0,-5918.0,-1736.0,1905.0,-0.48632007082512757,-0.7444288308727004,-0.2224131707455563,-0.39981356399834095
-5047.5377333164215,-3248.0,-1880.0,-17112.0,-4710.0,-602.0,7302.0,-0.4371374496654516,-0.5632572090700724,0.35174450694888637,-0.6065706622990121
-5047.553348779678,-2028.0,1592.0,-17680.0,-3400.0,51.0,10936.0,-0.018971057019893198,-0.06745776508672133,0.7550227935897832,-0.6519433488309642
-5047.568950653076,-6372.0,1716.0,-18036.0,-2174.0,-912.0,9345.0,0.4286052075228738,0.3826608724267571,0.7158238790987508,-0.3968178510474102
-5047.584541082382,-5844.0,4448.0,-17012.0,-5562.0,-1348.0,3903.0,0.7133316774240714,0.3182582129000441,0.6228191501342732,0.0443388557706687
-5047.600141763687,-6864.0,2320.0,-17736.0,-7601.0,-1501.0,946.0,0.8283384594843796,-0.08063649775220612,0.39174006659013433,0.39229181994691215
-5047.6157948970795,-5480.0,2484.0,-19644.0,-6964.0,-1943.0,7138.0,0.4499562285465828,-0.20468787953665538,0.04746405922104942,0.8679800847053946
-5047.631424188614,-4360.0,3832.0,-20196.0,-5379.0,-536.0,13397.0,-0.4093420556233139,-0.1989060348071715,-0.08794829294261745,0.8860815812236748
-5047.647025585175,-7004.0,4460.0,-19276.0,-4699.0,-983.0,13302.0,-0.9613574951492547,-0.036172025991713215,-0.1166793055201801,0.24671702559680342
-5047.6626653671265,-6552.0,5272.0,-19172.0,-8480.0,-961.0,6519.0,-0.8305789188364413,0.45922530532941586,-0.14469945130586018,-0.27984432694156236
-5047.678265571594,-4576.0,3640.0,-20048.0,-10981.0,-1208.0,61.0,-0.29090308910669,0.8818994230229369,0.15002556522175645,-0.3392950488879679
-5047.693868398666,-4184.0,-3068.0,-17432.0,-10588.0,-812.0,-10397.0,0.13855005780630633,0.6049056158637494,0.7841509730744044,0.000573415060808598
-5047.709513425827,-4304.0,-10848.0,-13840.0,-13552.0,-983.0,-25720.0,0.33807034922075874,-0.4834885651340222,0.7804368575497062,0.20703999067894652
-5047.725148439407,-4708.0,-22716.0,-14332.0,-14908.0,-1961.0,-32768.0,0.13165898075270482,-0.9449365416619722,-0.2815538256836557,0.10241234428509353
-5047.740726232529,5404.0,-23020.0,-20876.0,-3973.0,-2947.0,-7602.0,-0.15701187956645787,-0.6095407813605118,-0.7668014444948091,0.12578891149103388
-5047.756321191788,12416.0,-11380.0,-22376.0,18273.0,5427.0,32767.0,0.23690546596767956,-0.9004834680145465,0.31900642953637587,0.17674903660723318
-5047.771950006485,-6100.0,-228.0,-14660.0,26520.0,2759.0,32767.0,0.4551121744678358,0.13543717394423685,0.8796771753803384,-0.026414913969687856
-5047.787547588348,-17100.0,5936.0,-9184.0,9427.0,-2169.0,-13070.0,0.2766301217332001,-0.2871676570157763,0.533534474033733,-0.7458897220980406
-5047.8031322956085,-10628.0,4068.0,-13048.0,-11692.0,-1118.0,-32768.0,-0.6558050391675165,-0.6778664783346342,0.13964024306938821,-0.30152510785706554
-5047.818793058395,-196.0,-4236.0,-18216.0,-8136.0,-3327.0,-30722.0,-0.642960762366061,-0.2276351785416145,-0.4297824228988304,0.5916677720775333
-5047.834432840347,7796.0,-8044.0,-18352.0,4068.0,2059.0,-4594.0,-0.21551191253857682,-0.3394424521580315,-0.3715881943409719,0.8368127933136081
-5047.850035429001,1108.0,-8180.0,-16992.0,11902.0,4062.0,6480.0,-0.1286262366024296,-0.6736116089402292,0.3857558470222227,0.6171670098495373
-5047.865619421005,-5748.0,-3736.0,-16152.0,12120.0,2295.0,1051.0,0.30571939438721024,-0.6099819302089894,0.7298424897427692,0.042280455060333406
-5047.881197690964,-4708.0,-136.0,-15812.0,9462.0,1497.0,-4767.0,0.5345834313456946,-0.487361576675765,0.40281180709976255,-0.5607511895411361
-5047.896775722504,-3624.0,-2540.0,-14876.0,8591.0,1373.0,-9628.0,0.25187313194002103,-0.23699870477585955,-0.2401735026282695,-0.9070326498955582
-5047.9123866558075,-1596.0,-4308.0,-14436.0,9695.0,1528.0,-9582.0,-0.17571350177839118,0.19083030780093807,-0.751610769685872,-0.6064567666450639
-5047.928102016449,160.0,-4292.0,-14904.0,12790.0,2533.0,-762.0,-0.17332887003475794,0.11790967804696927,-0.9593394744669699,0.18900313056870865
-5047.94374704361,-2028.0,-3296.0,-14852.0,15577.0,2925.0,7172.0,-0.11377470545045877,-0.42158927259512013,-0.45144092824248,0.7781509429024338
-5047.959347724915,-4728.0,-1192.0,-14276.0,15842.0,2098.0,7446.0,0.025111070192705,-0.5531261413777042,0.4780990494844061,0.6817933739488059
-5047.975007534027,-5232.0,-680.0,-14016.0,13029.0,1795.0,2404.0,0.28379115128263505,-0.3457106760560647,0.8936379897364287,0.03684907345334181
-5047.990620136261,-4724.0,-744.0,-16152.0,12674.0,618.0,3339.0,0.3992441170666764,0.14900034149062172,0.691080687903425,-0.5837897875350827
-5048.006281852722,-4236.0,588.0,-16168.0,12531.0,1056.0,3228.0,0.22302017742201324,0.5520314406849189,0.03159677788457017,-0.8028231016763901
-5048.02188372612,-5808.0,1100.0,-16444.0,13022.0,-204.0,3340.0,-0.11011418246016576,0.5193480551760455,-0.6781758564407687,-0.5081633321549464
-5048.037527799606,-3444.0,3964.0,-14756.0,11918.0,407.0,3527.0,-0.3182428510670736,0.14518388207722205,-0.9286809644489753,0.12326716675501564
-5048.0531306266785,-5708.0,1044.0,-13980.0,9921.0,-60.0,-3080.0,-0.30787539621404125,0.08882224243262908,-0.5789962696135998,0.749724395647375
-5048.0687556266785,-4624.0,1340.0,-15892.0,8734.0,-483.0,-5221.0,-0.04363202681304169,0.11176757756926921,0.03410298787793135,0.9921901234432244
-5048.084360361099,-1992.0,1576.0,-15988.0,6306.0,465.0,-3637.0,0.1758021091488456,0.031068628293333928,0.5179930891122706,0.8365473796424894
-5048.099991083145,-2944.0,-548.0,-16592.0,5814.0,468.0,-5295.0,0.43292985582034554,-0.1263057298254236,0.794490464845897,0.4066982958184021
-5048.115605592728,-2216.0,-1816.0,-17316.0,5021.0,493.0,-6155.0,0.5522084203936376,-0.31283228177446726,0.758581500835274,-0.14749891700160872
-5048.131219625473,-48.0,-1364.0,-17460.0,5982.0,778.0,-1042.0,0.5736507663413791,-0.07375608710366575,0.6093436161858999,-0.542388417376879
-5048.1468250751495,-948.0,-948.0,-17244.0,6611.0,2006.0,3629.0,0.5630453401709097,0.45055908203928924,0.34756436274535596,-0.5993124996636998
-5048.16247177124,-4480.0,-948.0,-16644.0,6967.0,1375.0,4137.0,0.3767590642177453,0.8048314250270832,-0.09076779567725367,-0.449511058914612
-5048.178074121475,-4228.0,480.0,-15664.0,4157.0,1622.0,-150.0,0.08531154704351604,0.9377408760114867,-0.17697367457139412,-0.2864337757788869
-5048.193673610687,-4528.0,-168.0,-17168.0,3520.0,903.0,-510.0,-0.19208386583938186,0.9470394489040291,-0.20615747475604804,-0.15401027987105514
-5048.209363937378,-3592.0,372.0,-16820.0,4945.0,780.0,3359.0,-0.4790578639617588,0.7206834919579931,-0.4985887991799896,-0.05027998337197528
-5048.224966287613,-4500.0,1696.0,-14628.0,6147.0,457.0,6374.0,-0.6465956700836089,0.1490632332209198,-0.747949182851705,-0.01631599835502864
-5048.240574598312,-3564.0,5616.0,-13820.0,3833.0,930.0,6447.0,-0.5228376209123065,-0.40629908362021555,-0.7428822371676472,-0.09842691963545296
-5048.256174325943,-4076.0,5884.0,-14972.0,720.0,521.0,5807.0,-0.36787346638336416,-0.7218518701063171,-0.5046331958847264,-0.2982353566669581
-5048.2718114852905,-3592.0,4904.0,-15068.0,-2210.0,197.0,5496.0,-0.3155585692844588,-0.7887140506468981,-0.0953869827318051,-0.5188971566588412
-5048.287419319153,-3944.0,2668.0,-15640.0,-4500.0,-274.0,5209.0,-0.3356639720195284,-0.6177472513207339,0.40661125533243303,-0.5834255037369673
-5048.303031921387,-3112.0,968.0,-16808.0,-5966.0,-620.0,6139.0,-0.25820698628565536,-0.20560064055330493,0.8480759511418251,-0.4145174422533251
-5048.318680047989,-2680.0,508.0,-19144.0,-4828.0,-775.0,9110.0,0.03136557663213772,0.40785121228594146,0.8936913152480274,-0.18436220407033568
-5048.334274291992,-2712.0,800.0,-20400.0,-2329.0,-1351.0,10035.0,0.28234361164920596,0.8610948451345105,0.4225006835305309,-0.017056525434269044
-5048.349863052368,-888.0,3204.0,-19660.0,-3673.0,-690.0,3743.0,0.5348584101908422,0.8241717677602742,0.11781295812360675,0.1441786571348008
-5048.365494966507,-940.0,1220.0,-19108.0,-7211.0,-235.0,-6334.0,0.8703684268969809,0.3262880848134788,0.36161797632248693,-0.07230025152139001
-5048.381138801575,1072.0,-1740.0,-19296.0,-9013.0,630.0,-7935.0,0.7291640520347149,-0.4170938604428408,0.47776592591866907,-0.2570840656911284
-5048.396746397018,2652.0,-3520.0,-19404.0,-5102.0,2460.0,4826.0,0.46036671950317093,-0.407182912237409,0.7753504087538247,0.14524566499909136
-5048.412379741669,-164.0,-4596.0,-16988.0,-579.0,3570.0,16941.0,-0.009227965843803124,0.36990676783360554,0.8350425209334286,0.4071704999019761
-5048.428049087524,-4756.0,-3628.0,-14428.0,-319.0,3836.0,15132.0,-0.4828862015294982,0.7908448296078457,0.196548659393539,0.3205526420816912
-5048.443660020828,-4860.0,-3812.0,-14064.0,-5273.0,3774.0,6905.0,-0.2903375060977379,0.7908309251174807,-0.452107229452606,0.29306933225341825
-5048.459299087524,-3824.0,-4400.0,-16000.0,-4763.0,2483.0,5812.0,-0.010052364593196344,0.5091179911290802,-0.8540710583603885,0.10611525972234699
-5048.474910736084,-3964.0,-4928.0,-16484.0,-2642.0,2863.0,11364.0,0.14852732390304035,-0.2499655293695268,-0.9566222036526647,0.01818866844859862
-5048.49051117897,-7660.0,-1912.0,-17104.0,3391.0,1433.0,15771.0,0.18298418821596088,-0.880804102193853,-0.33996544430694864,0.274088338129526
-5048.50607919693,-11120.0,3164.0,-15084.0,2989.0,386.0,5743.0,0.2493574943158983,-0.881364676710775,0.15598838770273893,0.36970903366959795
-5048.521715402603,-11448.0,4204.0,-14084.0,-6611.0,470.0,-19896.0,0.18035286170670262,-0.6288105850552902,-0.7563397076627377,-0.004509989941357137
-5048.537350893021,-6120.0,-1432.0,-17928.0,-12580.0,-1703.0,-29341.0,-0.21399573944380246,0.37424637884369405,-0.8058336035406864,-0.4059281646140289
-5048.552955389023,644.0,-4428.0,-19760.0,-9296.0,-1438.0,-20569.0,-0.33447751562152955,0.8783600982965967,0.10034241567083414,-0.32640424151867886
-5048.5685250759125,4224.0,-4292.0,-17804.0,-3586.0,657.0,-5719.0,-0.19631390286330394,0.8190096637044653,0.5350174071625016,-0.06663629892475911
-5048.584123849869,1692.0,-5088.0,-15988.0,-354.0,1948.0,3398.0,-0.22883768332837376,0.9412043757120018,0.24678847046073696,0.02937837090673717
-5048.599754571915,-964.0,-2108.0,-14912.0,446.0,1557.0,5597.0,-0.27906176457272774,0.935008053217426,-0.21649215498016994,0.03186877475141922
-5048.615371465683,-3556.0,-1212.0,-16520.0,-259.0,1972.0,3673.0,-0.21666717771674757,0.8141036822430935,-0.530816538780132,0.0923273026573194
-5048.630973815918,-5748.0,212.0,-15880.0,-876.0,805.0,-2942.0,-0.08991051236971939,0.9256595139599977,-0.33166652087379744,0.15832840210217014
-5048.646646738052,-6632.0,-804.0,-15156.0,-2839.0,104.0,-8542.0,0.20482994081892655,0.9387392112408169,0.2503250955956178,0.11895686250960294
-5048.662254333496,-4640.0,-1540.0,-15924.0,-3305.0,-228.0,-9895.0,0.4311362417008661,0.49234987170895933,0.7561093266063238,-0.003439642300491034
-5048.67785859108,-1716.0,-3288.0,-16464.0,-2494.0,498.0,-5804.0,0.44053402127629604,0.013767001829435533,0.8970795223337404,-0.0314416343123625
-5048.6935024261475,-476.0,-3612.0,-16376.0,801.0,1187.0,339.0,0.34444749049960044,0.07371063364436303,0.9325589434639072,-0.07909795030059616
-5048.7091183662415,-828.0,-1548.0,-15816.0,1419.0,1742.0,2717.0,0.20262229078360625,0.33402357057316384,0.9153845240549459,-0.0971783653899285
-5048.7247433662415,-3104.0,-2236.0,-16624.0,1379.0,978.0,1265.0,0.09314378092289922,0.4599844713151757,0.8695212688390721,-0.15385475378023092
-5048.74033498764,-2344.0,-1488.0,-16016.0,525.0,1189.0,885.0,-0.006376136995528182,0.5422979691605325,0.8288817450181476,-0.13721264627229868
-5048.755937576294,-3528.0,-2528.0,-16728.0,1297.0,1220.0,1535.0,-0.1345189491645904,0.6536712626721225,0.7249491271278062,-0.17049133628697813
-5048.771533489227,-3112.0,-1456.0,-15940.0,1377.0,991.0,-535.0,-0.28008242007016976,0.611182608572424,0.7148423896876337,-0.19237987122336206
-5048.787118196487,-3192.0,-1532.0,-15540.0,579.0,689.0,-2952.0,-0.3893473378506198,0.40995265599297737,0.8167172828670578,-0.11541382161244412
-5048.80270409584,-3028.0,-2344.0,-15404.0,-170.0,697.0,-4548.0,-0.44397020107605223,0.09157450341524837,0.8885434735298104,0.07067578459641805
-5048.818349599838,-2116.0,-2604.0,-15760.0,317.0,785.0,-3119.0,-0.46955849086961443,-0.16109036610512495,0.8519393836619186,0.16662534070818094
-5048.834013223648,-1460.0,-2332.0,-16104.0,556.0,1128.0,-1184.0,-0.5222446501802953,-0.28510903770136325,0.7884256995966549,0.15607138813565105
-5048.849626779556,-2848.0,-2988.0,-16628.0,696.0,881.0,-1737.0,-0.5330254321145689,-0.4412776554795211,0.7033366197582854,0.162712995180359
-5048.865222930908,-3560.0,-2752.0,-15568.0,-153.0,508.0,-4488.0,-0.4708178876055638,-0.6669655009795372,0.4696252646814298,0.33606494608430465
-5048.8808579444885,-1664.0,-2792.0,-15340.0,-1983.0,453.0,-5236.0,-0.40498162610406496,-0.7305041203098963,0.07916998229005831,0.5441375989881269
-5048.896469831467,-1532.0,-4200.0,-16040.0,-1741.0,577.0,-1833.0,-0.42206077324372604,-0.6917704034198324,-0.137315145019346,0.5696165057208109
-5048.912145614624,-1756.0,-3672.0,-16640.0,-499.0,826.0,1255.0,-0.49974256850987975,-0.7228312297050543,-0.11577849066082688,0.4629986173656762
-5048.927926063538,-2000.0,-2188.0,-16488.0,29.0,863.0,2129.0,-0.5637868559007307,-0.7654484524239823,-0.01767022190230195,0.3097108507192195
-5048.943529367447,-3424.0,-2176.0,-16164.0,-565.0,450.0,204.0,-0.6048134352467179,-0.7487342731748511,-0.04142270742168397,0.26810791862279904
-5048.959121704102,-3188.0,-1624.0,-16000.0,-1317.0,83.0,-2497.0,-0.6135507390012802,-0.6528231719641855,-0.23286629551476315,0.3783525937942456
-5048.974723815918,-2608.0,-2536.0,-16004.0,-2476.0,-58.0,-3636.0,-0.5933077415322519,-0.41511661504691594,-0.48432365095450175,0.4910139721800096
-5048.990316867828,-2148.0,-2760.0,-16516.0,-1840.0,-90.0,-2541.0,-0.5350001392641612,-0.20131828834088297,-0.6276462485566162,0.5284940722842891
-5049.005950689316,-1728.0,-2524.0,-16152.0,-1100.0,36.0,-780.0,-0.5126664259306308,-0.10820895373883298,-0.689227910984201,0.5004286610243406
-5049.021582603455,-1704.0,-2120.0,-16100.0,-764.0,87.0,341.0,-0.527941133471099,-0.09809878786926723,-0.7215438941823891,0.4370688689164961
-5049.037184238434,-2104.0,-1600.0,-16404.0,158.0,54.0,668.0,-0.5474937789221348,-0.14925469664862523,-0.7112276633846701,0.414884090326768
-5049.052785396576,-2884.0,-1124.0,-16188.0,591.0,76.0,-580.0,-0.5125505544863679,-0.14391606142057484,-0.6993992841068056,0.47688650405709093
-5049.068386793137,-2660.0,-1040.0,-15772.0,-101.0,-351.0,-2419.0,-0.4248422238506254,0.02228654709699721,-0.7026769712295554,0.5703134828809563
-5049.084007501602,-2512.0,-2408.0,-16148.0,316.0,-15.0,-1948.0,-0.3245296281351246,0.12886447706832999,-0.6729378339533214,0.6520959581584569
-5049.09961771965,-2072.0,-2420.0,-15752.0,1157.0,225.0,-1012.0,-0.264250796323173,0.1414580465264898,-0.5968881782692058,0.7442349362653886
-5049.115310430527,-1988.0,-2280.0,-15784.0,1191.0,262.0,-286.0,-0.24523330410371416,0.11124899297304924,-0.5192321625742108,0.8110994078837475
-5049.130932807922,-2124.0,-2540.0,-16216.0,913.0,102.0,-800.0,-0.19174723710701705,0.1200910459082341,-0.44679854662820606,0.8655531159238087
-5049.146522283554,-1796.0,-2568.0,-16252.0,868.0,32.0,-108.0,-0.19087375345565713,0.10709062695472155,-0.37983232318091054,0.8987915298483768
-5049.162139892578,-2028.0,-2712.0,-16104.0,1061.0,74.0,594.0,-0.2435525322424821,0.0636034474067286,-0.30200604816421583,0.9194721922866878
-5049.177730321884,-2076.0,-2536.0,-16008.0,967.0,57.0,442.0,-0.281666275994533,0.02672807294693709,-0.22742003543862935,0.9317885203011504
-5049.193368911743,-2260.0,-2444.0,-15696.0,527.0,-38.0,-425.0,-0.24865348716134889,0.025233058211279236,-0.18264541524845115,0.9508813745071086
-5049.208966016769,-2468.0,-2564.0,-15708.0,-31.0,-217.0,-1655.0,-0.11351917214310031,0.0695190729258645,-0.17533518359964828,0.9754681283607123
-5049.224610090256,-1808.0,-3108.0,-15964.0,-862.0,-491.0,-1087.0,-0.023095102299500757,0.13539536130907356,-0.23563418365327943,0.9620869211665928
-5049.240242242813,-1808.0,-3352.0,-16472.0,-522.0,-191.0,865.0,-0.09312460140997199,0.1342247947783569,-0.28843796910408953,0.9434590881739654
-5049.255923032761,-2408.0,-2920.0,-15876.0,-106.0,-320.0,1225.0,-0.19958572823239437,0.12984867689666552,-0.3073344780267176,0.9213307640636859
-5049.271528720856,-2528.0,-2044.0,-15476.0,-289.0,-174.0,457.0,-0.23743077646322316,0.13649055175491295,-0.33261282533739134,0.9024221097085268
-5049.287116765976,-2532.0,-1972.0,-15712.0,-996.0,-204.0,-697.0,-0.17558050073181192,0.19235600158409258,-0.39652418117111116,0.8803063274587583
-5049.302722930908,-2572.0,-2488.0,-15952.0,-894.0,-192.0,-1063.0,-0.08492786410877622,0.2557393860432808,-0.4414018473745193,0.8558907836041282
-5049.318344593048,-2408.0,-1984.0,-15884.0,-413.0,-99.0,-652.0,-0.030773678213761542,0.2907256258245947,-0.4561791518791668,0.8404951948755552
-5049.3340055942535,-2376.0,-2540.0,-15624.0,-1047.0,176.0,-1330.0,0.09922227817464528,0.33004199755623564,-0.49453188121635605,0.7979131768704756
-5049.349597454071,-3256.0,-3120.0,-16600.0,-369.0,-271.0,-682.0,0.14519345433761383,0.37426806563013315,-0.5018903909849584,0.7661255192877701
-5049.36519575119,-1736.0,-2204.0,-16004.0,-275.0,192.0,27.0,0.16063628073844277,0.35672535467559263,-0.5187307710609899,0.7601719501511246
-5049.38077545166,-1952.0,-2196.0,-15928.0,-189.0,51.0,214.0,0.1545023931767335,0.34099849272831395,-0.5372758091470112,0.7557669901266556
-5049.3963577747345,-2008.0,-2156.0,-16372.0,233.0,96.0,756.0,0.10188516992432706,0.30173021608176814,-0.5420396002762891,0.7776704704340144
-5049.4119753837585,-2332.0,-2264.0,-15932.0,122.0,-134.0,736.0,0.042226726835732836,0.27656690669753253,-0.5533668082628638,0.7845462543237777
-5049.427603960037,-2596.0,-2572.0,-15912.0,35.0,-397.0,166.0,0.010782907643366466,0.2957107148960022,-0.5562938257110136,0.7765153452921933
-5049.443220376968,-1436.0,-2196.0,-16132.0,212.0,-30.0,1656.0,-0.10725813911703082,0.21536476053472742,-0.5788167993116601,0.7791564825807308
-5049.458813905716,-2108.0,-2412.0,-16588.0,875.0,-156.0,2412.0,-0.2884190479016552,0.09367739251169967,-0.5497915093389207,0.7783111814682755
-5049.474441289902,-3048.0,-2600.0,-16332.0,596.0,-278.0,1361.0,-0.39560532506063123,0.031990532043982466,-0.5093072925127053,0.7635961723559076
-5049.490036249161,-2332.0,-2280.0,-15848.0,-48.0,-541.0,868.0,-0.47539568616540706,0.030991431307236847,-0.4945645086253771,0.7269418268121526
-5049.505635976791,-2008.0,-2868.0,-16000.0,-53.0,-419.0,1536.0,-0.5850608217565694,-0.006445667771449688,-0.48036349012128127,0.6533859545253551
-5049.521253585815,-2264.0,-2896.0,-16256.0,601.0,-438.0,2573.0,-0.7300198232757868,-0.11686047611866031,-0.41149341227070824,0.5329989290828994
-5049.536873340607,-2256.0,-2540.0,-16088.0,636.0,-324.0,3040.0,-0.8456260848433067,-0.24267188528061817,-0.3189415457542497,0.3525665484966221
-5049.55251121521,-2820.0,-2352.0,-16116.0,428.0,-703.0,2217.0,-0.905160194125101,-0.3079741511892151,-0.20295229977251678,0.2112990988805648
-5049.568111896515,-2980.0,-2044.0,-15804.0,-120.0,-835.0,1141.0,-0.9369619146489415,-0.3012092422105702,-0.10795950801818373,0.14042830032723277
-5049.583722352982,-2920.0,-2472.0,-16036.0,-323.0,-831.0,758.0,-0.9575148782007492,-0.27058790867819615,-0.024129173836986942,0.09677409090923375
-5049.599318742752,-2768.0,-2308.0,-15456.0,33.0,-746.0,445.0,-0.9592376811733154,-0.26748800399489314,0.048695784933084685,0.07708410514379455
-5049.614934206009,-2672.0,-2072.0,-15456.0,-415.0,-548.0,247.0,-0.9662283709960215,-0.22785684834803568,0.0972870926475274,0.07084640673645054
-5049.630529165268,-3164.0,-3028.0,-16304.0,-501.0,-652.0,675.0,-0.9706002705297098,-0.17539032219888206,0.1618951268434746,0.031037358633776397
-5049.646149635315,-2900.0,-2684.0,-16280.0,25.0,-639.0,1521.0,-0.9553741159266685,-0.15294049457698242,0.2371031263977248,-0.08747348848827977
-5049.661747932434,-3064.0,-2632.0,-16168.0,121.0,-697.0,2016.0,-0.9081831168282194,-0.12459821261092786,0.31602233854996237,-0.24455795480776327
-5049.677363395691,-2852.0,-2076.0,-15592.0,242.0,-597.0,1725.0,-0.841346380843819,-0.1076069155955693,0.3724435267500262,-0.37662028429044814
-5049.692965269089,-3000.0,-2380.0,-15404.0,-17.0,-391.0,787.0,-0.8004418471594619,-0.09335017560063492,0.4081951575566264,-0.4289001135213192
-5049.708559036255,-2588.0,-1952.0,-15536.0,-33.0,-367.0,358.0,-0.7733185821125704,-0.09193107825339196,0.4378351378814,-0.44925208897338215
-5049.724191188812,-2672.0,-2472.0,-15880.0,-222.0,-153.0,520.0,-0.7477410931381415,-0.0629778297022211,0.4607224974036162,-0.4739745045725033
-5049.739848136902,-2812.0,-2472.0,-15748.0,25.0,-139.0,826.0,-0.7058118025093263,-0.037008174543171686,0.4723208601562961,-0.526662225260873
-5049.75542640686,-2484.0,-2328.0,-15704.0,20.0,72.0,1411.0,-0.6388765527918127,0.02310457461546435,0.46825965338153,-0.6099473960430506
-5049.77102637291,-2576.0,-2360.0,-15920.0,496.0,134.0,1956.0,-0.5328682458910723,0.08134457283353899,0.42416700401611496,-0.7276790815294157
-5049.786669492722,-3172.0,-2208.0,-15808.0,388.0,328.0,1771.0,-0.42967113348060637,0.1479226790951168,0.3672521900510322,-0.8115586404971207
-5049.802259922028,-3416.0,-2180.0,-15740.0,409.0,266.0,846.0,-0.38208889579452543,0.17807874733461465,0.3164857532864147,-0.8497839745635274
-5049.817848682404,-3116.0,-1996.0,-15608.0,-89.0,280.0,249.0,-0.36969065739301543,0.2087749272666284,0.3099277008172293,-0.8506977535219428
-5049.833441257477,-3188.0,-2324.0,-15924.0,-117.0,23.0,-326.0,-0.3921304036656439,0.20556218231603612,0.3238729252079988,-0.8361125905281547
-5049.8490262031555,-2628.0,-2280.0,-16112.0,-235.0,125.0,-53.0,-0.3951289600001027,0.22136567349917952,0.3378185870101544,-0.8250751152688794
-5049.8646104335785,-2860.0,-2708.0,-16100.0,-62.0,93.0,254.0,-0.3781964347127166,0.23782105004292592,0.33428758997941904,-0.8298556573964063
-5049.880177259445,-2808.0,-2696.0,-15592.0,-55.0,236.0,935.0,-0.3150379942091469,0.2832035168073159,0.31018747765835847,-0.8510761182036488
-5049.895806789398,-2320.0,-2728.0,-15768.0,212.0,327.0,1573.0,-0.210158809229225,0.34105952224479064,0.24435056120995738,-0.8830653885335379
-5049.911437749863,-2676.0,-2452.0,-16104.0,315.0,419.0,1933.0,-0.07829332192767949,0.4029223485053166,0.15271466019861799,-0.8990005391416124
-5049.927175521851,-3220.0,-2336.0,-16008.0,333.0,367.0,1883.0,0.052083913121706765,0.4483716178120189,0.057175927712553275,-0.8904948464897325
-5049.942791461945,-3228.0,-2096.0,-15952.0,186.0,421.0,1347.0,0.1462244871510249,0.4852006027685041,-0.00793282474511691,-0.8620532725545812
-5049.958385229111,-3324.0,-1920.0,-15752.0,84.0,383.0,592.0,0.1870538149982349,0.5139656957476932,-0.034321110210085465,-0.8364641028060577
-5049.974023580551,-3268.0,-1964.0,-15788.0,-34.0,397.0,-550.0,0.1492919782779308,0.5433536558762633,-0.0006579295882598763,-0.826122434628438
-5049.989946126938,-2964.0,-2216.0,-15448.0,-698.0,382.0,-1680.0,0.060445574853188695,0.5549032744723715,0.13260620913367382,-0.819050841987055
-5050.005580425262,-2636.0,-2544.0,-16212.0,-286.0,323.0,-620.0,0.0261496971764574,0.5683158843807253,0.18446488306581013,-0.8014399265157998
-5050.021250009537,-2500.0,-2344.0,-15828.0,-359.0,545.0,-111.0,0.027346608739365317,0.603047684975676,0.21606005821475768,-0.7674006149855299
-5050.036879062653,-2944.0,-2776.0,-16320.0,4.0,401.0,194.0,0.03251299107073129,0.63330709233924,0.2064902151534137,-0.7451354395345514
-5050.052533626556,-2780.0,-2188.0,-15684.0,-349.0,478.0,27.0,0.04485415516991123,0.6632106404718039,0.22883196379771678,-0.7111790797495758
-5050.068129301071,-3292.0,-2424.0,-15820.0,-84.0,45.0,-345.0,0.02735851869996157,0.6586723479238665,0.2541569438098518,-0.7076768312218795
-5050.083769798279,-2880.0,-2000.0,-15900.0,-260.0,433.0,-818.0,-0.017774285152334274,0.6645135157553234,0.3172384036510936,-0.6763620756774653
-5050.099363565445,-2976.0,-2444.0,-16184.0,-245.0,311.0,-729.0,-0.05506382235563883,0.6615214209999636,0.3726124987837789,-0.6484730609484745
-5050.114979505539,-2724.0,-2044.0,-16180.0,-112.0,378.0,-680.0,-0.09911562652030431,0.6599643630330103,0.41551160715958674,-0.6180398340087621
-5050.130660533905,-2600.0,-2088.0,-16040.0,-66.0,386.0,-664.0,-0.14474943603665016,0.6559614804238356,0.45305015535759735,-0.5860952940415906
-5050.146258592606,-2908.0,-2216.0,-15904.0,-10.0,379.0,-1257.0,-0.2219200912236327,0.6218719731445069,0.5174399161466138,-0.5443185237586883
-5050.161864995956,-3080.0,-2540.0,-16076.0,-241.0,244.0,-1426.0,-0.2851396998662456,0.5692537144465594,0.5967784429506428,-0.4883656930809015
-5050.177491426468,-2072.0,-2136.0,-16088.0,-322.0,373.0,-1022.0,-0.33034463208337456,0.537448531093512,0.6489282768162723,-0.42533938452415815
-5050.193079710007,-3012.0,-2696.0,-16100.0,-245.0,203.0,-1005.0,-0.3658947700164962,0.4931911976226088,0.6964710304405032,-0.37122979893766056
-5050.20870757103,-2684.0,-2224.0,-15784.0,-347.0,217.0,-1335.0,-0.4041706486883723,0.4271314628893801,0.752785634250004,-0.29583540865761415
-5050.224310874939,-2552.0,-2488.0,-15840.0,-593.0,354.0,-1200.0,-0.43288793581286594,0.37573624516178566,0.794675956288411,-0.1998009849737935
-5050.239944696426,-2676.0,-2468.0,-16244.0,-73.0,282.0,-701.0,-0.46098146159054204,0.3341694071777232,0.8066400715283866,-0.15861492483690223
-5050.255546808243,-2856.0,-2092.0,-16020.0,-127.0,353.0,-898.0,-0.49250391031196467,0.28004046836939267,0.8175800500690117,-0.10285959426338412
-5050.271112918854,-3088.0,-2240.0,-15864.0,-480.0,2.0,-1935.0,-0.4906350261055414,0.160307183107332,0.8563714520660809,0.014381039212757227
-5050.28672170639,-2620.0,-2108.0,-15856.0,-656.0,264.0,-2127.0,-0.4889796078866493,0.02861331563398207,0.8579037497175728,0.15518175620857372
-5050.30232167244,-2468.0,-2468.0,-15976.0,-665.0,271.0,-1919.0,-0.4738585551850167,-0.0889237748838696,0.8291519355807555,0.28294469364357777
-5050.318016767502,-2504.0,-2740.0,-16328.0,-592.0,191.0,-1546.0,-0.44915585303761907,-0.17916027373572485,0.7865508697846654,0.384055133070729
-5050.333612918854,-2540.0,-2720.0,-15940.0,-562.0,218.0,-810.0,-0.44384494443559347,-0.21924012198946546,0.74381592481417,0.44908050971050834
-5050.349202871323,-2348.0,-2612.0,-16180.0,-212.0,292.0,240.0,-0.4757429708711432,-0.20681403488456732,0.728466120187677,0.4474747952456948
-5050.364782810211,-2440.0,-2264.0,-16008.0,126.0,412.0,520.0,-0.5188834120764592,-0.19480763926445877,0.7246107674185385,0.40957200111484277
-5050.38036775589,-2900.0,-1972.0,-16116.0,-31.0,257.0,-450.0,-0.5188480915066075,-0.23088119523162,0.7036961259510397,0.4269687271333439
-5050.39599275589,-3060.0,-1916.0,-15852.0,-373.0,167.0,-1365.0,-0.4818509102024888,-0.3018082664334107,0.6499279007531776,0.5043066472614259
-5050.411573171616,-2576.0,-2460.0,-15652.0,-559.0,229.0,-1548.0,-0.43669419927015285,-0.37240799383958845,0.5691669430558608,0.5887779321447261
-5050.4271812438965,-2552.0,-2508.0,-16044.0,-256.0,139.0,-723.0,-0.4136575977874461,-0.40493133188375197,0.5261805366891197,0.6229382401660056
-5050.442833185196,-2232.0,-2392.0,-16140.0,223.0,347.0,177.0,-0.4308552484948229,-0.42356670182322914,0.5317894078316735,0.5934265158122731
-5050.458452939987,-2780.0,-2336.0,-15796.0,244.0,231.0,-204.0,-0.4215794856680451,-0.4540816979993121,0.528040834843692,0.5807352456528748
-5050.474045991898,-2644.0,-2268.0,-15748.0,36.0,220.0,-711.0,-0.39326009813511564,-0.49844710448785795,0.4927001853213691,0.595099577068173
-5050.489638328552,-2580.0,-2580.0,-16164.0,-177.0,239.0,-568.0,-0.38098192224175015,-0.5285745255500136,0.450023673817803,0.6106884957718515
-5050.50522685051,-2456.0,-2412.0,-15936.0,327.0,223.0,-153.0,-0.3660916913729152,-0.557157315270882,0.4527794226099629,0.5920670519534507
-5050.520859003067,-2352.0,-2068.0,-15908.0,42.0,322.0,-295.0,-0.3611059363458467,-0.5865605925054692,0.43011104081602874,0.583569761574034
-5050.536472082138,-2524.0,-2412.0,-16096.0,105.0,189.0,-311.0,-0.3466320345796161,-0.6110350904119588,0.41344902579233384,0.5792600918066211
-5050.552083730698,-2508.0,-2572.0,-16172.0,29.0,222.0,-151.0,-0.3452011502436951,-0.6286108666162451,0.40011901972085884,0.5706043412909002
-5050.567689418793,-2336.0,-2464.0,-15876.0,163.0,240.0,185.0,-0.3535250203335429,-0.6389250318518701,0.41104578379450657,0.5457437377524497
-5050.583308458328,-2464.0,-2200.0,-16332.0,347.0,210.0,281.0,-0.3545876521869388,-0.6491428632849854,0.43643206691624764,0.5122579339843717
-5050.598889350891,-2576.0,-2124.0,-15932.0,76.0,200.0,-369.0,-0.3409804186106109,-0.6742078263261853,0.4125271311640982,0.508917996437709
-5050.614454507828,-3020.0,-2308.0,-15628.0,-115.0,43.0,-799.0,-0.31283931420528716,-0.6999104644348438,0.3582993730346431,0.532802462968358
-5050.630076408386,-2256.0,-2632.0,-15724.0,-223.0,137.0,-481.0,-0.3078532753679791,-0.714613613688523,0.3145045104758638,0.5437284771524984
-5050.645659685135,-2348.0,-2824.0,-15904.0,234.0,157.0,532.0,-0.3221942662934977,-0.7129636341580073,0.3541163664650724,0.5123234428926478
-5050.661291599274,-2472.0,-2400.0,-15872.0,216.0,5.0,317.0,-0.3227171404890044,-0.7092573848932362,0.3831893360369065,0.495957197706216
-5050.6768844127655,-2588.0,-2388.0,-15660.0,-70.0,93.0,-161.0,-0.3229530874698323,-0.7167744105784438,0.36757251375315353,0.4968160572755427
-5050.692505836487,-2440.0,-2376.0,-15904.0,-65.0,199.0,36.0,-0.33471786733296355,-0.7224792036313423,0.3613860495539815,0.48516788104331576
-5050.708086490631,-2792.0,-2496.0,-16064.0,86.0,190.0,136.0,-0.3407675351802159,-0.7287606917704733,0.3680087273130219,0.4662133821748058
-5050.723726987839,-2512.0,-2508.0,-16032.0,87.0,135.0,-14.0,-0.3387649294177046,-0.7373980100480785,0.3666530778496549,0.4550252936674251
-5050.739316701889,-2636.0,-2260.0,-16172.0,127.0,69.0,-381.0,-0.3172637026245779,-0.7557820507851478,0.34496344642697097,0.4573154877512524
-5050.754910945892,-2656.0,-2604.0,-15960.0,-279.0,14.0,-766.0,-0.3045433973437273,-0.7699107513865957,0.28224061358935026,0.4845936339598111
-5050.770458698273,-2252.0,-2924.0,-16140.0,-191.0,-66.0,24.0,-0.31652670917995074,-0.7615230429814037,0.2775110264927917,0.4928297145657626
-5050.78604388237,-1820.0,-2484.0,-16356.0,936.0,275.0,2197.0,-0.34771575053277454,-0.7302814158370938,0.44648315581293074,0.3826690503421007
-5050.801614284515,-2160.0,-1488.0,-16344.0,1032.0,125.0,2272.0,-0.35414069686101035,-0.6618404011313935,0.607722501952419,0.25927786422625076
-5050.81719493866,-3416.0,-1296.0,-15936.0,981.0,-168.0,-1089.0,-0.26148990843314845,-0.7401059917576471,0.567578356583272,0.2484370300303188
-5050.832808017731,-2892.0,-1812.0,-15520.0,-558.0,-635.0,-3928.0,-0.1704691716259855,-0.8571090936321974,0.2984897405071508,0.3836771272178171
-5050.848400592804,-1812.0,-3204.0,-16152.0,-1004.0,-316.0,-2843.0,-0.13723376502762039,-0.8756688313028876,0.05503497610295272,0.4597196352412265
-5050.864070653915,-1412.0,-3368.0,-16532.0,696.0,-202.0,734.0,-0.11192087275937511,-0.8690167460216986,0.14086677764617508,0.46091231739911354
-5050.879678487778,-1896.0,-2728.0,-16296.0,1732.0,56.0,2414.0,-0.0757183782699534,-0.8311644806742077,0.3804514036159058,0.3983579580533443
-5050.895300388336,-2984.0,-2032.0,-16024.0,1608.0,-183.0,898.0,0.01570869507933832,-0.7954195956084062,0.4962680022070405,0.3475326945864184
-5050.91092467308,-3144.0,-1292.0,-15896.0,875.0,-435.0,-1329.0,0.13427718491837914,-0.8301238652962862,0.4255965482611169,0.33426274692847746
-5050.92672753334,-3228.0,-2692.0,-15980.0,162.0,-614.0,-2699.0,0.24058539913232932,-0.8851285921235961,0.22124572087093272,0.33123461794616166
-5050.942329883575,-2500.0,-2880.0,-16276.0,698.0,-638.0,-2301.0,0.36470307405155705,-0.8761945719416295,0.04916802722458374,0.3112189662861368
-5050.958001375198,-1752.0,-2688.0,-16376.0,1720.0,-478.0,34.0,0.491225395573788,-0.7988812409606352,0.0822782227079413,0.33721902030074397
-5050.973609685898,-2152.0,-2712.0,-16288.0,2204.0,-360.0,101.0,0.6323820276961823,-0.6804904854322082,0.1362009887149013,0.34420191887347984
-5050.989217758179,-3128.0,-2488.0,-16108.0,2505.0,-810.0,-799.0,0.7920981545476683,-0.5131074153259049,0.11606403291048342,0.3095649110676169
-5051.0048587322235,-2376.0,-2228.0,-15988.0,1775.0,-596.0,-1896.0,0.9045781339060616,-0.3835759196133152,0.03701211084002951,0.18231296498875796
-5051.020462036133,-2732.0,-2544.0,-16396.0,2756.0,-757.0,-1142.0,0.9825722963050026,-0.15257372823250961,-0.016470398007206913,0.10488882674827965
-5051.036098957062,-3244.0,-3160.0,-16752.0,3065.0,-719.0,-1448.0,0.9913093859573542,0.11351135583650969,-0.06629764161609027,-0.005049368787818656
-5051.051712751389,-3164.0,-2564.0,-16724.0,3466.0,-836.0,-1882.0,0.8972968655888407,0.40007865906682655,-0.11446815010288809,-0.1472835502551278
-5051.067317724228,-3224.0,-3204.0,-17292.0,3298.0,-639.0,-2546.0,0.6971571834444348,0.6342425500200171,-0.11074377808725483,-0.3153475304023956
-5051.0829401016235,-3212.0,-2720.0,-18524.0,3707.0,-799.0,-1728.0,0.41016798425112067,0.8031966245379407,-0.15572570256348497,-0.4029725953304267
-5051.098586797714,-3668.0,-2624.0,-19936.0,4360.0,-397.0,-227.0,0.08494077039870336,0.8858715037074922,-0.2870268173496779,-0.35444654119516533
-5051.114193439484,-4928.0,-3840.0,-19996.0,6883.0,-486.0,411.0,-0.3825628629268714,0.780573385712958,-0.45830643411445726,-0.18521894577795225
-5051.1298179626465,-4188.0,-1376.0,-19844.0,9056.0,150.0,-1207.0,-0.7918383482422303,0.4137076841677496,-0.41252088894906236,0.17794521205767008
-5051.145421266556,-4304.0,-576.0,-21228.0,9250.0,391.0,-2933.0,-0.813327373808344,-0.0959726361219081,-0.14514503718635727,0.5551763272240675
-5051.1610198020935,-4208.0,-1256.0,-22964.0,10411.0,957.0,-3063.0,-0.4099035095910341,-0.6106760161158186,0.19232917119457318,0.6496640717120455
-5051.176654815674,-4944.0,-1524.0,-22164.0,11940.0,798.0,-3968.0,0.294630063590199,-0.7733118536215756,0.4231959066633854,0.3688998878565204
-5051.1922607421875,-4436.0,-1436.0,-19600.0,11401.0,549.0,-6164.0,0.8222652385385301,-0.4804260355252354,0.2571751283478294,-0.1641086689969699
-5051.207876443863,-4540.0,-3064.0,-17276.0,10711.0,-232.0,-6899.0,0.787522242444282,0.08677562876192917,-0.13503216183651448,-0.5950168259623073
-5051.223484754562,-2548.0,-980.0,-15596.0,10251.0,-526.0,-651.0,0.49840409817329123,0.5743861914134869,-0.5198794701097796,-0.38910049421190923
-5051.239106178284,-724.0,4752.0,-13744.0,10752.0,-456.0,10092.0,0.1725267849761668,0.3489296765210593,-0.8653077523172664,0.31579278504794367
-5051.254695415497,-2036.0,10828.0,-10552.0,8799.0,13.0,14738.0,-0.27799841481091486,-0.3508846454627422,-0.5948889540106698,0.6676106495085258
-5051.270261287689,-5296.0,11560.0,-8836.0,1469.0,-522.0,9999.0,-0.6316542958245192,-0.6561094965175087,-0.14270068182963516,0.38751734741986593
-5051.285834312439,-5432.0,10568.0,-9616.0,-6425.0,-1553.0,3141.0,-0.9481582814965496,-0.24344339697413592,-0.07966842559186386,0.18810669223320253
-5051.301489114761,-2232.0,9144.0,-11584.0,-12277.0,-1139.0,1189.0,-0.8397243866692289,0.531431883600035,-0.10984977845140394,0.019394166661238825
-5051.317101955414,-1664.0,5896.0,-14140.0,-13708.0,-772.0,2580.0,-0.13665133310892771,0.959265986611923,-0.12443353167600112,-0.21366206093652726
-5051.332741975784,-2412.0,3532.0,-15524.0,-15051.0,-1226.0,2186.0,0.691140150628938,0.6558098489952835,-0.007338384082360146,-0.3036196341945828
-5051.348344564438,-2060.0,1172.0,-16580.0,-16933.0,-1298.0,1362.0,0.9462727288994883,-0.2235331163615364,0.1591354813885567,-0.1711045498928877
-5051.363972425461,-1320.0,-1648.0,-18364.0,-17656.0,-1126.0,3961.0,0.3614375536590134,-0.8780258584475791,0.21755937038978193,0.22605620331674434
-5051.379576683044,-1296.0,-3812.0,-18844.0,-14945.0,-726.0,10143.0,-0.5194103410835171,-0.611766693039094,0.3624664309036078,0.4738908073929219
-5051.395170927048,-2252.0,-4504.0,-18196.0,-12895.0,99.0,15285.0,-0.9163266929532196,0.22472785652274235,0.31861759793283,0.09124477284548088
-5051.410795688629,-3728.0,-4492.0,-16856.0,-12464.0,744.0,14205.0,-0.4174010605383868,0.8345936658936756,-0.06143503633388835,-0.35419698449060744
-5051.426399946213,-3692.0,-4304.0,-16448.0,-13913.0,1264.0,10792.0,0.5097970892133015,0.7201682616698302,-0.2523066002551386,-0.3972480109211297
-5051.442044019699,-3180.0,-4212.0,-18248.0,-13013.0,773.0,13189.0,0.9471777927342588,-0.06424178270818497,-0.31318096010087665,-0.02539504943537222
-5051.457633256912,-4704.0,-4176.0,-18076.0,-10197.0,1055.0,16795.0,0.4810357257099227,-0.6863897874788206,-0.055060659236029236,0.5426251137203304
-5051.47322678566,-7352.0,-3164.0,-16136.0,-10235.0,559.0,11853.0,-0.4076728926271436,-0.7080964072383583,0.11434900070716199,0.5650899014408415
-5051.488804578781,-8272.0,-2248.0,-16568.0,-11460.0,-357.0,6810.0,-0.9437462973974211,-0.1401906185050956,-0.011293456195786741,0.29926906702659917
-5051.504396438599,-5976.0,-584.0,-14924.0,-13713.0,-19.0,2790.0,-0.7504088747973041,0.6251724426343701,-0.21160430690277254,0.03563081385846686
-5051.519998550415,-4972.0,-2096.0,-15500.0,-14930.0,159.0,861.0,0.039250948517162786,0.964883266813373,-0.19189195523423577,-0.17503463080327328
-5051.5356187820435,-2556.0,-2540.0,-17216.0,-14737.0,973.0,3179.0,0.8127842802553173,0.5295104305112389,-0.1396850562721167,-0.19871714270264682
-5051.551272392273,-2520.0,-4500.0,-17368.0,-12244.0,1178.0,7155.0,0.9514685453978523,-0.2543890804466617,-0.10942413960800527,0.13423919151665248
-5051.566863775253,-3724.0,-4636.0,-16984.0,-9504.0,937.0,8004.0,0.4437221593575961,-0.7656278456674338,0.023494482453159004,0.4651587433639558
-5051.582447528839,-7176.0,-6160.0,-15188.0,-8719.0,-860.0,1703.0,-0.16272225356156245,-0.8401803560833925,-0.1971509640501382,0.47827809360405754
-5051.5980389118195,-6656.0,-6956.0,-14672.0,-9417.0,-867.0,-4984.0,-0.4824957291072999,-0.4275152738580297,-0.6898772716572525,0.3293902124563729
-5051.613626003265,-2540.0,-6652.0,-16196.0,-6836.0,-751.0,681.0,-0.6868440920182725,-0.1362646584287495,-0.7103821098465682,-0.07095346455832417
-5051.629269838333,-64.0,-5572.0,-16332.0,-2304.0,1375.0,9296.0,-0.43645979194138695,-0.43241482182942204,-0.5105681742808439,-0.6015317209360085
-5051.644879579544,-3244.0,-3544.0,-15748.0,1938.0,1201.0,12412.0,0.2298257511895388,-0.6697801818717206,-0.12762130197050903,-0.6944691752305504
-5051.660505771637,-6452.0,732.0,-13936.0,-1168.0,1661.0,-1219.0,0.10390652409761258,-0.567186531043472,-0.09284491791246084,-0.8117158951693956
-5051.676092863083,-5644.0,-940.0,-13956.0,-6201.0,1847.0,-12511.0,-0.6780463174919266,-0.2470068818986319,-0.16163890745517043,-0.6731371741532715
-5051.691709280014,-3932.0,-5096.0,-15276.0,-4962.0,1087.0,-12739.0,-0.9733038233665925,0.18602523215715305,-0.1341985499096856,-0.008064094678751401
-5051.707313776016,-3696.0,-6636.0,-15652.0,-1795.0,1065.0,-9935.0,-0.7025597990631629,0.34119361019810523,-0.046617974530831864,0.6227546977349543
-5051.722936868668,-2448.0,-6716.0,-17392.0,1390.0,1082.0,-914.0,-0.6797409493280802,0.19822256863886925,-0.010202158311666053,0.7060849602240178
-5051.738549232483,-4012.0,-6908.0,-17720.0,7028.0,-481.0,11257.0,-0.9769851009825383,-0.1298919465607868,0.16753554304461898,0.023665090186472563
-5051.754179477692,-4192.0,-2288.0,-15540.0,9791.0,-767.0,11369.0,-0.5324951164118543,-0.48338702527180116,0.2317399159114023,-0.6550439269009225
-5051.769789934158,-4032.0,-676.0,-15004.0,8398.0,258.0,7972.0,0.19159753826712286,-0.4908330175648949,0.05349882735832376,-0.8482400648810465
-5051.78538107872,-8680.0,-1104.0,-15712.0,7607.0,-1108.0,-3204.0,0.23092451136276537,-0.37275989233595364,-0.5382477248234375,-0.719731421740047
-5051.800989627838,-3136.0,-780.0,-16008.0,4603.0,1168.0,-9297.0,-0.10977964759907206,0.1699857946952296,-0.8178899425112091,-0.5386179541324869
-5051.816588401794,-2388.0,-6376.0,-16488.0,3923.0,1232.0,-16280.0,-0.47645006610923596,0.7622805752133262,-0.4355211547985585,-0.04738125029877577
-5051.832244634628,2124.0,768.0,-23772.0,14819.0,892.0,10528.0,-0.7377548423225697,-0.13331674516030695,-0.6577060041704248,0.07326151900988215
-5051.847868680954,-3448.0,8064.0,-15744.0,17988.0,-858.0,18937.0,-0.2805494553265804,-0.9529075733948295,-0.10736704152434377,-0.04161103311679323
-5051.863459825516,-21480.0,12892.0,-15728.0,5415.0,-1219.0,-11609.0,0.0772653566039254,-0.6523805782075706,-0.706705445300947,0.26267291338928417
-5051.8790807724,-6872.0,7392.0,-19100.0,-2267.0,3549.0,-21895.0,0.30569654304005817,0.2748669079978606,-0.9056638197793744,-0.10378271534165306
-5051.894667387009,-4028.0,-2244.0,-18184.0,-817.0,1397.0,-20909.0,0.11797090410691909,0.9198317926215317,-0.17237662279724553,-0.33208227742514584
-5051.910281181335,-4024.0,-6756.0,-19924.0,1263.0,1513.0,-16575.0,-0.2497140362036535,0.6938936413787169,0.64355828053458,-0.20490791622687396
-5051.926073074341,-2028.0,-4816.0,-18340.0,7438.0,90.0,-6877.0,-0.6203068115333484,0.11039572603591431,0.6931646557502682,-0.3500785672630452
-5051.941705703735,3076.0,2120.0,-13432.0,9832.0,2951.0,-143.0,-0.6687294209371737,-0.2535257276826212,0.17480801525095385,-0.6767332005894584
-5051.957393407822,-3644.0,1620.0,-10892.0,6597.0,1677.0,-8505.0,-0.7613853037474075,-0.48520996859284227,-0.3629856503046031,-0.23044548875720108
-5051.97300863266,-4640.0,1236.0,-9644.0,-5545.0,782.0,-29882.0,-0.5545025744602485,0.2981398901810335,-0.553349707232286,0.5453839035997865
-5051.988901853561,2020.0,-3104.0,-14464.0,-12453.0,-244.0,-27143.0,0.37601810208082903,0.7963950921160646,-0.1534066515695405,0.4481424365257077
-5052.004739046097,6480.0,-6968.0,-20348.0,-844.0,1493.0,1350.0,0.3945392339548133,0.6801819884334207,-0.227283592297507,0.5744853559086145
-5052.020498037338,2108.0,-1224.0,-21120.0,11015.0,5449.0,24267.0,-0.5310678147653607,0.11847259058940265,-0.36026415195779893,0.7577208999450316
-5052.0362939834595,-16012.0,676.0,-20224.0,11909.0,940.0,11494.0,-0.787356560452608,-0.4873505864142747,0.15041101792958714,0.3463171643440251
-5052.052092552185,-15000.0,7536.0,-11840.0,1988.0,-2525.0,-21843.0,-0.004337999385149409,-0.38445158742782193,-0.25108933462922195,0.8883311908973011
-5052.067790269852,-6692.0,1296.0,-13324.0,-9696.0,-1980.0,-32339.0,0.6848056598269718,0.15436385742571757,-0.6697681383806867,0.2421232095435454
-5052.083423137665,932.0,-6528.0,-16176.0,-6707.0,-155.0,-18812.0,0.5789731255514535,0.4261686826304981,-0.28246757225230057,-0.635123959916533
-5052.099041461945,3960.0,-7048.0,-18428.0,1856.0,1618.0,1925.0,0.6332847310995681,0.5425154171821925,-0.36210812148001026,-0.416539529737572
-5052.114671468735,3428.0,-2528.0,-16732.0,4988.0,3059.0,10446.0,0.6038034003189482,0.4144274877155583,-0.6008624178348982,0.32036801654136254
-5052.130279541016,-2756.0,-1128.0,-16196.0,6408.0,1557.0,10336.0,0.11231281120584945,0.113809448392744,-0.48730230064432817,0.8584693993860953
-5052.1460502147675,-4832.0,1424.0,-14996.0,2900.0,1333.0,991.0,0.06324872621825703,0.00018146608777883536,-0.2564168118217931,0.9644946782211782
-5052.161821365356,-5700.0,-800.0,-15688.0,-1100.0,201.0,-6210.0,0.5171805947057193,0.10158636563331697,-0.30489362148262317,0.7932492183144358
-5052.177531719208,-2612.0,-1836.0,-17112.0,-1362.0,-199.0,-7014.0,0.8564643456734691,0.2040737779802558,-0.29381668936056243,0.3721484526155933
-5052.193166255951,-768.0,-2504.0,-17172.0,-188.0,452.0,-1341.0,0.9078370798150552,0.20823857247257418,-0.24068413864692198,0.2730195576350653
-5052.2087643146515,-1804.0,-2700.0,-16608.0,2023.0,450.0,1575.0,0.821946147177349,0.31678604636506946,-0.18110536004512232,0.43732365649668015
-5052.224396467209,-2364.0,-1088.0,-15408.0,714.0,471.0,-1130.0,0.846227816137166,0.36536967091296707,-0.08829339283034181,0.37763443110391803
-5052.2400732040405,-2380.0,-544.0,-16276.0,883.0,-15.0,-1736.0,0.8626692510403844,0.4384520883744169,-0.00490144795226059,0.2520664700381747
-5052.2556829452515,-2520.0,-308.0,-16472.0,623.0,200.0,-2942.0,0.8737632247106211,0.4666211519629143,0.13198835056731958,0.037169920616241275
-5052.271295785904,-3100.0,-1336.0,-16316.0,-110.0,130.0,-3743.0,0.8447065629783185,0.3943934082356477,0.27953584831233913,-0.22974849620819426
-5052.286899328232,-3888.0,-2640.0,-16476.0,411.0,-38.0,-4113.0,0.7044160906981455,0.30455380514792757,0.3859257688899842,-0.5119631352374258
-5052.302494287491,-2044.0,-2264.0,-16528.0,-612.0,213.0,-2298.0,0.597851522914594,0.19500985280039437,0.47742227775330154,-0.6136877728652563
-5052.318132400513,-2324.0,-3812.0,-16156.0,1123.0,307.0,1914.0,0.6559084212927698,0.343343441089159,0.39355717827004605,-0.5449882308549432
-5052.333745956421,-2160.0,-1768.0,-15160.0,1586.0,710.0,2321.0,0.6730277575775366,0.5310139061024421,0.28061561505298976,-0.43163960157104614
-5052.349375247955,-2508.0,-1188.0,-15300.0,-30.0,658.0,-420.0,0.6408062068217459,0.5426940974359805,0.33921523811309984,-0.42400889629669936
-5052.364962816238,-2828.0,-2668.0,-16272.0,327.0,315.0,-766.0,0.5856810705484782,0.5484785768768341,0.38003235010901004,-0.4601351401262178
-5052.380559682846,-1084.0,-1092.0,-15144.0,-317.0,614.0,-324.0,0.5660343759795721,0.5451587925997149,0.43882866628200395,-0.4357021662899954
-5052.396142721176,-1976.0,-2672.0,-16472.0,360.0,697.0,1369.0,0.5686894666151725,0.636010467965867,0.3909261741711106,-0.3453399796529907
-5052.411770820618,-1980.0,-1820.0,-15868.0,596.0,809.0,1781.0,0.5527141511402014,0.7391998492182668,0.30951225384260495,-0.22867622256441333
-5052.427350282669,-3692.0,-2176.0,-15924.0,1179.0,1162.0,2238.0,0.4758215894653558,0.8549691139292827,0.19219205410035575,-0.07539126982831484
-5052.442943096161,-4088.0,-1724.0,-15876.0,358.0,1035.0,-327.0,0.4271876754585712,0.8669783298343872,0.2560188583302394,-0.017709029142208975
-5052.458525419235,-3312.0,-1408.0,-16812.0,993.0,1152.0,273.0,0.3235128264074905,0.9037887803003565,0.2743579325725164,0.056859621767694955
-5052.474145650864,-3692.0,-1232.0,-17224.0,2120.0,796.0,-300.0,0.13578016873527554,0.9341633848279185,0.3246688221835157,0.05909883355054366
-5052.489742279053,-2536.0,-308.0,-16028.0,399.0,-100.0,-5264.0,0.12081110837893276,0.717741820586672,0.6854310773581637,-0.02087087120390804
-5052.505343437195,-420.0,-1744.0,-14728.0,-190.0,490.0,-3400.0,0.09279592681388064,0.4915871048764797,0.8657552512544271,-0.014102454087775603
-5052.520941495895,-2160.0,-3480.0,-15804.0,1762.0,822.0,-1365.0,-0.04580272778541448,0.3952894924155338,0.9094386950009349,-0.1207045456819317
-5052.536552429199,-344.0,-1512.0,-15800.0,1102.0,1534.0,-508.0,-0.20776178708463208,0.3615321505838979,0.8963280904417464,-0.15074978675485512
-5052.552138090134,-2456.0,-2780.0,-17272.0,2463.0,1665.0,1469.0,-0.38048123837836606,0.4358912753307387,0.7564619080259087,-0.3049560706698732
-5052.567759513855,-3800.0,-344.0,-17244.0,3058.0,1360.0,-1121.0,-0.5889151918410606,0.28353442598217216,0.6429325199994396,-0.3992804788979014
-5052.583339691162,-3560.0,-848.0,-16988.0,614.0,1249.0,-5699.0,-0.7767251116548947,-0.021475571834961044,0.6218329363898686,-0.09777883185949175
-5052.598912715912,-3528.0,-2296.0,-16240.0,1154.0,221.0,-7952.0,-0.6993184264920521,-0.43334697999762845,0.4767511751522773,0.30963276681665675
-5052.61452126503,-996.0,-2648.0,-15624.0,123.0,664.0,-7151.0,-0.44810596712854966,-0.6409718535865989,0.1434389216101215,0.6064498337874883
-5052.630088090897,-384.0,-4088.0,-16140.0,2746.0,807.0,-781.0,-0.2546911561261221,-0.7754643813194753,0.20670310014137522,0.5395009144458304
-5052.645702838898,-244.0,-1792.0,-16092.0,4178.0,1796.0,2656.0,-0.11743989703089121,-0.8223872977281321,0.49357994390733956,0.25742152608750835
-5052.66134762764,-3080.0,-1936.0,-15940.0,3075.0,1410.0,-650.0,0.054916436646042156,-0.8749082297101354,0.48029379873421724,0.028942036366392126
-5052.676940441132,-4800.0,-2864.0,-15620.0,1116.0,30.0,-5953.0,0.13630298742762142,-0.9894139897952439,0.02536164608129497,-0.04287469327948716
-5052.6925303936005,-2752.0,-4660.0,-15536.0,-688.0,-325.0,-7582.0,0.041033179536347754,-0.8457070976788541,-0.5250871350022337,-0.0859027576268245
-5052.708106994629,168.0,-4876.0,-14940.0,-1008.0,-30.0,-3491.0,-0.057908726195722474,-0.6573497892494508,-0.7390440443622586,-0.13546857383455213
-5052.7237277030945,556.0,-4684.0,-15492.0,354.0,661.0,1307.0,0.020495990006743174,-0.7293759556139061,-0.665874416505989,-0.1555695703174416
-5052.739330291748,-648.0,-3524.0,-15560.0,322.0,440.0,2675.0,0.10014120502644641,-0.8544018423224274,-0.4856078149890784,-0.15541647568203884
-5052.754891633987,-1824.0,-3280.0,-15452.0,-238.0,94.0,1920.0,0.11080623169565434,-0.9235303087824654,-0.3336627522142125,-0.1532413637449436
-5052.770472288132,-2000.0,-2860.0,-15400.0,-1206.0,-166.0,282.0,0.01241483824817788,-0.9401106523966003,-0.29465724091796236,-0.17092379417835368
-5052.786051273346,-2004.0,-3040.0,-15676.0,-1582.0,-383.0,-271.0,-0.12985989528606492,-0.9310323939123447,-0.29071256009057395,-0.17832918013529125
-5052.801640748978,-1760.0,-2544.0,-16324.0,-1453.0,-145.0,261.0,-0.24530896569462374,-0.915897489199649,-0.24324722789427713,-0.20441645420406443
-5052.817207574844,-1816.0,-2336.0,-16776.0,-1111.0,78.0,571.0,-0.32015030356258906,-0.8976289576449216,-0.1784320351517636,-0.24480205546047507
-5052.832867145538,-2328.0,-2220.0,-16600.0,-878.0,-94.0,468.0,-0.3787453199665825,-0.8792001129270272,-0.11996812122220195,-0.2629958059036845
-5052.848503828049,-2572.0,-2728.0,-16228.0,-1455.0,-170.0,-996.0,-0.5087780128619976,-0.8150677712341995,-0.15556348842724674,-0.22936752819842926
-5052.864095449448,-2144.0,-3284.0,-15888.0,-1356.0,-148.0,-154.0,-0.6057844557493853,-0.7505604889671021,-0.13191149032474156,-0.22865586433369922
-5052.87970995903,-1560.0,-3564.0,-15844.0,-136.0,493.0,2867.0,-0.5345905219686812,-0.7431202767036409,0.03149122567466687,-0.40123999162429497
-5052.895304918289,-1644.0,-2044.0,-16324.0,1231.0,911.0,3807.0,-0.30479907330534683,-0.7139955873661066,0.18149943360038717,-0.603627187705018
-5052.910888910294,-1700.0,-720.0,-16504.0,893.0,640.0,2338.0,-0.132689274050992,-0.6508877083651478,0.25673351082700047,-0.7020161337671875
-5052.926601409912,-2272.0,-1256.0,-16888.0,1177.0,-188.0,-14.0,-0.06207827847696084,-0.6729262123325656,0.185114313613549,-0.7134769029145013
-5052.9422335624695,-1760.0,-1140.0,-15740.0,-141.0,-176.0,-2616.0,-0.224540094709412,-0.7072719679132246,0.04025951585696531,-0.6691242639861493
-5052.957844257355,-1592.0,-3708.0,-15760.0,-418.0,-200.0,-2786.0,-0.40024091237187737,-0.6998343314006165,-0.10031872973970381,-0.5830739859745003
-5052.973448038101,-1276.0,-3740.0,-16184.0,860.0,214.0,959.0,-0.2949780825504189,-0.7229177341207698,-0.09239034824555538,-0.6179335757665505
-5052.989058017731,-1544.0,-2824.0,-16484.0,1567.0,515.0,2435.0,-0.05862551013251301,-0.7316115816625496,-0.035388615367606,-0.678273682993295
-5053.0047125816345,-2744.0,-2440.0,-15940.0,1466.0,168.0,590.0,0.06980318284371936,-0.7242736694582458,-0.0845297294123304,-0.6807421628192661
-5053.0203330516815,-2652.0,-2760.0,-15328.0,499.0,81.0,-1455.0,0.015379427914640673,-0.6996221077074054,-0.2038065786410388,-0.6846570368488882
-5053.036007881165,-1984.0,-3204.0,-15876.0,-92.0,41.0,-1575.0,-0.08280375310291327,-0.6632461027455197,-0.29169593029268537,-0.6842233772063303
-5053.0516192913055,-800.0,-2928.0,-16148.0,441.0,388.0,442.0,-0.020906260168235307,-0.6533896536805424,-0.2947069890821545,-0.6969882921076437
-5053.067292928696,-1584.0,-2884.0,-15884.0,1017.0,406.0,644.0,0.08620642441452077,-0.6433833561794733,-0.3187005597409557,-0.6906925963130791
-5053.082918167114,-2248.0,-2540.0,-15788.0,749.0,-61.0,-1354.0,0.04453913771044221,-0.5985322401340103,-0.43644313784665356,-0.6702930778090584
-5053.098533630371,-1556.0,-2696.0,-15904.0,-502.0,-95.0,-2088.0,-0.10559792110641683,-0.5176721393752147,-0.5077727071127669,-0.6804641894207686
-5053.114154338837,-1408.0,-3384.0,-16132.0,190.0,-94.0,-690.0,-0.141826080094078,-0.49361312207592173,-0.548419244082444,-0.6598998268219578
-5053.129831314087,-1616.0,-2916.0,-15752.0,259.0,140.0,-389.0,-0.14618729620346815,-0.469855700936971,-0.5814575676349807,-0.6478981337878346
-5053.145428180695,-2316.0,-3052.0,-15784.0,-57.0,83.0,-799.0,-0.1889839321013295,-0.4229720579477339,-0.6107223702394807,-0.6421821377865078
-5053.1610589027405,-1868.0,-3112.0,-16068.0,-155.0,35.0,-965.0,-0.2459742003375872,-0.3658043705127923,-0.6361060934101691,-0.6332873701634015
-5053.176725387573,-1864.0,-3168.0,-16356.0,248.0,-48.0,-330.0,-0.25872104948862296,-0.35531773545093825,-0.6590766958196704,-0.6102709516706067
-5053.192341327667,-1904.0,-2612.0,-15928.0,-399.0,-194.0,-1515.0,-0.35947580230397436,-0.2670611743968116,-0.6742586529624263,-0.5872229096288768
-5053.20797085762,-1616.0,-3404.0,-15932.0,-1000.0,-178.0,-1287.0,-0.45450123204914444,-0.16743034222060185,-0.64112275922873,-0.5952791934618931
-5053.223558187485,-1192.0,-3444.0,-16060.0,-129.0,19.0,435.0,-0.43228459674285685,-0.18554530867908128,-0.6285695576898718,-0.6193571481718839
-5053.239181756973,-1348.0,-2884.0,-15768.0,201.0,283.0,858.0,-0.36583971386440745,-0.22420214195558702,-0.6343913217087747,-0.6429948322053057
-5053.254733324051,-2232.0,-2508.0,-16088.0,-114.0,17.0,-4.0,-0.3672603212387921,-0.2194184864488628,-0.6288231439178407,-0.6492740853609915
-5053.270324230194,-2112.0,-2572.0,-16192.0,-436.0,-112.0,-956.0,-0.43401136723734624,-0.15869796562061755,-0.6164637778486555,-0.6375119602150302
-5053.2859518527985,-1704.0,-2700.0,-15840.0,-219.0,-86.0,-775.0,-0.4834968993250314,-0.11323329461583716,-0.6104853570257854,-0.6170223644169007
-5053.301547288895,-1764.0,-3316.0,-15796.0,-732.0,28.0,-701.0,-0.5248527568257435,-0.043316765774262626,-0.5771851728832821,-0.624107777278068
-5053.317164182663,-1704.0,-3568.0,-16052.0,-80.0,-27.0,-258.0,-0.5403313630811414,-0.028077068320458438,-0.5726691665207256,-0.6158763853419464
-5053.332744598389,-1428.0,-2780.0,-15824.0,-190.0,266.0,337.0,-0.5088693521133814,-0.021605843524191565,-0.573959603996773,-0.6412141163333688
-5053.348358392715,-2148.0,-2844.0,-16032.0,-53.0,137.0,-34.0,-0.5038842580665126,-0.009831168648306703,-0.5773553771040644,-0.6423898902728716
-5053.363982200623,-2044.0,-2344.0,-16204.0,-215.0,-170.0,-702.0,-0.550715254805678,0.025456711755035683,-0.557491801523277,-0.6206992469668939
-5053.379599094391,-1608.0,-2652.0,-15976.0,-435.0,-97.0,-834.0,-0.5975242513835681,0.08147481501212794,-0.5258945939491376,-0.5998012167229388
-5053.395216464996,-1956.0,-3448.0,-15900.0,-508.0,-108.0,-584.0,-0.6278962225273828,0.12892950940415504,-0.48864195202792027,-0.5919058692554005
-5053.410801887512,-1472.0,-2864.0,-15968.0,-345.0,-27.0,-289.0,-0.6395083486722849,0.15877310221474872,-0.46598281005724146,-0.5904914857326135
-5053.42640709877,-1492.0,-3024.0,-16320.0,-143.0,96.0,282.0,-0.6187441924128777,0.16031988809714692,-0.46792718504352965,-0.6103255748640167
-5053.442027330399,-2040.0,-3020.0,-16048.0,-69.0,40.0,81.0,-0.6117171715250798,0.16301779441798991,-0.467761922558479,-0.6167869036943354
-5053.4576070308685,-1920.0,-2840.0,-15816.0,-411.0,-70.0,-257.0,-0.6219111841593411,0.1916626119777107,-0.43808950868617025,-0.620136682164922
