programtime,ax,ay,az,gx,gy,gz,q0,q1,q2,q3
-5040.534483909607,3932.0,-1728.0,16076.0,136.0,4.0,-34.0,0.9999267446090705,0.011734609391255299,4.694956657811714e-05,-0.002966842375270046
-5040.550067424774,3784.0,-1660.0,16172.0,94.0,-81.0,251.0,0.9995983442773113,0.01975392901767174,-0.0075902910203726115,0.018849930733270143
-5040.565644741058,3800.0,-1752.0,16040.0,48.0,-104.0,-58.0,0.9994789872208404,0.023970253722370292,-0.016759658299889253,0.013648988759584741
-5040.581258058548,3760.0,-1708.0,16056.0,25.0,-132.0,-34.0,0.9991986803781822,0.02615815677398655,-0.028433912727013122,0.010452778181885163
-5040.596859693527,3764.0,-1752.0,16124.0,47.0,-97.0,-247.0,0.9987978104251721,0.030729471186537672,-0.03652096541587317,-0.011173744921481172
-5040.6124403476715,3944.0,-1752.0,16100.0,70.0,-30.0,241.0,0.9985056809961453,0.0357897011206252,-0.040071694615247525,0.00998807302650359
-5040.62805724144,3956.0,-1860.0,16056.0,38.0,-85.0,-4.0,0.9980591443019309,0.038942887085835126,-0.04765168353441407,0.009524341292378604
-5040.643635749817,3964.0,-1912.0,16080.0,40.0,39.0,19.0,0.9980580995074285,0.04205504110534454,-0.04448813512609787,0.011498232831614514
-5040.659261465073,3968.0,-1916.0,16068.0,42.0,-16.0,35.0,0.9977964265218141,0.04533449132466458,-0.04617183626913521,0.014670945851177342
-5040.674878358841,3892.0,-1732.0,16320.0,-33.0,-50.0,-13.0,0.9977286499514068,0.042314655815165796,-0.05071488013175551,0.01322920642400085
-5040.690448999405,3892.0,-1716.0,16056.0,249.0,-57.0,-60.0,0.9963707648374287,0.06404630030294808,-0.05535226660692284,0.008916107685429699
-5040.706039428711,3860.0,-1660.0,16060.0,9.0,-61.0,-94.0,0.996059906145699,0.06504166489164938,-0.06028285703382672,0.0004715347103438414
-5040.721639871597,3816.0,-1724.0,16072.0,13.0,-133.0,-88.0,0.9952025783237722,0.0663390525607291,-0.07148111829348616,-0.00783632123980765
-5040.737237453461,4044.0,-1776.0,15972.0,53.0,-117.0,-62.0,0.994057554546817,0.07094339650676665,-0.0814455509500629,-0.013536431247787162
-5040.752870082855,3832.0,-1820.0,15932.0,12.0,-45.0,-36.0,0.9936232892089564,0.07187237717336667,-0.08523021214863029,-0.016820567116579133
-5040.768491029739,3940.0,-1788.0,16020.0,8.0,6.0,-254.0,0.9930180432429068,0.07413150950139367,-0.08319575708515407,-0.03870595685551983
-5040.784111022949,3932.0,-1808.0,16212.0,2.0,31.0,-54.0,0.9930515021167428,0.07448504294228053,-0.08024840092965838,-0.04313799566276174
-5040.799731016159,3992.0,-1728.0,16188.0,18.0,14.0,-20.0,0.9929716302823084,0.0759249917442505,-0.07906687366811904,-0.04462248952579681
-5040.815323591232,3980.0,-1780.0,15876.0,5.0,1.0,-114.0,0.9924704050704924,0.07683364992435594,-0.07833834647698563,-0.05442599351197959
-5040.830892801285,3880.0,-1696.0,16280.0,17.0,-19.0,-180.0,0.9912671636250189,0.07912227147957403,-0.0789349603775126,-0.069988202612463
-5040.846457958221,3816.0,-1784.0,16004.0,-247.0,-253.0,-202.0,0.9893849390540161,0.05724859821016766,-0.09793461033246811,-0.09082319348646115
-5040.862008810043,3892.0,-1696.0,15888.0,13.0,31.0,-156.0,0.9882710225272932,0.05962128422771059,-0.09462092508903884,-0.103983503668569
-5040.87761092186,3836.0,-1700.0,16028.0,-4.0,-252.0,-234.0,0.9836624708501339,0.058572213981412644,-0.11509586829772175,-0.12542081283072037
-5040.893176794052,3864.0,-1804.0,16020.0,254.0,-30.0,-194.0,0.9795877829140637,0.08164103229524712,-0.11940474293394548,-0.13958877023655658
-5040.908759832382,3856.0,-1764.0,16120.0,35.0,14.0,-159.0,0.9774835988795291,0.08613133562897159,-0.11747032692670775,-0.15266934609156424
-5040.924418449402,4024.0,-1828.0,16076.0,1.0,-25.0,-173.0,0.9748364835274498,0.08732584513638357,-0.1182963540356771,-0.1675529760312194
-5040.940081357956,3976.0,-1840.0,16140.0,-24.0,21.0,-217.0,0.9719215028833905,0.0874949744096136,-0.11447089882312929,-0.18603664963812236
-5040.955713272095,3960.0,-1864.0,16096.0,22.0,75.0,-170.0,0.9696509847638278,0.09194402015268198,-0.10714546414740775,-0.19960740070783586
-5040.971311807632,3908.0,-1908.0,16104.0,254.0,121.0,-188.0,0.9650930932478515,0.1169330846034118,-0.09977958366013116,-0.2120519034930736
-5040.986954689026,3916.0,-1872.0,15888.0,34.0,198.0,-203.0,0.96246029451076,0.12487303756735409,-0.08164943725115052,-0.22673834121192174
-5041.002610445023,3872.0,-1576.0,15992.0,67.0,203.0,-82.0,0.961408546042341,0.13476061176579232,-0.06505857927922279,-0.2308691542312014
-5041.01820230484,3736.0,-1864.0,16052.0,106.0,189.0,-117.0,0.9587056175936906,0.14778150781300825,-0.050000854701286214,-0.23778998984809033
-5041.033800601959,3936.0,-1916.0,16084.0,174.0,330.0,-76.0,0.9558521099165844,0.1691225895170422,-0.025080747905304897,-0.23898796992228385
-5041.049416542053,3848.0,-1776.0,16148.0,194.0,311.0,-84.0,0.9514662854534272,0.19158046644822949,-0.0020360219208767232,-0.24084162251503372
-5041.0650334358215,3852.0,-1700.0,16260.0,196.0,238.0,-102.0,0.9457740970982782,0.21251001960233848,0.015198941500921508,-0.2451934766746491
-5041.080713510513,3780.0,-1620.0,16096.0,85.0,166.0,-178.0,0.9399994668658503,0.2225131699255976,0.03026261922516252,-0.25685222478929837
-5041.096284389496,3652.0,-1684.0,16344.0,-16.0,134.0,-198.0,0.9353826425569453,0.22336403974848495,0.045335479800810506,-0.2703932543937687
-5041.111904859543,3568.0,-1684.0,15988.0,-5.0,193.0,-243.0,0.9287126207296217,0.22620305077518163,0.06580022006056156,-0.2863483524616483
-5041.127502202988,3796.0,-1768.0,16000.0,77.0,322.0,-170.0,0.9206854028056447,0.239137024328727,0.09314858548644304,-0.2940666823658953
-5041.143081188202,3520.0,-1932.0,15948.0,245.0,346.0,-116.0,0.9091957557359428,0.2663240107326849,0.11686443299150161,-0.29795520361386413
-5041.158674955368,3436.0,-1916.0,16120.0,293.0,297.0,-40.0,0.8978033761472785,0.296463620788821,0.1335225063825018,-0.29703562011426415
-5041.17426943779,3648.0,-2040.0,16144.0,337.0,267.0,41.0,0.8864985936023302,0.3298211181484665,0.144419414752029,-0.29065668099506536
-5041.189881563187,3592.0,-1580.0,16120.0,266.0,235.0,70.0,0.8773149411375119,0.3568657707760535,0.15364218370970348,-0.28170799614176895
-5041.205509185791,3636.0,-1384.0,15904.0,187.0,266.0,-26.0,0.8670330002510082,0.37703123676857714,0.17003838555916942,-0.2778275911656786
-5041.221133947372,3652.0,-1044.0,16068.0,52.0,501.0,-159.0,0.853228946198441,0.3901606434802541,0.21158597625818826,-0.2738729857051279
-5041.236727237701,3600.0,-1544.0,16108.0,-113.0,312.0,-289.0,0.8438858996483463,0.38341454520922186,0.24707138370209517,-0.28249886062113394
-5041.252319812775,3668.0,-1848.0,15936.0,-143.0,263.0,-321.0,0.8345722742664627,0.37201115564532106,0.2803919845152345,-0.29406998167229764
-5041.2679624557495,3696.0,-1988.0,15880.0,-66.0,248.0,-345.0,0.8213114080277053,0.36471802938509706,0.31101705614666697,-0.3093488659601977
-5041.283553361893,3676.0,-1884.0,15976.0,125.0,232.0,-290.0,0.8028336116242483,0.37171352653161,0.33319010998339216,-0.3259932466310535
-5041.299147367477,3672.0,-1892.0,16012.0,183.0,268.0,-229.0,0.7822151349996931,0.3851404512593463,0.3538645204814428,-0.3385058589235901
-5041.314728021622,3508.0,-1768.0,15880.0,112.0,164.0,-166.0,0.7683805064613772,0.39228121335515853,0.3671280382473508,-0.3477410681403819
-5041.330307722092,3644.0,-1748.0,15888.0,-13.0,69.0,-205.0,0.7603505515082365,0.38674484184732194,0.3789930143349991,-0.358691735632258
-5041.345907926559,3708.0,-1680.0,16036.0,-117.0,99.0,-158.0,0.7560323873567293,0.3766657733359131,0.3943776358139594,-0.3619450301285192
-5041.361527204514,3736.0,-1700.0,16304.0,-145.0,72.0,-147.0,0.7536323041641665,0.3641312237411997,0.408356887309,-0.3642683826579658
-5041.377152204514,3616.0,-1924.0,16064.0,-169.0,150.0,-233.0,0.7460411945929972,0.34922616038187526,0.43071890979154565,-0.36870699155721076
-5041.392760038376,3628.0,-1964.0,16200.0,-59.0,300.0,-265.0,0.727670928546482,0.34475616087356725,0.45983355005989834,-0.37442130752313074
-5041.408343076706,3672.0,-1816.0,16132.0,152.0,366.0,-318.0,0.6974193430930776,0.3531669656607183,0.48709577331607906,-0.3893803562883365
-5041.423969745636,3604.0,-1516.0,16124.0,284.0,313.0,-426.0,0.6600608436730753,0.3623995260204736,0.5088301455202153,-0.4172267359597184
-5041.439558506012,3608.0,-1992.0,16128.0,68.0,144.0,-263.0,0.6417851258381894,0.3596668081196091,0.5226876276989687,-0.43075431888761834
-5041.455160856247,3652.0,-1736.0,16032.0,16.0,-21.0,-433.0,0.6255887175481415,0.3396934138583712,0.534026569595568,-0.4561389744625064
-5041.470783948898,3632.0,-1340.0,15888.0,252.0,19.0,-512.0,0.5961800028860305,0.3298576541555403,0.539444135688693,-0.49473564317208396
-5041.486445188522,3524.0,-1356.0,16208.0,-62.0,181.0,-645.0,0.5606930124910147,0.3034759920847526,0.5690343871069083,-0.5193510703385442
-5041.502026081085,3376.0,-1636.0,16528.0,-89.0,348.0,-513.0,0.521795641196284,0.28891226024583794,0.6026956613128432,-0.5301103229921812
-5041.5176067352295,3416.0,-1680.0,16580.0,-23.0,479.0,-822.0,0.4576221650108951,0.2658049368991598,0.6439998325925196,-0.5524435765140018
-5041.533190488815,3504.0,-1508.0,16388.0,2.0,541.0,-927.0,0.3808415714834439,0.23876124317756134,0.683944204190777,-0.5746069019252824
-5041.548786878586,3436.0,-1884.0,15940.0,-32.0,505.0,-1270.0,0.2856652372180937,0.18583609588896496,0.7235939367618256,-0.6002267341525208
-5041.56436753273,3632.0,-2308.0,15736.0,-23.0,666.0,-1016.0,0.18969088466009928,0.1550690409884047,0.7535854025544668,-0.6099836078622338
-5041.580025196075,3784.0,-2260.0,15876.0,141.0,659.0,-886.0,0.09680098921227304,0.1335432025909229,0.7653042523771352,-0.6221777742918492
-5041.595608472824,3696.0,-2168.0,16180.0,102.0,692.0,-747.0,0.00876638386101167,0.1215668803678058,0.771174074013946,-0.6248481348938908
-5041.611265182495,3512.0,-2000.0,16588.0,-68.0,656.0,-550.0,-0.06451264304755537,0.11990470090169608,0.778961223008,-0.6121114233851337
-5041.626847267151,3732.0,-2020.0,16608.0,-281.0,609.0,-309.0,-0.11927871860545682,0.1327120264888592,0.792064826860442,-0.583775141097665
-5041.642470121384,3416.0,-1400.0,16736.0,-475.0,700.0,-352.0,-0.17957859573800253,0.14849180092363654,0.810406906053585,-0.5375335893057086
-5041.6580584049225,3220.0,-1280.0,16428.0,-681.0,664.0,-469.0,-0.23875820514797003,0.15645381384254056,0.8344069443230169,-0.4714676816857856
-5041.67364192009,3112.0,-1472.0,16420.0,-741.0,625.0,-576.0,-0.2964905986906624,0.15489787717353473,0.8555584805096133,-0.3951198033043479
-5041.689336538315,3120.0,-1760.0,16320.0,-841.0,696.0,-801.0,-0.3622694130872821,0.1398592465831829,0.8712715761227803,-0.3001434725712136
-5041.704927206039,3196.0,-1764.0,16088.0,-739.0,798.0,-943.0,-0.43529664833434706,0.11152758389084491,0.8700222634505519,-0.20282920667579682
-5041.720505475998,3076.0,-1600.0,16060.0,-601.0,933.0,-1036.0,-0.5142313149089544,0.07156926685252472,0.8478308571682319,-0.10782779067838139
-5041.736092567444,3028.0,-1616.0,16064.0,-576.0,1123.0,-1176.0,-0.5981587894423486,0.020723582995240332,0.8010917016346157,-0.005355491841024581
-5041.751717567444,2964.0,-1736.0,15896.0,-603.0,1194.0,-1309.0,-0.6723566211344859,-0.03825712944356724,0.7316126516286677,0.10590511810212623
-5041.767305612564,3168.0,-1784.0,16032.0,-629.0,1038.0,-1425.0,-0.7181521358050073,-0.1005871379908862,0.6513716018990731,0.2232818258366414
-5041.78293132782,3208.0,-1920.0,16028.0,-712.0,1327.0,-1507.0,-0.7575931153138883,-0.16463340580022184,0.5318261135391853,0.3407484384137693
-5041.798561096191,3316.0,-2048.0,16396.0,-910.0,1239.0,-1626.0,-0.765456514562223,-0.21268029893041912,0.3919010407203571,0.4639579604268278
-5041.81417798996,3292.0,-2128.0,16264.0,-1110.0,1176.0,-1737.0,-0.7403169103982267,-0.24030328968808168,0.23106987719407207,0.5837738543280493
-5041.829822301865,2844.0,-2244.0,16196.0,-1029.0,1179.0,-1779.0,-0.6807011720061816,-0.2639553819640512,0.06366911971918483,0.6803820352976748
-5041.845376253128,2560.0,-2404.0,16232.0,-1026.0,1373.0,-1786.0,-0.5923009102884049,-0.2875519666109232,-0.11731419499125825,0.7434587263750897
-5041.86096739769,2876.0,-2616.0,15984.0,-1208.0,1449.0,-1858.0,-0.4747527075066084,-0.29215519825355923,-0.3090397943471873,0.7705514988360066
-5041.876548051834,2988.0,-2740.0,15784.0,-952.0,1612.0,-1788.0,-0.3270807586504125,-0.3050296048372196,-0.4734268990505561,0.7588425981380428
-5041.892165660858,3044.0,-3008.0,15880.0,-613.0,1761.0,-1636.0,-0.15860445672040255,-0.32883327400220874,-0.5940098336001233,0.7168442102742882
-5041.907762765884,3140.0,-3084.0,16328.0,-339.0,1714.0,-1341.0,0.004376620450238381,-0.35527557036529284,-0.6651877908998435,0.6567231662830515
-5041.923454046249,3128.0,-3280.0,16692.0,-326.0,1427.0,-971.0,0.1312845125965202,-0.3763663546558573,-0.7051417867905447,0.5864194781529629
-5041.939119100571,3072.0,-3084.0,16544.0,-469.0,1116.0,-775.0,0.2225424374578931,-0.3880748267090801,-0.7359983763244569,0.5081133559086795
-5041.9547328948975,2984.0,-2476.0,16080.0,-551.0,953.0,-627.0,0.29119623017222773,-0.3982989237953211,-0.7584946700737197,0.42573296596191706
-5041.970346212387,2796.0,-2212.0,15896.0,-638.0,925.0,-609.0,0.350780410346403,-0.40601894503664343,-0.7750161105257992,0.3338438982728343
-5041.9860100746155,2928.0,-2252.0,15708.0,-710.0,909.0,-701.0,0.40481577846561523,-0.40400221837893785,-0.7872339075029176,0.23058440521393228
-5042.001629114151,3036.0,-2372.0,15764.0,-652.0,972.0,-721.0,0.45991199966496343,-0.3942066268903335,-0.7857589094155117,0.1251599942236568
-5042.017289876938,2984.0,-2724.0,16124.0,-472.0,1053.0,-723.0,0.5202197766286393,-0.3724233104416164,-0.7680651159896963,0.0273539657799526
-5042.032913446426,3036.0,-3072.0,16064.0,-194.0,884.0,-605.0,0.5721426781253292,-0.3412193183867353,-0.7446382281604583,-0.0416658347968799
-5042.048533201218,2716.0,-3284.0,16052.0,139.0,808.0,-310.0,0.6259442477081915,-0.31025713127478033,-0.7118676402165666,-0.07196369964549605
-5042.064121007919,2540.0,-2680.0,16184.0,272.0,602.0,-75.0,0.6692236404524317,-0.2864429005812665,-0.6814796960763149,-0.0753366285542341
-5042.079742670059,2544.0,-2320.0,15992.0,236.0,447.0,-51.0,0.7007969324036313,-0.26638916867525997,-0.6574482010513302,-0.07538125284534351
-5042.095369338989,2700.0,-2140.0,15716.0,110.0,475.0,-232.0,0.7283875167763427,-0.24291561459034064,-0.633694966232303,-0.09420360589930032
-5042.110974788666,2804.0,-2188.0,15868.0,38.0,573.0,-508.0,0.7551311587212205,-0.20718880502369086,-0.6068655760247929,-0.13624942142004975
-5042.126638412476,2848.0,-2324.0,15800.0,109.0,551.0,-300.0,0.7816253140787853,-0.17725551963852448,-0.5762385842979884,-0.15997325750001826
-5042.142243146896,2840.0,-2556.0,16064.0,216.0,542.0,-198.0,0.8084051419588628,-0.14475792922520928,-0.5443959331014784,-0.17076105060426072
-5042.157846689224,2828.0,-2708.0,16268.0,203.0,393.0,-12.0,0.8289577012776703,-0.12389842346324467,-0.519282619784924,-0.16680488885242387
-5042.1734409332275,3064.0,-2832.0,16356.0,199.0,221.0,168.0,0.8433089800081062,-0.11383907482308117,-0.5039651026040335,-0.1479520349248989
-5042.189063310623,2768.0,-2608.0,16488.0,183.0,69.0,308.0,0.8518194687909071,-0.11296161475067759,-0.49774860276054356,-0.11785412437256117
-5042.204711198807,2828.0,-2500.0,16404.0,152.0,-18.0,333.0,0.8556359522580266,-0.1162438034168744,-0.49692340758900283,-0.0862648384964185
-5042.220311164856,2788.0,-2548.0,16296.0,194.0,255.0,266.0,0.870200603415611,-0.11128637082296863,-0.4761336271172705,-0.06052290981365105
-5042.235946655273,2624.0,-2316.0,16016.0,303.0,-19.0,284.0,0.8733894916687434,-0.1000936678261776,-0.4759079558491232,-0.02614710429906096
-5042.251545190811,2544.0,-2128.0,15932.0,264.0,-41.0,197.0,0.8741853000708809,-0.08819333543658785,-0.4775164431541693,0.00020794697539557809
-5042.267141580582,2568.0,-2108.0,15976.0,194.0,25.0,199.0,0.8765654484756863,-0.08165086063241385,-0.47373361368160316,0.023294092915897072
-5042.282804965973,2344.0,-2192.0,16136.0,112.0,-129.0,201.0,0.8714996836588831,-0.08110281698026141,-0.48161635712984546,0.04423029510765211
-5042.298438072205,2516.0,-2272.0,16116.0,92.0,-119.0,59.0,0.8669447302088412,-0.07611174585028126,-0.4896504742989933,0.053443895119204714
-5042.314034938812,2352.0,-2300.0,16364.0,187.0,-153.0,40.0,0.8613752370006638,-0.06293903606584574,-0.49978280644685735,0.06548683227379094
-5042.329626560211,2468.0,-2080.0,16108.0,195.0,-186.0,28.0,0.8540453731907081,-0.048421681682770175,-0.5121661200488458,0.07712137672959353
-5042.345191240311,2612.0,-2380.0,16380.0,180.0,-142.0,240.0,0.8465979825288232,-0.04476677172715805,-0.5201211278963808,0.10364267674588383
-5042.360790252686,2592.0,-2420.0,16636.0,95.0,-179.0,-9.0,0.8389041883586702,-0.035722169687618294,-0.5322585875431901,0.10800224689152582
-5042.376398801804,2436.0,-2444.0,16444.0,15.0,-211.0,-17.0,0.829278337528572,-0.03185264405134037,-0.5473499909214833,0.10812416663742899
-5042.392011165619,2436.0,-2312.0,16288.0,248.0,-16.0,-78.0,0.8298350569847402,-0.01003308969698778,-0.5460699345446229,0.11437107106561568
-5042.4076359272,2364.0,-2160.0,15904.0,-35.0,-288.0,-146.0,0.8173200060774588,-0.0027523421755749683,-0.5670106147557188,0.10236891633905812
-5042.4232540130615,2500.0,-2096.0,16064.0,-38.0,-217.0,-209.0,0.8082686497085424,0.006797692632239876,-0.5825147388180588,0.0856280347370863
-5042.438863039017,2332.0,-2188.0,16388.0,-46.0,-205.0,-171.0,0.7990411882159149,0.013752708798686305,-0.5968981428751746,0.0711101228192251
-5042.454465150833,2472.0,-2208.0,16160.0,-15.0,-245.0,-272.0,0.7876949834156051,0.028360284558339884,-0.6132902211070796,0.05106282459959284
-5042.47009062767,2452.0,-2112.0,16316.0,-72.0,-337.0,-392.0,0.7708967217831911,0.04582345886641318,-0.6350127388000824,0.019423607364900685
-5042.4857432842255,2500.0,-1816.0,16344.0,-61.0,-220.0,-551.0,0.7589682368436952,0.07250931125526662,-0.6467080885290045,-0.021869235807880267
-5042.501377820969,2332.0,-2176.0,16088.0,-48.0,-161.0,-670.0,0.7476613167289384,0.10661629271333703,-0.651733986567219,-0.06984505958487203
-5042.5169932842255,2372.0,-2248.0,16092.0,-81.0,-178.0,-832.0,0.7312985472594746,0.14712727551700083,-0.6531812022442951,-0.1300396732148447
-5042.5325922966,2308.0,-2244.0,16004.0,-43.0,-153.0,-822.0,0.712011012516609,0.18896175205601867,-0.650059112498619,-0.18643209104792252
-5042.548182249069,2260.0,-2232.0,16084.0,50.0,-28.0,-824.0,0.6944958681611578,0.23770077504662854,-0.6372630938326337,-0.2346690859235018
-5042.563850641251,2048.0,-2324.0,16236.0,58.0,-82.0,-773.0,0.6714524475199877,0.2818265896557591,-0.625839036056045,-0.2793758848413066
-5042.579451084137,2268.0,-2412.0,16220.0,-252.0,-170.0,-660.0,0.6510657055749468,0.29830155283839294,-0.6120996924790733,-0.3353559259435024
-5042.5951018333435,2540.0,-2568.0,16204.0,-98.0,-282.0,-532.0,0.6221989703038111,0.3123894511684468,-0.6104520150926092,-0.37766335461747735
-5042.610693216324,2424.0,-2520.0,16196.0,-98.0,-196.0,-455.0,0.5989450400748618,0.3244665319965157,-0.6047859886224134,-0.4125775279264327
-5042.626275062561,2656.0,-2464.0,16368.0,-138.0,-201.0,-469.0,0.5748369021541718,0.3343453481520472,-0.5963225904813027,-0.44963884637845747
-5042.641853809357,2664.0,-2412.0,16304.0,-146.0,-214.0,-555.0,0.5454895225801409,0.34694160659685863,-0.5842143161244296,-0.4906794627886375
-5042.657440423965,2612.0,-2516.0,16216.0,-164.0,-186.0,-614.0,0.5139029945988578,0.3617993432068388,-0.5664229317139146,-0.5330759887915046
-5042.67302274704,2608.0,-2792.0,16232.0,-69.0,-193.0,-537.0,0.48103013425229035,0.37572477931910014,-0.5541315849380564,-0.5660203942623222
-5042.688712120056,2804.0,-2628.0,16380.0,-55.0,-190.0,-484.0,0.44934166211852583,0.3869566619575408,-0.5428723162481606,-0.5946816465156757
-5042.704306840897,2460.0,-2628.0,16268.0,-33.0,-128.0,-406.0,0.4230943465171605,0.39790167268453974,-0.5320150379854683,-0.6161375107696198
-5042.719932079315,2484.0,-2404.0,16176.0,-252.0,-161.0,-397.0,0.40270758713839455,0.39791547542637357,-0.5100560053202016,-0.6475590668921052
-5042.735528945923,2384.0,-2276.0,16180.0,-37.0,-103.0,-453.0,0.37355684454747673,0.4105355524438646,-0.49535518642235404,-0.6682357992174753
-5042.751121520996,2336.0,-2524.0,16104.0,50.0,-18.0,-427.0,0.34589548840582496,0.4291895869811028,-0.4831317696020517,-0.6802472364726493
-5042.766720533371,2392.0,-2544.0,16148.0,96.0,-52.0,-393.0,0.31662463135371177,0.4452044450712375,-0.47529672543483287,-0.6896628652463918
-5042.782312870026,2320.0,-2652.0,16188.0,98.0,-5.0,-393.0,0.28881891495112055,0.4635410441840863,-0.46569221416748335,-0.6963074725916497
-5042.797983646393,2464.0,-2708.0,16140.0,98.0,117.0,-219.0,0.27626932892571043,0.4818089380268629,-0.45963857721522833,-0.6930135521531486
-5042.813574075699,2524.0,-2824.0,16180.0,94.0,48.0,-162.0,0.2644472375893896,0.4933245717015202,-0.457218563668926,-0.6911220662975368
-5042.829172372818,2532.0,-2836.0,16152.0,129.0,-77.0,-83.0,0.2508244153868329,0.49483089479227316,-0.4630842699519581,-0.6912180966438839
-5042.844748020172,2668.0,-2668.0,16108.0,161.0,-104.0,11.0,0.2403361892847519,0.49148500805378753,-0.47541770133298206,-0.6889550146691116
-5042.860337495804,2728.0,-2588.0,15900.0,215.0,-153.0,110.0,0.23134556213952046,0.48199934436286074,-0.49605708616670624,-0.6841660837661561
-5042.875931739807,2772.0,-2560.0,15876.0,240.0,-208.0,246.0,0.22683226717842261,0.4634106660761465,-0.5245535594113651,-0.6772305666775729
-5042.8915548324585,2804.0,-2700.0,15908.0,243.0,-255.0,310.0,0.2235041225524208,0.4385139110185245,-0.5559761347508968,-0.6698074310074222
-5042.90714430809,2904.0,-2692.0,16036.0,270.0,-273.0,413.0,0.2238365821423735,0.4072161857881668,-0.5921148232364281,-0.6583860559205754
-5042.922819375992,2884.0,-2544.0,16356.0,266.0,-287.0,481.0,0.22690094116707804,0.3704543453334619,-0.629119852100595,-0.6445833946154491
-5042.9384825229645,2580.0,-2556.0,16212.0,230.0,-322.0,373.0,0.22255939230947847,0.3359756277734851,-0.6596897364620501,-0.6343478115700241
-5042.954132080078,2924.0,-2404.0,16132.0,257.0,-327.0,398.0,0.2180002770974853,0.29951419667748275,-0.6910072291905208,-0.6207061578400048
-5042.969742298126,2892.0,-2576.0,15892.0,363.0,-259.0,320.0,0.21002981376865762,0.27272995928608074,-0.7230770457603538,-0.5988868278152351
-5042.985430717468,2704.0,-2676.0,16028.0,485.0,-281.0,335.0,0.1979826627520866,0.2453522194144111,-0.7602659857492484,-0.56797956353265
-5043.001046895981,2744.0,-2628.0,16008.0,563.0,-364.0,390.0,0.18073332528825298,0.21063995147416673,-0.8009378984892952,-0.5305325237313567
-5043.016710519791,2884.0,-2464.0,16088.0,599.0,-371.0,464.0,0.16486458691486192,0.169982715089479,-0.8407425320738257,-0.48690608880388137
-5043.0323050022125,2636.0,-2264.0,16088.0,515.0,-430.0,402.0,0.1424583555285555,0.1292955333536235,-0.8727162428314524,-0.4487255748150033
-5043.047925710678,2880.0,-2404.0,16060.0,491.0,-558.0,384.0,0.10919439458993924,0.0840516200215505,-0.9007932384062646,-0.4118051128913338
-5043.063514709473,2976.0,-2372.0,15780.0,444.0,-622.0,230.0,0.06516916618896587,0.04771150165755448,-0.9221117532884032,-0.3783999297505262
-5043.079105138779,2952.0,-2480.0,15816.0,461.0,-680.0,173.0,0.014214405750971364,0.013900872591317547,-0.9393909951814507,-0.3422707620909949
-5043.094722270966,2652.0,-2524.0,16356.0,543.0,-624.0,139.0,-0.03335703648353539,-0.015432135735661273,-0.9539906974631186,-0.29757504340502844
-5043.1103320121765,2852.0,-2548.0,16556.0,630.0,-565.0,153.0,-0.07536554872794397,-0.04456377567997028,-0.9657782513068953,-0.24414436971733866
-5043.1260006427765,3312.0,-2412.0,16492.0,540.0,-629.0,222.0,-0.1212190637237075,-0.08001737489311539,-0.9695623654134179,-0.197109050728525
-5043.141602039337,3112.0,-2460.0,16336.0,332.0,-728.0,329.0,-0.1743628385831615,-0.12355271685181504,-0.9625275946052059,-0.1669519580696013
-5043.157195806503,3140.0,-2624.0,16124.0,259.0,-928.0,530.0,-0.24072457386141682,-0.18470372332142979,-0.9421246499951593,-0.14260910911277222
-5043.172787427902,3224.0,-2676.0,15616.0,3.0,-1197.0,619.0,-0.3291658949049099,-0.24885900064436675,-0.9008069372407518,-0.13515129762112177
-5043.188399076462,3416.0,-2796.0,15228.0,433.0,-1292.0,751.0,-0.40877657559608627,-0.33254176020172393,-0.844704449853144,-0.09376609922660618
-5043.204066038132,2460.0,-3084.0,15812.0,562.0,-1053.0,677.0,-0.4613188292912549,-0.408205593302516,-0.7864313318810205,-0.045594863457751045
-5043.219675540924,2600.0,-2308.0,16348.0,860.0,-957.0,844.0,-0.48868337951782603,-0.5000809779414405,-0.7147916320994703,0.01343475957152645
-5043.235283136368,3120.0,-1408.0,16740.0,600.0,-987.0,622.0,-0.521461132330286,-0.5596510642855902,-0.6406104428115624,0.06698682164124513
-5043.250866651535,3428.0,-1620.0,16412.0,130.0,-790.0,211.0,-0.5591298158950521,-0.5712296507992707,-0.5920007854823772,0.10298351816265014
-5043.2664539813995,3520.0,-2116.0,16280.0,59.0,-769.0,50.0,-0.5950951396902929,-0.5684500122947059,-0.5501525583008896,0.14162810750033233
-5043.282049417496,3328.0,-2912.0,16276.0,169.0,-1117.0,6.0,-0.6374068711808398,-0.5609360681388799,-0.4873307517065332,0.20389199708054118
-5043.297666788101,3116.0,-3104.0,16372.0,376.0,-1002.0,252.0,-0.6631371629798253,-0.5720474503098283,-0.41060860255110954,0.2537939975257856
-5043.313332080841,3000.0,-2804.0,16260.0,508.0,-906.0,402.0,-0.6760449718391117,-0.5929128779950866,-0.3252469364941722,0.2926293653408592
-5043.328912973404,3120.0,-1800.0,16224.0,431.0,-898.0,479.0,-0.6883600730063504,-0.6060982374961218,-0.23530341692052853,0.3216172233887831
-5043.344534158707,3116.0,-1540.0,16260.0,190.0,-863.0,506.0,-0.7075388857955527,-0.6011979318058549,-0.15069707822521225,0.3394704147550041
-5043.360123872757,3072.0,-1824.0,16232.0,-30.0,-846.0,434.0,-0.7306771854728595,-0.5778668759523973,-0.07625545841509695,0.3554797172390856
-5043.375747919083,3144.0,-2132.0,16176.0,-129.0,-943.0,317.0,-0.7505152209282773,-0.5402727627074494,-0.004075120027970447,0.3805464996924774
-5043.391330957413,3132.0,-2332.0,16140.0,-127.0,-879.0,264.0,-0.763185472916423,-0.5010449574679573,0.06155870625121839,0.4033762638157392
-5043.406934499741,3160.0,-2776.0,16020.0,33.0,-880.0,229.0,-0.7627672209979011,-0.46936844565059055,0.13094671665909324,0.42512631792784966
-5043.422537088394,3140.0,-2500.0,15936.0,168.0,-801.0,154.0,-0.7505594886915676,-0.4477015154960468,0.19628239909658599,0.44463133803465105
-5043.438159704208,3100.0,-2432.0,15856.0,328.0,-704.0,240.0,-0.7332512674169186,-0.43647656247291977,0.2638087473182874,0.4497062753416521
-5043.453761100769,3048.0,-2244.0,15908.0,339.0,-649.0,285.0,-0.7150013799644225,-0.4249694341037417,0.32868174271831774,0.44737268438089367
-5043.46937584877,3124.0,-2184.0,16184.0,263.0,-524.0,345.0,-0.7025504023363476,-0.41014914063620506,0.38370619641557624,0.43700133803537705
-5043.484955072403,3200.0,-2108.0,16260.0,238.0,-362.0,383.0,-0.695734001285094,-0.39746472383897047,0.42807234448271314,0.41800724951670043
-5043.50057387352,3136.0,-2036.0,16384.0,505.0,-262.0,276.0,-0.6775713935792682,-0.4075184248462305,0.471186607814943,0.39090781602539315
-5043.516152620316,3016.0,-2284.0,16408.0,228.0,-228.0,230.0,-0.6676378216043926,-0.4034152083600759,0.5002553609751101,0.3758463551011239
-5043.531767845154,3008.0,-2012.0,16180.0,238.0,-192.0,201.0,-0.6572373325414651,-0.4019050887859961,0.5259844412040356,0.36034949137327577
-5043.547347068787,2844.0,-1964.0,16088.0,334.0,-188.0,127.0,-0.640590555421121,-0.4089784361486484,0.5513132228568872,0.34414257128960074
-5043.5629506111145,3044.0,-2004.0,16004.0,319.0,-219.0,-248.0,-0.6108266096943487,-0.4317427114810591,0.5637652229947597,0.3502254378453399
-5043.578603744507,3088.0,-2044.0,15780.0,289.0,-162.0,-94.0,-0.5889240729814901,-0.4465468281157721,0.5773721752659371,0.34699529937927925
-5043.594228744507,3092.0,-2156.0,15856.0,246.0,-79.0,-97.0,-0.5723472307557299,-0.46148366767677157,0.5848762987479902,0.34259478553634476
-5043.609821796417,3472.0,-2140.0,15984.0,286.0,1.0,8.0,-0.5610383352020888,-0.47517669920466804,0.5934641568488324,0.32748035895657873
-5043.625417709351,3396.0,-2344.0,16196.0,423.0,16.0,118.0,-0.5473872903819218,-0.4898128842869077,0.6091716156842374,0.29893215845661986
-5043.641011714935,3612.0,-2424.0,16264.0,358.0,-101.0,252.0,-0.5329689379887563,-0.49044662910167514,0.6335850392490597,0.271985685619131
-5043.656639814377,3588.0,-2112.0,16152.0,370.0,-157.0,290.0,-0.5149409005103733,-0.4873842972475043,0.6614313307186104,0.24454245136975827
-5043.672246217728,3432.0,-2180.0,16420.0,511.0,-216.0,291.0,-0.48630387775082307,-0.48816571759398486,0.6933580393026563,0.2108492352009809
-5043.687888622284,3560.0,-2156.0,16348.0,204.0,-139.0,197.0,-0.4727292040805987,-0.4821199755363734,0.7111059046425298,0.1959995438276823
-5043.70348238945,3108.0,-2136.0,16220.0,149.0,-75.0,146.0,-0.46429574047471617,-0.47779655977738084,0.7227281053722006,0.18385863740124933
-5043.719076395035,3168.0,-1964.0,16012.0,295.0,58.0,137.0,-0.45774089010436636,-0.4818056231063496,0.7304920259728416,0.15721965226923187
-5043.734660863876,3060.0,-1940.0,15840.0,368.0,-28.0,74.0,-0.4413357619325979,-0.49111007975242177,0.739346831133173,0.13190867332468495
-5043.750244617462,3316.0,-1908.0,16056.0,310.0,41.0,4.0,-0.4306560561461508,-0.5030497032036031,0.7412067124353835,0.10994983789047193
-5043.765827178955,3572.0,-1804.0,16200.0,230.0,198.0,-7.0,-0.43322507808387867,-0.5138397682776902,0.7353805186242202,0.08660379370166098
-5043.7814412117,3392.0,-1952.0,16336.0,179.0,224.0,-118.0,-0.43859886375363305,-0.5296543422113832,0.7226807995559251,0.06949659303777296
-5043.79706287384,3456.0,-2116.0,16240.0,175.0,215.0,-97.0,-0.44341297114493605,-0.5435691890378153,0.7107688394836671,0.0522027831464284
-5043.812722206116,3536.0,-2192.0,16276.0,269.0,87.0,-81.0,-0.43561092337223606,-0.5591885334311134,0.7045292079821881,0.03449496510998237
-5043.828279972076,3156.0,-2132.0,16092.0,307.0,61.0,-146.0,-0.42381884423701144,-0.5797329899213678,0.6956703730413553,0.018165344448610534
-5043.8439083099365,3188.0,-1928.0,16208.0,292.0,102.0,-69.0,-0.41504024768000114,-0.5946324399934229,0.6885848163261099,-0.002191994144372939
-5043.85949921608,3236.0,-1804.0,16204.0,240.0,163.0,-29.0,-0.4123234126611734,-0.6048160515660147,0.6808884034418377,-0.024040158027038187
-5043.875104904175,3216.0,-1884.0,16224.0,166.0,245.0,-92.0,-0.4182311786173871,-0.6154914932097131,0.6666013551743802,-0.04353775715937478
-5043.890702009201,3068.0,-1916.0,15900.0,190.0,346.0,-253.0,-0.42882863858247994,-0.6352736643642373,0.6390990631393407,-0.06391993109467586
-5043.9063057899475,3044.0,-1956.0,16228.0,179.0,257.0,-50.0,-0.43342301619769674,-0.6430513633802304,0.6254476036676503,-0.08628283810417937
-5043.922011375427,3308.0,-2060.0,16116.0,139.0,254.0,-84.0,-0.44003890517457606,-0.6507237702328219,0.6098441264097137,-0.10494988456551625
-5043.937624692917,3128.0,-2072.0,16156.0,140.0,112.0,-156.0,-0.4394541399795476,-0.6632021891141499,0.5952499179930826,-0.11278497390283883
-5043.953218221664,3144.0,-2212.0,16356.0,162.0,93.0,-221.0,-0.4370141976720077,-0.6797321376248223,0.577090065400442,-0.11810956154856594
-5043.968809366226,3144.0,-2108.0,16124.0,27.0,155.0,-205.0,-0.44528985154547557,-0.6892791634082334,0.558574381120304,-0.12085463895905535
-5043.9847240448,3128.0,-1916.0,16140.0,282.0,255.0,-133.0,-0.44195636306429065,-0.7035626715363305,0.5373341505285623,-0.14472785165058966
-5044.0004596710205,3180.0,-1704.0,15948.0,274.0,255.0,-171.0,-0.4390366097941625,-0.7184298879243546,0.513183013476206,-0.1665789484806752
-5044.016086101532,3136.0,-1732.0,16148.0,147.0,151.0,-200.0,-0.43941792839283816,-0.7305519728985835,0.492539688433603,-0.1749581504779445
-5044.031723976135,3200.0,-1740.0,16152.0,96.0,189.0,-5.0,-0.4414908502830662,-0.7313951967293091,0.4834053639971505,-0.1909611200648257
-5044.047314882278,3068.0,-1760.0,16040.0,-21.0,153.0,-394.0,-0.455613018874212,-0.7441105316777862,0.45237793388256853,-0.18458195636266275
-5044.062894582748,3172.0,-1968.0,16056.0,2.0,150.0,-356.0,-0.4669460605174562,-0.7553562305481363,0.42300011825848066,-0.1801922348289474
-5044.07847571373,3176.0,-2140.0,16100.0,161.0,195.0,-293.0,-0.4679415531777537,-0.7691842634518883,0.3929622888446836,-0.1869944149259947
-5044.094157934189,3260.0,-2228.0,16256.0,189.0,160.0,-250.0,-0.46466995899003477,-0.7824513031952474,0.36637170838150945,-0.19396793198328646
-5044.109795093536,3128.0,-2156.0,16284.0,205.0,96.0,-178.0,-0.4566756412741195,-0.7945351455664038,0.3467299819501415,-0.19984889477677853
-5044.125420331955,3168.0,-1976.0,16108.0,192.0,129.0,-124.0,-0.44937555404668106,-0.8034335094893861,0.32954300164671474,-0.2096607195458423
-5044.141023159027,3176.0,-1896.0,16072.0,246.0,235.0,-123.0,-0.44097940500838656,-0.8118684917502182,0.30703538140377307,-0.22833307037727812
-5044.156706094742,2856.0,-1864.0,16060.0,294.0,217.0,-89.0,-0.42756657166193235,-0.8207566762393055,0.28635372924272684,-0.248086369949364
-5044.172305822372,3040.0,-1844.0,16204.0,221.0,189.0,-72.0,-0.4179344669023771,-0.826381834722729,0.2692576418806283,-0.264431781191682
-5044.187926292419,3040.0,-1836.0,16012.0,155.0,157.0,-142.0,-0.41367169137217336,-0.8314842938252573,0.24963863784201992,-0.2742082263090937
-5044.203561067581,3084.0,-1956.0,15988.0,113.0,219.0,-199.0,-0.414904168793991,-0.8342916410267365,0.22449277483043234,-0.28533310792688477
-5044.219140052795,3052.0,-2084.0,16052.0,189.0,248.0,-186.0,-0.41048250768094946,-0.8381340533495292,0.19715670977941138,-0.30027429342653494
-5044.234730005264,3224.0,-2228.0,16028.0,271.0,333.0,-105.0,-0.39889555441648716,-0.8402465320777566,0.170313094641581,-0.3253637223042465
-5044.250310659409,3272.0,-2084.0,16136.0,400.0,479.0,-256.0,-0.38333657171629515,-0.842863133657698,0.12328431825878206,-0.3569814947262537
-5044.265971899033,3124.0,-1808.0,16236.0,362.0,779.0,144.0,-0.3596086521877272,-0.8267075817460886,0.09625682749463237,-0.42186587289792604
-5044.281560659409,3312.0,-1580.0,16200.0,529.0,765.0,369.0,-0.31312401054353456,-0.8088949035856091,0.0790943015997195,-0.49131098138430945
-5044.297178030014,3332.0,-1428.0,16300.0,368.0,527.0,412.0,-0.27254036517515595,-0.7916766995564084,0.07783058316381805,-0.5412135928208426
-5044.3127784729,3292.0,-1728.0,16076.0,135.0,414.0,391.0,-0.24725716074451032,-0.7715856374208725,0.08851424159473835,-0.5793830594876743
-5044.328357934952,3328.0,-2016.0,16028.0,34.0,250.0,323.0,-0.23043825467757317,-0.7566080894417778,0.1030929392534964,-0.6031701713849016
-5044.343991756439,3432.0,-1636.0,15996.0,120.0,226.0,216.0,-0.2131054785988482,-0.7447677029969645,0.10644964180621283,-0.6233583217725659
-5044.35958647728,3580.0,-1652.0,16008.0,116.0,507.0,265.0,-0.1956209167822182,-0.7158460851731809,0.10779366711113292,-0.6615718892080057
-5044.375249862671,3380.0,-1548.0,15888.0,67.0,225.0,8.0,-0.1930663798056674,-0.7036650739852226,0.10055807500870542,-0.6763644802860723
-5044.390842437744,3292.0,-1568.0,16452.0,-162.0,170.0,281.0,-0.1878398026971509,-0.6879670792716231,0.12445159481253923,-0.6898762982664235
-5044.406434297562,3392.0,-2032.0,16732.0,-270.0,106.0,388.0,-0.18169185358290035,-0.6722235776420425,0.1621238825492145,-0.6991561904974534
-5044.42205452919,3352.0,-1564.0,16880.0,-93.0,-109.0,424.0,-0.15962574866223994,-0.670772058723007,0.1942440023792003,-0.6977490473947117
-5044.437649965286,3252.0,-1548.0,16976.0,-27.0,-407.0,398.0,-0.12992069248487126,-0.6874768635317414,0.22456394800451557,-0.6782825436567242
-5044.453272819519,3208.0,-1744.0,16764.0,-159.0,-507.0,324.0,-0.11019096710375541,-0.7081980910435818,0.2587667495287145,-0.6475748481444514
-5044.468891859055,2732.0,-1712.0,16344.0,-243.0,-396.0,256.0,-0.10169905412660772,-0.7216033690219311,0.29180114635435045,-0.6195143026534891
-5044.484516859055,2472.0,-1652.0,16204.0,-431.0,-139.0,301.0,-0.10891748977655737,-0.7167416495185306,0.3349007135463547,-0.6018803039910608
-5044.500126123428,2360.0,-1912.0,15928.0,-604.0,86.0,333.0,-0.13149478735884085,-0.6953924481247528,0.38591424907682953,-0.5917842988352962
-5044.51575756073,2320.0,-2184.0,16028.0,-540.0,334.0,428.0,-0.1530875435481722,-0.6559848824964652,0.43495350827518037,-0.5975478922944987
-5044.531362533569,2348.0,-2016.0,16156.0,-424.0,318.0,418.0,-0.1673654787680058,-0.6167188194219143,0.4758897101160677,-0.6042976734137255
-5044.546966314316,2428.0,-1756.0,16356.0,-445.0,340.0,334.0,-0.18754724954033392,-0.5774025888693305,0.51149985783466,-0.6081119757018218
-5044.562628269196,2340.0,-1684.0,16420.0,-494.0,231.0,27.0,-0.22110391101684523,-0.5551498388426874,0.5346398476525989,-0.597563344146877
-5044.578217506409,2484.0,-1748.0,16636.0,-608.0,342.0,-206.0,-0.2767503161023784,-0.5340483272024442,0.5486076102551106,-0.5807162273603877
-5044.593811273575,2436.0,-1896.0,16248.0,-618.0,434.0,-389.0,-0.34515582486532553,-0.5142680916675546,0.5497451367307598,-0.5605141131987907
-5044.6094007492065,2532.0,-2172.0,16136.0,-573.0,340.0,-349.0,-0.4034501685349388,-0.4959769597719631,0.5506202091272714,-0.5367049489106003
-5044.624998807907,2376.0,-2348.0,16108.0,-585.0,327.0,-335.0,-0.45926276492086493,-0.47506621299384383,0.5507641358114489,-0.5099496766670196
-5044.640594959259,2352.0,-2476.0,15716.0,-692.0,325.0,-325.0,-0.5167557687371093,-0.4472285714985974,0.5535377782182024,-0.4759684951732619
-5044.656168460846,2660.0,-2536.0,15740.0,-685.0,466.0,-255.0,-0.5750325915572204,-0.40803937586062217,0.5493746762403426,-0.4483624108911002
-5044.671781539917,2788.0,-2436.0,15948.0,-668.0,457.0,-312.0,-0.6312199887200717,-0.3704367239964613,0.5398332379841841,-0.4158341430456541
-5044.687366485596,2996.0,-2388.0,16024.0,-545.0,352.0,-273.0,-0.6741496571294304,-0.33976115838239096,0.5302942681635321,-0.3858401018554592
-5044.702980041504,3076.0,-2628.0,15964.0,-348.0,198.0,-213.0,-0.7003472630301765,-0.322122828854153,0.5235305771798733,-0.3628585524069229
-5044.718608617783,3064.0,-2720.0,15896.0,-191.0,-28.0,-91.0,-0.7072883504027113,-0.3153362675535122,0.528533092640926,-0.3477916010105041
-5044.734202384949,3156.0,-2784.0,15856.0,-157.0,-34.0,69.0,-0.7079554834635217,-0.3033565568917818,0.5371259393456904,-0.34390341392126944
-5044.749826192856,3416.0,-2480.0,15904.0,-105.0,-114.0,328.0,-0.6952901433191796,-0.2846740424069423,0.55561641308777,-0.35612175964179116
-5044.765428304672,3556.0,-2304.0,15840.0,67.0,-28.0,731.0,-0.6682642526607527,-0.2535505182439788,0.5721042490001979,-0.4022831733864778
-5044.781028270721,3632.0,-2236.0,15856.0,295.0,-71.0,1127.0,-0.6155196166120039,-0.21577874853888604,0.5876622348421275,-0.47877785139369194
-5044.796656847,3792.0,-2196.0,15992.0,590.0,-352.0,1523.0,-0.5173156108618866,-0.18207916259936507,0.6040797560241732,-0.5782035849659551
-5044.8122651577,3628.0,-2304.0,15936.0,610.0,-572.0,1844.0,-0.37860008851450755,-0.13906254603941606,0.6187044696492167,-0.6741871850620745
-5044.8279004096985,3456.0,-2292.0,15576.0,220.0,-938.0,2073.0,-0.19941002224213747,-0.08782623764734741,0.6489911685579882,-0.7289256876690783
-5044.843508243561,3440.0,-2108.0,15304.0,-10.0,-1104.0,2556.0,0.0249176047802975,-0.012730918776806013,0.6688440759240831,-0.7428759242164
-5044.85911989212,3168.0,-1852.0,15504.0,-109.0,-1350.0,2355.0,0.24939476320009307,0.03596358714778536,0.6572475011718781,-0.7103059866643073
-5044.874705791473,3312.0,-1360.0,15672.0,-344.0,-1769.0,2152.0,0.47146428627911785,0.041007467550785784,0.6149991592861666,-0.6307264450185213
-5044.890298843384,3336.0,-1068.0,16236.0,-539.0,-1239.0,2094.0,0.6402681363947026,0.06154836634689,0.5726621353191326,-0.5082583898859077
-5044.90598320961,2676.0,-1396.0,16644.0,-947.0,-1017.0,1454.0,0.7493117704385314,0.03559834477412253,0.5415925342503829,-0.3793970945801566
-5044.921677350998,2116.0,-1484.0,17440.0,-1149.0,-381.0,739.0,0.7894320812977951,-0.01713773463188545,0.5480808467524864,-0.2758816276822289
-5044.93736076355,2220.0,-1436.0,17288.0,-1081.0,-421.0,33.0,0.8047279591584052,-0.0996938654122531,0.5422119944029249,-0.22018219290740576
-5044.952960014343,2612.0,-1784.0,16680.0,-710.0,-347.0,-601.0,0.8005170805033778,-0.18398956915888734,0.5241234690334188,-0.2249774021350825
-5044.968591451645,2776.0,-2172.0,16216.0,-319.0,-67.0,-1055.0,0.7742476717209572,-0.25466229414760977,0.5062530733609597,-0.28177204347971757
-5044.984186887741,3064.0,-2544.0,16076.0,-113.0,342.0,-1349.0,0.7182192983858283,-0.3111647070925835,0.4983133689826155,-0.3728556701719191
-5044.999871015549,3076.0,-3072.0,16480.0,-158.0,522.0,-1218.0,0.647287501977837,-0.35461917341795446,0.49957213628892594,-0.4535325922923037
-5045.015483617783,3220.0,-3492.0,16440.0,-561.0,788.0,-872.0,0.5575251828419499,-0.39058363807458124,0.5357275510754845,-0.4996059278913123
-5045.031135320663,3832.0,-4084.0,16252.0,-788.0,756.0,-282.0,0.48074995954811217,-0.40714308197916865,0.5942817819063532,-0.4999431476530126
-5045.046769857407,3800.0,-4540.0,15680.0,-731.0,-127.0,404.0,0.4777510296381039,-0.42122997365269743,0.6333940284075957,-0.43946702692452044
-5045.06237077713,4092.0,-4956.0,15224.0,-634.0,-731.0,1000.0,0.5293868492014999,-0.41733373900646464,0.6590698695596452,-0.33348016615388754
-5045.078012228012,3688.0,-5352.0,14932.0,-456.0,-915.0,1476.0,0.601115679659841,-0.3755250182218287,0.6755042864317582,-0.20330976210921087
-5045.093629598618,3220.0,-4488.0,14432.0,-223.0,-795.0,1374.0,0.6587327432331465,-0.3172131088417971,0.6761164095744303,-0.09117903967270552
-5045.1092228889465,3424.0,-3476.0,14160.0,-29.0,-585.0,1099.0,0.6971843432259375,-0.25714893284424223,0.6691092890248469,-0.010058689693470131
-5045.124814271927,3364.0,-2392.0,14720.0,406.0,-261.0,1007.0,0.7191119649454562,-0.17301894504212906,0.6721910823243847,0.03318998903835383
-5045.140393733978,3968.0,-1868.0,15296.0,748.0,-634.0,239.0,0.7640481433620935,-0.10976954010048158,0.635602319667368,0.013812093415829015
-5045.156044960022,4480.0,-1880.0,15868.0,958.0,-668.0,-122.0,0.8063030268049318,-0.05156632193456183,0.5878312104164545,-0.04087556076278808
-5045.171629905701,4644.0,-2488.0,16052.0,975.0,-928.0,-335.0,0.8509858736343543,-0.0034323967393898843,0.5136290051895767,-0.10952856502010934
-5045.18726849556,4800.0,-3160.0,15776.0,830.0,-1138.0,-231.0,0.8932204212087798,0.036661578258543145,0.4176838126157173,-0.16233742789018513
-5045.20290017128,4776.0,-3784.0,15404.0,869.0,-1411.0,96.0,0.9335592472812344,0.08693256965900908,0.2917969390380169,-0.1891147971900149
-5045.218501567841,4432.0,-4176.0,15164.0,858.0,-1669.0,441.0,0.9633407714176598,0.13843384283712143,0.13615451618526342,-0.1851285418408842
-5045.234146595001,4380.0,-4504.0,14748.0,940.0,-1913.0,799.0,0.968729181776468,0.19205979338422557,-0.048760091248507435,-0.14932937300256932
-5045.249784708023,4448.0,-4392.0,14712.0,1248.0,-2199.0,1230.0,0.9270390691840138,0.2557976087112288,-0.26380547587350295,-0.07465131266902851
-5045.26539850235,4632.0,-4056.0,15068.0,1623.0,-2053.0,1696.0,0.8246920841320237,0.32272023420367185,-0.4615232220994965,0.05225832247982746
-5045.281006813049,4880.0,-3632.0,15336.0,1710.0,-2428.0,2144.0,0.6372747200619567,0.3527941033021018,-0.6561146479513231,0.1973089470574812
-5045.296685218811,5172.0,-3692.0,15564.0,1761.0,-2638.0,2613.0,0.36432314236434205,0.3261245641336939,-0.8028564540404036,0.3410761363860699
-5045.312265872955,5044.0,-3360.0,15568.0,1627.0,-2888.0,2988.0,0.024885461983137496,0.23706735822728237,-0.8677665015409242,0.43607462692576915
-5045.327913045883,4852.0,-2952.0,15532.0,1649.0,-3022.0,3309.0,-0.3360690317728659,0.0969423627930513,-0.8122574416520263,0.4667950649484781
-5045.343502998352,4700.0,-2676.0,15448.0,1578.0,-2894.0,2731.0,-0.6237930598474014,-0.023466272243960803,-0.6426914955487428,0.4441612253478561
-5045.359087705612,4504.0,-2696.0,15264.0,1577.0,-2634.0,2246.0,-0.811867849353936,-0.12638640747936652,-0.41130923638809247,0.39461599467294606
-5045.3746745586395,4596.0,-3064.0,15260.0,1835.0,-2806.0,2066.0,-0.9112287876057066,-0.2211250255049768,-0.11941928301700465,0.3263508151939595
-5045.390270471573,4596.0,-3004.0,15352.0,1963.0,-2642.0,1850.0,-0.905713369389029,-0.30490103884259756,0.1733019754973853,0.23808627493280765
-5045.405987024307,4832.0,-2840.0,14984.0,1960.0,-2753.0,2021.0,-0.8076494995852079,-0.35163301351401427,0.4590885529047892,0.1153005213284087
-5045.421592235565,4744.0,-3084.0,15008.0,1857.0,-3244.0,2181.0,-0.6012673866541556,-0.33899302825702704,0.7234678352765006,-0.01247188275870285
-5045.437181472778,4968.0,-3400.0,14916.0,1895.0,-3310.0,2299.0,-0.31108012402666657,-0.27665230347071174,0.8976898618470758,-0.14437995483058222
-5045.452786207199,5312.0,-3420.0,15204.0,2211.0,-3253.0,2351.0,0.024878710631203352,-0.17961263207404463,0.9423311786290721,-0.28130464258576793
-5045.468391418457,5564.0,-3116.0,15228.0,2330.0,-3119.0,2275.0,0.3478459960935233,-0.05955814999961214,0.8504756009207771,-0.3900605619756647
-5045.4840478897095,5624.0,-2772.0,15324.0,2315.0,-2979.0,2292.0,0.6150183802880685,0.07413009242226389,0.6466965594033985,-0.4450176191580667
-5045.499671697617,5364.0,-2264.0,15508.0,2007.0,-3065.0,1666.0,0.7923296802890587,0.14794555122906816,0.37104706293393713,-0.46113974963416887
-5045.515313625336,5200.0,-1796.0,15728.0,1662.0,-2642.0,1456.0,0.8763262719015336,0.19495571690760777,0.09809722192220631,-0.42944320773688527
-5045.530897855759,5204.0,-2200.0,15272.0,1461.0,-2573.0,1535.0,0.8939920678756729,0.21426760595909017,-0.17257634761132432,-0.35367354984091415
-5045.546478509903,5296.0,-2668.0,14904.0,1563.0,-2984.0,1157.0,0.8170521919317398,0.21619933798976226,-0.45385053626825667,-0.2823176449344669
-5045.562039375305,5232.0,-3040.0,14712.0,1708.0,-3058.0,1013.0,0.6563423591802461,0.21190591470861206,-0.6985331659216236,-0.19068824548127986
-5045.5776307582855,5084.0,-3080.0,14944.0,1890.0,-3045.0,783.0,0.4274879960459302,0.21114491142233988,-0.875112492056939,-0.08276452055670411
-5045.5932104587555,5364.0,-2368.0,15128.0,1992.0,-2833.0,1535.0,0.17615424241820624,0.14026216586932982,-0.9717485125585352,0.0707180036764819
-5045.608803033829,5952.0,-1188.0,15428.0,1970.0,-2475.0,1493.0,-0.06415358861794246,0.05660451976519172,-0.9716367292714321,0.22045931992162607
-5045.624407529831,6028.0,-740.0,16000.0,1429.0,-1967.0,1580.0,-0.26023386207341465,-0.046096954551592816,-0.9121525067163389,0.31325901791093386
-5045.640069723129,6152.0,-792.0,16228.0,778.0,-1412.0,1743.0,-0.40852724652174205,-0.1605223596676042,-0.8340379234563088,0.33424362841017086
-5045.655713796616,6608.0,-164.0,15556.0,571.0,-1147.0,1563.0,-0.5216171888890665,-0.25722450824025717,-0.7430568857170652,0.3310853744949818
-5045.671315193176,6860.0,-844.0,16256.0,1094.0,-1070.0,1696.0,-0.6036405913414353,-0.3786381031171651,-0.6125187856089225,0.34215780077176133
-5045.686917066574,6508.0,-1500.0,16020.0,974.0,-279.0,773.0,-0.6057857605267198,-0.4600725768450658,-0.5397790529889184,0.36054876276669007
-5045.702548742294,6072.0,-1640.0,15716.0,1022.0,522.0,464.0,-0.551614871974199,-0.549158071940869,-0.513533025777877,0.3611513207431113
-5045.718206882477,5172.0,-1596.0,15240.0,1395.0,1639.0,735.0,-0.4261972133905659,-0.6874913632145241,-0.5033776896845849,0.3038461162025306
-5045.733811378479,4704.0,-1940.0,14856.0,1983.0,2466.0,1126.0,-0.21950592185430612,-0.8407460966341564,-0.45575192381030044,0.19301123078342095
-5045.7495102882385,3812.0,-2376.0,15304.0,2205.0,4396.0,1010.0,0.09176141482847418,-0.9133771888466279,-0.3926534462050901,-0.05608230404124194
-5045.765159606934,876.0,-2048.0,19232.0,2416.0,10096.0,46.0,0.4673450461878488,-0.6270029680717788,-0.23707162737514073,-0.5764138524762914
-5045.780765295029,-3844.0,1820.0,24416.0,469.0,5889.0,-2105.0,0.44647423879628345,-0.23496818684982546,-0.1189354756730832,-0.8551637608588206
-5045.796380996704,4816.0,4972.0,24004.0,-1616.0,2038.0,-1617.0,0.30314122237981594,-0.12438394571518156,0.04628190028066935,-0.94365884674961
-5045.811993598938,7732.0,3844.0,18392.0,-2300.0,3814.0,-4344.0,-0.08349422587284668,0.09777446885590092,0.2540945140813221,-0.958595245867419
-5045.8275990486145,6240.0,-688.0,14060.0,-107.0,4400.0,-6118.0,-0.578213984343295,0.2763408611126157,0.2364721477631893,-0.7303322806241378
-5045.843250989914,6148.0,-3712.0,13248.0,1868.0,4216.0,-4874.0,-0.8810907402728885,0.30197508521204314,0.019155217727534517,-0.3634875966939775
-5045.858860492706,4732.0,-6040.0,14552.0,1713.0,5030.0,-3388.0,-0.9132310128022724,0.2838707834003524,-0.2913333773894882,0.023481030783165224
-5045.874475717545,2664.0,-8028.0,15824.0,1597.0,5694.0,-1453.0,-0.7109797953197635,0.16057116039106295,-0.6231693995702456,0.2835216614951922
-5045.890075922012,1540.0,-6428.0,17036.0,1777.0,4944.0,317.0,-0.43153536592870273,-0.0811490942300111,-0.8090650379683204,0.3906479448246841
-5045.90571975708,1652.0,-3416.0,18240.0,1746.0,3553.0,2275.0,-0.2283976577970326,-0.39827334371498085,-0.805571732942614,0.37452241145591314
-5045.921404600143,2744.0,-896.0,18724.0,1159.0,2655.0,2467.0,-0.0778934259967472,-0.6469030033693852,-0.6973619131434354,0.29855565731549294
-5045.937025308609,3852.0,552.0,17856.0,560.0,3408.0,1742.0,0.10970939955163529,-0.8011337378154104,-0.5756329333875121,0.12163596418665415
-5045.952714204788,4024.0,1688.0,17684.0,223.0,4161.0,509.0,0.3089218526802936,-0.815703790736521,-0.4674192840311878,-0.14392299201453704
-5045.968341827393,2996.0,1572.0,16908.0,-694.0,4213.0,-704.0,0.39533724763760575,-0.704158512370618,-0.3697033679899112,-0.4595526844478629
-5045.983971118927,1948.0,184.0,15780.0,-1129.0,4483.0,-1142.0,0.3923065583151806,-0.48601888073086386,-0.22148452059912246,-0.7488830476189144
-5045.999622344971,1324.0,-1776.0,15108.0,-1013.0,4620.0,-956.0,0.34669618558535603,-0.1843692347875718,-0.03457772512563417,-0.9190289011176666
-5046.015261173248,736.0,-2648.0,15344.0,176.0,4503.0,-295.0,0.31582083770798036,0.17048264857080297,0.07721585376032018,-0.9301777125548528
-5046.030867099762,576.0,-2576.0,14976.0,1217.0,4535.0,385.0,0.27601198087935613,0.5313746691853317,0.09035956847767605,-0.7957973961654821
-5046.046458244324,612.0,-2284.0,14632.0,1808.0,4383.0,992.0,0.20864074919216521,0.81707902326224,0.022431352692816316,-0.5369802062811313
-5046.062049865723,820.0,-916.0,14968.0,1973.0,4547.0,1297.0,0.10939719482466422,0.9755487103545553,-0.0728007023845354,-0.1761732818062289
-5046.077673435211,596.0,144.0,15712.0,1689.0,4253.0,860.0,0.0054049419215516925,0.9742219519610277,-0.12172862921133644,0.18985393267035278
-5046.09335064888,732.0,440.0,15804.0,1304.0,4180.0,173.0,-0.059718028635494934,0.8440564712736778,-0.10540592807902303,0.5223906782119271
-5046.10896897316,168.0,292.0,16252.0,850.0,3539.0,-388.0,-0.06867524552569514,0.6493974942069496,-0.05381579366763988,0.7554273396704957
-5046.124568223953,272.0,-180.0,16560.0,389.0,3465.0,-695.0,-0.02734206605107096,0.4027446954618706,-0.009100679858624856,0.9148586225901216
-5046.140169143677,168.0,-860.0,16984.0,-37.0,3425.0,-820.0,0.04028612883306995,0.12402121749707286,0.008206767192983317,0.9914274630079747
-5046.155798196793,84.0,-1568.0,16720.0,70.0,3210.0,-643.0,0.08927193552311917,-0.1482815276110149,0.03112976785498284,0.9844155868588199
-5046.171437740326,216.0,-1868.0,16376.0,435.0,3020.0,-327.0,0.11091009475052971,-0.39121646646697816,0.08466236046025971,0.9096597781417058
-5046.187068462372,208.0,-1684.0,16440.0,922.0,2631.0,27.0,0.11741306247163509,-0.5740580271268705,0.178971104226259,0.7903422664290901
-5046.2026789188385,140.0,-1168.0,16424.0,1234.0,2415.0,524.0,0.10246153887198256,-0.699676484631505,0.30629496383001054,0.6372894515352165
-5046.218269586563,476.0,-748.0,16148.0,1159.0,2279.0,726.0,0.07008613812612052,-0.7760168831455776,0.42420512957401474,0.4614496054377799
-5046.233859300613,100.0,-68.0,16296.0,1019.0,2429.0,581.0,0.025089317106678426,-0.8235702319761617,0.5056336755414964,0.2558069297893404
-5046.249446153641,-152.0,-148.0,16208.0,974.0,2384.0,450.0,-0.01965294942449925,-0.8333822236526457,0.5507949828142045,0.04138499468877466
-5046.265024662018,-436.0,-272.0,16616.0,989.0,2201.0,421.0,-0.05383590559472904,-0.804601157087809,0.5683723440550937,-0.1633142730904822
-5046.280654430389,-280.0,-368.0,17048.0,886.0,1936.0,557.0,-0.07829561269767679,-0.7399880401352018,0.5752401978925376,-0.33968546070992295
-5046.296255350113,-60.0,-236.0,16696.0,1016.0,1698.0,525.0,-0.08108910837363742,-0.6597424183505318,0.5585532880941645,-0.4961680383613574
-5046.311865568161,-368.0,60.0,16856.0,532.0,1671.0,898.0,-0.09169542531511488,-0.5393863516901944,0.5670380641902293,-0.615728955260364
-5046.327474355698,-420.0,400.0,17112.0,354.0,1449.0,816.0,-0.10178940389611403,-0.41929663283553986,0.5685437327173225,-0.700419356482319
-5046.343108892441,-52.0,592.0,16840.0,352.0,1485.0,519.0,-0.12961138875995296,-0.3028241311954796,0.5473375439806939,-0.769363403352799
-5046.358706474304,80.0,512.0,16556.0,572.0,1576.0,223.0,-0.17295447396128225,-0.19066585831213048,0.49152823106705723,-0.8319454780662998
-5046.374304533005,-32.0,176.0,16204.0,969.0,1500.0,135.0,-0.2088612820773316,-0.08942191432843599,0.39577897797731026,-0.8897975537604532
-5046.389943599701,40.0,-176.0,16016.0,1439.0,1399.0,228.0,-0.2247975435565301,0.000912559714335482,0.2561114389864691,-0.9401447561232249
-5046.40557384491,-8.0,-364.0,16172.0,1697.0,1179.0,425.0,-0.21284196804074165,0.07263857283513772,0.09186581884608222,-0.9700425793256486
-5046.4211666584015,-32.0,-236.0,16372.0,1685.0,931.0,591.0,-0.17822682098945092,0.12280570132359321,-0.07098027465494457,-0.973712360305816
-5046.436749696732,-124.0,-40.0,16172.0,1494.0,565.0,585.0,-0.13950974212073244,0.14213425194741536,-0.21053563046144844,-0.9570839224346817
-5046.452325105667,284.0,-64.0,16100.0,1388.0,462.0,508.0,-0.1048628856818015,0.1529430419705011,-0.3351415519899991,-0.9237382428204591
-5046.46795296669,256.0,-44.0,15936.0,1425.0,292.0,347.0,-0.086643045738369,0.15190526981458902,-0.45329309634928744,-0.8740384090129057
-5046.4835386276245,132.0,176.0,16460.0,1546.0,110.0,312.0,-0.07825604427754855,0.13492051485598014,-0.5706331887043877,-0.8062569132442153
-5046.499146461487,392.0,288.0,16916.0,1492.0,225.0,219.0,-0.06861156411945107,0.12848610088991155,-0.673682554971909,-0.7245243890123443
-5046.514793395996,472.0,364.0,17304.0,1223.0,230.0,202.0,-0.05569864183136368,0.1230629299797856,-0.7500481180364805,-0.6474418871164159
-5046.53039598465,384.0,352.0,17372.0,869.0,145.0,75.0,-0.05115562709620572,0.12174533036982825,-0.7982225527968794,-0.5877090543423408
-5046.546000480652,188.0,236.0,16952.0,830.0,235.0,218.0,-0.03232725561073979,0.11454987284155103,-0.841576652149435,-0.5268605258829053
-5046.561581611633,148.0,-272.0,16848.0,956.0,-102.0,351.0,-0.03310996629295844,0.08104542966264579,-0.8851970275378056,-0.456904356404171
-5046.577193975449,-232.0,-396.0,17296.0,1012.0,-113.0,469.0,-0.030158178118704224,0.03719246611092782,-0.9241068643291883,-0.37912228641537715
-5046.592797994614,-28.0,184.0,17320.0,961.0,-5.0,426.0,-0.019506108207303446,0.00013020181062304626,-0.9532560567528098,-0.30153338961743115
-5046.608438968658,-80.0,676.0,17364.0,711.0,80.0,59.0,-0.011285470547262122,-0.0038766924251538936,-0.9701914962229715,-0.24204559501672276
-5046.62406873703,-332.0,772.0,17132.0,567.0,13.0,-219.0,-0.014602885396911408,0.014367363678233672,-0.9808697012661252,-0.1935845131644688
-5046.639663219452,-428.0,436.0,16444.0,609.0,-219.0,-259.0,-0.03842895328351996,0.03200820471168011,-0.9887232000711927,-0.1411563814414654
-5046.655282974243,-788.0,-180.0,15856.0,704.0,-403.0,-618.0,-0.08247883349966159,0.07771395625070715,-0.9903999830071357,-0.07915590115628665
-5046.670878648758,-516.0,-524.0,15624.0,751.0,-352.0,-592.0,-0.12163351180399021,0.12058125327249877,-0.9851465960945345,-0.012313990775301513
-5046.686459064484,-456.0,-556.0,15520.0,887.0,-42.0,-503.0,-0.13461241927727802,0.15376614631618077,-0.9764887466000777,0.06859443553815853
-5046.702077388763,-520.0,-380.0,15700.0,1041.0,295.0,-113.0,-0.12223757262803121,0.14872935708066487,-0.9678453622201671,0.16190401171463406
-5046.717659473419,-552.0,-48.0,15912.0,950.0,341.0,133.0,-0.1072410716505118,0.12205283528975931,-0.9560071841358475,0.24423906696028014
-5046.7333080768585,-640.0,192.0,16376.0,666.0,324.0,248.0,-0.09239129639465782,0.0880063169453358,-0.9452745953048644,0.30029098554478245
-5046.748908042908,-500.0,4.0,16272.0,313.0,137.0,241.0,-0.08976629950322662,0.06196006018050025,-0.9393824105068076,0.32505945494070076
-5046.764512300491,-172.0,120.0,16328.0,181.0,217.0,493.0,-0.08684858384871647,0.013937744129549857,-0.9374406304816443,0.33685030368730406
-5046.780116319656,-456.0,72.0,16436.0,164.0,-5.0,175.0,-0.09259931036978587,-0.0014803625320839841,-0.9325669288138457,0.34891560516624276
-5046.795747756958,-484.0,-40.0,16864.0,258.0,120.0,196.0,-0.08874385166705812,-0.023167223659620585,-0.9252085419585694,0.36820777073019345
-5046.811359405518,-636.0,48.0,17112.0,282.0,46.0,179.0,-0.0901902159937044,-0.04127021510404908,-0.9157154502338217,0.3893940272877127
-5046.826963663101,-260.0,48.0,17304.0,46.0,41.0,192.0,-0.09327493880485362,-0.05836421998458592,-0.9136130267723125,0.3914136442799045
-5046.842646360397,-520.0,300.0,17168.0,-143.0,-44.0,110.0,-0.10127575834975992,-0.06446042532231508,-0.9174322269948048,0.3793496846041926
-5046.8582417964935,-380.0,380.0,17048.0,-167.0,-59.0,32.0,-0.10800553284514985,-0.06358438365536073,-0.922121076572119,0.36603900225451297
-5046.873834848404,-148.0,296.0,16768.0,56.0,121.0,-134.0,-0.09367854761830396,-0.057183219187716766,-0.9220656836491947,0.3711459068829908
-5046.889434576035,-240.0,488.0,16724.0,232.0,247.0,-328.0,-0.06197625450983134,-0.04064661437126715,-0.9174035374887416,0.39099558312112576
-5046.90506529808,-188.0,224.0,16744.0,284.0,450.0,-369.0,-0.012327302261400474,-0.027945950456966854,-0.9099731437045813,0.4135407346422042
-5046.920746088028,-404.0,432.0,16824.0,255.0,466.0,-351.0,0.037920130634522854,-0.017134602209205648,-0.9007046220876321,0.43243456481850384
-5046.936355829239,-400.0,116.0,16476.0,195.0,290.0,-312.0,0.07273427110687745,-0.0029028356739938107,-0.8920701099527902,0.44599576038390515
-5046.952049255371,-496.0,-164.0,16264.0,216.0,503.0,-102.0,0.11580205787847912,-0.01315739294016695,-0.8794158760049565,0.46156742024601616
-5046.967652797699,-404.0,-352.0,16268.0,344.0,116.0,237.0,0.1154861221255395,-0.03252527619008433,-0.8634483926011485,0.4899611569498718
-5046.983302354813,-152.0,-200.0,16284.0,568.0,101.0,495.0,0.10332976713174637,-0.06827744077308381,-0.8348441541782801,0.536373366732847
-5046.998894453049,-20.0,28.0,16812.0,574.0,10.0,739.0,0.07265189158422343,-0.11702917470109209,-0.8007465044480538,0.5829501784305742
-5047.014580965042,-196.0,340.0,17104.0,417.0,-14.0,520.0,0.04939788258881932,-0.14975746992653438,-0.7729269667821733,0.6145864084226511
-5047.030187368393,-224.0,808.0,17368.0,152.0,-102.0,760.0,0.0037263838124897415,-0.1944430786023591,-0.7534518212664778,0.6280830807126923
-5047.045808553696,-392.0,1000.0,17008.0,-41.0,-277.0,489.0,-0.041951048567896124,-0.21115988225442633,-0.7465130412796168,0.6295791394652528
-5047.061399936676,-396.0,788.0,16948.0,10.0,-429.0,203.0,-0.08081964684114927,-0.2006574890936753,-0.7399394051399959,0.6369414678572612
-5047.076983213425,-488.0,368.0,16792.0,304.0,-355.0,217.0,-0.11039366455918288,-0.1968618885091514,-0.7159246701249224,0.660689414463654
-5047.0925834178925,-848.0,156.0,16936.0,488.0,-474.0,-103.0,-0.12548439259296393,-0.16746743602156827,-0.683655806635627,0.6991588254047337
-5047.108177185059,-960.0,264.0,17404.0,723.0,-492.0,-10.0,-0.14327216924172084,-0.1443220073711435,-0.6323358394866395,0.747526340545845
-5047.123796701431,-880.0,860.0,17648.0,725.0,-669.0,95.0,-0.17662970036367392,-0.11452965910694825,-0.5731907442165748,0.7919199939884927
-5047.139410018921,-920.0,1028.0,17572.0,509.0,-807.0,196.0,-0.22468541047715043,-0.0761045877030339,-0.521564288737613,0.8195701621965588
-5047.155006885529,-868.0,916.0,17136.0,321.0,-1071.0,414.0,-0.2993453983376069,-0.024484715361057136,-0.4721141164923029,0.8287949639183867
-5047.170634269714,-952.0,708.0,16744.0,207.0,-1095.0,669.0,-0.38996302903868063,0.021608628508361396,-0.42417348849928144,0.8170304491335157
-5047.186228752136,-1272.0,556.0,16604.0,115.0,-1195.0,1057.0,-0.5049545688875595,0.06313360326919318,-0.3734477465532438,0.7756106059693427
-5047.201872825623,-1276.0,304.0,16236.0,170.0,-1153.0,1342.0,-0.626880362474154,0.08882366895767274,-0.31452109815106877,0.7072537350873566
-5047.217520236969,-1200.0,156.0,16600.0,293.0,-1219.0,1543.0,-0.7467593197909723,0.10402873356252595,-0.2378999978589279,0.612317019130959
-5047.233158111572,-1532.0,200.0,16244.0,319.0,-1343.0,2128.0,-0.870244295141439,0.10804805185865664,-0.148801246480613,0.45701058446073783
-5047.248770952225,-1096.0,448.0,16416.0,508.0,-1468.0,2365.0,-0.9596298144746931,0.09424566543989378,-0.03799521160905397,0.26226844570371227
-5047.264364719391,-1016.0,736.0,16452.0,33.0,-1746.0,2432.0,-0.9882133213405401,0.11906405386154961,0.08612677337280357,0.042899434862740005
-5047.280006170273,-976.0,1052.0,15904.0,-106.0,-2100.0,2423.0,-0.9441696843821795,0.14833261904487124,0.23254597624655315,-0.18017605321596483
-5047.29558300972,-940.0,1060.0,15856.0,-188.0,-2351.0,2542.0,-0.8175328697091732,0.17066010064130002,0.379136566713808,-0.3984602875753765
-5047.311219453812,-756.0,1320.0,15832.0,-139.0,-2627.0,2083.0,-0.629738119365725,0.1516845530990132,0.5184440615842515,-0.5582449752365867
-5047.326836824417,-468.0,1200.0,15772.0,-31.0,-2915.0,1863.0,-0.38935391965124655,0.09152375424592121,0.6273957608798392,-0.6681328362615854
-5047.342479467392,-644.0,1216.0,16000.0,43.0,-3185.0,1692.0,-0.11125653335511886,-0.0029063825088537134,0.6862912282774868,-0.7187613558865641
-5047.358066082001,-480.0,892.0,16004.0,-142.0,-3391.0,1756.0,0.19163717290730534,-0.10348065769479989,0.6910421109089935,-0.689222568111049
-5047.373655557632,-4.0,760.0,16520.0,-377.0,-3460.0,1934.0,0.48487897604775637,-0.190117195074764,0.6358931744265243,-0.5695504380136507
-5047.389330148697,-84.0,476.0,16504.0,-612.0,-3332.0,2150.0,0.7235339779082982,-0.24755123846860014,0.5293224772376599,-0.3674706549315789
-5047.40497636795,-216.0,388.0,16460.0,-813.0,-3896.0,2460.0,0.8933295104212952,-0.28710703008372424,0.3354529009809269,-0.08368566370910265
-5047.420588970184,160.0,320.0,16420.0,-806.0,-4189.0,2708.0,0.9292649728961299,-0.27550707650646955,0.07539470233471027,0.234260751734203
-5047.4361889362335,328.0,356.0,16160.0,-822.0,-4355.0,2782.0,0.8016734257757846,-0.2133584882930064,-0.20721663571914598,0.5185162868796692
-5047.451867580414,592.0,200.0,15720.0,-944.0,-4761.0,2945.0,0.5060720381846882,-0.10484105209681809,-0.4731697355017176,0.7134492605420952
-5047.467462539673,500.0,112.0,15208.0,-1139.0,-4960.0,3006.0,0.09212324423454157,0.026330230078142818,-0.6536725405304421,0.7506878423234338
-5047.483073949814,288.0,224.0,15428.0,-1180.0,-4933.0,3108.0,-0.3463829390649454,0.14444017524051994,-0.6901972734453895,0.618695093749553
-5047.498673439026,1036.0,-636.0,15276.0,-1061.0,-4623.0,3451.0,-0.7102630536398349,0.19427697167608704,-0.5795639285568848,0.34912534371812115
-5047.514297246933,964.0,-780.0,15988.0,-743.0,-4791.0,3353.0,-0.9267888050677793,0.19266818698290855,-0.32178043364364023,0.0199708049378923
-5047.529933691025,1120.0,-776.0,16612.0,-511.0,-5002.0,3858.0,-0.9322965737587348,0.11748085433238896,0.015135643744501045,-0.34174882547200564
-5047.545510292053,1420.0,-916.0,17120.0,-120.0,-5090.0,4058.0,-0.6984314970569937,-0.016963471312541153,0.34023587675127714,-0.629400693303594
-5047.561135530472,1536.0,-924.0,17336.0,-221.0,-5311.0,4299.0,-0.26188133054727464,-0.14392116634216953,0.5859213698302365,-0.7532602571261529
-5047.576736688614,1608.0,-508.0,17288.0,-599.0,-5482.0,4234.0,0.24734842891088757,-0.23434023254676448,0.6870736207668492,-0.6417423546654653
-5047.592328071594,1348.0,60.0,17436.0,-1085.0,-5669.0,4063.0,0.6749654065211613,-0.28234322748283225,0.6031736177291175,-0.3176249183705046
-5047.607978105545,1216.0,1184.0,18128.0,-1869.0,-5751.0,3959.0,0.8808722099233725,-0.29043474863840674,0.3498059281851875,0.13171036092335023
-5047.623578310013,1864.0,2048.0,17964.0,-2903.0,-5362.0,3333.0,0.7975035284915436,-0.29932081859568993,-0.00983293948693579,0.5237351266621229
-5047.639210224152,1684.0,3536.0,18368.0,-4510.0,-4973.0,2301.0,0.4848291664997654,-0.3295431914126339,-0.4267926097683206,0.6886145747454558
-5047.654817819595,2852.0,3756.0,18160.0,-5347.0,-3455.0,887.0,0.13000523808804987,-0.3323665169754206,-0.7577242966938899,0.5463378319895547
-5047.670450925827,2772.0,3248.0,18028.0,-5788.0,-2459.0,-1071.0,-0.13059161042639683,-0.18339751215503697,-0.9546910240031532,0.1946181710668198
-5047.6860501766205,3392.0,2324.0,17540.0,-5858.0,-2270.0,-3351.0,-0.30289438152382425,0.17090104405373382,-0.9189365524790994,-0.1860199970445955
-5047.701654434204,4452.0,2120.0,17136.0,-5108.0,-2289.0,-5341.0,-0.41191654521480825,0.5777903850034235,-0.5765804517138162,-0.4050160657028115
-5047.717340707779,5008.0,1580.0,17016.0,-4065.0,-1909.0,-6066.0,-0.43212170444568776,0.8030940310176294,-0.04862339106909077,-0.40736540811874394
-5047.73294377327,6128.0,-212.0,17064.0,-2939.0,-775.0,-6264.0,-0.38642013141053505,0.7801402631336521,0.4480227322521614,-0.20331326386571336
-5047.748515844345,6852.0,-1968.0,17192.0,-2280.0,509.0,-6195.0,-0.31262786402102893,0.5400475936293359,0.7733329900031718,0.11210932978823489
-5047.7640998363495,6276.0,-3188.0,17152.0,-2251.0,1452.0,-6210.0,-0.2099724596726111,0.14469712132452328,0.8649233038988338,0.4322984936732438
-5047.779743671417,6020.0,-4496.0,16808.0,-2304.0,2552.0,-6317.0,-0.11453196077067816,-0.3271760495494948,0.686808145344207,0.6388527483325565
-5047.795311450958,5232.0,-3896.0,15820.0,-2352.0,3208.0,-5834.0,-0.041478611261133176,-0.70850845586616,0.30381528085478926,0.6356033101653287
-5047.810948133469,4716.0,-2848.0,15608.0,-2403.0,3225.0,-5046.0,0.003780857922555689,-0.8821956460460275,-0.13357402622378606,0.4515246690150704
-5047.826625823975,4672.0,-2512.0,15724.0,-2641.0,2975.0,-4473.0,0.010110968208070894,-0.840338571112809,-0.5150844223581356,0.1685731059984477
-5047.842228412628,4992.0,-2056.0,16036.0,-2779.0,2763.0,-4082.0,-0.00844613910020641,-0.6275196867896563,-0.7647736174876482,-0.14583901885492898
-5047.857822418213,5528.0,-2188.0,16236.0,-2501.0,2801.0,-4080.0,-0.009331840773539983,-0.285897083845859,-0.8627285960110667,-0.4169833855454975
-5047.873401641846,5416.0,-2524.0,16020.0,-2589.0,2767.0,-4297.0,-0.01962415746146219,0.12569547945018056,-0.7852166443228721,-0.6060118483726579
-5047.8889746665955,5796.0,-2568.0,15052.0,-2774.0,3200.0,-4792.0,-0.020360617952738802,0.5484810360477509,-0.5163068687945187,-0.6574049099057355
-5047.904557943344,5628.0,-2312.0,14896.0,-2642.0,2989.0,-4878.0,-0.03423765622316969,0.8275656257103589,-0.11951949192968682,-0.5474285424489993
-5047.920268297195,5276.0,-2404.0,14448.0,-2544.0,2924.0,-4729.0,-0.04053689145241126,0.9035593432063955,0.2955034924308434,-0.30759544810835043
-5047.9359312057495,5156.0,-3004.0,14136.0,-2560.0,2709.0,-4838.0,-0.0339158102056893,0.7593713879818123,0.649703131581234,-0.009521226087287279
-5047.951542377472,5128.0,-3948.0,13936.0,-2360.0,2837.0,-4163.0,-0.03766963429323594,0.47909810538405223,0.8268762062947315,0.29209885917828965
-5047.967141151428,4988.0,-4264.0,14148.0,-2095.0,2612.0,-3816.0,-0.03778515583912748,0.1315963637294381,0.8451613743799716,0.516678749618716
-5047.982794761658,5060.0,-4092.0,14588.0,-1621.0,2354.0,-3640.0,-0.026610103359308072,-0.2204540822101234,0.747365432980726,0.6262082797453502
-5047.9984312057495,5372.0,-3624.0,14844.0,-1119.0,2467.0,-3599.0,-0.011525562955101468,-0.5467268714592965,0.5687618429938894,0.6143833130685535
-5048.014089107513,5176.0,-3216.0,15276.0,-1008.0,2434.0,-3735.0,0.018413577591021933,-0.8003071560688803,0.3101835770141078,0.5127919116522542
-5048.02968788147,4844.0,-2944.0,15476.0,-1535.0,1988.0,-3975.0,0.03264714206044587,-0.9245212486915195,-0.030577918455847848,0.37849652011090706
-5048.045339584351,4880.0,-2968.0,15228.0,-1369.0,1557.0,-3804.0,0.048662443839849995,-0.9070037483962584,-0.3539229214575773,0.2229680080675331
-5048.060917139053,4676.0,-3192.0,14832.0,-1281.0,1085.0,-3628.0,0.04853663712983122,-0.7755974118073289,-0.6245682887140998,0.07750678929384695
-5048.076553821564,4684.0,-3528.0,14648.0,-1387.0,1095.0,-3272.0,0.03472296646650858,-0.58065559861683,-0.8092744047483994,-0.08190439068707055
-5048.092153310776,4584.0,-3688.0,14712.0,-993.0,1032.0,-2931.0,0.03498582431865641,-0.3551069207372684,-0.9113760663038537,-0.20510663741028223
-5048.107790470123,4408.0,-3680.0,15204.0,-588.0,1499.0,-2509.0,0.08819011998801035,-0.12624898315652835,-0.9426370479128584,-0.29617409220013535
-5048.1234176158905,4408.0,-3932.0,15728.0,-428.0,1715.0,-2252.0,0.161445423084668,0.09711303564311806,-0.9150281622873745,-0.35669019596027773
-5048.1390109062195,4240.0,-4092.0,15868.0,-371.0,1572.0,-2089.0,0.21940362989827625,0.29981841857509794,-0.841522226611179,-0.39218784426592196
-5048.154653787613,4348.0,-3876.0,16044.0,-439.0,1196.0,-2053.0,0.2431658735383862,0.4727470366221143,-0.7336878399368626,-0.42318169955718005
-5048.170262813568,3760.0,-3492.0,15716.0,-373.0,906.0,-1889.0,0.24269854485208076,0.6088398269146026,-0.6122247824399887,-0.44225817941061035
-5048.18586230278,3812.0,-3192.0,15296.0,-244.0,810.0,-1774.0,0.22719227070532524,0.7192121476957456,-0.48426443281276943,-0.44340220776531775
-5048.201507806778,3560.0,-3240.0,15084.0,-116.0,831.0,-1691.0,0.20146987786600554,0.809613636894693,-0.3523606387264727,-0.4240019192681529
-5048.217141151428,3544.0,-3212.0,15112.0,70.0,1061.0,-1602.0,0.16754612018442722,0.886961423729091,-0.21998376462502756,-0.36991198105631784
-5048.232753992081,3344.0,-3316.0,15688.0,137.0,1130.0,-1289.0,0.13551281795341352,0.93966391507837,-0.10687363252561884,-0.2953743887690565
-5048.248354673386,3824.0,-3468.0,15752.0,214.0,1233.0,-1394.0,0.09229993311819001,0.9740481620161497,0.016327524105588624,-0.20602017468180037
-5048.264004707336,3508.0,-3332.0,15956.0,505.0,1063.0,-1228.0,0.02547877527368486,0.9846871263630498,0.11892509007246058,-0.12489562897351449
-5048.27960729599,3380.0,-3868.0,15948.0,300.0,656.0,-1025.0,-0.018202917551767433,0.9760393591130943,0.20400539441119794,-0.073468512342602
-5048.295206069946,3316.0,-4192.0,15880.0,375.0,714.0,-760.0,-0.06745589627186951,0.9619950609387661,0.26398959420414525,-0.018019404527042517
-5048.310830831528,2872.0,-4168.0,15880.0,354.0,851.0,-636.0,-0.11727145933215706,0.9420972990647172,0.3103515853977322,0.04880550544954067
-5048.326475143433,2972.0,-3688.0,16284.0,411.0,963.0,-616.0,-0.17360431728538442,0.9119760295047702,0.3509334293637682,0.12250302356911473
-5048.342061042786,2708.0,-3260.0,16488.0,206.0,1072.0,-877.0,-0.211935107702868,0.8640780018091384,0.4036971544328383,0.21326350933839902
-5048.35764336586,2656.0,-2496.0,16672.0,-56.0,909.0,-1246.0,-0.21465828003215515,0.7970598321434438,0.47551362631699623,0.30414509363782605
-5048.3733286857605,2248.0,-1864.0,16636.0,-375.0,526.0,-1533.0,-0.1679842875857481,0.7189221810024214,0.5565093363335097,0.381089930804616
-5048.388931751251,2180.0,-1968.0,15740.0,-607.0,432.0,-1896.0,-0.08648798536074856,0.6117230871241365,0.6389197651792581,0.4583625494418549
-5048.404538869858,2176.0,-2632.0,15180.0,-625.0,668.0,-2154.0,-0.004131491410695523,0.4600537750816783,0.7092069101601718,0.5341900536259373
-5048.4201781749725,2168.0,-3312.0,15164.0,-390.0,452.0,-2341.0,0.09069546254739354,0.28784013317317475,0.7679321891825309,0.5649801267526933
-5048.4358496665955,2424.0,-3640.0,15084.0,47.0,-60.0,-2401.0,0.20743597963612473,0.12744006774997485,0.812384329831567,0.5298688933390964
-5048.451459407806,2644.0,-3492.0,15164.0,259.0,-347.0,-2265.0,0.3273799936448863,-0.012201352815804306,0.8266477635969743,0.45752261331070765
-5048.467103481293,2616.0,-2924.0,15136.0,947.0,-568.0,-2077.0,0.44312624715107624,-0.11003416683536855,0.8286881338856718,0.32374000057412194
-5048.482705116272,3024.0,-2120.0,15176.0,1347.0,-755.0,-1873.0,0.5514277241810861,-0.16834174241704697,0.8017098838956178,0.15763814522042413
-5048.498282909393,3148.0,-1792.0,15616.0,1508.0,-316.0,-1906.0,0.6082409621968917,-0.21981382187688356,0.7619410128339064,-0.03421561893811087
-5048.5139055252075,3436.0,-1880.0,16724.0,1332.0,317.0,-1813.0,0.595777197854908,-0.26358960718673236,0.7257996442073608,-0.22087309923973683
-5048.529537677765,3472.0,-2464.0,17484.0,1116.0,336.0,-1782.0,0.5563540686329582,-0.3067092295520799,0.6692074843459705,-0.3854360410216727
-5048.5451374053955,3292.0,-3060.0,17720.0,788.0,-236.0,-1248.0,0.5446934389308354,-0.3463259940181869,0.5926934114940605,-0.48174877625640866
-5048.560739040375,3208.0,-3124.0,17188.0,409.0,-858.0,-942.0,0.5580975977299978,-0.40887691001810206,0.5026833640783933,-0.5183205372555518
-5048.57631278038,2852.0,-2640.0,16424.0,190.0,-1414.0,-980.0,0.5761075450671783,-0.500847489551261,0.38572427630206163,-0.518139625388871
-5048.591940164566,2624.0,-2280.0,15908.0,362.0,-1488.0,-849.0,0.5967730375773098,-0.5717889003687318,0.2543464189468067,-0.5022223553415388
-5048.607538223267,2716.0,-1636.0,15432.0,495.0,-1028.0,-715.0,0.6088395231785997,-0.6026722426445271,0.1423509756307619,-0.49581932465207734
-5048.623160362244,2748.0,-2020.0,15180.0,638.0,-456.0,-362.0,0.6306882201632182,-0.591179251339053,0.0712077786169709,-0.4976634545533612
-5048.638797998428,2584.0,-2320.0,15328.0,762.0,-120.0,163.0,0.676316133515675,-0.5519644418824188,0.03978652505578444,-0.4861571503822845
-5048.654435873032,2556.0,-2968.0,15708.0,897.0,-36.0,868.0,0.7521191704531768,-0.4944162966219201,0.04115159750794108,-0.4337923755600542
-5048.670038700104,2676.0,-2840.0,15968.0,900.0,-101.0,1451.0,0.8370663002117974,-0.42899018892370966,0.06233490916501857,-0.33376906081349367
-5048.685644626617,2792.0,-2380.0,16204.0,925.0,-127.0,1828.0,0.9112165880782882,-0.3493844602004799,0.09300065630397814,-0.19739733156355435
-5048.701285600662,2792.0,-1896.0,16532.0,774.0,0.0,1921.0,0.9525558040703905,-0.2676786908473892,0.13591445405461808,-0.050128033844090626
-5048.716909646988,2628.0,-1660.0,16476.0,1119.0,121.0,2038.0,0.9664980382151414,-0.14674964831231085,0.18472287805623042,0.10111152836902063
-5048.732527971268,2740.0,-1292.0,16440.0,1264.0,225.0,1793.0,0.9459450281343447,-0.0128563299251022,0.23327343075957205,0.2249582739763753
-5048.7480890750885,2496.0,-1040.0,16804.0,1604.0,158.0,1959.0,0.8847192500030489,0.15265894839936256,0.27311084379003775,0.3455105803762558
-5048.763733148575,2348.0,-1152.0,16740.0,1544.0,-201.0,1635.0,0.8042566402949856,0.3108462085650011,0.2768108846389056,0.4241716931946453
-5048.779325008392,2396.0,-1264.0,16444.0,1350.0,-270.0,1289.0,0.7168748647105363,0.4406951016749799,0.26908132412444236,0.4684799853925096
-5048.794897317886,2352.0,-1360.0,16248.0,1256.0,-336.0,1156.0,0.6221376342477914,0.5537077503492035,0.25194920497299916,0.4928225739241849
-5048.81053853035,2248.0,-1468.0,16160.0,1159.0,-338.0,1094.0,0.5213260566591941,0.6486156108640162,0.2282044844845124,0.5054103731155821
-5048.826176404953,2424.0,-1532.0,16340.0,1190.0,-217.0,1193.0,0.4013170556612545,0.7280571485336068,0.20103292439966458,0.5181343190832026
-5048.841813325882,2388.0,-1240.0,16160.0,1197.0,-50.0,1455.0,0.2569077155521006,0.7871301343619209,0.15877947909534262,0.5377858814504125
-5048.857419490814,2416.0,-1228.0,16240.0,1043.0,-38.0,1574.0,0.11041506770418168,0.8229482769412124,0.09740057693542706,0.5487055439085855
-5048.8730182647705,2448.0,-1480.0,16252.0,852.0,-191.0,1569.0,-0.02402051305290561,0.8432927961623835,0.023354044718790542,0.5364092313603268
-5048.888660669327,2504.0,-1612.0,16340.0,780.0,-353.0,1495.0,-0.1490607428533424,0.8516000595836704,-0.04889299425128131,0.5001676804535088
-5048.90426158905,2608.0,-1576.0,16132.0,751.0,-546.0,1328.0,-0.2626185926507116,0.8514675702439286,-0.10665854287447252,0.4412010957023501
-5048.920070648193,2692.0,-1136.0,16116.0,787.0,-590.0,1100.0,-0.36599264405156356,0.838922145248392,-0.14338865901998452,0.3764288925898649
-5048.935720443726,3124.0,-600.0,16112.0,658.0,-282.0,810.0,-0.4424138485669399,0.8133584746867384,-0.1712971123332475,0.3367124553053271
-5048.951316356659,3312.0,72.0,16404.0,368.0,-191.0,269.0,-0.478920331524541,0.799935401394098,-0.1720190911148724,0.3180378938757144
-5048.966913461685,3220.0,296.0,16588.0,-124.0,-430.0,-124.0,-0.4729551755708899,0.8181892245799562,-0.1486784481992612,0.2911606321655083
-5048.982502222061,3324.0,464.0,16548.0,-496.0,-815.0,-432.0,-0.4353801766126574,0.8613457753242076,-0.09635830482630972,0.24339809825648012
-5048.99813747406,3184.0,-384.0,16548.0,-862.0,-1107.0,-532.0,-0.36552171329606525,0.9142548776706058,-0.03230947834818945,0.17172068417486236
-5049.013763427734,3164.0,-1336.0,16136.0,-893.0,-1450.0,-567.0,-0.28641338889780765,0.9544168201276962,0.04527773150045304,0.0707518985440157
-5049.029377698898,3076.0,-2284.0,15896.0,-470.0,-1365.0,-383.0,-0.23754254377867112,0.9649038231885526,0.10750654234278417,-0.03124892389782201
-5049.044963598251,3004.0,-2096.0,15992.0,-28.0,-1050.0,-199.0,-0.22494605359309436,0.9565848827168996,0.14548859884254414,-0.1147941755370086
-5049.060573577881,2724.0,-1548.0,16264.0,163.0,-932.0,-184.0,-0.22780550045682219,0.9383790890765714,0.17689860754341907,-0.19041066617876368
-5049.0761523246765,2456.0,-1124.0,16472.0,80.0,-1016.0,-14.0,-0.21808515220408942,0.9160487690395474,0.1961464665656717,-0.27353259912312256
-5049.091799020767,2456.0,-852.0,16404.0,-84.0,-917.0,-505.0,-0.20689941410242935,0.8833781805138883,0.2549236720678559,-0.334439148509088
-5049.1074430942535,2400.0,-800.0,16180.0,-248.0,-811.0,-209.0,-0.17536130382318685,0.857014949171397,0.29207837861057423,-0.3866057562509873
-5049.12310051918,2472.0,-1020.0,16424.0,-195.0,-661.0,-157.0,-0.14897220283349458,0.8320753251500744,0.31991082208733146,-0.4279193872340231
-5049.138718366623,2632.0,-1144.0,16748.0,146.0,-379.0,8.0,-0.1486349867745188,0.8156936519384632,0.31859775441046606,-0.45939849562056734
-5049.154306173325,2704.0,-1300.0,16932.0,391.0,-474.0,37.0,-0.16161139443669773,0.7914558721455741,0.3059832759446504,-0.5038388576486481
-5049.1699204444885,2620.0,-1736.0,16616.0,300.0,-706.0,-216.0,-0.17260226114394658,0.7485392459699758,0.3168958524810333,-0.5563043010538532
-5049.18553686142,2524.0,-1768.0,16532.0,129.0,-842.0,-333.0,-0.1733991977383301,0.6942186534362454,0.3439668230112764,-0.608013161134197
-5049.201160907745,2704.0,-1428.0,16380.0,-40.0,-726.0,-438.0,-0.1719923772849877,0.6413042653795235,0.38254979557354896,-0.6424975605156212
-5049.216792821884,2816.0,-1028.0,16244.0,-114.0,-617.0,-622.0,-0.17939868056867508,0.5858166617168827,0.43171201646125024,-0.6620118481629065
-5049.232392549515,2944.0,-900.0,16420.0,-158.0,-313.0,-516.0,-0.1891043554190212,0.5498573331839796,0.4713899310269838,-0.663089729095342
-5049.248081922531,2884.0,-1220.0,16552.0,-133.0,-170.0,-829.0,-0.22313220007549148,0.5066010982707688,0.5201835068382874,-0.6503664103670661
-5049.263724803925,2752.0,-1496.0,16624.0,-230.0,-351.0,-1067.0,-0.25636857272611707,0.44042203267480307,0.5842864876225039,-0.6315955101445275
-5049.279309749603,2852.0,-1704.0,16480.0,-150.0,-285.0,-1052.0,-0.292775915808685,0.372622019532307,0.6363844750305221,-0.6086459509617864
-5049.294913291931,2720.0,-2004.0,16196.0,-70.0,-240.0,-968.0,-0.32741404579650135,0.306656517093609,0.6750819390543068,-0.5856843848881926
-5049.310516357422,2732.0,-2276.0,16060.0,96.0,26.0,-1019.0,-0.38215551104520573,0.2441650844770679,0.6938582894697352,-0.5593757690803357
-5049.326169967651,2772.0,-1972.0,16132.0,312.0,508.0,-500.0,-0.44303800941752625,0.2277063573188037,0.6706948780794261,-0.5495775810256285
-5049.34179353714,2912.0,-1456.0,16220.0,427.0,508.0,-322.0,-0.49576418472057704,0.21621258878113808,0.6355443512781447,-0.5509567743111454
-5049.357391357422,2868.0,-1408.0,16272.0,305.0,443.0,-102.0,-0.5304794342307917,0.21835458521863388,0.6028259636647694,-0.5545391803144479
-5049.372969150543,2860.0,-1492.0,16564.0,251.0,286.0,-64.0,-0.5531830308450073,0.2170217188336203,0.5782000249163697,-0.5590839285173042
-5049.388561487198,2896.0,-1420.0,16448.0,190.0,106.0,82.0,-0.5581042265915126,0.21704457691677814,0.5620097468946205,-0.5705754711579801
-5049.404138088226,2820.0,-1444.0,16064.0,56.0,138.0,184.0,-0.5567417578483852,0.2300935469964817,0.5487610910938411,-0.5796178392699496
-5049.419789552689,2884.0,-1344.0,15956.0,-74.0,361.0,211.0,-0.5615771558114919,0.26180152462882683,0.5302272660398328,-0.578748741787506
-5049.435419082642,2704.0,-1068.0,16012.0,-245.0,311.0,111.0,-0.5644933896180335,0.2943828420928857,0.5243594787379438,-0.5654494605325306
-5049.45100402832,2844.0,-1116.0,16124.0,-303.0,175.0,11.0,-0.5640055239067289,0.3182129692407315,0.5300460321474296,-0.5474390185349044
-5049.466627836227,3120.0,-1132.0,16384.0,-226.0,58.0,16.0,-0.5596261221132016,0.3326884730464292,0.5373265988049496,-0.5361129634389379
-5049.482226371765,3416.0,-1424.0,16564.0,-75.0,-248.0,-235.0,-0.5566501304307993,0.3134842064429661,0.5594125022726537,-0.528134392842623
-5049.497823476791,3376.0,-1276.0,16396.0,-121.0,-598.0,-132.0,-0.5295347506073078,0.28484127317185864,0.596672039637225,-0.5314516667696552
-5049.5134398937225,3016.0,-1296.0,16200.0,-350.0,-746.0,-234.0,-0.49155549809595395,0.25344653496990405,0.6512908392148232,-0.5195751042517716
-5049.529019117355,2824.0,-1116.0,16052.0,-512.0,-871.0,-278.0,-0.44156572582142584,0.21913936427415567,0.7149599203007777,-0.49581242538768794
-5049.544692516327,2836.0,-1020.0,16200.0,-676.0,-679.0,-216.0,-0.3942447011142845,0.20155120751882713,0.7716133429005264,-0.45668487543259584
-5049.560291528702,2832.0,-1208.0,16264.0,-697.0,-244.0,-306.0,-0.3769067409936216,0.19469992455770524,0.8111433171983092,-0.40259131502717954
-5049.575920581818,2712.0,-1740.0,16528.0,-722.0,-48.0,-443.0,-0.3758504277084893,0.1848744581833208,0.8432605814602163,-0.33685231550064615
-5049.591490983963,2868.0,-2096.0,16448.0,-260.0,89.0,-401.0,-0.3897200442115938,0.16633909138356975,0.8536381375325003,-0.3029051402129816
-5049.607098340988,3032.0,-2424.0,16460.0,-160.0,152.0,-132.0,-0.4021880009632824,0.16591112568995164,0.8543481302110558,-0.2842667456075797
-5049.622721195221,3008.0,-2464.0,16500.0,246.0,15.0,-19.0,-0.40732265112308924,0.1561815397706629,0.8477422954250012,-0.30170943814284756
-5049.638315677643,2912.0,-2372.0,16288.0,-28.0,-31.0,-256.0,-0.41136125227894316,0.1373691087222653,0.8527998207883872,-0.2909366146700083
-5049.6539306640625,2848.0,-2116.0,16124.0,-344.0,225.0,-19.0,-0.4242729598196386,0.15391232884597025,0.8530816871087178,-0.26183026126641135
-5049.669527769089,2880.0,-1868.0,16308.0,-559.0,335.0,-63.0,-0.4425075011397458,0.17728067526276484,0.8528549062067611,-0.21306614600281487
-5049.685161828995,2928.0,-1960.0,15996.0,-726.0,346.0,-511.0,-0.4650138506764345,0.173107894006868,0.8578889227183464,-0.13350045688587311
-5049.700757265091,3084.0,-2380.0,15948.0,-619.0,240.0,-444.0,-0.47773539967569256,0.16736735930186789,0.8599328047951068,-0.06536532853315064
-5049.7163853645325,2988.0,-2816.0,15716.0,-313.0,201.0,-598.0,-0.490825380517436,0.13641580760091276,0.8603984231830186,-0.013990234475518728
-5049.7320437431335,3120.0,-2872.0,15392.0,-73.0,242.0,-599.0,-0.508136706548935,0.09469681280619073,0.8558212296183836,0.019990598701108687
-5049.74763917923,2960.0,-2648.0,15768.0,41.0,295.0,-527.0,-0.5289481749275539,0.05292102564963507,0.8459268950575667,0.04267178814234322
-5049.7632188797,2964.0,-2828.0,15804.0,-117.0,316.0,-579.0,-0.5487416668011418,0.01437324390272436,0.8320924962968305,0.07936038421357869
-5049.778831243515,3004.0,-2664.0,16120.0,-137.0,314.0,-528.0,-0.5669601952866937,-0.01955094129941646,0.8154693802458196,0.1148198046343922
-5049.7944593429565,2952.0,-2524.0,16028.0,-215.0,213.0,-448.0,-0.5774542566071691,-0.04287306474148921,0.8010467661923647,0.15176481877789907
-5049.810035228729,2952.0,-2684.0,16040.0,-193.0,97.0,-369.0,-0.5797666052195198,-0.06017049686631616,0.7915958519793924,0.18337448543380858
-5049.825635433197,3120.0,-2880.0,16092.0,-159.0,12.0,-252.0,-0.5773020753140305,-0.06968182582990504,0.7867796710498324,0.20698914514979222
-5049.84121799469,3188.0,-2736.0,16280.0,-111.0,263.0,-223.0,-0.5918139712359167,-0.08408891859887918,0.7697026842784501,0.22414962644044947
-5049.856804609299,3292.0,-2764.0,16360.0,251.0,68.0,-275.0,-0.5889411250256499,-0.11677138979048168,0.7685847292787763,0.2208852817627089
-5049.872396707535,3376.0,-2556.0,15892.0,18.0,247.0,-396.0,-0.5972988284707396,-0.14887226017125768,0.7514946038781427,0.23733314138783146
-5049.888003826141,3256.0,-2536.0,16016.0,56.0,249.0,-455.0,-0.602955760176623,-0.1865688107873233,0.7329202530267842,0.2538982725707077
-5049.903586626053,3108.0,-2448.0,15948.0,122.0,254.0,-421.0,-0.6073966111529643,-0.2252926729509745,0.7146210470042302,0.2638736960234532
-5049.919349908829,2976.0,-2496.0,16076.0,137.0,80.0,-269.0,-0.6033744017043969,-0.251040059883526,0.7079044938023207,0.2679355283571347
-5049.9349620342255,3024.0,-2332.0,16084.0,192.0,103.0,-211.0,-0.600487849018452,-0.2764551164542678,0.7020252272669879,0.2648537182072093
-5049.950575590134,3020.0,-2384.0,16156.0,212.0,165.0,-114.0,-0.6027524764349559,-0.29822146495902024,0.6952287590816576,0.253792006444258
-5049.96616601944,3084.0,-2444.0,16152.0,249.0,142.0,-103.0,-0.6024941213461955,-0.32055400100950837,0.690279044617163,0.24033478055098215
-5049.98198890686,3320.0,-2480.0,16284.0,226.0,69.0,-128.0,-0.5975794041450287,-0.3414525741480577,0.6875548246240533,0.23146783466720622
-5049.997762441635,3032.0,-2648.0,16284.0,1.0,-89.0,-114.0,-0.589956504969567,-0.3464675429305988,0.688702573188876,0.24000068671307562
-5050.013380289078,2920.0,-2776.0,15920.0,406.0,-214.0,82.0,-0.5661608586707377,-0.3576153149747214,0.7100637304253168,0.21767560115738016
-5050.029029130936,3000.0,-2456.0,15816.0,484.0,-145.0,258.0,-0.5463937599888653,-0.36229816582565505,0.7335296002998484,0.17924347566520016
-5050.044712781906,2948.0,-2352.0,15800.0,443.0,-176.0,266.0,-0.5247742518063618,-0.3631884265020486,0.7563630737553969,0.14360032087473565
-5050.060321569443,2976.0,-2192.0,15944.0,473.0,-211.0,360.0,-0.4996939728522226,-0.35786440240093614,0.7821444482319045,0.10241613686032533
-5050.075947523117,3016.0,-1932.0,16128.0,582.0,-50.0,312.0,-0.48017441612516326,-0.36086924516892094,0.7979041618493941,0.05054568718978473
-5050.09156703949,3032.0,-1772.0,16148.0,548.0,-80.0,227.0,-0.45780158783450703,-0.36714780285505183,0.8096859940898904,0.005365445888117906
-5050.107150793076,3100.0,-1728.0,16264.0,476.0,23.0,215.0,-0.4438915347277679,-0.37057457654815845,0.8149983032256221,-0.03758396403437032
-5050.1228041648865,3144.0,-1920.0,16448.0,378.0,58.0,161.0,-0.4350548882117754,-0.37330875208656267,0.8161506864418872,-0.07256636189757365
-5050.138450622559,2820.0,-1932.0,16388.0,304.0,13.0,92.0,-0.42540366991118994,-0.3780490127732806,0.8163827441418184,-0.09813193483628815
-5050.1540586948395,3028.0,-1928.0,16292.0,318.0,-132.0,109.0,-0.4044427852509255,-0.3830085396915948,0.8217179668043397,-0.12045777273687283
-5050.169644832611,3040.0,-2024.0,16060.0,338.0,-4.0,162.0,-0.39101381232480603,-0.3831370575604393,0.8232502434890493,-0.1502439026728575
-5050.185276031494,2972.0,-2056.0,16024.0,340.0,-310.0,20.0,-0.35688341741404755,-0.39703035574882667,0.8293426171384184,-0.16489980711580532
-5050.200868368149,2972.0,-2116.0,16036.0,339.0,-324.0,382.0,-0.3158032322336411,-0.3840469689922221,0.8465914899141482,-0.1898923203386979
-5050.216503143311,3116.0,-2024.0,16380.0,316.0,-149.0,475.0,-0.28600402297374394,-0.35963322955636257,0.8602216383682756,-0.22109810475147532
-5050.232097625732,3056.0,-1912.0,16224.0,288.0,-103.0,455.0,-0.2602030452048984,-0.3342487736630816,0.8704969539058018,-0.2506136185675944
-5050.247740268707,3112.0,-1920.0,16276.0,284.0,-64.0,481.0,-0.23629703429197102,-0.3051699060510007,0.8786876270921046,-0.2809681370207117
-5050.2633221149445,3084.0,-1748.0,16324.0,326.0,-89.0,460.0,-0.20929208191617518,-0.278438147640027,0.883657205691794,-0.3127602359874955
-5050.278909921646,3172.0,-1856.0,16204.0,382.0,-107.0,487.0,-0.1782342965158901,-0.2503877318161198,0.8856584848948542,-0.34806259126084743
-5050.294519662857,3116.0,-2116.0,16240.0,298.0,-112.0,384.0,-0.15129084073916194,-0.22851518609914276,0.8858670892897114,-0.37434127656977173
-5050.310155630112,3064.0,-2040.0,16380.0,334.0,-142.0,415.0,-0.11998299906663847,-0.2052305482255701,0.884047685638266,-0.4024229013458755
-5050.325810432434,3280.0,-1856.0,15880.0,414.0,-118.0,461.0,-0.08716662164190131,-0.17786233457014203,0.8776306293107747,-0.4364990819101111
-5050.3414006233215,3056.0,-1708.0,16188.0,360.0,-228.0,480.0,-0.045775941519206956,-0.152274322753677,0.8716912483761798,-0.4635422972203469
-5050.356976985931,3020.0,-1612.0,16356.0,312.0,-159.0,442.0,-0.011652360153225827,-0.12616833433430566,0.8644846528298068,-0.4864278558387612
-5050.372570037842,3036.0,-1604.0,16172.0,301.0,-98.0,349.0,0.013848256759354855,-0.10421221948316362,0.8548746327838679,-0.5080722402550318
-5050.38815164566,2936.0,-1604.0,16252.0,293.0,-76.0,268.0,0.034036648498183324,-0.0871778293266075,0.8436467908467333,-0.5286791322975782
-5050.403769254684,2924.0,-1804.0,16332.0,16.0,-78.0,183.0,0.0483302243834091,-0.07724575445223612,0.8438846075426727,-0.5287306043560402
-5050.419361114502,3028.0,-1832.0,16148.0,216.0,-95.0,218.0,0.06681090633734678,-0.06464043651466009,0.8345980683100718,-0.5429585445820644
-5050.4349682331085,2980.0,-1912.0,16264.0,265.0,-81.0,143.0,0.08094842411539094,-0.05650178940120576,0.8220057035226983,-0.5608578463424136
-5050.450639724731,2972.0,-1796.0,16352.0,242.0,-40.0,150.0,0.09232214652319191,-0.04598027914126959,0.8102932449511713,-0.5768771900308959
-5050.466234207153,2996.0,-1724.0,16152.0,275.0,-61.0,114.0,0.10344101434782504,-0.03876825259433616,0.7960600963567745,-0.5950506719010725
-5050.481828212738,3028.0,-1704.0,16192.0,305.0,-45.0,197.0,0.11777019139921215,-0.024660536586618886,0.780003918520038,-0.6140976526957573
-5050.497415781021,3292.0,-1764.0,16132.0,334.0,8.0,209.0,0.12906870409934168,-0.006578369271409504,0.7620990535770783,-0.6344312627990263
-5050.513003349304,3024.0,-1800.0,16048.0,304.0,120.0,249.0,0.13496266570321983,0.020027517526485936,0.7461906877882069,-0.6516006713211473
-5050.528657913208,2964.0,-1708.0,16156.0,321.0,107.0,227.0,0.1402549043628526,0.04463232328440137,0.728243025639155,-0.6693269852085247
-5050.5442507267,2996.0,-1688.0,16452.0,292.0,45.0,297.0,0.15350716265110467,0.06964466020562816,0.710004335088809,-0.6837243717133011
-5050.559887886047,2996.0,-1576.0,16244.0,218.0,72.0,207.0,0.16001738223538392,0.08962886396637605,0.6963453158202665,-0.6938762895947699
-5050.575474977493,3100.0,-1580.0,16356.0,166.0,-18.0,119.0,0.16699548197303618,0.09803919307197453,0.6848951381597869,-0.7024382359663204
-5050.59108543396,3064.0,-1608.0,16288.0,126.0,-32.0,147.0,0.17682043769944267,0.10664798764023214,0.6752394138975303,-0.7081048463775588
-5050.606672525406,2964.0,-1708.0,16212.0,49.0,-223.0,108.0,0.19614027264024808,0.09992058807500258,0.6674920880168013,-0.7113361947506437
-5050.622273683548,3032.0,-1772.0,16260.0,27.0,43.0,92.0,0.19910971389543344,0.10836686233122549,0.6656102839893557,-0.7110378997132102
-5050.637859106064,3040.0,-1800.0,16268.0,71.0,114.0,71.0,0.19621039494973636,0.12074760823048403,0.6623443299241352,-0.7128965455363312
-5050.653488874435,2816.0,-1804.0,16144.0,192.0,326.0,72.0,0.17972429137281712,0.1483572229110378,0.6547401560373788,-0.7190303481584157
-5050.669086933136,2868.0,-1896.0,16168.0,286.0,706.0,89.0,0.14094494307661257,0.20174135091586307,0.6451603539690579,-0.723327773570387
-5050.684707164764,2860.0,-1552.0,16264.0,434.0,870.0,221.0,0.09788964578525575,0.27336986935445773,0.6221154852249537,-0.7270893031949267
-5050.7002902030945,2788.0,-1320.0,16316.0,518.0,693.0,462.0,0.07693051664221108,0.34554028994099956,0.5819118387219672,-0.7321626974872947
-5050.715907096863,2940.0,-1304.0,16460.0,564.0,644.0,690.0,0.07097020917891832,0.42351428221041054,0.5268710468904123,-0.7334887743663854
-5050.731520652771,2968.0,-1584.0,16444.0,574.0,468.0,816.0,0.08009242754539611,0.49220498496729576,0.46065169747772483,-0.734247553236727
-5050.747110366821,2976.0,-1416.0,16360.0,759.0,314.0,914.0,0.09289714669366454,0.551132448742969,0.37272870512449946,-0.7407404784774276
-5050.762688398361,3080.0,-1188.0,16432.0,414.0,485.0,920.0,0.1161328177374317,0.612764065786089,0.30413459685404975,-0.7200941017131656
-5050.778242826462,2976.0,-912.0,16388.0,310.0,557.0,772.0,0.13279052916372933,0.6687695908873263,0.24802018667566567,-0.6881859462893606
-5050.793820858002,2944.0,-664.0,16252.0,277.0,452.0,662.0,0.14621462527350407,0.7114320632579232,0.19740662433865752,-0.6584195678987066
-5050.809394836426,2860.0,-572.0,16244.0,196.0,207.0,523.0,0.16033488318843353,0.7337711521855155,0.15607406984737476,-0.6414931848231665
-5050.8250041008,2804.0,-712.0,16072.0,34.0,-19.0,447.0,0.18332514392383484,0.7386272996847388,0.12516277430259318,-0.6365185650824449
-5050.8405957221985,2992.0,-948.0,15940.0,-40.0,-116.0,389.0,0.20867514658844294,0.7352456328082846,0.1003733361679706,-0.6370194157316936
-5050.856181383133,2860.0,-1212.0,15976.0,28.0,-16.0,424.0,0.23046189547914966,0.7379901358133409,0.07125502597037682,-0.6302226554546616
-5050.871860265732,3224.0,-1276.0,16012.0,122.0,164.0,554.0,0.2517553743262332,0.7518342134444125,0.03210485603535774,-0.6085505937974496
-5050.887460231781,3312.0,-984.0,16348.0,157.0,209.0,548.0,0.2696342822056074,0.7667705836046392,-0.007601293583464107,-0.5824967350242625
-5050.903084278107,3308.0,-824.0,16448.0,23.0,146.0,408.0,0.2887711356884801,0.773837774735345,-0.03262254191274029,-0.5627806849430659
-5050.918808221817,3152.0,-672.0,16448.0,-129.0,243.0,290.0,0.3122789543560745,0.7811524048248102,-0.039726761626212186,-0.5391702509536171
-5050.934517621994,3004.0,-624.0,16320.0,-317.0,-28.0,82.0,0.33756649376284564,0.7705214010110474,-0.03115026184148997,-0.5397918988460627
-5050.950147867203,3048.0,-640.0,16008.0,-382.0,-450.0,20.0,0.3625479111420086,0.7369505532501763,-0.027721616057227474,-0.5698196260168659
-5050.965792655945,2940.0,-752.0,15984.0,-356.0,-613.0,-106.0,0.37800673194279183,0.6940012664884415,-0.022553067083596536,-0.6123434590844357
-5050.981409788132,2920.0,-984.0,15880.0,-297.0,-622.0,-201.0,0.38333089266493736,0.6499670013851278,-0.014997143470338873,-0.6560300370614577
-5050.997014045715,2928.0,-1060.0,15956.0,-279.0,-592.0,-154.0,0.3889484241055807,0.6057649544564395,-0.010076199608465963,-0.694021911426162
-5051.012651443481,2688.0,-644.0,15988.0,-278.0,-806.0,-122.0,0.39448600783966126,0.5459195314115053,-0.014112915576124277,-0.7390219756246159
-5051.028252363205,2672.0,-612.0,16200.0,-421.0,-773.0,-106.0,0.4055935299490365,0.4800825054416028,-0.008499608647705716,-0.7777804530105068
-5051.043908119202,2688.0,-860.0,16320.0,-663.0,-1301.0,-58.0,0.4250694402237746,0.36516768502370694,-0.0070631237160727195,-0.8282020557120376
-5051.059485673904,2516.0,-960.0,16284.0,-781.0,-1566.0,-3.0,0.44366249770565397,0.22018685709195163,-0.008513981800562793,-0.8686822481249682
-5051.075123548508,2176.0,-868.0,16608.0,-955.0,-1332.0,-442.0,0.42291211091424613,0.08136287099182306,0.02058376320322626,-0.9022758659957706
-5051.090774297714,1684.0,-784.0,16928.0,-1399.0,-960.0,-718.0,0.37323467945509187,-0.04687122950205427,0.09908651104942406,-0.9212387449652086
-5051.106388092041,1856.0,-568.0,17372.0,-1906.0,-669.0,-868.0,0.29604298694716796,-0.16723045678221238,0.2226099115440953,-0.9136943424833829
-5051.122019529343,1996.0,-728.0,17452.0,-2162.0,-377.0,-1000.0,0.1879633098147598,-0.2666397639294549,0.3625125614852291,-0.8730164220795296
-5051.137618303299,2192.0,-1264.0,17512.0,-2321.0,-177.0,-1193.0,0.04742716869134726,-0.3469395716831026,0.4957891378102147,-0.7947180179784976
-5051.153213024139,2412.0,-1744.0,16916.0,-2443.0,-253.0,-1661.0,-0.12666583383599606,-0.43218530535715766,0.5942239536912924,-0.6663854149300243
-5051.168844938278,2896.0,-2068.0,15968.0,-2286.0,-252.0,-2054.0,-0.3083731094849062,-0.509915051511334,0.630002763211171,-0.49798512421064645
-5051.184455871582,3316.0,-2844.0,15256.0,-1953.0,-205.0,-3036.0,-0.4921288625044469,-0.6038102655622892,0.5580947487942964,-0.2859241110153322
-5051.200070142746,3908.0,-3520.0,14204.0,-1163.0,-42.0,-3529.0,-0.6083330908077665,-0.6913044653009591,0.3832339731066748,-0.07183807305389844
-5051.215658187866,4516.0,-3644.0,13908.0,-268.0,455.0,-3550.0,-0.6317967837893724,-0.7566464457284584,0.13981617751368902,0.093650502750154
-5051.231300115585,4816.0,-4228.0,14016.0,370.0,895.0,-3290.0,-0.5666286615065627,-0.7898280726485819,-0.11861284086836028,0.20256991286132475
-5051.246897220612,5028.0,-4600.0,14772.0,904.0,912.0,-2328.0,-0.4420167576326111,-0.8051256205323986,-0.30025359543657243,0.2573746288228214
-5051.2624633312225,4676.0,-5256.0,15940.0,853.0,654.0,-1327.0,-0.3314913719240277,-0.8089847799011587,-0.3952163292759514,0.2818885405649591
-5051.278048038483,5236.0,-5616.0,17060.0,204.0,-153.0,-419.0,-0.31178945971774674,-0.7959163843391451,-0.41497557742697005,0.31160826704144184
-5051.293630361557,5356.0,-4616.0,16420.0,-378.0,-1021.0,-244.0,-0.36668588663666346,-0.7454628786095963,-0.41246386015280145,0.3737647939873799
-5051.309282302856,4840.0,-3472.0,16000.0,-694.0,-1599.0,27.0,-0.4649787614524093,-0.6643568351349516,-0.3778007874892589,0.4468683385295379
-5051.324888467789,4356.0,-3268.0,15152.0,-935.0,-1935.0,-7.0,-0.572793385601994,-0.5411775678784262,-0.3303439822081121,0.5195261599329558
-5051.340529680252,4028.0,-3444.0,14704.0,-716.0,-1780.0,-671.0,-0.6179120762839596,-0.39895287078614355,-0.3007599489397031,0.607095318700225
-5051.356127738953,3992.0,-3428.0,14288.0,-488.0,-1589.0,-840.0,-0.6239558184405762,-0.26275557761125645,-0.26658011007756144,0.6859837374015224
-5051.371762275696,4328.0,-3292.0,14168.0,252.0,-1389.0,-781.0,-0.5978581616598518,-0.17322156238543365,-0.19174012516747463,0.7588119880854632
-5051.387359857559,4476.0,-2580.0,14512.0,484.0,-1658.0,-513.0,-0.5772209909491656,-0.07887002304690201,-0.07979702288149683,0.8088435461889366
-5051.402952671051,4360.0,-2364.0,15068.0,214.0,-2180.0,-746.0,-0.5275950902107348,0.06834396427495953,0.0393174490159921,0.845828978893242
-5051.41858124733,4380.0,-2496.0,15216.0,-3.0,-2546.0,-734.0,-0.4527097620573289,0.24764869181171806,0.1564485603436545,0.842168537021147
-5051.434198856354,4596.0,-2896.0,14904.0,-440.0,-2546.0,-652.0,-0.3512301612865858,0.431659972342179,0.23234849063239346,0.797697449526446
-5051.449826955795,4216.0,-3608.0,14592.0,-374.0,-2206.0,-402.0,-0.25944030615210645,0.5772096640052141,0.2834176782826997,0.7205512826714927
-5051.46542263031,4400.0,-4004.0,14544.0,84.0,-2018.0,-69.0,-0.20630237228030826,0.6897954528235684,0.3326532299102025,0.6090676424550521
-5051.481008768082,4460.0,-4448.0,14592.0,660.0,-2256.0,402.0,-0.1977404981505779,0.7924918889813787,0.3760478507230122,0.43754235824259424
-5051.496585845947,4788.0,-4984.0,14832.0,1354.0,-2575.0,701.0,-0.22613810221150155,0.8615490561817103,0.4099312149653364,0.19634454797021444
-5051.512162208557,5188.0,-4872.0,15344.0,1741.0,-3536.0,750.0,-0.2297823969448552,0.8632061488728098,0.42768736259737095,-0.13841500813479138
-5051.527816295624,6016.0,-4748.0,15724.0,2081.0,-3833.0,1146.0,-0.21374522387357348,0.7610683560382105,0.365754016052757,-0.4912351132093587
-5051.543447732925,6176.0,-3756.0,15452.0,1946.0,-4462.0,1198.0,-0.1367385946232439,0.5236561108467359,0.2619783489395468,-0.7990332777802439
-5051.559064388275,6192.0,-2644.0,15060.0,1684.0,-4274.0,1216.0,-0.02883230995023164,0.21531289393841413,0.12925223959022455,-0.9675241155483982
-5051.574640750885,5924.0,-2076.0,14760.0,1303.0,-3719.0,1240.0,0.08777452401871952,-0.08307044963203915,0.004936182331002275,-0.9926583336854697
-5051.590236186981,5236.0,-2028.0,14960.0,942.0,-2978.0,1039.0,0.17865909476973174,-0.32067245541877226,-0.08822250992145285,-0.9259950825651908
-5051.60582447052,4988.0,-2580.0,14772.0,706.0,-2880.0,1523.0,0.28748817429753276,-0.5319355407793206,-0.14152122823326127,-0.7838155854882144
-5051.621458053589,4900.0,-3572.0,14428.0,689.0,-3362.0,1317.0,0.3505399355555394,-0.724440043992895,-0.20167013438720244,-0.5582450475700954
-5051.637032032013,5080.0,-4196.0,14872.0,852.0,-4213.0,1248.0,0.36434122117842255,-0.862120536889871,-0.2730506085581665,-0.22236685811728102
-5051.65270113945,5604.0,-4240.0,15504.0,780.0,-4537.0,1202.0,0.3124446960119261,-0.8810415506955251,-0.31586474536481324,0.16239938582907618
-5051.668295145035,6408.0,-3528.0,15856.0,1293.0,-4055.0,1369.0,0.2615344962672809,-0.7694820140904155,-0.2821227486650491,0.5098077009414971
-5051.68390583992,7032.0,-3188.0,16368.0,1331.0,-3285.0,1740.0,0.1821523110350753,-0.6009871564950474,-0.1711331876069726,0.7591761359605919
-5051.699486255646,7500.0,-3020.0,16468.0,1366.0,-2377.0,2299.0,0.06300517201904943,-0.4352173086152698,0.0020946122027113183,0.8981157248262894
-5051.715096712112,7908.0,-2612.0,16112.0,1205.0,-2101.0,1961.0,-0.04297806276247253,-0.25408504876592386,0.153868771025068,0.9538962603019463
-5051.730727672577,7496.0,-2268.0,16176.0,958.0,-1286.0,1185.0,-0.10160884305971477,-0.13245804287047908,0.2607088851921062,0.9508740121976612
-5051.746329545975,7652.0,-1680.0,16072.0,740.0,-575.0,616.0,-0.13051581088002354,-0.07669372449963019,0.33259651731742523,0.9308400788540557
-5051.76197385788,6784.0,-1308.0,16264.0,275.0,-64.0,292.0,-0.15050329045628807,-0.0659356520819734,0.35720841488232874,0.9194582087749337
-5051.777565002441,6180.0,-1724.0,15708.0,25.0,275.0,737.0,-0.2176243006902348,-0.06505054339796616,0.35880065601690775,0.9053563827546324
-5051.793169498444,5904.0,-2620.0,15188.0,-3.0,-30.0,1247.0,-0.3134505508751733,-0.023283701114866166,0.363863281142439,0.8768181875706631
-5051.8087775707245,6820.0,-3460.0,15372.0,179.0,357.0,1639.0,-0.44513459038949516,-0.0032635192685208226,0.3669647307649231,0.8168117483578379
-5051.824411869049,6836.0,-3824.0,16428.0,249.0,939.0,1308.0,-0.5628142750754217,-0.03746456236322365,0.3449269933682408,0.7502412062691606
-5051.840059757233,6500.0,-2724.0,17364.0,-507.0,1536.0,648.0,-0.6457997613288222,-0.0924004562541472,0.23547917792657444,0.7203848837355533
-5051.855656862259,5352.0,-2304.0,18580.0,-393.0,2445.0,742.0,-0.7276487083617447,-0.20337957023804135,0.0768371591866444,0.6505844746052586
-5051.871273994446,5444.0,-2752.0,18472.0,-127.0,2730.0,493.0,-0.7544497630367372,-0.3369829031145746,-0.09233840069916095,0.5556273011818316
-5051.886856555939,6400.0,-2656.0,18172.0,763.0,2915.0,299.0,-0.6991292743783757,-0.5131931488625942,-0.2305076777367859,0.4412677873718582
-5051.902460336685,6780.0,-2776.0,18184.0,1652.0,3202.0,-164.0,-0.5289022463788108,-0.7000778134088947,-0.35252180263161886,0.3253949102512553
-5051.918155908585,7580.0,-2880.0,17284.0,1695.0,3274.0,-683.0,-0.29009339570900083,-0.808106047982613,-0.47258848415209453,0.19867199507421607
-5051.933885574341,7436.0,-3592.0,16632.0,1284.0,3266.0,-626.0,-0.0515025941451526,-0.8320808125699192,-0.5511200089353424,0.035436420536094915
-5051.949537277222,7292.0,-4492.0,15624.0,1030.0,3204.0,-342.0,0.17123380798139876,-0.7961743810512014,-0.5631362096417963,-0.14022463175988953
-5051.965201616287,7248.0,-5068.0,15680.0,977.0,3073.0,-44.0,0.37514054039617867,-0.7140116481562326,-0.512283784582895,-0.2949953648820761
-5051.9810090065,7932.0,-5308.0,15820.0,1236.0,3591.0,628.0,0.5962463635030498,-0.5773591754514504,-0.36714552359522423,-0.4199414495324307
-5051.996797323227,6864.0,-5620.0,16244.0,1679.0,3412.0,1220.0,0.7884638184434246,-0.38136812443609136,-0.17896217277614052,-0.44816927760050124
-5052.01259803772,5788.0,-4244.0,17652.0,2643.0,4582.0,1245.0,0.9005499006311205,-0.035663418171019805,0.06733186448473234,-0.4280238510908566
-5052.028388261795,3972.0,-2324.0,18188.0,3380.0,4710.0,986.0,0.8188027885648107,0.36619176127492337,0.2794032466448836,-0.3426359776456021
-5052.044156551361,4316.0,-528.0,18352.0,4113.0,4874.0,180.0,0.50147891151236,0.707876638628589,0.4358691996668359,-0.23968230342280317
-5052.05997133255,4064.0,560.0,17912.0,4744.0,4763.0,-191.0,0.01999282303289513,0.8692208171087084,0.4802621154174901,-0.11577460268453629
-5052.075583457947,3208.0,824.0,17272.0,5413.0,4361.0,26.0,-0.4901312260148788,0.7897972565924956,0.3686333366168253,-0.010056734005927834
-5052.091223955154,1896.0,-704.0,16748.0,5171.0,3806.0,1523.0,-0.8386394755334179,0.5379649224422065,0.08338498706175117,0.018014334056410525
-5052.106833934784,684.0,-1900.0,15568.0,4633.0,3221.0,3157.0,-0.9445853257514558,0.18857667689068916,-0.2554869473741079,-0.08320948881792467
-5052.122464179993,-776.0,-2084.0,14792.0,3866.0,2860.0,4751.0,-0.783788716658388,-0.18556025111897229,-0.5144630707445782,-0.29422846511464534
-5052.138166427612,-1944.0,-1904.0,12992.0,2728.0,2491.0,4948.0,-0.44084133284056043,-0.46686542826395167,-0.593924615442093,-0.48471552721491934
-5052.153928279877,-2328.0,-1028.0,12516.0,1412.0,2975.0,4539.0,-0.033303159035835736,-0.5663814575905919,-0.5237451389695721,-0.6354478527003881
-5052.169711351395,-1496.0,240.0,12336.0,264.0,4074.0,4225.0,0.35623258056635876,-0.4753818429662615,-0.3036814004503182,-0.744908087579647
-5052.185351848602,-172.0,1608.0,13664.0,483.0,5714.0,4273.0,0.6833556176481519,-0.1712980497423086,0.016941814364634294,-0.7095033847059707
-5052.200952291489,664.0,3672.0,15820.0,1022.0,6338.0,3546.0,0.7654366047588027,0.24224606066054777,0.32385092449477293,-0.5005439330305019
-5052.216567516327,1840.0,4396.0,17516.0,2210.0,6135.0,3056.0,0.57482233756355,0.6301533320620631,0.48460712746139767,-0.1940154384132055
-5052.232189416885,2532.0,3468.0,19412.0,2795.0,4076.0,3064.0,0.26808351271342123,0.8640875735906048,0.42196180166349684,0.05858441187235449
-5052.247895479202,1992.0,940.0,18864.0,2673.0,2406.0,2073.0,-0.030768285421929158,0.931429219593667,0.31549091572012017,0.1787691349126218
-5052.2634654045105,2100.0,-520.0,18080.0,2899.0,1670.0,2106.0,-0.32645796514562403,0.9032950022701769,0.1748842555049216,0.21656138400737204
-5052.279079914093,1696.0,-908.0,16600.0,2835.0,1036.0,2218.0,-0.5777013967372328,0.7953008044280483,0.022863692431357278,0.18230463036454644
-5052.294681787491,1424.0,-376.0,15980.0,2729.0,2046.0,2019.0,-0.7592773950368575,0.5944794110531341,-0.16731315867205018,0.2051788833070882
-5052.310280323029,1124.0,416.0,15396.0,2400.0,2404.0,1815.0,-0.835347787853288,0.3466414775272849,-0.35809184150703244,0.23195687623440187
-5052.325932741165,800.0,1488.0,15320.0,1754.0,1943.0,1410.0,-0.8288709277053832,0.13086786188004848,-0.49053114258909764,0.235001672508934
-5052.341526508331,1164.0,1548.0,15192.0,1087.0,1302.0,729.0,-0.7904067347315799,-0.005682100967268816,-0.5633281625976562,0.24059569539771125
-5052.35715508461,1124.0,3116.0,14924.0,354.0,57.0,-141.0,-0.7841298238986032,-0.024382880313402692,-0.5594243332658424,0.26756365554842326
-5052.372747421265,1236.0,3052.0,14544.0,-19.0,-1039.0,-1265.0,-0.7973577250757182,0.062301606083787625,-0.4863406276286714,0.35186924000146125
-5052.388338565826,1292.0,2944.0,14324.0,-783.0,-2299.0,-2803.0,-0.7655720018363716,0.291456333418742,-0.31866695775409554,0.47686904465492747
-5052.403972864151,1536.0,2268.0,14344.0,-1816.0,-2950.0,-4338.0,-0.5588001715568108,0.5904685446870842,-0.07793351916678778,0.5770750666884469
-5052.419550180435,1720.0,1388.0,14612.0,-2346.0,-2993.0,-5488.0,-0.15712648931409998,0.7714306698215461,0.2011298737545639,0.5828831460061096
-5052.435131788254,1860.0,832.0,15212.0,-2588.0,-2775.0,-6170.0,0.3210110781198538,0.7097576108088884,0.44204347994222404,0.4447399054096177
-5052.4507257938385,2044.0,552.0,15880.0,-2729.0,-2447.0,-6776.0,0.7033650288795879,0.38732725131302664,0.5703349844869801,0.17312781986078482
-5052.466312408447,1632.0,4.0,16540.0,-2864.0,-2118.0,-6309.0,0.8460553050230571,-0.05971822345231884,0.5157248936428186,-0.12104539936381016
-5052.48193359375,1980.0,-292.0,16360.0,-2707.0,-1937.0,-5304.0,0.7574233708427707,-0.4552754341035062,0.32768806074961565,-0.33414764886976994
-5052.497529029846,2292.0,-80.0,16008.0,-2764.0,-2397.0,-4518.0,0.5211980375771498,-0.7464511750653066,0.0625724544384778,-0.40895957846087394
-5052.513137340546,1164.0,160.0,15188.0,-3093.0,-3984.0,-4001.0,0.17319492364832959,-0.9164073495736378,-0.23450374073471283,-0.27424274584990616
-5052.52875161171,1592.0,-176.0,13912.0,-4014.0,-4588.0,-3631.0,-0.2794705182139821,-0.8608459315604268,-0.42357987872617375,-0.0376908198821597
-5052.5443432331085,1372.0,-456.0,13780.0,-4494.0,-4226.0,-3465.0,-0.6677707795607828,-0.541933871070649,-0.48160779341853016,0.16865289404483969
-5052.5599629879,1156.0,-752.0,14776.0,-4786.0,-3097.0,-3381.0,-0.8436339817104171,-0.06504123492864261,-0.4599613674504202,0.2692338818119369
-5052.575548887253,1064.0,-1076.0,16204.0,-4754.0,-2594.0,-3202.0,-0.7885106730773688,0.41598480302486646,-0.349413797875454,0.28830116189444904
-5052.591131210327,1336.0,-1608.0,17536.0,-4491.0,-3165.0,-2937.0,-0.5694303967455089,0.7855880623582675,-0.12107997934762647,0.20961884014471027
-5052.60671710968,2124.0,-2160.0,18332.0,-3904.0,-3730.0,-2451.0,-0.2632141402159818,0.9535931327399682,0.14297838221740158,0.030588164378235142
-5052.622299909592,2376.0,-2596.0,18312.0,-3126.0,-4037.0,-1978.0,0.04747558352159374,0.9126183416767079,0.3537222669504099,-0.19938502769266012
-5052.63788485527,3236.0,-3092.0,17788.0,-2150.0,-4075.0,-1578.0,0.29183271227900104,0.7215465213449932,0.46011466318361643,-0.42719876205608126
-5052.653520107269,3216.0,-3440.0,17740.0,-1125.0,-3206.0,-1098.0,0.4301222386484591,0.5052017726033018,0.46735214440620887,-0.5842499481364443
-5052.66913318634,3120.0,-3636.0,17552.0,-670.0,-2738.0,-842.0,0.5118422402961256,0.29633846124884666,0.42208951615122076,-0.6870527474572364
-5052.684721946716,3168.0,-3428.0,17316.0,-393.0,-2547.0,-373.0,0.5787326174324092,0.10935774362013968,0.3328905145635853,-0.7364056943993138
-5052.700309276581,2976.0,-2540.0,16736.0,-153.0,-2473.0,-228.0,0.6228735267512094,-0.06263327113100313,0.21476066284463216,-0.7496555880632616
-5052.7159214019775,2736.0,-556.0,15912.0,108.0,-2200.0,-301.0,0.6331944207330806,-0.202579930412613,0.0845750900456974,-0.7422083612371135
-5052.731534957886,2732.0,-244.0,15744.0,-370.0,-1944.0,-483.0,0.6003282674511008,-0.3468789303910554,-0.007524901867292488,-0.7205722412095851
-5052.747105121613,2612.0,-416.0,15476.0,-937.0,-1351.0,-590.0,0.527930337757913,-0.4748384262522598,-0.03685605456396429,-0.7031782552604079
-5052.762673139572,2996.0,-732.0,15524.0,-1333.0,-622.0,-708.0,0.4230193055081519,-0.566256172457699,-0.012917695499460317,-0.7072777018003188
-5052.778245210648,3048.0,-1200.0,15940.0,-1361.0,86.0,-858.0,0.2999802771043613,-0.6041280538410242,0.03156152814536851,-0.7375940603419853
-5052.7938323020935,3288.0,-1712.0,16540.0,-1153.0,642.0,-756.0,0.1871368369717327,-0.5897398577287685,0.08201459214933361,-0.7813195960225532
-5052.809412479401,3252.0,-2404.0,17220.0,-812.0,736.0,-751.0,0.0882908408600553,-0.5543098373496457,0.11000760868283609,-0.82027047836035
-5052.825018405914,3436.0,-2964.0,17884.0,-315.0,748.0,-538.0,0.027272972634965597,-0.50634696372044,0.11187763221610991,-0.8546065367784528
-5052.840697526932,3808.0,-3180.0,17780.0,28.0,176.0,-445.0,-0.006377026913128808,-0.4968734033284916,0.09044874065754983,-0.8630731022954976
-5052.856294155121,3764.0,-2944.0,17372.0,68.0,-25.0,-429.0,-0.03550549234389941,-0.5016275898792294,0.06668392679412732,-0.8617786113571678
-5052.871910095215,3432.0,-2076.0,16656.0,332.0,138.0,-294.0,-0.04384047813370069,-0.4933889794101248,0.028386683927222416,-0.868239323947758
-5052.887498140335,3260.0,-1852.0,16024.0,397.0,371.0,-102.0,-0.03534003580301528,-0.4663031361648689,-0.007486135578325129,-0.8838871109176513
-5052.903089761734,2940.0,-1956.0,15456.0,387.0,717.0,98.0,-0.011513235794079616,-0.41098191208048407,-0.03543362301265841,-0.9108818648455002
-5052.918714761734,2900.0,-1868.0,15344.0,360.0,1072.0,272.0,0.0262277654453404,-0.32505813652406024,-0.05502383509793139,-0.9437275506047099
-5052.934401988983,3000.0,-1544.0,15484.0,317.0,973.0,370.0,0.07008022961024495,-0.2446194757389452,-0.0679963288569148,-0.9646898842472441
-5052.950027704239,3304.0,-1812.0,15672.0,292.0,856.0,510.0,0.12386230391294462,-0.17285692714065354,-0.07595680870720248,-0.9741710196982282
-5052.965640068054,3560.0,-1940.0,15968.0,302.0,471.0,550.0,0.17792923602716268,-0.13275108168851896,-0.08775585039420049,-0.9710907516802479
-5052.981240272522,3548.0,-2060.0,15916.0,304.0,32.0,516.0,0.2251647439022893,-0.1290629742117927,-0.1065814878912623,-0.9598353886109365
-5052.996884346008,3516.0,-2568.0,15824.0,354.0,-87.0,975.0,0.3087933154711818,-0.13788961117357046,-0.12612629841390494,-0.9325906391869497
-5053.012519359589,3604.0,-2648.0,16016.0,395.0,-47.0,1202.0,0.40842942849272934,-0.14341683917393044,-0.14388883935749974,-0.8898949455361645
-5053.028163194656,3740.0,-2332.0,16096.0,425.0,-195.0,1298.0,0.5084972682776866,-0.1585496727190736,-0.166093639435511,-0.829882782309569
-5053.043804645538,3848.0,-1828.0,16112.0,569.0,-274.0,1299.0,0.6017900148810037,-0.17056780497103602,-0.19961909139086123,-0.7542596504183231
-5053.0594437122345,3588.0,-1604.0,16344.0,620.0,-314.0,1127.0,0.6753206346664491,-0.1770432681247733,-0.2382943437354603,-0.6751396354452095
-5053.0750896930695,3664.0,-1412.0,16212.0,712.0,-118.0,953.0,0.7361085073566178,-0.16088580057356605,-0.27075420547951085,-0.5991261843603348
-5053.090717554092,3516.0,-1636.0,16136.0,630.0,-10.0,660.0,0.7768564133896433,-0.13603480314427185,-0.293884863791267,-0.5400188257304254
-5053.106316566467,3364.0,-1992.0,16092.0,460.0,76.0,574.0,0.8097244621081617,-0.11571672348267618,-0.3027058570952549,-0.48920864613200465
-5053.121980428696,3504.0,-2008.0,16028.0,496.0,444.0,703.0,0.853522027057608,-0.07998489412235779,-0.2841260989344249,-0.429389014698807
-5053.137620210648,3492.0,-1956.0,16256.0,528.0,326.0,757.0,0.8904991998488839,-0.047060879537189466,-0.27307440302822283,-0.36086953195921545
-5053.153242588043,3512.0,-2116.0,16088.0,592.0,293.0,860.0,0.9229551539746611,-0.01233652952808412,-0.2639628129308708,-0.27986644525636545
-5053.168885469437,3584.0,-2088.0,16180.0,648.0,375.0,833.0,0.9481949560411483,0.02957263887184818,-0.24724588042448484,-0.19728471552910873
-5053.184522867203,3568.0,-1880.0,16168.0,575.0,305.0,783.0,0.9630510751699622,0.0650874663649966,-0.23277149285782867,-0.11880101198602208
-5053.200131416321,3472.0,-1768.0,16284.0,457.0,200.0,668.0,0.9689520152125206,0.09155506878380631,-0.22369296673466274,-0.05206839952440235
-5053.215758085251,3684.0,-1928.0,16260.0,362.0,333.0,579.0,0.9731183291851622,0.11189411025567518,-0.2011871450026873,0.006645162122694639
-5053.231375217438,3584.0,-2052.0,16044.0,456.0,410.0,534.0,0.9731666873309777,0.1403893255771148,-0.1707504839707648,0.06388824740907972
-5053.246938228607,3516.0,-2012.0,15972.0,563.0,512.0,493.0,0.9681812853392757,0.17716325451481205,-0.12967690879208882,0.12009196182357938
-5053.2625188827515,3476.0,-2008.0,16060.0,653.0,471.0,426.0,0.9559963707923048,0.22158657162924275,-0.08932186882030142,0.17027017958523855
-5053.27814745903,3324.0,-1788.0,16092.0,581.0,377.0,385.0,0.9398005633269567,0.26054863797977074,-0.05657117080683215,0.21374987965087905
-5053.293746709824,3304.0,-1308.0,15992.0,380.0,276.0,357.0,0.9247061162521145,0.2841546689908859,-0.034971984746606684,0.2509017396103389
-5053.309364557266,3308.0,-1536.0,16168.0,133.0,268.0,223.0,0.9169231352359128,0.2879208687660745,-0.016022963622006645,0.2758564881145643
-5053.324950695038,3568.0,-1568.0,15952.0,75.0,341.0,124.0,0.9121174107082637,0.28513206484271886,0.009856856554453508,0.2943541694290147
-5053.340555429459,3420.0,-1484.0,16084.0,96.0,222.0,87.0,0.9071389480072881,0.28682220376359324,0.027713119677267972,0.3066984438078875
-5053.356139183044,3424.0,-1728.0,16072.0,167.0,121.0,-79.0,0.9046798596820754,0.2963157683671993,0.043610392186982226,0.3030667428073791
-5053.371776580811,3356.0,-1928.0,15924.0,112.0,136.0,-202.0,0.9064308828370864,0.300474420479622,0.062392515073667346,0.2901815833911546
-5053.387407302856,3464.0,-1860.0,15984.0,99.0,28.0,-11.0,0.9039947588687518,0.3072971509384339,0.06726480311851604,0.28954685842601724
-5053.402996063232,3568.0,-1896.0,15900.0,134.0,250.0,-275.0,0.9054193791410052,0.309530617559809,0.09755772509835975,0.27365861021095755
-5053.4186062812805,3476.0,-1828.0,15960.0,102.0,12.0,-194.0,0.9071054266038353,0.31538290311686756,0.10601789999395322,0.25778590793199413
-5053.434197902679,3640.0,-1804.0,16144.0,127.0,123.0,-83.0,0.9042866912890841,0.32164917193416426,0.12073335531801357,0.2534380537037827
-5053.449810504913,3584.0,-2020.0,16300.0,67.0,120.0,56.0,0.8999070659706869,0.32464402399204095,0.12995692061245384,0.2605469805758901
-5053.465389490128,3632.0,-1888.0,16252.0,24.0,78.0,167.0,0.8945057754198987,0.3264096213329734,0.13172955589879395,0.27561476909704474
