programtime,ax,ay,az,gx,gy,gz,q0,q1,q2,q3
-7821.336324453354,-4984.0,2256.0,-15336.0,-555.0,328.0,136.0,0.9983490792087509,-0.04821707038659088,0.02887628384622478,0.011848645391183531
-7821.351957082748,-5352.0,1888.0,-15284.0,-606.0,352.0,-126.0,0.9931097667444836,-0.10147886422933428,0.058601732982664266,0.0009317740447576311
-7821.367569923401,-5452.0,1720.0,-15180.0,-535.0,304.0,-91.0,0.985338380716766,-0.14817334368786353,0.08429544592259902,-0.00687120830200701
-7821.3831667900085,-5488.0,1972.0,-15112.0,-618.0,306.0,-237.0,0.9729344549552089,-0.20255274747577573,0.10800514825296177,-0.02656725055177914
-7821.398805379868,-5364.0,2160.0,-15052.0,-726.0,449.0,-702.0,0.9497635920537228,-0.2686438008115104,0.13506867274496734,-0.08681060498388432
-7821.414466142654,-5284.0,2184.0,-15060.0,-815.0,666.0,-895.0,0.9093456813909333,-0.3393881678597361,0.17446758493123338,-0.1657322088814769
-7821.430065155029,-5136.0,1964.0,-14980.0,-1036.0,812.0,-1334.0,0.8357834670594337,-0.42469000481935143,0.21181048107654987,-0.2761172144267218
-7821.4456787109375,-5112.0,1328.0,-15084.0,-1095.0,957.0,-1404.0,0.732239477447259,-0.49990564159444384,0.2522816871788294,-0.3876514510278733
-7821.461344003677,-4996.0,1232.0,-15128.0,-1190.0,1022.0,-1389.0,0.6007365276456554,-0.5627980518288028,0.2925913764963224,-0.48658428212379823
-7821.476944208145,-4832.0,1760.0,-15112.0,-1397.0,1224.0,-1306.0,0.4367885070405448,-0.6057963264971034,0.3453920514447196,-0.5682701309401323
-7821.492523193359,-5116.0,1956.0,-15268.0,-1502.0,1292.0,-2364.0,0.19418651412204893,-0.647348736685392,0.3324704174540794,-0.6577952814993919
-7821.50813126564,-4932.0,2212.0,-15156.0,-1335.0,1293.0,-2565.0,-0.06366618866467198,-0.6461162046315,0.27587961415565077,-0.7087812815155529
-7821.523761510849,-4876.0,2444.0,-15420.0,-1534.0,1402.0,-2542.0,-0.3279750460762836,-0.5885945432537875,0.21121378659946335,-0.7080801996620448
-7821.539355516434,-5028.0,2240.0,-15380.0,-1025.0,1446.0,-2586.0,-0.5469603937319714,-0.49945546271552715,0.09680349835706255,-0.6648365597333074
-7821.554941654205,-5140.0,1408.0,-15452.0,-1183.0,1316.0,-2426.0,-0.7258593248021897,-0.37474554923518655,-0.003052421866995168,-0.5767882598032607
-7821.570591926575,-5372.0,536.0,-15368.0,-877.0,1356.0,-2492.0,-0.851454682648209,-0.2425199358469886,-0.12240619749703639,-0.44858190659847913
-7821.586200475693,-5884.0,1476.0,-15752.0,-608.0,966.0,-1736.0,-0.9071168440955196,-0.13888410277078184,-0.20406414293877545,-0.340893037069405
-7821.601828813553,-5508.0,1872.0,-15484.0,-549.0,1157.0,-1563.0,-0.9253049677766227,-0.0327675732761605,-0.2940177355375646,-0.23725634646697472
-7821.617439508438,-4896.0,3008.0,-15192.0,-559.0,1218.0,-1673.0,-0.9143191318110749,0.07907420748884797,-0.37928768893297954,-0.11793491399128704
-7821.633045196533,-4644.0,2312.0,-15228.0,-820.0,1150.0,-1671.0,-0.8719012118314469,0.20788213509338757,-0.4433499301498397,-0.0037595414615352245
-7821.648705005646,-4504.0,1704.0,-15532.0,-860.0,1150.0,-1706.0,-0.7972385514436218,0.33348800093746067,-0.4906773396277447,0.11149974752729508
-7821.664310693741,-4244.0,1192.0,-15724.0,-784.0,1110.0,-1467.0,-0.7018151178857082,0.43357447758520257,-0.5251327874495431,0.20905565823306796
-7821.679880857468,-4316.0,1528.0,-15368.0,-833.0,879.0,-1162.0,-0.60219020742292,0.5163801090821363,-0.544596481597489,0.2722741435757303
-7821.6954827308655,-4456.0,1552.0,-15536.0,-764.0,874.0,-748.0,-0.5046038453328491,0.5672919031089094,-0.5710235903827953,0.31222894671813395
-7821.711128234863,-4816.0,2168.0,-15468.0,-713.0,647.0,-147.0,-0.4313265733618472,0.5863445590737835,-0.609630159870771,0.3138606591027868
-7821.726716041565,-4960.0,2352.0,-14988.0,-1013.0,683.0,-61.0,-0.3393923240960346,0.6056248303610273,-0.6563774460329252,0.29529656878156096
-7821.7423214912415,-5084.0,2264.0,-15188.0,-722.0,789.0,-293.0,-0.2471939384140287,0.6206042881582484,-0.679818021477789,0.30264324212673144
-7821.7579391002655,-5128.0,2180.0,-15248.0,-739.0,788.0,-313.0,-0.1513302495173055,0.6313083523031232,-0.6961483439894485,0.3064741474481889
-7821.773543596268,-4892.0,2124.0,-15316.0,-834.0,697.0,-263.0,-0.05569158851199172,0.6366725097781576,-0.7098907380919645,0.29597584738123256
-7821.789180278778,-4900.0,1528.0,-15588.0,-742.0,680.0,-33.0,0.028384133235244864,0.6224004175827771,-0.7278080266451666,0.28654412840631915
-7821.804803371429,-4532.0,2128.0,-15392.0,-797.0,547.0,219.0,0.10050273322047122,0.5906782537560354,-0.7555333630489891,0.2648919373533662
-7821.820412635803,-4412.0,1940.0,-15500.0,-528.0,664.0,154.0,0.16735262598933517,0.5590173952225558,-0.7677636872528866,0.26463478786606004
-7821.836079120636,-4484.0,1720.0,-15368.0,-874.0,668.0,222.0,0.24828038344004874,0.5135527709981388,-0.7853524108402654,0.2405036244765945
-7821.851695775986,-4376.0,1944.0,-15608.0,-992.0,727.0,32.0,0.33975617502270117,0.4719640134657489,-0.7874254207365853,0.20439402707774454
-7821.86732840538,-4116.0,2016.0,-15568.0,-1380.0,844.0,-400.0,0.45671354063309055,0.43894699311410706,-0.762628790693203,0.13090304291456792
-7821.882921695709,-4512.0,1400.0,-15628.0,-1550.0,1009.0,-703.0,0.5824262528064089,0.40651891759047526,-0.70292323316432,0.03769559603949123
-7821.898542165756,-4596.0,1596.0,-15692.0,-1460.0,856.0,-125.0,0.6795110345832291,0.3336564862634655,-0.652820736582609,-0.027625874496334794
-7821.9141845703125,-4412.0,2152.0,-15268.0,-1508.0,815.0,151.0,0.7614806374612668,0.235108349332281,-0.5987231981503905,-0.08001146694318907
-7821.929836988449,-4732.0,2260.0,-15568.0,-1258.0,732.0,397.0,0.8210553063494604,0.1348620326733146,-0.5449501615910116,-0.10348786131979829
-7821.945447206497,-4712.0,2196.0,-15704.0,-867.0,602.0,465.0,0.8595945688869551,0.0559062821829571,-0.4971848743831383,-0.1038213149461733
-7821.961059331894,-4124.0,3072.0,-15488.0,-961.0,678.0,761.0,0.8938155441825459,-0.04263302713849881,-0.4383278571728047,-0.08452743697146269
-7821.976756334305,-3912.0,3236.0,-15196.0,-1112.0,512.0,-296.0,0.9015319743686439,-0.11353258272247942,-0.3892212755269623,-0.15118614529282368
-7821.993700027466,-4184.0,2268.0,-15488.0,-813.0,334.0,109.0,0.9034500505913494,-0.17629572323721088,-0.35037041100558364,-0.17302716303093918
-7822.009506702423,-3676.0,1284.0,-15312.0,-359.0,201.0,1525.0,0.9183000958826165,-0.245996278446948,-0.30303045866999734,-0.06620654054155044
-7822.025277376175,-3664.0,3552.0,-14944.0,-250.0,220.0,1182.0,0.920200875314141,-0.2944836838841623,-0.25732776314954714,0.017091849213941062
-7822.041028499603,-4272.0,4848.0,-14704.0,-689.0,494.0,63.0,0.9108843303245414,-0.3511882911988652,-0.21661133518554465,-0.006004195463896465
-7822.056808233261,-4168.0,3604.0,-15208.0,-844.0,498.0,-503.0,0.8899336877112629,-0.4068857962061063,-0.1912025448524304,-0.07683467423181864
-7822.072585105896,-4052.0,2720.0,-15800.0,-703.0,392.0,-107.0,0.8684708167841939,-0.45619297360559663,-0.1595022596121199,-0.11047823498638176
-7822.088282108307,-3720.0,3232.0,-15452.0,-661.0,231.0,-69.0,0.8429619435529948,-0.5024195891011728,-0.13814784712126946,-0.13380915717739486
-7822.103975057602,-3448.0,3620.0,-15208.0,-447.0,226.0,-95.0,0.8240017903871218,-0.5312501999758507,-0.12037848356363418,-0.15589514155148154
-7822.119584321976,-3364.0,4304.0,-15280.0,-563.0,207.0,248.0,0.8019942811867262,-0.5708569982966804,-0.08621996303220213,-0.15327615083311497
-7822.135183095932,-4064.0,2204.0,-15552.0,-647.0,307.0,-208.0,0.7674850517331022,-0.6094327023557702,-0.0662791101758704,-0.1875248149442504
-7822.150813817978,-4572.0,1768.0,-15796.0,-474.0,0.0,-89.0,0.7399803952069968,-0.640343036915411,-0.06316302950436867,-0.1959597955884723
-7822.166424751282,-4340.0,3224.0,-15144.0,-563.0,133.0,-94.0,0.7065305826321021,-0.6732577319900538,-0.05010668268426537,-0.21219774379462586
-7822.182020187378,-4300.0,4188.0,-14944.0,-599.0,184.0,230.0,0.6750611026260873,-0.7068061254214005,-0.014105774722370111,-0.21099439781074833
-7822.197608232498,-3936.0,4088.0,-14812.0,-804.0,301.0,272.0,0.6286997466219767,-0.74686411507832,0.03513506865538833,-0.21376657633110313
-7822.21320438385,-4312.0,2940.0,-15380.0,-829.0,757.0,-76.0,0.5679810652562329,-0.7749249571814464,0.08681780463718689,-0.26334670881882605
-7822.228757143021,-4152.0,1720.0,-15660.0,-487.0,287.0,-240.0,0.5263941767592125,-0.7933336026296709,0.09593096211614692,-0.2903932094937632
-7822.244338989258,-3820.0,2808.0,-15648.0,-307.0,236.0,612.0,0.5174359332102405,-0.7949235695818644,0.15666474233476924,-0.27534111944142076
-7822.259972810745,-3820.0,2824.0,-15460.0,-270.0,128.0,541.0,0.5090080463243852,-0.7956539122102614,0.20623192242032132,-0.2555661459120842
-7822.2755579948425,-4040.0,3204.0,-15376.0,-314.0,196.0,236.0,0.488374035796875,-0.8005512241024999,0.23823343566840935,-0.25269224142637914
-7822.291144371033,-4296.0,3028.0,-15272.0,-323.0,30.0,-365.0,0.45651549335674,-0.8206468371505906,0.22101828155440187,-0.2632171959024014
-7822.306792020798,-4332.0,3020.0,-15492.0,-346.0,128.0,-125.0,0.4259461011082167,-0.833563468424283,0.2250586399284627,-0.2703524951849691
-7822.322397708893,-4260.0,3116.0,-15248.0,-415.0,-252.0,197.0,0.4047291323072313,-0.8503086374186904,0.23963164749695207,-0.23610638303718604
-7822.338018417358,-4168.0,3080.0,-15596.0,-325.0,50.0,388.0,0.38696918603460223,-0.8519275478379672,0.2766825940278313,-0.2189087582910645
-7822.3536028862,-4100.0,2704.0,-15596.0,-258.0,229.0,50.0,0.36283353506463445,-0.8547797625150078,0.2930001424993112,-0.22771539237098373
-7822.369189739227,-4152.0,2376.0,-15388.0,-216.0,212.0,147.0,0.34387068775787183,-0.8533909106905624,0.31490963488488255,-0.23304254012589776
-7822.384778499603,-4020.0,2528.0,-15588.0,-127.0,23.0,489.0,0.3431925393629604,-0.8425809061576335,0.35432921989676636,-0.21616452398932873
-7822.400370597839,-3828.0,3260.0,-15252.0,-134.0,-22.0,615.0,0.34489519485364606,-0.8268416705582585,0.40089047642123116,-0.19148624574640338
-7822.416028261185,-4100.0,3320.0,-15412.0,-11.0,79.0,499.0,0.3491303965427177,-0.8076997704811005,0.4391167403399997,-0.18139882945563807
-7822.431636095047,-4324.0,3660.0,-15332.0,10.0,50.0,463.0,0.3547513123779414,-0.7882922031408293,0.4728181379288557,-0.1708505700283008
-7822.447270154953,-4020.0,3724.0,-15152.0,-117.0,148.0,203.0,0.3433097150805919,-0.7811812626154537,0.4930590356315252,-0.169667503818259
-7822.462850570679,-4232.0,2712.0,-15468.0,-106.0,139.0,-77.0,0.32870864673557026,-0.7855777421228308,0.49357141757374523,-0.17665076392902757
-7822.478450536728,-4176.0,2352.0,-15712.0,-46.0,116.0,-93.0,0.3188924159785797,-0.7891173766885835,0.4912812692021506,-0.18505163433646504
-7822.494017124176,-4128.0,2876.0,-15400.0,-114.0,116.0,7.0,0.3059525440578657,-0.7901100552645657,0.4968725687181336,-0.18771465528772194
-7822.509627342224,-4340.0,3240.0,-15440.0,-63.0,133.0,86.0,0.29702783909116176,-0.7858676042699729,0.5074182835024275,-0.19160703779156502
-7822.525199890137,-4204.0,3256.0,-15292.0,-156.0,57.0,109.0,0.2853971549832149,-0.7840801905045167,0.5189878893799372,-0.1855216684456167
-7822.540797472,-4184.0,3216.0,-15540.0,-27.0,122.0,-38.0,0.2772053169859619,-0.7845141139953772,0.5199155350636467,-0.19334594274574962
-7822.556394577026,-4124.0,2648.0,-15684.0,51.0,72.0,-15.0,0.276989293433869,-0.7827902465381888,0.5198405216248823,-0.20070424341417883
-7822.5720093250275,-3980.0,2816.0,-15596.0,71.0,16.0,165.0,0.2837896313342488,-0.7732818302496713,0.5302759343555068,-0.20076376564580473
-7822.587584972382,-3852.0,3320.0,-15152.0,61.0,214.0,142.0,0.2802346515713504,-0.7613182345677552,0.5440338206899875,-0.2142201851338358
-7822.603176355362,-4184.0,3000.0,-15368.0,150.0,179.0,-34.0,0.2808395889217134,-0.7558278173621328,0.5433264410159042,-0.233772997347574
-7822.618793964386,-4016.0,3368.0,-15384.0,19.0,125.0,-279.0,0.27021166456665446,-0.7658418855011917,0.5275023663208002,-0.2494255726064463
-7822.634382724762,-4192.0,3016.0,-15468.0,-249.0,24.0,-182.0,0.24825600567714728,-0.7793567396945758,0.5212212648577222,-0.2435167776519421
-7822.649993658066,-4020.0,3040.0,-15436.0,15.0,71.0,-94.0,0.24388364372921528,-0.7818310448183251,0.5161027349935041,-0.25079663596601964
-7822.665552139282,-4024.0,3068.0,-15380.0,-33.0,76.0,-384.0,0.22952059046073514,-0.7977736166693998,0.4920342794455572,-0.26225907601315185
-7822.681143045425,-4040.0,2628.0,-15464.0,-51.0,94.0,-370.0,0.21320565128421118,-0.8121528799522677,0.4691374637030505,-0.2736075474031769
-7822.696749210358,-4080.0,2468.0,-15380.0,247.0,74.0,-243.0,0.22164841244701955,-0.8154368834340252,0.4472565032114624,-0.293080689794082
-7822.71232509613,-3864.0,2836.0,-15132.0,-83.0,236.0,-183.0,0.20164152800030527,-0.8179420608438129,0.44083345980130867,-0.30980209813344767
-7822.727933168411,-3716.0,3304.0,-15256.0,-72.0,330.0,-162.0,0.17920157267355613,-0.8161809645519517,0.4368581434532257,-0.33300209001291664
-7822.743506669998,-4344.0,2960.0,-15476.0,6.0,234.0,-390.0,0.15914728800922937,-0.8236070235003893,0.41230964793753166,-0.355449526343425
-7822.759094715118,-4048.0,2880.0,-15456.0,-16.0,216.0,-17.0,0.14957712828816522,-0.8177000675499404,0.4145755075114913,-0.37029775963875106
-7822.7746777534485,-4060.0,2732.0,-15512.0,79.0,107.0,-210.0,0.14443888774294028,-0.8207256684250384,0.39840652066549626,-0.38316971329564903
-7822.790261507034,-4064.0,2996.0,-15368.0,16.0,166.0,-256.0,0.13112150958065258,-0.823695968801447,0.3815553999585933,-0.39843139618756784
-7822.805837869644,-4088.0,2816.0,-15492.0,-38.0,303.0,-420.0,0.10351376619687125,-0.826853145094611,0.35584882473359086,-0.42304892221894586
-7822.821424245834,-4296.0,2600.0,-15416.0,-67.0,189.0,-203.0,0.08523012356018438,-0.8266541318079453,0.34533268824939684,-0.43603223141095077
-7822.837002277374,-4268.0,2440.0,-15492.0,-87.0,238.0,-17.0,0.07106850595981319,-0.818685910113138,0.349159455858493,-0.45032246493758665
-7822.852587461472,-4216.0,2700.0,-15420.0,-29.0,284.0,-256.0,0.050208662402025137,-0.815184685870838,0.3336397916153417,-0.4707839287744794
-7822.8681745529175,-4200.0,3164.0,-15516.0,-24.0,138.0,-41.0,0.042752225280827116,-0.810888780623644,0.3323364518793024,-0.4797750675519866
-7822.8838012218475,-3824.0,3488.0,-15356.0,9.0,106.0,34.0,0.04168914183854566,-0.805537457981579,0.33479113265681826,-0.48712043350254364
-7822.899368524551,-3868.0,3616.0,-15328.0,66.0,68.0,45.0,0.046206291973299646,-0.8012047741476934,0.3354284762986206,-0.49337979868759047
-7822.916736364365,-3872.0,3304.0,-15408.0,20.0,61.0,-284.0,0.033535365758651535,-0.8066982864552324,0.31490268905858654,-0.49894844452838616
-7822.932573080063,-4000.0,2684.0,-15548.0,40.0,107.0,-420.0,0.01508009539799824,-0.8130289908774746,0.2837502625922377,-0.5081754019965732
-7822.948232412338,-4044.0,2480.0,-15420.0,43.0,115.0,-272.0,0.0031958417341273445,-0.8144874177917727,0.26264997464278134,-0.5173152072717824
-7822.9639394283295,-4212.0,2572.0,-15540.0,100.0,-29.0,-170.0,0.0032728204903281215,-0.8196987489826133,0.24604402592515842,-0.5172480902515901
-7822.979590892792,-4020.0,3160.0,-15300.0,132.0,106.0,-120.0,0.004989215748530107,-0.8174805570300476,0.23152164044771636,-0.5273503357431909
-7822.995307445526,-4072.0,3060.0,-15492.0,69.0,177.0,-6.0,0.006026636335087249,-0.8094807279157799,0.22799172575478727,-0.5410401129073312
-7823.010977506638,-4100.0,2688.0,-15596.0,44.0,84.0,-280.0,-0.0057819448991708175,-0.8109609456183002,0.206140111275882,-0.5475538040395866
-7823.026654958725,-4024.0,3284.0,-15428.0,84.0,-15.0,-174.0,-0.007914306665425948,-0.814903842264504,0.18980979076311194,-0.5475776976311378
-7823.042279005051,-3860.0,3272.0,-15324.0,58.0,36.0,-30.0,-0.005854434818400616,-0.8138754224111372,0.18488948444135014,-0.5508070450993359
-7823.057888031006,-4008.0,2884.0,-15568.0,90.0,141.0,-385.0,-0.020260102789558733,-0.8129850203992133,0.15305926793502295,-0.5614425574719482
-7823.073528289795,-4144.0,2692.0,-15332.0,44.0,76.0,-391.0,-0.037313384693849955,-0.8142407585644685,0.12296124255540461,-0.5661273984221915
-7823.0891880989075,-4056.0,2792.0,-15456.0,-17.0,65.0,-490.0,-0.06339252791943256,-0.8156512739414797,0.08868576263717629,-0.5681806246494927
-7823.1048085689545,-3884.0,2252.0,-15684.0,128.0,134.0,-204.0,-0.06542263459678532,-0.8112432705125762,0.06705045958855839,-0.5771554996700955
-7823.120470762253,-3880.0,2548.0,-15544.0,105.0,40.0,-18.0,-0.05914012781243418,-0.8100782324220825,0.060240467313751045,-0.5802127099056552
-7823.136115789413,-4080.0,2896.0,-15484.0,61.0,283.0,-72.0,-0.05996312657419714,-0.7963604096552367,0.050563122281142514,-0.5997148422795392
-7823.151759624481,-4048.0,2824.0,-15284.0,129.0,202.0,-17.0,-0.052788973786232096,-0.7865583850936959,0.04154040296057581,-0.6138514690112474
-7823.167352199554,-4092.0,3060.0,-15416.0,144.0,108.0,-10.0,-0.043853684262626466,-0.7815702616109992,0.03260963943080691,-0.6214188538804571
-7823.182954311371,-4312.0,2804.0,-15280.0,103.0,63.0,-85.0,-0.04164124916810349,-0.7789198093568923,0.020955131078576918,-0.6253885347850742
-7823.198583841324,-4144.0,2528.0,-15540.0,145.0,56.0,-165.0,-0.04090890218038818,-0.7767369192239286,0.0015929119362635147,-0.6284931842657315
-7823.214195489883,-4016.0,2840.0,-15484.0,129.0,97.0,-237.0,-0.045194287955934484,-0.771865400252996,-0.021926032116975958,-0.6337984926962544
-7823.229813337326,-3956.0,2724.0,-15500.0,138.0,103.0,-226.0,-0.04821698552369065,-0.7662426306263928,-0.04522036501628723,-0.6391419810226423
-7823.245409965515,-3996.0,2640.0,-15532.0,117.0,-64.0,181.0,-0.030572511165340877,-0.7710675653511814,-0.03941706662741094,-0.6347963658394217
-7823.261000871658,-3976.0,2928.0,-15496.0,161.0,17.0,9.0,-0.019217461056815637,-0.7707047822090773,-0.047822788342272826,-0.6351045652376927
-7823.276602745056,-4160.0,2752.0,-15168.0,140.0,62.0,-71.0,-0.013516413536129371,-0.7673184440081644,-0.060507437422880235,-0.6382621421222836
-7823.292197227478,-4068.0,3204.0,-15640.0,192.0,72.0,-67.0,-0.004058262313089179,-0.7632398547926563,-0.07582065989031096,-0.6416382797939046
-7823.307893753052,-3812.0,3476.0,-15204.0,168.0,86.0,34.0,0.00954686512388763,-0.7587963742695315,-0.08305111801107332,-0.6459407337820011
-7823.323494911194,-3736.0,3920.0,-15212.0,157.0,-11.0,70.0,0.023740095080509407,-0.7598984921804911,-0.0873410064033083,-0.6437097467553539
-7823.339097499847,-3976.0,2516.0,-15528.0,115.0,108.0,-273.0,0.016795725198321988,-0.7514247416110189,-0.11169937585848558,-0.6500784650661031
-7823.354688167572,-4216.0,2908.0,-15708.0,80.0,-175.0,-397.0,-0.0022418656298475686,-0.7569930143220317,-0.1424952159041648,-0.6376924523236632
-7823.370286226273,-3996.0,3416.0,-15612.0,-17.0,-258.0,9.0,-0.006131557245217967,-0.7714429370617105,-0.14095360436299773,-0.620459733004834
-7823.385887861252,-3840.0,4252.0,-14508.0,-160.0,31.0,120.0,-0.010099157413894081,-0.7712097082109965,-0.12430271334957554,-0.6242454873161457
-7823.401520252228,-2968.0,3920.0,-15120.0,24.0,-129.0,372.0,0.010310989382728123,-0.7820132413898409,-0.10048545726283814,-0.6150216635758307
-7823.417176485062,-3288.0,2380.0,-15432.0,-727.0,47.0,-796.0,-0.08130633464036682,-0.7699459892992426,-0.11529576493503035,-0.6223177163615106
-7823.432773590088,-4096.0,1556.0,-16264.0,-53.0,-301.0,889.0,-0.03948706961029852,-0.7923894701086377,-0.05043510753002607,-0.6066432221025623
-7823.448367834091,-4284.0,384.0,-15744.0,-670.0,-65.0,-307.0,-0.10214655006491812,-0.7907149251436976,-0.035917352610139716,-0.6025329312546417
-7823.463986873627,-5400.0,1416.0,-16732.0,478.0,-524.0,643.0,-0.03685428719537829,-0.8218597920398559,-0.012002685878905349,-0.5683697557710279
-7823.47957110405,-4728.0,3320.0,-15648.0,352.0,-361.0,314.0,0.0035463812370686966,-0.8402665295336496,-0.005813924545616664,-0.5421307783247283
-7823.495167255402,-3864.0,5024.0,-14120.0,-186.0,-8.0,-574.0,-0.037292398300445104,-0.8394022413098359,-0.03911223665425703,-0.5408173326151134
-7823.510835647583,-3100.0,5052.0,-14876.0,725.0,215.0,583.0,0.0438432712052078,-0.8308934624343187,-0.031281593545904,-0.5538188183505189
-7823.52649140358,-1640.0,6904.0,-13144.0,-431.0,505.0,-160.0,0.006082013481762131,-0.8064243814573021,-0.02017232586781501,-0.590961761345265
-7823.542072057724,-1944.0,-3176.0,-15668.0,-2189.0,1120.0,-3946.0,-0.3238369797215061,-0.6885781404368982,-0.17083961286940405,-0.6259421552763068
-7823.557680606842,-8624.0,-2636.0,-21292.0,1482.0,-1363.0,1224.0,-0.18429678355675866,-0.8064573911939484,-0.1369324371580281,-0.5448951086339893
-7823.573344707489,-5924.0,2060.0,-15800.0,1259.0,-1511.0,2147.0,-0.011267165296074298,-0.8958824957595154,-0.020802897718075808,-0.4436607309920768
-7823.5889484882355,-4856.0,6404.0,-11908.0,186.0,-104.0,-649.0,-0.022121883461106304,-0.8974256058870067,-0.07857408370554975,-0.4335481721104422
-7823.604528903961,-5420.0,4812.0,-15012.0,107.0,421.0,-2834.0,-0.11463742990749093,-0.8365846367063847,-0.2963263642324659,-0.4462903664116215
-7823.620151996613,-4808.0,2940.0,-16112.0,-245.0,264.0,-1917.0,-0.1975450705439757,-0.7634043535818825,-0.42338752830502124,-0.4460187652013854
-7823.635812520981,-2488.0,2836.0,-14588.0,313.0,578.0,-102.0,-0.15900642754463762,-0.7414014561546278,-0.45168750826823434,-0.47012682510756915
-7823.651439189911,-1668.0,916.0,-15536.0,-804.0,810.0,-2366.0,-0.2691378151557081,-0.5886237454132154,-0.5683956501229877,-0.5079501035635253
-7823.667017221451,-4512.0,172.0,-17448.0,276.0,-381.0,-655.0,-0.3020798716186332,-0.5781645779969681,-0.6039855573213779,-0.45790273908292206
-7823.682636260986,-4680.0,932.0,-16576.0,770.0,-755.0,1177.0,-0.25346334831927664,-0.6841331575614881,-0.5503043130191237,-0.40605826780928844
-7823.698230266571,-5132.0,3744.0,-14140.0,863.0,-403.0,1114.0,-0.18033274343240416,-0.7648208269484295,-0.501517415523465,-0.3619523259197644
-7823.713834762573,-5780.0,4240.0,-14800.0,1087.0,-32.0,46.0,-0.10728218780252656,-0.7814718240376571,-0.5300068540860632,-0.311263642331312
-7823.729426622391,-5036.0,3468.0,-15424.0,27.0,571.0,-1642.0,-0.12230207903322748,-0.6824930173496451,-0.640832719408469,-0.3295131385372572
-7823.745027780533,-4936.0,3092.0,-14856.0,27.0,-15.0,-40.0,-0.12274241855409104,-0.6809977924010275,-0.6439354072957374,-0.3263793753644553
-7823.760671138763,-3428.0,2636.0,-14824.0,-623.0,384.0,42.0,-0.13673928603913965,-0.664444575876217,-0.6266465024355493,-0.38357520022477143
-7823.776276111603,-2468.0,-196.0,-15976.0,-990.0,644.0,-1368.0,-0.20217285669274468,-0.5495647099977127,-0.6723307347973644,-0.45285334114772874
-7823.791941642761,-5056.0,-100.0,-17224.0,1087.0,-468.0,887.0,-0.14123578315460514,-0.6340679136308613,-0.659156621244573,-0.3788441409471056
-7823.807544708252,-3520.0,4200.0,-15272.0,177.0,-429.0,1023.0,-0.12174859750473474,-0.7059311257624239,-0.6003645471364393,-0.35552909195603816
-7823.823166847229,-3752.0,3336.0,-14416.0,16.0,-14.0,550.0,-0.10435901684182072,-0.734554048295348,-0.5662935540732272,-0.3589584326239421
-7823.838810443878,-5040.0,2956.0,-15568.0,707.0,-50.0,114.0,-0.05788051713595443,-0.7467727490200111,-0.5796457524010932,-0.32092227841105164
-7823.85446023941,-5084.0,3100.0,-15408.0,684.0,13.0,-364.0,-0.02288725567490895,-0.7298159443328733,-0.621262992108374,-0.2843890918473104
-7823.870041370392,-4684.0,2460.0,-15300.0,428.0,264.0,-384.0,0.009022669120452274,-0.7022626208750904,-0.6559567599104883,-0.27652582499890677
-7823.885630130768,-4408.0,1288.0,-15860.0,796.0,-32.0,309.0,0.06314139816038208,-0.718137709024201,-0.6545107300059496,-0.22783129509113298
-7823.901203632355,-4176.0,580.0,-16344.0,1038.0,-320.0,977.0,0.12815761779084253,-0.7684003252070029,-0.6107899367095777,-0.14167645689478042
-7823.916888713837,-4604.0,1376.0,-15572.0,949.0,-408.0,1217.0,0.1830982729221052,-0.8198254639822095,-0.5402941914562073,-0.04943093907645731
-7823.932554721832,-3980.0,1496.0,-15584.0,339.0,35.0,1233.0,0.21271684146712752,-0.867069208314213,-0.45020652143909695,-0.016019407083933263
-7823.948156118393,-4308.0,1548.0,-15456.0,506.0,80.0,1323.0,0.25377300202047504,-0.9027254425627975,-0.34668191943147963,0.022308866726544863
-7823.963810682297,-4560.0,2380.0,-15384.0,333.0,145.0,1277.0,0.2797419336324048,-0.9281446180098207,-0.24060732512056365,0.048991159665133226
-7823.979520082474,-4348.0,2720.0,-15420.0,187.0,227.0,685.0,0.2958029515369576,-0.9370458863117207,-0.17839267179422988,0.05120229934702493
-7823.995156049728,-4184.0,2720.0,-15436.0,349.0,347.0,716.0,0.325315715957232,-0.9381431657169492,-0.10899297462514197,0.046664944574891704
-7824.010790586472,-3852.0,2668.0,-15356.0,384.0,471.0,281.0,0.35918451554067427,-0.9303592410215569,-0.0709077213457547,0.019755037209699806
-7824.026450634003,-4224.0,2484.0,-15428.0,450.0,270.0,479.0,0.395523365400297,-0.9180413164604116,-0.022703463846403385,0.01568315731709503
-7824.042051076889,-4256.0,2212.0,-15384.0,691.0,115.0,642.0,0.44841814617732634,-0.892689890482484,0.03357199768287968,0.02998077018425685
-7824.057625055313,-4352.0,1928.0,-15416.0,726.0,-14.0,617.0,0.501400678121414,-0.859616732439104,0.08275981530832237,0.05298345270211101
-7824.073233127594,-4012.0,2152.0,-15316.0,431.0,113.0,511.0,0.5293568341985371,-0.8362848322854637,0.1278734116728774,0.06369781757419184
-7824.088866710663,-4128.0,2400.0,-15608.0,620.0,87.0,569.0,0.568659590313532,-0.7997655398747401,0.17646529772143352,0.07655945580656476
-7824.104479789734,-4012.0,2356.0,-15560.0,527.0,127.0,173.0,0.6013310100076384,-0.7710194375128888,0.19821432628001912,0.06812579715394033
-7824.120104789734,-4344.0,1840.0,-15500.0,413.0,87.0,127.0,0.6261454159591393,-0.7472901883818845,0.21372966056344148,0.061797448304600704
-7824.135739803314,-3860.0,1856.0,-15352.0,88.0,184.0,-66.0,0.6284471445712764,-0.7447516623241374,0.2200252001140812,0.04458765816234046
-7824.151319980621,-4436.0,2040.0,-15488.0,86.0,209.0,42.0,0.6294853097535725,-0.7400645828465207,0.23462123445242974,0.031710161851873586
-7824.166922330856,-4592.0,2088.0,-15476.0,-245.0,298.0,-122.0,0.607268809832464,-0.7565367777602372,0.2424029781946353,0.010839403267298776
-7824.182524442673,-4392.0,2648.0,-15416.0,86.0,280.0,-468.0,0.6065170870291836,-0.7614249996695783,0.22627997328530344,-0.034152111352285124
-7824.19814491272,-4512.0,3236.0,-15512.0,75.0,209.0,-1040.0,0.6014559464629432,-0.7742119204988248,0.16740467614240767,-0.10403038511676445
-7824.213746547699,-3676.0,2608.0,-15732.0,109.0,180.0,-1539.0,0.586624565213107,-0.7823728258849681,0.0713118929058406,-0.19666976060261168
-7824.229373931885,-3720.0,1240.0,-15776.0,348.0,-27.0,-857.0,0.5936990667042312,-0.7680566937889868,0.0054835647541183466,-0.23995887947321864
-7824.244961261749,-4068.0,1100.0,-15900.0,650.0,-331.0,396.0,0.6438328193733185,-0.7393937159825007,0.0013057696898355496,-0.19691248926594346
-7824.260557413101,-4056.0,1420.0,-15980.0,623.0,-601.0,936.0,0.6956889930823644,-0.7104430019643441,0.017169093638304992,-0.10484649773634024
-7824.276116132736,-3904.0,2044.0,-15708.0,828.0,-698.0,1138.0,0.7512532030487099,-0.6589189512538577,0.03747861129234842,0.0063082710125036716
-7824.291954040527,-4160.0,2392.0,-15536.0,760.0,-744.0,667.0,0.7920902767556249,-0.603132164438889,0.027390573062938513,0.08985734358271727
-7824.307590246201,-4268.0,2248.0,-15436.0,782.0,-703.0,501.0,0.8265670113058102,-0.5398394845661801,0.011329494927455414,0.15884567752693218
-7824.32329916954,-4176.0,2112.0,-15392.0,819.0,-721.0,463.0,0.8547299417640938,-0.46808270847442834,-0.007380723713273548,0.22423387254529717
-7824.33889913559,-4412.0,2272.0,-15560.0,905.0,-903.0,438.0,0.8763451317307781,-0.38083212447871884,-0.03876549511102018,0.292375340009359
-7824.354493379593,-4164.0,1892.0,-15452.0,777.0,-905.0,146.0,0.8903996886657211,-0.2974787816768592,-0.08275598684813552,0.33443417217268595
-7824.370092868805,-4240.0,1712.0,-15460.0,787.0,-994.0,40.0,0.8969337804884225,-0.20665184430452194,-0.13509482872024164,0.3668162972351887
-7824.385691642761,-4368.0,1840.0,-15820.0,892.0,-993.0,12.0,0.894829268941462,-0.10478843114479298,-0.18280190867260665,0.3935523171441806
-7824.401346683502,-4324.0,1828.0,-15456.0,821.0,-1263.0,290.0,0.8644692319561664,-0.0021694466969056823,-0.2484691219956236,0.436979788911191
-7824.41700387001,-4472.0,1736.0,-15324.0,744.0,-934.0,153.0,0.8338582768103098,0.0857583958188337,-0.2891963670408933,0.46226759894228997
-7824.432593584061,-4640.0,1640.0,-15344.0,663.0,-876.0,106.0,0.7987255206970068,0.16601632531899768,-0.32572750917578364,0.4778888072355454
-7824.448184728622,-4940.0,1664.0,-15480.0,650.0,-902.0,45.0,0.7581223858274576,0.2466736294633305,-0.36065783732105317,0.48407488368389007
-7824.46381521225,-4756.0,1832.0,-15604.0,614.0,-867.0,-99.0,0.7185730792743238,0.3258262838553446,-0.38845106468757723,0.47602072731586004
-7824.479434967041,-4624.0,1708.0,-15560.0,607.0,-958.0,-242.0,0.6753052491660019,0.40999982135249335,-0.41447065067466543,0.45174887566997546
-7824.4950177669525,-4116.0,1980.0,-15576.0,667.0,-1010.0,-341.0,0.6244479170717017,0.49866941865926195,-0.43302784652363724,0.41698980070734165
-7824.510660648346,-4208.0,1924.0,-15784.0,831.0,-1169.0,-374.0,0.5529357573155216,0.5958536912765616,-0.4465981967232185,0.37385890059964577
-7824.526295900345,-4228.0,1932.0,-15408.0,1053.0,-1234.0,-271.0,0.4540833364862809,0.6905796246000636,-0.4531250340284225,0.33404462149458886
-7824.5419049263,-4356.0,2236.0,-15712.0,1230.0,-1389.0,-340.0,0.33030135576286157,0.7828592092717892,-0.4458615001660084,0.28149599554750543
-7824.557538509369,-4860.0,2160.0,-15680.0,1311.0,-1457.0,-624.0,0.19605482187804632,0.8669592769167948,-0.4065389481991073,0.2113532648989353
-7824.57315158844,-4916.0,1908.0,-15152.0,1563.0,-1445.0,-695.0,0.03847519096502517,0.9275191996962813,-0.34335092061098127,0.14261114679633777
-7824.588752508163,-5048.0,2148.0,-15536.0,1661.0,-1468.0,-1165.0,-0.12260308470478286,0.963552189150176,-0.22792155190337007,0.06773055870679301
-7824.604354143143,-5288.0,2480.0,-15760.0,1922.0,-1620.0,-1594.0,-0.2970164284799185,0.9526949747958349,-0.06311418851002447,-0.013043213580945316
-7824.620012283325,-5148.0,2600.0,-15824.0,2406.0,-1736.0,-1927.0,-0.4859352817352316,0.859083220224511,0.13312589771027866,-0.09011336223012702
-7824.635598182678,-5132.0,2940.0,-16156.0,2795.0,-2034.0,-2480.0,-0.6479202116334027,0.6524283170034713,0.35937277162676706,-0.1593358137464396
-7824.651208162308,-5064.0,3088.0,-16444.0,2814.0,-1661.0,-3154.0,-0.743465351068285,0.34537184902687806,0.5520690973659481,-0.15230649820087946
-7824.666805267334,-5188.0,2856.0,-16412.0,2825.0,-1362.0,-3253.0,-0.749857845508353,-0.011760006830141532,0.6522628876643864,-0.11012737690802325
-7824.682426452637,-5624.0,2428.0,-16828.0,3296.0,-1249.0,-3078.0,-0.6524292634246404,-0.3839303646730915,0.6474573861600552,-0.08793443248214643
-7824.698021411896,-5944.0,2008.0,-16992.0,3985.0,-978.0,-3299.0,-0.44406418409632076,-0.7313374312074284,0.5107861304482758,-0.08396482036820893
-7824.713611364365,-5984.0,2636.0,-17128.0,3951.0,-1144.0,-3578.0,-0.15066797329656226,-0.9503068686763937,0.2689191533940668,-0.043571849937687784
-7824.72923207283,-7048.0,3596.0,-16068.0,3651.0,-1431.0,-3902.0,0.15397632835142147,-0.9863645808985438,-0.04485215496793788,0.0369389773949856
-7824.744868278503,-5968.0,2344.0,-15860.0,3337.0,-1097.0,-4259.0,0.4058007675901751,-0.8300836362433157,-0.3742869470203342,0.07871578719988291
-7824.760496139526,-6600.0,1160.0,-15380.0,3222.0,-1162.0,-4726.0,0.5644817010727808,-0.4934538268218104,-0.6555829144038788,0.08985973676016945
-7824.776090621948,-6440.0,1944.0,-14676.0,2809.0,-1464.0,-4257.0,0.5760758543333496,-0.09086288374779154,-0.8068382510193842,0.09430049365256768
-7824.791735172272,-6280.0,3916.0,-13412.0,1202.0,-1697.0,-4137.0,0.4634958772793568,0.2548470653341603,-0.8485360389763605,-0.014530505631738478
-7824.807329654694,-5556.0,5732.0,-12888.0,-698.0,-1389.0,-5007.0,0.336032915821967,0.5417023913520197,-0.7206494588826824,-0.27258898748809895
-7824.822954416275,-4376.0,5960.0,-12668.0,-2224.0,-1123.0,-5473.0,0.21255725737700346,0.7031289525441424,-0.39136113978386144,-0.5543153855862384
-7824.838591814041,-3680.0,5808.0,-13080.0,-3686.0,-783.0,-5919.0,0.10713385125263543,0.6816211133195857,0.1155169889286586,-0.7145423857698034
-7824.854176044464,-2820.0,4932.0,-13388.0,-4862.0,-381.0,-5478.0,0.04939544853164278,0.4695186252668631,0.6240676824377289,-0.6226169592363147
-7824.8697872161865,-3120.0,3688.0,-14196.0,-5688.0,-384.0,-4203.0,0.06384744472237908,0.16620117376401236,0.9388657372086475,-0.29467236235784044
-7824.885378837585,-3312.0,3276.0,-14560.0,-6690.0,-401.0,-2358.0,0.11315881072377651,-0.06334526449591378,0.9712668458539934,0.1995574482858471
-7824.900942564011,-3756.0,2432.0,-14828.0,-7619.0,-415.0,-412.0,0.09436347381192287,-0.1383925710078583,0.6925529538592067,0.7016505092999428
-7824.916595697403,-3760.0,1984.0,-15180.0,-7870.0,-259.0,1135.0,-0.044780461582508965,-0.0976308950795954,0.18278522754147575,0.9772678645995813
-7824.93226480484,-3340.0,2772.0,-15144.0,-8121.0,-66.0,1897.0,-0.22211428136524133,-0.024429830940184655,-0.3987404033572018,0.8894237011145883
-7824.947954416275,-3892.0,2596.0,-15208.0,-8234.0,740.0,1301.0,-0.2542823830768208,0.026103353215812312,-0.8475695736478057,0.4650644067590425
-7824.963571310043,-3864.0,2460.0,-15724.0,-8080.0,1088.0,1349.0,-0.17038051605947324,0.04980965131912756,-0.975493140145336,-0.13001004542790756
-7824.9791831970215,-4712.0,2432.0,-16288.0,-8010.0,1063.0,1483.0,-0.02282632778906526,0.044499156005721296,-0.737187303089641,-0.6738350421563624
-7824.994803905487,-4588.0,2148.0,-16148.0,-7686.0,1030.0,2487.0,0.17891696872208104,-0.032236731707574864,-0.24226130286745517,-0.9530262181939587
-7825.010441303253,-4772.0,2568.0,-15324.0,-7880.0,667.0,3208.0,0.35101205454421625,-0.134342187610095,0.34671885401997216,-0.8593769548107858
-7825.026055574417,-6128.0,696.0,-16252.0,-7459.0,631.0,3005.0,0.3841497538025811,-0.1835804727524366,0.7856935454246459,-0.44879040693341254
-7825.041644573212,-5888.0,1728.0,-16344.0,-6995.0,186.0,4077.0,0.3420568329433844,-0.10714763052694852,0.923805145116936,0.1345383297230908
-7825.057233095169,-4624.0,3460.0,-14772.0,-7082.0,59.0,4770.0,0.17223641045631638,0.052375127318884794,0.7113707929528721,0.6793696047697867
-7825.072852134705,-4628.0,3584.0,-14212.0,-7278.0,862.0,3922.0,-0.06517937591933372,0.10953995089292305,0.22277580133356384,0.9665006934572425
-7825.088438272476,-4540.0,3884.0,-14292.0,-7620.0,1177.0,2903.0,-0.21114562013896832,0.0893167662811559,-0.3687083490581892,0.9008297262479699
-7825.104063510895,-4436.0,4588.0,-14408.0,-7989.0,1244.0,2185.0,-0.22655232890697666,0.055155121948587994,-0.8371022685446652,0.4948653824900636
-7825.119688749313,-4212.0,4652.0,-14256.0,-8425.0,1740.0,1349.0,-0.09323728384412656,0.03819433224041998,-0.9887201993182677,-0.11081682790137647
-7825.135320901871,-4676.0,3664.0,-14548.0,-9122.0,2236.0,-720.0,0.09490286715936508,0.15156058879891388,-0.7077754030195033,-0.6834301812244159
-7825.150875329971,-4836.0,1904.0,-16108.0,-7943.0,2813.0,116.0,0.306591601927614,0.19860127703959518,-0.17121772764496546,-0.91501017050402
-7825.166491270065,-4712.0,3088.0,-16604.0,-7697.0,1690.0,1456.0,0.4765413537793139,0.08698647926642912,0.3796088011923623,-0.7881870644842551
-7825.182099103928,-4304.0,3456.0,-15656.0,-7418.0,1699.0,3176.0,0.5640639238087749,0.0006186631487273847,0.760154272045193,-0.32248564278863606
-7825.197704076767,-4572.0,2840.0,-15984.0,-6296.0,1493.0,4552.0,0.4881899945152349,0.028589486011632727,0.8317138591665181,0.26287873062524986
-7825.213381528854,-4796.0,3172.0,-15896.0,-5523.0,889.0,6492.0,0.23089472066496633,0.19548243012951805,0.582139756094746,0.7547102436390108
-7825.229005098343,-4656.0,4600.0,-15600.0,-5188.0,448.0,7787.0,-0.16740660827310294,0.35388976908160025,0.09054029538965269,0.9157180317961539
-7825.244611024857,-4452.0,5588.0,-13648.0,-6273.0,1281.0,5613.0,-0.347011554827193,0.31120108044208394,-0.4837640277782579,0.7407491031218671
-7825.260235548019,-4008.0,2088.0,-15104.0,-5183.0,3209.0,3187.0,-0.23725916817818613,0.10822096375021513,-0.859684974604229,0.43924714519288094
-7825.275883436203,-6336.0,5268.0,-15220.0,-4535.0,1922.0,3674.0,-0.16835783916491512,-0.12976714612081722,-0.9764855596851447,0.035945479629135524
-7825.291477680206,-4420.0,8700.0,-13904.0,-5555.0,1895.0,2712.0,-0.06818197545686641,-0.24841390111205752,-0.8629935172209048,-0.43460780157721524
-7825.307080745697,-4552.0,7328.0,-13604.0,-5564.0,2670.0,2431.0,0.0903013865810665,-0.25713828605171674,-0.5326022688902751,-0.8012867056184404
-7825.322711467743,-5044.0,5464.0,-14960.0,-5206.0,2135.0,2371.0,0.21042489243585558,-0.22867152288698384,-0.0872179618102846,-0.9464796492273703
-7825.338299274445,-4688.0,5688.0,-15124.0,-4629.0,1640.0,3056.0,0.34184918112070456,-0.17992899534391585,0.34458721270931647,-0.8555842137620686
-7825.353888273239,-3972.0,6556.0,-14900.0,-4351.0,1586.0,4334.0,0.4806848603587453,-0.05331948168834993,0.6868314378597477,-0.542551079495646
-7825.3695249557495,-3600.0,6700.0,-14368.0,-3932.0,1447.0,4264.0,0.5119420982043201,0.09390096704593007,0.8455071812148384,-0.1192287842265277
-7825.3851754665375,-4400.0,6056.0,-13808.0,-3985.0,1558.0,3151.0,0.41929528748059847,0.14938454507851603,0.8444294275613847,0.2980178878131296
-7825.400772809982,-4152.0,5672.0,-13864.0,-3187.0,2035.0,2519.0,0.22790783086443,0.15386643499979039,0.7467857993412099,0.6055527315712774
-7825.416370153427,-4616.0,6496.0,-14228.0,-3093.0,1614.0,1660.0,0.07252389670260187,0.10920228350262848,0.5623186701535773,0.8164636298584246
-7825.432088851929,-4252.0,6732.0,-13564.0,-3015.0,1670.0,1235.0,-0.06538294522233778,0.030209023222336904,0.33016660069334464,0.9411708140271917
-7825.4477326869965,-3620.0,6436.0,-13856.0,-2786.0,1723.0,873.0,-0.171979111347442,-0.06743827100179595,0.08585336253183111,0.9790324126434274
-7825.46333861351,-4136.0,6296.0,-14284.0,-2009.0,1397.0,1366.0,-0.3020671547149064,-0.1424273542845118,-0.0956494268789002,0.9377212111985591
-7825.478939533234,-4060.0,7064.0,-13900.0,-1638.0,839.0,1754.0,-0.4480847392020775,-0.1785150307867883,-0.2244511859530574,0.8467432405408764
-7825.494537353516,-3092.0,7512.0,-12956.0,-1943.0,1195.0,1218.0,-0.5316026346821056,-0.20973351944465532,-0.3860735978495712,0.7241254495347405
-7825.510171413422,-3352.0,6896.0,-13160.0,-2096.0,1293.0,-548.0,-0.4802570559119204,-0.17188781332063663,-0.5748829061918049,0.6397791681878435
-7825.525817871094,-2908.0,6132.0,-14080.0,-1359.0,2387.0,-616.0,-0.3364339582487838,-0.21118694185024706,-0.7382405691192979,0.5451725684913091
-7825.541431427002,-3484.0,7392.0,-13972.0,-1565.0,1389.0,-1458.0,-0.20146591578127884,-0.13423792755884817,-0.8594446331401545,0.4502739012531168
-7825.557024717331,-2956.0,8068.0,-13464.0,-1783.0,1599.0,-1932.0,-0.025584527042551167,-0.02016956530984816,-0.9468048631062974,0.3201549184527489
-7825.572671890259,-3136.0,7004.0,-13888.0,-1141.0,1963.0,-1796.0,0.17912456910884508,0.0736010010356041,-0.9562552428345952,0.21925599635922652
-7825.588258266449,-3376.0,6856.0,-14160.0,-724.0,1653.0,-1301.0,0.3401456941731789,0.13670059395069278,-0.9188348862475375,0.14613796961586975
-7825.603931427002,-3884.0,7260.0,-13804.0,-594.0,1353.0,-1058.0,0.4632619092643776,0.18441056203020592,-0.8629341233712318,0.08201125994612324
-7825.619535446167,-3804.0,7420.0,-13524.0,-344.0,1435.0,-1009.0,0.5769245269988185,0.23349798730744678,-0.7817990740486296,0.03777549321009931
-7825.63512969017,-3700.0,6836.0,-13608.0,-82.0,1483.0,-1272.0,0.674027368532531,0.3069684236299662,-0.6719035653998267,-0.0017584556424193364
-7825.650698661804,-4508.0,6156.0,-13888.0,317.0,1357.0,-2234.0,0.7256428450411437,0.44538770304659175,-0.5188860952328554,-0.07635100254401112
-7825.666299581528,-4608.0,6476.0,-14188.0,871.0,1422.0,-3235.0,0.6999367880106171,0.6258970712199682,-0.2944828745847883,-0.1778234675286876
-7825.681941747665,-4916.0,6200.0,-14576.0,1035.0,1212.0,-4506.0,0.557806619384193,0.760408141146641,0.008832593290050855,-0.33249544289337385
-7825.697545289993,-4744.0,5148.0,-14772.0,2026.0,1131.0,-5130.0,0.24542593273148136,0.7970312147896284,0.31008172847105236,-0.456461034330704
-7825.713178396225,-4840.0,4844.0,-14596.0,2764.0,687.0,-5858.0,-0.17279958159567202,0.6305391865159281,0.5408746288581221,-0.5291646952752808
-7825.728804349899,-4060.0,4680.0,-13804.0,3230.0,911.0,-6810.0,-0.5901496938417424,0.2522876964764043,0.6275837588305241,-0.4406959073071565
-7825.744400024414,-5096.0,3992.0,-14024.0,3686.0,1057.0,-8126.0,-0.8196774164842573,-0.26906408728774583,0.4804103546571072,-0.15792194583381444
-7825.76002407074,-3692.0,3972.0,-15068.0,4412.0,1155.0,-8648.0,-0.6720821104609161,-0.7085991431104085,0.10199442369958436,0.18918252751188563
-7825.775616884232,-912.0,6908.0,-14948.0,4583.0,1073.0,-6749.0,-0.23282475789725754,-0.8572084249670565,-0.24573428104640002,0.3880734613371424
-7825.791247844696,3328.0,19000.0,-15468.0,1704.0,-1483.0,-547.0,-0.11636857134800298,-0.8134346119822202,-0.1947605909935702,0.5355845403179548
-7825.806846618652,-6308.0,20832.0,-13372.0,-3368.0,-2518.0,-1938.0,-0.2854680304814401,-0.5828994920373584,-0.4302944870620997,0.6273618096119666
-7825.822528362274,-572.0,784.0,-17532.0,3278.0,6299.0,-1535.0,0.17052333527291627,-0.8039130197212051,-0.4103814450411053,0.3952628472499131
-7825.838166952133,-7672.0,-1588.0,-20852.0,6437.0,3287.0,-4652.0,0.7200864737347896,-0.5240827629455899,-0.372673109145191,0.26062901152321744
-7825.853799819946,-7528.0,1240.0,-22336.0,8781.0,1338.0,-3904.0,0.9570165346872688,0.09468227778897334,-0.20417426296690588,0.18294121719772286
-7825.869396448135,-8488.0,9588.0,-14896.0,5332.0,-2216.0,-4992.0,0.7931779214482282,0.5530843702507251,-0.2186695992654156,-0.13095827835051094
-7825.8849947452545,-5712.0,3600.0,-11948.0,5421.0,-91.0,-4090.0,0.4153416451089094,0.8649423944670883,-0.07697387377831337,-0.27099999049321943
-7825.900593519211,-7196.0,2340.0,-13312.0,6268.0,541.0,-2943.0,-0.10601870255697908,0.9617961603962768,0.014199626571489075,-0.2520050617752439
-7825.916262626648,-7388.0,6368.0,-13208.0,5970.0,1642.0,-1996.0,-0.5677482570078629,0.8177311601427667,0.030589876422096877,-0.08967678549423766
-7825.932007789612,-4752.0,6736.0,-13376.0,4314.0,2147.0,-4219.0,-0.7980420084039787,0.5322080810811887,0.16717263219254605,0.22789651664788269
-7825.947620630264,-4016.0,2936.0,-13688.0,2763.0,2217.0,-4142.0,-0.7913024275638534,0.2126638392274173,0.23494095728880984,0.5228932072659058
-7825.963274478912,-2904.0,2964.0,-14744.0,3136.0,2326.0,-2058.0,-0.7495256064923638,-0.1419893395790313,0.2387992312287142,0.6008538256703871
-7825.97891330719,-1940.0,5604.0,-15184.0,2498.0,2315.0,-2129.0,-0.6181928016327882,-0.4447876358814431,0.18136101705245977,0.6221814851553351
-7825.994515180588,-1304.0,4972.0,-15652.0,2753.0,2215.0,-1677.0,-0.43080999827239763,-0.7006025670663748,0.13851411002557146,0.5516997641220869
-7826.01015329361,-1196.0,5176.0,-15196.0,2309.0,1871.0,-1462.0,-0.23225145584168894,-0.8600942777929373,0.08649103621815017,0.4458883214675758
-7826.025829076767,-2044.0,5828.0,-14656.0,2744.0,2171.0,-1468.0,0.0137266071651402,-0.9600780315192872,0.03716455997327796,0.2769125297486142
-7826.041430473328,-2360.0,6004.0,-15388.0,2514.0,2783.0,-3139.0,0.267616473066983,-0.9515362973904782,-0.1487113556387461,0.029069413404718417
-7826.057018995285,-2708.0,5676.0,-15056.0,2595.0,2958.0,-4539.0,0.47185983234070766,-0.7436520401932846,-0.3985646251016391,-0.25588314004121976
-7826.0726046562195,-3072.0,5812.0,-14824.0,2646.0,2839.0,-5628.0,0.5293835078050224,-0.32258940130500274,-0.6064209237373482,-0.49793859368728477
-7826.0881888866425,-4960.0,4168.0,-15264.0,3116.0,2220.0,-3859.0,0.512036358071287,0.11028228568237189,-0.6759686298934515,-0.5183849890551756
-7826.103811264038,-5508.0,2488.0,-16496.0,4131.0,1287.0,-1546.0,0.44368157343986336,0.41246110986002144,-0.7338159789076028,-0.3074680525564292
-7826.119431257248,-4284.0,3536.0,-15920.0,3688.0,891.0,-1893.0,0.29721216623940183,0.6569398227038408,-0.6848163197846461,-0.10545902399388002
-7826.135015964508,-3004.0,6164.0,-15152.0,2159.0,893.0,-5179.0,0.16023318796881314,0.9234369598628694,-0.34457182855929985,-0.053476738829819605
-7826.150654792786,-1004.0,5884.0,-15476.0,899.0,1399.0,-8066.0,0.07486532574787885,0.9623041427650044,0.2605608172793704,-0.02177108900997815
-7826.166230916977,-1192.0,3116.0,-15524.0,524.0,1860.0,-7930.0,-0.02134014376902215,0.6425822680078601,0.7637443344182189,0.057682048766177156
-7826.18182349205,-1684.0,840.0,-15808.0,1509.0,1113.0,-4528.0,-0.14445349866992585,0.3056037356992585,0.9407918713861064,0.025498983950410965
-7826.197411060333,-2316.0,2840.0,-15500.0,2001.0,1289.0,-2379.0,-0.28598149589710525,0.07885269219633492,0.9523153284908513,-0.07136071790001723
-7826.213001251221,-3664.0,5256.0,-15004.0,1724.0,1525.0,-4472.0,-0.4140742505488964,-0.2988735199999706,0.8556051565189318,-0.08459876011745636
-7826.22861123085,-6488.0,3824.0,-15420.0,234.0,2517.0,-11206.0,-0.4790953663324003,-0.7949049387786582,0.3324041839638792,0.1676342051832755
-7826.24423956871,-4412.0,6040.0,-16308.0,474.0,1248.0,-7837.0,-0.30194118067500064,-0.8712821721226989,-0.21069344581250166,0.32451066522595673
-7826.259882211685,-3192.0,3176.0,-15088.0,1698.0,1195.0,-4594.0,-0.018876539043142786,-0.7922413060280104,-0.49736705585888347,0.3530203974886601
-7826.27547121048,-3676.0,2996.0,-15268.0,1600.0,1064.0,-4491.0,0.25404680013672487,-0.5821853678884555,-0.6994648417592865,0.32752000839571715
-7826.29109621048,-2616.0,2464.0,-15964.0,1246.0,1485.0,-4525.0,0.49352727219348147,-0.294847145148105,-0.7910478281382604,0.20913948980767583
-7826.306683301926,-2680.0,3296.0,-14764.0,1104.0,1694.0,-4457.0,0.662153495339422,0.02707202391061007,-0.7474840631387001,0.0456883955160332
-7826.322245359421,-2840.0,2188.0,-15136.0,903.0,1453.0,-4315.0,0.7153268535030094,0.32902165924378196,-0.6023970025350133,-0.1310346967134432
-7826.337863683701,-3604.0,1236.0,-16336.0,1179.0,1509.0,-2459.0,0.7067800944252175,0.5300468660645667,-0.4354309316292394,-0.17295121184861537
-7826.353494167328,-4068.0,2012.0,-15988.0,1212.0,1222.0,-1339.0,0.6647698084899267,0.6624404547049646,-0.3109234296934808,-0.15026764973935422
-7826.369107723236,-3992.0,2464.0,-15420.0,1357.0,1178.0,-815.0,0.5985301012990502,0.7676207970157517,-0.21020173399202033,-0.09129764977587687
-7826.384713411331,-4160.0,2392.0,-15816.0,1399.0,1513.0,-639.0,0.5180989413067141,0.8497087699165017,-0.09779249394889425,0.0022630667474608877
-7826.400324106216,-2632.0,3092.0,-16064.0,991.0,1151.0,-1433.0,0.4470770246297186,0.8919706983451706,0.059728553345313795,0.03070679496695444
-7826.415947198868,-2160.0,3076.0,-15548.0,515.0,1205.0,-1666.0,0.3981348586875288,0.8852599676970522,0.23385999781651812,0.05579359561933144
-7826.431592226028,-2316.0,1968.0,-15980.0,519.0,1059.0,-1193.0,0.33834301642007897,0.8646757791921956,0.3615374730265424,0.08456036728700729
-7826.447187662125,-2404.0,2040.0,-15792.0,912.0,956.0,-494.0,0.24091628296795578,0.8625221714474497,0.43057386639074996,0.11234319714072888
-7826.462821483612,-2876.0,2644.0,-15752.0,1189.0,880.0,-116.0,0.11830621297825916,0.8673265615244279,0.4656337430983953,0.13012875521241812
-7826.478466033936,-3524.0,2888.0,-15808.0,1196.0,886.0,-239.0,-0.005437691940019407,0.8525746983066708,0.5021852592135913,0.14455718848342688
-7826.4940638542175,-3220.0,2588.0,-15716.0,1366.0,909.0,-388.0,-0.14033230918065115,0.8147227463295654,0.5420748510476895,0.15062717375978973
-7826.5096480846405,-3060.0,2440.0,-15464.0,1790.0,895.0,-68.0,-0.3042010019704253,0.7662813289905027,0.5511945216588722,0.12829370418685832
-7826.52525472641,-3052.0,1784.0,-15792.0,1678.0,925.0,491.0,-0.4593602749461651,0.7244010974543525,0.5052017648642257,0.09488079145108824
-7826.540882587433,-3520.0,1372.0,-15620.0,1810.0,1009.0,1195.0,-0.6146805456541742,0.6816412433083674,0.3957517528277745,0.03022569021634075
-7826.55650138855,-3840.0,1380.0,-15708.0,2216.0,1127.0,2060.0,-0.7610273335333813,0.607502519513281,0.21048010334493383,-0.08646509409000343
-7826.57208943367,-3936.0,1440.0,-15860.0,2501.0,1219.0,3143.0,-0.8376957793409616,0.4775654601425527,-0.05254877701702017,-0.2596837279984755
-7826.58770775795,-3840.0,1604.0,-15984.0,2781.0,1260.0,3852.0,-0.7907088330887933,0.26231254838785467,-0.3385097499509346,-0.43747321909093373
-7826.603298664093,-2612.0,2084.0,-15612.0,2532.0,1724.0,3598.0,-0.6103650127141014,0.043701307115973,-0.5886345724396976,-0.5282557024203377
-7826.61887216568,-2216.0,3280.0,-16120.0,2073.0,1995.0,2345.0,-0.38768933114157117,-0.09056014353376916,-0.7606865299031775,-0.5126907899953017
-7826.634452581406,-1256.0,2604.0,-15980.0,1758.0,1900.0,1370.0,-0.18042099103204925,-0.15113036763708482,-0.865130060230041,-0.4428971176912969
-7826.6500415802,-1264.0,1600.0,-16176.0,1531.0,1461.0,1128.0,-0.006114872986212198,-0.19960901373793755,-0.912768039409722,-0.3563332095034965
-7826.665625572205,-32.0,2180.0,-16640.0,-459.0,495.0,-509.0,0.009454881421734422,-0.1430627319989705,-0.905294414544269,-0.39985707812322235
-7826.681197404861,-1284.0,1212.0,-15680.0,-137.0,402.0,523.0,0.057605139949121684,-0.17017617933901993,-0.8922514679510497,-0.4142572072712953
-7826.696803808212,-1976.0,1576.0,-16068.0,-297.0,102.0,983.0,0.09618469101870541,-0.24353701145828102,-0.8630607332069112,-0.43193101307958204
-7826.712390422821,-2864.0,2036.0,-15816.0,-220.0,250.0,1257.0,0.15657584661898988,-0.32853028148448005,-0.8208465632420286,-0.4401849361541411
-7826.728018522263,-2544.0,2824.0,-15636.0,-161.0,294.0,658.0,0.19771673313739843,-0.36583121378358163,-0.7903048452575999,-0.44999318663893917
-7826.74359869957,-2248.0,2820.0,-15808.0,-68.0,551.0,315.0,0.24536092067918855,-0.36655699412257653,-0.7670537538027296,-0.46589969675931764
-7826.759177684784,-1880.0,2336.0,-16108.0,9.0,542.0,-61.0,0.27895888895936927,-0.3399053589447297,-0.7570864502629948,-0.48318360077654404
-7826.7747848033905,-1396.0,2108.0,-15944.0,14.0,520.0,75.0,0.31638857380046326,-0.32230458325645944,-0.7422006885822887,-0.4951324710098957
-7826.790359258652,-1708.0,1868.0,-16372.0,462.0,508.0,471.0,0.38145753127785625,-0.31731899561655197,-0.7331495679126487,-0.46507044404240816
-7826.806015253067,-1520.0,2368.0,-16036.0,543.0,1.0,437.0,0.41332762230935266,-0.32660201021860613,-0.7418718856737124,-0.41487047232141344
-7826.821600437164,-1972.0,2996.0,-15796.0,630.0,269.0,250.0,0.4566030583158799,-0.30973448381741603,-0.7465343496290814,-0.3718395641870678
-7826.837220907211,-2548.0,1772.0,-15892.0,426.0,316.0,-417.0,0.4741265729060701,-0.2549423557846128,-0.7579153629760417,-0.36847345990753827
-7826.85281419754,-2604.0,1384.0,-15924.0,333.0,373.0,-261.0,0.49698939471572795,-0.21168755298302724,-0.7582762490220775,-0.36497541235151865
-7826.868397474289,-2592.0,1204.0,-15996.0,225.0,428.0,170.0,0.5341299893885988,-0.19937784919656648,-0.7432024803749252,-0.350148112732377
-7826.8839819431305,-2452.0,1680.0,-16144.0,88.0,386.0,171.0,0.5652994728095303,-0.19446042904340913,-0.7246254726065998,-0.34284044689502774
-7826.899568080902,-1892.0,1616.0,-16120.0,-183.0,321.0,198.0,0.5878050023005696,-0.20629859184152322,-0.6997088312287046,-0.3497623790163716
-7826.915194034576,-1672.0,1888.0,-16224.0,-548.0,59.0,-166.0,0.5755309077391189,-0.22222644438869427,-0.682309342726363,-0.3922161935459354
-7826.930868625641,-1656.0,1984.0,-16072.0,-809.0,-407.0,-509.0,0.5158534458717113,-0.24551190827263009,-0.6823546429537266,-0.4560825216099658
-7826.946460008621,-1456.0,2368.0,-15756.0,-1096.0,-189.0,-455.0,0.4602816120012752,-0.2738180475529962,-0.6536312651498992,-0.5347248672974867
-7826.962050437927,-2140.0,2344.0,-15748.0,-777.0,-86.0,-386.0,0.41740932687812504,-0.28624537804186384,-0.6284653034502033,-0.5906474411559446
-7826.977633476257,-2520.0,2312.0,-16076.0,-767.0,29.0,-1006.0,0.3457205781136558,-0.25601405563295665,-0.6095342629121596,-0.6658844250493139
-7826.993246078491,-2880.0,2564.0,-16192.0,-39.0,109.0,-372.0,0.32869794551118076,-0.2309757873487377,-0.6121810062070556,-0.6810596610537701
-7827.008867740631,-2780.0,2152.0,-15660.0,57.0,47.0,-431.0,0.3063834094089265,-0.20340755200792496,-0.6226998765550212,-0.6906514591047113
-7827.02450633049,-2552.0,2048.0,-15732.0,69.0,363.0,-660.0,0.28680490631415245,-0.1435337408182845,-0.6277509363825076,-0.7092741168488561
-7827.040128231049,-2832.0,1116.0,-16136.0,-66.0,372.0,-735.0,0.26007398687746586,-0.08169270536945719,-0.6221994805402739,-0.733863495245875
-7827.055747509003,-1956.0,728.0,-15972.0,-73.0,383.0,608.0,0.3185634097933199,-0.09165269286219216,-0.603561796725535,-0.7251415691886692
-7827.071347236633,-1972.0,1172.0,-16024.0,-619.0,449.0,540.0,0.3701020168682691,-0.10853207927979512,-0.5460449586500566,-0.7436936116507267
-7827.086933374405,-2344.0,1480.0,-15812.0,-905.0,312.0,941.0,0.4344008014422266,-0.16125774895518943,-0.4654268630092178,-0.7541019276580954
-7827.102529287338,-2816.0,1700.0,-15972.0,-897.0,310.0,1070.0,0.5008031044804021,-0.21667605411999502,-0.37695740001558586,-0.7484322659314401
-7827.118163824081,-2708.0,2368.0,-15932.0,-859.0,380.0,922.0,0.5535485641304554,-0.2581109036699195,-0.28522913668765604,-0.7386522105431101
-7827.133799791336,-2080.0,2512.0,-15824.0,-637.0,392.0,897.0,0.6035659026911082,-0.28460814466549866,-0.2042423587749464,-0.7162342242456557
-7827.149393081665,-1592.0,2568.0,-15940.0,-391.0,408.0,931.0,0.6562792821688894,-0.2951646383061815,-0.13481947512104275,-0.6811747567383535
-7827.164967060089,-1652.0,2340.0,-15948.0,-162.0,366.0,887.0,0.7065206942439316,-0.2923204727552254,-0.08126826341282352,-0.6393533601812837
-7827.180543899536,-1652.0,2200.0,-16152.0,-68.0,84.0,729.0,0.7444414648811657,-0.29666745782822385,-0.05370720169815282,-0.5957439561733522
-7827.196123123169,-1364.0,2844.0,-15720.0,-151.0,-2.0,401.0,0.7607538479999378,-0.3085304743705627,-0.03568749725041358,-0.569902563319349
-7827.211757898331,-2216.0,2648.0,-15852.0,177.0,139.0,54.0,0.7684067231585651,-0.29027122472724937,-0.03384538007923866,-0.5693401568020221
-7827.227341175079,-2388.0,2516.0,-16152.0,158.0,225.0,-188.0,0.7633420759680916,-0.26812676916327594,-0.03139063072661322,-0.5868829006005993
-7827.24295425415,-2748.0,2496.0,-16068.0,87.0,241.0,-579.0,0.7352004834623165,-0.24831879307185487,-0.033311217177153386,-0.6298479093672456
-7827.258642196655,-2484.0,1260.0,-15984.0,-12.0,188.0,-163.0,0.7263043351175642,-0.2385354887095816,-0.02411625446904567,-0.6442058985183995
-7827.274248600006,-2328.0,1096.0,-16096.0,-138.0,155.0,507.0,0.751353016488616,-0.2396743302529974,0.004030657079665372,-0.6148240511192945
-7827.289842844009,-2292.0,1468.0,-15876.0,-156.0,161.0,1010.0,0.7989240304788454,-0.24023764301297793,0.04396425105965755,-0.5496120568471631
-7827.305442094803,-2056.0,1788.0,-15904.0,-129.0,244.0,1177.0,0.84697968539024,-0.2320123384721879,0.09145297745989345,-0.4695019065420681
-7827.321037530899,-2160.0,1704.0,-16044.0,-177.0,225.0,1426.0,0.8927990092312367,-0.22294861889400974,0.1432585533323074,-0.3642537979844684
-7827.336744070053,-2172.0,1796.0,-16068.0,-331.0,124.0,1373.0,0.9213479489919245,-0.22609815232217947,0.18896127344619623,-0.25355713269885016
-7827.352335453033,-2124.0,1960.0,-16096.0,-579.0,134.0,1365.0,0.9300006130687403,-0.24527722717882583,0.2377444002681496,-0.13570387489077737
-7827.367985963821,-2348.0,2100.0,-16032.0,-430.0,254.0,1362.0,0.924159343683206,-0.2470806588980767,0.2905513504088244,-0.021460854063306032
-7827.383556127548,-2108.0,2804.0,-16048.0,-324.0,18.0,1289.0,0.9128791786375381,-0.2390068681196701,0.3185442490933576,0.08976014467027986
-7827.399160146713,-2076.0,3056.0,-16164.0,-279.0,-96.0,1076.0,0.8969240832379053,-0.22958504492102555,0.32987637283670984,0.18438946472222825
-7827.414783716202,-1828.0,2040.0,-16348.0,-584.0,-238.0,872.0,0.8740641883646013,-0.24540213074559908,0.3181982500251219,0.27301916146124355
-7827.430421113968,-1656.0,1756.0,-15756.0,-675.0,-334.0,1229.0,0.8329081129475555,-0.2529495170180532,0.30085693672642155,0.38957120125860134
-7827.44602227211,-1304.0,1840.0,-15816.0,-964.0,-324.0,1424.0,0.7627582550257597,-0.27161912492314955,0.27306524743281674,0.5194788407726488
-7827.461621522903,-2028.0,2540.0,-16364.0,-1175.0,-498.0,999.0,0.6944649286334104,-0.30062104950476154,0.20851543223153227,0.6195698201285671
-7827.477219581604,-1520.0,3024.0,-15892.0,-1698.0,-710.0,362.0,0.634721719829533,-0.35403788189295177,0.082322257437647,0.6819153631439624
-7827.492856264114,-1104.0,2988.0,-16144.0,-2474.0,-1216.0,-577.0,0.5838852115422122,-0.4109001922640492,-0.14560201256054764,0.6848643264749535
-7827.50846529007,-1652.0,2456.0,-15628.0,-2478.0,-1198.0,-263.0,0.48157185620818227,-0.44960000903412733,-0.3540423578000429,0.6637788698565997
-7827.5240869522095,-1880.0,2972.0,-15748.0,-2073.0,-751.0,-343.0,0.38943061449616917,-0.4739328259951002,-0.5096765808228565,0.6032920154437287
-7827.539731502533,-1932.0,2664.0,-15532.0,-1909.0,-675.0,-444.0,0.298811077425133,-0.4759595827579805,-0.6411974695497815,0.5225325067704757
-7827.555331707001,-2792.0,1908.0,-16136.0,-1550.0,-656.0,145.0,0.1888892554535964,-0.48941239975271045,-0.7153346505693068,0.46161963762102565
-7827.570934295654,-2688.0,1696.0,-15784.0,-1504.0,-648.0,1444.0,0.02541001249313749,-0.5681148874798665,-0.7121980180273505,0.41155046957420793
-7827.5865297317505,-3540.0,2604.0,-15408.0,-1174.0,-751.0,1726.0,-0.13899955316450005,-0.6392458441247982,-0.6582784549387486,0.372442412666304
-7827.602144956589,-2776.0,3684.0,-16120.0,-1188.0,-427.0,848.0,-0.2551306275499682,-0.6540440050866341,-0.6388444320038698,0.3146626669845778
-7827.617733240128,-2388.0,2696.0,-16076.0,-1235.0,-354.0,536.0,-0.35732247966458863,-0.6421033974999162,-0.6297157937627212,0.2519561301719023
-7827.633392095566,-2172.0,1696.0,-15852.0,-997.0,-432.0,2224.0,-0.4746613112145682,-0.7075310599968276,-0.502065878473815,0.1484125751011314
-7827.648973703384,-2168.0,2692.0,-15824.0,-909.0,-434.0,2709.0,-0.566878697529459,-0.7593195022748868,-0.31871891285710857,0.02237611091108069
-7827.664544343948,-2104.0,3224.0,-15688.0,-1028.0,-503.0,2079.0,-0.6392343051229604,-0.7495930167944671,-0.15488993057846798,-0.07415471483549141
-7827.680163860321,-1936.0,3212.0,-16116.0,-1923.0,-731.0,974.0,-0.7536742519138695,-0.6478033633114952,-0.037298688487294604,-0.10456927044553753
-7827.6957948207855,-644.0,3784.0,-16200.0,-3382.0,-1993.0,-229.0,-0.9016940115844342,-0.4191163470865615,0.10562458238245254,0.011525826396388798
-7827.711421728134,-1628.0,2836.0,-15332.0,-3032.0,-1407.0,338.0,-0.9595067645971821,-0.1692008556946551,0.21657162500177995,0.061762208254989674
-7827.727011203766,-1652.0,3800.0,-15732.0,-3012.0,-1670.0,763.0,-0.9332784390806079,0.10144953341445034,0.3360468179597042,0.07597291264925732
-7827.742678403854,-2332.0,3868.0,-15560.0,-2839.0,-1288.0,14.0,-0.8398024801667777,0.32961672347325705,0.4074813495409887,0.14157527922888966
-7827.758268117905,-2216.0,3508.0,-15904.0,-2980.0,-1583.0,126.0,-0.6706094947927985,0.548830804396559,0.4635504515533834,0.18490168334503584
-7827.7738580703735,-2772.0,2856.0,-15772.0,-2822.0,-1439.0,821.0,-0.4713676689943964,0.7409131968571543,0.4452239327011718,0.17503086899116713
-7827.789494752884,-2396.0,3212.0,-15108.0,-3096.0,-1475.0,651.0,-0.21382032362557452,0.8763975501544768,0.3984914135462696,0.16556810265803512
-7827.805094242096,-3624.0,2960.0,-15676.0,-3025.0,-1612.0,1226.0,0.05351500320205454,0.951893287486749,0.277442535907015,0.1185788890968302
-7827.820725679398,-3828.0,3452.0,-15856.0,-3136.0,-1700.0,1487.0,0.3220944179594699,0.9388575816308219,0.10759349036826775,0.05679144446171696
-7827.8363468647,-3364.0,3692.0,-14764.0,-3038.0,-1487.0,1975.0,0.5440611605224069,0.8322539244099355,-0.10504401264486511,0.017793659621851553
-7827.851976394653,-3768.0,4192.0,-15480.0,-2971.0,-1501.0,1749.0,0.7061121041578764,0.6439451952218855,-0.2925775678750325,-0.03374386890555071
-7827.867572069168,-2900.0,4756.0,-16016.0,-3319.0,-1558.0,930.0,0.812301384977018,0.3906331690763237,-0.409401735904816,-0.14128837821961807
-7827.883141279221,-1800.0,4700.0,-15576.0,-3708.0,-2088.0,14.0,0.8100850984286478,0.09542227114206235,-0.48028682037747644,-0.3224613056564037
-7827.898779153824,-1404.0,4816.0,-15484.0,-3236.0,-2150.0,775.0,0.726399388928989,-0.2137649568475399,-0.5178549000036393,-0.3980889015405747
-7827.9143896102905,-2184.0,4364.0,-15456.0,-3246.0,-2377.0,1253.0,0.5647743946381419,-0.5244140283509459,-0.4999176060834085,-0.3950977058370339
-7827.930172204971,-2496.0,4384.0,-15040.0,-3328.0,-2255.0,1243.0,0.33483363605428706,-0.7702130451896603,-0.41263677005653865,-0.3526885271505759
-7827.94583940506,-2616.0,4620.0,-14464.0,-3880.0,-1884.0,599.0,0.022782209436640284,-0.900369959593895,-0.28798246950372397,-0.3253936140316981
-7827.96143746376,-3352.0,4316.0,-15236.0,-4752.0,-1660.0,-87.0,-0.36157689816141353,-0.8741509949214306,-0.14944421519544301,-0.2877301015508494
-7827.977087497711,-4628.0,3676.0,-15144.0,-5106.0,-1838.0,473.0,-0.6891932534980492,-0.691376316702385,0.0657138156307529,-0.20662318957722195
-7827.99293756485,-4540.0,3984.0,-15400.0,-5105.0,-1833.0,1424.0,-0.8631090988796042,-0.36782193476967223,0.31786994008900044,-0.1367786859176088
-7828.008577346802,-5208.0,5080.0,-14960.0,-5272.0,-1619.0,1633.0,-0.8650398107090906,0.04913507029672853,0.4962598140223242,-0.054936943324544324
-7828.0241730213165,-4716.0,4400.0,-14932.0,-5467.0,-1391.0,2004.0,-0.6838660903806536,0.48033833066632614,0.5487486644892072,0.021844032170781413
-7828.039861679077,-4364.0,3712.0,-14864.0,-5964.0,-1047.0,2137.0,-0.3380431745482309,0.8206172417282968,0.44523547096784444,0.11865719578533128
-7828.055473327637,-4300.0,2884.0,-15420.0,-6238.0,-424.0,1804.0,0.09284700946413468,0.938371814695323,0.22953054609615245,0.24115036518275285
-7828.07110786438,-5900.0,3968.0,-16452.0,-5754.0,-650.0,2739.0,0.45346806819592345,0.8382592068395042,-0.10569981445891713,0.2837529955768096
-7828.086720943451,-6668.0,3472.0,-16636.0,-5691.0,-1133.0,3000.0,0.6819414102682256,0.5330885129997841,-0.4438644120300544,0.23185541615902955
-7828.10231256485,-6788.0,2760.0,-16796.0,-5346.0,-1469.0,4713.0,0.6569773153940532,0.05257267828669494,-0.7250242867227493,0.19989173123857598
-7828.117936849594,-5976.0,3020.0,-16048.0,-5263.0,-920.0,5344.0,0.4419868066375725,-0.4768898128033161,-0.7465438288426314,0.14105346794646034
-7828.133565425873,-2352.0,5520.0,-15924.0,-5606.0,980.0,3438.0,0.19886212303565726,-0.803693300356331,-0.5490005035827171,-0.11458351561207485
-7828.149170875549,-2452.0,3960.0,-17696.0,-5050.0,1789.0,1654.0,-0.047955109024066994,-0.8557511789612574,-0.3157075656296661,-0.40708593715467245
-7828.164766550064,-2324.0,2396.0,-15968.0,-5108.0,383.0,3382.0,-0.2633726337034201,-0.8057839365672163,0.102833633344685,-0.5203579030239625
-7828.180341005325,-3224.0,4820.0,-15796.0,-3584.0,-495.0,8257.0,-0.10686258431740989,-0.5281459808177204,0.6740247627352016,-0.5053046904975727
-7828.195985078812,956.0,2912.0,-17908.0,-3783.0,-1784.0,10558.0,0.20547942546748546,0.03506789306381671,0.9547398252150022,-0.21217991124054114
-7828.2115659713745,-1560.0,3040.0,-19932.0,-1451.0,-1971.0,14365.0,0.3955859638000274,0.7228664321395256,0.5577877873900715,0.09924036864484244
-7828.227169513702,-920.0,3596.0,-20708.0,929.0,-1442.0,15342.0,0.16332985206133815,0.9025813212208287,-0.26918605570117077,0.2936140075420973
-7828.242806196213,188.0,2180.0,-19572.0,3466.0,-2380.0,18056.0,-0.33035505385805974,0.3096427695358172,-0.860427002923041,0.23377824172813938
-7828.258440494537,-7044.0,8808.0,-16672.0,1884.0,-3380.0,13190.0,-0.578871442160595,-0.42657943900828843,-0.6921767209238661,-0.06188071329074075
-7828.274032354355,-6568.0,7748.0,-13752.0,1805.0,-2253.0,7937.0,-0.48676504914342045,-0.8125723186096628,-0.23573358039533987,-0.21729172334839184
-7828.289631605148,-5824.0,7588.0,-12688.0,2976.0,-2132.0,4345.0,-0.21241075377521848,-0.9576361341730573,0.09527746030533057,-0.16951965008367634
-7828.305232048035,-6556.0,8700.0,-12332.0,2918.0,-1905.0,416.0,0.05107402574493325,-0.9910317758954426,0.11676714927219636,-0.04016087537113814
-7828.320850372314,-6836.0,7924.0,-12412.0,2815.0,-1624.0,-3707.0,0.2736937007246241,-0.938776565917664,-0.20300403336813147,0.05079054935485751
-7828.336460828781,-6180.0,5956.0,-12176.0,2555.0,-2121.0,-5614.0,0.4085515206500671,-0.6682740100352345,-0.6103790012752816,0.11803803322715532
-7828.352097272873,-5692.0,4572.0,-11864.0,3097.0,-2542.0,-6173.0,0.4351045335433397,-0.17071150892957182,-0.8660099506408995,0.1776749588433
-7828.367697477341,-4824.0,3864.0,-12020.0,3996.0,-2693.0,-6808.0,0.3205014268372514,0.4344409395208147,-0.8148312078841357,0.21116346303666783
-7828.383332014084,-4136.0,2784.0,-12656.0,4726.0,-2667.0,-6744.0,0.06042096490818814,0.8740337494148863,-0.4362043854904865,0.20528040813040643
-7828.398918867111,-4160.0,1956.0,-14320.0,5826.0,-3117.0,-5749.0,-0.3175535856446182,0.9370829427028394,0.07170496586755214,0.12607012576168183
-7828.414515018463,-3412.0,2348.0,-15428.0,6903.0,-3459.0,-4162.0,-0.6467224049956039,0.6018493847150793,0.4636704989835067,-0.06735812769939734
-7828.430148124695,-3528.0,2784.0,-15512.0,7810.0,-3615.0,-2972.0,-0.7265291251964378,0.015415125179166211,0.6091740011927628,-0.3175292749146279
-7828.445763349533,-3688.0,2952.0,-15692.0,8798.0,-3594.0,-2563.0,-0.46888218832027106,-0.5903873805389526,0.45279851863171167,-0.47598921826158547
-7828.461393117905,-3836.0,3616.0,-15472.0,9087.0,-3629.0,-3139.0,0.009274094406053491,-0.9210069001325494,0.0462722933708512,-0.3866770693322554
-7828.476984977722,-3400.0,4220.0,-15432.0,9469.0,-3371.0,-3950.0,0.47345567503745556,-0.7591153829068332,-0.43191665749668123,-0.11415585918354837
-7828.492582798004,-3924.0,4000.0,-15472.0,9158.0,-3070.0,-5390.0,0.655113888542916,-0.14981800361169775,-0.7246767696152888,0.15239402354401863
-7828.508177518845,-4056.0,3528.0,-15904.0,9570.0,-2143.0,-6862.0,0.5087900363960991,0.5945938408268229,-0.5600265061181722,0.2719580404399473
-7828.5238127708435,-4484.0,3264.0,-16404.0,10398.0,-1943.0,-7247.0,0.030692350947002924,0.9706278179801439,-0.015679985578994655,0.23810450774542877
-7828.539443731308,-4300.0,4572.0,-16264.0,10699.0,-2235.0,-6870.0,-0.4884529184570599,0.7004411482142752,0.5195331383302583,0.02968606602029825
-7828.555072069168,-4512.0,4836.0,-15680.0,10776.0,-2263.0,-5794.0,-0.697326299691443,-0.010632533541744227,0.6762442490881059,-0.23731139156051337
-7828.570697546005,-4740.0,3328.0,-16064.0,10734.0,-2292.0,-5669.0,-0.4551544725973866,-0.7113093003220559,0.40011258160865537,-0.35606657718522133
-7828.586280584335,-4156.0,3112.0,-16984.0,11118.0,-2103.0,-4707.0,0.11086854496620972,-0.9443478606875938,-0.10516202304558875,-0.29130093144512875
-7828.6018788814545,-4444.0,4480.0,-16968.0,11039.0,-2381.0,-3940.0,0.6215783868545535,-0.5963203375854378,-0.5075074680269156,-0.02187541712035859
-7828.617439746857,-4280.0,5568.0,-15856.0,11005.0,-2328.0,-2836.0,0.7629103338735818,0.08556352630744378,-0.563997675989999,0.30422578278741524
-7828.633041858673,-4120.0,5768.0,-15520.0,10233.0,-1988.0,-3359.0,0.48987355462699267,0.7121425166378206,-0.28899139786063105,0.4115348204422377
-7828.648720741272,-4028.0,5648.0,-14776.0,9186.0,-1744.0,-3716.0,0.006265020136212788,0.9477776976299924,0.1482607482887444,0.2823064574442903
-7828.6642973423,-3600.0,4484.0,-14776.0,8152.0,-910.0,-3463.0,-0.4507336067656035,0.734286716218292,0.5015016131350452,0.07847525814150057
-7828.679923057556,-2904.0,4176.0,-15412.0,7534.0,-727.0,-2614.0,-0.724284548294489,0.2693605049410402,0.6142359800932718,-0.1599092625166342
-7828.695524215698,-2388.0,4832.0,-15432.0,6706.0,-412.0,-1981.0,-0.7570902317884195,-0.227337659444204,0.5063880678217412,-0.34453315413288227
-7828.711110591888,-2164.0,3784.0,-15116.0,6377.0,128.0,-1206.0,-0.5849908206256579,-0.607571255011884,0.2457652939219977,-0.477747140410529
-7828.726680278778,-1840.0,3216.0,-15600.0,5976.0,224.0,106.0,-0.2379150968702607,-0.7989428401208063,-0.008121967882114209,-0.5522868625439468
-7828.742293596268,-2160.0,3628.0,-15144.0,5647.0,31.0,2310.0,0.23584570605786323,-0.8089705760133453,-0.10585912550429609,-0.5279557326387981
-7828.757881641388,-2292.0,4664.0,-14324.0,4950.0,165.0,3542.0,0.6622411198918032,-0.6467652896513024,-0.07112447728305947,-0.37158130733115285
-7828.773504018784,-2696.0,3880.0,-14528.0,4328.0,374.0,3634.0,0.9203298623678567,-0.36513482655932394,0.013660678965934253,-0.1395811187720031
-7828.789082527161,-3004.0,2440.0,-15776.0,3969.0,703.0,4351.0,0.97594126715019,-0.029200332001855813,0.14256932743712664,0.16235753927178195
-7828.804721593857,-2820.0,3036.0,-16032.0,3241.0,619.0,5577.0,0.7811525887131449,0.2676545202007499,0.2225965266083946,0.5182783781952872
-7828.820303440094,-2596.0,4264.0,-15288.0,2663.0,659.0,5953.0,0.3791837573302392,0.4645567306636636,0.21625662210181895,0.7704802369750451
-7828.835879087448,-2996.0,4048.0,-15116.0,2162.0,1181.0,5708.0,-0.10069117266445048,0.49628610535121,0.1489855581139046,0.8493319097127306
-7828.85146689415,-2484.0,4800.0,-14440.0,1483.0,1244.0,6788.0,-0.5825358729890578,0.4082976235321625,-0.03903242726829587,0.7017274947730138
-7828.867078065872,-2844.0,5824.0,-14016.0,716.0,1372.0,7572.0,-0.8846569736382427,0.21745734551126233,-0.2775136338497016,0.3050910108540645
-7828.88267326355,-3108.0,9176.0,-13244.0,-919.0,1674.0,7284.0,-0.8528098869350249,0.05623980406434319,-0.47606570192214903,-0.20715653172914003
-7828.898268699646,-2124.0,12400.0,-12156.0,-3290.0,2113.0,7271.0,-0.5008191153220812,0.030048336742486997,-0.4946950973507928,-0.7096154394065195
-7828.913892507553,-2384.0,11492.0,-12928.0,-6182.0,1803.0,7458.0,0.041800237590769784,0.06812938184959103,-0.15963687279888958,-0.9839345487933325
-7828.929555892944,-4768.0,556.0,-17020.0,-6072.0,3107.0,6801.0,0.5397846455798839,0.16709194452970821,0.2544786260943542,-0.7848270174571017
-7828.945254802704,-8660.0,-5232.0,-19700.0,-3710.0,1347.0,8637.0,0.8896212770738424,0.21291935323199482,0.3436635222861849,-0.21244932536166763
-7828.960893154144,-13380.0,-6496.0,-18956.0,-1144.0,-60.0,9190.0,0.842312006078446,0.3100525910046785,0.1476001383604814,0.4154420228905065
-7828.976514816284,-12480.0,2212.0,-15472.0,-692.0,911.0,7302.0,0.4912619483697061,0.2691907192840398,-0.006554466226271427,0.828344791561962
-7828.992114543915,-6268.0,10540.0,-13220.0,-2949.0,2146.0,2569.0,0.35051440705144415,-0.01274970399432011,-0.17502666628041652,0.9199688916415575
-7829.007727622986,-5052.0,8700.0,-15668.0,-3623.0,3691.0,-2915.0,0.565517306181287,-0.33345220843834095,-0.31612386509482104,0.6848835689477193
-7829.023304700851,-4488.0,3840.0,-18468.0,-3636.0,3701.0,-6231.0,0.7624810923305082,-0.45912387985191155,-0.43444019367225256,0.13816499162312512
-7829.038897037506,-4792.0,-684.0,-17800.0,-3342.0,2646.0,-3893.0,0.6926786594863739,-0.5055004348168367,-0.40613789419006097,-0.31578093038531
-7829.05450463295,-2248.0,-3336.0,-16032.0,-2412.0,2260.0,853.0,0.6610189763081328,-0.5937083165672802,-0.15864246826174483,-0.4305774205218101
-7829.07014298439,-336.0,-1064.0,-14956.0,-946.0,1739.0,4583.0,0.740875322240971,-0.5928276394848312,0.19675404999978674,-0.24687444291757268
-7829.085784912109,-1396.0,3672.0,-15716.0,-297.0,1447.0,3430.0,0.7362500181908891,-0.49647082829571054,0.45092410678958145,-0.090111471419042
-7829.101389169693,-3596.0,5180.0,-15788.0,-871.0,1532.0,109.0,0.6314079852979152,-0.5299294037900757,0.554578528040781,-0.11376044715472766
-7829.116970062256,-4624.0,2160.0,-16112.0,-771.0,1356.0,-398.0,0.5208209912038124,-0.572661757720039,0.6126963890298416,-0.15939617698133993
-7829.132570266724,-5136.0,932.0,-15896.0,-180.0,1122.0,727.0,0.4585491133197749,-0.5228148525732099,0.6978559883171114,-0.17144783513491366
-7829.148193836212,-5260.0,1160.0,-15540.0,-16.0,1173.0,830.0,0.3954863412459142,-0.45185151552560376,0.7769576092044581,-0.18909689395764268
-7829.163850307465,-5068.0,1824.0,-15332.0,24.0,1462.0,760.0,0.3064982577240879,-0.37155087522828856,0.8483879068561196,-0.21965137065241264
-7829.179468154907,-3656.0,3088.0,-15976.0,-93.0,1542.0,-1202.0,0.16373830031601444,-0.42728761529779546,0.840388001567268,-0.2904532142093103
-7829.1951060295105,-3568.0,2168.0,-15900.0,-132.0,1547.0,-1721.0,0.0016353970007455655,-0.5059585270683171,0.7858644832460292,-0.3555563363743646
-7829.210695981979,-3300.0,1376.0,-15840.0,100.0,1481.0,-1111.0,-0.1282855780162012,-0.5293628855174717,0.724618360918134,-0.42219187217423076
-7829.22628903389,-3012.0,924.0,-16000.0,247.0,1243.0,-560.0,-0.21445428764866648,-0.5180624156605305,0.6709864134507724,-0.4851782403957827
-7829.241895437241,-3288.0,564.0,-15972.0,235.0,954.0,227.0,-0.2489992343694531,-0.4670752370106071,0.6510872147420378,-0.5439903887518298
-7829.257530212402,-3628.0,1428.0,-15656.0,142.0,935.0,-222.0,-0.3056765871444838,-0.4369345741769983,0.6129524630984973,-0.5830431201394553
-7829.273149251938,-3932.0,1884.0,-15476.0,-37.0,1096.0,-724.0,-0.3998377770520726,-0.416309519579846,0.5545367069596042,-0.599420700830104
-7829.288752555847,-4576.0,1096.0,-15704.0,-115.0,1083.0,-855.0,-0.4974291659760216,-0.3942909385129048,0.4883395872994187,-0.5988516745566014
-7829.3043620586395,-4344.0,1012.0,-15760.0,-159.0,1027.0,-596.0,-0.574580463869887,-0.3573298331615628,0.4294131769975875,-0.5981446349275684
-7829.320001602173,-4088.0,1352.0,-15988.0,-81.0,954.0,-285.0,-0.6252687314168915,-0.31314683993464826,0.37568677338047585,-0.6081426793592289
-7829.335593700409,-3760.0,968.0,-15876.0,-324.0,517.0,-495.0,-0.6756653108027312,-0.28378201645565276,0.3505247155092218,-0.5831608515078764
-7829.351191282272,-3512.0,704.0,-15920.0,-271.0,745.0,1.0,-0.7033469775173007,-0.22950080602232245,0.31986289866914025,-0.5918784801860576
-7829.366792201996,-3320.0,1080.0,-15712.0,-324.0,550.0,476.0,-0.6988397363785221,-0.16770281559758823,0.3118457319991888,-0.6214909717227831
-7829.3823964595795,-3252.0,1028.0,-16108.0,-312.0,759.0,675.0,-0.6844457613945812,-0.08890298596579797,0.29136820713725,-0.6623706112630464
-7829.398003578186,-3448.0,1468.0,-15712.0,-168.0,472.0,878.0,-0.6444270000325286,-0.029214630746622682,0.27890165691133795,-0.7113889321261078
-7829.413614749908,-3276.0,1960.0,-15772.0,-271.0,757.0,763.0,-0.6132465747019199,0.051370164956199525,0.2542065643886983,-0.7461023839865611
-7829.429204940796,-3784.0,1464.0,-15796.0,-288.0,422.0,241.0,-0.6048096833499725,0.09967780581143916,0.24923046715134323,-0.7497691352664808
-7829.444808483124,-3528.0,1408.0,-15724.0,-11.0,403.0,187.0,-0.6007115392790314,0.13082785764000368,0.22709082453538054,-0.7552876774144964
-7829.460374593735,-3840.0,1428.0,-15956.0,-325.0,416.0,27.0,-0.6027379896139216,0.17590318894659754,0.22631333689275093,-0.7446792984493755
-7829.476016044617,-3408.0,1460.0,-15816.0,-243.0,500.0,-51.0,-0.6113813629747079,0.22018669715552763,0.2164745855439951,-0.7286078514650278
-7829.491619110107,-3184.0,2060.0,-15796.0,-431.0,376.0,-451.0,-0.6374952055997254,0.2583362618971657,0.23212664751181486,-0.6877350202958175
-7829.507241487503,-3368.0,1680.0,-15756.0,-383.0,393.0,-517.0,-0.6663012695573219,0.29240987632491405,0.24448499916848074,-0.6409104208823083
-7829.522844076157,-3452.0,1088.0,-15996.0,-332.0,363.0,-1024.0,-0.7192048106669232,0.30893665517578567,0.26687989720738364,-0.5622078831437078
-7829.538468122482,-3528.0,1500.0,-15788.0,-156.0,275.0,-380.0,-0.7392326981152331,0.3233438201808114,0.26738532584303865,-0.5267721324367529
-7829.554048538208,-3032.0,1636.0,-15712.0,-325.0,359.0,-684.0,-0.7676995796241608,0.34420191089392554,0.2778463438407454,-0.46364189758496527
-7829.569635152817,-3460.0,1516.0,-15648.0,-344.0,364.0,-859.0,-0.7978083542572515,0.3600634257105959,0.29219590375719384,-0.3853280591527208
-7829.585218429565,-3404.0,1352.0,-15732.0,-482.0,301.0,-969.0,-0.8188440580755098,0.37748532944348784,0.3164974814422616,-0.29466689473043656
-7829.600805282593,-3388.0,1440.0,-15812.0,-523.0,211.0,-818.0,-0.8252164170050015,0.3964508801615816,0.3406662913787837,-0.21398841707615987
-7829.616380929947,-3388.0,1344.0,-15848.0,-544.0,246.0,-686.0,-0.8237533173688592,0.41874650243859723,0.3558596236687013,-0.1394480801646682
-7829.63201546669,-3284.0,1376.0,-15768.0,-593.0,219.0,-817.0,-0.8153353480619578,0.4371235391030577,0.37580253558831866,-0.054071582259948285
-7829.647634267807,-3548.0,1580.0,-15636.0,-511.0,249.0,-637.0,-0.8045950144403003,0.45273000891627924,0.38387212251099884,0.017452659493022764
-7829.6632759571075,-3712.0,1556.0,-15844.0,-536.0,273.0,-718.0,-0.7886479851928772,0.4645606477656124,0.39108911466338425,0.09626559297392051
-7829.678862094879,-3388.0,1712.0,-15660.0,-390.0,228.0,-765.0,-0.7716836730686992,0.4621945031140547,0.40207655500864403,0.17092394192369262
-7829.694431781769,-3540.0,1848.0,-15820.0,-403.0,331.0,-716.0,-0.7539258946473977,0.4581026493321573,0.4016127158377092,0.24585551556237095
-7829.710017442703,-3532.0,2016.0,-15816.0,-440.0,20.0,-784.0,-0.7178190540809555,0.45792367454530253,0.42106766185275896,0.3126399495123756
-7829.7256116867065,-2888.0,1400.0,-15760.0,-405.0,198.0,-1257.0,-0.6698943611921931,0.4289815693678019,0.4450084263724769,0.4113196548222963
-7829.7412350177765,-3300.0,1076.0,-15940.0,-296.0,160.0,-582.0,-0.6428591247209842,0.4173936038176334,0.4462368382605152,0.46193875073905327
-7829.756865978241,-3348.0,1220.0,-16120.0,-511.0,-13.0,-133.0,-0.6175546590626092,0.4411012579353407,0.43094560097769796,0.48820263448274753
-7829.772475004196,-3464.0,1240.0,-15744.0,-224.0,-13.0,88.0,-0.611895179951079,0.45710592393307425,0.4188065418834307,0.4911614230918072
-7829.788097143173,-3652.0,1464.0,-15736.0,-199.0,4.0,41.0,-0.6056036217795169,0.46915906754126735,0.4085417935298441,0.49621328637064815
-7829.803729772568,-3532.0,1696.0,-15764.0,-245.0,57.0,-25.0,-0.596214927725983,0.47880711548742577,0.3960234830841643,0.5083669019135673
-7829.819328784943,-3492.0,1612.0,-15784.0,-237.0,116.0,-124.0,-0.5844720812577938,0.48173283834522623,0.38470195118252365,0.5275701540519461
-7829.834932565689,-3600.0,1304.0,-15840.0,-284.0,116.0,-47.0,-0.5739013352204818,0.4893098295606748,0.36771606639467447,0.5440570214992899
-7829.850566864014,-3560.0,1392.0,-15844.0,-204.0,26.0,246.0,-0.5773303936239287,0.5061822909856959,0.3462486018472217,0.5390556655943394
-7829.866174936295,-3508.0,1520.0,-15696.0,-172.0,14.0,267.0,-0.5823429621737578,0.522257143867382,0.32568276897652026,0.5310883957289642
-7829.881799936295,-3404.0,1656.0,-15548.0,-184.0,167.0,44.0,-0.5804528986913337,0.5251991829647683,0.30673039452175105,0.5414394847907744
-7829.897381305695,-3428.0,1552.0,-15776.0,-219.0,287.0,-198.0,-0.5682318309804661,0.5173137707463861,0.29086732127485193,0.5699958335559432
-7829.912989139557,-3476.0,1532.0,-15896.0,-10.0,379.0,-140.0,-0.5699498053403116,0.49531704268769705,0.27785916043623965,0.5938118671577078
-7829.928722381592,-3480.0,1848.0,-15756.0,-93.0,482.0,-103.0,-0.5716064329312268,0.47223755148309066,0.25341956516995995,0.6213181993068952
-7829.944340705872,-3380.0,1836.0,-15700.0,-20.0,496.0,-314.0,-0.5638681516415652,0.43904975708817484,0.24036373643101994,0.6568967137793112
-7829.959980726242,-3480.0,1508.0,-15628.0,34.0,76.0,-187.0,-0.555846080521935,0.4292603840559122,0.2458464306990824,0.6680794787756128
-7829.97566151619,-3580.0,1340.0,-15756.0,-4.0,-24.0,-45.0,-0.5524443876002348,0.43011360182401254,0.24861142900681568,0.6693279058146053
-7829.991374254227,-3568.0,1088.0,-15900.0,10.0,-252.0,387.0,-0.5693872892371453,0.452610907652807,0.24676373290533957,0.6403507954640956
-7830.007006645203,-3788.0,1396.0,-16072.0,101.0,243.0,652.0,-0.6137856287385672,0.44744669787104907,0.21431527605741352,0.6141071705872929
-7830.022655487061,-3724.0,1776.0,-15696.0,45.0,-14.0,518.0,-0.6422689184853223,0.4552473704625082,0.19717242129738694,0.5842632149249105
-7830.038246393204,-3652.0,1588.0,-15620.0,43.0,117.0,230.0,-0.6574349108188416,0.45096373558651787,0.183728351469294,0.5750260342704931
-7830.05387544632,-3360.0,1644.0,-15696.0,-242.0,127.0,220.0,-0.6605623624820357,0.4620428876263629,0.15566832406302952,0.5709125223267149
-7830.06952548027,-3052.0,1540.0,-15780.0,-119.0,147.0,179.0,-0.6663930053581725,0.4641572689704807,0.1340959332099981,0.567887905108136
-7830.085165500641,-3064.0,1676.0,-15768.0,-131.0,226.0,246.0,-0.6754797662770426,0.46349795324094467,0.10451392759612453,0.5638914537658811
-7830.100766420364,-3144.0,1388.0,-15624.0,-128.0,174.0,101.0,-0.6766048247242513,0.4635798616062872,0.08389537515483377,0.5659162385906507
-7830.116360902786,-3228.0,1448.0,-15920.0,-119.0,-46.0,308.0,-0.6862656518898648,0.4752111425120684,0.06827064548533547,0.54639998538943
-7830.132001399994,-3496.0,1716.0,-15652.0,-81.0,-80.0,485.0,-0.7047803646381207,0.48658263431310866,0.04904927164944683,0.5139223156821778
-7830.147643327713,-3480.0,1604.0,-15848.0,49.0,-38.0,751.0,-0.7386724113928477,0.4877109677100931,0.02163753037709412,0.4647933927042641
-7830.163290739059,-3828.0,1764.0,-15836.0,32.0,-107.0,632.0,-0.7641548446243202,0.490685474103937,0.0028899810876223076,0.41867264891546085
-7830.178893089294,-3424.0,1512.0,-15820.0,62.0,-30.0,571.0,-0.7865526365632111,0.4874524491124395,-0.017324643614846175,0.3787148221199748
-7830.19447684288,-3480.0,1780.0,-15744.0,54.0,-82.0,513.0,-0.8049676207239492,0.48544772156155963,-0.031768864523734855,0.3396444883456631
-7830.210073709488,-3148.0,1640.0,-15620.0,69.0,-4.0,467.0,-0.8209177645532761,0.47929029264693895,-0.049260362584788844,0.3065097973854651
-7830.225661039352,-3192.0,1744.0,-15772.0,-14.0,36.0,311.0,-0.8280541500735932,0.47808344049523693,-0.0652875451881692,0.28548219719176776
-7830.241248846054,-3320.0,1432.0,-15816.0,-246.0,-36.0,5.0,-0.8177892403857581,0.49687461074403994,-0.0691110927134366,0.28206388703837704
-7830.25687623024,-3532.0,1644.0,-15816.0,-41.0,-163.0,325.0,-0.8244349407370799,0.5018564029832987,-0.07264801722534996,0.25133532356144794
-7830.272451162338,-3472.0,1560.0,-15736.0,53.0,-52.0,225.0,-0.8317016158968683,0.4979107793084702,-0.07768864872928241,0.23307027228196253
-7830.288102388382,-3776.0,1844.0,-15576.0,92.0,-186.0,441.0,-0.845026460287144,0.49183654740722677,-0.08152335820221374,0.1933417547157169
-7830.303737640381,-3732.0,1728.0,-15744.0,110.0,-154.0,515.0,-0.8584071142326609,0.4823617847841637,-0.0904335277172999,0.14928533712054903
-7830.31932759285,-3624.0,1424.0,-15804.0,159.0,-154.0,611.0,-0.872729151446641,0.46714059607258834,-0.10250879590903385,0.098058342212444
-7830.334919929504,-3188.0,1768.0,-15716.0,95.0,-239.0,607.0,-0.8823298535691211,0.45602196159875114,-0.10819272040827697,0.04280578571848662
-7830.350517511368,-3400.0,1420.0,-15704.0,122.0,-130.0,420.0,-0.8891321053881297,0.44305136336480694,-0.11449349476164386,0.006389698421917018
-7830.366153478622,-2948.0,780.0,-15956.0,-12.0,-120.0,392.0,-0.8893684390281176,0.44011009904483456,-0.12040461217228145,-0.02880294684712111
-7830.38179731369,-3516.0,1080.0,-15820.0,-116.0,-75.0,609.0,-0.8827095352429201,0.44211798469862296,-0.1376293876460465,-0.08008567695555933
-7830.397383213043,-3880.0,1372.0,-15748.0,-63.0,-70.0,825.0,-0.8729102728485638,0.43566830221456,-0.1633646116180172,-0.1467405522404195
-7830.412966251373,-4036.0,1540.0,-15684.0,24.0,0.0,960.0,-0.8583633053368319,0.4189122413248054,-0.19965008814253396,-0.21878028344468098
-7830.428564548492,-4080.0,2224.0,-15584.0,27.0,-69.0,515.0,-0.8496904223767636,0.4063891655655345,-0.21380732761277677,-0.2591533501447136
-7830.444184541702,-3668.0,2396.0,-15516.0,243.0,125.0,255.0,-0.8496049833443653,0.3864385180141223,-0.2376980905657028,-0.26895401430893096
-7830.459813833237,-3120.0,2068.0,-15660.0,249.0,73.0,-752.0,-0.8718951884793305,0.3845673367410556,-0.2232733498572372,-0.20507499862736137
-7830.475434541702,-3112.0,1136.0,-16124.0,6.0,-24.0,-96.0,-0.874103946728034,0.385754455940414,-0.21852512457133025,-0.1984503967435536
-7830.491032838821,-3140.0,1060.0,-15732.0,497.0,25.0,123.0,-0.8872012207304224,0.34580645075843847,-0.2331470533781797,-0.1973178756458027
-7830.506666660309,-3104.0,2040.0,-15824.0,380.0,-30.0,19.0,-0.8983219921803393,0.31550243968854935,-0.23804030438818083,-0.19186615752263797
-7830.522266387939,-3288.0,1648.0,-15784.0,316.0,-17.0,-358.0,-0.9124527800213525,0.29781066582851506,-0.2321811567883133,-0.15757741583908078
-7830.537856578827,-3348.0,1536.0,-15680.0,108.0,64.0,-554.0,-0.9203298926487794,0.3011274886641023,-0.2243356165736004,-0.10949271849981318
-7830.553515911102,-3752.0,1368.0,-15676.0,162.0,107.0,-544.0,-0.9263952654350526,0.2995905316454092,-0.22014848037582305,-0.059765977915160445
-7830.569140672684,-4088.0,868.0,-15764.0,170.0,73.0,-106.0,-0.9297118547593417,0.2883988405826898,-0.2243704497566244,-0.04604212360996275
-7830.584741830826,-3776.0,1344.0,-15636.0,174.0,43.0,171.0,-0.9322286669066655,0.27121668739236865,-0.2330603591054453,-0.05544447755162285
-7830.6003131866455,-3768.0,1324.0,-15744.0,78.0,37.0,226.0,-0.9319059224391605,0.2605593229122451,-0.24200238281827421,-0.07137953261690078
-7830.615933179855,-3652.0,1064.0,-15840.0,75.0,146.0,188.0,-0.9290187723439761,0.25150121497426764,-0.25881549019851974,-0.08176675077474227
-7830.631510734558,-3536.0,1328.0,-15484.0,-173.0,134.0,201.0,-0.9203292550353255,0.2620003798143935,-0.2730307434709813,-0.0990155362704244
-7830.647127628326,-3532.0,1028.0,-15812.0,-84.0,120.0,309.0,-0.9123453937343214,0.2624574088716834,-0.28913811834200204,-0.12304933799811532
-7830.662714958191,-3400.0,1188.0,-15668.0,-126.0,90.0,451.0,-0.9014331019209277,0.2619958684422204,-0.305276889380196,-0.15994545473620858
-7830.678288936615,-3232.0,1348.0,-15804.0,-180.0,36.0,621.0,-0.886140629659663,0.2598417995176545,-0.31954647861797136,-0.2124313340650515
-7830.693871498108,-3440.0,1256.0,-15732.0,-106.0,38.0,742.0,-0.8669266551780744,0.2476613966038046,-0.33688406408662314,-0.27131371977563035
-7830.709449052811,-3584.0,1528.0,-15832.0,-90.0,-111.0,781.0,-0.8475861620561703,0.22846347466412792,-0.34268037408214974,-0.33462262304602586
-7830.725057601929,-3476.0,1660.0,-15820.0,-103.0,-2.0,710.0,-0.8231153461091479,0.2144927619263839,-0.35325843735461976,-0.3894643225233621
-7830.74071764946,-3672.0,1552.0,-15796.0,36.0,-67.0,766.0,-0.7978953730794087,0.1857170934076376,-0.3634590863508765,-0.44358722635314485
-7830.75633597374,-3568.0,1616.0,-15712.0,-25.0,-14.0,494.0,-0.7779650390418296,0.17119498347205217,-0.36945461377612354,-0.4785038808851855
-7830.7719349861145,-3620.0,1236.0,-15776.0,-91.0,-243.0,168.0,-0.7770313855505487,0.16186154817593076,-0.35181825829175545,-0.49623278632516915
-7830.787546157837,-3496.0,1252.0,-15708.0,-97.0,24.0,143.0,-0.7685333927405017,0.1651784686933712,-0.3515027584472845,-0.5084469574368962
-7830.803136348724,-3408.0,1476.0,-15804.0,-83.0,18.0,314.0,-0.7524401077728866,0.1619549436361299,-0.35368990761850433,-0.5315147502142896
-7830.81877040863,-3304.0,1736.0,-15656.0,-213.0,84.0,34.0,-0.7449989923317176,0.17885282406303135,-0.3500161968175481,-0.5389590250796278
-7830.834362268448,-3652.0,1448.0,-15756.0,-51.0,98.0,-256.0,-0.7529173899565322,0.19465721936878014,-0.35016235150457786,-0.522120961499768
-7830.8500027656555,-3576.0,1520.0,-15732.0,-81.0,178.0,-72.0,-0.7491431404772678,0.21037576363321678,-0.35715391209345737,-0.5166891485486571
-7830.8656170368195,-3372.0,1696.0,-15768.0,18.0,86.0,42.0,-0.7447526709165769,0.2118828388828788,-0.36461321002104263,-0.5172101399119198
-7830.881202697754,-3488.0,1492.0,-16072.0,22.0,5.0,165.0,-0.7373566126152667,0.20553375697165863,-0.3692086487108981,-0.5270161992716421
-7830.896787405014,-3664.0,1132.0,-15708.0,-67.0,-35.0,172.0,-0.7291601116192008,0.20279679372530232,-0.36717487352899153,-0.5407232234028616
-7830.912394762039,-3668.0,1484.0,-15852.0,-31.0,-136.0,276.0,-0.7195722545400103,0.18956542795374787,-0.3620791554416711,-0.5614084112440472
-7830.9281141757965,-3380.0,1712.0,-15788.0,-97.0,-123.0,77.0,-0.71789073492552,0.1872938000528059,-0.3511105140560777,-0.5712051576177802
-7830.943763017654,-3412.0,1508.0,-15528.0,-115.0,-19.0,-102.0,-0.7215065853213923,0.1967817306325746,-0.3427613827124402,-0.5685242583638531
-7830.959365129471,-3344.0,1524.0,-15684.0,-109.0,76.0,-58.0,-0.7200739741101196,0.2092616076345273,-0.3413842002672436,-0.5667096956885124
-7830.974971532822,-3448.0,1484.0,-15824.0,-207.0,119.0,-348.0,-0.7293545190925607,0.23849370407821843,-0.3323093902668657,-0.5483914730689881
-7830.990661382675,-3420.0,1688.0,-15624.0,-327.0,176.0,-287.0,-0.7304499648587693,0.27596204281785225,-0.3218782884808402,-0.5354270885622667
-7831.006282567978,-3340.0,1536.0,-15636.0,-310.0,241.0,-551.0,-0.7405454747668546,0.3220576731361104,-0.3091934406591918,-0.50226553856483
-7831.0218958854675,-3572.0,1640.0,-15852.0,-179.0,280.0,-874.0,-0.7635930211993178,0.3684274078039427,-0.2941336162436857,-0.4412169069176497
-7831.037523269653,-3516.0,1792.0,-15860.0,-148.0,151.0,-975.0,-0.789365935423375,0.40777095615153675,-0.26636405833151994,-0.37373045867523874
-7831.053178310394,-3536.0,1408.0,-15924.0,-136.0,192.0,-920.0,-0.8071443519639845,0.44346709062099315,-0.24179008283910147,-0.30560184958447467
-7831.0687799453735,-3484.0,804.0,-15756.0,-133.0,128.0,-678.0,-0.815680635768444,0.4698883148273266,-0.22078677688949602,-0.255192615825517
-7831.084373950958,-3388.0,840.0,-15688.0,-128.0,193.0,-230.0,-0.8113322589111532,0.4877527785837913,-0.2223205589970682,-0.2332611448165932
-7831.099988698959,-3524.0,1292.0,-15832.0,-158.0,75.0,-111.0,-0.8051005185252147,0.5027550024165064,-0.21982352597160268,-0.22522917227797412
-7831.115590333939,-3620.0,1556.0,-15716.0,-178.0,139.0,-71.0,-0.795664897885524,0.5194582686513975,-0.2230962434901796,-0.21750527244892695
-7831.131180524826,-3820.0,1332.0,-15612.0,-191.0,82.0,-57.0,-0.7861629982774729,0.5355043402007625,-0.22270549811084164,-0.2135066811055842
-7831.146807670593,-3564.0,1248.0,-15636.0,-196.0,221.0,59.0,-0.7711454366297043,0.5519438801409072,-0.23704574850133564,-0.21095492849806577
-7831.162460565567,-3616.0,1220.0,-15772.0,-150.0,139.0,229.0,-0.756355066536907,0.5598671719364885,-0.2547306659757558,-0.2226837464282865
-7831.178063392639,-3368.0,1648.0,-15620.0,-221.0,230.0,325.0,-0.7333399225727645,0.5714472902538393,-0.2814292817110702,-0.23760915768990715
-7831.193670272827,-3680.0,1492.0,-15812.0,-361.0,201.0,151.0,-0.7065326924505582,0.5947597863538376,-0.2942773792888068,-0.2459129420624588
-7831.209344863892,-3672.0,1132.0,-15692.0,-337.0,294.0,422.0,-0.6712441429578465,0.6103152280441473,-0.32675219138492684,-0.26491437935180984
-7831.224940299988,-3572.0,1276.0,-15756.0,-302.0,187.0,259.0,-0.6431362910287056,0.6246585361247636,-0.3444132162555451,-0.2784905041052902
-7831.240549564362,-3696.0,1632.0,-15804.0,-327.0,5.0,500.0,-0.6119430928760126,0.6274193442720153,-0.3636578098066322,-0.31563208785112007
-7831.256179094315,-3332.0,1664.0,-15768.0,-362.0,234.0,302.0,-0.5755358716687495,0.6430946560845044,-0.38245997165373097,-0.33001832346200516
-7831.27182841301,-3356.0,1668.0,-15700.0,-371.0,297.0,231.0,-0.5373395825872935,0.6620199292890646,-0.39937180743860956,-0.3368945615949202
-7831.287440538406,-3316.0,1588.0,-15836.0,-318.0,208.0,76.0,-0.5089530772932293,0.6801562441546561,-0.4040710277287766,-0.3392356897518216
-7831.303063631058,-3388.0,1476.0,-15756.0,-221.0,148.0,12.0,-0.48988811517172404,0.6938876372889672,-0.40483500206411793,-0.3385826376747279
-7831.318680763245,-3436.0,1748.0,-16052.0,-60.0,10.0,376.0,-0.4742865295100586,0.6832307411090264,-0.426150787116417,-0.35587012935756884
-7831.33428311348,-3284.0,1816.0,-15872.0,-51.0,-77.0,302.0,-0.46431647797668546,0.6716062025904147,-0.4393518170869373,-0.37460018385448707
-7831.349889755249,-3376.0,1688.0,-15768.0,-45.0,3.0,254.0,-0.4529150093187788,0.6637611795509373,-0.4529073682457712,-0.3862175638724994
-7831.365518569946,-3492.0,1316.0,-15744.0,-43.0,84.0,-65.0,-0.4490489828323049,0.6709669694194811,-0.4511219575858052,-0.38032527703172797
-7831.381154060364,-3628.0,1560.0,-15828.0,-12.0,103.0,90.0,-0.44104409904208813,0.6714003463679293,-0.46012769437754336,-0.37813249326655796
-7831.396753549576,-3516.0,1820.0,-15752.0,48.0,87.0,237.0,-0.4322023307761463,0.6628724953805035,-0.47895791804390125,-0.3800006748451144
-7831.412338256836,-3536.0,1816.0,-15692.0,75.0,24.0,-64.0,-0.43741367807002757,0.6636181065558263,-0.4787652005584841,-0.37291308051971706
-7831.427972078323,-3400.0,1488.0,-15672.0,205.0,101.0,96.0,-0.44160915778015264,0.6550473136958088,-0.4948667552235667,-0.3619409664007482
-7831.443547010422,-3724.0,1540.0,-15752.0,363.0,14.0,0.0,-0.4612908511360359,0.6413073924542587,-0.5067535153479711,-0.3451614893411263
-7831.459239959717,-3180.0,1700.0,-15856.0,232.0,-69.0,112.0,-0.4735868326138865,0.6248959372857543,-0.5172337453179171,-0.3430595170563048
-7831.4748339653015,-3532.0,1212.0,-16044.0,199.0,-76.0,210.0,-0.4811855703681547,0.6048421171075012,-0.5314629898193349,-0.34666056985859045
-7831.490451335907,-3628.0,1268.0,-15756.0,134.0,-93.0,134.0,-0.4882040059314075,0.5902145018285131,-0.538740884200177,-0.35080186731979907
-7831.506031513214,-3836.0,1236.0,-15828.0,93.0,-150.0,339.0,-0.4891684541066227,0.5655358763920314,-0.5525018611108434,-0.36827311806523205
-7831.521617650986,-3744.0,1512.0,-15764.0,130.0,-173.0,438.0,-0.4891818371165762,0.5329492724128276,-0.5705513486106019,-0.38876388961490865
-7831.53721165657,-3260.0,1468.0,-15768.0,55.0,-52.0,273.0,-0.48470379581387063,0.5152089354528718,-0.5828795121700693,-0.399841790519108
-7831.55285525322,-3444.0,1616.0,-15636.0,135.0,-62.0,111.0,-0.4897781464559829,0.5017410906217615,-0.5900489200518304,-0.4002693058198391
-7831.5684466362,-3504.0,1828.0,-15852.0,247.0,26.0,489.0,-0.4814088285616852,0.4664920255954953,-0.6206570611402463,-0.4067130958002587
-7831.584080457687,-3596.0,1508.0,-15900.0,224.0,-51.0,429.0,-0.47742850765147954,0.43175666020239,-0.6435205764623471,-0.4141611692591756
-7831.599694490433,-3564.0,1368.0,-15760.0,406.0,-56.0,512.0,-0.4763869776472772,0.38354289909362926,-0.6742228463999863,-0.4139732424629001
-7831.615323781967,-3376.0,2084.0,-15808.0,305.0,-78.0,179.0,-0.48427223706429734,0.3574208348953271,-0.6878315250000505,-0.4057321042357546
-7831.630917549133,-3332.0,1444.0,-15800.0,170.0,-23.0,-212.0,-0.49812002028271185,0.3621301431748378,-0.6862574314976005,-0.3870257646617833
-7831.646517276764,-3356.0,848.0,-16100.0,-81.0,10.0,-196.0,-0.5012940192684601,0.3777533651787469,-0.6778290153668379,-0.38282440787994176
-7831.662165641785,-3632.0,944.0,-15828.0,-107.0,-40.0,69.0,-0.4975916124520985,0.3770855307022501,-0.6749151214095022,-0.393317516321254
-7831.677793979645,-3428.0,1372.0,-15720.0,-68.0,-117.0,408.0,-0.48769575099563345,0.3518375478636091,-0.6806337763849325,-0.41845054285795036
-7831.693393230438,-3480.0,1820.0,-15440.0,-4.0,-22.0,55.0,-0.4866672037077412,0.34801605186861045,-0.6814212296610433,-0.4215506710281747
-7831.708984136581,-3384.0,1952.0,-15668.0,-176.0,75.0,-455.0,-0.49294480050746226,0.3850276605046508,-0.6638906721488534,-0.409888155150545
-7831.724611759186,-3604.0,1772.0,-15660.0,-189.0,52.0,-715.0,-0.5078925147048928,0.4356175231120319,-0.6342062810583061,-0.3873821887111894
-7831.7401876449585,-3472.0,788.0,-15384.0,-382.0,124.0,-553.0,-0.504101785707331,0.4865865626478399,-0.6048670246334946,-0.3784848599458944
-7831.755851984024,-3688.0,864.0,-15700.0,-384.0,174.0,-407.0,-0.49120089967790515,0.5301282116214701,-0.5819614182158693,-0.37283597346126973
-7831.771457672119,-3768.0,1508.0,-15696.0,-408.0,27.0,-389.0,-0.48280525161112314,0.567675110582341,-0.5513447039433453,-0.37505076359830514
-7831.787090301514,-3740.0,1772.0,-15800.0,-278.0,13.0,-220.0,-0.475155871369065,0.5902329863715577,-0.5317997813440466,-0.3782074989537377
-7831.802694320679,-3692.0,1484.0,-15776.0,-290.0,-76.0,-82.0,-0.46605894032483447,0.603458802848789,-0.514817006609292,-0.3919055844376896
-7831.818303346634,-3624.0,1216.0,-15644.0,-242.0,-44.0,-106.0,-0.4585759746291444,0.6165226442712956,-0.4991795879514289,-0.4005341977488332
-7831.833931684494,-3912.0,1448.0,-15936.0,-225.0,-89.0,123.0,-0.445708489868066,0.6170190674865961,-0.4943779207341121,-0.4197879034799788
-7831.849539279938,-3400.0,1684.0,-16092.0,-368.0,-79.0,-280.0,-0.4389817252086969,0.6401180973921256,-0.4625081077465766,-0.4285208473254976
-7831.865165233612,-3224.0,1408.0,-15816.0,-297.0,-177.0,7.0,-0.42887369964200545,0.644447761278823,-0.44494920598171883,-0.4503050486440606
-7831.880760669708,-2988.0,1344.0,-15720.0,-23.0,-41.0,44.0,-0.4272395208647447,0.6421311708590676,-0.44511339076900297,-0.4549813409147095
-7831.896349191666,-3216.0,1280.0,-15792.0,-477.0,-170.0,-129.0,-0.4116149726028412,0.6576463513624252,-0.41231632405494567,-0.47756637212713066
-7831.912009716034,-3740.0,1440.0,-15704.0,-328.0,-134.0,-30.0,-0.3984840881212336,0.6647611506023486,-0.39205598549258525,-0.4955755728478435
-7831.927681922913,-3924.0,1796.0,-15952.0,-186.0,-326.0,-85.0,-0.4021149432654102,0.6598318737866078,-0.3676728854412479,-0.517438034985076
-7831.94330739975,-3524.0,2272.0,-15648.0,-40.0,-290.0,249.0,-0.3974684732594689,0.6399611591351105,-0.36995829992063917,-0.543690522156735
-7831.9589467048645,-3612.0,1968.0,-15756.0,-37.0,-340.0,-391.0,-0.4243284120473186,0.6372597617820229,-0.33437255849827513,-0.5495820110467934
-7831.974636793137,-3724.0,1232.0,-15720.0,-163.0,-283.0,-747.0,-0.45802881449289834,0.6500678860441416,-0.27397525631766995,-0.5408871486308381
-7831.99026465416,-3660.0,640.0,-15728.0,-358.0,-104.0,-128.0,-0.4458192082664224,0.6623376294843477,-0.24562706604805348,-0.5497467076157712
-7832.005901098251,-3668.0,1208.0,-15644.0,-437.0,-183.0,254.0,-0.4116773351471375,0.6645862427912375,-0.23208018871222508,-0.5787794775439741
-7832.021551132202,-3724.0,1664.0,-15944.0,-461.0,-11.0,84.0,-0.38044176254623824,0.6785236560906673,-0.2132052397894025,-0.5911118668766591
-7832.037184238434,-3760.0,1372.0,-15756.0,-425.0,-316.0,273.0,-0.3464566099605767,0.6705568102379873,-0.19679128040762314,-0.625775178169931
-7832.052789449692,-3948.0,1388.0,-15672.0,-330.0,-420.0,418.0,-0.31085639654096364,0.6495007398103846,-0.19029665416011826,-0.6673112265883098
-7832.068394899368,-4004.0,2004.0,-15680.0,-331.0,-442.0,271.0,-0.2831277069198925,0.6275594747399087,-0.17424586128544023,-0.7040214393492207
-7832.084027528763,-3684.0,2416.0,-15896.0,-184.0,-413.0,67.0,-0.27488808626308003,0.6054625018711304,-0.15639035321229447,-0.7303381109326739
-7832.0996170043945,-3840.0,1784.0,-15796.0,-209.0,-417.0,89.0,-0.26354522997622465,0.5824265735941946,-0.13774904153654396,-0.7565371105794273
-7832.11524271965,-3740.0,1196.0,-15808.0,-261.0,-424.0,96.0,-0.24871750479004504,0.5589889998496383,-0.11561910486758213,-0.7824980022004746
-7832.130858421326,-3652.0,1200.0,-15720.0,-304.0,-440.0,388.0,-0.21141290541222252,0.5310064430669534,-0.10414527717664404,-0.8139351952633237
-7832.146472454071,-4088.0,1480.0,-15556.0,-187.0,-453.0,566.0,-0.16625033600410866,0.49634521897408607,-0.10858351455955244,-0.8451105665804818
-7832.162137746811,-3592.0,2108.0,-15584.0,-168.0,-377.0,391.0,-0.1334960796451384,0.4669686201821115,-0.1076235137398676,-0.8674884920129363
-7832.177740573883,-3880.0,2148.0,-15520.0,-164.0,-272.0,58.0,-0.12488688520439173,0.4478373367749923,-0.09446396955037273,-0.8802962820272578
-7832.193377256393,-4020.0,1608.0,-15552.0,-17.0,-193.0,-310.0,-0.14951737385128605,0.43580838382815906,-0.0789847246647171,-0.8840118894965959
-7832.208984136581,-3956.0,1632.0,-15748.0,-511.0,-86.0,-429.0,-0.16345081954208573,0.43832419690158014,-0.022173429416554407,-0.8835519605713715
-7832.224585771561,-3712.0,1812.0,-15692.0,-415.0,-71.0,-613.0,-0.1945213558073373,0.43931889812352753,0.03415059631503672,-0.8763527170367718
-7832.240194320679,-3736.0,1752.0,-15540.0,-464.0,22.0,-555.0,-0.21874784416927145,0.4466242410646011,0.09032309985263613,-0.8628545100987628
-7832.25580906868,-3716.0,1688.0,-15544.0,-637.0,150.0,-1243.0,-0.28648325691614157,0.45714853703414404,0.18249501223290265,-0.8219720975217921
-7832.271447181702,-3964.0,1196.0,-15380.0,-660.0,224.0,-1028.0,-0.3354027883701914,0.47086506844046644,0.2637377301256152,-0.7721615547178216
-7832.287064313889,-4368.0,1144.0,-15908.0,-463.0,-84.0,-820.0,-0.3683348076845178,0.45859403223960465,0.33003231907334507,-0.7383086423774947
-7832.302681684494,-4496.0,1776.0,-15904.0,-142.0,-176.0,-196.0,-0.36995537603993295,0.44628110321191383,0.3526466719017543,-0.7345791458050831
-7832.318264007568,-4000.0,2160.0,-15696.0,-10.0,-277.0,-305.0,-0.3802195759410845,0.4194450301816564,0.37396706123488105,-0.7346070907896534
-7832.333849430084,-3708.0,2044.0,-15612.0,-45.0,-208.0,-491.0,-0.40269644005684213,0.39140138082530856,0.40140759530408515,-0.7235416219442942
-7832.349488019943,-3544.0,1360.0,-15676.0,-159.0,-350.0,-471.0,-0.4140356340150584,0.3581213982948515,0.4393586876688409,-0.7122411820577375
-7832.365154266357,-3272.0,1452.0,-15756.0,-165.0,-368.0,-237.0,-0.4090302775432347,0.33206150057077355,0.47009054603318845,-0.7081272981758359
-7832.380759477615,-3532.0,1556.0,-15724.0,-140.0,-358.0,-281.0,-0.4071682023974975,0.3033498031802236,0.4994076398096837,-0.7019864394463979
-7832.396369934082,-3644.0,1972.0,-15636.0,-205.0,-345.0,-6.0,-0.38669938060127235,0.28924824249344255,0.5242453385656118,-0.7014027860290222
-7832.412020206451,-4052.0,1764.0,-15560.0,-4.0,-284.0,-297.0,-0.39139712277061217,0.25842920791294216,0.5414113424327295,-0.6977796178375846
-7832.427627563477,-4272.0,2012.0,-15420.0,-29.0,-328.0,-462.0,-0.4027480024096922,0.21752350323808028,0.5643048534819975,-0.6870499286301518
-7832.443297624588,-4292.0,2116.0,-15556.0,94.0,-358.0,-696.0,-0.42748699940745977,0.1582560627309752,0.5832964906267338,-0.6722909250979318
-7832.458934783936,-4388.0,2100.0,-15404.0,224.0,-315.0,-572.0,-0.4471582341265633,0.10223923400694082,0.5889640022447459,-0.6653706160797445
-7832.474561214447,-3884.0,1512.0,-15596.0,270.0,-298.0,-560.0,-0.46579180321476044,0.045626567407657866,0.5890903956223663,-0.6587326606370906
-7832.490168333054,-4188.0,932.0,-15564.0,135.0,-359.0,-412.0,-0.4708499346752481,-0.0016035679375207472,0.5970926147992588,-0.6494445141337082
-7832.505783557892,-4272.0,1276.0,-15736.0,139.0,-353.0,-287.0,-0.46816007908693974,-0.0421951805007258,0.6034108064674736,-0.644159223895843
-7832.5213804244995,-4600.0,1468.0,-15652.0,242.0,-437.0,-289.0,-0.45978141807133605,-0.09172574296818305,0.6060773021977485,-0.6425400683490061
-7832.536972284317,-4332.0,1636.0,-15600.0,503.0,-488.0,-95.0,-0.4343105131315313,-0.1440299155769043,0.5958071152715548,-0.6600330620462311
-7832.552574396133,-4304.0,2384.0,-15716.0,908.0,-524.0,-504.0,-0.42239650742485507,-0.2336786902448973,0.5544248076701603,-0.6779296371162863
-7832.568179368973,-3524.0,3928.0,-15424.0,936.0,-513.0,-994.0,-0.43371359761828493,-0.34397482033561705,0.49391283466063446,-0.6705400435272909
-7832.58380484581,-3708.0,1768.0,-15560.0,1116.0,-399.0,-1527.0,-0.4656933335810604,-0.4689130941404249,0.3925226441774984,-0.6396688229151999
-7832.59943985939,-3920.0,-96.0,-15832.0,1185.0,-524.0,-276.0,-0.41178960971380346,-0.5522861005194593,0.3343048149788045,-0.6431560239838777
-7832.615045309067,-3752.0,236.0,-16300.0,1098.0,-1152.0,863.0,-0.27330785619765974,-0.6236845645201811,0.3514222490137722,-0.6425128657217798
-7832.630671977997,-4348.0,244.0,-16008.0,1240.0,-1463.0,1916.0,-0.051973061357004975,-0.6585223735300907,0.40985856891134254,-0.6290175179940721
-7832.646273136139,-4440.0,2008.0,-15840.0,1511.0,-1613.0,1805.0,0.18599601287590792,-0.6690749876389459,0.4250765428289773,-0.5805635855328635
-7832.661890268326,-5296.0,2412.0,-15620.0,1839.0,-1749.0,1047.0,0.3999626808768238,-0.6701731200286033,0.35472571616129633,-0.5148470737906615
-7832.677537918091,-5272.0,3176.0,-15756.0,2392.0,-1720.0,111.0,0.5791617360184997,-0.6398576982902698,0.187715860240941,-0.46895262584265296
-7832.693166971207,-4564.0,3444.0,-15744.0,2797.0,-1844.0,-937.0,0.6957630773350627,-0.56410852259709,-0.06908185833420322,-0.4392300215145421
-7832.708773612976,-4096.0,2076.0,-16068.0,2817.0,-1958.0,-1693.0,0.7186369310208236,-0.434592393113851,-0.3597981224760973,-0.4064919732088486
-7832.7243621349335,-3852.0,1392.0,-16508.0,3581.0,-2084.0,-1430.0,0.6894029646776517,-0.22343392357451045,-0.6275876514918787,-0.2844900240512355
-7832.740004062653,-4076.0,2136.0,-16724.0,4157.0,-2814.0,-1417.0,0.5287004338374098,0.0312861847492713,-0.8445169836578582,-0.07929747926259821
-7832.755606889725,-3428.0,2560.0,-16736.0,4721.0,-2801.0,-1339.0,0.2688901937886889,0.29456690854005463,-0.899450135768589,0.17865568376993607
-7832.771245956421,-3928.0,3872.0,-16016.0,4899.0,-2921.0,-1747.0,-0.05261971467480282,0.5253270262403453,-0.7510792986776398,0.3964121191726137
-7832.786849498749,-4712.0,888.0,-15952.0,4465.0,-2547.0,-2524.0,-0.30146402599822325,0.678454789645232,-0.41982753391597327,0.5220760300975509
-7832.802461147308,-5756.0,-952.0,-15992.0,4509.0,-1871.0,-2406.0,-0.4763588018384793,0.6624767106073141,-0.020645664029844617,0.5777375324234079
-7832.818049907684,-6780.0,-1516.0,-16840.0,4468.0,-1842.0,-1655.0,-0.5977990156588614,0.5231915699538041,0.3441858701070175,0.5004428087456603
-7832.833629608154,-7168.0,-684.0,-16820.0,4386.0,-2049.0,-1202.0,-0.6270577616234357,0.31902579944914566,0.6396522250225417,0.3096225668412297
-7832.849237203598,-6796.0,1080.0,-16968.0,4575.0,-2170.0,-1425.0,-0.5403391539036738,0.04344616491641743,0.837795498926529,0.06515160390324667
-7832.864883899689,-6696.0,3280.0,-17256.0,4648.0,-2366.0,-2840.0,-0.3271968137128117,-0.32846546184924563,0.8760036969794656,-0.1329293359144395
-7832.880532979965,-5760.0,3112.0,-17384.0,4665.0,-2148.0,-4564.0,-0.0702759172529231,-0.7166025398893302,0.6453203450475564,-0.25515436023341614
-7832.89613366127,-5208.0,1524.0,-16640.0,4774.0,-1852.0,-4776.0,0.19314133186360286,-0.9012118029888494,0.21479574626611683,-0.3230735202171839
-7832.911814928055,-5012.0,132.0,-16720.0,4689.0,-1633.0,-4227.0,0.41135269257512874,-0.8235766227107981,-0.24105823754475283,-0.30724816508367453
-7832.9274752140045,-4616.0,44.0,-16804.0,4672.0,-1295.0,-3597.0,0.5514460973437271,-0.5441850335505007,-0.5940149868712878,-0.21660112270326884
-7832.9431138038635,-4020.0,-96.0,-16860.0,4587.0,-1159.0,-2729.0,0.5934322542416727,-0.18415453697057402,-0.7819603165504639,-0.0496319401101589
-7832.958801031113,-3704.0,1136.0,-15712.0,4276.0,-1382.0,-1787.0,0.5157774069202201,0.14117265544149782,-0.8300459476307215,0.15832773821433513
-7832.97442150116,-3428.0,4648.0,-13516.0,2617.0,-1880.0,196.0,0.3314985747319183,0.26067464073714486,-0.8480364429984756,0.3209230717380109
-7832.990043878555,-2268.0,7940.0,-10572.0,241.0,-1338.0,418.0,0.21354837410907362,0.27218086688962206,-0.8828111001874753,0.31774082048166874
-7833.005662202835,-772.0,8724.0,-10128.0,-2898.0,64.0,-655.0,0.29566977401784866,0.258367665654913,-0.9161292815372704,0.08082495645696552
-7833.021353721619,-708.0,7992.0,-11424.0,-5665.0,794.0,-775.0,0.4395697902781409,0.15058407509744542,-0.8199193931158284,-0.3344174406254102
-7833.0369753837585,-1656.0,6420.0,-12732.0,-7731.0,1686.0,292.0,0.551308149301425,-0.09671385645224152,-0.43905676067744903,-0.7028050336952618
-7833.052539110184,-2640.0,6224.0,-13636.0,-9976.0,2043.0,1420.0,0.47073695356971224,-0.3764487823226812,0.21049642038287356,-0.7696650517190409
-7833.0681936740875,-3320.0,6580.0,-14256.0,-11553.0,2031.0,1934.0,0.12743969388752704,-0.47136909489901024,0.7866362509006976,-0.3778540850180613
-7833.083915472031,-3464.0,6364.0,-14884.0,-13218.0,2051.0,1899.0,-0.3198592554499251,-0.27188532729929726,0.8559731009672515,0.3017921071248896
-7833.099521636963,-3328.0,6076.0,-14664.0,-14096.0,2671.0,1889.0,-0.560835280813692,0.11934701040543745,0.28256597694662006,0.7690101088894176
-7833.115117549896,-3036.0,5904.0,-15572.0,-15425.0,3475.0,1411.0,-0.33979635334113334,0.395604550908973,-0.5485340111881962,0.6535640107334288
-7833.13071846962,-3424.0,5344.0,-16648.0,-16216.0,3960.0,1341.0,0.1881560808431665,0.3311556543530857,-0.9245093734268893,-0.014684695350596513
-7833.14630317688,-2964.0,5024.0,-17204.0,-16784.0,4510.0,1434.0,0.5703901518634018,-0.029830911815080317,-0.4779801944171778,-0.6673081185647626
-7833.161925315857,-3748.0,3852.0,-18044.0,-16842.0,4878.0,1400.0,0.44296567064842407,-0.3507082405116698,0.4088791693798072,-0.716660986458367
-7833.177536249161,-3584.0,3776.0,-18468.0,-16594.0,4799.0,2100.0,-0.05768426761699308,-0.3394158427339145,0.9330316986563785,-0.10450483373084071
-7833.193196773529,-4172.0,3908.0,-18492.0,-16434.0,4605.0,3467.0,-0.48788708758692934,0.03716648582174083,0.6388906087151013,0.5936359424708493
-7833.208800792694,-5548.0,1568.0,-18140.0,-15923.0,4049.0,4998.0,-0.5111168894447781,0.43519731831383307,-0.20783636609944364,0.7114540493828966
-7833.2244181633,-5572.0,196.0,-18512.0,-14676.0,3923.0,6670.0,-0.16856113560452823,0.4122237807695659,-0.8793517251358605,0.16852074540644155
-7833.240082025528,-5088.0,2900.0,-17480.0,-13876.0,3014.0,8863.0,0.24380012466433712,-0.06108989660694717,-0.8170910882288798,-0.5188368503519688
-7833.255730867386,-5620.0,4160.0,-17312.0,-13145.0,2982.0,9329.0,0.46330948126797583,-0.4990336154162289,-0.062407482557967346,-0.7296677883616512
-7833.271332979202,-5864.0,4460.0,-17084.0,-12270.0,3174.0,8283.0,0.2857720458129949,-0.5059236066511972,0.728990851415296,-0.3618673522407098
-7833.286957025528,-4740.0,4772.0,-16632.0,-11293.0,3022.0,8044.0,-0.09496730687614623,-0.11331444098407116,0.9524623249301161,0.266376740121726
-7833.302573442459,-4120.0,5412.0,-15980.0,-10724.0,3098.0,7448.0,-0.41005015431247877,0.33937286087484325,0.4878842402529938,0.6918481772489509
-7833.318184137344,-3820.0,5468.0,-14220.0,-11454.0,3568.0,4797.0,-0.33989928554993254,0.48981520682386104,-0.31400572474839267,0.7388842559372748
-7833.333761930466,-4380.0,632.0,-15444.0,-10369.0,4426.0,4047.0,-0.02508430081483845,0.2773451120917316,-0.8896247869241752,0.3619643699890522
-7833.349397182465,-5608.0,992.0,-15632.0,-7782.0,3519.0,7004.0,0.15487871089971836,-0.25958553406335716,-0.9450799068060796,-0.1243056924138839
-7833.364994049072,-2996.0,5236.0,-13932.0,-7979.0,2098.0,8147.0,0.1653513573361739,-0.7146015278980256,-0.4538296988203931,-0.5060061159921722
-7833.380605459213,-3392.0,5704.0,-13872.0,-6976.0,2365.0,7988.0,0.12810321196843627,-0.745488402899311,0.2804017726931306,-0.5909411595891374
-7833.396191596985,-4052.0,5820.0,-15052.0,-5678.0,1705.0,6424.0,0.0383013731367963,-0.44838347706806075,0.8032351529192133,-0.39025447008719777
-7833.411922931671,-3712.0,5496.0,-14708.0,-4430.0,1024.0,4954.0,-0.03287294230271238,-0.06990555281947913,0.993052879161794,-0.0887612671036011
-7833.427529573441,-2672.0,5552.0,-13648.0,-3616.0,1914.0,4040.0,-0.16928740650997856,0.2729871117762811,0.9296983873381218,0.18022408102710677
-7833.4431364536285,-1352.0,6196.0,-13024.0,-2958.0,2722.0,3272.0,-0.3378887367106942,0.49140730932735943,0.697111301633196,0.3979772494489693
-7833.458772182465,-3716.0,5624.0,-12812.0,-2677.0,1828.0,1398.0,-0.3656643014545261,0.5657270043504631,0.46871544786658426,0.5714441391086724
-7833.474408626556,-4340.0,4524.0,-12696.0,-2031.0,1621.0,925.0,-0.36717595217105126,0.5713480544875046,0.2627086029774567,0.6853666250279906
-7833.490027427673,-3900.0,5520.0,-13020.0,-832.0,1243.0,530.0,-0.38210613823462053,0.5309175525938192,0.14547273213732,0.7422662161756508
-7833.505632400513,-3016.0,6920.0,-12856.0,-404.0,743.0,-427.0,-0.34384571857238605,0.4893435062864213,0.11410257042241634,0.7932803149566665
-7833.521232843399,-2848.0,6952.0,-13040.0,61.0,830.0,-2265.0,-0.1935214790231999,0.3989160708487338,0.1862592560609227,0.8767684387036936
-7833.5368502140045,-2604.0,6960.0,-12780.0,454.0,559.0,-3070.0,0.016005399419878608,0.2879911646813327,0.30726185379557563,0.90686000543469
-7833.552437782288,-2700.0,8092.0,-12300.0,247.0,858.0,-3904.0,0.2792324664613195,0.10933467051639917,0.4025185954690314,0.8649011156187953
-7833.568078041077,-2108.0,6524.0,-13824.0,370.0,1574.0,-4625.0,0.5235860263306257,-0.1497291695513592,0.4718754045249366,0.6933775677228051
-7833.583647966385,-2080.0,5224.0,-15048.0,861.0,913.0,-6169.0,0.7628461987474663,-0.36782952269838964,0.4253983744163215,0.3190663603891315
-7833.599239110947,-3344.0,3288.0,-16168.0,2944.0,602.0,-6225.0,0.8632773239884926,-0.3594926248319122,0.29788938316896124,-0.19177911766911696
-7833.614834070206,-4240.0,3196.0,-14748.0,3911.0,279.0,-7725.0,0.6775499699270877,-0.20832029216499978,0.00906269152668678,-0.7052989165923792
-7833.630470275879,-2780.0,1984.0,-15024.0,5941.0,-391.0,-6148.0,0.3264165445842346,0.09116935586045836,-0.393792313552932,-0.8544401686252273
-7833.646065235138,-3296.0,4412.0,-15348.0,7574.0,-1136.0,-7660.0,-0.25002149191392875,0.3528302234779118,-0.6759082141997003,-0.5967815119112121
-7833.661678791046,-3520.0,7684.0,-15272.0,8031.0,-1448.0,-9179.0,-0.7234971906627988,0.4390915928740074,-0.532214124464744,0.022327424630499308
-7833.67734670639,-1152.0,7244.0,-13708.0,6001.0,560.0,-12678.0,-0.5707648674582954,0.40979621197944005,-0.04442144097934801,0.7101558042457546
-7833.692944288254,-1172.0,1416.0,-13476.0,6065.0,2194.0,-12204.0,-0.014514497682157084,0.012342863537440768,0.42069601838590825,0.9070015673586095
-7833.708537340164,8564.0,628.0,-15032.0,8576.0,5959.0,-2114.0,-0.055124456620194086,-0.4010155735240602,0.8014749448569611,0.44021099127580693
-7833.724142074585,60.0,26992.0,-22600.0,1971.0,2389.0,549.0,-0.1683656141896738,-0.44719911394700057,0.8533964086283731,0.20827996107102245
-7833.739764690399,-20248.0,7980.0,-32768.0,5946.0,-971.0,-2835.0,0.16240974531585936,-0.6295175422914295,0.7479132213184757,-0.13400205950214608
-7833.755350112915,-21768.0,-4164.0,-23388.0,12290.0,185.0,-10063.0,0.4142210561038531,-0.6493564164118553,0.031540831350776885,-0.6369947700748129
-7833.770963907242,-6980.0,16968.0,-9244.0,10983.0,-2234.0,-6256.0,0.46275018303019033,-0.26217187183014495,-0.6756019283027406,-0.5105783115254915
-7833.786585092545,-4836.0,11636.0,-7640.0,6495.0,4555.0,-20588.0,-0.017377167808998065,0.6530925975373719,-0.5770979309192663,-0.4900266025528898
-7833.802181720734,1736.0,-856.0,-14440.0,5728.0,2504.0,-17844.0,-0.5083258547825529,0.8552968709477257,0.0990245654264394,-0.016316352187950234
-7833.817795991898,2796.0,-18496.0,-16776.0,4855.0,-2797.0,-3393.0,-0.7389599936509678,0.5268730166321968,0.4075784983006936,-0.10110746684197935
-7833.833385467529,668.0,-3564.0,-12320.0,7175.0,-2669.0,8131.0,-0.6460028056396728,0.23639265178923063,0.10219349836112969,-0.7185787209335108
-7833.848971605301,-8468.0,17492.0,-15668.0,5822.0,-1603.0,124.0,-0.6581253578737449,-0.1691605459409114,-0.15515579854274356,-0.7170651303745647
-7833.864636659622,-10072.0,11300.0,-17256.0,4624.0,-310.0,-8676.0,-0.8626353124359626,-0.2554855599094253,-0.42114527706213223,-0.1149960956925777
-7833.880300045013,-7920.0,1524.0,-14884.0,3726.0,-463.0,-8744.0,-0.6802065137200589,-0.16875025548106315,-0.4761051894158217,0.5311932779875926
-7833.895945310593,-4808.0,1084.0,-15592.0,4695.0,-1951.0,-4150.0,-0.433618886454577,-0.16029974203298317,-0.17706826012871651,0.8688644803817457
-7833.911539316177,1764.0,2444.0,-14552.0,4186.0,-1765.0,-1208.0,-0.28748599573868944,-0.1540316807763,0.17588380211350077,0.9288115695475919
-7833.92728304863,2704.0,412.0,-14876.0,4168.0,-1522.0,823.0,-0.2556735088357076,-0.11415307095488754,0.5240414336488758,0.8043511105794762
-7833.942871332169,412.0,5972.0,-14656.0,3048.0,-1631.0,407.0,-0.17149509239098806,-0.04700316660396327,0.7450016692860004,0.6429250721321103
-7833.958474159241,-1940.0,7184.0,-13852.0,1299.0,166.0,-3584.0,0.02297605501860032,-0.29297435316792325,0.759839037967801,0.5798989271086695
-7833.975047111511,-3964.0,2568.0,-16456.0,973.0,-407.0,-4685.0,0.28769635493841994,-0.5359826659654805,0.6351113239259647,0.4760115496085061
-7833.991319656372,-6108.0,-1180.0,-17268.0,783.0,-1154.0,-3017.0,0.4931801617779391,-0.6105763946878036,0.477973383765247,0.3943491329909696
-7834.006970405579,-6052.0,2896.0,-13816.0,277.0,533.0,-3652.0,0.5815771730475058,-0.7322016100802169,0.30074908221590707,0.1876133884676119
-7834.022656917572,-7492.0,5024.0,-13812.0,1208.0,1385.0,-3443.0,0.6423428955403462,-0.7422162240842526,0.16186120177703064,-0.10154620925595269
-7834.038256883621,-7512.0,4600.0,-14204.0,841.0,2160.0,-3704.0,0.5917611105902669,-0.6806294585019839,0.03334794377185405,-0.4306393419770882
-7834.0538647174835,-6312.0,2592.0,-13636.0,1555.0,2283.0,-1300.0,0.6073581388541023,-0.5010460789419052,0.015132263058339765,-0.6163115547832576
-7834.069525718689,-2332.0,3848.0,-16108.0,1891.0,2322.0,-918.0,0.6149704405651822,-0.2675941064574749,-0.003527405002795339,-0.7417494919676302
-7834.085127830505,-1064.0,5676.0,-14312.0,718.0,2685.0,-5317.0,0.2553790204603234,-0.04765534975421337,-0.02683023217529568,-0.965293044722663
-7834.100748062134,-1612.0,2392.0,-15800.0,285.0,2011.0,-7420.0,-0.30203714169472656,0.12084138825012615,-0.030883706432519916,-0.9451016456443466
-7834.116357564926,-3672.0,2776.0,-17024.0,993.0,1524.0,-3589.0,-0.5702208005004177,0.21728168129188669,-0.10877684920477453,-0.7847321241855182
-7834.132004499435,-4616.0,96.0,-15340.0,1867.0,1098.0,-827.0,-0.6388187187187039,0.20356152055295026,-0.2702571061274203,-0.6909663150634743
-7834.147613286972,-7204.0,3300.0,-14488.0,3054.0,1883.0,-175.0,-0.628914819032202,0.14420200343350809,-0.5309947527415931,-0.5492872701677597
-7834.163313865662,-6972.0,4796.0,-16096.0,2718.0,2433.0,-1992.0,-0.6069885340834371,0.19176520334739783,-0.7237826851841899,-0.26632621144741875
-7834.178922653198,-3784.0,5460.0,-16284.0,1818.0,2901.0,-4209.0,-0.4986775456291105,0.3874670429831584,-0.7677414912063402,0.10845735921309681
-7834.194529294968,-208.0,3336.0,-15236.0,259.0,2669.0,-6801.0,-0.2225404251401343,0.6800320564349734,-0.5493430853237643,0.43157193607350897
-7834.210165262222,672.0,-80.0,-16788.0,259.0,1482.0,-5004.0,0.01977723965462118,0.781775946743807,-0.24704241958424203,0.5721933875976123
-7834.225781917572,-516.0,-1832.0,-17824.0,287.0,906.0,-2922.0,0.15995011973522538,0.772920994236411,-0.030790511916534216,0.6132381594790094
-7834.241383552551,-2112.0,1112.0,-15236.0,-9.0,567.0,-2179.0,0.2734301066475389,0.7344751827841625,0.12131633432746064,0.6091506625443612
-7834.256970882416,-4588.0,2472.0,-15444.0,-16.0,710.0,-1594.0,0.3476391620808323,0.6719211799363733,0.23694544329654318,0.6095291607803954
-7834.27259016037,-7264.0,2048.0,-14880.0,207.0,1107.0,-942.0,0.35975917706760785,0.5951283104858215,0.3342067936103158,0.6361614949669941
-7834.28817653656,-6856.0,3108.0,-14196.0,328.0,1771.0,-1367.0,0.36001358438670106,0.45851734860224247,0.47015090095589146,0.6626538994212385
-7834.303795099258,-3868.0,5536.0,-15128.0,247.0,2407.0,-3398.0,0.4208099175624195,0.1764635348932953,0.6542191168204641,0.6031392719104972
-7834.319425106049,-2244.0,3016.0,-16504.0,685.0,1900.0,-3775.0,0.4687017287788217,-0.10663760599285343,0.7666184570916922,0.4257267335676841
-7834.335021495819,-912.0,1200.0,-16796.0,1667.0,945.0,-1845.0,0.47664948474874963,-0.19190195925105405,0.8281796682165542,0.2238243594363145
-7834.350679397583,-2204.0,1400.0,-16188.0,2456.0,415.0,-545.0,0.4862694050142826,-0.13398814847035465,0.8633228160954363,0.016215949728188905
-7834.366296052933,-2164.0,2268.0,-16332.0,2744.0,365.0,-1271.0,0.4758526457424151,-0.10999537233445357,0.8388744997489102,-0.24032239029263236
-7834.381912946701,-4452.0,2320.0,-17040.0,2994.0,246.0,-1052.0,0.4474072548671374,-0.05539741932074144,0.7480960722765755,-0.4869395659311482
-7834.397520780563,-6600.0,-1956.0,-15844.0,3369.0,85.0,326.0,0.45257552561937886,0.09692576496948722,0.585087313329782,-0.6659231378139372
-7834.413183927536,-4632.0,2876.0,-16940.0,3123.0,-3.0,529.0,0.44050353174216345,0.23829971948247217,0.38483413918235254,-0.7752886994771906
-7834.428789615631,-4080.0,3524.0,-17332.0,3113.0,-298.0,390.0,0.39739105847563927,0.33856614517720923,0.14930766539687698,-0.8397383717784903
-7834.444388389587,-2576.0,1792.0,-16048.0,2981.0,31.0,1370.0,0.3934563317525841,0.4444883535527065,-0.10425900111811233,-0.7979675928542828
