programtime,ax,ay,az,gx,gy,gz,q0,q1,q2,q3
-7533.79171204567,-3320.0,3124.0,-15880.0,227.0,-86.0,57.0,0.9997606143782539,0.02003083402149375,-0.007262845248306999,0.004972997619008639
-7533.807317495346,-3120.0,2968.0,-15660.0,149.0,54.0,31.0,0.9994137772823198,0.03323983814413497,-0.0023328483356683674,0.007859564687706027
-7533.822887659073,-3348.0,3556.0,-15544.0,247.0,61.0,-187.0,0.9984435916035832,0.055023482219760646,0.003891052247178488,-0.008226208273487518
-7533.838482141495,-3436.0,3552.0,-15256.0,-97.0,105.0,-796.0,0.9958089464199978,0.04653403731602804,0.017072423165463993,-0.07686129044079129
-7533.854061603546,-3436.0,2724.0,-16000.0,175.0,159.0,-497.0,0.9903633618888661,0.062246473830154414,0.0319088658834056,-0.11953080022291085
-7533.869646310806,-3680.0,2076.0,-15788.0,-16.0,156.0,-660.0,0.981386948210343,0.060779403673190874,0.04928730835677276,-0.17537469374589124
-7533.885212421417,-3572.0,2744.0,-15760.0,173.0,48.0,-359.0,0.9741418575233387,0.0749855597620193,0.05283744366533189,-0.20647763025342272
-7533.900775432587,-3564.0,2848.0,-15508.0,146.0,158.0,-183.0,0.9688307904391347,0.08962982389670299,0.06501539805419113,-0.2215996213471105
-7533.916760444641,-3660.0,3388.0,-15512.0,227.0,127.0,-173.0,0.9625898846595081,0.11052003615111021,0.07287467043610762,-0.23642190670320956
-7533.932419538498,-3372.0,3136.0,-15424.0,-85.0,290.0,-483.0,0.950380697579359,0.10643033869015844,0.10369534194191213,-0.2733064008295802
-7533.9480855464935,-3676.0,2404.0,-15940.0,150.0,251.0,-384.0,0.9366737997811572,0.12151104185647091,0.12460724202346916,-0.30389191293252305
-7533.963685274124,-3508.0,2640.0,-15796.0,133.0,60.0,-279.0,0.9268075168422901,0.13113256563070838,0.12910367228044392,-0.327359616873309
-7533.980007648468,-3284.0,3124.0,-15456.0,163.0,150.0,-172.0,0.9180056039155149,0.1468752934071899,0.13869491071158296,-0.34125808577815236
-7533.995996952057,-3340.0,2836.0,-15400.0,194.0,189.0,-200.0,0.9068192141146528,0.16580477587391587,0.15074837854809278,-0.3570190689235026
-7534.011601686478,-3388.0,3276.0,-15400.0,132.0,118.0,-407.0,0.8899428320758608,0.1747011883598072,0.16192012852385204,-0.38892560008475496
-7534.027237892151,-3260.0,3008.0,-15540.0,166.0,214.0,-351.0,0.8717516299455224,0.1900103647102679,0.17830369219546188,-0.41491318409935074
-7534.042885303497,-3272.0,3296.0,-15452.0,240.0,181.0,-500.0,0.8456827603868715,0.20703202206753582,0.1915987170863221,-0.4530434220181818
-7534.058476686478,-3624.0,1640.0,-16012.0,75.0,185.0,-479.0,0.8213726232362019,0.21188892895397765,0.21092698033651633,-0.48575704271882236
-7534.074066162109,-3844.0,2124.0,-16224.0,447.0,-56.0,101.0,0.8176750862904125,0.24345177829876186,0.18614597763444013,-0.4873277746175108
-7534.08966088295,-3808.0,3036.0,-15160.0,159.0,-31.0,36.0,0.8161660600815663,0.2542997686224331,0.1765479766824452,-0.48788871884769475
-7534.105245351791,-3540.0,3044.0,-15432.0,218.0,185.0,-326.0,0.7939454466507245,0.2727519776752773,0.18768963554697662,-0.5099309630970152
-7534.120857954025,-3464.0,3696.0,-15848.0,351.0,56.0,117.0,0.7893741464950621,0.30158959311481986,0.17320582457438707,-0.5058971402405201
-7534.1364459991455,-2760.0,3984.0,-14868.0,59.0,156.0,259.0,0.79652226190245,0.31662390864726264,0.17457027396073296,-0.48458931706756503
-7534.1520755290985,-3328.0,1784.0,-15284.0,-409.0,280.0,-692.0,0.7720667978467377,0.28896211968419105,0.22996041239713208,-0.5172349193359289
-7534.167645692825,-4132.0,736.0,-17456.0,565.0,19.0,25.0,0.7575385308809129,0.3282137827392678,0.20505463723984843,-0.5257030367015233
-7534.183267116547,-4064.0,3036.0,-15816.0,304.0,-325.0,349.0,0.7696267817144572,0.3394969111064495,0.15957351342818188,-0.5166747120086417
-7534.198836326599,-3456.0,3672.0,-14784.0,203.0,25.0,-159.0,0.7558074981598766,0.3522330334458935,0.15686934687995682,-0.5292248330192642
-7534.214458227158,-3828.0,3516.0,-15444.0,510.0,7.0,-339.0,0.7232475235378506,0.38128324857489726,0.14409290067339592,-0.5574704835487401
-7534.230042695999,-3796.0,3364.0,-15492.0,-47.0,-107.0,-511.0,0.7004704272664409,0.36658525109144635,0.15655220455244223,-0.5919863524247506
-7534.261235713959,-3248.0,1524.0,-16132.0,-80.0,56.0,-699.0,0.6647963284901679,0.3546403068560116,0.1862338632701263,-0.6305497938708333
-7534.276850700378,-4012.0,1540.0,-16540.0,327.0,-137.0,-3.0,0.6563314452060423,0.36611211849695824,0.16044528284250245,-0.639881443657344
-7534.292436599731,-3188.0,2788.0,-15816.0,245.0,-373.0,580.0,0.6846373156623611,0.3669738095059541,0.1067488910831136,-0.6206501779520004
-7534.308062791824,-3212.0,2880.0,-15320.0,201.0,-196.0,315.0,0.6965283913003238,0.3713409614111626,0.07408381216695094,-0.6094798431987956
-7534.323625802994,-3496.0,3176.0,-15520.0,334.0,-137.0,341.0,0.7039744067456877,0.38648979727021315,0.03695981984414072,-0.5947097131964258
-7534.339261054993,-3204.0,4396.0,-15044.0,398.0,-76.0,998.0,0.7392336088821428,0.4087038022253438,-0.021913593853658937,-0.5348033918647552
-7534.354839086533,-3464.0,2344.0,-14328.0,-1143.0,704.0,-1798.0,0.6843309592529191,0.36463891784740654,0.13835758171707205,-0.6161061413266836
-7534.370436906815,-4728.0,112.0,-17856.0,482.0,-22.0,-88.0,0.6638136096942052,0.39108023279795673,0.11396704086145883,-0.6272314219622035
-7534.386006593704,-3996.0,1760.0,-16784.0,567.0,-455.0,713.0,0.6852177448907827,0.40479864934721455,0.03221101173181921,-0.6046297596849443
-7534.401556491852,-3300.0,3672.0,-14332.0,108.0,-206.0,488.0,0.706848373291394,0.4016059676915212,-0.0030222746185089343,-0.5822962216483955
-7534.41716003418,-3384.0,3740.0,-15316.0,498.0,98.0,-227.0,0.6769822279481501,0.4371362177252987,-0.014306361944442498,-0.5919479015953126
-7534.432746171951,-3108.0,4020.0,-15708.0,364.0,-48.0,-256.0,0.6492100955970336,0.4564163456669203,-0.026170612456985827,-0.6078860668139807
-7534.448347568512,-1864.0,5352.0,-14428.0,487.0,218.0,875.0,0.6739322927768161,0.49187764297192343,-0.07425790179919514,-0.5462210295451375
-7534.463964700699,-1684.0,1916.0,-14244.0,-1811.0,1251.0,-2894.0,0.5926010900307531,0.44231740176959705,0.19999630819151423,-0.6427913665381023
-7534.479554653168,-4168.0,-1620.0,-19168.0,264.0,-155.0,-1057.0,0.5232955274346301,0.42710153078216573,0.21712805962128878,-0.7046995665498432
-7534.495110750198,-6044.0,1280.0,-17480.0,736.0,-793.0,416.0,0.5336680382435784,0.41795450586536176,0.1196714543673525,-0.7253903769651858
-7534.510697603226,-3512.0,3792.0,-13628.0,121.0,-541.0,1013.0,0.5959493155632295,0.39819778640384823,0.04965472843024425,-0.6955697981707605
-7534.52628326416,-4104.0,3300.0,-14648.0,836.0,-31.0,-16.0,0.5644744776970809,0.43883926899370856,-0.002110489841674101,-0.6991310362516482
-7534.541876316071,-4372.0,4228.0,-15960.0,472.0,69.0,-880.0,0.490770683570974,0.4649710227376074,0.006157213733979963,-0.7368230268393193
-7534.557510137558,-2764.0,3744.0,-14896.0,-63.0,352.0,-561.0,0.4562286442467489,0.4840698570902155,0.04793507454326829,-0.745140272870795
-7534.573149442673,-1036.0,1624.0,-15312.0,-923.0,984.0,-1848.0,0.3636827514794574,0.49410589305138686,0.2208363821954667,-0.7581724836915675
-7534.5887451171875,-3880.0,-1168.0,-17092.0,-987.0,37.0,-2098.0,0.2613386469507061,0.4165964618306903,0.370388357667383,-0.7880113984610775
-7534.60432100296,-5772.0,-152.0,-17360.0,718.0,-1015.0,794.0,0.31997319486605413,0.3858853894755916,0.26696535164374824,-0.8230668999408317
-7534.619925737381,-4040.0,3440.0,-15100.0,305.0,-909.0,2006.0,0.4662542877538032,0.369239737228708,0.14943433262438452,-0.7898976742816586
-7534.635494470596,-3712.0,4240.0,-14428.0,439.0,-721.0,1766.0,0.5748800219666589,0.3555795786967611,0.032505268544268204,-0.7362197573240702
-7534.651138305664,-4720.0,5236.0,-15064.0,369.0,-516.0,-104.0,0.5572815737762936,0.3404100954177457,-0.013844782041761393,-0.7572097044262671
-7534.66672706604,-4092.0,3768.0,-15132.0,-482.0,165.0,-1443.0,0.4722025538088552,0.3270170583244746,0.06826348712027115,-0.8157356729157941
-7534.682296037674,-3224.0,1276.0,-15720.0,-120.0,181.0,-468.0,0.4407342678169405,0.3321323338686165,0.09757711514363143,-0.8282029489026815
-7534.697879314423,-2104.0,1380.0,-16292.0,165.0,323.0,1137.0,0.5125507995478121,0.36979959401648377,0.06483424836521508,-0.7722282424173956
-7534.713500499725,-1196.0,2736.0,-15388.0,-249.0,653.0,681.0,0.5606944646712587,0.4053502170888164,0.08852582512044416,-0.7165724646396933
-7534.729100227356,-1628.0,1348.0,-16260.0,-822.0,758.0,-1102.0,0.510157425471861,0.4005656697954041,0.2140453709744765,-0.7303910764663549
-7534.7447373867035,-3892.0,1152.0,-16768.0,51.0,-89.0,110.0,0.5169254490290752,0.39944493997976666,0.2030959956854845,-0.7293722208907956
-7534.760293960571,-4216.0,3032.0,-15884.0,36.0,-337.0,655.0,0.5621070229161367,0.3906967942430477,0.16252808452818068,-0.7106168668812779
-7534.775929927826,-4460.0,2336.0,-15224.0,405.0,-307.0,1115.0,0.618194187959343,0.4053051117359685,0.0839582329768513,-0.6682175749629663
-7534.791502714157,-5512.0,2648.0,-15700.0,940.0,-506.0,1385.0,0.6616619369431619,0.43193705341138,-0.046521554565954706,-0.6111215984169477
-7534.807081699371,-5228.0,3372.0,-15432.0,1122.0,-468.0,615.0,0.6456005418333074,0.4662622269158041,-0.15544792695525317,-0.5844958666589264
-7534.822682857513,-4484.0,3280.0,-15264.0,755.0,-303.0,-411.0,0.5878106761492752,0.497614025825884,-0.19372832373370077,-0.6077238080654888
-7534.838246822357,-4024.0,1200.0,-15736.0,684.0,-169.0,64.0,0.5574332375662222,0.5219261673016273,-0.24103385833952232,-0.598969064874169
-7534.853837966919,-3776.0,768.0,-16108.0,27.0,-24.0,-118.0,0.5493453498492104,0.5246972862673904,-0.23828630470558826,-0.6050884905304683
-7534.869436502457,-3112.0,1124.0,-15484.0,-540.0,246.0,615.0,0.6098260075838423,0.49789412729769805,-0.2255875077108338,-0.573867541198864
-7534.885015964508,-4624.0,492.0,-16044.0,111.0,-203.0,3810.0,0.7510935102238232,0.39744635425557967,-0.38665468629643035,-0.35831981239336064
-7534.900604009628,-3536.0,3800.0,-15860.0,-319.0,-261.0,883.0,0.7779839601124114,0.33761152802139477,-0.4230182234440155,-0.31908462292805356
-7534.916256189346,-4652.0,3008.0,-15144.0,-171.0,-99.0,1353.0,0.8111229714701482,0.2716169947687957,-0.4617104265061945,-0.2347918553989326
-7534.931956291199,-3780.0,3092.0,-15648.0,-74.0,245.0,434.0,0.8306699885899762,0.2538810711098004,-0.4528859576592675,-0.2010623812231354
-7534.9475972652435,-4212.0,3224.0,-15380.0,-300.0,161.0,-59.0,0.8421000780954596,0.2374022772514847,-0.43462721178918645,-0.21355749577054756
-7534.963220357895,-3472.0,2580.0,-15536.0,-199.0,299.0,-174.0,0.8536475590574196,0.23501797882629913,-0.4052936946823647,-0.22757287974279514
-7534.978798866272,-3632.0,2864.0,-15552.0,-50.0,193.0,-332.0,0.8542654830420444,0.24695161534893398,-0.383081971805111,-0.2499871737457799
-7534.994393348694,-3924.0,2568.0,-15604.0,328.0,70.0,100.0,0.8511665904085222,0.2696964059509106,-0.3871655699394819,-0.2299610954986278
-7535.009991645813,-3704.0,2244.0,-15704.0,536.0,-36.0,11.0,0.8364703237182687,0.30830678378080484,-0.4005824402243941,-0.2116554586994163
-7535.025567531586,-4004.0,2176.0,-15744.0,757.0,-64.0,664.0,0.822769520319888,0.33809463548193996,-0.4355687863823985,-0.1379208694153277
-7535.041193962097,-3556.0,2520.0,-15872.0,475.0,-148.0,354.0,0.8060576109183881,0.3566771811206611,-0.4618566542879943,-0.09869623720416038
-7535.05676484108,-3680.0,2536.0,-15632.0,442.0,-35.0,39.0,0.7904318782716214,0.3858183931238854,-0.46913651585426663,-0.0791993865596117
-7535.072340250015,-3720.0,2500.0,-15520.0,384.0,127.0,-62.0,0.7815743572081872,0.4156719880882849,-0.4607918971249292,-0.06347558599454171
-7535.087947368622,-3696.0,2340.0,-15864.0,322.0,164.0,-224.0,0.7745101238085023,0.44745856408931367,-0.44309411337978716,-0.05985405775257234
-7535.103528261185,-4092.0,2248.0,-15776.0,297.0,178.0,-98.0,0.7686989539999635,0.4722427700025463,-0.4286941236722759,-0.048062798800564625
-7535.1191120147705,-3696.0,2156.0,-15808.0,7.0,93.0,-32.0,0.7715221867753989,0.4745087318361233,-0.4212654685344419,-0.04615608026075943
-7535.134696483612,-3504.0,2548.0,-15632.0,106.0,119.0,-100.0,0.7707955073760879,0.4859645105679736,-0.4095945358660353,-0.04410324779374399
-7535.150317668915,-3600.0,2080.0,-15812.0,164.0,102.0,77.0,0.7674500469233744,0.49478434951252637,-0.40667056727294837,-0.02877364538383832
-7535.165986776352,-3680.0,1732.0,-15692.0,94.0,255.0,242.0,0.7724562992947718,0.49311419871464474,-0.4001832626983448,0.0017346359697302974
-7535.181578874588,-3948.0,2184.0,-15668.0,198.0,31.0,604.0,0.7635504899553157,0.484850620287452,-0.42350193943666714,0.05056315446302562
-7535.197153091431,-3752.0,2656.0,-15668.0,252.0,9.0,761.0,0.7478366096272504,0.4725514578739474,-0.4529880894596302,0.11062240175543238
-7535.212749958038,-3728.0,2740.0,-15568.0,323.0,59.0,188.0,0.7344362576699881,0.48558366501569167,-0.4536381453391351,0.13792868005930195
-7535.228324651718,-3632.0,2500.0,-15684.0,511.0,66.0,-31.0,0.7148413757877251,0.5184552180363495,-0.441606769430865,0.1587118632794298
-7535.243972301483,-3548.0,2392.0,-15444.0,133.0,147.0,-320.0,0.7183344464616247,0.5369745899436987,-0.41599424104959853,0.15034195753360463
-7535.2595472335815,-3788.0,2164.0,-15832.0,141.0,122.0,-190.0,0.7182549215882268,0.551182331674337,-0.39757885700259676,0.14912731919014713
-7535.275118589401,-3924.0,2196.0,-15784.0,176.0,153.0,-40.0,0.7152669197782249,0.561715976865389,-0.3837761030925788,0.15995092216116355
-7535.290690660477,-3684.0,1960.0,-15884.0,160.0,36.0,-129.0,0.7101106141098563,0.57564942038392,-0.3729919978055627,0.158895028598111
-7535.306291103363,-3752.0,2288.0,-15832.0,125.0,-48.0,223.0,0.698795774607188,0.5768804299743552,-0.3854090707009415,0.1742219364063544
-7535.321871042252,-3568.0,2224.0,-15980.0,138.0,-201.0,302.0,0.6799023889111169,0.5780833042535528,-0.4106139708394416,0.1869454515298962
-7535.337496995926,-3556.0,2076.0,-15664.0,199.0,-151.0,751.0,0.6504461177165864,0.5643123696292802,-0.4532186871192411,0.2303567213621493
-7535.353147029877,-3332.0,2232.0,-15712.0,163.0,-157.0,675.0,0.6212406911335177,0.5491666446318016,-0.49124599224450627,0.2667459000762864
-7535.368742465973,-3748.0,2088.0,-15556.0,55.0,-151.0,449.0,0.6009634484582236,0.5361400492956626,-0.5193283690469129,0.28582306810598374
-7535.384328842163,-3588.0,2412.0,-15412.0,-313.0,95.0,-128.0,0.6226275013067185,0.5230961674941181,-0.5160364391666666,0.26909438422550713
-7535.3999376297,-4220.0,2356.0,-15484.0,-6.0,66.0,-46.0,0.6267506727720185,0.5234660811568327,-0.5105915758570807,0.269189707681987
-7535.415517091751,-3960.0,2788.0,-15640.0,-51.0,192.0,-595.0,0.6504543496953209,0.5420596877963366,-0.4735066066793868,0.2426353792412551
-7535.431085348129,-3596.0,2684.0,-15664.0,-53.0,171.0,-998.0,0.6783162698432825,0.5746266802864146,-0.4161848115193667,0.19100109693271144
-7535.446664810181,-3512.0,2300.0,-15672.0,50.0,199.0,-855.0,0.6950418061822728,0.603761570221981,-0.3597219623884407,0.15162111910080722
-7535.462233304977,-3356.0,2008.0,-15844.0,88.0,5.0,-589.0,0.6972025850551246,0.6268970852867141,-0.3268463982238956,0.1186593098730182
-7535.477794885635,-3572.0,1816.0,-15848.0,111.0,-126.0,-103.0,0.6882840407116957,0.6380219990920654,-0.3277327358208352,0.10855534002312418
-7535.493403911591,-3588.0,1992.0,-15764.0,198.0,-172.0,202.0,0.6699264542660216,0.645717681498195,-0.34733895003675763,0.11663136568914262
-7535.5089864730835,-4068.0,2472.0,-15644.0,202.0,-232.0,10.0,0.6509537652336906,0.6595614405070859,-0.35932190490684396,0.11011662171723238
-7535.52458691597,-3996.0,2140.0,-15556.0,233.0,-196.0,83.0,0.6301323763541078,0.6720302647920334,-0.3728974646821367,0.11070678528215468
-7535.540164709091,-3828.0,1840.0,-15704.0,139.0,-256.0,138.0,0.6118409959798646,0.6775875746611294,-0.39361890007180844,0.10765609973185739
-7535.555778980255,-3932.0,1844.0,-15720.0,199.0,-310.0,343.0,0.5854005789857797,0.6788803187053516,-0.42822117625586753,0.11425541214172442
-7535.571358680725,-3768.0,2092.0,-15392.0,138.0,-228.0,274.0,0.565419198446538,0.6777709772181678,-0.4545275650946618,0.11971768890987718
-7535.586938858032,-3788.0,2348.0,-15508.0,11.0,-157.0,-166.0,0.5599249334527994,0.6865789545712925,-0.45230635693574495,0.10252983718500448
-7535.60252571106,-3976.0,2064.0,-15552.0,67.0,-111.0,-84.0,0.5519870226093534,0.6942735805627042,-0.4521104059178436,0.09429052478540051
-7535.6181445121765,-3956.0,2056.0,-15824.0,38.0,-69.0,-209.0,0.5483310232135247,0.7049568315108645,-0.4424269784969151,0.08140837417527579
-7535.633745193481,-3916.0,2128.0,-15916.0,50.0,-228.0,-290.0,0.5379758282915803,0.7199557536161262,-0.4349581247935344,0.05529150644643377
-7535.6493508815765,-3856.0,1832.0,-15456.0,191.0,-237.0,74.0,0.5161692565291549,0.727151707670727,-0.4496870996652543,0.05100201015976563
-7535.6649379730225,-3488.0,2228.0,-15648.0,120.0,-219.0,-50.0,0.49979474599193513,0.7354718315342131,-0.4557744918910007,0.03944628550404986
-7535.6805193424225,-3644.0,2020.0,-15668.0,130.0,-502.0,80.0,0.47044456867452195,0.7390640038248062,-0.4818897305172448,0.015766853747884182
-7535.696096420288,-3812.0,1796.0,-15840.0,168.0,-307.0,183.0,0.44590420963099237,0.7383919221111739,-0.5058040417339151,0.010443972422505195
-7535.711712360382,-3856.0,1944.0,-15588.0,145.0,-302.0,368.0,0.42221737991656155,0.7275159810614801,-0.5406649210448612,0.011594160086018145
-7535.727283239365,-3912.0,2200.0,-15640.0,83.0,-279.0,184.0,0.40313587421328295,0.7219767645450973,-0.5623264757791723,0.004466880014185445
-7535.74285531044,-4024.0,2328.0,-15472.0,40.0,-202.0,58.0,0.3903320059008941,0.7206138234990822,-0.5730074764792747,-0.004367430625808217
-7535.758466005325,-4040.0,2392.0,-15604.0,49.0,-145.0,-375.0,0.379336089224502,0.7406348778178691,-0.5540692328333257,-0.02390385740964483
-7535.774039745331,-3988.0,2016.0,-15552.0,7.0,-207.0,-501.0,0.3671271561488884,0.7639193360943088,-0.5279923413218657,-0.05356292248108396
-7535.789618253708,-3816.0,2240.0,-15816.0,38.0,-331.0,-759.0,0.34459330854452924,0.7965898642503455,-0.4869224134089525,-0.09801328073252191
-7535.805170536041,-3900.0,2152.0,-15916.0,192.0,-432.0,-34.0,0.31202319543898727,0.7995376856196357,-0.4987759211181401,-0.12084533625585572
-7535.820745229721,-3844.0,1896.0,-15644.0,289.0,-431.0,128.0,0.27383719106502286,0.79652422708236,-0.521930785382121,-0.13472417648985427
-7535.836313009262,-3600.0,1412.0,-15616.0,299.0,-498.0,431.0,0.2346546608400396,0.7767286651973198,-0.5661886333290608,-0.1451213364595517
-7535.8519632816315,-3956.0,1612.0,-15844.0,228.0,-582.0,704.0,0.1983725948231097,0.7368438374612314,-0.6266082054970058,-0.15834023374485348
-7535.867531299591,-4064.0,2044.0,-15608.0,192.0,-511.0,666.0,0.16649770686182944,0.6948074905830637,-0.6790222024593972,-0.16867102064850256
-7535.883111000061,-4120.0,2296.0,-15428.0,82.0,-493.0,450.0,0.13837854278584574,0.6610133100751472,-0.713452955028043,-0.18680916401963896
-7535.898689031601,-4260.0,2048.0,-15452.0,-256.0,-310.0,199.0,0.13667270801709286,0.6400661118965041,-0.723959671237519,-0.21798701270174284
-7535.914788484573,-4220.0,2012.0,-15500.0,-92.0,-3.0,-195.0,0.13759353147392459,0.6511991692349822,-0.7112471359781968,-0.22613087725256764
-7535.930490970612,-4112.0,2044.0,-15528.0,-249.0,-251.0,-390.0,0.12804605307535905,0.666844783744043,-0.6864828164283039,-0.2601222509395268
-7535.946174144745,-4048.0,2260.0,-15572.0,-125.0,-211.0,-186.0,0.1181590323507308,0.6716503912788282,-0.674965361187124,-0.28168414255415786
-7535.961793661118,-3936.0,2372.0,-15868.0,-142.0,-234.0,-196.0,0.10760934943130213,0.675782011584244,-0.6621526436938083,-0.30543866353725607
-7535.977380037308,-4172.0,2064.0,-15784.0,-97.0,-271.0,121.0,0.10065153848328813,0.6605127230765523,-0.6690411508607771,-0.32553978084073215
-7535.992961645126,-4128.0,1632.0,-15500.0,-77.0,-198.0,24.0,0.09400312200667846,0.6528010708732475,-0.6699066808668421,-0.34093872447950174
-7536.008541107178,-4176.0,1748.0,-15548.0,-219.0,-480.0,152.0,0.0826689658508017,0.6272294687946977,-0.6752690002903519,-0.37915803144276
-7536.024117946625,-4228.0,1636.0,-15584.0,-156.0,-145.0,340.0,0.09370438523968434,0.6010187307725454,-0.6894072521393224,-0.3933365151433565
-7536.0397226810455,-4128.0,1884.0,-15612.0,-160.0,-502.0,300.0,0.08192878596332326,0.5637612637537242,-0.7028477767162855,-0.42598816214345003
-7536.055337667465,-4296.0,2108.0,-15456.0,-180.0,-246.0,294.0,0.0864333912474588,0.5350532190256186,-0.7119795816909033,-0.44646656867343754
-7536.070929765701,-4160.0,1892.0,-15588.0,-145.0,-248.0,494.0,0.09679327646219042,0.49311492105256316,-0.7304549117311215,-0.46249795480079475
-7536.08650970459,-4276.0,1764.0,-15460.0,-157.0,-286.0,476.0,0.10426181892939922,0.44945924585079067,-0.7461760914358389,-0.4799344746966054
-7536.1021366119385,-4200.0,2024.0,-15452.0,-166.0,-195.0,375.0,0.1135572884523416,0.41515997465418686,-0.7552283209612121,-0.4943451435005659
-7536.117733716965,-3592.0,2416.0,-15528.0,-386.0,-47.0,-183.0,0.11634553905029436,0.42118615790540326,-0.7320287578478992,-0.5226852146518429
-7536.133355855942,-4232.0,2308.0,-15576.0,-353.0,-104.0,-111.0,0.11742174024242716,0.4198400430162768,-0.7126341814542325,-0.5496353305798188
-7536.148958683014,-4136.0,2140.0,-15412.0,-146.0,2.0,-15.0,0.12204794445248422,0.4194681307065102,-0.7051372750049378,-0.5585089166478185
-7536.164572715759,-4208.0,2240.0,-15444.0,-132.0,-54.0,45.0,0.1256219211290618,0.41275892571604295,-0.7010019817677534,-0.56784278082165
-7536.1801404953,-4160.0,2160.0,-15320.0,-38.0,48.0,-23.0,0.12866791343772413,0.4162534041607515,-0.6978891194909708,-0.568443883309765
-7536.195747375488,-4360.0,2200.0,-15424.0,-111.0,7.0,-213.0,0.12241307894539999,0.42836700828317786,-0.6845520369032231,-0.5769794217208061
-7536.211320400238,-4308.0,1988.0,-15680.0,-120.0,-29.0,-177.0,0.11612079829133315,0.4362592596440088,-0.6722204856478619,-0.5867822741480843
-7536.226872444153,-4192.0,1964.0,-15512.0,-68.0,-242.0,-189.0,0.09469494924987075,0.4342427651971473,-0.6638833905514357,-0.6014357249203188
-7536.242444515228,-4248.0,2240.0,-15548.0,-104.0,255.0,-114.0,0.10729751242034713,0.4533565733036203,-0.6519169622188756,-0.5982970296116451
-7536.258060216904,-4204.0,2032.0,-15820.0,-71.0,-20.0,-241.0,0.09626701700313099,0.4653885089012981,-0.6388450894170683,-0.6049984702027298
-7536.2736275196075,-4312.0,2024.0,-15448.0,-251.0,-30.0,94.0,0.10962976616407132,0.45648012642402797,-0.629626900601048,-0.6190130649592404
-7536.289211988449,-4252.0,1816.0,-15604.0,-61.0,-238.0,30.0,0.1004868216461814,0.441442639837693,-0.6297969863186135,-0.6311786992861608
-7536.304798603058,-4372.0,2152.0,-15584.0,250.0,-53.0,54.0,0.09080639278716324,0.43778228241560296,-0.646082097064932,-0.6186103750214252
-7536.320392847061,-4300.0,2156.0,-15416.0,8.0,34.0,-71.0,0.08849627733435457,0.4438179526829008,-0.6436574494008335,-0.6171702533378719
-7536.33601474762,-4324.0,2068.0,-15540.0,62.0,11.0,-54.0,0.0837165440900922,0.448055402927358,-0.6449417282494122,-0.6134232334333907
-7536.351592063904,-4268.0,2144.0,-15576.0,2.0,-236.0,-109.0,0.06442293891447728,0.4416032708538961,-0.6424863609660532,-0.6229345969565024
-7536.367211341858,-4136.0,2120.0,-15728.0,-25.0,44.0,-171.0,0.058480776284013374,0.4535287246618047,-0.6343573650240123,-0.6232835856587658
-7536.382815361023,-4236.0,1932.0,-15556.0,-249.0,-27.0,-31.0,0.06506962465752646,0.45254486739419225,-0.6197196219914309,-0.6379002093281513
-7536.398416519165,-4136.0,1828.0,-15284.0,59.0,245.0,122.0,0.08268509575459444,0.4599317597462338,-0.6263837002381983,-0.6239145866163808
-7536.41400885582,-4296.0,2380.0,-15396.0,137.0,28.0,41.0,0.08086504472663524,0.46031260116293904,-0.635371251241959,-0.6147166232071454
-7536.429572582245,-4280.0,2364.0,-15504.0,27.0,74.0,-147.0,0.07591141503177558,0.4727165405421246,-0.6304622837659087,-0.6109777721934194
-7536.445177316666,-4360.0,1996.0,-15608.0,-234.0,82.0,-226.0,0.07791318489631524,0.4879122976210016,-0.6079960978026392,-0.6214594681121779
-7536.460752487183,-4344.0,1840.0,-15584.0,-1.0,130.0,-280.0,0.06956561218116028,0.5097780752994481,-0.5950506896600006,-0.6174152705278746
-7536.476320028305,-4296.0,1784.0,-15400.0,-253.0,118.0,-202.0,0.07595727413732146,0.5250085479527971,-0.5715883740943193,-0.6260057888568891
-7536.49192738533,-4184.0,1924.0,-15524.0,-18.0,123.0,-179.0,0.07305671356493071,0.5405965988126488,-0.5616130562733088,-0.6221003206707426
-7536.507519006729,-4352.0,2036.0,-15588.0,-48.0,94.0,-94.0,0.07475173205632832,0.5501181883963403,-0.5540532467880678,-0.6203282655769508
-7536.523103952408,-4228.0,1860.0,-15552.0,-52.0,104.0,-32.0,0.08047163359256856,0.5570863598687384,-0.549112964544688,-0.6177815601036392
-7536.538707017899,-4440.0,1932.0,-15424.0,-63.0,89.0,71.0,0.09154771918902851,0.5581675729888732,-0.5486237620933264,-0.6156946834605307
-7536.554310798645,-4396.0,2028.0,-15432.0,-47.0,140.0,-153.0,0.09222653404852843,0.5727020913440825,-0.5375504104521961,-0.6120017460842618
-7536.569900751114,-4600.0,2296.0,-15512.0,-127.0,170.0,-306.0,0.0900827707725235,0.5949609662671888,-0.5139479534033684,-0.6113624491419533
-7536.585521697998,-4276.0,2224.0,-15512.0,-89.0,145.0,-417.0,0.07883134555205883,0.6203827679794948,-0.48614450557038136,-0.6103886957146909
-7536.601145505905,-4232.0,1904.0,-15456.0,-68.0,64.0,-211.0,0.07391186973886786,0.6323150388135456,-0.47066677098998394,-0.6108907577364311
-7536.616729259491,-4240.0,1764.0,-15388.0,28.0,29.0,-199.0,0.06288036211463235,0.6422837535511395,-0.4610176679640256,-0.6090815625264019
-7536.632295131683,-4220.0,2216.0,-15508.0,-35.0,30.0,-111.0,0.06009954891970078,0.6482834275326304,-0.452847493325281,-0.6091352802089229
-7536.647971868515,-4236.0,2292.0,-15660.0,255.0,99.0,-372.0,0.02974647288255667,0.6692023268018398,-0.4445746576615156,-0.5946736642219808
-7536.663549900055,-4364.0,2016.0,-15824.0,-60.0,61.0,-523.0,0.008437771618850813,0.6919258452993393,-0.4104174414961726,-0.5939065181765883
-7536.6791133880615,-4456.0,1972.0,-15388.0,54.0,81.0,-522.0,-0.018969321825708388,0.7142558059932491,-0.3813176843833508,-0.586579604155247
-7536.694676876068,-4240.0,2192.0,-15712.0,46.0,0.0,-638.0,-0.05439711622109573,0.7344290040616718,-0.3434630945474122,-0.5828276712920594
-7536.710253000259,-4232.0,2104.0,-15688.0,181.0,-48.0,-560.0,-0.09575352046260364,0.7470869873640994,-0.3162190195032986,-0.5767996431471021
-7536.725846290588,-4056.0,1924.0,-15636.0,246.0,-201.0,-596.0,-0.14701968035875798,0.7502296370345519,-0.28765455111132016,-0.5768843597525921
-7536.741439819336,-4148.0,2100.0,-15816.0,762.0,-353.0,-360.0,-0.22308852278774383,0.7295814561747029,-0.2970652425027396,-0.5741904313929054
-7536.757061719894,-3952.0,2344.0,-15756.0,807.0,-467.0,-197.0,-0.29529797099245714,0.693366572159129,-0.31488721530684166,-0.5769644240127288
-7536.772708654404,-3808.0,2528.0,-15764.0,989.0,-481.0,-492.0,-0.39082674830841163,0.6537655806439199,-0.3208743812702217,-0.5629250836625104
-7536.788291692734,-4184.0,2184.0,-15712.0,1174.0,-515.0,-418.0,-0.48922265718452473,0.5962123629984799,-0.3349611730153697,-0.5412882988549166
-7536.803875207901,-4244.0,1964.0,-15596.0,1214.0,-461.0,-635.0,-0.5910049129525237,0.5371108391996002,-0.3370730879882665,-0.49860492640399723
-7536.819440364838,-4324.0,1784.0,-15868.0,1224.0,-607.0,-656.0,-0.6886131706681998,0.4630383560280188,-0.3256219000597988,-0.45318623128974767
-7536.835025310516,-4924.0,1680.0,-16100.0,1383.0,-801.0,-274.0,-0.770271661932119,0.3527262722952331,-0.3181470993889335,-0.42549755205811524
-7536.850610971451,-4784.0,1920.0,-15592.0,1602.0,-787.0,-404.0,-0.845594694031515,0.22437288586810744,-0.3086278373207352,-0.37332998746911766
-7536.866186141968,-4832.0,2536.0,-15480.0,1839.0,-913.0,-817.0,-0.915839657173796,0.07958543674346265,-0.2802966383994969,-0.2762927344467778
-7536.881792545319,-4880.0,2720.0,-15780.0,2211.0,-1040.0,-1539.0,-0.9635439471249676,-0.08195943895796784,-0.23283700995281476,-0.10321162299259579
-7536.897388219833,-4824.0,3012.0,-16160.0,2745.0,-1260.0,-2140.0,-0.9408392186977947,-0.2671531757085313,-0.15911858762222464,0.13465519055007916
-7536.913024663925,-4320.0,3100.0,-16464.0,3307.0,-1564.0,-2541.0,-0.7973654715210967,-0.4522637240923962,-0.047793352204029554,0.3967135291127814
-7536.928741455078,-4124.0,3164.0,-16952.0,4016.0,-1921.0,-2438.0,-0.5141493922078946,-0.5991334616072949,0.11759028997168507,0.6023802963071483
-7536.944336652756,-4184.0,3248.0,-16848.0,4477.0,-2113.0,-2084.0,-0.1346650732262103,-0.6433621681109942,0.30675444116628964,0.6883691971037473
-7536.9599940776825,-4284.0,2832.0,-16892.0,4610.0,-1550.0,-2001.0,0.2598055800092924,-0.5981901961188586,0.44499568248253724,0.6137168666699795
-7536.975568771362,-4272.0,2136.0,-16948.0,4619.0,-1237.0,-2672.0,0.6242831745934357,-0.4792218363319512,0.4736558504760759,0.39530631769800983
-7536.991156101227,-5164.0,2244.0,-17064.0,4382.0,-1106.0,-3200.0,0.8675040661281332,-0.301428455952706,0.3880402326759596,0.07747489282283683
-7537.006780385971,-5644.0,1880.0,-17512.0,4901.0,-637.0,-3088.0,0.9259331304650116,-0.027444886066491612,0.260289500251906,-0.27229394446934413
-7537.022375822067,-5168.0,4124.0,-17056.0,5094.0,-1100.0,-2510.0,0.8065246828646193,0.26881989056633293,0.039865064280937175,-0.5250376929477605
-7537.037996768951,-5472.0,2992.0,-16292.0,4829.0,-599.0,-2817.0,0.5082742967740442,0.5132442257597783,-0.14126332099971273,-0.6769654925498261
-7537.053609371185,-5640.0,2144.0,-16512.0,4780.0,-863.0,-3201.0,0.08412134584412195,0.6366198860167376,-0.284044280406682,-0.7120095270919203
-7537.069183349609,-5156.0,3696.0,-14952.0,3338.0,-1404.0,-2604.0,-0.2776138790214389,0.5951438119682247,-0.33285624048720613,-0.6767134551782781
-7537.084762096405,-4656.0,4804.0,-13224.0,1863.0,-1181.0,-1386.0,-0.47818586768647003,0.5077572307104499,-0.33394054111328975,-0.6340383155670924
-7537.100349664688,-3784.0,6380.0,-12076.0,-162.0,-1124.0,-483.0,-0.5272751569606322,0.46386320388689695,-0.2554341476903254,-0.664503749519625
-7537.115952253342,-3580.0,6532.0,-11976.0,-2106.0,-631.0,-109.0,-0.4539606729955377,0.5173003075697717,-0.0983121102761327,-0.7187870533994833
-7537.131525993347,-3664.0,6572.0,-12444.0,-4175.0,-346.0,119.0,-0.24496384398813514,0.6200074970458623,0.16126476790900673,-0.727720477502685
-7537.147102355957,-4676.0,6328.0,-12632.0,-5898.0,-378.0,304.0,0.08791453966994907,0.6455616427946284,0.46856404460910833,-0.5966313226494859
-7537.162736415863,-4776.0,5200.0,-13956.0,-7526.0,-196.0,537.0,0.4575793222206093,0.5008417837361004,0.6919986869098567,-0.2468126594305955
-7537.178336381912,-4936.0,5696.0,-14416.0,-8879.0,-364.0,950.0,0.7001540742202027,0.1545462439504209,0.6523268611030546,0.24570184597821815
-7537.193992137909,-4668.0,4816.0,-14964.0,-9681.0,180.0,368.0,0.6204010743624316,-0.32055224513133407,0.34444771720306505,0.6274587916228435
-7537.209583759308,-3940.0,4136.0,-15184.0,-10118.0,756.0,90.0,0.23180343908323295,-0.6791844661285935,-0.12416936139181277,0.6852427280098292
-7537.225147247314,-4028.0,3896.0,-15520.0,-10485.0,1051.0,-246.0,-0.26764177286465857,-0.7003891348690157,-0.5478570565730979,0.3710466099270489
-7537.240742444992,-4252.0,2928.0,-15816.0,-10520.0,1163.0,266.0,-0.6342254557183414,-0.371062680189727,-0.6606109661854993,-0.15383013373438734
-7537.256362199783,-4656.0,2616.0,-16596.0,-10480.0,1024.0,1090.0,-0.6609233774998079,0.11735510421248536,-0.39780650727704625,-0.6254262957036267
-7537.271978855133,-4368.0,2992.0,-17120.0,-10300.0,673.0,1766.0,-0.3215909239622898,0.5070948101731674,0.07909114315570703,-0.7957252806055891
-7537.287549972534,-4648.0,2728.0,-17036.0,-9806.0,503.0,3240.0,0.2479180904777345,0.6235015345887269,0.4472734269632159,-0.5913788449986668
-7537.303113937378,-4516.0,2824.0,-16744.0,-9301.0,-360.0,5088.0,0.7562339487121095,0.4421175657726187,0.47163759246562015,-0.10099630797122339
-7537.318686246872,-4452.0,3228.0,-16460.0,-8682.0,-678.0,7024.0,0.8449691997385292,0.10910825913344835,0.16645764135473376,0.496401342581501
-7537.334246873856,-4240.0,4480.0,-15268.0,-8584.0,-394.0,7877.0,0.4144807602394384,-0.2749828387669526,-0.2167375054581113,0.8400089234661738
-7537.349813938141,-3820.0,4700.0,-13692.0,-9704.0,970.0,5533.0,-0.14705907672365606,-0.5732007381114891,-0.5433228900533452,0.5954954063010988
-7537.36540389061,-5484.0,1248.0,-15444.0,-9114.0,1906.0,3088.0,-0.511224831037399,-0.5331310004630301,-0.6737673761963628,0.02140166464414683
-7537.381006002426,-5512.0,1864.0,-16812.0,-7932.0,1480.0,4078.0,-0.6285671588273036,-0.3312555890023234,-0.44364245436104816,-0.5462183027755481
-7537.39657831192,-4124.0,6344.0,-14752.0,-9091.0,425.0,5373.0,-0.45487802159486557,-0.015071176290984409,0.08926550358334397,-0.8859404692106345
-7537.412172079086,-4196.0,6136.0,-14364.0,-8789.0,1276.0,4793.0,-0.07940295561719161,0.35264608621228194,0.5434897901594987,-0.7575980177579651
-7537.427790880203,-5124.0,5228.0,-15964.0,-8723.0,1009.0,2838.0,0.25615325213179885,0.47861203599366353,0.7989766626363544,-0.25875146953549155
-7537.443372964859,-4828.0,4516.0,-15944.0,-8151.0,474.0,3405.0,0.5068400257262672,0.4310610024584895,0.6739090409664837,0.3211638288863066
-7537.4589557647705,-3820.0,4940.0,-14948.0,-7183.0,654.0,4465.0,0.4929576872266716,0.287544032591821,0.2682988854227633,0.7760971949478156
-7537.474529504776,-2928.0,5000.0,-14092.0,-7499.0,1502.0,3583.0,0.32468143588813503,-0.042446761141939085,-0.21302754737000779,0.9205430471844851
-7537.4901349544525,-2216.0,3240.0,-14128.0,-6891.0,2992.0,3463.0,0.06201578744031051,-0.43993995935841745,-0.5425504358318403,0.7129136685788487
-7537.505705356598,-3544.0,4760.0,-14724.0,-6479.0,2173.0,4177.0,-0.2817730717315266,-0.6623124737238739,-0.6340027004734521,0.2828191984097133
-7537.5213050842285,-3520.0,6716.0,-14184.0,-6658.0,1999.0,3849.0,-0.53487364868957,-0.6252997654159894,-0.513558172243148,-0.24324552828467821
-7537.536885499954,-2256.0,5676.0,-14312.0,-6927.0,2705.0,5069.0,-0.5378502812764037,-0.3711620184333559,-0.17015832262178937,-0.7375648962944954
-7537.552501678467,-2712.0,4672.0,-15068.0,-5991.0,2422.0,6433.0,-0.22058099555638894,-0.023344054077602452,0.24254039878725464,-0.9444433463658336
-7537.56809258461,-3064.0,4636.0,-15004.0,-4979.0,1660.0,8456.0,0.3255414895120084,0.2932512981310096,0.48195812087516865,-0.7587771639112877
-7537.583701848984,-3452.0,5568.0,-14532.0,-4181.0,1439.0,10014.0,0.7484018672152422,0.4997217888046126,0.39300049795513586,-0.18900631616343597
-7537.5993049144745,-3684.0,6264.0,-14104.0,-4039.0,1555.0,8943.0,0.7695731842510701,0.4295493487873659,0.12944723869075864,0.45440937868111386
-7537.614888429642,-4108.0,4552.0,-14192.0,-3536.0,1982.0,6512.0,0.5164625371375201,0.15565706224546308,-0.10104474173948581,0.8359589026222451
-7537.630455732346,-4352.0,4408.0,-14544.0,-1726.0,2505.0,6323.0,0.08589773356709349,-0.13683696950102292,-0.17036649561574502,0.9720455135010002
-7537.64602971077,-4664.0,6472.0,-14500.0,-1973.0,1217.0,3130.0,-0.17529776381189277,-0.2856464688129641,-0.2756617629004583,0.9009369463685267
-7537.661623001099,-3536.0,6892.0,-14100.0,-1801.0,1804.0,1080.0,-0.25443256268336095,-0.4142688650385024,-0.4062547809552323,0.7736940166868972
-7537.67719078064,-3624.0,5568.0,-14436.0,-1041.0,2291.0,713.0,-0.2524972800351709,-0.557005314792301,-0.4891068224663284,0.6219041076282273
-7537.692767381668,-3872.0,6036.0,-14036.0,-696.0,1609.0,351.0,-0.23388024127095833,-0.6364570840209964,-0.538782765775348,0.4999355400909152
-7537.7083349227905,-4568.0,6476.0,-13416.0,-515.0,1460.0,-199.0,-0.18349471688261812,-0.6742174163103789,-0.5965945450446237,0.3947600704768954
-7537.723955154419,-4024.0,6212.0,-13420.0,-613.0,1286.0,-941.0,-0.11893857216097357,-0.6526352276219713,-0.6860947189345559,0.2986551730160375
-7537.739534854889,-3620.0,5460.0,-14052.0,-667.0,1922.0,-3105.0,0.03709058516109594,-0.48516483383390296,-0.856463631010139,0.17236421107717664
-7537.755152225494,-3176.0,4692.0,-14324.0,471.0,2596.0,-3910.0,0.2863950058406089,-0.2131260348558116,-0.9308125731883607,0.07837823352601926
-7537.770737409592,-4056.0,6360.0,-14428.0,719.0,1985.0,-4301.0,0.45227408064251545,0.1297995073373721,-0.8823540355708206,-0.007183299090953555
-7537.786315441132,-3612.0,7664.0,-14064.0,489.0,1517.0,-4636.0,0.5152291681621053,0.4662650353046451,-0.7082521298832062,-0.12455818577373813
-7537.801931858063,-2980.0,6808.0,-13340.0,787.0,1889.0,-4146.0,0.5143283483150134,0.7220199713509478,-0.42958528992110584,-0.17207553508075005
-7537.81754899025,-3928.0,5936.0,-13704.0,1479.0,1307.0,-4166.0,0.3778628805588205,0.8946385900350884,-0.12122342362153614,-0.20529568500407636
-7537.83314538002,-4216.0,5972.0,-13816.0,2103.0,1115.0,-4342.0,0.13533784914751767,0.9454602176142256,0.19903599883400427,-0.21948420140214023
-7537.848730802536,-4296.0,5984.0,-14396.0,2369.0,1678.0,-5706.0,-0.17320135022582847,0.7914340940250684,0.5624206572079467,-0.16527665122590804
-7537.864337921143,-3476.0,6236.0,-14280.0,2503.0,1684.0,-6880.0,-0.44136313760599116,0.3681834715298137,0.8163538554578377,-0.05662062110197797
-7537.879933357239,-3316.0,5104.0,-15440.0,3482.0,1532.0,-6960.0,-0.5727251283619138,-0.20904209928405146,0.7925769395542859,0.010446193397988817
-7537.895502567291,-2500.0,5380.0,-14872.0,4230.0,543.0,-5551.0,-0.4503890233719437,-0.6869529127410771,0.5701687548172161,-0.012369896232477025
-7537.911463499069,-1108.0,7412.0,-14484.0,4547.0,882.0,-4023.0,-0.19905402511969802,-0.9388721368414693,0.2551647842552792,-0.11742035012014265
-7537.927161216736,2904.0,13320.0,-17220.0,5002.0,-865.0,2648.0,0.22993213664810488,-0.8728501079889125,0.38992106200704185,-0.18227854213670228
-7537.942812204361,-3036.0,24456.0,-16292.0,-677.0,-4470.0,2031.0,0.33282479880347476,-0.8154336643870521,0.42744307712609875,0.20393138086793594
-7537.958446979523,-5976.0,4272.0,-16156.0,4367.0,3760.0,-1599.0,0.4711978631130706,-0.7227451369377275,0.44390367086040095,-0.2419949830620511
-7537.974039316177,-3628.0,-1416.0,-18672.0,8446.0,3042.0,-7896.0,0.49765407112684157,-0.4271459907652941,-0.07422593103953556,-0.7512504503994191
-7537.989620447159,-10252.0,9572.0,-22980.0,8884.0,-708.0,-9485.0,0.13362397910892748,-0.017422685617773298,-0.6880065998953419,-0.7130834458416576
-7538.005204439163,-9076.0,4840.0,-17880.0,7041.0,-82.0,-10785.0,-0.35347802588838906,0.4700145233389409,-0.7601142824390474,-0.27634382695599957
-7538.020796060562,-5668.0,-264.0,-12316.0,7381.0,-492.0,-8716.0,-0.6363170898315919,0.5725152534095052,-0.4004025893040025,0.327115594676185
-7538.036380290985,-6916.0,1948.0,-10704.0,5058.0,112.0,-6370.0,-0.573447244597865,0.4168211888366973,0.045539611022085424,0.7038071454793818
-7538.052001237869,-2132.0,3460.0,-13368.0,5661.0,1186.0,-2167.0,-0.5729810316164167,0.04603809032491937,0.3634227095160323,0.7331419820573959
-7538.067611217499,-4508.0,4132.0,-13924.0,4097.0,1741.0,-2829.0,-0.42103828632790946,-0.32705184923765573,0.499687954150074,0.6826974423810306
-7538.083220481873,-3068.0,-8.0,-15708.0,3468.0,1552.0,-1305.0,-0.29426377353178507,-0.5699615747605878,0.5776871902969541,0.5048070374411153
-7538.098814964294,-2296.0,1724.0,-15696.0,3473.0,907.0,1959.0,-0.2386264529156559,-0.565515320731858,0.7580522680153643,0.2204690385137986
-7538.114419698715,-2516.0,6084.0,-14744.0,2635.0,1400.0,1592.0,-0.22205353952045442,-0.519935911807511,0.8230818522344759,-0.05380648401070973
-7538.130020618439,-2864.0,7064.0,-14464.0,2088.0,1976.0,-353.0,-0.26252472747799205,-0.5590017596652503,0.7358745952955809,-0.2776443411134555
-7538.145615339279,-4232.0,5436.0,-15136.0,2393.0,2072.0,-853.0,-0.2878661782915119,-0.5946787729019679,0.5661805916471394,-0.49287905017128125
-7538.161229133606,-4788.0,5472.0,-14940.0,2420.0,1546.0,-599.0,-0.25611175965915484,-0.5994199132697468,0.3799899553140788,-0.6562851270601714
-7538.176860809326,-4972.0,4636.0,-15028.0,3035.0,1725.0,219.0,-0.1357881572935788,-0.5369558535196337,0.17131692151108874,-0.8147947595031396
-7538.192488670349,-5272.0,4472.0,-15376.0,3196.0,1833.0,715.0,0.03555401749573939,-0.4124871710053701,-0.04198430779531756,-0.9093005902862085
-7538.208077669144,-4160.0,3864.0,-16000.0,3658.0,1736.0,1022.0,0.23926028689051618,-0.25120375556292907,-0.2726996770243492,-0.8973773311483658
-7538.223701000214,-3232.0,4856.0,-15712.0,3656.0,1481.0,169.0,0.34772262352535277,-0.05954632137323821,-0.49603362785537863,-0.793406486447012
-7538.239312171936,-1188.0,4916.0,-14924.0,2638.0,1468.0,-837.0,0.35391957140099584,0.15278015754408242,-0.6161169994240036,-0.6868762650295198
-7538.254884719849,-1460.0,3512.0,-15760.0,2282.0,1632.0,-1163.0,0.3300007662409909,0.37087243328639347,-0.6642541825642707,-0.5588555389852202
-7538.270478248596,-2392.0,3516.0,-16860.0,2257.0,681.0,-921.0,0.24542971628221874,0.5102604167538771,-0.7079631018742552,-0.4221217926669655
-7538.28605055809,-3320.0,4188.0,-14956.0,2430.0,725.0,-3.0,0.17740680475921433,0.5753604045927778,-0.7633935986220843,-0.2339176009512426
-7538.301617383957,-3584.0,4068.0,-15824.0,2642.0,749.0,249.0,0.09667587744151274,0.5979572214423327,-0.7955176149633771,-0.015895292663510172
-7538.317190408707,-4792.0,3968.0,-16308.0,2767.0,305.0,-268.0,-0.026347356577483372,0.6221156727722437,-0.7604857007061212,0.1842265060029022
-7538.3327605724335,-5276.0,4024.0,-16088.0,3478.0,129.0,-1034.0,-0.18115726670935045,0.6489428619240959,-0.6185010190645501,0.40436579490885977
-7538.348342418671,-4504.0,4412.0,-15688.0,3165.0,-556.0,-1606.0,-0.31841671351709955,0.6730398035813718,-0.3885349360481309,0.5428340656390245
-7538.363974094391,-3032.0,4748.0,-15588.0,3277.0,-215.0,-1533.0,-0.42474406123386466,0.6143472652606671,-0.13096756493397707,0.6519335986498678
-7538.3795664310455,380.0,5232.0,-16456.0,2514.0,-547.0,-3431.0,-0.34692816338028204,0.5542046963950692,0.20259237978379704,0.7290091437017585
-7538.395135879517,1832.0,3076.0,-15712.0,2787.0,-593.0,-2829.0,-0.2747556827610716,0.4320020833544777,0.504702232866449,0.6950965191306234
-7538.410719871521,748.0,1972.0,-16280.0,4541.0,-1336.0,740.0,-0.39843755205053116,0.40305629952682426,0.7237149341569277,0.3937382767854264
-7538.426289558411,704.0,4488.0,-15972.0,4450.0,-1012.0,1830.0,-0.5088065088666691,0.36640285524486627,0.7789187695685759,0.01226517904873398
-7538.441874027252,-1544.0,4808.0,-15244.0,4380.0,-830.0,496.0,-0.5519466006642232,0.19233946728563436,0.7494174355430707,-0.3110208781473272
-7538.4574456214905,-3424.0,2928.0,-15464.0,4497.0,-978.0,-837.0,-0.5425396712163735,-0.0977040381325573,0.6376525994291292,-0.5380555626794464
-7538.473038673401,-3480.0,2764.0,-16260.0,4125.0,-849.0,-1448.0,-0.4921275979408676,-0.38544087298014695,0.4399906343725868,-0.6447123408510672
-7538.4886729717255,-3080.0,1812.0,-15448.0,3742.0,-1059.0,-1362.0,-0.37839146599788553,-0.6193899862154746,0.21575910644186888,-0.6531645668768106
-7538.504234313965,-3092.0,444.0,-15932.0,3866.0,-1232.0,999.0,-0.08377305904677246,-0.7503326593785699,0.08467625242939128,-0.650240653237202
-7538.519802331924,-4160.0,524.0,-15240.0,3887.0,-1077.0,2357.0,0.2893723817193116,-0.7617574920444257,0.024379518084327832,-0.5791327888405697
-7538.535377264023,-6120.0,2576.0,-15256.0,3339.0,-1014.0,1815.0,0.5723928881610247,-0.6857354300290885,-0.046647696188274836,-0.4471658462202007
-7538.550943374634,-5480.0,2744.0,-15788.0,2538.0,-1062.0,68.0,0.702517357165749,-0.584286556914599,-0.1892899172040469,-0.3595106528805783
-7538.56654882431,-3996.0,1232.0,-16356.0,1653.0,-1032.0,-367.0,0.7469909959936167,-0.5020482142229838,-0.31845889544537165,-0.2975499528006868
-7538.58225941658,-1572.0,-720.0,-15832.0,1514.0,-1074.0,894.0,0.793787056357704,-0.4491211459703803,-0.38259953399545715,-0.14768175915692044
-7538.597856283188,464.0,612.0,-16260.0,1181.0,-1059.0,1589.0,0.8096068102249667,-0.4261052909575752,-0.40144874783466344,0.042544056192324584
-7538.61344575882,1336.0,1936.0,-16780.0,1346.0,-658.0,2876.0,0.7945553294217059,-0.4132673988781913,-0.32350861797525776,0.30534252833131065
-7538.629026889801,1888.0,3584.0,-15984.0,1143.0,129.0,2921.0,0.7344096547069574,-0.40517713815254625,-0.1726117315825879,0.5164098526478562
-7538.6446080207825,-540.0,2220.0,-15688.0,1047.0,236.0,2316.0,0.654458108113476,-0.3746984444749562,-0.027815489192553507,0.6561341013798604
-7538.660187721252,-3892.0,1628.0,-15812.0,707.0,-401.0,1456.0,0.5869497114442986,-0.3119091963807347,0.03705765850945657,0.7462100370501427
-7538.675806045532,-5560.0,3108.0,-14868.0,734.0,-53.0,554.0,0.5690970364265013,-0.26846746377141045,0.09707258356560246,0.7711230106452658
-7538.691424369812,-7068.0,2592.0,-14896.0,474.0,-534.0,-220.0,0.5981919024178166,-0.21065768479263566,0.09728349192597761,0.767023930472999
-7538.706978797913,-8436.0,2240.0,-15952.0,839.0,-296.0,-129.0,0.622792300006348,-0.14792997718419099,0.13540721741569794,0.7562482121465318
-7538.72258067131,-4876.0,3496.0,-15428.0,446.0,238.0,-1596.0,0.7233238671081094,-0.15675388170995014,0.15579112997582104,0.6541864624566074
-7538.7381546497345,-1172.0,2520.0,-15404.0,604.0,532.0,-2322.0,0.8377867814961524,-0.1766909218646538,0.188098628099887,0.48115749291461485
-7538.753730773926,2116.0,1952.0,-16808.0,966.0,1891.0,-1672.0,0.8679146477374801,-0.20737294834405048,0.3322777118345726,0.30547036968551067
-7538.769356250763,3856.0,1092.0,-15048.0,-310.0,1168.0,-3187.0,0.8753481778644495,-0.33983376129565246,0.34030378206195017,0.04971838802063411
-7538.784935712814,1556.0,-152.0,-15496.0,-507.0,455.0,-1219.0,0.8456572052390351,-0.41389009030864277,0.334413188299625,-0.041553626350624755
-7538.800526380539,1484.0,1408.0,-15520.0,-1768.0,393.0,-1841.0,0.7447600333514458,-0.5822605373922837,0.29605813613716625,-0.1365823537100956
-7538.8161034584045,-5944.0,4428.0,-16308.0,-976.0,882.0,-4851.0,0.5626394661463842,-0.6966194045511053,0.1087061665603062,-0.43167256768196227
-7538.831724882126,-4884.0,5940.0,-15396.0,-2192.0,1230.0,-9917.0,0.03274728554313137,-0.6356647587272949,-0.26198100079390957,-0.72541290657442
-7538.847310066223,-7876.0,-228.0,-15816.0,-769.0,-903.0,-7589.0,-0.4245133857069105,-0.43330086092121706,-0.5291071884299517,-0.5933669458541986
-7538.862908840179,-9724.0,-412.0,-16544.0,227.0,-341.0,-3648.0,-0.5909460329624835,-0.2770685205595317,-0.6346051421579005,-0.413874539670667
-7538.878475427628,-8868.0,820.0,-15072.0,-485.0,652.0,-4056.0,-0.670559623399658,-0.003666394053200286,-0.7044863144243014,-0.2324551178391641
-7538.894062757492,-6256.0,912.0,-13708.0,-517.0,1367.0,-5403.0,-0.625451855660053,0.34724465098870433,-0.6971983383985408,0.046320681616773975
-7538.909623622894,-3156.0,1216.0,-14992.0,-676.0,2103.0,-4716.0,-0.4166897130592456,0.6032294333187616,-0.6117768553491906,0.297006755929196
-7538.92541384697,-1152.0,1604.0,-16264.0,-1321.0,2291.0,-5082.0,-0.08308852060541025,0.7721649008032965,-0.41315312371654167,0.47556509551722115
-7538.940980195999,-1432.0,-2284.0,-16420.0,-893.0,489.0,-2511.0,0.09626590439921257,0.8262270042186847,-0.27702177313675846,0.48097895001567986
-7538.956550836563,-4096.0,-964.0,-17648.0,-4.0,429.0,559.0,0.08322670266941203,0.7933249484134431,-0.3133675112460289,0.5152762803419684
-7538.972131967545,-4856.0,2936.0,-15456.0,-128.0,271.0,342.0,0.08404257297088993,0.7704083921430224,-0.3406112705707742,0.5323454870703784
-7538.9877462387085,-4880.0,4696.0,-15744.0,452.0,918.0,-1150.0,0.13318724668466578,0.7586181743014128,-0.23349453417476965,0.5934980416569684
-7539.003315925598,-3384.0,2612.0,-15676.0,331.0,696.0,-2453.0,0.24636945671051547,0.7577578126658078,-0.04476993515215531,0.6025784936840742
-7539.018899440765,-2400.0,736.0,-15804.0,-250.0,546.0,-2408.0,0.38272343627694744,0.7166817856506095,0.11050937948067865,0.5724313639973045
-7539.0344915390015,-2172.0,608.0,-16092.0,-507.0,811.0,-2611.0,0.521802621570563,0.6163935604169073,0.2678630193434765,0.5253859587644619
-7539.050076007843,-2164.0,1960.0,-15284.0,-656.0,848.0,-3015.0,0.6504926854325506,0.459785757233093,0.4225503818129061,0.4323279987163765
-7539.065661907196,-3304.0,1180.0,-16052.0,-663.0,651.0,-2823.0,0.7351248734735395,0.2842459313835322,0.5304162966752051,0.31217658963122386
-7539.081246852875,-3796.0,-376.0,-16248.0,-425.0,363.0,-446.0,0.7394128472700192,0.22608706916920354,0.5523638289811892,0.3115244434707534
-7539.096872329712,-4892.0,160.0,-15564.0,5.0,251.0,367.0,0.7165385028537972,0.237143631900183,0.5612866466240616,0.33954789367443516
-7539.112483739853,-5164.0,2400.0,-16036.0,409.0,376.0,254.0,0.6809936976901815,0.26370472125892047,0.5910549748502092,0.34258053125772814
-7539.128080606461,-3116.0,2876.0,-15920.0,731.0,581.0,19.0,0.6313469882392768,0.2898783000412203,0.6450672060290589,0.3182135310012298
-7539.143642663956,-2648.0,920.0,-15488.0,48.0,713.0,-760.0,0.6083807475950619,0.229067024258446,0.7022101025147748,0.2903483016641276
-7539.159273147583,-628.0,740.0,-16800.0,-565.0,828.0,-1457.0,0.5985429900609908,0.08783917216461382,0.7522783729603778,0.2609747467828468
-7539.174858570099,888.0,2292.0,-14972.0,-1461.0,701.0,-1974.0,0.593872731125637,-0.1307612394479323,0.7525045871905169,0.25289033935808436
-7539.1904554367065,-288.0,1612.0,-15488.0,-1354.0,733.0,-1918.0,0.5596262427375802,-0.3354325836305809,0.7224784146284756,0.22875399597440194
-7539.206008195877,-2108.0,224.0,-16428.0,-1228.0,506.0,-423.0,0.496314794688412,-0.4290807371096124,0.7052661110505675,0.26862810392525893
-7539.22158741951,-4316.0,1104.0,-16728.0,-1075.0,41.0,-88.0,0.45335201767428424,-0.47996769389707084,0.6757187764430161,0.3278827474084848
-7539.23717045784,-5656.0,2432.0,-15804.0,-791.0,62.0,-228.0,0.42175983848568355,-0.5251879681900877,0.6444815891108338,0.3618559354302095
-7539.252748250961,-5276.0,2820.0,-15668.0,-209.0,501.0,-655.0,0.40334207468592126,-0.5840013875696104,0.6247358033940978,0.32551916389416735
-7539.2683362960815,-3448.0,2836.0,-15888.0,45.0,676.0,-868.0,0.39137849633346206,-0.6460384220072181,0.6029352840457363,0.25676112079298397
-7539.283954620361,-2340.0,1596.0,-15912.0,178.0,1021.0,-501.0,0.3568487263484396,-0.6858204669208121,0.6105849903799867,0.17174179217268887
-7539.29953789711,-2452.0,-1164.0,-16120.0,494.0,565.0,1717.0,0.3259772114751199,-0.5798138546566004,0.7287373844353597,0.16277768911454177
-7539.315101861954,-3344.0,48.0,-16144.0,732.0,468.0,2429.0,0.2911802486013476,-0.40119975940332475,0.8540602303426228,0.15758787652061887
-7539.330680847168,-1260.0,4460.0,-16296.0,-405.0,-19.0,-483.0,0.284318012199969,-0.4465515257960774,0.8299513522905746,0.17588563209909971
-7539.346254348755,-892.0,4432.0,-15000.0,-664.0,359.0,-2069.0,0.2591457650323549,-0.6072792603527025,0.7347034883639368,0.1557759820933022
-7539.361866235733,-1484.0,324.0,-16232.0,-349.0,-101.0,-1555.0,0.2654218180778632,-0.7067257537482208,0.6391762722065838,0.14677758863445747
-7539.377416849136,-3016.0,-300.0,-16520.0,-24.0,-512.0,14.0,0.2917467970276392,-0.6993188786223246,0.6273272182069091,0.17971497912892215
-7539.392975568771,-3596.0,2328.0,-16120.0,125.0,96.0,201.0,0.2905907951734077,-0.6865173756675185,0.6439373265454702,0.17203372386989255
-7539.408531188965,-4204.0,2868.0,-15512.0,302.0,247.0,-583.0,0.3026811791096138,-0.7140301964118032,0.6187578385218793,0.1252346585122011
-7539.424142837524,-3872.0,1944.0,-16084.0,344.0,685.0,-1076.0,0.29661246476940045,-0.7655061502739641,0.5698887400348506,0.03532992524258428
-7539.439770698547,-3060.0,1320.0,-15844.0,307.0,582.0,-325.0,0.2882838848905969,-0.7739857546848637,0.5631201087284974,-0.027096058807365018
-7539.455327987671,-2324.0,1008.0,-16088.0,491.0,393.0,415.0,0.3021725030680902,-0.7387792821080142,0.5986641549409191,-0.06706847475831951
-7539.470937728882,-2760.0,1088.0,-16056.0,425.0,374.0,627.0,0.3125861758304257,-0.6908118414570593,0.6448021768655648,-0.09643150466442753
-7539.4865164756775,-2952.0,1848.0,-16288.0,58.0,105.0,-424.0,0.30612825835414653,-0.7117326781926059,0.6212544596241446,-0.11732425421433228
-7539.502095222473,-1796.0,2516.0,-15512.0,-276.0,243.0,-999.0,0.26418691579787845,-0.7675350089687994,0.5661672956734722,-0.14335228229176158
-7539.51766705513,-1832.0,992.0,-15844.0,-280.0,0.0,-1053.0,0.23097503897305222,-0.8223709346305733,0.4969679788093121,-0.1529032546560779
-7539.533290863037,-3184.0,796.0,-15980.0,-74.0,-20.0,-108.0,0.2248820637187049,-0.8288152224501417,0.48983723404958884,-0.1501761252369597
-7539.548884391785,-3252.0,1404.0,-16056.0,-169.0,108.0,-147.0,0.20587136492494787,-0.8368593571696824,0.48349003106026417,-0.15336488283446612
-7539.564524173737,-3324.0,2212.0,-15564.0,-122.0,376.0,-424.0,0.17501241970335332,-0.8508799007589268,0.46038465929504585,-0.18281141353821628
-7539.580096244812,-3020.0,1360.0,-15864.0,-2.0,410.0,-242.0,0.15424268026416926,-0.8534221916220665,0.44838024267269594,-0.21641376206860874
-7539.595702171326,-3176.0,668.0,-15944.0,34.0,187.0,511.0,0.15881601885538357,-0.8285657065783817,0.4878212661539265,-0.22424708320326883
-7539.611237287521,-3068.0,780.0,-16260.0,154.0,125.0,1243.0,0.18771081325024622,-0.7665216675718507,0.5730367179399519,-0.2209934470168927
-7539.626810789108,-3064.0,1668.0,-16356.0,-182.0,206.0,394.0,0.17253932401488428,-0.7452292124022414,0.6058161506948117,-0.2187473296023132
-7539.642398357391,-2000.0,2524.0,-15676.0,-563.0,91.0,-187.0,0.12720608197126834,-0.7608649438603187,0.6049999863039295,-0.19717547130968943
-7539.658020496368,-2444.0,1084.0,-15996.0,-287.0,-112.0,157.0,0.11659925833282048,-0.7573855522974259,0.618892370174443,-0.1724644086970402
-7539.673634290695,-2468.0,1220.0,-15944.0,-271.0,-198.0,854.0,0.12173281109478189,-0.7147422547807472,0.6752883215108779,-0.13531561168215808
-7539.689208984375,-2928.0,1536.0,-15740.0,-407.0,-141.0,584.0,0.11121268168248619,-0.6849579382061963,0.7136381417820414,-0.09583822262115053
-7539.7047781944275,-2936.0,1924.0,-15628.0,-471.0,12.0,238.0,0.08408863419571473,-0.6738965147388996,0.731181597115314,-0.06454503127090416
-7539.720325708389,-2936.0,1828.0,-15464.0,-266.0,164.0,-169.0,0.05690446474604072,-0.6853810293251075,0.7236275064532428,-0.058120206791483706
-7539.735927581787,-3480.0,1528.0,-15928.0,-449.0,173.0,-242.0,0.017855751131650804,-0.7012390143680153,0.7115253358898688,-0.040947689391570216
-7539.751493930817,-3580.0,784.0,-16280.0,-318.0,-54.0,597.0,0.003973377731730729,-0.663689547714489,0.7478127039232815,-0.016629984211916762
-7539.767118215561,-3008.0,1236.0,-15984.0,-317.0,-15.0,1112.0,-0.011621600640532002,-0.5882580813271495,0.8085704372230095,0.005587146037509885
-7539.782696008682,-2568.0,2236.0,-15900.0,-277.0,101.0,276.0,-0.03297421652566134,-0.5681994091145339,0.8219876666292486,0.0199601712371647
-7539.798268318176,-2264.0,2328.0,-15996.0,-439.0,326.0,371.0,-0.07847406777939407,-0.5400053236458402,0.8372873706336853,0.034437335809203495
-7539.813843488693,-2500.0,1468.0,-16188.0,-446.0,56.0,354.0,-0.10421479573932768,-0.5106462914667236,0.8511963297982653,0.062003624879962804
-7539.829422235489,-2204.0,1924.0,-15880.0,-370.0,-21.0,430.0,-0.12100199937576599,-0.47468429517126065,0.8674999852240602,0.08647029374927309
-7539.844992876053,-2748.0,1772.0,-15688.0,-274.0,-128.0,4.0,-0.1223253129521311,-0.47040320780285916,0.866667910757377,0.11244586414531352
-7539.8605716228485,-2908.0,2544.0,-15720.0,-280.0,-21.0,-150.0,-0.13038521742394335,-0.47842151998294885,0.8576746539521244,0.13603945112583904
-7539.876187324524,-2908.0,1324.0,-16188.0,-215.0,-286.0,-358.0,-0.11328391739493365,-0.49894051688777036,0.8426374162361077,0.167890736571018
-7539.891811847687,-3172.0,1488.0,-16000.0,-148.0,-228.0,-108.0,-0.10105107205638501,-0.5019742029477314,0.8377774697875119,0.189577138726376
-7539.907370567322,-2800.0,1696.0,-15988.0,-240.0,-178.0,-37.0,-0.09763731781659801,-0.4995085675042475,0.833507838536802,0.2149949493758951
-7539.92315196991,-2660.0,2372.0,-15852.0,-12.0,-208.0,-391.0,-0.0753936928227753,-0.5236152397145956,0.8174404733540575,0.22789020238673285
-7539.938731908798,-2536.0,1936.0,-15844.0,-306.0,-224.0,-481.0,-0.06353973145498434,-0.5507389431627585,0.7897748203930528,0.262497718244783
-7539.954283237457,-2232.0,2192.0,-15716.0,-584.0,93.0,-992.0,-0.07477586806597138,-0.6149548586568208,0.7246060504836086,0.3019688112568847
-7539.9698984622955,-2116.0,2272.0,-15616.0,-702.0,348.0,-1394.0,-0.09667078038133427,-0.7009785828021902,0.623071489495185,0.3332652181841792
-7539.9859738349915,-2204.0,1808.0,-15728.0,-980.0,288.0,-2099.0,-0.10888204611546334,-0.798909576879784,0.45448859049868706,0.37858725428887796
-7540.0017013549805,-3836.0,348.0,-16604.0,-517.0,-183.0,-902.0,-0.10726423398769504,-0.8203839992482217,0.3747165172238204,0.4183921720158936
-7540.017379045486,-3772.0,1372.0,-16188.0,-203.0,-356.0,430.0,-0.12558043777595435,-0.7905082371850998,0.40092794837789947,0.44562659346138006
-7540.032965421677,-3384.0,2392.0,-15704.0,-61.0,-132.0,164.0,-0.13143300444390554,-0.778965774708601,0.4113019173842737,0.45471795646477153
-7540.048551082611,-3380.0,3428.0,-15240.0,227.0,17.0,-778.0,-0.0854558246009812,-0.8082746964989904,0.36638676331162423,0.45293493650993966
-7540.064133882523,-3092.0,2196.0,-15852.0,-32.0,36.0,-1591.0,-0.025683318810171153,-0.8522779326425972,0.2502986612672782,0.4585992507987382
-7540.0798008441925,-2660.0,1564.0,-15776.0,7.0,214.0,-1492.0,0.029615921584510704,-0.8859515786692045,0.13799810809521615,0.4417796052381608
-7540.09543633461,-1968.0,1496.0,-15948.0,-126.0,111.0,-1086.0,0.06007568963731678,-0.8996467658983034,0.04928052237406532,0.42964873820117694
-7540.111018419266,-2436.0,1108.0,-15664.0,-237.0,-128.0,-844.0,0.07336956581358511,-0.8971864991351226,-0.026431344999179946,0.434712176714114
-7540.126642465591,-3124.0,1204.0,-15744.0,-126.0,-87.0,-259.0,0.07300861600682139,-0.8939319637725585,-0.052007934206082525,0.4391475388911128
-7540.142205476761,-3808.0,1756.0,-15872.0,-215.0,63.0,-473.0,0.07445761203513371,-0.8947781256532625,-0.09661603757102798,0.4295270784788002
-7540.157792329788,-3652.0,2124.0,-15828.0,-231.0,143.0,-520.0,0.07688757350360392,-0.8962187204579041,-0.14473276540960536,0.41222898097830685
-7540.173374414444,-3372.0,1200.0,-16188.0,-301.0,233.0,-643.0,0.07913704400889836,-0.8967253798716244,-0.20384238597663934,0.38479761308897886
-7540.188931941986,-2600.0,1424.0,-15988.0,-750.0,113.0,-88.0,0.02523096699606744,-0.9022498203448887,-0.23460870635967584,0.36092577476857907
-7540.204530715942,-2808.0,2432.0,-15724.0,-388.0,202.0,-442.0,0.012599344268682536,-0.8992059069747699,-0.28076039818867377,0.3353260982903327
-7540.220103979111,-2428.0,1956.0,-15960.0,-399.0,57.0,-517.0,-0.002281523935103451,-0.8873014232039379,-0.3323979968871881,0.31969133659544935
-7540.235725641251,-2856.0,1568.0,-15884.0,-479.0,159.0,-717.0,-0.014802439013678665,-0.8684041864400825,-0.40014294393939076,0.2924733854354995
-7540.251312971115,-2052.0,1864.0,-15900.0,-427.0,72.0,-614.0,-0.028993271162802065,-0.8465233809039778,-0.4566931248224852,0.2720090909327355
-7540.266934633255,-2072.0,2276.0,-15652.0,-565.0,-44.0,-562.0,-0.05908566943557316,-0.8197499197286383,-0.5102813201625058,0.2532428223374786
-7540.282534360886,-2956.0,1920.0,-15840.0,-583.0,76.0,-1054.0,-0.0737683889779321,-0.767325752625299,-0.5956682538920959,0.22571828780752498
-7540.2981498241425,-3444.0,1416.0,-16148.0,-475.0,18.0,-827.0,-0.08809099894589943,-0.7192206114887297,-0.6582517983684509,0.20412314385975838
-7540.3137383461,-3212.0,1716.0,-15648.0,-278.0,-17.0,-467.0,-0.09812585947085274,-0.6892496195640898,-0.6916187074834006,0.19227543028908922
-7540.329302549362,-3076.0,2024.0,-15956.0,-211.0,167.0,-624.0,-0.0901357368848174,-0.6515061140714854,-0.7328476216910464,0.17421164038456416
-7540.344885826111,-2856.0,2336.0,-15656.0,-293.0,207.0,-1061.0,-0.07710916564724592,-0.5817829723477919,-0.7954738093736002,0.15101049056276653
-7540.36049246788,-3012.0,1752.0,-15820.0,-197.0,143.0,-771.0,-0.06692930772509306,-0.5275617019125787,-0.8361094402872382,0.13461100365536469
-7540.376086235046,-2884.0,1228.0,-16156.0,-234.0,46.0,-455.0,-0.0690068093351904,-0.49308633283632247,-0.8592232125538882,0.1176409777415171
-7540.391689538956,-2672.0,1992.0,-16116.0,-310.0,-51.0,-275.0,-0.08337271793034878,-0.46980400683621526,-0.8733587641238999,0.09786549030949716
-7540.4072732925415,-2912.0,1804.0,-16356.0,-488.0,-103.0,-526.0,-0.1065866634477648,-0.4244734392506516,-0.8965498333803282,0.06826403746850926
-7540.42285990715,-3068.0,1892.0,-15928.0,-300.0,-99.0,-364.0,-0.12318473038134475,-0.3923070280153374,-0.9100941038528328,0.05147271221684059
-7540.438438177109,-2984.0,1916.0,-15760.0,-165.0,-9.0,-408.0,-0.1275569218139751,-0.3578682790774426,-0.9240321214490569,0.042710245349897424
-7540.454030036926,-3136.0,2060.0,-15764.0,-273.0,-240.0,-853.0,-0.15169745841654067,-0.2842671128005645,-0.9459349641027769,0.03724423952601601
-7540.46960401535,-3428.0,1676.0,-16232.0,-84.0,-99.0,-602.0,-0.15958418579806846,-0.23284963994864166,-0.9584784959105145,0.040409227857922364
-7540.485197067261,-3168.0,1856.0,-15776.0,-80.0,28.0,-271.0,-0.15768005908649294,-0.2091476642380898,-0.9643917644223032,0.03664393844373066
-7540.500784635544,-2968.0,1692.0,-16000.0,-327.0,32.0,-792.0,-0.15777193670249867,-0.13775319778084585,-0.9776327810193607,0.01913682227133642
-7540.516357421875,-3048.0,2464.0,-15668.0,-315.0,161.0,-891.0,-0.14565058410073772,-0.05751372048794193,-0.987660231892338,0.0023120651206447584
-7540.531993627548,-2864.0,1596.0,-15740.0,-308.0,77.0,-911.0,-0.13963742829287232,0.024781279468463906,-0.9898044217643135,-0.013209218881965934
-7540.547557353973,-3228.0,1668.0,-15964.0,-176.0,42.0,-647.0,-0.13590739944061583,0.0826824705936513,-0.9870497843237204,-0.02062792040696628
-7540.563118457794,-3452.0,1440.0,-15980.0,-117.0,56.0,-353.0,-0.13056740705399464,0.11448131013067721,-0.9844557959742699,-0.026324278121671603
-7540.578688621521,-3424.0,2136.0,-15384.0,-87.0,211.0,-703.0,-0.11279118182110523,0.17594734829174577,-0.9776240249980918,-0.023915385822356097
-7540.594247579575,-2872.0,2152.0,-16080.0,-277.0,511.0,-1127.0,-0.06670449439673463,0.2741829365391389,-0.9589318216570181,-0.028705211227292773
-7540.609805583954,-2592.0,1608.0,-15948.0,-373.0,62.0,-1005.0,-0.05484372900966956,0.3590153852783094,-0.9302283982901266,-0.052680599240766755
-7540.625373601913,-2784.0,1012.0,-15976.0,-226.0,14.0,-431.0,-0.04884981700198709,0.3947922673424092,-0.9149014102620587,-0.06861610981400827
-7540.640953063965,-2576.0,1508.0,-15896.0,-365.0,146.0,-36.0,-0.025045345378478568,0.39985315705446983,-0.911530349330648,-0.09275023297864476
-7540.656537532806,-2848.0,2184.0,-15628.0,-707.0,99.0,-616.0,0.0021895248345453412,0.4497039616376791,-0.8815276986232049,-0.14377228324142383
-7540.672128915787,-3236.0,1912.0,-15852.0,-723.0,-255.0,-1118.0,-0.003324439032135452,0.5287352865158991,-0.8229060253739047,-0.2079750424964361
-7540.687734127045,-3152.0,1516.0,-15992.0,-657.0,-30.0,-688.0,0.012173932733024693,0.5758697712668117,-0.7766035916822882,-0.25517183090829554
-7540.703328609467,-3384.0,1708.0,-15972.0,-518.0,45.0,-756.0,0.024219199049361182,0.625628049867981,-0.7247645532836797,-0.28760965894646634
-7540.718910694122,-2724.0,2036.0,-15520.0,-301.0,-56.0,-48.0,0.035814556237361045,0.626470463180858,-0.7145122215133558,-0.30939353844502204
-7540.734473466873,-3512.0,1780.0,-16048.0,-33.0,-64.0,93.0,0.036020225456968764,0.618894368741252,-0.7189241705193291,-0.31435702750454136
-7540.75004529953,-3392.0,2080.0,-15816.0,53.0,-256.0,247.0,0.023754263030157305,0.5963347541268186,-0.7342215769484117,-0.32363447274941
-7540.76562666893,-3192.0,2004.0,-15740.0,43.0,-58.0,143.0,0.021751390467259952,0.5856487610653653,-0.7429909820499574,-0.3232751247278133
-7540.781223535538,-2968.0,1920.0,-15840.0,40.0,-75.0,-98.0,0.012001479462536532,0.5900041839191008,-0.7392747019762164,-0.32438240159824117
-7540.7967965602875,-2420.0,1708.0,-16048.0,47.0,143.0,176.0,0.023735104345662957,0.5827021528545164,-0.7494355317746669,-0.31343456987708695
-7540.812372207642,-3112.0,1908.0,-15616.0,98.0,214.0,128.0,0.036145900738886225,0.5803054607953686,-0.7580350659923447,-0.29550276607306236
-7540.827996492386,-3232.0,2236.0,-15736.0,52.0,294.0,-158.0,0.04874659669483706,0.5983161204218709,-0.750176905675446,-0.27726557583877043
-7540.843571186066,-3356.0,1956.0,-15812.0,-197.0,474.0,-469.0,0.07841653102554715,0.638551735527135,-0.7176368891337803,-0.26664550262772857
-7540.8591504096985,-3324.0,1576.0,-15980.0,-578.0,420.0,-1052.0,0.11157291618687991,0.7060021764805604,-0.6388204273992644,-0.28464165667675634
-7540.874786376953,-2324.0,1760.0,-15788.0,-621.0,420.0,-840.0,0.15148801240165585,0.7536779979616848,-0.5648949253742372,-0.29985760082662116
-7540.8903958797455,-2780.0,1740.0,-15980.0,-586.0,247.0,-542.0,0.18733268163115363,0.7771576950398503,-0.509349806403023,-0.3185830474937911
-7540.905999183655,-2936.0,1496.0,-16344.0,-767.0,227.0,-76.0,0.246519220469844,0.7725383406445199,-0.47804106410284447,-0.3374752245788901
-7540.921949148178,-3196.0,1900.0,-15692.0,-471.0,170.0,105.0,0.2879481017520565,0.7624112034027406,-0.4671769348369452,-0.3428713449381983
-7540.9375557899475,-3372.0,1840.0,-15788.0,-259.0,211.0,-12.0,0.3130559818796331,0.7625249714172857,-0.4531828747117446,-0.33937722705338674
-7540.953182697296,-3456.0,1904.0,-15948.0,-333.0,150.0,168.0,0.3456702470981991,0.7509161081138208,-0.4501739234205245,-0.3376100080246943
-7540.968808889389,-2956.0,2104.0,-16048.0,-360.0,157.0,338.0,0.38475664915675395,0.7308145860653902,-0.4565724090006149,-0.33077786664635567
-7540.984407663345,-2736.0,1900.0,-15904.0,-367.0,123.0,357.0,0.42268097374501035,0.7072363705117697,-0.4641924320071906,-0.3250890596845096
-7541.000066995621,-2192.0,2056.0,-15984.0,-736.0,201.0,-609.0,0.4570796629408586,0.7080673828153609,-0.39695735709080887,-0.36351563896255723
-7541.0156672000885,-2432.0,1800.0,-15784.0,-713.0,78.0,-313.0,0.4925394130423354,0.6915261022225049,-0.35114591048555377,-0.3948330357177992
-7541.031289339066,-2784.0,1872.0,-15788.0,-730.0,48.0,-377.0,0.52351347949656,0.6718347189674603,-0.30047693052365565,-0.4292847090200172
-7541.046881437302,-3168.0,2080.0,-16100.0,-561.0,-88.0,-17.0,0.5525810630662794,0.6427899487711388,-0.2822005062718878,-0.4492639811505343
-7541.062460422516,-3156.0,1936.0,-16032.0,-422.0,-103.0,-65.0,0.5705565018222432,0.6197812717957869,-0.2668436823347973,-0.46811419820121597
-7541.078044176102,-3144.0,2600.0,-15544.0,-613.0,50.0,-327.0,0.5902478217401192,0.5980546687722038,-0.22128604794553428,-0.4949450546024888
-7541.09361743927,-3212.0,2264.0,-15652.0,-590.0,93.0,-492.0,0.6000497498635012,0.5801142248227571,-0.16501738156412316,-0.5255254966495553
-7541.109182357788,-3408.0,2348.0,-15968.0,-473.0,67.0,-576.0,0.5971155977649082,0.565770016616901,-0.11046498845210387,-0.5578124573093043
-7541.124752283096,-2888.0,2072.0,-15880.0,-613.0,159.0,-1268.0,0.5627614931252523,0.5498709076417746,-0.009696169277778879,-0.6171284072913712
-7541.14032459259,-2760.0,1884.0,-15892.0,-484.0,49.0,-416.0,0.5626270251534785,0.5285452872115136,0.03867915396889849,-0.6345034538768846
-7541.1559545993805,-2948.0,1532.0,-15956.0,-357.0,-105.0,75.0,0.5831655954404756,0.5054587155870781,0.04983442497087323,-0.6339920387666076
-7541.1715450286865,-2996.0,1508.0,-16028.0,-385.0,-201.0,458.0,0.6253019254417823,0.47629958201518424,0.04068121441140473,-0.6168316212751855
-7541.187114238739,-3072.0,2000.0,-15460.0,-93.0,-160.0,935.0,0.6776124910859278,0.46461337878619713,-0.0018645536915849069,-0.570063368071242
-7541.202701091766,-3476.0,2224.0,-15796.0,-194.0,-107.0,653.0,0.7165299373621338,0.4471937045478389,-0.024948158002547825,-0.5347711930245277
-7541.218290567398,-3728.0,1992.0,-16032.0,-76.0,-134.0,765.0,0.753036376458673,0.43381080712884124,-0.05947281562223792,-0.4911286832900094
-7541.233886957169,-3396.0,1896.0,-16068.0,-498.0,87.0,568.0,0.7948147084046094,0.4012830217292773,-0.053792279279795505,-0.4520485664897086
-7541.249509096146,-2380.0,3572.0,-15512.0,-417.0,310.0,-183.0,0.8026141296726573,0.38530138114171236,-0.009445504121453384,-0.4552627669730785
-7541.2651283741,-2912.0,2348.0,-15836.0,-361.0,91.0,-475.0,0.7947449142701394,0.36382184729039896,0.02722676738007846,-0.48504936636798274
-7541.280742406845,-2704.0,1524.0,-15976.0,-464.0,-15.0,45.0,0.8106461065509174,0.3311436553023949,0.04441420590937674,-0.4808577209531391
-7541.296337842941,-2596.0,1336.0,-15900.0,-363.0,-92.0,636.0,0.8463355154648234,0.30374372021173174,0.03475941218156287,-0.43617396868637315
-7541.311933517456,-3044.0,2252.0,-15752.0,-368.0,-63.0,642.0,0.878788675962341,0.2758421367045888,0.02710778559444659,-0.3884671756773896
-7541.327498912811,-3124.0,2596.0,-15952.0,-177.0,61.0,693.0,0.904541034522867,0.2657615349878722,0.02113184040523754,-0.3327608280826925
-7541.343091011047,-3520.0,3156.0,-15388.0,-476.0,134.0,-350.0,0.903830217521829,0.2314185808916242,0.053646795192476816,-0.3558909940952802
-7541.358670949936,-3108.0,3088.0,-15604.0,-633.0,107.0,-1162.0,0.8741156532187054,0.17848731431935563,0.10460464430737249,-0.43945645041850023
-7541.374272108078,-3432.0,2040.0,-16124.0,-534.0,-24.0,-1027.0,0.8389441568575143,0.12708740700945748,0.13870797912900926,-0.5106677874902558
-7541.389832735062,-2996.0,1992.0,-15864.0,-616.0,36.0,-831.0,0.8049896079452631,0.07348852586656839,0.17748941178317781,-0.5613276016471592
-7541.405426502228,-2556.0,1812.0,-15764.0,-582.0,170.0,-551.0,0.7770741530702467,0.03251740787094312,0.22115930183228757,-0.5883765308274699
-7541.421011924744,-2728.0,1964.0,-15672.0,-672.0,13.0,-380.0,0.7574608283978824,-0.019518815780880786,0.25731970770647195,-0.5997154969643201
-7541.436584711075,-2980.0,1704.0,-15812.0,-629.0,-29.0,174.0,0.7648550860867599,-0.058522330867564004,0.28845278126638113,-0.5730330069522452
-7541.452168941498,-3356.0,1588.0,-16024.0,-457.0,-121.0,854.0,0.8052954454834271,-0.07326704444705538,0.3067886228697863,-0.5020078949173029
-7541.46777510643,-3620.0,2252.0,-15508.0,-670.0,76.0,643.0,0.8243525081057259,-0.09942814356491458,0.3447580637368299,-0.43783428844194666
-7541.483436584473,-3256.0,3092.0,-15456.0,-689.0,149.0,430.0,0.8280867501392164,-0.1299868459395764,0.38483531071439625,-0.38636451409764067
-7541.499020814896,-3276.0,2452.0,-15912.0,-658.0,17.0,202.0,0.8252672874862905,-0.16987344617800385,0.41009774259064236,-0.34913716217367674
-7541.514630556107,-3108.0,1792.0,-15884.0,-673.0,-115.0,807.0,0.8402989238932485,-0.19218574961240634,0.4327332003908587,-0.2640157825381866
-7541.53019785881,-3028.0,2016.0,-15996.0,-625.0,-95.0,1231.0,0.8554057819609411,-0.19236793086143972,0.4577656033173882,-0.14739803181639494
-7541.54580116272,-2716.0,2680.0,-15564.0,-867.0,17.0,742.0,0.8453724442285849,-0.22614408731352229,0.480541468108978,-0.057307763346602585
-7541.561395168304,-3252.0,2740.0,-15424.0,-928.0,152.0,426.0,0.8193185528069779,-0.27490958288507483,0.503031626048202,0.010050545235732077
-7541.577003479004,-3160.0,2448.0,-16168.0,-1015.0,116.0,468.0,0.7855012176952592,-0.3255430572542907,0.519421773403273,0.08491511165507137
-7541.5925822258,-2808.0,2072.0,-15708.0,-1032.0,-69.0,878.0,0.7473742404630043,-0.3535924097238803,0.5285313425106393,0.19250655173761877
-7541.608139038086,-2520.0,2344.0,-15296.0,-1386.0,-55.0,1256.0,0.6768602893534629,-0.38018844320930184,0.5335746278102902,0.3355816039408963
-7541.623764753342,-3228.0,2184.0,-15904.0,-1096.0,-121.0,1426.0,0.5968273603441834,-0.37053355404148774,0.5352780697081823,0.4690195895306087
-7541.639352321625,-3948.0,2160.0,-16060.0,-916.0,-272.0,1888.0,0.4941150629215063,-0.3137332744220111,0.535828399522387,0.6085307415240384
-7541.654938697815,-5228.0,1536.0,-16348.0,66.0,-516.0,3319.0,0.3298139109301973,-0.1232516934230032,0.5836074887137335,0.7317336286809152
-7541.670524120331,-1876.0,5308.0,-15428.0,-122.0,-357.0,2616.0,0.1749622771736686,0.028476139830658814,0.5787406664034264,0.7960129094917161
-7541.686139583588,-1628.0,4796.0,-15340.0,-685.0,-657.0,-882.0,0.2693652572147701,0.018990841884759246,0.5202784964259191,0.8101802221030293
-7541.701733827591,-1884.0,3608.0,-15556.0,-828.0,-328.0,-1445.0,0.38356467556341434,-0.0424274833743318,0.45178375489577477,0.8043441347624336
-7541.717306852341,-2004.0,640.0,-16168.0,-872.0,-915.0,-503.0,0.44853049405015,-0.027087756606311048,0.3558899176325675,0.8194077226122842
-7541.732899188995,-2512.0,1704.0,-16000.0,-900.0,-729.0,1012.0,0.39312344997912935,0.021002317425150144,0.2633446249308831,0.880717017128256
-7541.748516559601,-3620.0,3396.0,-15504.0,-881.0,-649.0,943.0,0.3345245464765794,0.061805028657913236,0.1706124756342094,0.9247512364929283
-7541.764101982117,-3632.0,2380.0,-15412.0,-1263.0,-593.0,494.0,0.3077622384881656,0.07945746243741802,0.048636426144144825,0.9468914479895176
-7541.779733181,-4376.0,1588.0,-15856.0,-1425.0,-667.0,1015.0,0.2335405168196106,0.09921693238339332,-0.09252905875935555,0.9628360195885725
-7541.795313835144,-3864.0,1788.0,-15632.0,-1703.0,-705.0,1802.0,0.08890073488625462,0.10649455425638557,-0.2592466984358053,0.9557963792568751
-7541.810894727707,-2832.0,2684.0,-16172.0,-2293.0,-568.0,1775.0,-0.04912265536310086,0.0929267895427864,-0.4567490482601177,0.8833639586426567
-7541.826467752457,-2220.0,4412.0,-15340.0,-2546.0,-605.0,465.0,-0.0861619912742765,0.12854025534624355,-0.6375155566603203,0.7547366620426332
-7541.842063903809,-1572.0,2980.0,-15432.0,-2756.0,-363.0,-84.0,-0.06792612415962389,0.17284365989941533,-0.7925490160403061,0.5808417754111431
-7541.857635736465,-1612.0,3936.0,-15788.0,-2578.0,-567.0,-455.0,-0.04399145158091793,0.24183039579619142,-0.8891592681588635,0.38597747046175584
-7541.873210906982,-2960.0,4028.0,-15396.0,-2472.0,-708.0,-140.0,-0.04103164750486421,0.2790674995250679,-0.9432854249284648,0.1750723899688021
-7541.888787031174,-2944.0,3580.0,-15824.0,-2746.0,-980.0,-337.0,-0.04814185289797231,0.32122192191720006,-0.9430619008059529,-0.07164558693760352
-7541.904355764389,-4684.0,2504.0,-16412.0,-2343.0,-1343.0,662.0,-0.08658968615952058,0.2606053650619851,-0.9147042257055421,-0.2964848215813582
-7541.920505523682,-3824.0,2584.0,-15140.0,-2052.0,-1501.0,2024.0,-0.10331585982167432,0.07291366898481817,-0.8624433373723891,-0.4901029685754374
-7541.936093568802,-4396.0,2820.0,-14708.0,-1879.0,-1535.0,2879.0,-0.07960252256307915,-0.18279980136879165,-0.7474618553840312,-0.6336785034755293
-7541.951751947403,-5372.0,3888.0,-15424.0,-1662.0,-1291.0,2837.0,-0.032022134871897374,-0.40871088972523273,-0.574887560549173,-0.7081202470089917
-7541.967349767685,-4680.0,3636.0,-15796.0,-2184.0,-1026.0,1988.0,-0.03725417807678725,-0.5458819596257469,-0.353476345699899,-0.7587354515255124
-7541.982950210571,-2596.0,5736.0,-14920.0,-2941.0,-525.0,738.0,-0.1398097111638374,-0.5736891436693364,-0.11791782854336433,-0.798391756477887
-7541.998591661453,-2112.0,4572.0,-15400.0,-2938.0,-536.0,-125.0,-0.2914107094005934,-0.5555538485098328,0.0841169025932428,-0.7741860671380463
-7542.014181613922,-2492.0,3948.0,-15996.0,-3039.0,-1194.0,6.0,-0.41312287800943653,-0.53775381257696,0.30780429224163264,-0.6673880748123775
-7542.029803752899,-2596.0,2652.0,-15736.0,-2948.0,-1505.0,1288.0,-0.41639897365509054,-0.4630198857152637,0.5676404688694949,-0.5385246310734831
-7542.045392990112,-2812.0,3048.0,-15332.0,-3186.0,-1588.0,2145.0,-0.3436229244565094,-0.2968322489132475,0.8102190209527911,-0.37061980502849645
-7542.060980558395,-3796.0,3492.0,-14764.0,-3357.0,-1696.0,2848.0,-0.2019151162408244,-0.04594540082184741,0.9649283871154425,-0.1613459442178979
-7542.076581001282,-4784.0,3824.0,-14184.0,-3397.0,-1684.0,3455.0,-0.022668769082700744,0.256605982051164,0.9640877648522032,0.0646086568976321
-7542.092164516449,-5820.0,4648.0,-14636.0,-3151.0,-1843.0,4147.0,0.1620284172497699,0.560383175193755,0.7719929943574978,0.25247634666685925
-7542.1077876091,-5556.0,5288.0,-15092.0,-3121.0,-1635.0,4122.0,0.3020025508147931,0.7502368118242738,0.432652010253345,0.39843622263650547
-7542.12336230278,-4216.0,5840.0,-15000.0,-3387.0,-1039.0,3226.0,0.41590943446277273,0.7556515030091905,0.07053206278670171,0.501034306653607
-7542.138935804367,-3060.0,5012.0,-14712.0,-4309.0,-613.0,2300.0,0.554255685061089,0.5884542903603892,-0.26802850260342675,0.5241019991624517
-7542.154515743256,-2660.0,3420.0,-15768.0,-4175.0,-630.0,2639.0,0.5806852527133863,0.3245454761390663,-0.5732672940782131,0.47837169725967366
-7542.17015337944,-3356.0,3800.0,-15460.0,-4757.0,-529.0,2925.0,0.5089844782051948,-0.03649633101177907,-0.7918946211209854,0.3354187350290907
-7542.185745954514,-3756.0,3208.0,-15520.0,-4581.0,-721.0,4079.0,0.28602339843137875,-0.44081190066392417,-0.831992017406915,0.17794596582669317
-7542.201380491257,-5120.0,3600.0,-15372.0,-4829.0,-613.0,4355.0,-0.010579202768241,-0.7541295188459824,-0.6556967536667541,-0.03519256320297664
-7542.216961860657,-5280.0,4688.0,-15756.0,-4940.0,-758.0,3454.0,-0.3257959101767576,-0.8388673484278908,-0.3644113723243755,-0.23950563328306762
-7542.23255109787,-4236.0,5984.0,-15144.0,-5045.0,-256.0,2380.0,-0.587439914010826,-0.6981450319925281,-0.06974908622956477,-0.40329012720527396
-7542.248130559921,-3340.0,5560.0,-14812.0,-5307.0,1237.0,516.0,-0.7986155676996977,-0.3482724744821821,0.07665279820558435,-0.48481316718195816
-7542.263746023178,-3008.0,2608.0,-16440.0,-5275.0,2230.0,-381.0,-0.8851920955202716,0.09912525628956417,0.11874598766323934,-0.43875793782886774
-7542.279358148575,-3292.0,2284.0,-17924.0,-4966.0,882.0,2768.0,-0.6659960006390574,0.4874768542154684,0.1937769586730369,-0.5303452969758472
-7542.294933795929,-5976.0,1632.0,-18088.0,-4996.0,-5.0,6552.0,-0.12175120129949582,0.7214448094027063,0.11898530247500146,-0.6712201797941977
-7542.310517549515,-6896.0,-1280.0,-17804.0,-4493.0,-45.0,7913.0,0.48950691107317224,0.6648007593567961,-0.09045104320820584,-0.5569933062010496
-7542.32608795166,-5048.0,624.0,-17020.0,-4194.0,-442.0,9591.0,0.8822538643352582,0.28690641155626634,-0.3408977994277044,-0.15199184260597282
-7542.341661453247,-5944.0,7192.0,-14628.0,-3509.0,-212.0,9245.0,0.8224358502561531,-0.19745771085931413,-0.410514388447625,0.3407163945470053
-7542.357240200043,-5344.0,12572.0,-14668.0,-2805.0,668.0,5305.0,0.5663816760303365,-0.5385533923512836,-0.31376002563939076,0.5391907704651111
-7542.372806310654,-3664.0,6036.0,-16648.0,-2182.0,856.0,498.0,0.45380606967409987,-0.6856917306390257,-0.34332222418523645,0.4538906829190331
-7542.3884489536285,-1500.0,672.0,-19284.0,939.0,-786.0,3091.0,0.34941666987878256,-0.6820653832816712,-0.14634304345891383,0.6255225954118935
-7542.404101133347,-6268.0,2264.0,-18472.0,2282.0,-3913.0,6321.0,0.07453267259748321,-0.39707470046854443,0.194588336790329,0.8938187412157265
-7542.419717311859,-5716.0,3752.0,-16184.0,2579.0,-3668.0,5029.0,-0.14317632374619407,-0.00782466842298997,0.4709326140591401,0.8704376990330901
-7542.435295581818,-4456.0,3672.0,-15080.0,4464.0,-3077.0,1804.0,-0.1347923193390931,0.21848283107452987,0.760574663873339,0.5963408956685796
-7542.4508664608,-4168.0,7224.0,-13700.0,5438.0,-2241.0,-1776.0,0.002524179446584748,0.13501298832271022,0.972833686459536,0.18804185702082984
-7542.466452360153,-4460.0,8224.0,-13524.0,4881.0,-1534.0,-5406.0,0.1377382507690953,-0.24972759551238355,0.9360883241519085,-0.2059197700589842
-7542.482024908066,-4640.0,6588.0,-13420.0,4165.0,-1869.0,-6871.0,0.20916692549239516,-0.6449033687507545,0.5592570073558929,-0.4770539193606087
-7542.4976007938385,-4828.0,5428.0,-13424.0,4243.0,-2104.0,-6527.0,0.2280513194203941,-0.796324932771991,-0.01889268858968901,-0.559912728444491
-7542.513165950775,-4076.0,4780.0,-13236.0,4591.0,-2122.0,-6316.0,0.19183121373588022,-0.6521528526572696,-0.5917901152373085,-0.4332226929825096
-7542.528739690781,-3020.0,3828.0,-13772.0,5279.0,-2061.0,-5657.0,0.14077867324983914,-0.28654145429618283,-0.9409158800982561,-0.11292770566502996
-7542.544298648834,-2616.0,2324.0,-14540.0,5996.0,-2265.0,-5300.0,0.04223064129667537,0.16186752438272564,-0.9390741486222344,0.300258590010852
-7542.559930562973,-2640.0,3256.0,-14748.0,6668.0,-2422.0,-4398.0,-0.10936937366524682,0.49338972564870387,-0.5749291217750552,0.6434760474666731
-7542.57550907135,-2904.0,4196.0,-14780.0,6936.0,-2252.0,-3560.0,-0.2620413014941465,0.5977452504765328,-0.008780295933534353,0.7576000780407303
-7542.591083526611,-2936.0,4740.0,-14748.0,7007.0,-1803.0,-3609.0,-0.31884059881093274,0.4573111168992417,0.5589377111482663,0.6138369897347267
-7542.60666847229,-2708.0,4788.0,-14828.0,6994.0,-1420.0,-3513.0,-0.27955040804395725,0.13757303240225,0.914643568217117,0.2575895441145977
-7542.622253417969,-2780.0,4284.0,-15292.0,7139.0,-976.0,-3283.0,-0.1754388968232593,-0.2276551584111931,0.9365450067685875,-0.20069323014750345
-7542.637833118439,-2696.0,4588.0,-15112.0,7266.0,-985.0,-2364.0,0.006793752464830008,-0.45597701423818365,0.6452316003627927,-0.6129559440181223
-7542.653409004211,-2732.0,4676.0,-14992.0,6887.0,-792.0,-2034.0,0.1832791858555538,-0.5151248081508436,0.16541351867981813,-0.8207883648649288
-7542.668985843658,-2836.0,5008.0,-14692.0,6478.0,-779.0,-1300.0,0.33949881694970135,-0.4205823992905279,-0.3195853188677242,-0.7782777284883535
-7542.684568166733,-3380.0,5168.0,-14248.0,6360.0,-679.0,-616.0,0.4465712622594676,-0.22781026442017493,-0.6929602375202211,-0.5181531630364856
-7542.700157403946,-3336.0,6044.0,-13912.0,6121.0,-286.0,-765.0,0.45434009071651,0.038817945814122214,-0.8770055621228713,-0.1514248759485442
-7542.715806722641,-3200.0,6216.0,-13840.0,5450.0,76.0,-645.0,0.3904104422992133,0.2754053323894028,-0.8513227055221322,0.21675156400287518
-7542.731374502182,-3128.0,5480.0,-14108.0,5025.0,509.0,-581.0,0.2909161289049562,0.4389968297562651,-0.662784102180268,0.532322104842547
-7542.746933698654,-3932.0,4360.0,-14924.0,4699.0,490.0,-1035.0,0.1724910969802346,0.5486866165036282,-0.3616362096430916,0.7337636337454546
-7542.762523174286,-3964.0,4096.0,-15568.0,4572.0,522.0,-1437.0,0.05718432098913766,0.5803960777268883,0.0071328002864392585,0.8122927240547763
-7542.778086423874,-4784.0,5276.0,-15268.0,4238.0,110.0,-697.0,-0.10120293073129909,0.5557459737803899,0.32166193058342163,0.7598934016371165
-7542.793674707413,-4404.0,5140.0,-15400.0,4463.0,430.0,-511.0,-0.2751566449824448,0.4406519979603811,0.5943630897633823,0.6138787787034624
-7542.809295892715,-4408.0,5096.0,-15680.0,4437.0,568.0,126.0,-0.4487970300887259,0.2889958509957447,0.7580158335191964,0.37479943973408286
-7542.824883699417,-4496.0,4464.0,-15808.0,4415.0,441.0,402.0,-0.5612906269178075,0.11952362413526806,0.8157083442649574,0.072710607921454
-7542.840506315231,-4400.0,4340.0,-15836.0,4510.0,275.0,1293.0,-0.588313018584729,-0.010289997121182065,0.7564072171377201,-0.28570969529391216
-7542.856085062027,-4880.0,4340.0,-15548.0,4179.0,69.0,1622.0,-0.5107914522895821,-0.10811575837532543,0.6056229309611519,-0.6005197253653302
-7542.87166762352,-6168.0,4628.0,-15220.0,3599.0,-251.0,713.0,-0.405708444526106,-0.23240178864206187,0.41431129779804987,-0.7808560784120678
-7542.887312889099,-6640.0,4744.0,-15216.0,3409.0,-213.0,26.0,-0.3134086952611555,-0.3515319640744252,0.1822882076631954,-0.8631171863169085
-7542.902898311615,-5560.0,5456.0,-14940.0,3084.0,-326.0,-501.0,-0.24241456310586,-0.45198181235642454,-0.054519185318354646,-0.8567235722947162
-7542.919053554535,-4964.0,4560.0,-15104.0,2804.0,123.0,-1646.0,-0.24464146411488633,-0.4756689141064426,-0.31923208797991676,-0.7822918331367811
-7542.934656381607,-4912.0,3700.0,-15244.0,2602.0,233.0,-1816.0,-0.24485501161244227,-0.44789146096297133,-0.5563654919093909,-0.65566508363428
-7542.950231075287,-4912.0,3280.0,-15428.0,2313.0,126.0,-1881.0,-0.2476793327819112,-0.385953579884554,-0.7403944235644581,-0.4914375645406632
-7542.965793371201,-5080.0,1928.0,-15360.0,2429.0,248.0,-2026.0,-0.22810422025010507,-0.28614908669082967,-0.8849761708462706,-0.28793114094235833
-7542.981373548508,-4768.0,1708.0,-15528.0,2543.0,-166.0,-592.0,-0.18739336204435733,-0.2877799982407794,-0.9363094687870769,-0.07342328740877385
-7542.996962547302,-4532.0,1744.0,-15824.0,2852.0,-362.0,303.0,-0.13887886111799516,-0.35046808846760114,-0.9124696919986814,0.15900893712073427
-7543.012539148331,-4580.0,1796.0,-16100.0,3145.0,-538.0,926.0,-0.09451759605426471,-0.4369565168666418,-0.8010862611572804,0.3979902368010354
-7543.028084039688,-4156.0,1944.0,-15628.0,3309.0,-760.0,795.0,-0.04700305046436894,-0.4721957943404975,-0.621571693854459,0.6232739962914299
-7543.0436816215515,-4280.0,1744.0,-16004.0,3460.0,-45.0,338.0,0.07148153495700889,-0.48082922644794945,-0.40135533545318247,0.776278004233612
-7543.05930519104,-4524.0,828.0,-16056.0,3654.0,28.0,-569.0,0.2515036617859625,-0.41898485491395443,-0.16907246831540482,0.8559276253975691
-7543.074884176254,-4184.0,1020.0,-16356.0,3935.0,109.0,-699.0,0.42407351328876397,-0.3122966312489211,0.09595798271522182,0.8446446205302708
-7543.090492486954,-4204.0,1288.0,-15928.0,3972.0,-68.0,-461.0,0.535155162683236,-0.15525531188085198,0.3528989365946152,0.7516429208983801
-7543.106089830399,-4308.0,1728.0,-15160.0,3842.0,-139.0,-24.0,0.5621747737139149,0.030717874850447826,0.5672440263532716,0.6010408892337605
-7543.121672868729,-4076.0,1964.0,-14720.0,3453.0,-15.0,-51.0,0.5325381034248845,0.18990287031734265,0.7161500129540568,0.40923004189791073
-7543.137301683426,-3672.0,2148.0,-15012.0,3193.0,191.0,-325.0,0.46128069860537607,0.2995924039215341,0.813188602629281,0.190233554244486
-7543.152894020081,-4184.0,1084.0,-15184.0,3022.0,348.0,-1505.0,0.36656721362448236,0.29596237345517346,0.8790608027285187,-0.07271077293397302
-7543.168481826782,-3916.0,-20.0,-15616.0,3150.0,561.0,-924.0,0.22664254259904631,0.31633701619429233,0.8651797462343433,-0.3162721245627076
-7543.18412733078,-3408.0,904.0,-15644.0,2892.0,325.0,-61.0,0.11678231492827124,0.3663567446371689,0.7691904828735213,-0.5103828245891994
-7543.199738740921,-3140.0,1592.0,-14484.0,2618.0,346.0,1154.0,0.05942081035668198,0.4713669061569387,0.6006736955050007,-0.6430190655065808
-7543.215310335159,-3568.0,1028.0,-14372.0,2643.0,135.0,2512.0,0.08063275535005462,0.5950686638379897,0.3333923914507036,-0.7268020070180797
-7543.23087978363,-4196.0,992.0,-14324.0,2322.0,78.0,3511.0,0.16940781843263067,0.6746367386263401,0.004169444495713731,-0.7184350198049293
-7543.246449232101,-4696.0,2640.0,-13852.0,1550.0,-40.0,3401.0,0.27699240087806015,0.6621703848253526,-0.2793360556146196,-0.6377906861578636
-7543.262042760849,-5812.0,4000.0,-13564.0,464.0,273.0,1427.0,0.3332009474587989,0.6482797351454211,-0.3777374041370746,-0.570985960535043
-7543.277630805969,-5368.0,4876.0,-13352.0,-534.0,579.0,285.0,0.3954873465092079,0.6506682933918322,-0.34955917507416484,-0.5459202449507945
-7543.293262720108,-4760.0,5320.0,-14000.0,-1959.0,823.0,-159.0,0.5152671325202648,0.6167680927273494,-0.21520476075455014,-0.5547826717611036
-7543.308887481689,-4428.0,5188.0,-14192.0,-2974.0,974.0,296.0,0.6826133273979271,0.5062086085452709,-0.041886366852171994,-0.5253926361925111
-7543.324515581131,-5036.0,5312.0,-14928.0,-3067.0,559.0,2369.0,0.8787783055233636,0.32248449943123164,0.02590546122170009,-0.3508295090880541
-7543.340093135834,-2836.0,784.0,-17736.0,-2658.0,1010.0,4165.0,0.9873724264704649,0.14580502256025504,0.061878518331615014,0.0027632971454662858
-7543.355698823929,-5132.0,-3576.0,-19520.0,-1593.0,-209.0,6166.0,0.8803482511471253,0.03668768797643032,-0.030291390544050785,0.4719358027444515
-7543.371309041977,-5608.0,-1952.0,-17480.0,-284.0,-81.0,7409.0,0.4835090803180208,-0.00135768307419857,-0.06020178607038601,0.8732656359325192
-7543.386914491653,-4036.0,1164.0,-15648.0,-762.0,614.0,5068.0,0.09153961505527851,-0.09777313969679706,-0.08356547043497245,0.9874602392908505
-7543.402475595474,-3400.0,3504.0,-13884.0,-1255.0,842.0,2921.0,-0.15837569999196618,-0.19412996538719066,-0.15376731891190493,0.9558170880589378
-7543.418025970459,-3144.0,2104.0,-14104.0,-1920.0,1734.0,593.0,-0.21150178210546505,-0.3122044197120514,-0.31944451455499345,0.8693391735100854
-7543.433602571487,-4000.0,436.0,-17288.0,-1602.0,2334.0,-957.0,-0.11366514129701157,-0.4192047208335158,-0.49374909209440326,0.75336543041261
-7543.449177503586,-5988.0,1672.0,-17508.0,-1161.0,1429.0,-16.0,-0.092353222757099,-0.4947806339160404,-0.5775344356048833,0.6427417694833343
-7543.464755058289,-4760.0,1544.0,-16496.0,-1924.0,1753.0,240.0,-0.0980434215757047,-0.5750575124655836,-0.6720242053431497,0.4561576616429148
-7543.480338811874,-4420.0,524.0,-15760.0,-1196.0,1369.0,1159.0,-0.12178616073989494,-0.6755231744105888,-0.6616256441880229,0.30180801652583944
-7543.495988607407,-5728.0,1452.0,-15376.0,-1271.0,1788.0,563.0,-0.10629523447400557,-0.7275957242185382,-0.6679755554855163,0.11451830640047474
-7543.511554479599,-5180.0,2268.0,-14912.0,-853.0,2103.0,-1288.0,-0.02462589891388757,-0.6490257576170058,-0.758335524639434,-0.05555504587514021
-7543.527138948441,-4020.0,2412.0,-15412.0,-1291.0,2306.0,-3568.0,0.034780837809572224,-0.37198058217556684,-0.894383832184265,-0.2459640228427306
-7543.542701005936,-4036.0,1344.0,-16640.0,-1522.0,1762.0,-3485.0,0.04500711540529552,-0.0626981410709355,-0.910614339411438,-0.4059862405641522
-7543.558283567429,-3084.0,-852.0,-16436.0,-1216.0,1709.0,-2391.0,0.0861042488675518,0.17644165256287678,-0.8422211402599452,-0.5021134856455
-7543.573872089386,-2860.0,-280.0,-15744.0,-651.0,1558.0,-1049.0,0.16215079061948498,0.3123259190923671,-0.774436030575309,-0.5257456380335864
-7543.589535474777,-2948.0,1560.0,-15732.0,-577.0,1462.0,-1097.0,0.22312147714136024,0.439372611417828,-0.6879790568869547,-0.5327788772643601
-7543.605141401291,-3516.0,1568.0,-15924.0,-400.0,1678.0,-1531.0,0.2625964751520053,0.5898182130619594,-0.5667769271468186,-0.5117826507729129
-7543.620735883713,-4708.0,2028.0,-15648.0,-17.0,1588.0,-1491.0,0.27039564590714754,0.721324347455933,-0.4450007699404593,-0.4566746053746884
-7543.636302947998,-4216.0,40.0,-15700.0,-674.0,1972.0,-2663.0,0.2714944261858832,0.8512810292361582,-0.19568714325440717,-0.4041261285509194
-7543.651880264282,-4188.0,-244.0,-16124.0,-507.0,1871.0,-2022.0,0.2618682690196261,0.9130310036112145,0.016250252406737817,-0.3123064607434186
-7543.66743183136,-3196.0,24.0,-16568.0,-248.0,1635.0,-977.0,0.2489714303937955,0.9375606133436533,0.13633312051847316,-0.20101393833273315
-7543.683011770248,-2860.0,-224.0,-16284.0,-357.0,1513.0,-85.0,0.2560487563709986,0.9467169296748674,0.18079768837227966,-0.07401543965347386
-7543.698641300201,-3052.0,-788.0,-16100.0,-416.0,1164.0,623.0,0.27377258925409104,0.9479620576281209,0.15693146627205115,0.04229682688186208
-7543.714215517044,-2960.0,100.0,-15860.0,-757.0,832.0,1401.0,0.31570586963307484,0.9346840589487733,0.05745915535873249,0.1529508394606951
-7543.729784488678,-3332.0,48.0,-15888.0,-1009.0,1058.0,1320.0,0.3694521953581314,0.8865283283846042,-0.033997379563310066,0.2764358451783794
-7543.745377063751,-3996.0,572.0,-16040.0,-589.0,1017.0,1939.0,0.3640342117431325,0.821502428040829,-0.16226451248196117,0.40777822574601763
-7543.7609333992,-3632.0,1368.0,-15660.0,-834.0,1122.0,1341.0,0.3863887646562869,0.7259946119625542,-0.24891900846612544,0.5115416631839187
-7543.77653336525,-4336.0,1280.0,-15724.0,-692.0,1169.0,1038.0,0.4047101282644786,0.6212690415645274,-0.3028549312026638,0.5987598689958039
-7543.792112350464,-3624.0,1284.0,-15948.0,-831.0,1072.0,526.0,0.44693932022183275,0.518074120070603,-0.33434081089747153,0.6481208778624072
-7543.807742357254,-3460.0,1392.0,-15632.0,-572.0,1083.0,603.0,0.4669131170411471,0.4142176341217059,-0.349370244592009,0.6988249601375557
-7543.8233189582825,-3328.0,1356.0,-15740.0,-597.0,785.0,109.0,0.5038222185881497,0.3376512858566388,-0.35656289415473735,0.7106459622964664
-7543.838905572891,-2924.0,1384.0,-15924.0,-487.0,969.0,-153.0,0.5552161034787195,0.25992816865991375,-0.3383074738516764,0.7139471119845701
-7543.854489326477,-2752.0,1264.0,-15368.0,-380.0,890.0,-119.0,0.5953118016278329,0.18908356479655908,-0.31524775059386173,0.7144719169512259
-7543.87006855011,-2840.0,1276.0,-15752.0,-265.0,1056.0,-765.0,0.6718689443216965,0.1298080280394833,-0.2627736264673205,0.680214685776309
-7543.885649681091,-3572.0,1668.0,-15960.0,192.0,860.0,-230.0,0.7008191403266157,0.095136220152601,-0.19797301071809084,0.6786813090060414
-7543.901231765747,-3252.0,1596.0,-15896.0,218.0,827.0,-371.0,0.7328274983829235,0.06584071089211009,-0.13121048751758493,0.6643889420877245
-7543.917092561722,-3088.0,1412.0,-15864.0,13.0,856.0,-1006.0,0.7956184037508643,0.028566389116829155,-0.0696470048376113,0.6011028295914955
-7543.932749509811,-3076.0,236.0,-15952.0,-238.0,854.0,-1048.0,0.8502929256414203,-0.026465316804008508,-0.01995206520517079,0.5252651165884389
-7543.9483206272125,-3184.0,-404.0,-16180.0,-563.0,894.0,-655.0,0.8754036217676864,-0.10772193709439176,0.019130868450583326,0.470848694526146
-7543.963944911957,-2824.0,-108.0,-16252.0,-849.0,728.0,88.0,0.8584260867656308,-0.2016511999965119,0.04066510389464312,0.46988061933373054
-7543.979512453079,-2976.0,304.0,-16024.0,-792.0,609.0,897.0,0.7999851659248673,-0.28111926354047784,0.06927280199607527,0.5255444537527103
-7543.99510550499,-2972.0,884.0,-15876.0,-831.0,606.0,1103.0,0.7190384542723539,-0.35743884477611465,0.09981256257392687,0.5875871219446243
-7544.0106835365295,-3012.0,1140.0,-15916.0,-886.0,263.0,821.0,0.6431614550690559,-0.4172066700507397,0.09607634691888732,0.6348631921456384
-7544.026275396347,-3108.0,1120.0,-15964.0,-951.0,462.0,935.0,0.548588823831382,-0.48493103695880574,0.10270149717691943,0.6733086916407494
-7544.041860342026,-3044.0,820.0,-16372.0,-914.0,418.0,851.0,0.45305334364406813,-0.5423038831876128,0.10442801107987741,0.699817087955465
-7544.057429075241,-2724.0,1024.0,-15956.0,-719.0,509.0,1176.0,0.3396676557821354,-0.5865402988801405,0.13526956680928012,0.722702224778846
-7544.073006153107,-2748.0,1504.0,-15968.0,-589.0,13.0,1077.0,0.2399658329856912,-0.5889766063065922,0.15284888231235483,0.7564127017699511
-7544.088598489761,-2724.0,2332.0,-15996.0,-323.0,309.0,943.0,0.15626261606807612,-0.6013010967685551,0.18579665713892285,0.7612480463295098
-7544.10418176651,-2524.0,2104.0,-16016.0,-745.0,5.0,-58.0,0.12062384562420105,-0.6116671479997947,0.13315188909123138,0.7704438735924003
-7544.11984372139,-2768.0,560.0,-16124.0,-848.0,132.0,-137.0,0.08276414229054191,-0.6294974435772054,0.07007612162257383,0.7693974281598635
-7544.135436534882,-2616.0,640.0,-15856.0,-745.0,182.0,375.0,0.015476976567346675,-0.6432680864913638,0.041892473486434906,0.7643373945864886
-7544.151008367538,-2832.0,988.0,-16084.0,-681.0,32.0,914.0,-0.083431228076981,-0.6400668464521581,0.04761410911893126,0.7622903376451566
-7544.166565656662,-2820.0,1472.0,-15860.0,-559.0,67.0,1059.0,-0.18435721532484653,-0.6328444288245506,0.06874831796989764,0.7488618129132412
-7544.182157993317,-2928.0,2080.0,-15824.0,-543.0,21.0,764.0,-0.2634770300370567,-0.619078527836209,0.07490901156847406,0.7360096949095428
-7544.197762489319,-2960.0,2244.0,-15704.0,-737.0,122.0,-209.0,-0.28994371330775104,-0.6101929115228789,0.013490127843018373,0.737167057247761
-7544.213388681412,-3148.0,1156.0,-15956.0,-612.0,144.0,-5.0,-0.3218209887212981,-0.6033291007388693,-0.0297390787031977,0.7290684704593655
-7544.228962182999,-2784.0,1068.0,-16172.0,-490.0,-46.0,8.0,-0.34784861672716166,-0.5863850138820007,-0.059158421885859826,0.7291462380452776
-7544.244552373886,-2736.0,1264.0,-16120.0,-334.0,-206.0,615.0,-0.4042381801209826,-0.5654368278766962,-0.04262407257493636,0.7176739342140982
-7544.260137796402,-2856.0,1712.0,-16112.0,-239.0,-335.0,652.0,-0.4569932143076334,-0.5375098991048071,-0.013588318006759064,0.7085588670356647
-7544.275756120682,-2904.0,1844.0,-16064.0,-294.0,-127.0,258.0,-0.4864819785218788,-0.5181832779120339,-0.014597162132261483,0.70328393833747
-7544.291830062866,-3244.0,2276.0,-15716.0,-78.0,-151.0,382.0,-0.513211033098366,-0.50603397242515,0.004290813837399291,0.6931995695139628
-7544.307463169098,-2424.0,900.0,-15936.0,-648.0,149.0,-521.0,-0.5088834931445748,-0.4851906519196964,-0.06442306304297822,0.7081506129651205
-7544.32310795784,-3120.0,1184.0,-15944.0,-391.0,-51.0,47.0,-0.5282187683330051,-0.46494443292143056,-0.08432508454138248,0.7054791897662335
-7544.338691711426,-2844.0,1384.0,-15752.0,-502.0,110.0,31.0,-0.549040496892491,-0.4486366051179668,-0.1189736132062791,0.695071944967508
-7544.354279518127,-3156.0,1632.0,-16052.0,-424.0,-42.0,136.0,-0.5737993382158484,-0.42714373708243664,-0.1373195921284659,0.6851612050838668
-7544.369850158691,-2928.0,1720.0,-15788.0,-465.0,31.0,-132.0,-0.5822607395198233,-0.40405309275935986,-0.17152061912029717,0.6843202515357957
-7544.3854212760925,-2592.0,1092.0,-15736.0,-564.0,42.0,-18.0,-0.5996240607151059,-0.3774488714825681,-0.2078257428425056,0.6743825293110904
-7544.401015758514,-3220.0,1284.0,-16016.0,-486.0,-243.0,27.0,-0.620844872249029,-0.33809369101183734,-0.22270502286759758,0.6713022966515324
-7544.416574954987,-3116.0,1592.0,-16348.0,-493.0,-59.0,348.0,-0.6559248294080117,-0.3145130885817757,-0.23793433273050535,0.6436081017085724
-7544.432146310806,-3308.0,1432.0,-16012.0,-521.0,-127.0,155.0,-0.6806773460866271,-0.2806968856322006,-0.2555345191618932,0.6265698033240584
-7544.447759389877,-2932.0,1292.0,-15896.0,-509.0,-263.0,356.0,-0.7171547078270069,-0.2438404210808857,-0.2587628767360265,0.5993936500430689
-7544.4633436203,-3020.0,1472.0,-15928.0,-506.0,-283.0,387.0,-0.7530871677022816,-0.20596246093068557,-0.25900767476748865,0.5686424244998521
-7544.478926181793,-2904.0,1528.0,-15956.0,-257.0,-284.0,511.0,-0.7881866174408225,-0.18646153477140806,-0.24375349871943433,0.5334586994322243
-7544.4945204257965,-2812.0,1892.0,-15816.0,-447.0,-313.0,205.0,-0.8105470094879169,-0.14554389441354332,-0.23960760589905986,0.5142166035869076
-7544.510134458542,-2828.0,1968.0,-15604.0,-463.0,-172.0,364.0,-0.8350985926357891,-0.11273750990392539,-0.2434809016401868,0.48022666000011704
-7544.52573466301,-3308.0,1416.0,-16008.0,-491.0,-214.0,554.0,-0.8656728514016848,-0.07975457976294367,-0.24272689875783737,0.4305036282916967
-7544.5413682460785,-3552.0,1732.0,-16212.0,-1.0,-269.0,461.0,-0.8876732782137409,-0.0794092862726597,-0.21927354447261363,0.3970509149886877
-7544.556956291199,-3100.0,2116.0,-15860.0,-210.0,-340.0,351.0,-0.9067672079281665,-0.058191121542690336,-0.19783552314645936,0.36776096826760735
-7544.572527170181,-3048.0,1968.0,-15652.0,-118.0,-377.0,244.0,-0.9209047096600871,-0.04109778020285074,-0.17068996436947842,0.3480092301244536
-7544.58811044693,-2644.0,2052.0,-15628.0,-92.0,-314.0,85.0,-0.9280521098329314,-0.025589388186591386,-0.14816013301926978,0.3407536348017331
-7544.6037447452545,-2760.0,1860.0,-15948.0,-69.0,-380.0,234.0,-0.9393193316614742,-0.011871454321990658,-0.11911011559057978,0.3214825688949883
-7544.619312047958,-2780.0,1756.0,-15996.0,231.0,-424.0,255.0,-0.9495433057609225,-0.021685237486764482,-0.07781440250256866,0.30305474707209257
-7544.634878396988,-2936.0,1524.0,-15684.0,-38.0,-458.0,334.0,-0.9603687245236949,-0.008857655559793724,-0.04046425217164029,0.27563762295975724
-7544.650461196899,-3008.0,1488.0,-15792.0,-60.0,-441.0,478.0,-0.9718936044275301,0.004897982408267168,-0.004844149838811942,0.2353197094455351
-7544.666016578674,-3304.0,1676.0,-15748.0,-242.0,-467.0,446.0,-0.9793893054603898,0.0345630038017696,0.029288143448772612,0.19683544338187234
-7544.681615352631,-3368.0,1968.0,-15952.0,-77.0,-388.0,221.0,-0.9812201085168686,0.048141188250955105,0.06015453106697252,0.17683596078864589
-7544.697234869003,-3828.0,1872.0,-15824.0,28.0,-379.0,182.0,-0.9815260192117502,0.05234545606947667,0.09195827378459646,0.15940609374102035
-7544.712860822678,-3296.0,1584.0,-15668.0,-48.0,-304.0,118.0,-0.9801130408443643,0.06145406279995323,0.11672614334366452,0.14824585252986816
-7544.728451490402,-3392.0,1348.0,-15672.0,-49.0,-247.0,239.0,-0.9799500908486796,0.07128165866876186,0.13604760449588835,0.12691648393343272
-7544.744073152542,-3264.0,1512.0,-15736.0,-93.0,-308.0,300.0,-0.978270357337129,0.08621576866922412,0.1596222537561105,0.10037273182533511
-7544.759648323059,-2892.0,1844.0,-15732.0,-15.0,-278.0,145.0,-0.9751287964328048,0.09199115395731701,0.18234870347952203,0.08608372843021991
-7544.775281190872,-3264.0,1688.0,-15680.0,-82.0,-216.0,319.0,-0.972789399760049,0.10570414151412252,0.19770796172392735,0.05847204504903418
-7544.790851831436,-3264.0,1732.0,-15988.0,-91.0,-187.0,270.0,-0.969599504235006,0.11911363257375698,0.21080132865187848,0.03537716439904627
-7544.806465625763,-3308.0,1652.0,-15804.0,-146.0,-238.0,177.0,-0.9637678103973614,0.13555083281367492,0.22880842397581783,0.02059816698391608
-7544.822040081024,-3140.0,1764.0,-15788.0,-90.0,-242.0,122.0,-0.9577037091938474,0.14609796048038032,0.24773602456740984,0.009265714832399234
-7544.837616682053,-3180.0,2076.0,-15824.0,-56.0,-331.0,107.0,-0.9493741267214417,0.15342605601372897,0.27412042872118325,-0.0026839161102261643
-7544.853177785873,-3252.0,1956.0,-15860.0,47.0,-327.0,67.0,-0.9416530494630946,0.15113094157035764,0.30043376040829245,-0.013730569683900308
-7544.868751049042,-3256.0,1620.0,-15756.0,52.0,-414.0,76.0,-0.9306412411681942,0.14838603712338427,0.33342347482607215,-0.026781535778372428
-7544.884319782257,-3456.0,1404.0,-15804.0,136.0,-399.0,304.0,-0.9190142742291468,0.145229218983319,0.36146471089317916,-0.06053511786954934
-7544.899956703186,-3456.0,1632.0,-16052.0,134.0,-407.0,2.0,-0.9070987205782538,0.1324091189704229,0.3933653959076752,-0.07002429322149063
-7544.915646791458,-3340.0,1908.0,-15756.0,116.0,-348.0,117.0,-0.8951355435470815,0.12512217174515064,0.41888979696764267,-0.08722464567342739
-7544.931329250336,-3348.0,2004.0,-15816.0,116.0,-409.0,-123.0,-0.8815844534198071,0.10843263553036568,0.45123668042935117,-0.08623614831112594
-7544.9469220638275,-3280.0,1744.0,-15736.0,77.0,-293.0,-182.0,-0.8715779824744962,0.09314166078382824,0.4749692574057367,-0.07797856123037845
-7544.96252155304,-3412.0,1768.0,-15768.0,114.0,-328.0,-64.0,-0.8587778706499543,0.07958176116979568,0.49969666454233075,-0.08043976390016086
-7544.978147983551,-3696.0,1640.0,-15872.0,266.0,-348.0,80.0,-0.8440859871314175,0.060672219437436344,0.5232274708450195,-0.10035308600157888
-7544.993783950806,-3380.0,1900.0,-15892.0,313.0,-240.0,52.0,-0.8336584280751819,0.037872328114694515,0.5378338926351076,-0.11964119689871616
-7545.0093874931335,-3372.0,2180.0,-15808.0,363.0,-415.0,-68.0,-0.814957666850186,0.00392099904303716,0.5640612828926401,-0.13290408628072703
-7545.0249581336975,-2820.0,1396.0,-15856.0,176.0,-420.0,-229.0,-0.7960251947010499,-0.024732230321413872,0.5916439789456105,-0.12525816684707686
-7545.040528535843,-3376.0,1124.0,-15768.0,92.0,-388.0,12.0,-0.7749981355767938,-0.034748295399453843,0.6174950927201444,-0.12988555072011002
-7545.056098461151,-3336.0,1076.0,-15732.0,249.0,-416.0,2.0,-0.7509281506537038,-0.05617309436256927,0.642483786852808,-0.14200732254647266
-7545.071731805801,-3648.0,1348.0,-15732.0,-57.0,-337.0,263.0,-0.7283307857706377,-0.041874155107551714,0.6663279249124592,-0.1542333236191536
-7545.087309122086,-3720.0,1668.0,-15548.0,-72.0,-304.0,345.0,-0.7054807299018109,-0.02134092805604263,0.6875429325743139,-0.1706640571240095
-7545.102923631668,-3668.0,1672.0,-15516.0,-166.0,-223.0,84.0,-0.6907223910301378,-0.009418660587709508,0.7039004559885048,-0.16534211629684062
-7545.118530988693,-3888.0,1548.0,-15644.0,-185.0,-182.0,-155.0,-0.6814749448005161,-0.010423478845894596,0.7173841872965911,-0.14437166797780046
-7545.134154319763,-3588.0,1780.0,-15704.0,-241.0,-73.0,-213.0,-0.6793039811091378,-0.010359119576018412,0.724486773208524,-0.11643755981978744
-7545.1497547626495,-3592.0,1840.0,-15896.0,-280.0,-98.0,-363.0,-0.6762567390627932,-0.017712518666727482,0.7324163204241734,-0.07700274755457015
-7545.165395975113,-3536.0,1440.0,-15896.0,-290.0,-98.0,-346.0,-0.6719868942715971,-0.023373256111846215,0.7392272600404185,-0.03782013800977936
-7545.180987119675,-3184.0,1416.0,-15728.0,-284.0,-133.0,-111.0,-0.6638338527956802,-0.014336631072628413,0.7476351611168488,-0.012678436564264851
-7545.196615934372,-3420.0,1464.0,-15908.0,-500.0,-268.0,170.0,-0.6456796183829062,0.02536920189593906,0.763115423526894,0.010444346577780117
-7545.212193727493,-3276.0,1296.0,-15708.0,-311.0,-219.0,204.0,-0.6298961383382757,0.05663041951791947,0.774374630738695,0.019177636978049348
-7545.227810382843,-3640.0,1640.0,-15600.0,-329.0,-157.0,281.0,-0.6173820697748037,0.09389015900654903,0.7806342276201115,0.0251837374163687
-7545.243419647217,-3496.0,1696.0,-15476.0,-264.0,-13.0,-22.0,-0.6138686207454506,0.10662194177281896,0.7809219711978964,0.04424876153140907
-7545.258990526199,-3680.0,2024.0,-15420.0,-360.0,-152.0,-312.0,-0.598130795188316,0.10513568147247007,0.7900174410979072,0.08401477899647565
-7545.2746295928955,-3972.0,1032.0,-15952.0,-248.0,-159.0,-310.0,-0.5819582632651394,0.09781799225948634,0.7989750510151089,0.11573715074750168
-7545.290197610855,-3960.0,1748.0,-15760.0,-123.0,-365.0,182.0,-0.5566495868181061,0.12035782187249265,0.8143359889929085,0.1118576293342673
-7545.305818080902,-3484.0,1904.0,-15812.0,-61.0,-508.0,53.0,-0.5196285552734123,0.13191554733619104,0.8371901109783242,0.10815346039568349
-7545.321392059326,-3540.0,1872.0,-15700.0,-44.0,-221.0,-139.0,-0.501254585855372,0.12581105173155985,0.8483354338279895,0.11507567567924716
-7545.336980342865,-3460.0,1664.0,-15636.0,-138.0,-115.0,-323.0,-0.48745145798571166,0.10903557130512005,0.8552436909494551,0.13805994853295822
-7545.352565288544,-3632.0,1156.0,-15436.0,-150.0,-67.0,-130.0,-0.47910304741906645,0.10650551401165106,0.8575412912490259,0.15407718598751513
-7545.368141174316,-3900.0,1028.0,-15932.0,-225.0,-144.0,-200.0,-0.4630759609974717,0.10283977645358611,0.862188217567388,0.17780920171131412
-7545.383806467056,-3908.0,1948.0,-15640.0,-209.0,-170.0,-144.0,-0.44573949154718057,0.1030412488840624,0.866954585305807,0.1977082540535673
-7545.399432897568,-3832.0,2132.0,-15680.0,-173.0,-189.0,-457.0,-0.42128068313576505,0.0783582957052944,0.874668116651291,0.22657945455073458
-7545.415041208267,-4084.0,1816.0,-15812.0,-129.0,-183.0,-497.0,-0.3958795226038776,0.0487066176552605,0.8813944286751165,0.2530828522045201
-7545.430648088455,-3760.0,1316.0,-15848.0,-35.0,-211.0,-234.0,-0.3739198414984258,0.03654020724856214,0.8887108496895751,0.26275804656005836
-7545.446261405945,-3940.0,1640.0,-15800.0,148.0,-377.0,-20.0,-0.34420535890740256,0.03875036622275781,0.9040398759145508,0.25046553210657996
-7545.4618265628815,-3556.0,1992.0,-15620.0,157.0,-437.0,-171.0,-0.30595573113377517,0.030035700249757918,0.9204414706867323,0.24140514977305014
-7545.4774005413055,-3412.0,2144.0,-15784.0,110.0,-400.0,-388.0,-0.26532944409863135,0.004320210708331068,0.9334202227850873,0.24147113610033122
-7545.492962837219,-3632.0,1728.0,-15644.0,159.0,-398.0,-169.0,-0.2289420624092575,-0.0047723049552514185,0.9453861136850491,0.23196519828777962
-7545.508565664291,-3604.0,880.0,-15720.0,116.0,-321.0,-37.0,-0.2013003362555767,-0.0036723666930608473,0.953797346692622,0.22301414705883071
-7545.524111032486,-3680.0,1176.0,-15572.0,131.0,-279.0,361.0,-0.1846291387144577,0.02944788765338721,0.9606260979365477,0.2055295672488826
-7545.5397300720215,-4004.0,1712.0,-15456.0,73.0,-252.0,263.0,-0.1680353993033254,0.0547785868973455,0.9648910700761757,0.19429007665280984
-7545.555302619934,-4252.0,2128.0,-15744.0,88.0,-179.0,-507.0,-0.14433293925141427,0.01378111057491666,0.9704035449991449,0.19311924681776788
-7545.570884943008,-4192.0,2248.0,-15772.0,308.0,-208.0,-421.0,-0.11955772242700118,-0.022258271306748373,0.9776043323959462,0.17175648356664527
-7545.586457967758,-4004.0,1864.0,-15740.0,358.0,-307.0,-641.0,-0.08256964867016583,-0.07593303993217612,0.9826030203606387,0.14801260400146296
-7545.60208272934,-3724.0,1596.0,-15764.0,529.0,-348.0,-580.0,-0.04131948234283778,-0.12467093693747393,0.9853600982988454,0.1086983649487969
-7545.617670536041,-3572.0,1540.0,-15772.0,608.0,-517.0,-496.0,0.01471871047668836,-0.16408967720319087,0.9842883190667068,0.06351726022187165
-7545.633265018463,-3548.0,1480.0,-15768.0,816.0,-625.0,-300.0,0.08172025656643302,-0.18455858265419917,0.979416155419993,0.0019808426765715874
-7545.648863315582,-3636.0,1620.0,-15720.0,946.0,-697.0,-161.0,0.15582511481913663,-0.1904121860073349,0.9668610048357997,-0.06812877761576798
-7545.664457082748,-3816.0,1960.0,-15748.0,1167.0,-753.0,-50.0,0.2366293913054005,-0.18187824037534736,0.9420267284649179,-0.15333779607809328
-7545.680050849915,-3980.0,2272.0,-15812.0,1388.0,-855.0,-667.0,0.3161836497980426,-0.21692205069751339,0.8849477232643296,-0.2642730606983122
-7545.695626974106,-4152.0,2044.0,-15724.0,1550.0,-929.0,-735.0,0.39452227847091764,-0.24875554467940214,0.7983447221188147,-0.3809442944137663
-7545.711295604706,-4008.0,1656.0,-15916.0,1971.0,-928.0,-922.0,0.46147568417511386,-0.2703019258544595,0.6670159016627699,-0.5187165398591826
-7545.7268924713135,-4112.0,1216.0,-15984.0,2190.0,-1120.0,-535.0,0.5411383885419785,-0.25784546255536367,0.4985323553647463,-0.6262191729261247
-7545.742480516434,-4048.0,1012.0,-15800.0,2393.0,-1357.0,-269.0,0.6214652119781809,-0.22433707505937506,0.28960656135274365,-0.6925185244281616
-7545.75808262825,-4040.0,1448.0,-15972.0,2636.0,-1590.0,-355.0,0.6678289272271497,-0.18006707583294038,0.036116494553337666,-0.7213015811578312
-7545.773647785187,-4144.0,2140.0,-16204.0,3128.0,-1876.0,-659.0,0.6483890203422463,-0.11235018933247581,-0.2666846324953197,-0.7041650517083443
-7545.789224147797,-4088.0,2704.0,-16304.0,3591.0,-2074.0,-1350.0,0.5160998926459646,-0.004802930476077207,-0.5777702810944788,-0.6322968724844942
-7545.804852962494,-4116.0,3572.0,-16160.0,4419.0,-2268.0,-1947.0,0.2683110231665488,0.15168002758988422,-0.8383061403001584,-0.4497167766636048
-7545.820427894592,-4172.0,2840.0,-16072.0,5310.0,-2120.0,-2004.0,-0.03175963633398643,0.30009424151063685,-0.9457642717452596,-0.1202693394105389
-7545.83601641655,-4548.0,1828.0,-17112.0,5739.0,-2382.0,-2103.0,-0.3479949397834387,0.3755585726094543,-0.8194181709320283,0.25769971201202285
-7545.851585626602,-4584.0,2320.0,-17892.0,5999.0,-2344.0,-2455.0,-0.562951910751168,0.3613769136511455,-0.45680589474740557,0.5863618737482884
-7545.8671708106995,-4580.0,3344.0,-18432.0,6089.0,-1848.0,-3697.0,-0.5380616278275414,0.25605710575647794,0.05211561408949241,0.8013790651241566
-7545.882785558701,-5564.0,3640.0,-18996.0,6058.0,-1972.0,-4641.0,-0.2799421925130402,0.07297965718600458,0.553879693772958,0.7807199391036326
-7545.898394346237,-4904.0,3392.0,-18716.0,6299.0,-1437.0,-4530.0,0.0478819655578499,-0.16635407562133836,0.8624183116824585,0.47567667020074117
-7545.914491415024,-5864.0,4204.0,-17752.0,5596.0,-2108.0,-3859.0,0.3805351367258596,-0.29386312357967503,0.8748869927995139,0.05839712447758908
-7545.9301924705505,-5308.0,-76.0,-18448.0,6748.0,-623.0,-4007.0,0.5120904404984926,-0.30708786213380146,0.6478520510522522,-0.473020238073955
-7545.945823192596,-5864.0,716.0,-17388.0,6199.0,-1484.0,-2367.0,0.5713730221327576,-0.1936764200456926,0.22573752813500558,-0.7648953407418961
-7545.961412906647,-4624.0,964.0,-16092.0,5890.0,-1074.0,-575.0,0.5788751761937626,0.014999124741018496,-0.20402589270630142,-0.7893364249475886
-7545.977033615112,-5052.0,5204.0,-13048.0,3597.0,-2074.0,703.0,0.5496189303791064,0.03902030212267067,-0.5234239180326163,-0.6499414199930387
-7545.992768526077,-3496.0,7168.0,-10860.0,747.0,-1474.0,158.0,0.48348818820727574,-0.015640965802527315,-0.6306479084003569,-0.6068589190932808
-7546.008413314819,-2996.0,7868.0,-10232.0,-2248.0,-1215.0,-153.0,0.3955187307794485,-0.1622750066889983,-0.5497516747836808,-0.7176383851768505
-7546.024093389511,-2760.0,7336.0,-11000.0,-4625.0,-796.0,-753.0,0.22587599359798846,-0.3099726426018524,-0.27575337862701665,-0.8813949571731909
-7546.039697170258,-3092.0,6436.0,-12416.0,-6836.0,-700.0,-357.0,-0.002960646837840043,-0.42014713870559445,0.1940300082536606,-0.8864648737005251
-7546.055322885513,-2916.0,5160.0,-12860.0,-8534.0,-501.0,851.0,-0.1933187785223292,-0.35406328763354517,0.7085633127112826,-0.5789689716214277
-7546.070906639099,-3396.0,4036.0,-13964.0,-9768.0,-419.0,1636.0,-0.29227104011277155,-0.08267960692010276,0.9527206012042513,0.008073273929830526
-7546.0865161418915,-3680.0,3072.0,-14712.0,-11220.0,13.0,2335.0,-0.26560568107548643,0.2811295955706574,0.6797470003606552,0.6231884050392763
-7546.102136850357,-4132.0,2344.0,-15532.0,-11902.0,143.0,2819.0,-0.09247056027810456,0.48988729455484326,-0.02721814598385707,0.8664403076062372
-7546.1177277565,-4596.0,1996.0,-15668.0,-12233.0,276.0,2793.0,0.1483557316814582,0.3784826385225816,-0.7240427552961637,0.5572284609721434
-7546.133368968964,-4456.0,1964.0,-16268.0,-12582.0,931.0,1974.0,0.3517162291412234,0.030466851357990887,-0.9277040736417489,-0.1213779917263129
-7546.1489341259,-4288.0,2108.0,-16496.0,-12786.0,1451.0,1732.0,0.34491082981671767,-0.3221399662034285,-0.4978981619727758,-0.7275711525024399
-7546.164512634277,-4232.0,1772.0,-17036.0,-12766.0,1745.0,1566.0,0.10666338897498145,-0.43932231573114744,0.27071420294542126,-0.8499015499907145
-7546.180090904236,-4348.0,1400.0,-17388.0,-12513.0,1682.0,1714.0,-0.19102950344695796,-0.26126538795702514,0.8560944127233334,-0.40292739094328733
-7546.195723772049,-4312.0,1816.0,-17224.0,-12284.0,1363.0,2329.0,-0.33057832863165554,0.11141240816631598,0.887933502407922,0.29979883129739526
-7546.211339473724,-3900.0,2220.0,-16636.0,-11366.0,1965.0,3437.0,-0.3185916695137556,0.4511482361594583,0.345203994718929,0.7588140873473167
-7546.226929187775,-3920.0,1404.0,-16048.0,-11196.0,2667.0,2713.0,-0.09582302122750018,0.4647156895878914,-0.40158172237226564,0.783319472954815
-7546.242515563965,-4052.0,784.0,-16676.0,-9807.0,2721.0,4035.0,0.08779041407724401,0.1586606003878714,-0.9099145433793193,0.37306189945840235
-7546.258099555969,-5692.0,3104.0,-16268.0,-9783.0,1583.0,4507.0,0.14648625719857086,-0.2361343580942256,-0.926974867397934,-0.2519919375534957
-7546.273693561554,-5056.0,4384.0,-15472.0,-9539.0,1550.0,4656.0,0.12952347747801574,-0.5115076609959376,-0.4391418974272847,-0.727143710313464
-7546.289341211319,-5236.0,4348.0,-15928.0,-9318.0,1822.0,4158.0,0.03496313453755805,-0.4900180537390166,0.26565335936765794,-0.8295108069759024
-7546.304964065552,-4696.0,4072.0,-16704.0,-8892.0,1434.0,4495.0,-0.039941204380543084,-0.23237928152174614,0.8309519983996393,-0.5039080730328841
-7546.320554971695,-4180.0,4704.0,-16176.0,-8222.0,1153.0,5822.0,-0.02561383577429846,0.20156567342816584,0.9784536451276242,0.03665617340697482
-7546.336117744446,-3544.0,4992.0,-14948.0,-8294.0,1290.0,5438.0,-0.005272344682824477,0.5125221000009841,0.6428633147768411,0.5692275976323168
-7546.3517236709595,-4524.0,3000.0,-14468.0,-8900.0,2454.0,3295.0,0.06957434867210711,0.44051038430629985,0.03983394645800136,0.8941606500147214
-7546.3672976493835,-4764.0,900.0,-15208.0,-6799.0,2987.0,4722.0,-0.0379939194265436,0.1449855775666983,-0.518788423553286,0.8416615804296621
-7546.382858276367,-5828.0,2952.0,-14688.0,-6699.0,1347.0,5517.0,-0.23613266319976586,-0.14409680836325686,-0.8613474547562453,0.4260962771189708
-7546.398414850235,-4804.0,5636.0,-13400.0,-6806.0,1320.0,5434.0,-0.3365578156070917,-0.3658368819734901,-0.8508873051287859,-0.16995001180455968
-7546.414033651352,-4176.0,6308.0,-13168.0,-7154.0,1897.0,4377.0,-0.2870985572778219,-0.36209020651192114,-0.5286607244583712,-0.7120273443992848
-7546.429629087448,-4132.0,5028.0,-13732.0,-6741.0,2113.0,3766.0,-0.13824844225906344,-0.193267149538073,-0.03608475253480816,-0.9706869051124942
-7546.4452176094055,-3632.0,4400.0,-14588.0,-6116.0,1779.0,4274.0,0.1048962449889481,0.014654642128151645,0.4424422421229378,-0.8905205677785001
-7546.460809707642,-3132.0,5300.0,-14300.0,-5586.0,1977.0,3823.0,0.28344851027651546,0.22558461463697677,0.7578966050608591,-0.5425506978138862
-7546.476402759552,-2884.0,4516.0,-13760.0,-4964.0,2498.0,2777.0,0.30537088529454004,0.3558764831868498,0.8791851453285484,-0.08446319531374422
-7546.492058515549,-3948.0,3424.0,-13988.0,-3597.0,2421.0,3629.0,0.23123002893549335,0.49889166107823013,0.768983298061037,0.3260436650638463
-7546.5076694488525,-4188.0,3504.0,-14260.0,-2728.0,1103.0,4493.0,0.13411611708083626,0.646559410322708,0.46922523567915947,0.5863458657346777
-7546.523290395737,-3744.0,3760.0,-14336.0,-1836.0,1011.0,5848.0,-0.09045920119354957,0.7147098725105931,0.050386588527399793,0.6917139023844232
-7546.5388724803925,-3096.0,3832.0,-14096.0,-942.0,70.0,7567.0,-0.4068806371590004,0.6255584396112381,-0.3987434951646024,0.5330369694497331
-7546.5544312000275,-3420.0,4368.0,-14584.0,145.0,-565.0,8853.0,-0.6690540167470088,0.267838248050088,-0.6763330154702978,0.15232546648872253
-7546.570036888123,-3876.0,6372.0,-14968.0,990.0,-313.0,7643.0,-0.673644641386851,-0.1965499731495176,-0.6833362601921328,-0.20155039243904938
-7546.585601568222,-4300.0,6852.0,-15104.0,453.0,-75.0,2157.0,-0.6207910789075025,-0.34684642385360936,-0.6383700923356714,-0.2946177520452009
-7546.60121512413,-3084.0,3632.0,-14644.0,1655.0,1656.0,-643.0,-0.4840074263142118,-0.35040719512387797,-0.7730692223752327,-0.21287457878822108
-7546.616774320602,-3776.0,2520.0,-15576.0,2934.0,1554.0,-3137.0,-0.3227770822225551,-0.21725602193716637,-0.9188954756383426,0.06516042491662868
-7546.632359266281,-4084.0,4820.0,-16152.0,3394.0,537.0,-4809.0,-0.1669264168683233,0.06188777728188244,-0.8941055643969831,0.41095098745344694
-7546.6479642391205,-3484.0,5296.0,-15732.0,3583.0,448.0,-5215.0,0.031270202529382354,0.35045201905159773,-0.6510583827340738,0.6725537443566292
-7546.663553237915,-1984.0,4616.0,-15468.0,4374.0,1267.0,-5155.0,0.23328283083099877,0.49821258780679967,-0.20009583246517781,0.8107558177530365
-7546.679132938385,-2000.0,5116.0,-14440.0,3478.0,819.0,-7721.0,0.5159880799689165,0.5187844501690266,0.3198438332341394,0.6019293296848924
-7546.694713354111,-2328.0,3076.0,-13456.0,4990.0,2184.0,-5569.0,0.43128843290751684,0.39155003080115736,0.7711756483828625,0.2568403791483392
-7546.710325241089,-4780.0,2580.0,-14060.0,4665.0,1717.0,-4954.0,0.22783689116643238,0.1665297792707173,0.9462873291597087,-0.157792503977364
-7546.725987195969,780.0,1628.0,-16492.0,5393.0,3754.0,-2735.0,-0.168576589058659,0.0846228654135945,0.8379989228468246,-0.5120338949504247
-7546.741594076157,-4128.0,6696.0,-18600.0,4286.0,2217.0,-7922.0,-0.5567736498065525,-0.3565675015059716,0.5227348304017212,-0.5381551977225185
-7546.757171869278,6628.0,10264.0,-20584.0,7191.0,3291.0,-3576.0,-0.5189822900403925,-0.5697909458857365,-0.06856979664474781,-0.6334775793973814
-7546.772731781006,-36.0,23380.0,-24476.0,3366.0,-1521.0,-5012.0,-0.5603171712357702,-0.6822454528735479,-0.3822730146187969,-0.27286104878851697
-7546.788318157196,-15436.0,4464.0,-21320.0,9202.0,-259.0,-4774.0,-0.0998226455573433,-0.725914247722005,-0.6473043026520519,0.2099549574462799
-7546.803937673569,-14156.0,-2088.0,-15924.0,10792.0,-2963.0,-3485.0,0.33566815482748674,-0.39752066951907533,-0.4504725855972875,0.725519577106718
-7546.819521665573,-8912.0,4828.0,-10584.0,9476.0,-325.0,-2799.0,0.6275164609096224,0.007921890511407301,0.03249385783648645,0.7778846213553074
-7546.835102796555,-7620.0,7468.0,-10548.0,8702.0,2422.0,-9609.0,0.8308842018031436,0.19199999867547557,0.5002736003749508,0.14997922679642806
-7546.850674152374,-4276.0,5836.0,-12904.0,5103.0,2758.0,-13345.0,0.49464539808819946,-0.03497338370349146,0.6130286418898399,-0.6150598969248389
-7546.866262674332,4040.0,-5536.0,-16932.0,4483.0,31.0,-3697.0,0.2747733651879117,-0.033609090149212636,0.32350832530743134,-0.9048272709746507
-7546.881852865219,1388.0,-3984.0,-17276.0,6035.0,-1293.0,5911.0,0.6378951979468876,0.1409376433209364,-0.13338177500044737,-0.7452755190056706
-7546.897430419922,-1420.0,6464.0,-15556.0,6123.0,-2231.0,5250.0,0.7090020858690116,0.22272254911926137,-0.5818417445346709,-0.3304101884991742
-7546.91317820549,-4436.0,10068.0,-15992.0,5295.0,-1494.0,-1269.0,0.4425776138482663,0.5129388281500916,-0.719725867842783,-0.15170197577598757
-7546.9289128780365,-3036.0,6560.0,-14248.0,4193.0,-390.0,-4466.0,0.15071229873553035,0.8376579326840561,-0.5204271085640959,-0.06906964233974437
