programtime,ax,ay,az,gx,gy,gz,q0,q1,q2,q3
-271.1428532600403,3936.0,10812.0,12008.0,41.0,-308.0,-71.0,0.9996092202821536,0.003886497224302159,-0.02698040870048339,-0.006193497605161985
-271.15063095092773,3996.0,10768.0,11940.0,-11.0,-292.0,-79.0,0.9985280808038046,0.0032680559336877224,-0.05250146836277604,-0.013213155430763157
-271.158408164978,3916.0,10896.0,11920.0,-20.0,-265.0,-95.0,0.9969006567445532,0.0019732962661309673,-0.07560208617938764,-0.021668208265775975
-271.1661913394928,3616.0,10968.0,11812.0,-36.0,-3.0,-102.0,0.9966445179307646,-0.0001679203626326808,-0.07583450773094069,-0.030802664146326205
-271.173987865448,3588.0,10908.0,11908.0,-97.0,-243.0,-134.0,0.9943432178460413,-0.008045040655720804,-0.09674059307890744,-0.043105685183850766
-271.18176221847534,3744.0,10972.0,11748.0,-76.0,-289.0,-165.0,0.9907858360431703,-0.014004035668335772,-0.1216495500707198,-0.057867962196949486
-271.18954944610596,3824.0,10896.0,11892.0,-118.0,-304.0,-197.0,0.9858728481704044,-0.02331304568445059,-0.1475415377546416,-0.07578076126751933
-271.1973993778229,3688.0,11000.0,11560.0,-121.0,-283.0,-2.0,0.9816181997560506,-0.035231702845914085,-0.17106166506052578,-0.07695676558294343
-271.2051980495453,3708.0,11048.0,11632.0,-148.0,-331.0,-312.0,0.9732847952176268,-0.045112558621136035,-0.19922283882701305,-0.10484190451600295
-271.21294116973877,3640.0,11120.0,11784.0,-138.0,-361.0,-419.0,0.9614501593006565,-0.052466710132319024,-0.22998886061949353,-0.1413009536400263
-271.22073674201965,3668.0,11144.0,11784.0,-151.0,-387.0,-478.0,0.945661310590738,-0.059906808384196854,-0.2623782756843585,-0.1824650662727791
-271.228577375412,3628.0,11208.0,11556.0,-150.0,-413.0,-480.0,0.9262909792178469,-0.06745193514425951,-0.29609058511432756,-0.22308210074228732
-271.236444234848,3600.0,11124.0,11912.0,-175.0,-457.0,-490.0,0.9022750590042995,-0.07739121920295128,-0.331873525888955,-0.26414064417105876
-271.24430084228516,3736.0,11156.0,11848.0,-172.0,-499.0,-602.0,0.870667491609529,-0.08450443647621518,-0.3703239748940465,-0.3125016366179251
-271.2521107196808,3712.0,11148.0,12048.0,-182.0,-266.0,-652.0,0.8412578333538911,-0.0840703047065684,-0.3895379724971172,-0.36534587676624564
-271.25993251800537,3748.0,11052.0,11996.0,-242.0,-535.0,-734.0,0.7952192610766677,-0.09335932924709484,-0.4249967731837756,-0.4222417615994296
-271.2677216529846,3780.0,10920.0,12024.0,-256.0,-265.0,-747.0,0.7537831106013142,-0.09268761348694068,-0.43880454469615504,-0.4802817923181164
-271.27549982070923,3760.0,10916.0,12216.0,-297.0,-526.0,-1012.0,0.6851899951491378,-0.09477414008883334,-0.4665968212698401,-0.551198638694643
-271.2832901477814,3692.0,10888.0,12152.0,-281.0,-480.0,-805.0,0.6223131139614558,-0.10129414384491761,-0.4865708612654606,-0.6047434841167858
-271.2910575866699,3732.0,10824.0,12108.0,-264.0,-453.0,-784.0,0.5574590709075442,-0.10568370103108456,-0.5023619283047436,-0.652459065834179
-271.2988369464874,3720.0,10812.0,12192.0,-294.0,-381.0,-796.0,0.4910793508915145,-0.10624470425389433,-0.5096982981686007,-0.6983987247912209
-271.30660128593445,3728.0,10820.0,12216.0,-289.0,-289.0,-905.0,0.4187870044830443,-0.09545544934691295,-0.5108084957096651,-0.7447015393947608
-271.3143768310547,4088.0,10996.0,12092.0,-336.0,-232.0,-956.0,0.3420810861264423,-0.07971211541383776,-0.5031900147459859,-0.7895735040075365
-271.32215094566345,3820.0,10796.0,12260.0,-379.0,-176.0,-996.0,0.26190254835793314,-0.059029971512084806,-0.4869153617720324,-0.8311654156046879
-271.3299632072449,3832.0,10704.0,12032.0,-330.0,-142.0,-1000.0,0.18085213139616682,-0.034159155015235566,-0.4691534573398982,-0.8637248937967049
-271.33773493766785,3868.0,10740.0,11884.0,-339.0,-55.0,-1064.0,0.09696067853537992,-0.00011627628371881145,-0.4453013391037246,-0.8901153468456852
-271.3455066680908,3776.0,10784.0,11924.0,-295.0,-55.0,-1047.0,0.013510587261982536,0.033487294385980616,-0.4207813630590721,-0.9064431088869794
-271.35331296920776,3676.0,10808.0,12036.0,-290.0,-43.0,-1279.0,-0.08772090890863621,0.07596891069992721,-0.3914856286240297,-0.9128377563007337
-271.361088514328,3696.0,10808.0,11992.0,-508.0,-32.0,-772.0,-0.14636281917272914,0.10306733569782212,-0.3444890896117932,-0.9215651450735328
-271.36885809898376,3604.0,10876.0,12164.0,-289.0,-64.0,-990.0,-0.22429868097315975,0.13054845017085018,-0.31028061032874266,-0.9145343879405043
-271.3766360282898,3640.0,10892.0,12284.0,-260.0,-166.0,-959.0,-0.3011228545490241,0.14749146837326238,-0.2743344885988141,-0.9012834635066669
-271.3844175338745,3692.0,10932.0,12184.0,-238.0,-132.0,-942.0,-0.37387408217525875,0.16501709142408055,-0.23920448611514217,-0.8807773521372672
-271.3921809196472,3524.0,10976.0,11952.0,-1.0,-142.0,-874.0,-0.4426253052413248,0.17157424300860988,-0.22132232384206524,-0.8518577036484406
-271.3999423980713,3528.0,11076.0,11980.0,-240.0,-149.0,-897.0,-0.5068448741942388,0.18617487430005664,-0.18374664645022293,-0.8213917211663879
-271.40771865844727,3632.0,11116.0,11776.0,-248.0,-109.0,-873.0,-0.5653189377780753,0.20239807453852274,-0.146575709354574,-0.7861075495374478
-271.41549730300903,3532.0,11144.0,12108.0,-278.0,-112.0,-910.0,-0.622090711475788,0.2190210478019294,-0.10561425693697185,-0.7442301767913905
-271.42327857017517,3668.0,11156.0,11840.0,-321.0,-37.0,-959.0,-0.675962681659652,0.24166545162658648,-0.064254829785512,-0.6932125066261029
-271.43107199668884,3660.0,11076.0,12044.0,-394.0,26.0,-1057.0,-0.7279653919458617,0.27083007749165006,-0.01963762512324554,-0.6295489027347227
-271.4388372898102,3700.0,11092.0,11976.0,-455.0,84.0,-1092.0,-0.772988950611404,0.30434273907882575,0.02563335244880512,-0.55606340523803
-271.44663190841675,3704.0,10996.0,12020.0,-485.0,190.0,-1147.0,-0.8113800431463261,0.34142089519666746,0.06636451518462662,-0.46977648837642105
-271.4544024467468,3648.0,10932.0,12100.0,-532.0,255.0,-1185.0,-0.8400897102093053,0.37993830993199984,0.10469230410321402,-0.37274076904468234
-271.4621708393097,3608.0,10828.0,12036.0,-540.0,27.0,-1220.0,-0.8564250953991508,0.4063128832215306,0.1596317361343598,-0.2756149591685701
-271.46995997428894,3620.0,10728.0,11964.0,-502.0,357.0,-1240.0,-0.8672151405644334,0.4318180190396425,0.18761356189261025,-0.1620871672972807
-271.47775769233704,3640.0,10760.0,12036.0,-768.0,330.0,-1232.0,-0.8540212536551369,0.47031420897187687,0.21809683449290115,-0.04342826186530955
-271.48555088043213,3604.0,10828.0,12220.0,-445.0,390.0,-1252.0,-0.8418839573282657,0.47749033266990565,0.24036374159861304,0.07388948724139952
-271.4933371543884,3668.0,10736.0,12020.0,-453.0,344.0,-1232.0,-0.8166435708668959,0.47919777559979776,0.26169665636906203,0.18702307362254567
-271.50110697746277,3668.0,10836.0,12140.0,-440.0,409.0,-1255.0,-0.7814150536815883,0.4715844907664912,0.2758469849839445,0.30150791502641744
-271.5088949203491,3660.0,10864.0,12328.0,-486.0,390.0,-1186.0,-0.7346274625211993,0.46258586441506766,0.28337052735491575,0.40747754978602857
-271.516704082489,3712.0,10972.0,12460.0,-466.0,399.0,-1137.0,-0.6809517034464597,0.4471352700431246,0.2853441767750779,0.5049292313160131
-271.52452421188354,3752.0,11108.0,12388.0,-518.0,468.0,-1097.0,-0.6200683646519963,0.427038840871794,0.27578229667816834,0.597576084179737
-271.53234124183655,3712.0,11288.0,12460.0,-555.0,414.0,-994.0,-0.5543964791456449,0.4090681774031774,0.2600812848838303,0.6765097895818883
-271.5401134490967,3636.0,11384.0,12336.0,-644.0,488.0,-961.0,-0.4828106275273257,0.3870645176749418,0.23143781053652535,0.7506740284289806
-271.5479118824005,3592.0,11464.0,12396.0,-729.0,495.0,-1058.0,-0.39595856011018954,0.36115347071437864,0.1972352147965965,0.8209039281856093
-271.55568623542786,3624.0,11624.0,12320.0,-834.0,566.0,-1157.0,-0.2938197044927993,0.3263605251316409,0.15316116165728919,0.8852685736246111
-271.5634505748749,3632.0,11672.0,12140.0,-783.0,666.0,-1289.0,-0.1788969858215752,0.27470602869357613,0.11135023303394553,0.9381543539666835
-271.57124876976013,3636.0,11576.0,11960.0,-1256.0,842.0,-1498.0,-0.03365521053137169,0.20710944801341666,0.031015277018340157,0.9772466709787977
-271.5790283679962,3696.0,11440.0,11980.0,-1353.0,880.0,-1664.0,0.12780782388170203,0.12886372607745503,-0.05544145451106448,0.9818276556390922
-271.58679580688477,3668.0,11168.0,11956.0,-1481.0,969.0,-1876.0,0.3023817684205348,0.037511823353374586,-0.14645202233334773,0.9411216363414711
-271.59459400177,3640.0,10820.0,11968.0,-1653.0,1067.0,-2034.0,0.47430106648799497,-0.06564367224938417,-0.239919626146798,0.84449273508512
-271.6023669242859,3836.0,10328.0,11836.0,-1758.0,783.0,-2248.0,0.6258598711623284,-0.14415168954148083,-0.33864319416592187,0.6876339863009331
-271.61013531684875,3740.0,10172.0,11804.0,-1733.0,1103.0,-2250.0,0.7458813257152284,-0.23034007749417384,-0.39677716165943966,0.4828792609283924
-271.6179060935974,3832.0,9944.0,11824.0,-1640.0,1042.0,-2219.0,0.8160243202958506,-0.2944128230109621,-0.42860508288855326,0.25243431077115314
-271.62571573257446,3904.0,9252.0,11856.0,-1476.0,769.0,-2079.0,0.8306273925098088,-0.3297534774320418,-0.44777732051701835,0.028570092132008142
-271.63350081443787,4080.0,9332.0,11808.0,-1242.0,866.0,-1881.0,0.8155787509433634,-0.3407852974015394,-0.4326749160208988,-0.17745168111606008
-271.64132809638977,3924.0,9268.0,12016.0,-970.0,717.0,-1590.0,0.7775238527034233,-0.33347790000474786,-0.4077252500512174,-0.3435247722600525
-271.6491074562073,4048.0,9404.0,12088.0,-651.0,521.0,-1348.0,0.7297773257148218,-0.31089834394764565,-0.3883574221322282,-0.46898378146578246
-271.65688920021057,4072.0,9656.0,12176.0,-449.0,381.0,-1054.0,0.6835859525629092,-0.2863656408605531,-0.3722314197056271,-0.558702725406918
-271.66469287872314,4152.0,9752.0,12312.0,-194.0,198.0,-776.0,0.6456507391661832,-0.2621565874256603,-0.36938936435740655,-0.6147849576747342
-271.6725118160248,4072.0,10292.0,12312.0,-139.0,123.0,-586.0,0.6140828881053083,-0.24389444626237958,-0.3678770042574762,-0.6542814496508023
-271.68028569221497,3944.0,10752.0,12456.0,-162.0,64.0,-552.0,0.5803894513954788,-0.23064524032832304,-0.3664816172669075,-0.6896680955562443
-271.68806624412537,3868.0,11148.0,12316.0,-293.0,61.0,-602.0,0.5392275241458152,-0.22191161931711886,-0.3572714128631642,-0.7296204821456063
-271.69587111473083,3724.0,11480.0,12424.0,-500.0,116.0,-665.0,0.4894365068160408,-0.2164655599939329,-0.3319862817834009,-0.7767751771522163
-271.7036452293396,3560.0,11816.0,12264.0,-806.0,171.0,-863.0,0.4183160757573634,-0.21286521138294934,-0.2848673283220393,-0.8357934360836508
-271.7114140987396,3428.0,11928.0,12280.0,-1146.0,498.0,-1098.0,0.32580904551684137,-0.1888259287233371,-0.20150760993346292,-0.9042056832602179
-271.71922731399536,3292.0,11904.0,12116.0,-1499.0,363.0,-1395.0,0.19415889857347024,-0.17519596661536269,-0.09458072890088784,-0.9605535805497903
-271.7270050048828,3096.0,11956.0,12260.0,-1541.0,383.0,-1690.0,0.031396965094233995,-0.15205160654856925,0.014646961593884823,-0.9877651573349495
-271.7347972393036,2964.0,11592.0,11880.0,-1823.0,472.0,-1972.0,-0.15899908789414002,-0.11562740757542034,0.14261571647845322,-0.9700568798166203
-271.74260687828064,2828.0,11312.0,12068.0,-2246.0,502.0,-2191.0,-0.3598858687703424,-0.06676185412341948,0.2923574801994186,-0.8834886077731086
-271.7503776550293,2780.0,10884.0,11888.0,-2323.0,441.0,-2449.0,-0.5498530933459194,-0.02144862624161006,0.42477427008757507,-0.7188660178655265
-271.7581419944763,2744.0,10520.0,11864.0,-2308.0,359.0,-2533.0,-0.6957470668591516,0.017065566896721205,0.5242487643613537,-0.4907219359769591
-271.765908241272,2728.0,10144.0,12020.0,-2236.0,218.0,-2518.0,-0.7773396870021525,0.04494667400771437,0.5855267798722116,-0.2255686094285256
-271.7736806869507,2676.0,9848.0,12284.0,-2094.0,34.0,-2519.0,-0.7889392216708402,0.05657190657934095,0.6097710748613511,0.050534742087201
-271.78144812583923,2572.0,9584.0,12124.0,-1944.0,-180.0,-2397.0,-0.7330410205181949,0.06134510985086333,0.6037106059199644,0.30728023697396845
-271.7892167568207,2804.0,9392.0,12388.0,-1710.0,-384.0,-2272.0,-0.6235004894240964,0.05938002195156508,0.5766336424902352,0.5246091831348242
-271.7969856262207,2844.0,9256.0,12464.0,-1433.0,-621.0,-2053.0,-0.47884615799324354,0.06083280520497093,0.5417359904802143,0.6881335941548159
-271.804749250412,2884.0,9156.0,12760.0,-1179.0,-812.0,-1855.0,-0.3162373571578238,0.06962241763508557,0.5040992385384152,0.8006438725210298
-271.812561750412,2888.0,9176.0,12460.0,-997.0,-939.0,-1690.0,-0.1481162500369956,0.08676451220779972,0.46216391965901554,0.8700218429796667
-271.8203320503235,2564.0,9164.0,12784.0,-879.0,-1026.0,-1551.0,0.017431788163763895,0.11161947734636013,0.41359997142787497,0.9034225416012156
-271.8281397819519,2840.0,9264.0,12808.0,-1005.0,-1009.0,-1484.0,0.17781165626546167,0.13390868494983718,0.3415781607895952,0.9131132673785526
-271.8359115123749,2856.0,9420.0,12944.0,-656.0,-1034.0,-1430.0,0.3258610253103123,0.16139121712330462,0.2858678951165294,0.8865929244928674
-271.8436870574951,2756.0,9572.0,13012.0,-633.0,-1274.0,-1385.0,0.46667807426418384,0.20458151303729116,0.2167216340303901,0.8327002539135215
-271.85145568847656,2728.0,9964.0,13124.0,-585.0,-986.0,-1368.0,0.5880167594958144,0.22405907528293956,0.15675633862200858,0.7612235359191265
-271.8592598438263,2788.0,9884.0,13040.0,-631.0,-873.0,-1353.0,0.694266091479618,0.228779731760808,0.0956195341964857,0.6756562241533148
-271.86705780029297,2780.0,9940.0,12896.0,-709.0,-1021.0,-1345.0,0.7862324729004854,0.23207118001345967,0.018782898841827943,0.5723885644167307
-271.8748314380646,3048.0,10060.0,12928.0,-801.0,-674.0,-1407.0,0.8637666768261568,0.20629544323074442,-0.03831383392132718,0.45812811334513937
-271.882616519928,2924.0,10196.0,13008.0,-819.0,-599.0,-1320.0,0.9196163993790303,0.1713743920361029,-0.09129122574532408,0.3414709472990639
-271.8903868198395,2868.0,10104.0,12832.0,-849.0,-572.0,-1277.0,0.9561067917109144,0.12942107851640686,-0.14178914209789048,0.22137259645912874
-271.89816451072693,2928.0,10112.0,13024.0,-862.0,-540.0,-1213.0,0.9733593577049086,0.08244735321708768,-0.18786839823106855,0.1023692320078502
-271.9059708118439,2912.0,10032.0,12964.0,-868.0,-548.0,-1167.0,0.9721624844532868,0.032743906267430456,-0.23153191261204573,-0.014863171470810572
-271.91375064849854,2928.0,10072.0,13028.0,-793.0,-601.0,-1064.0,0.9532568021387609,-0.013407867630418341,-0.27612539673590547,-0.12196910895479739
-271.9215214252472,2924.0,9928.0,12908.0,-719.0,-708.0,-999.0,0.917729910485949,-0.055966377390991265,-0.325955231103663,-0.21998355237912467
-271.92935252189636,2928.0,9784.0,12700.0,-682.0,-807.0,-977.0,0.8659136547321558,-0.09725274538317379,-0.37920285214173816,-0.3113529235311713
-271.93716049194336,3020.0,9620.0,12668.0,-569.0,-903.0,-917.0,0.800300265617017,-0.13319403012922876,-0.43640180836641107,-0.38901452009634846
-271.94494438171387,3008.0,9492.0,12632.0,-467.0,-1039.0,-894.0,0.7192548138662239,-0.16550636419534906,-0.4994496164805642,-0.45368517359344845
-271.95270442962646,2964.0,9436.0,12664.0,-370.0,-1144.0,-839.0,0.6257473843719649,-0.19568585373853883,-0.5640451716616804,-0.5019963166432688
-271.9605197906494,2936.0,9440.0,12672.0,-250.0,-1246.0,-777.0,0.5217298680724229,-0.22365715980657613,-0.6290337450401413,-0.5311233069910999
-271.96829986572266,2996.0,9564.0,12732.0,-141.0,-1319.0,-672.0,0.41197621924396277,-0.2521056829183607,-0.6898146731355272,-0.5393273923551846
-271.97606897354126,3008.0,9544.0,12764.0,6.0,-1365.0,-607.0,0.29883806995377954,-0.27717280210787393,-0.7461511285244654,-0.5264309443028933
-271.98384165763855,2976.0,9472.0,12592.0,47.0,-1354.0,-565.0,0.18433662690971825,-0.29886435399779354,-0.7907718868055723,-0.5013780299604119
-271.9916229248047,3088.0,9500.0,12952.0,109.0,-1327.0,-481.0,0.07397895693222699,-0.319514843639003,-0.8231271475630875,-0.4635720845458866
-271.9994180202484,3188.0,9768.0,12940.0,99.0,-1282.0,-404.0,-0.03150383852542968,-0.3393567061622857,-0.8408322391281201,-0.42053023646777127
-272.0072181224823,3144.0,9856.0,12960.0,118.0,-1190.0,-360.0,-0.12782012557106795,-0.35482174688870227,-0.8474903254110302,-0.3735287027372226
-272.01500034332275,3264.0,9816.0,13116.0,179.0,-1091.0,-496.0,-0.21796484064922006,-0.3537156357537832,-0.8517230477171565,-0.3192873740871308
-272.0227737426758,3224.0,9892.0,13212.0,164.0,-771.0,-134.0,-0.27332461871349817,-0.3674656508107922,-0.8436667558429987,-0.2801589787329183
-272.0305817127228,3260.0,9908.0,13268.0,145.0,-874.0,-85.0,-0.33414996835293687,-0.3848803222203147,-0.8265519062083575,-0.2387946451674509
-272.03836131095886,3288.0,9928.0,13288.0,143.0,-754.0,-74.0,-0.38446784592097455,-0.3985304712715464,-0.8081507130058163,-0.20062493361782308
-272.04615473747253,3292.0,9920.0,12952.0,92.0,-619.0,-93.0,-0.42596873284971826,-0.4052848787588077,-0.7909669164064065,-0.16931078770829924
-272.05395245552063,3280.0,9840.0,13120.0,14.0,-480.0,-102.0,-0.4597611338089211,-0.4054900705602098,-0.7761671641563215,-0.14751961158213972
-272.06171703338623,3180.0,9848.0,13032.0,20.0,-452.0,-139.0,-0.49111416909122574,-0.40235851762373465,-0.7624948208634847,-0.12456381645497232
-272.06949377059937,3124.0,9796.0,12928.0,-57.0,-402.0,-136.0,-0.5210576850846768,-0.39496530132879154,-0.7488309966894475,-0.10841327389920205
-272.0773091316223,3040.0,9796.0,12900.0,-46.0,-411.0,-169.0,-0.5507636209107826,-0.385431000662781,-0.7349005029792114,-0.08957470809460236
-272.0850918292999,3060.0,9744.0,13052.0,-127.0,-401.0,-162.0,-0.5816542949346986,-0.37178990131586404,-0.7194473134125516,-0.07645988286036391
-272.092875957489,2968.0,9700.0,12828.0,-77.0,-476.0,-180.0,-0.6147079170558651,-0.35940202758733986,-0.6998187442305752,-0.05672816318628272
-272.10067772865295,3020.0,9784.0,12748.0,-130.0,-478.0,-147.0,-0.6481378555198122,-0.34547639287405996,-0.6773584582048198,-0.04181986737541038
-272.1084613800049,3024.0,9828.0,12756.0,-98.0,-518.0,-107.0,-0.6814458736671373,-0.3351436634473608,-0.6501037701327907,-0.025987192465632428
-272.116238117218,2920.0,9972.0,12820.0,-69.0,-260.0,-111.0,-0.6983352187474827,-0.3252450513139559,-0.6374127640143666,-0.01576537739012836
-272.12404227256775,2988.0,9812.0,13028.0,-78.0,-514.0,-27.0,-0.7285230487935738,-0.3193852470083614,-0.6059964781377413,-0.003936985468382897
-272.1318464279175,3020.0,9816.0,12908.0,-41.0,-491.0,-256.0,-0.754933012139905,-0.3030715724855026,-0.5810845582366945,0.023759320516391312
-272.1396253108978,3100.0,9728.0,12920.0,-43.0,-506.0,73.0,-0.7811963790330643,-0.3026130985706963,-0.545210497017261,0.03005068886502219
-272.1474242210388,3112.0,9732.0,12900.0,49.0,-480.0,111.0,-0.8023800284376974,-0.30971476974489753,-0.5087883333908931,0.037382926203046445
-272.155237197876,3140.0,9784.0,12884.0,111.0,-448.0,150.0,-0.8191222844007966,-0.32242440462084787,-0.4724008394540444,0.043802207547411376
-272.16300654411316,3128.0,9720.0,12864.0,156.0,-430.0,119.0,-0.8323020748005957,-0.33657478249074746,-0.43715729955901794,0.053704445963034385
-272.17078590393066,3084.0,9748.0,12976.0,242.0,-430.0,200.0,-0.8417211485983079,-0.3593963892547921,-0.3982854157168542,0.06089721685114896
-272.1785566806793,3092.0,9736.0,13144.0,286.0,-411.0,230.0,-0.8473725454911177,-0.3857734394416876,-0.3587374516757537,0.06667880723603503
-272.1863377094269,3120.0,9840.0,13184.0,311.0,-406.0,229.0,-0.8500223129207446,-0.4130740505403696,-0.318599144902227,0.07298274573219261
-272.19409918785095,3136.0,9852.0,13300.0,346.0,-404.0,308.0,-0.8496154520021151,-0.4440623624429854,-0.2747117909320307,0.07413254281159273
-272.2018795013428,3132.0,9972.0,13564.0,369.0,-301.0,278.0,-0.843450850391819,-0.4755352454943207,-0.23874776493854763,0.07386743533399093
-272.20966029167175,3160.0,10224.0,13348.0,337.0,-194.0,287.0,-0.8347154813708745,-0.5045497488623002,-0.2099993836736078,0.0676747732872776
-272.2174289226532,3236.0,10160.0,13328.0,327.0,-75.0,192.0,-0.8224632279455543,-0.531055071853411,-0.1938602986166522,0.06287236242110013
-272.22519850730896,3132.0,10240.0,13284.0,283.0,103.0,125.0,-0.8080746964026915,-0.553724623209884,-0.19366891050281132,0.05382081186143286
-272.23302698135376,3076.0,9988.0,13124.0,147.0,212.0,1.0,-0.7973053361753107,-0.5648566262614834,-0.20768578203947835,0.045910876854182034
-272.2408847808838,3012.0,10288.0,12956.0,45.0,323.0,-112.0,-0.7885431478453138,-0.5668951234389159,-0.23525847212097323,0.038510703741754006
-272.24869656562805,2948.0,10240.0,12984.0,-52.0,425.0,-226.0,-0.7810501668432807,-0.559512062468464,-0.2754833323491006,0.03187196925519694
-272.2564709186554,2868.0,10120.0,12820.0,-103.0,393.0,-305.0,-0.7751369335780752,-0.5456336950304724,-0.3170048784497485,0.030895179067808337
-272.2642412185669,2856.0,10032.0,12700.0,-90.0,340.0,-296.0,-0.7687135528564749,-0.5317777801103657,-0.3539192079895959,0.03214125778005815
-272.27205634117126,2764.0,9936.0,12620.0,-97.0,275.0,-290.0,-0.763528648222681,-0.5166953555742752,-0.3857101542283519,0.03574338814885821
-272.27983236312866,2676.0,9848.0,12592.0,-43.0,152.0,-278.0,-0.7592996625946049,-0.5047036295259503,-0.4082075819274087,0.04587852203405322
-272.28761291503906,2772.0,9792.0,12760.0,75.0,7.0,-190.0,-0.7549759275498361,-0.5028152792080203,-0.41652958663629386,0.06075563572067643
-272.29542541503906,2772.0,9784.0,12652.0,178.0,-119.0,-43.0,-0.7512354688010175,-0.5122234381165398,-0.409410711988004,0.07520165403009665
-272.30324125289917,2832.0,9796.0,12612.0,310.0,-337.0,108.0,-0.7496044089320472,-0.5337112707431627,-0.3799829601870346,0.0941193899196812
-272.31101512908936,2912.0,9876.0,12764.0,421.0,-410.0,187.0,-0.7441601916570026,-0.5632297075157165,-0.34034928200712383,0.11471822855156329
-272.3187973499298,3028.0,9964.0,12572.0,464.0,-445.0,12.0,-0.733649362675194,-0.5882879821166926,-0.30558752698642333,0.14930547911471087
-272.3266086578369,2832.0,10064.0,12696.0,459.0,-396.0,315.0,-0.723579661814589,-0.6197546413183205,-0.2574801810400539,0.1613710443179508
-272.33440923690796,3148.0,10068.0,12796.0,472.0,-346.0,336.0,-0.7094453888543237,-0.6510370488865136,-0.2103144176710081,0.1691326311809207
-272.3421833515167,3212.0,10056.0,12588.0,431.0,-303.0,265.0,-0.6936323334229794,-0.6771351071953327,-0.16979356515492244,0.17757358436923884
-272.34999227523804,3232.0,9988.0,12800.0,339.0,-227.0,206.0,-0.6797375650006567,-0.6965471237949935,-0.13841353975601697,0.18335931684021298
-272.3577973842621,3224.0,10048.0,12940.0,346.0,-85.0,197.0,-0.6625896956422918,-0.7175472568105628,-0.11569716018384239,0.1808728741345316
-272.36557722091675,3236.0,10020.0,13036.0,268.0,-35.0,173.0,-0.6487616106852366,-0.7338581262976696,-0.09849358843494992,0.1756691094221688
-272.3733561038971,3120.0,10032.0,12996.0,284.0,45.0,96.0,-0.6315616552390662,-0.7510989369855362,-0.09044061869123575,0.1697078577486458
-272.38117384910583,3172.0,10068.0,13024.0,219.0,97.0,127.0,-0.6182731835736459,-0.7653057897519343,-0.08413461401116767,0.15800849778119105
-272.3889491558075,3072.0,10056.0,12876.0,214.0,158.0,95.0,-0.6040708277219053,-0.7794063831214036,-0.08328479127672118,0.14383243231961615
-272.39673614501953,3092.0,10080.0,12816.0,199.0,191.0,-38.0,-0.5886192276176713,-0.7917028551459759,-0.0933660829619686,0.13422655692829508
-272.4045441150665,3036.0,10028.0,12792.0,174.0,161.0,250.0,-0.5780744709116616,-0.8041220265932987,-0.08223808235647354,0.11160004586925047
-272.412309885025,2844.0,10144.0,12552.0,196.0,134.0,255.0,-0.5657021240695541,-0.816690180271787,-0.06911783632340042,0.09066962541448266
-272.4200723171234,2968.0,10024.0,12548.0,201.0,72.0,248.0,-0.5527994076706783,-0.8282658906226428,-0.05334458055747924,0.07444988270759312
-272.42786598205566,2980.0,10072.0,12536.0,233.0,0.0,53.0,-0.5363048148127298,-0.8394981172214049,-0.04795723469402312,0.07293942987782581
-272.4356679916382,3088.0,10276.0,12544.0,242.0,-80.0,111.0,-0.519582307013999,-0.8504603040658932,-0.03449794745345855,0.07457472137163705
-272.44344997406006,3068.0,10220.0,12348.0,321.0,-153.0,185.0,-0.49723506372478615,-0.8639834259298491,-0.011701712695630593,0.07844106731246038
-272.45122814178467,3104.0,10296.0,12632.0,341.0,-512.0,225.0,-0.4729291723914894,-0.8740168096009215,0.02979873011410406,0.1074460335224799
-272.45899510383606,3144.0,10268.0,12580.0,376.0,-320.0,230.0,-0.4451840102020308,-0.8848797204473491,0.06402970913519895,0.12124056148633337
-272.4667663574219,3204.0,10244.0,12596.0,403.0,-343.0,252.0,-0.4143804981181526,-0.8942768917365971,0.1009725266543315,0.13550716787802308
-272.4745442867279,3236.0,10256.0,12700.0,417.0,-316.0,496.0,-0.3842642042200618,-0.899420610175144,0.1557592300085914,0.13828466876130893
-272.4823143482208,3152.0,10224.0,12696.0,433.0,-303.0,5.0,-0.3459530329051813,-0.9092071729676687,0.1713672301042885,0.15585919316559443
-272.49008560180664,3144.0,10104.0,12972.0,369.0,-186.0,245.0,-0.31704528564608775,-0.9133121228798032,0.2012800446036813,0.15757409906046652
-272.49786353111267,3184.0,10048.0,12884.0,375.0,-128.0,240.0,-0.2880681807052779,-0.9169276056355544,0.22893374335379416,0.1544339031515411
-272.5056462287903,3140.0,9980.0,12884.0,398.0,-112.0,178.0,-0.25627477686295824,-0.9211265871095007,0.25117378774899707,0.1508667544943756
-272.5134358406067,3148.0,10044.0,12872.0,371.0,-90.0,187.0,-0.22687224732571873,-0.9234780512596857,0.2729256727356121,0.1457012333400258
-272.5212142467499,3136.0,9744.0,12872.0,387.0,-37.0,223.0,-0.19756903314429425,-0.9246285613147024,0.2963343600669626,0.13496091207174082
-272.52899837493896,3096.0,10004.0,13052.0,409.0,10.0,226.0,-0.1674258088573827,-0.9251652191675236,0.3189594438091658,0.11959426815741091
-272.5367729663849,3136.0,10068.0,12860.0,443.0,-6.0,234.0,-0.13387997833204213,-0.924163253879155,0.3422455932772434,0.104241956349698
-272.54455828666687,3116.0,10116.0,12832.0,414.0,-237.0,270.0,-0.09582642853447884,-0.9177172394875569,0.37014359211158965,0.10773154208677105
-272.55233120918274,3120.0,10140.0,12660.0,417.0,29.0,337.0,-0.06652705692692364,-0.9095819226991918,0.40038387183429297,0.08903724934241725
-272.56011843681335,3172.0,10264.0,12652.0,388.0,1.0,275.0,-0.03792878158233329,-0.9014490101357282,0.4248661567267846,0.07375526097307666
-272.56789326667786,3208.0,10264.0,12600.0,401.0,-22.0,280.0,-0.007418896836215221,-0.8914332234383744,0.4491475602256329,0.059650961965123143
-272.57565927505493,3036.0,10340.0,12484.0,372.0,-31.0,291.0,0.021150556124584444,-0.879351508300663,0.4733490077901143,0.04726833664393079
-272.58343410491943,2844.0,10360.0,12444.0,359.0,-34.0,305.0,0.04875771954232024,-0.8652106755540153,0.49776100103092064,0.03559715641863601
-272.59123635292053,3080.0,10372.0,12552.0,353.0,-76.0,282.0,0.07773216904287074,-0.8505401398090697,0.5194223182235473,0.0271962460779906
-272.599002122879,3104.0,10452.0,12452.0,372.0,-65.0,3.0,0.1081872185197488,-0.8472678744649532,0.5198096310873443,0.015186246324856862
-272.6067740917206,3096.0,10480.0,12412.0,343.0,-69.0,150.0,0.13637148846247427,-0.836672099326551,0.5304193753507708,0.006156427172438157
-272.61455845832825,3172.0,10268.0,12764.0,322.0,-46.0,128.0,0.1618404359007011,-0.8265061933891911,0.5391477990080227,-0.0038518075737130875
-272.6223449707031,3236.0,10412.0,12620.0,349.0,33.0,96.0,0.18537516167048518,-0.8166391885120663,0.5461536534766295,-0.0212760902452691
-272.63014817237854,3216.0,10408.0,12704.0,353.0,5.0,36.0,0.21024092279087866,-0.8088173138757496,0.5478875845577938,-0.03784840612605867
-272.63798117637634,3260.0,10396.0,12692.0,319.0,49.0,49.0,0.23046659234712047,-0.8001365088710325,0.5509734321863435,-0.05563267033302587
-272.64575934410095,3220.0,10260.0,12672.0,290.0,57.0,-30.0,0.24773390785439423,-0.7952047046018189,0.5484356903943034,-0.0741328684191303
-272.65354180336,3260.0,10272.0,12648.0,276.0,107.0,-42.0,0.2613944733004427,-0.7902888965310698,0.545864817489785,-0.09564512729110683
-272.6613419055939,3180.0,10228.0,12668.0,233.0,164.0,-86.0,0.26883299654367004,-0.7874386154937073,0.5415473052345758,-0.11998234450065368
-272.66915369033813,3148.0,10212.0,12616.0,210.0,185.0,-107.0,0.2732975271335879,-0.7853658877049423,0.5361507103528238,-0.14509066089950826
-272.676931142807,3172.0,10224.0,12736.0,206.0,198.0,-119.0,0.27653565530831054,-0.7832304415551009,0.5299115107460294,-0.17109031984149667
-272.6847131252289,3156.0,10028.0,12596.0,217.0,201.0,-110.0,0.28031619871908536,-0.7797856210063097,0.5237989673719973,-0.19746355559321738
-272.6925163269043,3292.0,10164.0,12604.0,243.0,169.0,-113.0,0.2870632368290005,-0.7757993356819846,0.5158500173256498,-0.22277533176223807
-272.70028162002563,3124.0,10176.0,12644.0,270.0,156.0,-96.0,0.2963291448425552,-0.7700122011760868,0.5077927153230252,-0.2478241437425065
-272.7080588340759,3132.0,10228.0,12568.0,266.0,175.0,-112.0,0.30389060022945613,-0.7639793870563032,0.4988091569560474,-0.2741813709610002
-272.7158737182617,3068.0,10192.0,12584.0,244.0,101.0,-91.0,0.31348945819708224,-0.7588255183599336,0.48942036510755177,-0.29389776879566226
-272.7236442565918,3132.0,10252.0,12612.0,506.0,82.0,-79.0,0.341124479652775,-0.7454838337295765,0.47294852872105975,-0.32281206949254787
-272.73142290115356,3144.0,10324.0,12652.0,285.0,111.0,-58.0,0.35332490954269224,-0.7359863828984359,0.46425612785761833,-0.3434411161048951
-272.7392318248749,3180.0,10272.0,12620.0,250.0,76.0,-50.0,0.3647125815929642,-0.7278193729148188,0.4557458683953463,-0.3599436020798909
-272.7470033168793,3100.0,10360.0,12656.0,254.0,90.0,-46.0,0.37572267190158515,-0.7185202147603515,0.4475537730591632,-0.37716945133504526
-272.75479769706726,3184.0,10296.0,12588.0,501.0,140.0,-236.0,0.39342418474823454,-0.7058084864695298,0.4202948665504006,-0.41280021370411085
-272.76260924339294,3200.0,10188.0,12732.0,229.0,186.0,-68.0,0.39812950529982294,-0.6934751719041211,0.4140593287441982,-0.43490223641891257
-272.7703766822815,3168.0,10176.0,12788.0,223.0,221.0,36.0,0.40486428288045356,-0.6757547686632449,0.41525430732483193,-0.45497721407203956
-272.7781479358673,3148.0,10164.0,12796.0,186.0,248.0,-26.0,0.405676159592145,-0.6600058404087136,0.414900211383844,-0.4771550678328773
-272.7859106063843,3124.0,10144.0,12664.0,231.0,309.0,66.0,0.4103149050166584,-0.636166051751882,0.41972948609859745,-0.5007610126787024
-272.79368257522583,3052.0,10188.0,12748.0,272.0,283.0,23.0,0.4158243918591897,-0.6128185712961188,0.4189523049322469,-0.5253783779348712
-272.80145382881165,2820.0,10104.0,12612.0,314.0,298.0,93.0,0.4256854710430297,-0.5838818274253106,0.4199706132521543,-0.5490888592477208
-272.80922079086304,3048.0,10148.0,12548.0,305.0,269.0,122.0,0.43693264282191846,-0.5547629307259219,0.4212090964311905,-0.5691316661482297
-272.8169836997986,3036.0,10140.0,12500.0,304.0,299.0,89.0,0.4447788465603011,-0.524619460303609,0.4214414156253663,-0.5910442730616087
-272.8247592449188,3056.0,10156.0,12408.0,369.0,288.0,106.0,0.45617029788314023,-0.49105691200777224,0.417990397159317,-0.6132338839147708
-272.83254861831665,2996.0,10160.0,12412.0,340.0,246.0,129.0,0.4683525802263954,-0.4592538913514474,0.41471939226498555,-0.6306659571858877
-272.8403289318085,2980.0,10180.0,12468.0,362.0,216.0,112.0,0.48088777663150767,-0.4281413264284816,0.4077151878075436,-0.64746449827116
-272.8481140136719,3292.0,10224.0,12696.0,390.0,133.0,167.0,0.49981856468903946,-0.3979493605538531,0.39708598094392955,-0.6588933392930644
-272.85592246055603,3144.0,10336.0,12516.0,421.0,104.0,153.0,0.5192499295765562,-0.3679326986136561,0.3822941377137884,-0.6699673366629785
-272.8637044429779,3252.0,10344.0,12536.0,442.0,25.0,155.0,0.5412550863451661,-0.3409048264154827,0.36211812127401144,-0.6780098060331405
-272.8714790344238,3200.0,10352.0,12656.0,469.0,23.0,119.0,0.5610612138419125,-0.31326064552722294,0.3385388694898528,-0.68736418013353
-272.8792462348938,3328.0,10356.0,12588.0,451.0,255.0,105.0,0.5715864522725017,-0.2723900416975169,0.32632901498257894,-0.7018560869174393
-272.88702178001404,3380.0,10400.0,12336.0,408.0,65.0,27.0,0.58074871831819,-0.24702721922026344,0.3048403903823636,-0.7132887322309331
-272.8947994709015,3360.0,10336.0,12628.0,414.0,42.0,26.0,0.5898239795814898,-0.22248571248844856,0.2813743157622667,-0.7234889600252916
-272.9026095867157,3420.0,10336.0,12600.0,425.0,41.0,-10.0,0.5960610077500542,-0.19801782892941727,0.2560656198768867,-0.7347997092971226
-272.91038942337036,3416.0,10360.0,12628.0,394.0,115.0,-64.0,0.5958387137159971,-0.17134966124405512,0.23529465113440037,-0.7484997982473708
-272.9181606769562,3432.0,10484.0,12648.0,431.0,133.0,-112.0,0.5917809713507106,-0.1423152768783633,0.21196606845748492,-0.7645992608791361
-272.92596769332886,3408.0,10096.0,12544.0,487.0,163.0,-81.0,0.5888303830574083,-0.10755891146820627,0.18643206982658914,-0.7790718477088067
-272.93377470970154,3376.0,9972.0,12292.0,560.0,122.0,-254.0,0.5739957019373424,-0.07439668394308845,0.15173990771097093,-0.8012297223540799
-272.94156670570374,3324.0,9960.0,12508.0,596.0,83.0,90.0,0.5822562753831032,-0.03738843356403142,0.11435383460957384,-0.804054062437788
-272.94935178756714,3248.0,9896.0,12516.0,627.0,-9.0,147.0,0.5937825655585488,-0.004587078781632992,0.06996394309519287,-0.8015648883362664
-272.95716190338135,3268.0,9840.0,12436.0,752.0,-24.0,238.0,0.6094402164497446,0.03416497250027042,0.01585999975869486,-0.7919367636594469
-272.9649291038513,3268.0,9832.0,12376.0,808.0,-58.0,374.0,0.6310452603014436,0.07350328609128508,-0.044364955257020396,-0.7709804777878028
-272.9727017879486,3356.0,10000.0,12520.0,896.0,-71.0,387.0,0.6486868466676387,0.1162087288989785,-0.11095170545215138,-0.7439022955639661
-272.9804742336273,3292.0,10048.0,12516.0,946.0,-145.0,509.0,0.6677303192662277,0.15476315462219822,-0.18521075354751224,-0.7041885851633567
-272.9882423877716,3404.0,10172.0,12180.0,946.0,-204.0,565.0,0.6830926919608563,0.18732339009356078,-0.2618998895450681,-0.655517177173724
-272.9960436820984,3384.0,10184.0,12128.0,948.0,-4.0,632.0,0.7002040491704883,0.22793262386105131,-0.3253617360332116,-0.5932122295018232
-273.0038056373596,3428.0,10164.0,12276.0,776.0,-340.0,737.0,0.709980785713796,0.23548383123790417,-0.3989477811259427,-0.5303916638460924
-273.011563539505,3528.0,10280.0,12016.0,1038.0,-441.0,829.0,0.7065115640564262,0.24860918485355718,-0.4875495916193617,-0.4486984274240168
-273.0193450450897,3680.0,10344.0,11812.0,1042.0,-495.0,778.0,0.688346213576199,0.258448936521683,-0.5713928772698207,-0.3645460427318293
-273.0271108150482,3660.0,10336.0,11868.0,1054.0,-262.0,831.0,0.6732678092315084,0.27007063411714544,-0.6347635056981604,-0.2661721275301939
-273.0349118709564,3892.0,10260.0,11768.0,1080.0,-580.0,825.0,0.6297344672375368,0.2721037548792483,-0.707406342643155,-0.1702066794867486
-273.04269003868103,3956.0,10364.0,12008.0,1081.0,-685.0,772.0,0.5685258241163917,0.2713907108003291,-0.7728123390700872,-0.07672390751969227
-273.05046463012695,3984.0,10312.0,11780.0,1087.0,-814.0,783.0,0.4886648310328092,0.26461575399957876,-0.8312223087647611,0.015958040565503616
-273.0582523345947,3944.0,10268.0,11864.0,1139.0,-885.0,846.0,0.3929030126607554,0.2504171200587731,-0.8775824125790089,0.1129937952083134
-273.06602120399475,4060.0,10284.0,12100.0,1152.0,-1002.0,919.0,0.27863868340822395,0.2267056921085959,-0.9097082021856959,0.20831706639198624
-273.0738437175751,4036.0,10356.0,12152.0,1158.0,-780.0,988.0,0.17396292777179478,0.18852905921575872,-0.9169980843641949,0.3054639207249903
-273.08162093162537,4148.0,10556.0,12244.0,1208.0,-1003.0,1062.0,0.044924341746075264,0.14663347769304907,-0.9051826959310869,0.3963895984069878
-273.0894033908844,4284.0,10756.0,12264.0,1176.0,-1042.0,1180.0,-0.09191571308739328,0.09272185718660211,-0.8709557527937137,0.4736984648096706
-273.0971779823303,4296.0,10972.0,12084.0,1196.0,-952.0,1210.0,-0.22082405177908043,0.03007162278321359,-0.8119662389260334,0.5394842560291871
-273.1049723625183,4112.0,10916.0,12412.0,1129.0,-860.0,1226.0,-0.33799635972073194,-0.03759044822103732,-0.7356089987484179,0.5858539237543993
-273.1127462387085,4584.0,10872.0,12368.0,1059.0,-736.0,1214.0,-0.4386922478291245,-0.10787687829628721,-0.6479875980047091,0.6132077654887987
-273.12055683135986,4412.0,10860.0,12408.0,961.0,-672.0,1224.0,-0.5274871860594409,-0.17603712445934214,-0.5531626921323385,0.6203057595960902
-273.12833404541016,4316.0,10792.0,12376.0,832.0,-613.0,1142.0,-0.6008068938149203,-0.23420256266020603,-0.45807573067380764,0.6118389174901482
-273.13611340522766,4264.0,10636.0,12352.0,773.0,-518.0,1120.0,-0.6603053502494028,-0.28953708939381134,-0.3636244155999042,0.5898664278266745
-273.14391803741455,4316.0,10416.0,12508.0,1008.0,-429.0,1086.0,-0.6981519503699246,-0.35678400879830496,-0.25702116017427484,0.5650036712121004
-273.1517016887665,4292.0,10196.0,12436.0,698.0,-325.0,1098.0,-0.7329460293177839,-0.40511374294771224,-0.16722650946770123,0.5202963270228207
-273.15947341918945,4140.0,9984.0,12092.0,684.0,-237.0,1132.0,-0.7585253085156524,-0.4514608661251801,-0.0801896746628125,0.46302490081658576
-273.1672840118408,4028.0,9792.0,11928.0,732.0,-196.0,1219.0,-0.7743652305659434,-0.4965348924182417,0.010539682012253698,0.3920465602512524
-273.1750626564026,3996.0,9676.0,11876.0,840.0,-176.0,1300.0,-0.7752608320825601,-0.5409531306565654,0.1067085870086537,0.308145469105314
-273.1828308105469,3876.0,9528.0,11840.0,983.0,-227.0,1435.0,-0.7566367151755291,-0.5810464331131733,0.2138596292298192,0.21011897296657434
-273.19063448905945,3804.0,9456.0,11720.0,1138.0,-324.0,1624.0,-0.7119281274389102,-0.610469229847489,0.3334063383682834,0.09657056646097778
-273.1983916759491,3584.0,9464.0,11780.0,1256.0,-406.0,1735.0,-0.6365297403160878,-0.6233145994324011,0.4534852138071494,-0.025689699995197893
-273.20616579055786,3800.0,9524.0,11804.0,1378.0,-396.0,1970.0,-0.5297523309719065,-0.6091052643430291,0.5668402375218048,-0.16445482633739966
-273.2139675617218,3884.0,9680.0,11796.0,1285.0,-466.0,2082.0,-0.3992870909700846,-0.5591193319088457,0.6650464282631143,-0.29269205647732854
-273.22173404693604,3944.0,9800.0,11936.0,1701.0,-443.0,2263.0,-0.2258840516344139,-0.4834629736885283,0.725092181020391,-0.4352944719526765
-273.2294933795929,4000.0,10092.0,11916.0,1792.0,-411.0,2373.0,-0.03304235301674639,-0.37168347631257004,0.7402220096288238,-0.5593129471095636
-273.23739862442017,3976.0,10420.0,11856.0,1896.0,-266.0,2442.0,0.1591069547080423,-0.22427915882324645,0.7022998996339035,-0.6566267485073075
-273.24525809288025,3660.0,10608.0,12172.0,1957.0,-485.0,2496.0,0.35649389082607646,-0.06921657990446278,0.6087620252770815,-0.705358042025864
-273.2530472278595,4344.0,11000.0,11960.0,1967.0,-449.0,2505.0,0.5261561005873233,0.09384519894041893,0.47050243881718157,-0.702125552531497
-273.26080679893494,4332.0,11152.0,11948.0,1861.0,-408.0,2409.0,0.6523282245904011,0.24462383731742804,0.3069489480347379,-0.6483898587417911
-273.2685968875885,4108.0,11356.0,11916.0,1839.0,-407.0,2345.0,0.7319403818521729,0.3763639942787865,0.12514206562951274,-0.5540332883812955
-273.2763817310333,4104.0,11444.0,11836.0,1693.0,-396.0,2191.0,0.7642239154554096,0.4752691547777773,-0.0527089143097914,-0.43278494418718344
-273.2841730117798,4096.0,11504.0,11820.0,1587.0,-411.0,2114.0,0.7561132431148332,0.5411491325061057,-0.22198388335145172,-0.29355329244698913
-273.2919418811798,4204.0,11528.0,11872.0,1552.0,-364.0,2003.0,0.7097130698514749,0.58093456337249,-0.37125284671711795,-0.1448920817907103
-273.2997612953186,4192.0,11560.0,11892.0,1519.0,-313.0,1909.0,0.6324229975235421,0.5955413763078709,-0.49530674148649745,0.0065462314878682315
-273.30852341651917,4296.0,11296.0,11948.0,1491.0,-300.0,1539.0,0.5318035569271223,0.600814862990825,-0.5806795302117979,0.13790489636696324
-273.3164474964142,4236.0,11392.0,11884.0,1442.0,-131.0,1688.0,0.4214809824488117,0.5730570359548487,-0.6458094207513555,0.2772897528676932
-273.3242561817169,4216.0,11516.0,11964.0,1388.0,-11.0,1602.0,0.3075512183077263,0.5251703988090537,-0.681136743591095,0.4070147870314932
-273.33208656311035,4120.0,11204.0,12072.0,1345.0,94.0,1553.0,0.19331610641407862,0.4582890331729689,-0.6909232646888228,0.5246189925898844
-273.33992981910706,3980.0,11060.0,12092.0,1271.0,160.0,1426.0,0.08570733881402529,0.3811227260750016,-0.677589103408468,0.6231153397924702
-273.34770917892456,3976.0,10936.0,12100.0,1148.0,5.0,1370.0,-0.026326205365420217,0.30473522490644245,-0.6527246199424405,0.6931045694072967
-273.35549306869507,4008.0,10972.0,12060.0,1172.0,219.0,1535.0,-0.1359116265350547,0.1985048223268813,-0.614293080144795,0.7515103971148968
-273.363272190094,3932.0,10864.0,12140.0,1033.0,318.0,1109.0,-0.20760556524965382,0.10497001537075497,-0.5642808942573889,0.7921289652111686
-273.3710539340973,3776.0,10780.0,12156.0,909.0,337.0,1029.0,-0.2684534523075811,0.014400770173851706,-0.5129409749066556,0.8152404050489345
-273.3788232803345,3772.0,10692.0,11812.0,783.0,312.0,921.0,-0.31914174275935814,-0.06698992853704777,-0.4627928674226777,0.8243079881729987
-273.3866460323334,3828.0,10792.0,11988.0,663.0,356.0,816.0,-0.3579614415076544,-0.14336211448970534,-0.4180965986448455,0.8224999360026806
-273.39442133903503,3532.0,10652.0,11892.0,636.0,290.0,749.0,-0.3916869030021548,-0.2105385928945262,-0.3704497014427537,0.8154887427914307
-273.40220308303833,3464.0,10644.0,11772.0,588.0,221.0,699.0,-0.4221432687640271,-0.2680547192039751,-0.3220147033825421,0.8038956766615638
-273.40997838974,3328.0,10692.0,11728.0,663.0,132.0,763.0,-0.45474363692502745,-0.32188866315763637,-0.26125294919457953,0.7882530112495117
-273.4177556037903,3396.0,10844.0,11868.0,680.0,35.0,723.0,-0.48286413551961443,-0.3663501865994013,-0.19458568633464635,0.7712108518953517
-273.42552852630615,3532.0,10928.0,11888.0,725.0,7.0,816.0,-0.5122686611764201,-0.4093100873957924,-0.11921379501935178,0.7455428506864317
-273.4333379268646,3364.0,10884.0,11952.0,818.0,-84.0,920.0,-0.5407633958062796,-0.4473029071743973,-0.028965896652452482,0.7117977492381615
-273.44113063812256,3796.0,10936.0,12020.0,908.0,-150.0,1100.0,-0.5696969617456367,-0.47973909835677375,0.07707715528183637,0.6628385032715585
-273.44891452789307,3792.0,10976.0,11976.0,981.0,-130.0,1198.0,-0.59175743543798,-0.508112025906379,0.18889719200164998,0.5966264807960439
-273.45671820640564,3600.0,11012.0,11940.0,1047.0,-97.0,1392.0,-0.609321122513175,-0.5279082495789272,0.30672381246772706,0.5059260346642185
-273.4645278453827,3836.0,11016.0,11892.0,1070.0,-52.0,1493.0,-0.6168085120180566,-0.5355273226462914,0.42017552910468653,0.39523445060237644
-273.4723074436188,3904.0,10928.0,12280.0,1080.0,15.0,1599.0,-0.6135300077934597,-0.527983543572892,0.5239410795313202,0.2651415705481211
-273.48007702827454,3856.0,11032.0,12076.0,1101.0,59.0,1651.0,-0.5949597898538064,-0.5052003337247739,0.6131379905302299,0.1218904255060391
-273.48785972595215,3804.0,10848.0,12188.0,1031.0,29.0,1708.0,-0.5609018732271936,-0.46066981172971694,0.6874949424020722,-0.022871758627263702
-273.49565148353577,3620.0,10884.0,12096.0,1011.0,52.0,1698.0,-0.5125253560236916,-0.40221695626061915,0.7401991398233042,-0.1662663914748618
-273.5034234523773,3876.0,10940.0,12024.0,921.0,80.0,1716.0,-0.45404518882519707,-0.3267042894978122,0.7723390205458475,-0.3009978589138167
-273.5111906528473,3700.0,10928.0,12076.0,874.0,61.0,1643.0,-0.3851181801965232,-0.2457747439049202,0.783476739158055,-0.42123979125772326
-273.5189561843872,3800.0,11052.0,12008.0,822.0,77.0,1587.0,-0.31072579284178037,-0.1601333286090651,0.775264164584401,-0.5260915070999329
-273.5267713069916,3652.0,11116.0,11924.0,734.0,120.0,1543.0,-0.2351946504106728,-0.06937380763368857,0.7514656669611521,-0.6125113081496832
-273.5345950126648,3348.0,11172.0,11792.0,726.0,60.0,1435.0,-0.15653504715377986,0.012900616599692863,0.7130496764926487,-0.6832938693985484
-273.5423882007599,3640.0,11180.0,11776.0,735.0,58.0,1324.0,-0.0813386791088883,0.0879286715995214,0.6611008292599093,-0.740674193922959
-273.550169467926,3752.0,11160.0,11712.0,689.0,55.0,1228.0,-0.010353252875992975,0.15624924055467623,0.6021180770095229,-0.7829002531097604
-273.55797290802,3748.0,11180.0,11712.0,708.0,28.0,1086.0,0.052395872953157015,0.2132089362779235,0.5353765044359685,-0.8155787028157592
-273.56575655937195,3936.0,11220.0,11684.0,664.0,89.0,964.0,0.10397638591493585,0.26620243527286075,0.4679990816834577,-0.8362428081426512
-273.5735330581665,3888.0,11220.0,11748.0,661.0,243.0,905.0,0.14406154037572358,0.32524269884670576,0.3987918695470514,-0.845238726168325
-273.58132815361023,3872.0,11196.0,11900.0,708.0,143.0,829.0,0.1793699746411906,0.3717924080677416,0.323177830219017,-0.8515591039706738
-273.5891098976135,3848.0,11160.0,11892.0,705.0,161.0,811.0,0.2113449340144189,0.41574275722995374,0.2457043012166994,-0.8497768383763411
-273.59689593315125,4156.0,11500.0,11924.0,723.0,164.0,861.0,0.2443325927250341,0.4573836301519374,0.16288174805750652,-0.8393874761699922
-273.60469937324524,4248.0,11376.0,11856.0,654.0,169.0,842.0,0.2763768038579679,0.49339706511575127,0.08440467590618969,-0.8203968851169466
-273.61251735687256,4272.0,11432.0,11936.0,629.0,202.0,794.0,0.3035288406232655,0.5266307154803695,0.00983319062184569,-0.7939985143466733
-273.6202893257141,4308.0,11452.0,11816.0,549.0,298.0,725.0,0.32725702827456943,0.5603681569407418,-0.05361240719963225,-0.7589572293126895
-273.6280720233917,4232.0,11472.0,11812.0,425.0,361.0,632.0,0.3492046874649119,0.5917292529923723,-0.10222312629262775,-0.71934901811053
-273.6358802318573,4208.0,11524.0,11532.0,367.0,393.0,535.0,0.366673478129174,0.6213214484518527,-0.1407254009822423,-0.6780166514538805
-273.64368653297424,4060.0,11540.0,11748.0,265.0,399.0,358.0,0.37800568602102935,0.6480039141580344,-0.16292338650921073,-0.6408264965651842
-273.65145468711853,4060.0,11484.0,11644.0,213.0,368.0,323.0,0.3889671545762437,0.670168297806405,-0.18084637027608363,-0.6057009126904896
-273.65924882888794,4092.0,11460.0,11520.0,193.0,364.0,254.0,0.39662981769012307,0.6912187937380608,-0.19344453521911487,-0.572259188389545
-273.66701555252075,3888.0,11368.0,11448.0,179.0,368.0,193.0,0.40150234329292595,0.7118694278833412,-0.2011902129889887,-0.5399632248336727
-273.6747851371765,3856.0,11284.0,11596.0,180.0,385.0,137.0,0.4033592800421811,0.7332533560290758,-0.20458737684891576,-0.5077251346053595
-273.6825866699219,4200.0,11480.0,11280.0,180.0,357.0,126.0,0.4036584689414026,0.7525584260700348,-0.20796731653908263,-0.47693317252462936
-273.69034004211426,4148.0,11116.0,11576.0,213.0,378.0,88.0,0.40002087959974647,0.7735320636305346,-0.20917952051477082,-0.444831845326908
-273.69813203811646,4156.0,11172.0,11540.0,241.0,347.0,54.0,0.39203661162873477,0.7938006213596739,-0.20995706089329175,-0.4148564827174651
-273.70590925216675,4144.0,11068.0,11664.0,262.0,396.0,37.0,0.3822737801669814,0.8156457929207279,-0.2083078103028224,-0.38104665548251054
-273.7136754989624,3864.0,11132.0,11768.0,302.0,420.0,46.0,0.36968126884423613,0.8379250651236055,-0.20742610924787291,-0.34379027604864953
-273.7214460372925,4160.0,11140.0,11872.0,335.0,433.0,-51.0,0.35120331054330656,0.861599151291006,-0.19956988267368422,-0.3073678563019431
-273.7292151451111,4116.0,11148.0,11972.0,280.0,440.0,-9.0,0.3373348968501027,0.881177494154653,-0.19273718556842737,-0.269413749577891
-273.7369909286499,4096.0,11192.0,11968.0,282.0,443.0,-94.0,0.32065275401876103,0.9004570666774298,-0.178917747499223,-0.2331251209987179
-273.74481081962585,4100.0,11228.0,12276.0,290.0,452.0,-151.0,0.3015977111222185,0.9190002075183916,-0.16012426133861338,-0.19707272809233475
-273.7525899410248,3868.0,11200.0,11976.0,276.0,489.0,-87.0,0.2845534272387293,0.9347092353598093,-0.14485466083302173,-0.15609330419567732
-273.76037311553955,4048.0,11336.0,11844.0,227.0,548.0,-182.0,0.2701915944757828,0.9486936629180094,-0.11932266340194116,-0.11286690485926944
-273.76814579963684,4016.0,11260.0,11796.0,153.0,541.0,-204.0,0.2608944737209528,0.9584232646284899,-0.09106165657927245,-0.07118071439493594
-273.7759084701538,3976.0,11212.0,11960.0,74.0,595.0,-254.0,0.25753994903300353,0.9642411254214923,-0.056636215980372225,-0.026543657197090335
-273.78368854522705,4088.0,11136.0,11696.0,-233.0,616.0,-238.0,0.2792241672503943,0.9597858919454776,-0.02217945172171597,0.018787707871691952
-273.79147481918335,3796.0,11116.0,11464.0,-72.0,653.0,-237.0,0.2864798113904504,0.9556122248626182,0.013445985448503195,0.06748184077311091
-273.79928636550903,3660.0,11116.0,11464.0,-94.0,655.0,-251.0,0.294571459797641,0.947266975499406,0.05011194101602068,0.11576582210869193
-273.8070752620697,3640.0,11044.0,11440.0,-130.0,613.0,-205.0,0.304309474122475,0.9352452026321058,0.08137569028139846,0.1615244623707507
-273.81485056877136,3620.0,11040.0,11516.0,-161.0,521.0,-151.0,0.3155987067185189,0.9213816532566905,0.10514359680824577,0.20099285910148892
-273.8226351737976,3572.0,10980.0,11352.0,-151.0,402.0,-70.0,0.3251504278212464,0.9088208858195376,0.11911235982361619,0.2326672356029119
-273.83040285110474,3596.0,10952.0,11016.0,-123.0,326.0,-8.0,0.3316322025207078,0.8981551863787974,0.1264427259545381,0.25951797719101694
-273.83818769454956,3832.0,10960.0,11204.0,-92.0,174.0,6.0,0.336843110960883,0.8914266756376238,0.1289057494173752,0.27436929188047576
-273.8459846973419,3828.0,10856.0,11240.0,-138.0,48.0,91.0,0.3449272013170356,0.8870828816922304,0.11991711539066362,0.28236336914796145
-273.85380458831787,3700.0,10920.0,11412.0,-83.0,-111.0,179.0,0.34814224816441336,0.8889589118097437,0.10065006791182365,0.2800331980076818
-273.8615834712982,3772.0,10884.0,11460.0,-25.0,-237.0,202.0,0.3472046626916217,0.8953746035919792,0.07713591265177987,0.2679613636834243
-273.8693585395813,3784.0,10856.0,11468.0,4.0,-343.0,233.0,0.34363440110693055,0.9044383873545749,0.048595567958066105,0.24808279390189472
-273.87716007232666,3612.0,10936.0,11600.0,12.0,-482.0,208.0,0.33997921588508734,0.9151049638093638,0.017963267398904782,0.21604249350991053
-273.88494062423706,4028.0,10932.0,11624.0,27.0,-554.0,169.0,0.335183553795097,0.9253857264553423,-0.011448434920913731,0.17658475550247632
-273.8927104473114,3840.0,11256.0,11544.0,-29.0,-586.0,97.0,0.33510429354888976,0.9321727675459929,-0.03682113986397794,0.13192136881438488
-273.900502204895,4092.0,11128.0,11760.0,-14.0,-573.0,57.0,0.33343328385088045,0.9369528819413303,-0.05830494064818298,0.08684512731446661
-273.90828466415405,4204.0,11108.0,11660.0,-63.0,-563.0,-75.0,0.33598060420022935,0.9385616204120923,-0.06894837624627906,0.0382784495986696
-273.9160625934601,4268.0,11084.0,12020.0,-107.0,-488.0,-121.0,0.3419784080423042,0.9368001771806888,-0.07363295373795356,-0.005863837557958245
-273.9238317012787,4256.0,11148.0,11960.0,-135.0,-395.0,-255.0,0.3501389396447169,0.9333162279510724,-0.06444931916417368,-0.046581400225088096
-273.9316086769104,4260.0,11136.0,11688.0,-169.0,-353.0,-270.0,0.36062399358489117,0.9273941459189872,-0.05251857606321417,-0.08445254605024678
-273.9393711090088,4572.0,11236.0,11684.0,-222.0,-266.0,-369.0,0.37440252623628034,0.9191959408840261,-0.029369462468873536,-0.11848630842637908
-273.9471528530121,4260.0,11180.0,11760.0,-256.0,-223.0,-413.0,0.38978863512342704,0.9085468622751082,-0.0008893280325820156,-0.15035500681494404
-273.9549341201782,4284.0,11180.0,11760.0,-300.0,-141.0,-427.0,0.40762615489106163,0.8954774911760637,0.032054867718581154,-0.1758791235516462
-273.96275091171265,4284.0,11168.0,11728.0,-316.0,-134.0,-400.0,0.4262249014315706,0.8800761443141837,0.06330725620199634,-0.19947557474764466
-273.9705488681793,4204.0,11184.0,11732.0,-356.0,-71.0,-459.0,0.4455092304377672,0.8618828102398202,0.10195596969785778,-0.21973740521547144
-273.978324174881,4184.0,11124.0,11736.0,-386.0,-94.0,-428.0,0.46668771554689836,0.8401162965585837,0.137681316213945,-0.2396894648913528
-273.9861309528351,4320.0,11100.0,11764.0,-448.0,-74.0,-446.0,0.49046031884773383,0.8136498672601283,0.1764224147427277,-0.2574833989205902
-273.99391078948975,4072.0,11128.0,11672.0,-473.0,-76.0,-472.0,0.5138506908013389,0.7830212891897248,0.21688796721763337,-0.27530844141589744
-274.00169563293457,3972.0,11052.0,11972.0,-529.0,-42.0,-487.0,0.5381560878742335,0.7475356408205679,0.26041903313672926,-0.2894139215155589
-274.0094656944275,3960.0,10956.0,11744.0,-568.0,-90.0,-576.0,0.5614183186157085,0.7036636894809231,0.30727052142286665,-0.3086287580465013
-274.0172481536865,3996.0,10892.0,11752.0,-591.0,-72.0,-588.0,0.5823774837804757,0.655202212797333,0.3547432725975037,-0.32512111170733493
-274.02501678466797,3956.0,10884.0,11804.0,-641.0,-116.0,-521.0,0.6063571855761803,0.6015637841957615,0.39568494394135806,-0.3374691129308473
-274.0327868461609,3992.0,10824.0,11888.0,-671.0,-72.0,-536.0,0.6266364595519084,0.5438516247559015,0.43843466121788105,-0.3454377015517808
-274.04058623313904,4032.0,10776.0,11940.0,-708.0,-95.0,-538.0,0.645812199232552,0.480194324536076,0.4785517010746097,-0.3511812685841225
-274.0483763217926,4044.0,10732.0,11776.0,-690.0,-128.0,-466.0,0.6641174860427782,0.41677966652198367,0.5105165347636329,-0.353009266222541
-274.0561544895172,4020.0,10748.0,11884.0,-655.0,-169.0,-440.0,0.6803465574127201,0.3531278589533415,0.5354539227779237,-0.35456786886211594
-274.06394147872925,4048.0,10528.0,11976.0,-669.0,-171.0,-336.0,0.697107293551562,0.2917646179141904,0.5549842544746473,-0.3477172792597782
-274.07171726226807,4044.0,10544.0,11864.0,-667.0,-162.0,-344.0,0.710017670200349,0.22911189005722932,0.5727158218615102,-0.33967519371771543
-274.0794930458069,4012.0,10812.0,11936.0,-691.0,-157.0,-341.0,0.719988525242891,0.1642386969141392,0.588778557275379,-0.3286061235692903
-274.0872633457184,4132.0,10780.0,11976.0,-664.0,-157.0,-404.0,0.7243610698041227,0.0970591581755707,0.6021854201031939,-0.32133048436402123
-274.09503173828125,4228.0,10852.0,12016.0,-703.0,-100.0,-446.0,0.7212381507661833,0.02634644595510749,0.6175928040197347,-0.3125708289139478
-274.1028127670288,4276.0,10852.0,11912.0,-746.0,-77.0,-456.0,0.7126749612854629,-0.0471048236091614,0.6321930232861672,-0.30034566162641585
-274.1106240749359,4296.0,10832.0,11796.0,-777.0,-256.0,-500.0,0.7081178746319866,-0.12923309484710843,0.6322825535020848,-0.28650768813384364
-274.1183888912201,4296.0,10924.0,11888.0,-775.0,92.0,-601.0,0.6768614281204974,-0.20718246873923557,0.6481056067423313,-0.28087925213328024
-274.1261622905731,4424.0,10860.0,11804.0,-783.0,140.0,-619.0,0.6372245893210358,-0.2838841561873081,0.6617663335797512,-0.2746268893806117
-274.13395261764526,4404.0,10880.0,11864.0,-777.0,237.0,-717.0,0.5845536765026214,-0.361188670069796,0.6727634402318206,-0.2742792325130105
-274.141752243042,4344.0,10776.0,11800.0,-748.0,269.0,-516.0,0.5310616980023706,-0.42174878328433146,0.6857573541780596,-0.26426934726474116
-274.1495313644409,4592.0,10532.0,11836.0,-780.0,333.0,-722.0,0.4636134483510656,-0.49111148323343956,0.6893360713252475,-0.2620836933388987
-274.157333612442,4580.0,10828.0,11952.0,-706.0,327.0,-778.0,0.3940841734570575,-0.5564476804605276,0.6822155863651999,-0.2639044085671041
-274.1651027202606,4300.0,10788.0,11932.0,-694.0,335.0,-747.0,0.32181746672539313,-0.6143974082060999,0.6704971530270918,-0.2634063603686171
-274.1728823184967,4260.0,10768.0,11940.0,-672.0,327.0,-726.0,0.24891225177057946,-0.665505337411094,0.6534922055573682,-0.26094687978899445
-274.1807005405426,4256.0,10780.0,11940.0,-630.0,337.0,-601.0,0.17878652497782574,-0.7034758003670571,0.638126582810059,-0.256810515936242
-274.1884870529175,4284.0,10684.0,11876.0,-600.0,351.0,-568.0,0.10928785835762583,-0.734367418476259,0.620263615699433,-0.25304882085396985
-274.1962766647339,4316.0,10700.0,11976.0,-593.0,339.0,-527.0,0.041115281909538975,-0.758928455186611,0.6010983898555646,-0.24701793298181987
-274.20405554771423,4460.0,10628.0,12060.0,-580.0,330.0,-472.0,-0.024796849001699196,-0.7766913214157551,0.5820241273172918,-0.23954878988961714
-274.2118766307831,4356.0,10548.0,12060.0,-525.0,328.0,-359.0,-0.0844659601935952,-0.7854065569111813,0.5668284479441739,-0.23389645685793528
-274.2196526527405,4296.0,10512.0,12088.0,-527.0,348.0,-365.0,-0.14505096525989414,-0.790871915318568,0.548863754287995,-0.22853973454609613
-274.227427482605,4280.0,10496.0,12264.0,-478.0,367.0,-323.0,-0.2018030831810409,-0.7915575752518537,0.5304829043584657,-0.22649505262464137
-274.23529744148254,4344.0,10428.0,12220.0,-467.0,369.0,-313.0,-0.256996488510092,-0.7891580140323053,0.5106776435097281,-0.2244789036890128
-274.2432110309601,4272.0,10364.0,11984.0,-488.0,424.0,-318.0,-0.31522217041988637,-0.7825121499647595,0.48782093816212263,-0.2243667772285648
-274.25100922584534,4308.0,10356.0,12048.0,-432.0,405.0,-328.0,-0.3678647999257441,-0.7752804984712869,0.46188411040116795,-0.2242291377689955
-274.25880098342896,4236.0,10284.0,12000.0,-446.0,370.0,-265.0,-0.41761846135458025,-0.7631859210543877,0.44006952696739604,-0.22244298612204272
-274.26662135124207,4192.0,10280.0,12000.0,-401.0,362.0,-297.0,-0.46345100116800303,-0.7518162418859325,0.4142194199017656,-0.2200176814011398
-274.27440881729126,4092.0,10356.0,12052.0,-360.0,330.0,-268.0,-0.5036804140169322,-0.7396789472645372,0.3896749749051896,-0.21756495453541544
-274.28218150138855,4112.0,10360.0,11872.0,-276.0,241.0,-303.0,-0.5351161115862446,-0.7325832391911395,0.3643786176431842,-0.21023978639039234
-274.289986371994,4120.0,10452.0,11820.0,-498.0,183.0,-300.0,-0.5775965568788191,-0.714425000609319,0.3452296811450324,-0.19182180074904626
-274.2977921962738,4072.0,10476.0,11760.0,-181.0,92.0,-313.0,-0.5967106044007648,-0.7127365753094795,0.3238601585808665,-0.1762317408861538
-274.30556774139404,4004.0,10540.0,11764.0,-174.0,66.0,-338.0,-0.6143833184453112,-0.7117263941955684,0.3018301257520816,-0.1577252453159736
-274.3133454322815,3976.0,10632.0,11652.0,-155.0,-39.0,-358.0,-0.6276787057431475,-0.712875698358792,0.28358196572776423,-0.13194297919953407
-274.3211598396301,3880.0,10704.0,11732.0,-143.0,-179.0,-421.0,-0.6365707606602828,-0.7168016816511242,0.26854254643334224,-0.0941165055110186
-274.32892894744873,3912.0,10724.0,11632.0,-138.0,-238.0,-382.0,-0.6423559299547381,-0.7193362134102844,0.258727808641486,-0.05471921384771308
-274.3367085456848,3920.0,10864.0,11716.0,-93.0,-265.0,-326.0,-0.6434480272583086,-0.7221373109297784,0.25333661301229093,-0.017689004719323356
-274.3445279598236,4028.0,10896.0,11760.0,-66.0,-308.0,-374.0,-0.640925643775741,-0.7264095460216581,0.2468996024172117,0.02416768349436089
-274.3522961139679,4056.0,10948.0,11696.0,-146.0,-375.0,-398.0,-0.6406144278635414,-0.7250354092299215,0.24200960256565213,0.07326774489420995
-274.3600769042969,4236.0,11020.0,11796.0,-124.0,-403.0,-394.0,-0.6367561594634013,-0.72281959120806,0.23849311777122506,0.12326582951894417
-274.3678789138794,4208.0,10920.0,11908.0,-136.0,-417.0,-411.0,-0.6314992010772469,-0.7182283352095261,0.23394060680003612,0.17501031407029247
-274.37564992904663,4188.0,10888.0,11944.0,-211.0,-425.0,-467.0,-0.6279889255708934,-0.7083290765751851,0.22448231729218054,0.231316920828532
-274.38342785835266,4596.0,10820.0,11976.0,-294.0,-411.0,-261.0,-0.6321978273050634,-0.6880575809586573,0.22466881413557105,0.2764536062181033
-274.3912434577942,4400.0,10968.0,12012.0,-309.0,-420.0,-538.0,-0.6283293305911692,-0.6698603287151338,0.2076453563648562,0.3367087737386986
-274.3990261554718,4504.0,10984.0,12156.0,-355.0,-401.0,-562.0,-0.6240047521135043,-0.6471690741433056,0.18594406433539631,0.39650354821955197
-274.4068109989166,4488.0,10636.0,12072.0,-403.0,-347.0,-649.0,-0.6171588409348054,-0.6219324774367624,0.1538659547038058,0.45677152554473555
-274.4146206378937,4488.0,10496.0,12256.0,-470.0,-346.0,-724.0,-0.6072985422912675,-0.5904500087520493,0.11415165687072172,0.519159577518585
-274.4224088191986,4492.0,10364.0,12088.0,-490.0,-329.0,-1011.0,-0.580574648342392,-0.5565909490965699,0.057079274289601876,0.5915078609219488
-274.43019008636475,4480.0,10328.0,12336.0,-505.0,-346.0,-532.0,-0.5746114591121616,-0.5143490939300436,0.02276442689237514,0.6361984450614424
-274.4380009174347,4564.0,10484.0,12324.0,-462.0,-306.0,-760.0,-0.5508204334685904,-0.4739569635835593,-0.02143245476345214,0.6866602483229531
-274.44583344459534,4520.0,10004.0,12292.0,-379.0,-275.0,-661.0,-0.5262084783172661,-0.4367895977048046,-0.05794567300308101,0.7272975894804837
-274.45362281799316,4608.0,10160.0,12156.0,-346.0,-270.0,-681.0,-0.4964149432850331,-0.39919298094603767,-0.09303695875085195,0.7652197673564934
-274.461398601532,4512.0,10148.0,12180.0,-286.0,-249.0,-610.0,-0.4668554798510942,-0.3643875165086841,-0.12214684899625515,0.7964595696116182
-274.46918654441833,4496.0,10252.0,12212.0,-212.0,-189.0,-569.0,-0.43549237907855187,-0.3359231799110911,-0.14682502371997283,0.8221583894679619
-274.47696137428284,4368.0,10176.0,12248.0,-175.0,-215.0,-481.0,-0.4084795280491231,-0.3072206951742899,-0.16488562869725026,0.8435476566682552
-274.4847466945648,4280.0,10152.0,12120.0,-148.0,-149.0,-423.0,-0.3832126718804347,-0.2845535631176544,-0.18141782289813876,0.8598051473224645
-274.49254965782166,4208.0,10192.0,12140.0,-74.0,-105.0,-329.0,-0.36193424661108486,-0.2687756067122392,-0.1912952369631231,0.871876944689878
-274.5003311634064,4196.0,10464.0,12208.0,0.0,-92.0,-228.0,-0.3461180324805188,-0.25782657003457554,-0.1934458636130064,0.8810825530147778
-274.50809812545776,4052.0,10220.0,12220.0,72.0,-33.0,-85.0,-0.338574568770303,-0.2559321080974291,-0.1885661493760138,0.8856121186706469
-274.5158941745758,3948.0,10248.0,12156.0,141.0,64.0,-7.0,-0.3338730386745599,-0.26482230365541876,-0.17944740610765333,0.8866772637065236
-274.523663520813,3932.0,10252.0,12116.0,227.0,96.0,142.0,-0.3380817066048988,-0.28091505339409,-0.1610952895606046,0.88364913858222
-274.5314393043518,4048.0,10332.0,12096.0,296.0,124.0,284.0,-0.35081611437302274,-0.30289711127781277,-0.1346190837752841,0.8758191001338539
-274.53923869132996,3764.0,10388.0,12504.0,306.0,95.0,429.0,-0.374077875872975,-0.32410792168930463,-0.10243680805420836,0.862859489277523
-274.54702258110046,3780.0,10432.0,12392.0,317.0,83.0,560.0,-0.40598024189683307,-0.34504449350237015,-0.06508339997697876,0.8437348468212739
-274.55480575561523,3824.0,10452.0,12496.0,382.0,37.0,751.0,-0.44845034642362364,-0.36445219766253595,-0.01536643197666477,0.8159845312135435
-274.5626018047333,3740.0,10612.0,12212.0,343.0,36.0,838.0,-0.4957247374010857,-0.38023214988417087,0.034436332087762304,0.7800606617151178
-274.57036328315735,3760.0,10504.0,12256.0,314.0,33.0,904.0,-0.5451549384326081,-0.39181621149686796,0.08431504367501715,0.7363267772673087
-274.5781395435333,3816.0,10812.0,12176.0,221.0,15.0,1042.0,-0.6021830548049538,-0.3937480628895694,0.1330735594840161,0.6816373370368878
-274.5859272480011,3824.0,10952.0,12280.0,167.0,-18.0,958.0,-0.6509968631113191,-0.3887294228711443,0.17643390999499092,0.6276651937278096
-274.5937156677246,3760.0,11044.0,11804.0,98.0,-48.0,917.0,-0.6950222044601542,-0.3761132903251324,0.21512095895596295,0.5737646740311022
-274.60149788856506,3856.0,11148.0,11908.0,243.0,-125.0,856.0,-0.7254458550922677,-0.3671613054690749,0.2623136859127358,0.519723404589949
-274.60931181907654,3864.0,11072.0,11940.0,-77.0,-117.0,717.0,-0.7563373446848338,-0.3396217001752896,0.2886874502697277,0.47882196885889006
-274.61709427833557,3848.0,11092.0,11932.0,-89.0,-133.0,597.0,-0.7795552682861713,-0.3124390305674307,0.31099303937827794,0.4449255727912483
-274.62487053871155,4000.0,10880.0,11984.0,-104.0,-101.0,473.0,-0.7973861547389343,-0.2881122844384287,0.3263309867508393,0.41794104712572766
-274.63267064094543,4032.0,10836.0,11816.0,-122.0,-44.0,320.0,-0.8106013126233734,-0.2686340985886803,0.33265802947546874,0.40012481611893247
-274.64043831825256,4092.0,10824.0,12000.0,-59.0,-256.0,330.0,-0.8156023442962155,-0.24570585654336466,0.3559771663660837,0.38431979530695853
-274.64824414253235,4196.0,10656.0,12268.0,61.0,26.0,250.0,-0.8233398902424275,-0.24309232269045838,0.36119628559630296,0.3640807479886561
-274.6560523509979,4188.0,10600.0,12140.0,143.0,54.0,292.0,-0.8310011999248477,-0.24580225275086934,0.3676561345127828,0.3374125442558106
-274.66382598876953,4272.0,10612.0,12040.0,336.0,51.0,378.0,-0.8357999256717096,-0.25932469314484635,0.38134218619851534,0.2979384580711813
-274.6716048717499,4324.0,10500.0,12124.0,475.0,83.0,462.0,-0.8384777439097905,-0.28029585799089624,0.39718785760326397,0.24623385375212795
-274.67939019203186,4304.0,10240.0,12164.0,575.0,144.0,553.0,-0.839279646843586,-0.3055295649075029,0.41128705604229854,0.18194591749637298
-274.68714690208435,4332.0,10504.0,11996.0,678.0,192.0,695.0,-0.8361135813685392,-0.3320531730848286,0.4247294823001795,0.1012898620810287
-274.6949234008789,4220.0,10580.0,11760.0,642.0,355.0,767.0,-0.8339824178253593,-0.3520970791643349,0.42470466825808817,0.011265804982298936
-274.70269107818604,4276.0,10512.0,11652.0,582.0,439.0,722.0,-0.8298690662242973,-0.36665767583442904,0.4136518290398942,-0.07597134991335446
-274.7104535102844,4180.0,10584.0,11292.0,448.0,563.0,734.0,-0.8277792893254369,-0.3674018721160131,0.39161146816445497,-0.16259695732578666
-274.7182309627533,4116.0,10652.0,11332.0,270.0,573.0,786.0,-0.8244718088523427,-0.35056808900471,0.3699360521550489,-0.24595846945219993
-274.72601771354675,4020.0,10616.0,11476.0,94.0,636.0,768.0,-0.8226195581676031,-0.31770276185246177,0.3441094522366731,-0.322413868363059
-274.7338213920593,4056.0,10588.0,11188.0,7.0,631.0,852.0,-0.8140329727888893,-0.27376353539147646,0.32062188969798566,-0.399506507767941
-274.7416090965271,3996.0,10676.0,11072.0,-71.0,602.0,873.0,-0.7988107633638144,-0.22246124712263848,0.29965455421476556,-0.47182571570560944
-274.74940252304077,4000.0,10708.0,10948.0,-110.0,758.0,860.0,-0.7815155502363833,-0.1604352043388854,0.2664527176710158,-0.5408298615953012
-274.75718879699707,4012.0,10688.0,11156.0,-164.0,432.0,886.0,-0.7492846977431376,-0.10803761804773135,0.25593249317912325,-0.6011645978845271
-274.76496624946594,3900.0,10712.0,11064.0,-195.0,269.0,879.0,-0.7087234996570804,-0.061538317152961534,0.2557816565408819,-0.6545989464802124
-274.7727520465851,3944.0,10664.0,11284.0,-191.0,110.0,912.0,-0.6579883716556785,-0.023210746828801254,0.2636916283218821,-0.7049675802123901
-274.78056836128235,4012.0,10644.0,11416.0,-176.0,-42.0,875.0,-0.6018026352329983,0.004235408642517494,0.27765286241161125,-0.7488154228746149
-274.78835368156433,3776.0,10264.0,11416.0,-178.0,-197.0,840.0,-0.5405547642250236,0.020818574911040735,0.2982332779054418,-0.786399418719316
-274.7961127758026,3764.0,10612.0,11564.0,-145.0,-286.0,817.0,-0.4754603719138884,0.02904259522593191,0.3190516202129382,-0.8193290096423712
-274.8039038181305,3804.0,10468.0,11756.0,-70.0,-377.0,774.0,-0.40835340614669197,0.026316025616167915,0.33657750573959694,-0.8480981930851376
-274.81168603897095,3764.0,10428.0,11808.0,-100.0,-458.0,684.0,-0.343211750497601,0.015897355481010057,0.3575887585488833,-0.8683796682146303
-274.8194727897644,3732.0,10320.0,11780.0,-114.0,-446.0,533.0,-0.28825865068364903,0.0020258388940291596,0.377929216953836,-0.8798138173815399
-274.8272795677185,3820.0,10124.0,12200.0,-75.0,-459.0,427.0,-0.24001331510479015,-0.017321527689306122,0.39435717776756885,-0.8868911937741378
-274.83505630493164,3484.0,9984.0,11940.0,-11.0,-409.0,221.0,-0.20873108204033924,-0.041191880621649,0.40357337923111264,-0.8898668956293977
-274.8428282737732,3436.0,9836.0,11632.0,-24.0,-352.0,-85.0,-0.20297701545926058,-0.07112388991214336,0.4111337937819659,-0.8858389961440309
-274.8506362438202,3360.0,9936.0,11656.0,-249.0,-226.0,-372.0,-0.2250233226898881,-0.09750456215779359,0.4314655992648299,-0.868155977491983
-274.8584043979645,3300.0,9644.0,11336.0,-12.0,-163.0,-649.0,-0.2677787017572519,-0.13389120205813657,0.4291238223093509,-0.8521856945661789
-274.8661799430847,3568.0,9708.0,11648.0,29.0,-191.0,-930.0,-0.32841421954733196,-0.1830387121856958,0.4189232193053467,-0.8265254179802115
-274.87397813796997,3372.0,9812.0,11796.0,78.0,-232.0,-1133.0,-0.3984778434545698,-0.2422523699467838,0.39959713603698976,-0.7892093045586812
-274.88175225257874,3396.0,9804.0,11768.0,146.0,-360.0,-1204.0,-0.4630588936753881,-0.31226409176341846,0.3741134630914895,-0.7403422956423505
-274.8895320892334,3336.0,9792.0,11868.0,308.0,-583.0,-1132.0,-0.5055937763015718,-0.3967845987045174,0.34445856665217717,-0.6843136791384044
-274.8973352909088,3748.0,10296.0,12248.0,535.0,-843.0,-1088.0,-0.5225060479064016,-0.49932047541570873,0.30925663225808625,-0.6180831886859975
-274.90510606765747,4148.0,10620.0,12120.0,689.0,-796.0,-954.0,-0.5186179897825423,-0.5948422654550443,0.26460103053752104,-0.5542421443202489
-274.91288447380066,4604.0,10872.0,11952.0,734.0,-1222.0,-908.0,-0.4910362312606575,-0.7005135294664241,0.2345836198672182,-0.461665181613056
-274.9206838607788,4612.0,11044.0,11840.0,785.0,-1311.0,-860.0,-0.44579370112509786,-0.7952719278103463,0.2040870139358733,-0.35659364494721596
-274.92842507362366,4920.0,11352.0,11588.0,704.0,-1381.0,-886.0,-0.39525908542614663,-0.8708650276418178,0.172274233380531,-0.23597870143649044
-274.9362156391144,5364.0,11452.0,11600.0,627.0,-1417.0,-980.0,-0.34224146181785053,-0.9246113961009451,0.13204501156467455,-0.10260927313808846
-274.94403171539307,5428.0,11432.0,11432.0,479.0,-1485.0,-1057.0,-0.29212004464710134,-0.9515812481482552,0.08565023446593364,0.04269713133121477
-274.951815366745,5332.0,11320.0,11644.0,439.0,-1598.0,-1080.0,-0.23629099203107787,-0.9508017947784826,0.03777386647662318,0.19676292623965408
-274.9595944881439,5360.0,11184.0,11472.0,353.0,-1286.0,-1134.0,-0.18126874857695904,-0.9289337351099174,-0.023464477379523486,0.3219831903459971
-274.9674084186554,5292.0,11232.0,11392.0,306.0,-1554.0,-1065.0,-0.1280297886426289,-0.87582774856237,-0.07556325325399907,0.45915609853944644
-274.9751856327057,5448.0,10580.0,11196.0,193.0,-1563.0,-1273.0,-0.07153082896729392,-0.7946008025413978,-0.14539198555213187,0.5851103106637475
-274.9829845428467,5820.0,10704.0,11688.0,359.0,-1485.0,-882.0,-0.020254816169096652,-0.7014980983917348,-0.1768264113065904,0.6900888208333539
-274.9907944202423,5720.0,10316.0,11676.0,367.0,-1617.0,-670.0,0.017355099369019463,-0.5872285913843942,-0.19051367053464474,0.7864896206092035
-274.9986183643341,5980.0,10288.0,11844.0,601.0,-1734.0,-464.0,0.0504520923020852,-0.45331986772275434,-0.17322474609998606,0.872896827379251
-275.00639820098877,6640.0,10452.0,12132.0,827.0,-1854.0,-166.0,0.0667096361015729,-0.30104744767214,-0.12289248793962539,0.9433014868584141
-275.01417994499207,6768.0,10248.0,12404.0,986.0,-1808.0,55.0,0.0675841075235272,-0.14452885855824685,-0.049819586360408466,0.9859319480922486
-275.02198243141174,6732.0,10440.0,12408.0,855.0,-1768.0,218.0,0.051146679882879346,0.011739327653924271,0.016060299027963205,0.9984930005354693
-275.02979278564453,6636.0,10404.0,12584.0,695.0,-1725.0,420.0,0.01603473198659549,0.1636700305277581,0.06782218103858795,0.984050385008984
-275.0375669002533,6772.0,10692.0,12940.0,529.0,-1658.0,669.0,-0.03860073548130847,0.3067787884282326,0.10036008539703307,0.9456873751139474
-275.0453476905823,6808.0,11020.0,13252.0,434.0,-1664.0,952.0,-0.11246795059555129,0.4443870931102588,0.1149091573717816,0.8812871025482886
-275.0531404018402,7052.0,11236.0,13144.0,129.0,-1469.0,1017.0,-0.17869487872882875,0.5593610649403852,0.09879339162121159,0.8033823530031174
-275.0609073638916,7056.0,11076.0,12956.0,-188.0,-968.0,1003.0,-0.22970334082048077,0.6339282542649184,0.051477725288066344,0.7366962654036665
-275.0687143802643,6744.0,10612.0,12888.0,-600.0,-421.0,425.0,-0.22127800994894775,0.67299023935589,-0.002072624888969386,0.7057732527312187
-275.0765221118927,6464.0,10324.0,12568.0,-903.0,124.0,177.0,-0.17847153471099106,0.6804321749830566,-0.07016932518992658,0.7072738029561967
-275.0842933654785,6128.0,10184.0,12396.0,-1088.0,510.0,-7.0,-0.10963050176049985,0.6622186571734807,-0.1439786025158747,0.7271298131645194
-275.0920696258545,6092.0,9924.0,12060.0,-1184.0,741.0,-256.0,-0.015436604560102743,0.6248735291255247,-0.20970265100927354,0.7518773716488278
-275.0998685359955,5716.0,9616.0,11804.0,-1162.0,839.0,176.0,0.05143015156707181,0.5636261729188398,-0.2942407519025034,0.7701317138194607
-275.10765051841736,5456.0,9516.0,11852.0,-1077.0,899.0,474.0,0.0949449296085189,0.4821243718078606,-0.3826014775064721,0.7824050484629899
-275.11542105674744,5260.0,9320.0,11476.0,-854.0,794.0,842.0,0.0992126795465931,0.3896231293813604,-0.4659740972700712,0.7881743474267626
-275.1231939792633,5188.0,9460.0,11192.0,-550.0,999.0,1276.0,0.07007450617244698,0.2613374617251048,-0.5325073716075216,0.802015083316652
-275.1309633255005,5024.0,9120.0,11212.0,-186.0,602.0,1638.0,-0.01216179397986548,0.14030619138963749,-0.5724018051004096,0.8077886090696738
-275.138756275177,4996.0,9052.0,10852.0,185.0,467.0,1956.0,-0.12701516674841223,0.009336855659521172,-0.574823501400595,0.8083055813118118
-275.1465392112732,5348.0,9032.0,10904.0,504.0,210.0,2232.0,-0.26900584773726793,-0.12062755836835055,-0.5326779849355601,0.793308899742235
-275.15431928634644,5372.0,9216.0,10812.0,726.0,28.0,2435.0,-0.41853435857655663,-0.24680903532564233,-0.44643325134935197,0.7514064431864973
-275.16213393211365,5288.0,9000.0,10768.0,961.0,-213.0,2538.0,-0.5571441255836871,-0.3568789284899886,-0.31208537238295064,0.6817848444135592
-275.1699125766754,5508.0,9336.0,11096.0,1161.0,-359.0,2669.0,-0.668127347630046,-0.45010948003196544,-0.13775253760380018,0.5762217817107463
-275.177686214447,5516.0,9516.0,11508.0,1353.0,-497.0,2769.0,-0.7335560936702461,-0.5183006614042919,0.06587069487129478,0.4346503576258688
-275.1854691505432,5572.0,9592.0,11652.0,1524.0,-640.0,2834.0,-0.7388511850373224,-0.5529014853572304,0.28169328532306254,0.262769417669965
-275.19325733184814,5620.0,9632.0,11920.0,1675.0,-636.0,2888.0,-0.6794840859965503,-0.5514093314329683,0.4798377665679517,0.06328383570201385
-275.20103311538696,5592.0,9768.0,12040.0,1764.0,-644.0,2885.0,-0.5589989529178835,-0.5090838689975867,0.6383758742765322,-0.1443261171958529
-275.2088243961334,5604.0,9980.0,12516.0,1833.0,-580.0,2756.0,-0.3940358502940108,-0.43396382219919666,0.7350252059946484,-0.34080653787429716
-275.2165994644165,5684.0,9756.0,12288.0,1846.0,-494.0,2624.0,-0.206336917058316,-0.3307889634758496,0.7662826300969862,-0.5107001753603462
-275.224383354187,5732.0,9824.0,12124.0,1742.0,-289.0,2478.0,-0.02543576848809101,-0.20230461568498673,0.7396887455249508,-0.6413161653176181
-275.23214387893677,5768.0,9972.0,12040.0,1601.0,-78.0,2289.0,0.13209446622233156,-0.06067233222357941,0.6709253547331376,-0.7271375994075692
-275.24020314216614,5752.0,9968.0,11984.0,1429.0,10.0,2189.0,0.27103928886375356,0.08249987978510398,0.5770096706903742,-0.7660230503434347
-275.2481014728546,5748.0,10188.0,11540.0,1287.0,42.0,2203.0,0.3972506483195427,0.22127475590794934,0.4645714658893403,-0.7598702243732214
-275.25591349601746,5772.0,10144.0,11272.0,1115.0,79.0,2184.0,0.505956858910797,0.34587399195064084,0.3432263016307749,-0.7117405036121721
-275.2636921405792,5728.0,10016.0,11056.0,1008.0,35.0,2556.0,0.6158829997727698,0.4561562561547054,0.19914469103147045,-0.6106971365544441
-275.2714731693268,5708.0,9948.0,10900.0,930.0,-39.0,2381.0,0.6895875244904697,0.5322858818273691,0.05121414576227073,-0.48838294129525717
-275.2792913913727,5632.0,10008.0,10908.0,913.0,-213.0,2585.0,0.7374711664294696,0.573301849447686,-0.1174662881525994,-0.33713934693635333
-275.28707098960876,5704.0,10000.0,10956.0,927.0,-412.0,2571.0,0.7413597097230284,0.5777365413876534,-0.2916558100866316,-0.17760393573209485
-275.2948422431946,5748.0,10028.0,10908.0,989.0,-573.0,2886.0,0.6966542066026059,0.5397596976150499,-0.47255124565630596,0.005263599726129612
-275.3027968406677,5872.0,10244.0,10884.0,1089.0,-794.0,3038.0,0.5871413045920525,0.46192229424248105,-0.6371156108937419,0.18967493476787944
-275.3105843067169,5936.0,10264.0,10932.0,1177.0,-964.0,3067.0,0.4172039700028843,0.35224999552054787,-0.7575226061734377,0.3577992303035452
-275.31837821006775,5900.0,10308.0,11176.0,1205.0,-1002.0,3027.0,0.21035603473395514,0.21785995060050398,-0.8141353823470736,0.49545025964867245
-275.3261480331421,6156.0,10368.0,11260.0,1221.0,-1044.0,2959.0,-0.014347311237486643,0.07212499536961182,-0.802789280411912,0.5917106649021232
-275.33394742012024,6412.0,10396.0,11332.0,1188.0,-1071.0,3068.0,-0.24441196700733117,-0.08521744667142835,-0.7269383752271381,0.6360513939836451
-275.34171509742737,6404.0,10452.0,11464.0,1205.0,-964.0,2718.0,-0.4317653831757352,-0.2217617164892233,-0.597351813935661,0.6384130366609375
-275.34952330589294,6584.0,10496.0,11508.0,1114.0,-891.0,2462.0,-0.576403290823149,-0.3323655876905507,-0.44053424247847656,0.6026789722989131
-275.3573353290558,6496.0,10476.0,11572.0,1042.0,-1017.0,2317.0,-0.687894123020942,-0.40886336246457083,-0.2598517884551127,0.5404715296702439
-275.36510944366455,6616.0,10492.0,11600.0,991.0,-621.0,2163.0,-0.7516207592490538,-0.4772053623823905,-0.0962192003631892,0.4450653231390151
-275.37288904190063,6572.0,10252.0,11704.0,964.0,-575.0,1927.0,-0.7766672942483044,-0.5243418962019774,0.05832970324514712,0.34416730764508346
-275.38070702552795,6580.0,10512.0,11616.0,876.0,-407.0,1744.0,-0.7753441686733734,-0.5541290948292116,0.18936819861738524,0.23647843817219494
-275.38852643966675,6556.0,10344.0,11668.0,871.0,-273.0,1493.0,-0.7509367382175379,-0.5758989614138937,0.2946819873133205,0.13265341228432698
-275.39630222320557,6444.0,10344.0,11540.0,826.0,-43.0,1341.0,-0.7172237478064873,-0.5893483289060709,0.3709622568670371,0.02540958044030288
-275.4040834903717,6332.0,10220.0,11308.0,784.0,68.0,1159.0,-0.6767655396480017,-0.5964947794755688,0.4248364917344986,-0.0754740862420008
-275.4118881225586,6376.0,10144.0,11144.0,1012.0,279.0,944.0,-0.6236259263649334,-0.6147005700714562,0.44737087049005897,-0.18191541264079927
-275.4196689128876,6456.0,10012.0,10872.0,734.0,461.0,801.0,-0.586560230118484,-0.6127476896833917,0.4511203200369254,-0.277448773795811
-275.4274470806122,6444.0,9888.0,10796.0,735.0,570.0,708.0,-0.5498301555129687,-0.6054974310771379,0.4396204235439428,-0.3712055283136495
-275.4352602958679,6460.0,9924.0,10600.0,726.0,616.0,650.0,-0.5115900573430939,-0.592400168799788,0.41865969822537136,-0.46050158557328924
-275.44303607940674,6552.0,9872.0,10520.0,806.0,556.0,736.0,-0.4581731712536071,-0.5758254959094494,0.3971028725495795,-0.5484629905626466
-275.45083689689636,6560.0,9892.0,10380.0,910.0,519.0,955.0,-0.3819303264780187,-0.5500447972329963,0.37776362821830095,-0.6394330206899322
-275.45861649513245,6472.0,10052.0,10272.0,1032.0,380.0,1202.0,-0.27519139337926013,-0.5183721954145217,0.36141824770235054,-0.7245252336936737
-275.4663996696472,6452.0,10244.0,10404.0,1238.0,218.0,1386.0,-0.1367161705039332,-0.48417478895600297,0.3359863783612875,-0.796239044519807
-275.474169254303,6424.0,10340.0,10448.0,1329.0,106.0,1645.0,0.030049533164361854,-0.43701579787298545,0.3065086364840539,-0.8450838264496178
-275.4819917678833,6412.0,10556.0,10524.0,1434.0,-133.0,1747.0,0.2129667017358541,-0.38879426534252287,0.2617668660013619,-0.8572994290516848
-275.4898018836975,6592.0,10620.0,10840.0,1492.0,-226.0,1728.0,0.3902584618599838,-0.3318688437304763,0.20037033030604334,-0.8351126476354691
-275.4975724220276,6696.0,10640.0,11172.0,1447.0,-292.0,1624.0,0.5456943059568358,-0.2704817126408548,0.12940042646184008,-0.7825042474035853
-275.50534749031067,6864.0,10624.0,11484.0,1356.0,-297.0,1475.0,0.6713623053030657,-0.20622763787361695,0.05632953233417884,-0.709626521616994
-275.5131471157074,7008.0,10500.0,11672.0,1302.0,-271.0,1295.0,0.7663158924122212,-0.138418680138914,-0.016934396186553027,-0.6271470706707153
-275.52091574668884,7096.0,10292.0,11536.0,1535.0,-107.0,1078.0,0.8325437361696498,-0.04248489431071208,-0.09410339210655304,-0.5442522509959224
-275.5286900997162,7076.0,10272.0,11764.0,1217.0,-242.0,885.0,0.8693878878987196,0.027104964426849978,-0.165021204556074,-0.464970991918082
-275.5364420413971,7236.0,10216.0,11836.0,1174.0,186.0,1005.0,0.901712719156572,0.10842760280430466,-0.1993391044222668,-0.3679966691554442
-275.5442147254944,7116.0,10172.0,11820.0,1188.0,357.0,675.0,0.9113772437676203,0.200282641834971,-0.2143922016881199,-0.28864228168697137
-275.55205631256104,7116.0,10120.0,11560.0,1233.0,469.0,635.0,0.9071396258204453,0.2959716674969025,-0.21772931224412537,-0.20516436799587268
-275.55983090400696,7108.0,9732.0,11724.0,1054.0,562.0,656.0,0.8960291677478263,0.37424389171414324,-0.20786842617089163,-0.11774530759663822
-275.5675766468048,7104.0,9992.0,11624.0,1402.0,713.0,714.0,0.860868785618046,0.47269428066724184,-0.1878773029901688,-0.012929423580735448
-275.57534885406494,7140.0,10208.0,11368.0,1490.0,824.0,841.0,0.8030201641902628,0.5638920596849217,-0.16021560452672576,0.10730946367527837
-275.583114862442,6976.0,9740.0,11336.0,1300.0,914.0,926.0,0.7338714274404791,0.6253198307048986,-0.12792679197424842,0.23247058568526036
-275.59088945388794,6976.0,10020.0,11232.0,1610.0,1058.0,1084.0,0.6244219111073045,0.6821459886989871,-0.08507239915142344,0.3708595609305546
-275.59866523742676,6932.0,10120.0,11008.0,1685.0,1166.0,1104.0,0.4871837265478369,0.713336390094736,-0.0320269101512257,0.5027698162974169
-275.606440782547,6820.0,10280.0,11156.0,1729.0,1248.0,1133.0,0.32624285671182673,0.7131349523074895,0.02585160652095245,0.6199482500033267
-275.61422204971313,6788.0,10308.0,11112.0,1664.0,1307.0,1180.0,0.15259309352765882,0.6773533799690229,0.07799632105874858,0.7154189823827016
-275.621990442276,6692.0,10464.0,11024.0,1638.0,1430.0,1213.0,-0.028956975533210267,0.6038997403397668,0.1247781841351367,0.7867000711513055
-275.6298007965088,6604.0,10592.0,11044.0,1542.0,1479.0,1211.0,-0.20475266189597874,0.500116939024371,0.15957082103014672,0.8261334927378077
-275.63756704330444,6624.0,10620.0,11244.0,1460.0,1507.0,1030.0,-0.35630598550036213,0.3718614898585329,0.18919592309210698,0.836044245086427
-275.6454622745514,6672.0,10496.0,11072.0,1417.0,1645.0,1237.0,-0.507682694391465,0.222748488721042,0.1968510732306377,0.808635299474281
-275.65338587760925,6672.0,10668.0,11204.0,1356.0,1738.0,1237.0,-0.6358086871350248,0.05964514133458208,0.1872365147501999,0.7464129272882485
-275.6611919403076,6672.0,10664.0,11084.0,1292.0,1775.0,1247.0,-0.7350550972977157,-0.10488172273129953,0.16279829999991535,0.6497619115419878
-275.66895747184753,6828.0,10784.0,11120.0,1277.0,1745.0,1050.0,-0.7904651098534926,-0.2650694047967457,0.13035670054862866,0.5365726897327892
-275.6767313480377,6940.0,10872.0,11260.0,1280.0,1753.0,1339.0,-0.8233922317946502,-0.41010354636661117,0.09824403503112572,0.37972150776398866
-275.6845359802246,7048.0,10952.0,11292.0,1316.0,1735.0,1318.0,-0.8150698416445397,-0.5376291425610098,0.06306173254063197,0.20649279938930656
-275.6923198699951,7248.0,11076.0,11272.0,1310.0,1670.0,1302.0,-0.7684330911126177,-0.6387027333501855,0.028465766758981926,0.0275518242033473
-275.7001008987427,7448.0,11216.0,11312.0,1231.0,1720.0,1208.0,-0.6916429494680836,-0.7064813173237718,-0.016131865134460018,-0.1491775507602993
-275.70790696144104,7400.0,11344.0,11192.0,1187.0,1733.0,1279.0,-0.5861101126526287,-0.7403870771414548,-0.056003810431663185,-0.32429228338859817
-275.7156732082367,7504.0,11324.0,11436.0,1131.0,1748.0,866.0,-0.47102761052126435,-0.7387089400169566,-0.11916609621983404,-0.46716328363579435
-275.7234432697296,7532.0,11420.0,11500.0,1032.0,1835.0,654.0,-0.35236107900058083,-0.7001449464791677,-0.1910069762769986,-0.5908934412724075
-275.73124718666077,7632.0,11336.0,11544.0,931.0,1944.0,388.0,-0.2388030341477876,-0.623550622415026,-0.2702013631641334,-0.6936490146406095
-275.739018201828,7632.0,11332.0,11676.0,858.0,2092.0,144.0,-0.13157323984507172,-0.5081660120949245,-0.35109803188199923,-0.7753618243870398
-275.746789932251,7520.0,11268.0,11536.0,799.0,2228.0,-52.0,-0.030785602175121187,-0.35723485533245924,-0.4240531637859409,-0.8316335846497821
-275.75461077690125,7440.0,11140.0,11604.0,521.0,2361.0,-293.0,0.05042643273403853,-0.17239761112159646,-0.4667874791807425,-0.8659363070349773
-275.7623794078827,7380.0,11260.0,11616.0,702.0,2541.0,-438.0,0.12805643107431308,0.039479221106835695,-0.501576435700297,-0.8546718789754892
-275.77015590667725,7292.0,10900.0,11596.0,704.0,2660.0,-543.0,0.19592555348388263,0.26162316569793204,-0.5074092821973174,-0.7973094236256271
-275.7779517173767,7280.0,10736.0,11596.0,665.0,2747.0,-672.0,0.24792811547544127,0.47860310834346576,-0.4762693221356063,-0.6947217047374145
-275.78571486473083,7208.0,10584.0,11444.0,698.0,2906.0,-672.0,0.2888164328468764,0.6740615895818126,-0.4131348418346261,-0.5399496680527959
-275.79349088668823,7216.0,10536.0,11496.0,693.0,2995.0,-669.0,0.3130537062645159,0.8261564326925318,-0.3191366791536566,-0.34295000471435555
-275.80125761032104,7176.0,10504.0,11396.0,694.0,3104.0,-570.0,0.3200420034583729,0.9180547835079254,-0.20596725454484258,-0.11102261281300908
-275.80903029441833,7112.0,10396.0,11332.0,718.0,3210.0,-455.0,0.303424070738211,0.9387229838622839,-0.08336232974577643,0.14065459411160353
-275.8168058395386,7004.0,10388.0,11436.0,756.0,3233.0,-290.0,0.25796443224892207,0.8844405676283686,0.03391091974100728,0.3873877689731819
-275.8245680332184,6968.0,10328.0,11328.0,746.0,3275.0,-162.0,0.18829876896110237,0.7579497695283816,0.13951733229783217,0.6087615579749618
-275.8323473930359,6968.0,10392.0,11404.0,767.0,3090.0,-114.0,0.10218808135803475,0.5827274906067974,0.22990285666596288,0.7727424824715529
-275.8401231765747,7016.0,10460.0,11364.0,694.0,3377.0,30.0,-0.002692885702410735,0.3462139347392662,0.2923795871582214,0.8914274153132923
-275.84789633750916,6960.0,10572.0,11332.0,628.0,3408.0,44.0,-0.10713902840492107,0.0782806540894509,0.32465784738319714,0.9364777893363441
-275.85569405555725,6920.0,10524.0,11192.0,638.0,3383.0,30.0,-0.2009921727304627,-0.19443994773915096,0.33052100315741945,0.9014161745254503
-275.8634703159332,6812.0,10628.0,11164.0,559.0,3375.0,20.0,-0.27842975069930304,-0.4493273662241056,0.3025463546658081,0.7931251447067249
-275.8712627887726,6680.0,10684.0,11096.0,544.0,3447.0,-66.0,-0.3287810400499602,-0.6722511000716381,0.24291148032219875,0.6172321272291462
-275.87903690338135,6592.0,10796.0,11136.0,476.0,3402.0,-74.0,-0.3535724748928349,-0.8339829883337435,0.15961794764220713,0.3924041168980827
-275.8868136405945,6288.0,11020.0,11448.0,405.0,3209.0,-97.0,-0.35183315443842544,-0.9216409717606814,0.06488683091149566,0.1502699230857486
-275.89462184906006,5984.0,11124.0,11500.0,343.0,3072.0,-40.0,-0.3294399500520671,-0.9390677176722413,-0.02718607077837478,-0.09424467354271227
-275.9024078845978,5728.0,11328.0,11560.0,311.0,2843.0,-61.0,-0.2889311171384637,-0.8968889032264465,-0.11302427246532284,-0.3151739498309869
-275.910178899765,5604.0,11676.0,11704.0,189.0,2674.0,-61.0,-0.2429591255602444,-0.8056406300912943,-0.18543161258431803,-0.5074733052166223
-275.91799092292786,5416.0,11988.0,11716.0,31.0,2622.0,-133.0,-0.1991586225513199,-0.670505478956061,-0.24541115980040315,-0.6712165138007148
-275.9257843494415,5120.0,12420.0,11904.0,-71.0,2449.0,-105.0,-0.15362029971757274,-0.5117897668722753,-0.28356189941328697,-0.7962817888415095
-275.93355917930603,4972.0,12696.0,11984.0,-5.0,2544.0,-216.0,-0.10345909432542127,-0.3214663624684295,-0.3191732507238746,-0.8854851944696954
-275.94133949279785,5056.0,12904.0,11932.0,-512.0,2131.0,-258.0,-0.0771136012614109,-0.14209369651162934,-0.30064588845023027,-0.939933467682755
-275.9490969181061,4892.0,12984.0,11668.0,-838.0,2121.0,-884.0,-0.10206043895878443,0.05923215903446738,-0.25173255882813045,-0.9605758361324199
-275.95689725875854,5168.0,12980.0,11540.0,-1240.0,2251.0,-1323.0,-0.15226186638783257,0.27904055896766505,-0.1562931301496156,-0.9351604931578015
-275.96470975875854,5164.0,12892.0,11492.0,-1624.0,2300.0,-1544.0,-0.1996033179950468,0.4903104632558319,-0.016240877215013345,-0.8482277989871039
-275.9725172519684,5028.0,12700.0,11568.0,-1935.0,2352.0,-2184.0,-0.26149142313266455,0.666405503383558,0.17052216752883584,-0.6770879788250772
-275.9802887439728,5076.0,12428.0,11548.0,-2024.0,2253.0,-2311.0,-0.2978390466096925,0.7698838313293523,0.3540512161491781,-0.43956629183270485
-275.9880621433258,4804.0,12120.0,11604.0,-2100.0,2113.0,-2571.0,-0.3032780151925276,0.7812870312782765,0.5225074995389557,-0.1568404704877098
-275.995836019516,4656.0,11944.0,11804.0,-2108.0,1956.0,-3028.0,-0.2726382448202455,0.681857322702244,0.6634006975591896,0.14366103652920054
-276.00360774993896,4728.0,11968.0,11952.0,-2000.0,1796.0,-3145.0,-0.2051883192373868,0.4935605465176125,0.7362159071472071,0.41506852281663903
-276.01141691207886,4648.0,11892.0,11844.0,-1806.0,1668.0,-3212.0,-0.1114459691935466,0.24420849926882135,0.7347736286332089,0.622936368741277
-276.0191853046417,4648.0,11940.0,12032.0,-1667.0,1457.0,-3159.0,0.002280441914511978,-0.02034016572794012,0.6607170142933528,0.7503559850271816
-276.0269627571106,4420.0,11900.0,12188.0,-1512.0,1199.0,-3066.0,0.12509944662405514,-0.26308936644482844,0.5304496044990785,0.7960887706812508
-276.03478026390076,4268.0,11952.0,12192.0,-1365.0,955.0,-2973.0,0.24541850450145208,-0.46184565869053457,0.3620385492053005,0.7716193582889805
-276.0425901412964,4128.0,12284.0,11888.0,-1299.0,879.0,-2974.0,0.3507398375752595,-0.6167086432007313,0.16650286667136205,0.6847837696159367
-276.0503764152527,4108.0,12100.0,11920.0,-1402.0,828.0,-3029.0,0.4255260737522729,-0.7212715440850463,-0.05264259127028631,0.5439886743623419
-276.0581851005554,3860.0,11976.0,11700.0,-1576.0,763.0,-3057.0,0.4540080889034848,-0.7665304097855926,-0.2787039918155571,0.3586528558790669
-276.0659821033478,3836.0,11756.0,11652.0,-1841.0,835.0,-3194.0,0.4284435601812134,-0.7482277218079374,-0.4909323042512855,0.1248073102821866
-276.07375955581665,2992.0,11748.0,11664.0,-1938.0,858.0,-3241.0,0.35426918718402983,-0.654741800784467,-0.6552260980445406,-0.12839500675184448
-276.08152961730957,3084.0,11468.0,11552.0,-2105.0,832.0,-3208.0,0.23233130603050772,-0.49851677766187924,-0.7466152682352897,-0.3742577024801514
-276.08934211730957,2976.0,10776.0,11556.0,-2260.0,797.0,-3166.0,0.07794018496410648,-0.2947094308361885,-0.7505370612105806,-0.58631544299409
-276.09716296195984,2948.0,10256.0,11768.0,-2058.0,694.0,-3068.0,-0.08224412684311022,-0.06854317995162142,-0.6834550900188464,-0.7220989378258804
-276.10493993759155,3044.0,10176.0,11832.0,-2337.0,533.0,-2966.0,-0.23848777924754064,0.15062358301710832,-0.5290301295482062,-0.8003519459705666
-276.1127257347107,3544.0,10008.0,12016.0,-2195.0,375.0,-3064.0,-0.3857723086492963,0.3454415985982031,-0.32577678138271704,-0.7910242199510878
-276.12053298950195,3432.0,9836.0,12036.0,-2058.0,159.0,-2706.0,-0.48506477148043897,0.481663369366682,-0.10300811830586283,-0.722566186340082
-276.1283121109009,3328.0,9828.0,12196.0,-1799.0,-89.0,-2476.0,-0.5472144644399547,0.554854193444476,0.11426553242110073,-0.6161465264247589
-276.1360867023468,3832.0,9712.0,12332.0,-1771.0,-276.0,-2350.0,-0.566586106605363,0.5819995853080657,0.3258116704726101,-0.4838423523079216
-276.14389276504517,3808.0,9632.0,12364.0,-1232.0,-283.0,-2283.0,-0.5776437281967098,0.551834973270293,0.4951187921129696,-0.3415600492554343
-276.15165877342224,3892.0,9468.0,12716.0,-901.0,-233.0,-2263.0,-0.5786654580907947,0.4815822401918485,0.6285464643703258,-0.19533093884977362
-276.15943789482117,3852.0,9456.0,12424.0,-660.0,-193.0,-2214.0,-0.5666659225284664,0.38233740656863324,0.7278482883771712,-0.05426517197757874
-276.1672348976135,3864.0,9540.0,12596.0,-397.0,-21.0,-2246.0,-0.5519539836624879,0.2541208396233123,0.7901859826430232,0.07984680095490874
-276.1749949455261,3780.0,9572.0,12408.0,-511.0,190.0,-2173.0,-0.5286278785870611,0.125096475457791,0.8102713918869323,0.21991750566563645
-276.1827771663666,3672.0,9612.0,12512.0,-166.0,417.0,-2159.0,-0.5056408769958141,-0.027504005883129876,0.7967144252089713,0.3298741545426424
-276.1905529499054,3488.0,9632.0,12664.0,-81.0,520.0,-2072.0,-0.47421362014777163,-0.1799268003036251,0.7533492491967007,0.4185841584838247
-276.19831943511963,3332.0,9692.0,12792.0,-62.0,673.0,-1941.0,-0.44154608919728333,-0.32440534307403446,0.6817421207290394,0.4847947043063429
-276.20608711242676,3144.0,9516.0,12444.0,-128.0,744.0,-1795.0,-0.407723871367947,-0.451251958709593,0.5882772725492948,0.5329753888121403
-276.2138910293579,2896.0,9892.0,12508.0,-209.0,790.0,-1676.0,-0.3737322345240149,-0.5591843278699165,0.4780529317133595,0.5648915814761436
-276.2216546535492,2668.0,9736.0,12348.0,-370.0,894.0,-1496.0,-0.35121911412962953,-0.6457520607124485,0.35333746363970536,0.5786208143026699
-276.229416847229,2668.0,10020.0,12248.0,-596.0,1084.0,-1441.0,-0.3409301779231683,-0.7167810882362879,0.2059677438659444,0.5723362419197758
-276.2372739315033,2528.0,10116.0,12512.0,-852.0,1253.0,-1323.0,-0.34550190363689665,-0.7659950915728094,0.042715434354253574,0.540421452144131
-276.24516010284424,2556.0,10220.0,12132.0,-1147.0,1482.0,-1243.0,-0.3622890128206197,-0.7907845712973375,-0.13654165441167773,0.4740915624624307
-276.25295901298523,2228.0,10368.0,12120.0,-1364.0,1620.0,-1210.0,-0.3786888025843565,-0.7826797063340302,-0.3205042724068271,0.3758780114067234
-276.26075506210327,2180.0,10300.0,12124.0,-1285.0,1852.0,-1178.0,-0.367184696133105,-0.74973346577065,-0.4923304195561222,0.2463450572040393
-276.26855850219727,2120.0,10264.0,12112.0,-1643.0,2012.0,-1205.0,-0.3516090374369398,-0.667989585018024,-0.6509453321653208,0.08019459852319641
-276.2763373851776,2076.0,10256.0,11952.0,-1695.0,2182.0,-1227.0,-0.3074244550159862,-0.5429260318326711,-0.7747698470411648,-0.10224095330328074
-276.2841148376465,2084.0,10296.0,12048.0,-1734.0,2172.0,-1149.0,-0.24473110879667673,-0.3862046891650044,-0.84341789074655,-0.2821327418481453
-276.2919011116028,2048.0,10336.0,12092.0,-1575.0,2160.0,-1200.0,-0.1631417972054495,-0.204421364677222,-0.8633785267982707,-0.431479059899465
-276.2996814250946,2104.0,10340.0,12164.0,-1509.0,2102.0,-1164.0,-0.07329210387173772,-0.015561250892225537,-0.8320338875301775,-0.5496414512954274
-276.3074617385864,2120.0,10244.0,12084.0,-1383.0,1966.0,-1166.0,0.01138067996521623,0.1677800833007966,-0.759371334078224,-0.6285503168015791
-276.3152902126312,1948.0,10440.0,12216.0,-1269.0,1889.0,-1134.0,0.09078993726535411,0.3370766696090286,-0.655217735096708,-0.6699449422985289
-276.3230793476105,1860.0,10468.0,12184.0,-1096.0,2039.0,-1107.0,0.17075509933952024,0.4985019854261643,-0.5292011819849256,-0.6650447921467249
-276.3308479785919,1700.0,10524.0,12256.0,-990.0,1740.0,-1062.0,0.22822785010557167,0.6216548477730617,-0.39194806096945706,-0.6386188348136336
-276.33863162994385,1604.0,10652.0,12280.0,-814.0,1696.0,-1049.0,0.2673683721193829,0.7230910265344997,-0.2514549378110913,-0.5851700053710331
-276.3464071750641,1420.0,10728.0,11988.0,-1020.0,1699.0,-1074.0,0.3083830216133441,0.7943218860395486,-0.09020888339023272,-0.5155725077006004
-276.35422825813293,1152.0,10972.0,11976.0,-788.0,1671.0,-1130.0,0.31977706867884426,0.842225005728544,0.06735219879661712,-0.4287928956850623
-276.3620059490204,896.0,10672.0,12028.0,-832.0,1671.0,-1196.0,0.32052100608163253,0.8585412722452345,0.228779702298635,-0.32837937865843586
-276.3698310852051,700.0,10528.0,11904.0,-883.0,1702.0,-1266.0,0.3103435673003041,0.8405742351205521,0.3888088700031558,-0.21435831706208527
-276.3776183128357,396.0,10528.0,11864.0,-1055.0,1635.0,-1343.0,0.30089140691501465,0.7805398526344338,0.5399752907798465,-0.09299776901270036
-276.38539242744446,260.0,10464.0,12028.0,-1167.0,1675.0,-1513.0,0.28239712164564795,0.6757332809139001,0.6799791962722348,0.035562499751210355
-276.3931977748871,164.0,10328.0,11928.0,-1375.0,1669.0,-1604.0,0.2623460746363712,0.527072841204674,0.789916062761841,0.17146827980169171
-276.4009702205658,204.0,10480.0,11928.0,-1284.0,1711.0,-1696.0,0.22265779777279765,0.34542496229824043,0.8636905392638432,0.291794024781795
-276.40873980522156,196.0,10136.0,11908.0,-1608.0,1748.0,-1838.0,0.18013097748242307,0.1267775455932775,0.8822624239852258,0.41604482944543947
-276.41652822494507,108.0,9980.0,11936.0,-1610.0,1653.0,-1906.0,0.13534644368854348,-0.10193800124767556,0.8425280801806658,0.5113085352207359
-276.42429518699646,196.0,9960.0,11980.0,-1650.0,1595.0,-1928.0,0.08649880573073747,-0.32349944124781516,0.7454028151075512,0.576403254110562
-276.4320685863495,124.0,9756.0,12028.0,-1652.0,1481.0,-1889.0,0.03731430699727607,-0.5168808542389046,0.6009205662927604,0.6085526255148042
-276.43986558914185,364.0,9800.0,12164.0,-1608.0,1327.0,-1808.0,-0.008606871571209105,-0.6682496153063774,0.4260276527661754,0.609810472592246
-276.44764375686646,604.0,9716.0,12088.0,-1792.0,1188.0,-1720.0,-0.06400603688117956,-0.772035348719036,0.22306195186380848,0.5916992590850098
-276.4554467201233,736.0,9832.0,12488.0,-1342.0,946.0,-1540.0,-0.0916494169161193,-0.827490517864683,0.043866021635113286,0.5522097421893984
-276.4632580280304,912.0,10188.0,12820.0,-1140.0,725.0,-1518.0,-0.1020843157086217,-0.8458770764366036,-0.12455360795552718,0.5084851647694625
-276.47104835510254,1004.0,10152.0,12988.0,-896.0,545.0,-993.0,-0.11738843861197808,-0.8445707971913018,-0.2405580552451158,0.4637369351998813
-276.4788239002228,1124.0,10260.0,13264.0,-598.0,352.0,-1023.0,-0.11209473158239121,-0.8263944550243006,-0.34177226768848484,0.43324207193626924
-276.48661756515503,1108.0,10584.0,13412.0,-428.0,209.0,-568.0,-0.11508194807835462,-0.8114567267317794,-0.4001070160355317,0.41013229766427794
-276.4943914413452,1180.0,10736.0,13560.0,-308.0,190.0,-522.0,-0.11147031676196828,-0.7957049251337248,-0.4492964904167131,0.3905901999514892
-276.50217461586,1260.0,10924.0,13708.0,-262.0,239.0,-422.0,-0.10584842719669987,-0.7838441401504862,-0.4892724623271586,0.3674192864018559
-276.50998067855835,1256.0,11008.0,13792.0,-305.0,419.0,-563.0,-0.09062465652404754,-0.7687071316715745,-0.540221020141548,0.3302086715160341
-276.5177912712097,1136.0,11000.0,13568.0,-475.0,711.0,-806.0,-0.06545048884104744,-0.7435388863897249,-0.610401948450778,0.2650954908411108
-276.52556347846985,1008.0,11116.0,13628.0,-681.0,1111.0,-1103.0,-0.02470569318081122,-0.6988747920964498,-0.6963995497991042,0.16121823946503314
-276.53334641456604,904.0,11120.0,13420.0,-880.0,1288.0,-1437.0,0.019754269689270302,-0.6172615702917711,-0.7858715467030926,0.031683351345296075
-276.54115176200867,564.0,11124.0,13196.0,-1159.0,1936.0,-1737.0,0.09208769926038708,-0.49052304595139834,-0.8533618015829534,-0.15060090515859184
-276.54893493652344,492.0,10936.0,13296.0,-1351.0,2231.0,-2027.0,0.1669644731299654,-0.30846838755084005,-0.8690368233026491,-0.3489199311278419
-276.5567145347595,320.0,10768.0,12780.0,-1555.0,2406.0,-2148.0,0.2311527336284421,-0.09054498784246406,-0.8059417485444276,-0.5374271270282671
-276.56453490257263,148.0,10620.0,12320.0,-1727.0,2504.0,-2301.0,0.27108553197296253,0.14610716755644643,-0.6570176492524525,-0.6881083770121896
-276.5723235607147,192.0,10420.0,12436.0,-1795.0,2486.0,-2372.0,0.27858234189030495,0.3684378914850206,-0.43569285853965334,-0.7725394047700941
-276.58010244369507,176.0,10120.0,12388.0,-1888.0,2415.0,-2395.0,0.2554111093214899,0.5456980418845141,-0.16338928521593543,-0.7812059611877004
-276.58789682388306,128.0,9960.0,12492.0,-1875.0,2208.0,-2373.0,0.20390445004346686,0.6541078941266966,0.12038598854961714,-0.7183822463386333
-276.595671415329,116.0,9784.0,12364.0,-1799.0,2001.0,-2288.0,0.13590946964032824,0.6913524770790038,0.3816409964005549,-0.5982562313634534
-276.6034495830536,32.0,9612.0,12360.0,-1749.0,1696.0,-2152.0,0.06989214121293799,0.6613612567658403,0.5992655732908714,-0.44564240071400574
-276.6112611293793,220.0,9568.0,12440.0,-1610.0,1458.0,-2078.0,0.005594552492465402,0.5799270310286371,0.7648489027997861,-0.28046300210666397
-276.6190400123596,-28.0,9484.0,12520.0,-1499.0,1188.0,-2003.0,-0.04553336779506937,0.4612649368430617,0.8782250662621583,-0.11782233848143156
-276.6268255710602,44.0,9512.0,12716.0,-1384.0,1026.0,-1918.0,-0.0860209295405805,0.32221762226573264,0.9420486893306547,0.03633827889138012
-276.6346402168274,112.0,9548.0,12864.0,-1518.0,821.0,-1921.0,-0.10217532707126871,0.16879424630441203,0.9609782262352328,0.19388025596793124
-276.6424198150635,100.0,9608.0,12988.0,-1164.0,737.0,-1943.0,-0.11158118758358729,0.003620583670589049,0.9431365095643442,0.3130975156051323
-276.65019130706787,112.0,9592.0,13192.0,-1032.0,740.0,-1980.0,-0.11566204628427972,-0.1661054550869396,0.889739919043625,0.40913829605640345
-276.65803503990173,92.0,9568.0,13524.0,-991.0,795.0,-1974.0,-0.11883035510245646,-0.33092290367801824,0.8009917294768425,0.48454269970481423
-276.66582322120667,184.0,9600.0,13296.0,-941.0,956.0,-1972.0,-0.12676754525367337,-0.4889616340696466,0.6796698158670416,0.5318791698097988
-276.67360973358154,4.0,9716.0,13244.0,-956.0,1140.0,-1939.0,-0.14203963313978368,-0.6320674795617587,0.5279723668277944,0.5491453575914291
-276.6813859939575,220.0,9916.0,13428.0,-925.0,1217.0,-1870.0,-0.1561622845585682,-0.7485892463805195,0.35748157469997444,0.5361290934419817
-276.6892035007477,216.0,10212.0,13532.0,-939.0,1270.0,-1818.0,-0.16847059343166304,-0.8336635209185626,0.17363329120875845,0.49646175403797527
-276.6969780921936,308.0,9936.0,13332.0,-1003.0,1342.0,-1633.0,-0.1872533097471558,-0.8835318581272906,-0.00821594774501738,0.42923204897295797
-276.70476031303406,380.0,10008.0,13584.0,-773.0,1317.0,-1391.0,-0.1908177633368046,-0.9046226660470921,-0.1633271522037559,0.3443408988517072
-276.71256494522095,488.0,10156.0,13700.0,-987.0,1534.0,-1163.0,-0.20833196070778343,-0.9017537765526185,-0.3049699952697841,0.22456897071031118
-276.72033882141113,728.0,10144.0,13784.0,-953.0,1321.0,-972.0,-0.22612990032668245,-0.8725494155536837,-0.4184700311001449,0.11138051295542527
-276.728214263916,404.0,10060.0,13828.0,-906.0,1151.0,-790.0,-0.24294086131480103,-0.8282902792755176,-0.5048537818365861,0.006132709564653163
-276.7359974384308,456.0,10172.0,13916.0,-975.0,1064.0,-620.0,-0.26382443053859295,-0.7736048021075673,-0.5674403766149064,-0.09971809762641747
-276.74376821517944,524.0,10092.0,13864.0,-1005.0,985.0,-573.0,-0.28546614539952825,-0.7072847504731621,-0.6146646899763859,-0.20110862854459044
-276.7515444755554,272.0,9976.0,13864.0,-1050.0,873.0,-476.0,-0.3094287139383505,-0.6351797145839807,-0.6422451474521902,-0.29718979078290325
-276.7593538761139,488.0,9820.0,13876.0,-1077.0,795.0,-487.0,-0.3347029117992676,-0.5538547005486337,-0.6576702861929765,-0.38560177148468
-276.7671253681183,380.0,9980.0,13756.0,-1264.0,735.0,-482.0,-0.36661547421612356,-0.46032365433367917,-0.6539576606914717,-0.4754309680165061
-276.7748980522156,368.0,9592.0,13772.0,-915.0,701.0,-756.0,-0.3919794581684513,-0.3561694126186878,-0.6639202609230295,-0.5279255070790978
-276.7826678752899,224.0,9580.0,13672.0,-787.0,658.0,-535.0,-0.40098890542337357,-0.26651307810730807,-0.6633174378434727,-0.5728775205730308
-276.7904462814331,144.0,9628.0,13800.0,-712.0,712.0,-525.0,-0.40066965726601905,-0.17470366070668475,-0.6614793575736425,-0.6094157170486956
-276.7982234954834,208.0,9608.0,13452.0,-575.0,1005.0,-651.0,-0.3835121799368271,-0.0631179008987833,-0.6713330152586122,-0.6310677626451966
-276.80600142478943,320.0,9632.0,13384.0,-471.0,528.0,-762.0,-0.39554201841321934,0.026245698733960186,-0.6643941145527117,-0.6335914578932395
-276.8138196468353,364.0,9952.0,13224.0,-360.0,770.0,-815.0,-0.39308195510635346,0.12778551798626936,-0.6655719850655997,-0.6214268827936116
-276.8216016292572,388.0,9888.0,13364.0,-218.0,719.0,-805.0,-0.39075597551573704,0.2199352525314612,-0.6662673550394425,-0.5958406363293901
-276.8293743133545,408.0,9980.0,13404.0,-126.0,674.0,-808.0,-0.3895095191924027,0.3048851952631621,-0.6642800452796263,-0.5604100049170646
-276.83717942237854,364.0,10048.0,13320.0,61.0,547.0,-781.0,-0.3962533462868306,0.3734672939014573,-0.6627226536482286,-0.5141051937919534
-276.84493255615234,472.0,10148.0,13440.0,146.0,499.0,-743.0,-0.40423579050397623,0.43235565024554645,-0.6602106618825024,-0.4623677100674788
-276.85270857810974,476.0,10312.0,13396.0,0.0,367.0,-772.0,-0.41310806312391185,0.490219503473159,-0.6422147918616667,-0.42022223609730097
-276.8605327606201,508.0,10368.0,13744.0,293.0,278.0,-887.0,-0.44102201655987705,0.5375661480804553,-0.6227668261029105,-0.3587251003945898
-276.86832332611084,388.0,10312.0,13540.0,389.0,190.0,-844.0,-0.4737775502398338,0.5724017909264736,-0.6005952217087738,-0.295256502542275
-276.8761007785797,308.0,10204.0,13400.0,367.0,178.0,-929.0,-0.5047815466780974,0.6080807781551322,-0.5687681512228253,-0.22789503620326215
-276.88391041755676,340.0,10092.0,13572.0,3.0,489.0,-1009.0,-0.4983923521261965,0.6645495815504899,-0.5342643957819907,-0.1566539894253898
-276.8916857242584,400.0,10016.0,13592.0,214.0,303.0,-956.0,-0.5077572803554348,0.7011271393785684,-0.4929473879109789,-0.0872132525744825
-276.8994679450989,248.0,9780.0,13380.0,116.0,325.0,-984.0,-0.5063118685300674,0.7377205226847285,-0.4461700417684911,-0.018681970550927508
-276.90730118751526,248.0,9956.0,13236.0,53.0,369.0,-975.0,-0.49493371660662977,0.7707350470520102,-0.3981304985118266,0.05000209562016407
-276.9150640964508,80.0,9892.0,13124.0,-53.0,402.0,-983.0,-0.47111935990815557,0.8019653058799083,-0.34809762155664714,0.11715904895175565
-276.92284893989563,76.0,9672.0,12844.0,-155.0,431.0,-968.0,-0.435406566895472,0.8297122083504229,-0.2983378117394218,0.18164064221725468
-276.9306297302246,132.0,9508.0,12996.0,-208.0,372.0,-1029.0,-0.39251266775540256,0.8544745518330426,-0.2401056598581531,0.24115621083716438
-276.9384002685547,-192.0,9280.0,12960.0,-502.0,341.0,-1088.0,-0.32312944348652173,0.8820868186610169,-0.18012952101191826,0.29165658359892016
-276.9461784362793,-28.0,9032.0,12924.0,-232.0,271.0,-1108.0,-0.271400506884183,0.894533897685599,-0.10779226392711443,0.33842532203114783
-276.9539861679077,-140.0,8952.0,12848.0,-116.0,191.0,-1126.0,-0.22614032412678958,0.8977209221228094,-0.027659601020585962,0.377084402035122
-276.9618434906006,-32.0,8772.0,12944.0,-35.0,130.0,-1082.0,-0.1866078686258286,0.8926867342502995,0.053195230861219335,0.4067654917444227
-276.9696252346039,-84.0,8720.0,12972.0,71.0,12.0,-992.0,-0.1563604551773302,0.8831453037775666,0.1323481588234733,0.42200680720624006
-276.9773859977722,-124.0,8700.0,13112.0,242.0,-102.0,-964.0,-0.13777452951110392,0.869128559289776,0.21617343601753403,0.42296899650594405
-276.985182762146,-128.0,8860.0,13272.0,362.0,-131.0,-862.0,-0.13046594004354745,0.8504251416068094,0.2955306602122104,0.41523167736352523
-276.9929668903351,-100.0,8796.0,13372.0,456.0,-94.0,-843.0,-0.13084351684109968,0.8239463980281361,0.37440477782090065,0.4047386435985518
-277.00073623657227,-96.0,9068.0,13696.0,517.0,-18.0,-765.0,-0.13992788740729387,0.7910690432251561,0.446460979019208,0.39408444449099717
-277.00854325294495,112.0,9196.0,13788.0,508.0,117.0,-716.0,-0.15444832026102895,0.7506536158220461,0.5104335117908849,0.3900288392704561
-277.01632714271545,164.0,9336.0,13816.0,498.0,22.0,-673.0,-0.16468416067264663,0.7112635466044092,0.5696739215738649,0.37743200390787945
-277.0240960121155,140.0,9544.0,14044.0,452.0,452.0,-647.0,-0.1932798280759855,0.6555935912418158,0.6162974483652526,0.39117439374281027
-277.0319061279297,136.0,9980.0,13964.0,352.0,593.0,-574.0,-0.22502016969640487,0.5966498775712092,0.6491655387350979,0.41467933411593116
-277.03967785835266,60.0,9836.0,13764.0,271.0,731.0,-627.0,-0.2568719306478238,0.5272727655406,0.6746893856882071,0.44810096496671
-277.04746174812317,124.0,9944.0,13772.0,104.0,863.0,-669.0,-0.2850047873443295,0.44966145886729747,0.68702968688815,0.49453721086943264
-277.05526876449585,80.0,9972.0,13388.0,-24.0,956.0,-608.0,-0.31361107969772656,0.37064037628884267,0.6827018447658497,0.5460695865076143
-277.0630934238434,48.0,10016.0,13236.0,-175.0,973.0,-572.0,-0.3369903853366688,0.29341952987514647,0.6628847846701659,0.6007713557846109
-277.07085609436035,36.0,9968.0,13120.0,-286.0,859.0,-505.0,-0.35144261371724994,0.22653697263776174,0.6328872993664441,0.6516308430333503
-277.0786633491516,-52.0,9952.0,13024.0,-354.0,687.0,-467.0,-0.3547205083842996,0.17187416776721523,0.5989538852460664,0.6970558619899505
-277.08644104003906,-68.0,9860.0,12824.0,-409.0,529.0,-318.0,-0.35613377939923313,0.13531929532214843,0.5611708947756764,0.7348092584752879
-277.09422636032104,-68.0,9688.0,13048.0,-409.0,313.0,-272.0,-0.34871977212129246,0.11435379257016402,0.5276055624153113,0.7661266874120213
-277.10196924209595,-24.0,9556.0,12852.0,-386.0,83.0,-277.0,-0.3298494340734876,0.10755537599563664,0.5014446208371902,0.7925809007093748
-277.10974383354187,-60.0,9360.0,13052.0,-356.0,-124.0,-238.0,-0.3043573714347364,0.11572555830307822,0.48210840893575413,0.8133545768250244
-277.1175320148468,0.0,9284.0,13236.0,-276.0,-349.0,-163.0,-0.2750456413347069,0.14069297657265398,0.4728832033607564,0.8251889829034171
-277.1253468990326,-52.0,9112.0,13220.0,-137.0,-455.0,-99.0,-0.24719626133647535,0.17234328143343366,0.4745954399062141,0.8270132829321742
-277.1331603527069,92.0,9172.0,13444.0,-36.0,-263.0,-46.0,-0.23233926892783466,0.18997643646285814,0.4781068924243448,0.8254339568489347
-277.1409287452698,172.0,9176.0,13364.0,141.0,-505.0,61.0,-0.21773130418457806,0.22563971932684102,0.49685345360264066,0.8092072922825867
-277.1487054824829,252.0,9272.0,13744.0,303.0,-484.0,167.0,-0.21418415290180481,0.26080287301613114,0.5233546569530815,0.7824365233792391
-277.1565172672272,300.0,9404.0,13800.0,375.0,-394.0,210.0,-0.2187530948835629,0.28977614944693597,0.5507449249250643,0.7515696204343648
-277.16429805755615,468.0,9552.0,13872.0,424.0,-233.0,227.0,-0.23289153051257055,0.30741348216293835,0.576555219464243,0.7203072711756476
-277.17208218574524,760.0,9800.0,13928.0,430.0,-177.0,215.0,-0.24877306378017555,0.3201812474286617,0.6007398230194416,0.688990273204942
-277.1799008846283,448.0,9912.0,13992.0,370.0,-11.0,166.0,-0.2683364699315788,0.3211992903135512,0.6181297821252314,0.6653887038840861
-277.1876699924469,500.0,9960.0,14000.0,294.0,120.0,40.0,-0.28525407528347196,0.3092734638609159,0.6309535080484717,0.6518264399109392
-277.19544768333435,408.0,9788.0,13960.0,212.0,2.0,-41.0,-0.2886954432247145,0.30146649871048903,0.6438834733227293,0.6412386170517043
-277.2032518386841,276.0,10056.0,14028.0,80.0,380.0,-163.0,-0.3028209324297493,0.2687361575149455,0.6425621911358267,0.6505337739496737
-277.2110342979431,436.0,10004.0,13772.0,238.0,503.0,-346.0,-0.31644422518643384,0.21402243980458938,0.6497477400787617,0.657179824605709
-277.2188038825989,168.0,9968.0,13588.0,-138.0,571.0,-470.0,-0.31859596375072186,0.15798163578378535,0.6333722147907604,0.6872976445237354
-277.2266135215759,128.0,9748.0,13388.0,-233.0,632.0,-545.0,-0.3167150667968151,0.09604079444524014,0.6074755720345287,0.7221088295039315
-277.2344467639923,152.0,9624.0,13532.0,-263.0,612.0,-649.0,-0.3050445748626667,0.030131593700129976,0.5773740074759374,0.7567556738466659
-277.24229741096497,172.0,9440.0,13228.0,-305.0,517.0,-637.0,-0.2873797235425623,-0.02799441674310996,0.5433821154397872,0.7882671398377553
-277.2500789165497,164.0,9276.0,12972.0,-192.0,406.0,-602.0,-0.2651186082902512,-0.07954251950316292,0.51721521499532,0.8098601931856351
-277.25790143013,232.0,9144.0,12996.0,-106.0,202.0,-402.0,-0.2463731442261923,-0.10943104836235082,0.5016491359922455,0.8219934694489065
-277.26568055152893,152.0,8716.0,12932.0,-12.0,27.0,-223.0,-0.23165125226421707,-0.1208227884034777,0.4977839683503079,0.827013102665398
-277.2734580039978,168.0,9204.0,13000.0,154.0,-89.0,-18.0,-0.2248637395335084,-0.11823711909846281,0.5102545331375986,0.8216426192225144
-277.2812361717224,188.0,8992.0,13144.0,294.0,-145.0,200.0,-0.22961680902258322,-0.1046025919034291,0.5357609480980959,0.805788201250428
-277.28900694847107,128.0,9080.0,13248.0,449.0,-229.0,430.0,-0.24467026801060549,-0.077235672805671,0.5747163988193487,0.7770921256363322
-277.29677963256836,116.0,9192.0,13200.0,573.0,-187.0,595.0,-0.27106845045633676,-0.046816026068024125,0.6197294783048414,0.7350275699525887
-277.30456948280334,60.0,9404.0,13456.0,661.0,-140.0,746.0,-0.30749352939253805,-0.013092136863030939,0.6657862981509448,0.6797094456667063
-277.3123450279236,12.0,9220.0,13644.0,655.0,-39.0,826.0,-0.35202046248064967,0.019525760084252112,0.7035338570407188,0.6170416928258989
-277.3201148509979,-92.0,9688.0,13696.0,612.0,177.0,834.0,-0.40717406278520313,0.04217909153432842,0.726482900829769,0.5519536227205093
-277.3279242515564,-204.0,9772.0,13948.0,513.0,369.0,794.0,-0.46891291441448024,0.05624440120363696,0.7321935398054893,0.49076457318725664
-277.3357026576996,-256.0,9864.0,13876.0,365.0,672.0,701.0,-0.5415052882176979,0.05702544578031255,0.7138644889590697,0.44036077569310245
-277.34348797798157,-512.0,9884.0,13736.0,211.0,993.0,547.0,-0.6223534659765232,0.042680240736174165,0.6688336096165076,0.40437131832644113
-277.35126399993896,-316.0,9944.0,13676.0,38.0,1185.0,421.0,-0.7023577917630085,0.02314301683293379,0.6005036811873261,0.3815144322330823
-277.35903334617615,-320.0,9948.0,13512.0,-140.0,1398.0,509.0,-0.7856886640760031,0.011643984205632469,0.504691798537042,0.35755269438745685
-277.36681294441223,-336.0,9956.0,13348.0,-241.0,1434.0,129.0,-0.8458296901263874,-0.010959719572755038,0.3953398862340424,0.3579921705848333
-277.3746385574341,-356.0,9512.0,13288.0,-322.0,1419.0,78.0,-0.8903753397638736,-0.02880021743057356,0.27817733655172866,0.3591930835154047
-277.3824191093445,-320.0,9372.0,12944.0,-339.0,1227.0,149.0,-0.9199348623223663,-0.03734111045182473,0.17136163099586524,0.3506574995299408
-277.39019751548767,-340.0,9220.0,13020.0,-215.0,1028.0,264.0,-0.9398716937019915,-0.047694897254917414,0.08267557749603775,0.3279194185151122
-277.3979983329773,-420.0,9160.0,12648.0,-79.0,795.0,425.0,-0.955097630442377,-0.061034862149051024,0.016946658251559353,0.2894409658287986
-277.4058041572571,-380.0,9212.0,12660.0,93.0,745.0,596.0,-0.9673555224590993,-0.08673483349519662,-0.039403462090961204,0.23483553607086363
-277.413565158844,-476.0,9240.0,12764.0,302.0,104.0,779.0,-0.9780134293097378,-0.11702251107394687,-0.03587694065332105,0.16884403786072047
-277.4213559627533,-392.0,9312.0,12688.0,532.0,-175.0,980.0,-0.9827656868855065,-0.1624281742942069,-0.002973137301549612,0.0882034768617186
-277.42916560173035,-408.0,9472.0,12972.0,654.0,-440.0,1113.0,-0.9752263549796171,-0.21420716458001124,0.05520997650642882,-0.0008400535231464638
-277.4369537830353,-372.0,9624.0,13276.0,769.0,-576.0,1248.0,-0.9490184545683829,-0.2713871335844049,0.12614462510145846,-0.09899762710030692
-277.44472312927246,-300.0,9816.0,13316.0,827.0,-633.0,1357.0,-0.9008085271106668,-0.32688420003572066,0.201041919707935,-0.20315723903387312
-277.452525138855,-384.0,9964.0,13676.0,850.0,-587.0,1352.0,-0.833257605166556,-0.3762727121807982,0.26749411748233753,-0.30421621687961925
-277.4603011608124,-312.0,10140.0,13860.0,880.0,-534.0,1389.0,-0.746685241694872,-0.4172776630480946,0.3246840042214792,-0.4036344870782202
-277.46807408332825,-304.0,10244.0,13984.0,770.0,-327.0,1030.0,-0.668747101004477,-0.44677638701619843,0.35382745640330615,-0.47746654961162094
-277.47587847709656,-180.0,10408.0,13892.0,667.0,-141.0,1154.0,-0.5864185139294589,-0.452828400045774,0.37652521979894293,-0.5561371462940659
-277.48365020751953,-144.0,10364.0,14332.0,532.0,130.0,1070.0,-0.5150176248178223,-0.43615591216589494,0.3840717407826309,-0.630090282691254
-277.49141669273376,-124.0,10304.0,14196.0,413.0,326.0,950.0,-0.4560448110303801,-0.4031048522595957,0.3810009955443469,-0.6959654084875563
-277.4991855621338,-112.0,10200.0,14208.0,316.0,438.0,873.0,-0.40494254141867525,-0.3585734669739644,0.3734210092610048,-0.7536599742417985
-277.5069603919983,-68.0,10144.0,14160.0,237.0,554.0,785.0,-0.36268837421520805,-0.3037563152443943,0.36128958840587866,-0.8035291391528924
-277.51475620269775,-128.0,9960.0,13900.0,220.0,616.0,761.0,-0.32176307237654306,-0.24256115010595594,0.34501413373645246,-0.8477015165942365
-277.52252221107483,-184.0,9852.0,13800.0,189.0,648.0,811.0,-0.2761763171074303,-0.17473744711267922,0.3283921756563681,-0.8862009057844599
-277.5302965641022,-20.0,9736.0,13852.0,296.0,586.0,834.0,-0.22305506371070438,-0.11214763249554885,0.30255646793325336,-0.9198526679802648
-277.53805899620056,-400.0,9696.0,13532.0,313.0,543.0,832.0,-0.1668883307831798,-0.052450745516152496,0.2736153928987747,-0.945796923822473
-277.5458610057831,-432.0,9676.0,13520.0,406.0,486.0,954.0,-0.09742488468555116,0.004512738219004837,0.23594175843860027,-0.9668606485231854
-277.55364084243774,-576.0,9600.0,13368.0,420.0,449.0,800.0,-0.0391823520793641,0.05508254905100154,0.19532425559344227,-0.9784064039306164
-277.56143951416016,-580.0,9548.0,13356.0,519.0,337.0,1047.0,0.0417589315398683,0.09935230249775977,0.14371416974408174,-0.9837334745955387
-277.5692229270935,-672.0,9560.0,13344.0,629.0,508.0,1078.0,0.12167340824021822,0.15766050288268438,0.0813457285692831,-0.9765867191404566
-277.57699394226074,-1016.0,9584.0,13268.0,683.0,204.0,1141.0,0.20669925796411312,0.1890479911145969,0.009224383855731981,-0.9599224888266251
-277.5847568511963,-848.0,9648.0,13528.0,799.0,168.0,1042.0,0.2788722781097075,0.21684865712683624,-0.07170381578882326,-0.9327730030428155
-277.59253787994385,-968.0,9476.0,13496.0,833.0,136.0,1288.0,0.365580081516676,0.23786775667624319,-0.15943522888397985,-0.8856356712118054
-277.60031914711,-1016.0,9744.0,13172.0,887.0,144.0,1339.0,0.4483146927990794,0.25596031961389837,-0.24899201404334134,-0.8194517850040104
-277.60808801651,-1028.0,9784.0,13240.0,889.0,183.0,1306.0,0.520945542832448,0.27255841097059474,-0.3314342222250922,-0.7378882099276546
-277.61587595939636,-1108.0,9880.0,13120.0,859.0,232.0,1306.0,0.5858556282577904,0.2859483251679151,-0.4032784052922006,-0.6421629590667104
-277.62366127967834,-1176.0,9920.0,12912.0,1020.0,262.0,1275.0,0.6345694434656306,0.30471095547904525,-0.47377224375093036,-0.529162277644558
-277.63144612312317,-1052.0,9752.0,12940.0,720.0,344.0,1051.0,0.6738023299740663,0.31491239606875643,-0.512363829127663,-0.4293063120027389
-277.63925981521606,-1212.0,10140.0,12988.0,584.0,360.0,1528.0,0.7234935280896183,0.2913129232102738,-0.5490752850705223,-0.3003501738102483
-277.64704036712646,-1072.0,10132.0,12552.0,258.0,367.0,1280.0,0.7628335963991171,0.254127159456449,-0.5611322452114644,-0.19655761093207894
-277.6548082828522,-1272.0,10332.0,12760.0,359.0,342.0,1313.0,0.7883434320926949,0.21800244725699092,-0.5692338584109742,-0.08344088029754163
-277.66265058517456,-924.0,10284.0,12772.0,294.0,504.0,1371.0,0.8110427310119602,0.17238726623485795,-0.557931065254433,0.03471664351268544
-277.6704304218292,-952.0,10300.0,12684.0,166.0,178.0,1337.0,0.8076066439709108,0.1177342019842896,-0.5608626289893763,0.13908011252616395
-277.6781964302063,-988.0,10228.0,13040.0,38.0,71.0,1292.0,0.7900920829614149,0.056021319938102276,-0.5649356184694281,0.23122253164138293
-277.68599486351013,-876.0,10172.0,12708.0,-69.0,-63.0,1325.0,0.7556344257345605,-0.012634305031339832,-0.573180851500619,0.31673443206288976
-277.6938054561615,-872.0,9968.0,12796.0,-174.0,-134.0,1272.0,0.7091973840039403,-0.08343633838293175,-0.5816274581758785,0.3895984443694343
-277.70158338546753,-940.0,9832.0,12836.0,-214.0,-234.0,1176.0,0.6521968725776655,-0.14752321251792308,-0.5913868921865899,0.4507079818665195
-277.70935320854187,-924.0,9560.0,12780.0,-201.0,-322.0,1137.0,0.5851559239197222,-0.20381158358848586,-0.5996169368471775,0.5064710378124475
-277.71715688705444,-972.0,9696.0,12908.0,-144.0,-448.0,1141.0,0.5058563446519918,-0.24957904560928304,-0.6049816070244997,0.5619759013784653
-277.7249388694763,-996.0,9428.0,13028.0,-59.0,-519.0,1066.0,0.4226715617166908,-0.28146375540338625,-0.6042533615856316,0.614007150058255
-277.7327060699463,-956.0,9380.0,12888.0,145.0,-595.0,1051.0,0.3366735734900365,-0.2979430549317043,-0.5892190965855044,0.6713432036971662
-277.74050545692444,-876.0,9272.0,12908.0,5.0,-632.0,1085.0,0.2393104915837075,-0.31464380936785863,-0.5757460617996897,0.7157137934723592
-277.7482736110687,-772.0,9376.0,13052.0,416.0,-676.0,1085.0,0.14797067883679232,-0.3160470488967131,-0.5303416410917744,0.7726297203786179
