programtime,ax,ay,az,gx,gy,gz,q0,q1,q2,q3
-3920.8439226150513,4956.0,-1944.0,15740.0,117.0,-73.0,18.0,0.9999255782764246,0.010088921066716893,-0.006677166046315607,0.0015706794254248706
-3920.859539270401,5076.0,-2020.0,15684.0,96.0,-47.0,39.0,0.9997583813649924,0.01830632130308897,-0.011096694595752476,0.004992079711613599
-3920.8751316070557,4976.0,-2096.0,15712.0,117.0,-37.0,-69.0,0.999490846821683,0.028431294187260633,-0.014449029674098227,-0.0009665257314302523
-3920.890723466873,5032.0,-2148.0,15664.0,96.0,-67.0,-36.0,0.9991092434797133,0.03665964240090919,-0.020485168511476887,-0.004141024449165123
-3920.906340122223,5076.0,-2284.0,15712.0,170.0,-57.0,-44.0,0.9983219529024449,0.0513302303625513,-0.025632067267627224,-0.007841105251425323
-3920.922009706497,5056.0,-2020.0,15676.0,123.0,-135.0,254.0,0.9972745550135306,0.0611471060694083,-0.03884974220394301,0.013971072707150475
-3920.937650203705,5052.0,-2024.0,15708.0,109.0,-132.0,-256.0,0.996203363868483,0.07140318745203723,-0.04905295719461452,-0.008616845668303431
-3920.9533421993256,5152.0,-1800.0,15760.0,89.0,-109.0,79.0,0.9951496582601057,0.07846519305214833,-0.059298344503324586,-0.0020192779028487336
-3920.968960762024,5084.0,-1976.0,15824.0,90.0,-82.0,91.0,0.9940475823360414,0.08552150131855961,-0.06724302967617976,0.00581823203897182
-3920.9845724105835,5084.0,-2132.0,15784.0,97.0,-132.0,104.0,0.9923659085982356,0.09310107104319794,-0.07958092723566404,0.014455796170377897
-3921.0001814365387,5036.0,-2136.0,15620.0,90.0,-143.0,159.0,0.9902521398675432,0.09966112195682807,-0.09327340113199256,0.027720622275272742
-3921.015899181366,5080.0,-1916.0,15680.0,108.0,-204.0,124.0,0.9871104212470173,0.10815305476489116,-0.11182210700209019,0.03757325373415987
-3921.0314984321594,5008.0,-1860.0,15620.0,132.0,-161.0,137.0,0.9836343473220696,0.1183787655358587,-0.12661532880467846,0.04917821824929668
-3921.0470955371857,4996.0,-1844.0,15420.0,69.0,-128.0,77.0,0.9811028060750592,0.12367524150911104,-0.13815467261035172,0.05527209951896385
-3921.0626912117004,5036.0,-1844.0,15692.0,107.0,-138.0,64.0,0.9778794349366459,0.1323996336000384,-0.15016748955375964,0.06059598032611767
-3921.0782549381256,5052.0,-2028.0,15764.0,130.0,-81.0,37.0,0.9750670625374007,0.1431119300289553,-0.15682512812549368,0.06456839959682091
-3921.0938613414764,5072.0,-2032.0,15832.0,129.0,-61.0,-25.0,0.9727282790387545,0.1544540658480208,-0.1609727111567463,0.06349348757285996
-3921.1094918251038,5016.0,-2012.0,15676.0,138.0,-28.0,-35.0,0.9706394539805445,0.1664973627738529,-0.1621024868520935,0.062132618825132435
-3921.125160932541,5068.0,-1980.0,15772.0,75.0,-68.0,-79.0,0.9690061637770483,0.17402349014146967,-0.16629954799829275,0.05556383515051651
-3921.140733718872,5036.0,-1840.0,15836.0,59.0,-6.0,-97.0,0.9685000362072259,0.18014151055410113,-0.16503253492744596,0.04817653430156659
-3921.156351327896,4972.0,-2044.0,15608.0,57.0,42.0,-115.0,0.9686808863092862,0.18612792485229712,-0.15942002576415906,0.03998739144515752
-3921.1719782352448,4984.0,-2200.0,15828.0,133.0,66.0,-120.0,0.9677820723874916,0.19848662368433564,-0.1514076963020651,0.03281204175705181
-3921.187586784363,5064.0,-2148.0,15764.0,111.0,26.0,-63.0,0.9663806421047845,0.20831141795930683,-0.14780755918650465,0.029457310811670617
-3921.2032635211945,5196.0,-2124.0,15744.0,113.0,-1.0,115.0,0.9639822888822467,0.2160464335036922,-0.14970020949316212,0.0406439733463992
-3921.218897342682,5204.0,-2072.0,15820.0,27.0,-54.0,157.0,0.9621663757062167,0.2161435069754907,-0.15711134094355442,0.0532341657173096
-3921.2345271110535,5100.0,-2108.0,15792.0,22.0,-63.0,163.0,0.9600767058586098,0.21573257558835596,-0.16536482720341258,0.06608062213448201
-3921.250162601471,5056.0,-2024.0,15716.0,30.0,-32.0,218.0,0.9576725187724408,0.2149547760993438,-0.17194591060577452,0.08421635735461999
-3921.2657985687256,5008.0,-2016.0,15372.0,37.0,-33.0,106.0,0.9557147123754552,0.21639949818386822,-0.176407951040144,0.09306385197642002
-3921.281393289566,4996.0,-2044.0,15544.0,22.0,-12.0,-247.0,0.9569599017020223,0.22179687852100272,-0.17251469482579265,0.07261247332214596
-3921.296988964081,5028.0,-2000.0,15476.0,72.0,-71.0,-48.0,0.9548210001608014,0.22868675455682838,-0.17704639704206923,0.06836519024045473
-3921.312618970871,5032.0,-1924.0,15376.0,93.0,-117.0,-79.0,0.9515932212911749,0.23804774633157355,-0.1846371601187624,0.060932181664718844
-3921.328240633011,4964.0,-1932.0,15388.0,46.0,-64.0,-190.0,0.9505355120851324,0.2449540427547696,-0.18571396842621174,0.04461030300880963
-3921.3439245224,5100.0,-1920.0,15732.0,12.0,-49.0,-504.0,0.9505947800502825,0.25378785331530335,-0.1787660791891688,0.001994638337421352
-3921.359516620636,5124.0,-1944.0,15752.0,21.0,-40.0,-315.0,0.9492722274598959,0.2600787218519507,-0.17502611534392537,-0.024640526796284277
-3921.3750665187836,5168.0,-1972.0,15772.0,82.0,38.0,-305.0,0.9470515580222603,0.2712378875816995,-0.16506094709592506,-0.04773089703350693
-3921.3907186985016,5100.0,-2000.0,15768.0,73.0,87.0,-320.0,0.9449121470926198,0.28185198844896164,-0.1505321968414891,-0.07099682104331786
-3921.4063267707825,5112.0,-2156.0,15368.0,241.0,20.0,-327.0,0.9367184962129383,0.3056898981427466,-0.1422569183968361,-0.09420782448546598
-3921.4219942092896,5184.0,-2280.0,15408.0,-14.0,-101.0,-205.0,0.9340524640441504,0.3059393793347891,-0.14492000440744096,-0.11377733916664792
-3921.437587738037,5172.0,-2488.0,15348.0,-36.0,-217.0,-16.0,0.932023037175677,0.300736535925028,-0.1618120916791638,-0.12127423930932203
-3921.4531784057617,5288.0,-2628.0,15560.0,34.0,-358.0,167.0,0.9273734406708785,0.2969172618347198,-0.19556638666321677,-0.11650077068552922
-3921.4687621593475,5400.0,-2684.0,15600.0,39.0,-468.0,322.0,0.9206003057608724,0.28920700886823014,-0.24187625940544047,-0.1017362186761051
-3921.484341621399,5828.0,-2400.0,15408.0,33.0,-591.0,526.0,0.9098802619660427,0.2746031789936848,-0.3021799510555318,-0.07347298926302406
-3921.4999675750732,5644.0,-2260.0,15756.0,-39.0,-581.0,744.0,0.8973109262036308,0.24709322354199822,-0.3645895575803054,-0.02919751870627926
-3921.515590429306,5428.0,-2312.0,15832.0,-112.0,-693.0,835.0,0.8759401108345707,0.20884564319113405,-0.43451205824808076,0.01765476672793471
-3921.53125667572,5596.0,-2428.0,15576.0,-201.0,-514.0,825.0,0.8557372090085301,0.1622180191120628,-0.4871970363211945,0.06354676383179884
-3921.5468456745148,5396.0,-2588.0,15680.0,-220.0,-707.0,832.0,0.8204156590721077,0.11367408282934559,-0.5502612120712644,0.10587231806307681
-3921.562464237213,5220.0,-2624.0,15396.0,-168.0,-588.0,798.0,0.7835697172074098,0.06841109381818473,-0.5993830467609182,0.14858796644983813
-3921.5780699253082,5124.0,-2560.0,15472.0,-107.0,-464.0,705.0,0.7488431231135338,0.03009980263310165,-0.6348210323834351,0.1879633892295161
-3921.5936584472656,5116.0,-2280.0,15640.0,-57.0,-306.0,575.0,0.7215439930416424,-0.00048673207047933155,-0.6560603721699648,0.22126639434315593
-3921.609301805496,5252.0,-2084.0,15748.0,-64.0,-174.0,497.0,0.7013410153923295,-0.029591532473105045,-0.6673838527044046,0.24868436718815892
-3921.6249113082886,5452.0,-2184.0,15812.0,-28.0,-168.0,489.0,0.6802866234510493,-0.056082923404227256,-0.6761916975064364,0.2771815359640143
-3921.6405444145203,5360.0,-2368.0,16092.0,-33.0,-114.0,554.0,0.6592987780345805,-0.08786382910212606,-0.680089277013666,0.3083563589560799
-3921.656124353409,5380.0,-2500.0,15684.0,26.0,-226.0,602.0,0.6289986484529192,-0.11581760309402486,-0.6865735970503367,0.3457798127296005
-3921.671732187271,5192.0,-2408.0,15644.0,91.0,-4.0,607.0,0.6105902245428119,-0.14683775661761728,-0.6768206302405975,0.3840990567613834
-3921.6873145103455,5032.0,-2240.0,15572.0,62.0,-225.0,548.0,0.5790447185181392,-0.16809796647095343,-0.6786791491147981,0.4193386461815708
-3921.7029156684875,4932.0,-1868.0,15572.0,53.0,-247.0,760.0,0.5361677572972467,-0.200865351972718,-0.6763139023837071,0.46344012758309805
-3921.718531370163,4968.0,-1756.0,15596.0,50.0,-201.0,373.0,0.5098374093919498,-0.21221264657542457,-0.676588285138854,0.4870933186062235
-3921.7341692447662,5064.0,-1916.0,15376.0,29.0,-71.0,227.0,0.4965207481203005,-0.22120365285892857,-0.6740636499748408,0.5001742560653427
-3921.7498219013214,5056.0,-2212.0,15532.0,45.0,-72.0,121.0,0.48792761422342945,-0.2231515427994624,-0.6727284691601474,0.5094766324434288
-3921.7654268741608,5220.0,-2468.0,15620.0,91.0,-37.0,102.0,0.483051678824741,-0.22354213016227387,-0.668120096492333,0.519909153881895
-3921.7810106277466,5316.0,-2700.0,15580.0,116.0,-67.0,195.0,0.4725545975937739,-0.2268717187124378,-0.661634060901665,0.5361545905764705
-3921.796593427658,5300.0,-2848.0,15568.0,186.0,-78.0,271.0,0.4589466127102314,-0.23103456805848632,-0.6503951105026293,0.5594436837413627
-3921.8121509552,5232.0,-2832.0,15580.0,219.0,-255.0,378.0,0.43010224089399046,-0.23097452106450417,-0.6415653687348635,0.5916559056048452
-3921.827917575836,5192.0,-2492.0,15524.0,502.0,53.0,549.0,0.41405122279020984,-0.2450174434033815,-0.6012024341719278,0.6380310889602103
-3921.8435044288635,5136.0,-2384.0,15592.0,233.0,110.0,600.0,0.39084596359064483,-0.27367863610702964,-0.5703848827318252,0.6685809767219664
-3921.859083890915,5184.0,-2348.0,15576.0,220.0,184.0,635.0,0.3676125406347332,-0.3078585296289101,-0.5350071733036919,0.6955943287695748
-3921.874641418457,5348.0,-2436.0,15564.0,215.0,113.0,765.0,0.3314924484992179,-0.3425931034568051,-0.4964577236723556,0.7254463802776131
-3921.8902320861816,5144.0,-2456.0,15512.0,236.0,71.0,359.0,0.31874483488387595,-0.3554352728377191,-0.4682974575877186,0.7434816664010658
-3921.9058079719543,5288.0,-2292.0,15488.0,266.0,124.0,260.0,0.31508848012156876,-0.3663601077505072,-0.43917793093030616,0.7573785487637552
-3921.921540260315,5236.0,-2088.0,15608.0,229.0,138.0,114.0,0.32014035755498216,-0.3732920692533222,-0.41638367805422755,0.764714204881258
-3921.9372045993805,5144.0,-1888.0,15476.0,127.0,115.0,-25.0,0.33016689806896876,-0.37631869185957084,-0.40538407824406425,0.764877644256143
-3921.9528110027313,4876.0,-1916.0,15360.0,44.0,51.0,-181.0,0.34552979697480213,-0.3718459985448256,-0.40678748035518847,0.7595154103736346
-3921.968421936035,5012.0,-1852.0,15500.0,-49.0,-6.0,-302.0,0.36369786813319027,-0.3619209899979621,-0.41979188326728667,0.7486733816940284
-3921.9850618839264,5364.0,-2348.0,15456.0,-62.0,-123.0,-381.0,0.38197671928466453,-0.3415223362301198,-0.4394321909876089,0.7378046010321941
-3922.000737428665,5144.0,-2516.0,15484.0,15.0,-169.0,-374.0,0.39985685075596467,-0.31544030242029264,-0.45486994355465576,0.7305513321889852
-3922.016345977783,5288.0,-2680.0,15604.0,107.0,-206.0,-314.0,0.41449456527187156,-0.28578836114291495,-0.4635159727728669,0.729158563674426
-3922.0319912433624,5380.0,-2628.0,15460.0,166.0,-157.0,-206.0,0.4253312954293481,-0.2612143580551438,-0.46349594432596697,0.7321419656512063
-3922.047601699829,5264.0,-2400.0,15704.0,110.0,-143.0,-210.0,0.435436684031156,-0.23928160668768203,-0.4663104132071543,0.7319110638837794
-3922.063274383545,5280.0,-2140.0,15584.0,38.0,-184.0,-190.0,0.4408500389625712,-0.21814740954239673,-0.4745918552616261,0.7299489857352834
-3922.07887840271,5252.0,-2100.0,15560.0,14.0,-189.0,-193.0,0.44555082353891534,-0.19738011770954025,-0.48438177032129476,0.726567170574869
-3922.094484806061,5248.0,-2284.0,15556.0,4.0,-139.0,-204.0,0.4526666517347633,-0.17961277444095414,-0.492796351444366,0.7210990983685823
-3922.1100664138794,5184.0,-2376.0,15584.0,37.0,-131.0,-270.0,0.4645353853528993,-0.1581141641062331,-0.49955809746692853,0.7138966970922637
-3922.125664949417,5204.0,-2452.0,15400.0,79.0,-51.0,-261.0,0.47961662856217047,-0.14019547476587083,-0.5000074222064571,0.7073229080132234
-3922.1412961483,5196.0,-2344.0,15868.0,129.0,-30.0,-297.0,0.4981125416248871,-0.11982389941581333,-0.49657441543713104,0.7006710918384288
-3922.1568927764893,5044.0,-2196.0,15612.0,71.0,-81.0,-275.0,0.5120842302392791,-0.0997281914382155,-0.49829853515895944,0.6924757027009272
-3922.172484397888,5136.0,-2248.0,15868.0,-254.0,-119.0,-225.0,0.5181369190503027,-0.09396310656032153,-0.5205040104340787,0.672146295715921
-3922.188079357147,5124.0,-2304.0,15660.0,-19.0,-125.0,-190.0,0.5234391969958249,-0.0787579465186011,-0.5285584066959126,0.6636524720210251
-3922.203688144684,5212.0,-2376.0,15672.0,-51.0,-53.0,-170.0,0.5305161944677006,-0.07009084676937662,-0.5348644281112703,0.6538806344799214
-3922.219318628311,5296.0,-2308.0,15676.0,227.0,-36.0,-12.0,0.5308950570595738,-0.05688223213295747,-0.5233723494443769,0.6640754730407963
-3922.2349059581757,5432.0,-2292.0,15544.0,58.0,254.0,-275.0,0.558514736717604,-0.05625267061157191,-0.5091501954745624,0.652428543494647
-3922.250499010086,5356.0,-2548.0,15808.0,88.0,48.0,-311.0,0.5786488614966383,-0.040788552745750925,-0.5029384017142008,0.6407454667297436
-3922.266083240509,5288.0,-2284.0,15424.0,54.0,74.0,-308.0,0.5991742830572349,-0.028603167394093666,-0.4968941684512591,0.6271110130567042
-3922.2816705703735,5268.0,-2068.0,15420.0,44.0,9.0,-280.0,0.6149083008877558,-0.01458690868965415,-0.4943712301408231,0.6142247881706353
-3922.2972893714905,5292.0,-2508.0,15516.0,62.0,70.0,-272.0,0.6324848934940408,-0.003228284873519387,-0.4872861315770238,0.6020836018787645
-3922.3128848075867,5348.0,-2400.0,15580.0,31.0,68.0,-228.0,0.6473203054378273,0.004645699707989571,-0.48166108654641204,0.5907261949067697
-3922.3285098075867,5304.0,-2440.0,15756.0,59.0,50.0,-491.0,0.674174139756561,0.026051346726753348,-0.47494384404791173,0.565012302183073
-3922.344080924988,5372.0,-2416.0,15604.0,12.0,53.0,-203.0,0.6863336128893015,0.032569119074983534,-0.470484976777519,0.5536508926459482
-3922.359658718109,5288.0,-2332.0,15576.0,36.0,16.0,-177.0,0.6954484369956752,0.04122544727067111,-0.4670161011713445,0.5445621132839871
-3922.375214099884,5312.0,-2388.0,15312.0,11.0,1.0,-195.0,0.7047095212404623,0.04978866900331462,-0.46545318824150134,0.5331593651693068
-3922.3908047676086,5176.0,-2236.0,15448.0,-17.0,-21.0,-189.0,0.7127205561282817,0.057384887089478066,-0.4664405047077376,0.520739511823245
-3922.406419992447,5244.0,-2308.0,15528.0,-41.0,-101.0,-234.0,0.7193620960108568,0.06892076338801811,-0.47308767259685164,0.5039406286793852
-3922.42201256752,5288.0,-2448.0,15572.0,248.0,-89.0,-158.0,0.7209782301156612,0.09487231313458455,-0.46644431028999583,0.5036063356411159
-3922.437605857849,5352.0,-2432.0,15428.0,82.0,-135.0,-95.0,0.718978174795111,0.10977755728552516,-0.4702865805036668,0.4998497817173499
-3922.4531836509705,5424.0,-2448.0,15684.0,123.0,-90.0,-56.0,0.7165677138186651,0.12365814244487651,-0.4697872663062406,0.5005390092053602
-3922.4687688350677,5448.0,-2356.0,15780.0,139.0,-112.0,-80.0,0.7139571265455744,0.1404477252274102,-0.4695935722104284,0.5000215344081509
-3922.484346151352,5408.0,-2356.0,15852.0,87.0,-58.0,-170.0,0.7179138205600559,0.15527827564546834,-0.4670666060959312,0.4922775526382063
-3922.499981403351,5396.0,-2360.0,15648.0,85.0,-7.0,-98.0,0.7207294811591383,0.16481294796973586,-0.46230953913539563,0.48954631772082874
-3922.515582561493,5120.0,-2436.0,15660.0,97.0,123.0,-88.0,0.728053128481989,0.16910286812151765,-0.4489227458620726,0.48970524843861124
-3922.531266927719,5296.0,-2540.0,15420.0,111.0,115.0,12.0,0.73041930860817,0.1706575667004096,-0.43682112934201145,0.4965389506379413
-3922.5468606948853,5208.0,-2564.0,15456.0,180.0,57.0,59.0,0.7273271070997462,0.17728424764368977,-0.42601710071427357,0.5080108312962722
-3922.562445163727,5208.0,-2384.0,15360.0,251.0,-29.0,100.0,0.7178099886712828,0.190626543335548,-0.4179738197096447,0.5231713172346153
-3922.578029155731,5272.0,-2320.0,15412.0,241.0,-155.0,82.0,0.7042439178123893,0.2096295600758445,-0.4177228558697468,0.534418906337236
-3922.5936131477356,5328.0,-2192.0,15672.0,210.0,-175.0,118.0,0.6883655440179237,0.2262074572877887,-0.42052741236652225,0.5460217573729258
-3922.609199285507,5252.0,-2224.0,15680.0,190.0,-127.0,35.0,0.6782259918809262,0.24222351953272808,-0.4195411009789296,0.5525599832703231
-3922.6247906684875,5144.0,-2412.0,15568.0,214.0,-136.0,56.0,0.6659263334829948,0.2592078744630138,-0.41818916539881673,0.5607773338262728
-3922.6404099464417,5156.0,-2516.0,15592.0,253.0,-223.0,92.0,0.6473337510806447,0.28120905434988136,-0.4205036101396287,0.57013787483647
-3922.6560773849487,5164.0,-2436.0,15500.0,272.0,-172.0,110.0,0.6286676668196657,0.30083567708542547,-0.4190590941566859,0.581948739746594
-3922.6716783046722,5164.0,-2344.0,15852.0,234.0,-212.0,184.0,0.6051881945352815,0.31742143016739294,-0.4232862705286343,0.5948273850854322
-3922.6872866153717,5296.0,-2264.0,15604.0,230.0,-172.0,177.0,0.5830906791987934,0.331688405942787,-0.42501815822644395,0.6077397686283369
-3922.7028880119324,5328.0,-1800.0,15832.0,202.0,-84.0,88.0,0.5694110291007783,0.3429648369858496,-0.4209031007794514,0.6172412658627947
-3922.718477487564,5216.0,-2104.0,15784.0,192.0,21.0,253.0,0.5506597419810177,0.341819882034943,-0.41680066653415404,0.6373462333643318
-3922.7340772151947,5260.0,-2196.0,15680.0,136.0,110.0,-104.0,0.5563673318505465,0.3458356197432701,-0.4006521121765789,0.6405708400908817
-3922.749678373337,5232.0,-2196.0,15644.0,136.0,87.0,-183.0,0.5654725595194491,0.35375694007744696,-0.38308575427258906,0.6390165229874467
-3922.765324831009,5356.0,-2284.0,15712.0,77.0,127.0,-239.0,0.5805593864719332,0.35820877493721603,-0.3649130110531908,0.6336211539251237
-3922.7809002399445,5104.0,-2072.0,15576.0,31.0,175.0,-318.0,0.6025091301776785,0.35989176196511086,-0.3440978670212167,0.6237445996829424
-3922.796507358551,5068.0,-2296.0,15448.0,54.0,172.0,-301.0,0.6221339989870286,0.3620678782643486,-0.3224005851127046,0.6147471037366069
-3922.812070608139,5360.0,-2244.0,15836.0,97.0,206.0,-290.0,0.6401532822783714,0.3640728573449043,-0.2965934060050473,0.6080189809925918
-3922.8276953697205,5276.0,-2400.0,15640.0,86.0,269.0,-151.0,0.6521966293282787,0.35817500512183914,-0.2720117002499651,0.6102129606341754
-3922.843297481537,5388.0,-2540.0,15524.0,157.0,259.0,-97.0,0.6583990672175734,0.3552731256644569,-0.2457108326423698,0.6163747733236894
-3922.8588948249817,5288.0,-2484.0,15544.0,243.0,269.0,-54.0,0.659246413934462,0.3555205205206104,-0.21533979156456845,0.626600430395826
-3922.874475479126,5196.0,-2432.0,15512.0,236.0,251.0,28.0,0.654852828130916,0.3544532938538285,-0.1887374374422366,0.6402412167869622
-3922.890077352524,5064.0,-2216.0,15520.0,219.0,162.0,-2.0,0.6507141151328324,0.3576119736191348,-0.16710919758178475,0.6486596432449717
-3922.9056720733643,5016.0,-2436.0,15340.0,244.0,52.0,65.0,0.6400506205535438,0.36724375405614773,-0.15233301557039147,0.6574662581479008
-3922.9222118854523,5040.0,-2448.0,15104.0,246.0,-30.0,98.0,0.6260076786981986,0.38106249285964855,-0.14301026399166136,0.6651720282299299
-3922.9380061626434,5324.0,-2788.0,15244.0,243.0,-108.0,307.0,0.5984072398898421,0.39629343862560906,-0.14495361159344478,0.6810644141604584
-3922.953586101532,5268.0,-2468.0,15376.0,231.0,-92.0,329.0,0.5693583994492099,0.40917044363619837,-0.14733024038479242,0.6976420008137051
-3922.969200372696,5340.0,-2316.0,15416.0,4.0,-101.0,380.0,0.5444869157693598,0.41016520870036804,-0.16559170149446703,0.7126555188335533
-3922.9848535060883,5428.0,-2188.0,15408.0,280.0,-134.0,400.0,0.5071818036022351,0.42538956954471363,-0.1686943252977896,0.7303099046498485
-3923.0005049705505,5488.0,-2148.0,15340.0,334.0,-153.0,341.0,0.470371980564038,0.44426806310134453,-0.16666953330313647,0.7440412318393106
-3923.0161068439484,5288.0,-2216.0,15448.0,290.0,-161.0,106.0,0.44972301400474507,0.46466739913830196,-0.15847257015395988,0.7461366251306341
-3923.031793117523,5592.0,-2288.0,15468.0,292.0,-264.0,110.0,0.42682125041981667,0.4912893780584093,-0.15417930293110488,0.743429290346247
-3923.0474379062653,5508.0,-2188.0,15592.0,313.0,-222.0,73.0,0.4054680765615782,0.5158842619709855,-0.14518167014011732,0.740527750861122
-3923.06307888031,5540.0,-2356.0,15560.0,370.0,-279.0,31.0,0.38298037245360667,0.5459914250567556,-0.13243006240532196,0.7332678069103487
-3923.078713417053,5188.0,-2244.0,15544.0,320.0,-158.0,-58.0,0.36945893914870237,0.5670192090824798,-0.11441357432045353,0.7272543178461112
-3923.0943059921265,5152.0,-2424.0,15504.0,249.0,-145.0,-233.0,0.37030900557356117,0.586111037384187,-0.09171570669501809,0.7147959998440016
-3923.109929561615,5316.0,-2348.0,15564.0,157.0,-100.0,-356.0,0.3834776471810914,0.5997493861995471,-0.06691808194924886,0.6991191158693592
-3923.1255605220795,5624.0,-2204.0,15820.0,95.0,-219.0,-333.0,0.39731982383163045,0.6176928550423538,-0.051013718872394455,0.6767496545302674
-3923.141169309616,5656.0,-2328.0,15892.0,-18.0,-282.0,-313.0,0.4152723044420989,0.6345479102588425,-0.04498373978194695,0.6502878792540385
-3923.1567616462708,5304.0,-2460.0,15740.0,6.0,-437.0,-178.0,0.42300243498896534,0.6595763067864814,-0.05061556127517023,0.6192463972249744
-3923.1723444461823,5056.0,-2436.0,15376.0,32.0,-468.0,-211.0,0.4301016200603475,0.6861723224318349,-0.05399361217606744,0.5841787656138717
-3923.187976360321,4884.0,-2424.0,15148.0,156.0,-484.0,-170.0,0.42671926346636163,0.7166141940474218,-0.05399541319001675,0.5490530597591908
-3923.2035839557648,4948.0,-2288.0,15336.0,218.0,-424.0,-229.0,0.4216538410207785,0.745240115582545,-0.04499167754078348,0.514588143500222
-3923.219224691391,5172.0,-2284.0,15140.0,185.0,-366.0,-314.0,0.4219011893796649,0.7688512392583038,-0.029720257772985054,0.4795663296864179
-3923.234839439392,5344.0,-2304.0,15468.0,194.0,-413.0,-299.0,0.41989553013358233,0.79308118984527,-0.016747620115822513,0.44094159171924885
-3923.2504737377167,5524.0,-2380.0,15456.0,168.0,-476.0,-228.0,0.41590441837389963,0.8168686246220241,-0.01195499383044258,0.39950750056501444
-3923.2660801410675,5392.0,-2520.0,15296.0,206.0,-598.0,-218.0,0.4075454009925656,0.8439314160012512,-0.010941694180185528,0.348664294909013
-3923.281676054001,5204.0,-2316.0,15608.0,357.0,-689.0,-94.0,0.38260710861807473,0.8756066058788294,-0.01764177814875847,0.2943019535103752
-3923.297340631485,4724.0,-2520.0,15140.0,612.0,-547.0,-3.0,0.33425189537204014,0.9077395109178321,-0.019924355269607147,0.2527601052894707
-3923.3129274845123,4408.0,-2688.0,15476.0,714.0,-149.0,-396.0,0.2854427295413819,0.9300838621423871,0.02278925282851097,0.23010238479812592
-3923.3285479545593,4868.0,-2568.0,16076.0,686.0,142.0,-425.0,0.2374237993790659,0.941053557581297,0.0744114678953862,0.22915295044499748
-3923.3441286087036,5844.0,-2020.0,16288.0,676.0,37.0,-167.0,0.18467327243694917,0.9514596914742492,0.10221863293810847,0.22399015386266177
-3923.359720468521,6020.0,-1728.0,16280.0,507.0,-119.0,-43.0,0.14433183224902163,0.9605621785352239,0.11365670447166734,0.2087361418057374
-3923.3753151893616,5700.0,-1828.0,15988.0,360.0,-291.0,54.0,0.11596175229175387,0.9701222548983175,0.11192103276938237,0.18135425272175096
-3923.390888929367,5236.0,-2448.0,15836.0,219.0,-260.0,241.0,0.09607904861398005,0.97815461570367,0.09227864035961059,0.15958388618033964
-3923.4064881801605,5152.0,-2488.0,15696.0,176.0,-768.0,418.0,0.08116836926771547,0.9906939114125108,0.05243267573889582,0.09585449512390926
-3923.422085046768,5204.0,-2232.0,15508.0,4.0,-331.0,412.0,0.07880597826974764,0.9943171861847495,0.014470952632230402,0.07009666594429384
-3923.437706232071,5208.0,-1936.0,15192.0,367.0,-144.0,285.0,0.045349644775336324,0.9971819612097569,-0.009006530586785723,0.05907984735426288
-3923.4533541202545,5280.0,-1840.0,14936.0,344.0,-187.0,120.0,0.014627035623132797,0.998774224089212,-0.018408669274387928,0.043557089198183574
-3923.4689552783966,5344.0,-1880.0,14948.0,285.0,-278.0,2.0,-0.010676695831714536,0.9995876283248455,-0.017844400481933295,0.019803000718773677
-3923.4845497608185,5460.0,-1820.0,15400.0,236.0,-364.0,-114.0,-0.031626188834473,0.9994087034960262,-0.007144020162520417,-0.01144510952835263
-3923.500140428543,5600.0,-2060.0,15852.0,154.0,-384.0,-120.0,-0.04540415464756199,0.9979698113793408,0.004229515311471645,-0.04446155099018791
-3923.5157911777496,5720.0,-2472.0,16140.0,99.0,-309.0,-43.0,-0.05407907427094802,0.9959561868898278,0.0088143074126257,-0.0711971594005514
-3923.531447172165,5820.0,-2400.0,16020.0,156.0,-214.0,250.0,-0.06591104337445111,0.9935802932323535,-0.012871623409553914,-0.09103986254605283
-3923.547064781189,5612.0,-2292.0,15836.0,186.0,-148.0,78.0,-0.08159233190272042,0.9910096627535466,-0.020255872436513334,-0.10407804444556815
-3923.562644958496,5456.0,-2224.0,15156.0,209.0,-128.0,153.0,-0.09850204330671335,0.9877725561448617,-0.03446463471748647,-0.11582276868232151
-3923.578234910965,5312.0,-2140.0,15036.0,248.0,-226.0,224.0,-0.11825450000432784,0.9820707079395953,-0.05430604315642657,-0.13639593656865606
-3923.5938148498535,5372.0,-2172.0,15280.0,219.0,-328.0,160.0,-0.13661378266047378,0.9744711088411904,-0.0671931630742452,-0.16500851874099068
-3923.609370946884,5500.0,-2156.0,15552.0,208.0,-376.0,207.0,-0.15342964414237403,0.9645206113600673,-0.0832360253396934,-0.1980684191020784
-3923.625009536743,5636.0,-2192.0,15688.0,193.0,-289.0,215.0,-0.16798901909595323,0.954763371194282,-0.10073382169375324,-0.22373933864182288
-3923.640655040741,5664.0,-2292.0,15772.0,230.0,-188.0,21.0,-0.1883738691807158,0.9472060160787447,-0.10417609210170795,-0.23762026502075886
-3923.656252145767,5584.0,-2048.0,15784.0,228.0,-47.0,192.0,-0.20363853200280266,0.940400018685137,-0.12395671257904073,-0.24251574494728123
-3923.6718986034393,5468.0,-1980.0,15624.0,182.0,38.0,114.0,-0.21575541281303473,0.936555389286491,-0.1378094014473184,-0.2394204951816745
-3923.6874947547913,5484.0,-1836.0,15504.0,131.0,-13.0,27.0,-0.22608271908089383,0.9334165067212443,-0.14249034461724766,-0.23940912848961518
-3923.7030744552612,5460.0,-1848.0,15508.0,122.0,25.0,-122.0,-0.23827696505761092,0.9329289952422396,-0.1355665939719295,-0.23342938195113622
-3923.718667984009,5436.0,-1796.0,15476.0,153.0,17.0,-2.0,-0.2505983582251761,0.9300201897875412,-0.13885185040915085,-0.23018052280839668
-3923.7342908382416,5428.0,-1848.0,15544.0,129.0,47.0,-288.0,-0.2662315098716963,0.9312587114168299,-0.11903306984660908,-0.21842418328700405
-3923.7498874664307,5492.0,-1940.0,15600.0,60.0,76.0,-279.0,-0.2755971739276999,0.9338875861462062,-0.09921751374842809,-0.20507573998563994
-3923.7655029296875,5464.0,-1936.0,15520.0,30.0,93.0,-309.0,-0.2827075208788367,0.9371168455800274,-0.07675856626713622,-0.18972769400721362
-3923.781093120575,5516.0,-1984.0,15612.0,39.0,95.0,-298.0,-0.2901403820570987,0.9393531676936316,-0.055338154041257526,-0.17427528152611618
-3923.7967143058777,5500.0,-1956.0,15536.0,78.0,185.0,-332.0,-0.30057595718914737,0.941239418149108,-0.03395502304717944,-0.15023151497612508
-3923.812299966812,5560.0,-2028.0,15656.0,57.0,191.0,-289.0,-0.3083955046488006,0.9426450715771654,-0.015949261554296847,-0.12672056975710466
-3923.827888727188,5564.0,-2136.0,15608.0,116.0,140.0,-7.0,-0.3178423311216671,0.9409434800375871,-0.020411366901575755,-0.11482593793698564
-3923.843502521515,5544.0,-2108.0,15568.0,167.0,160.0,-199.0,-0.333210923898199,0.9379157546497097,-0.010163557888966893,-0.09581868015064635
-3923.8590695858,5584.0,-2252.0,15424.0,183.0,159.0,-159.0,-0.34933392053966544,0.9337426139828576,-0.003287763544060899,-0.07797264522718912
-3923.8746864795685,5632.0,-2280.0,15472.0,173.0,177.0,-93.0,-0.3639858275359329,0.9294266081311665,-0.002269239616096109,-0.060624648471903485
-3923.8902904987335,5880.0,-2184.0,15436.0,182.0,162.0,-15.0,-0.37878013315335474,0.9242681745565616,-0.007147738695185574,-0.04693465736269649
-3923.9059331417084,5520.0,-2120.0,15464.0,199.0,155.0,60.0,-0.3944610005905423,0.9180224537444935,-0.017911301643363485,-0.03625574033843388
-3923.921620607376,5568.0,-1980.0,15444.0,191.0,167.0,6.0,-0.4094563397635553,0.911710787901152,-0.024726705919182055,-0.022749397057477614
-3923.9373564720154,5576.0,-2024.0,15172.0,155.0,115.0,18.0,-0.42151961011181,0.9061980628766433,-0.03055766278751222,-0.013875099090515828
-3923.952985048294,5572.0,-2164.0,15440.0,161.0,48.0,54.0,-0.4340842150276507,0.9000467700692476,-0.03677012932088856,-0.011604462136107309
-3923.9685864448547,5572.0,-2212.0,15616.0,206.0,37.0,46.0,-0.45010028195573876,0.8919378778983333,-0.041970736777003796,-0.009747584725339977
-3923.984240293503,5588.0,-2040.0,15500.0,139.0,58.0,41.0,-0.46070926968268283,0.8862547212181832,-0.04753759739251792,-0.00630196644518913
-3923.999929666519,5392.0,-2060.0,15584.0,134.0,57.0,-10.0,-0.47088480103144076,0.8808263931197845,-0.04910756500148379,-0.0009035490005089652
-3924.01553940773,5548.0,-2264.0,15508.0,98.0,95.0,-12.0,-0.47805943517701205,0.8767516726307434,-0.05207410507634623,0.007346329554803345
-3924.031148672104,5596.0,-2144.0,15796.0,105.0,69.0,-19.0,-0.48581983837156184,0.8723144821376189,-0.05340864757297584,0.01393001299471564
-3924.046814441681,5484.0,-2196.0,15504.0,121.0,84.0,-37.0,-0.4946346505474057,0.8671313177988023,-0.053980909501093764,0.02249225599607973
-3924.062465906143,5472.0,-2260.0,15472.0,149.0,114.0,36.0,-0.5054586094440228,0.8601366419076578,-0.06130580129748702,0.030300991964055016
-3924.07807970047,5508.0,-2196.0,15600.0,198.0,83.0,40.0,-0.5199751291294838,0.8507617433363961,-0.06741283163297528,0.03585848983458467
-3924.093683719635,5464.0,-2140.0,15452.0,167.0,18.0,20.0,-0.5323603347760046,0.8428627596526465,-0.06916073355659727,0.03730462815548027
-3924.1092891693115,5564.0,-2100.0,15472.0,222.0,5.0,19.0,-0.5487071060166856,0.8322019519721586,-0.07002917356624827,0.03816199405365323
-3924.124895334244,5512.0,-2116.0,15512.0,262.0,53.0,79.0,-0.5675982223172304,0.8186912392456372,-0.07738404551511051,0.0398575250671423
-3924.140529870987,5588.0,-2176.0,15628.0,236.0,73.0,104.0,-0.5842619402031344,0.8057577033968,-0.08755875342067575,0.04154483537337499
-3924.1561119556427,5476.0,-2228.0,15584.0,216.0,3.0,99.0,-0.5997526533674722,0.7937361652699177,-0.09383958570697837,0.038389931956507646
-3924.171750307083,5432.0,-2240.0,15852.0,214.0,47.0,137.0,-0.6145905211913055,0.7809838399408882,-0.10501490833151035,0.03625744118259157
-3924.1873433589935,5360.0,-2216.0,15504.0,204.0,69.0,162.0,-0.6282984008918644,0.7680505696384667,-0.1190452820596984,0.03417108037624266
-3924.2029371261597,5472.0,-2068.0,15560.0,229.0,32.0,144.0,-0.6436609714285338,0.7536109061421524,-0.1296944303498895,0.0308303541902734
-3924.218494653702,5412.0,-2072.0,15416.0,202.0,-7.0,95.0,-0.6572550475918931,0.7409854894372847,-0.13493718325183318,0.027354404296696985
-3924.234096288681,5344.0,-2196.0,15604.0,179.0,-27.0,59.0,-0.6692969534291923,0.7299025864423387,-0.1367114069533831,0.024367881401801274
-3924.2496888637543,5384.0,-2124.0,15724.0,171.0,88.0,6.0,-0.6791571090076328,0.7194670320149684,-0.14180238534823056,0.03170007314689831
-3924.2653386592865,5384.0,-2064.0,15740.0,172.0,119.0,-85.0,-0.6882156817746999,0.7097675601934529,-0.14296382541862598,0.04637381241704141
-3924.2809460163116,5292.0,-1936.0,15708.0,149.0,152.0,-174.0,-0.6947441442730585,0.702079665307183,-0.1406181469340627,0.06812675181806249
-3924.2965602874756,5252.0,-2108.0,15616.0,89.0,87.0,-248.0,-0.6975497580520499,0.698909997405129,-0.13007325509646503,0.0896108189746025
-3924.3121588230133,5376.0,-1828.0,15500.0,164.0,-69.0,-295.0,-0.7058082646957912,0.6924031243109562,-0.10648815751780291,0.10522774938202448
-3924.3278222084045,5120.0,-2044.0,15740.0,175.0,-41.0,-331.0,-0.7134382169182315,0.6846001843233276,-0.08225235087442227,0.12475195004740963
-3924.3434369564056,5412.0,-1796.0,15628.0,230.0,83.0,-434.0,-0.7212747117192254,0.6717433733761636,-0.05887338857182948,0.1582957822483934
-3924.359052658081,5304.0,-1980.0,15592.0,153.0,187.0,-450.0,-0.722445383271047,0.6610634492778793,-0.042054697319339196,0.19824022460782648
-3924.3746654987335,5312.0,-1888.0,15536.0,105.0,117.0,-422.0,-0.7203106151594344,0.653337046253804,-0.0231987693071149,0.23187310922922338
-3924.390295267105,5236.0,-1936.0,15436.0,141.0,-17.0,-262.0,-0.7229325243573158,0.6449977958003943,-0.00428853087933511,0.24764494168443796
-3924.405925512314,5340.0,-2020.0,15648.0,244.0,-248.0,-554.0,-0.7237003737321732,0.6339991769031988,0.0477901414973149,0.2683634012335621
-3924.421535253525,5540.0,-2052.0,15884.0,620.0,210.0,-531.0,-0.74452341910254,0.5859657444257482,0.0782505253976828,0.3101707272494118
-3924.437199115753,5724.0,-2072.0,16720.0,1169.0,561.0,-462.0,-0.7900322567301848,0.48796735336291774,0.09639781985301112,0.3583913443505394
-3924.452794313431,5768.0,-2296.0,16976.0,1881.0,838.0,-150.0,-0.8587280282578564,0.3253240586774221,0.10220663659415917,0.3824973643910934
-3924.468400478363,5268.0,-2388.0,16276.0,2246.0,934.0,308.0,-0.9202971333125174,0.12544144182877395,0.09626748656823492,0.35784102911560556
-3924.4840557575226,5000.0,-2004.0,15344.0,2128.0,1001.0,726.0,-0.9528983545439925,-0.06915441765147395,0.07301813728238768,0.2861306415860553
-3924.4996778964996,4764.0,-1380.0,15324.0,1850.0,225.0,1004.0,-0.9521835251933074,-0.21822954641292966,0.10491188884532962,0.18632201963739625
-3924.5153198242188,4792.0,-988.0,14852.0,1681.0,-236.0,1175.0,-0.9223546010240644,-0.33761339632416093,0.1715353415427964,0.07651673799895226
-3924.5309598445892,4616.0,-956.0,14956.0,1500.0,-450.0,1161.0,-0.8668251080452735,-0.43154893173068676,0.24842184079285992,-0.025813573977467
-3924.5466334819794,5140.0,-968.0,15208.0,1351.0,-510.0,1242.0,-0.7913335511904576,-0.5009259770296268,0.32625074424884076,-0.1281593858220726
-3924.562241792679,5400.0,-1056.0,15264.0,1144.0,150.0,1392.0,-0.7211924219501676,-0.5318957603052794,0.359471875778904,-0.2602851536582841
-3924.577849626541,5384.0,-996.0,14836.0,638.0,699.0,1674.0,-0.6662388006966714,-0.4965647672994247,0.37342297174178074,-0.41243736069695014
-3924.5934495925903,5616.0,-1048.0,14732.0,-57.0,1184.0,1914.0,-0.6264833912218135,-0.38080424076872726,0.38219950336843117,-0.5625213154723065
-3924.6090409755707,5380.0,-1200.0,14612.0,-821.0,1378.0,2033.0,-0.5852153470926804,-0.1953430130030943,0.4044060443043241,-0.6751443224438725
-3924.6247000694275,5268.0,-1316.0,14780.0,-1295.0,1282.0,2033.0,-0.5183048850780673,0.017697439389167662,0.43744257743816684,-0.7346365347486686
-3924.6403002738953,5404.0,-1296.0,14992.0,-1888.0,1014.0,1757.0,-0.4291739543919028,0.22854286470180576,0.49544672532137446,-0.7197988734596877
-3924.6559121608734,5992.0,-1384.0,15828.0,-1956.0,-32.0,1136.0,-0.3114858913005215,0.34221056207025574,0.5854782247385651,-0.6656453403166415
-3924.6714992523193,6684.0,-1232.0,16316.0,-1878.0,-855.0,590.0,-0.17445928110677203,0.367270664246163,0.6881953205561634,-0.6008855291854597
-3924.6871049404144,6620.0,-1524.0,16844.0,-1713.0,-1133.0,229.0,-0.03889881032618928,0.34210813182344074,0.7754070963415489,-0.5293323565007626
-3924.7026846408844,6176.0,-1808.0,16256.0,-1674.0,-905.0,90.0,0.07543420871990371,0.307803093189688,0.841559954008718,-0.43742859964399555
-3924.7182862758636,5536.0,-1832.0,16148.0,-1699.0,-426.0,-54.0,0.1485731754780143,0.2731810823233437,0.8946584138724342,-0.3207560292126811
-3924.7338898181915,5380.0,-1716.0,15876.0,-1914.0,226.0,-508.0,0.15993569990538223,0.2118157168111158,0.9490329994715765,-0.1699736447851591
-3924.749531507492,5368.0,-1488.0,16268.0,-1913.0,877.0,-915.0,0.10694995116630877,0.11992783944132229,0.9869733001664012,-0.007919976711073227
-3924.7651720046997,4844.0,-1444.0,16068.0,-1801.0,1570.0,-1506.0,-0.01020615228198584,-0.02481287710919271,0.9890279984513058,0.14527138006009524
-3924.7807705402374,4692.0,-1568.0,15740.0,-2192.0,1611.0,-1976.0,-0.12378796736995194,-0.20523031224437904,0.9168322700010582,0.31933625969375423
-3924.796366930008,4860.0,-1484.0,15380.0,-2053.0,1180.0,-2440.0,-0.17930201296575374,-0.39420944851367185,0.7699170234333629,0.4686976380103553
-3924.8120636940002,4848.0,-1608.0,15504.0,-1914.0,803.0,-2902.0,-0.1722866520814975,-0.565326603711301,0.5529423448585704,0.5873481964840792
-3924.8276574611664,4688.0,-2196.0,15124.0,-1841.0,618.0,-3114.0,-0.12698910416662967,-0.6852697952627071,0.28145697482569126,0.6595915754810202
-3924.843279838562,4976.0,-2828.0,15180.0,-1679.0,307.0,-2954.0,-0.062200984780382974,-0.7253532770731249,0.004452723387423228,0.6855463763933584
-3924.858847141266,5232.0,-3828.0,15368.0,-1472.0,21.0,-2288.0,-0.017980581300740657,-0.6999518318692897,-0.22245294735733295,0.6784237746209583
-3924.8744716644287,5520.0,-3756.0,15544.0,-1286.0,-159.0,-1444.0,-0.013902725245070328,-0.6511182004928576,-0.38116507342605405,0.6561745118623656
-3924.890120744705,5420.0,-3764.0,15440.0,-1325.0,-297.0,-732.0,-0.056623074500955294,-0.602623620957491,-0.4938368667331281,0.6243106181648268
-3924.905723810196,5260.0,-3732.0,15344.0,-1632.0,-611.0,-239.0,-0.15395771839464664,-0.5445059409466428,-0.5854507013148783,0.5805667726889331
-3924.921389102936,4940.0,-3524.0,15292.0,-1888.0,-1023.0,-52.0,-0.28831003302826474,-0.4566134480428962,-0.6583577581790543,0.5243534553782095
-3924.9370622634888,4808.0,-3280.0,15196.0,-1865.0,-1164.0,-12.0,-0.4213185784116686,-0.3492806231427741,-0.7020590526250942,0.45563887938730757
-3924.952704668045,5000.0,-3208.0,15020.0,-1578.0,-1037.0,-157.0,-0.5197119376467928,-0.23710610503971788,-0.7216171951773009,0.3910867172952252
-3924.9682986736298,5052.0,-3396.0,14284.0,-1160.0,-1102.0,-325.0,-0.596065206394483,-0.12507451612754125,-0.7107041473905823,0.35208273178784205
-3924.9839305877686,5144.0,-3504.0,14088.0,-703.0,-1226.0,-564.0,-0.6567508483151423,-0.015642326175775042,-0.6687169732915066,0.34821150253976085
-3924.9995334148407,5540.0,-3808.0,14156.0,-355.0,-1356.0,-534.0,-0.7141172092374061,0.07648926717466296,-0.5972868214652869,0.3569796302059216
-3925.015110015869,5656.0,-3924.0,14240.0,-35.0,-1604.0,-472.0,-0.7746443951378965,0.1516921433398226,-0.48989802472992894,0.3700209184574936
-3925.0307202339172,6056.0,-4068.0,14048.0,384.0,-1537.0,-411.0,-0.8238563042382069,0.191035720845758,-0.3642341995506368,0.3899994759042781
-3925.0463321208954,5944.0,-4460.0,13680.0,744.0,-2087.0,-298.0,-0.8759570036705702,0.2140390471081385,-0.18022134354846786,0.3929464102942053
-3925.0619933605194,5840.0,-4904.0,13580.0,1009.0,-2289.0,27.0,-0.910252531512968,0.2100489068416424,0.028496245361501377,0.3556792791394539
-3925.0775833129883,6124.0,-5348.0,13072.0,1358.0,-2584.0,908.0,-0.9244669028463485,0.1785051796865925,0.2507590598401996,0.2249816443063667
-3925.09316778183,6300.0,-5136.0,13444.0,1663.0,-3414.0,1390.0,-0.8515976964239595,0.13381247966760187,0.5063571698949272,0.02186321629159523
-3925.1087503433228,6488.0,-3952.0,13644.0,1713.0,-3458.0,1524.0,-0.6786902749324039,0.07563331831066092,0.7039694189951451,-0.19515678054614005
-3925.1243414878845,6800.0,-2632.0,14096.0,1775.0,-3583.0,1581.0,-0.41515543390371695,0.006157431541793314,0.8196407013115146,-0.3947115053942476
-3925.140015602112,7032.0,-1980.0,14180.0,1234.0,-3632.0,1507.0,-0.09798186518291169,-0.05259982466495761,0.8542793042143583,-0.5077791674847691
-3925.155602455139,7160.0,-2472.0,14092.0,1029.0,-3624.0,1294.0,0.22129996604741264,-0.11859770649753734,0.7986530247905558,-0.5469133889692533
-3925.1712357997894,7448.0,-3476.0,13932.0,1122.0,-3480.0,1244.0,0.5068707375357712,-0.16712116063085336,0.6544698453769756,-0.5355574615217098
-3925.1868274211884,7840.0,-4368.0,14628.0,1271.0,-3108.0,1182.0,0.7240815924203682,-0.18018905484232353,0.4532712958730911,-0.4876298641085704
-3925.202440261841,7804.0,-4700.0,15368.0,1648.0,-2724.0,1100.0,0.8678654447552778,-0.14246112545824768,0.21879394497975532,-0.4226625216092491
-3925.218015432358,7852.0,-4448.0,16104.0,1912.0,-2305.0,1088.0,0.9400862251843554,-0.05969422179049118,-0.012609220162760263,-0.33543329690170026
-3925.23362493515,7572.0,-4048.0,15884.0,2041.0,-1965.0,1422.0,0.9542936515879941,0.04669428967130908,-0.21819636158119277,-0.19883062551748293
-3925.2491874694824,7444.0,-3852.0,15276.0,1954.0,-1806.0,1823.0,0.9083307353066075,0.13770929971802376,-0.3945891887782084,-0.016455885508984844
-3925.264782190323,7168.0,-4272.0,14804.0,1861.0,-2324.0,2235.0,0.7696334273204799,0.1947138401652816,-0.5784951345068456,0.18733469339908013
-3925.2803766727448,7408.0,-4304.0,14668.0,1785.0,-2061.0,2701.0,0.5605499494506673,0.20086986861030845,-0.6955695869096651,0.4020174123363933
-3925.2960073947906,7264.0,-4188.0,14916.0,1710.0,-1918.0,3215.0,0.2836362239789963,0.14737955815326437,-0.7394123984222679,0.5925361283035107
-3925.3115994930267,7252.0,-3620.0,15184.0,1471.0,-1771.0,3405.0,-0.02413392234343707,0.05236309591137617,-0.706767337613534,0.705092611265764
-3925.3272666931152,7324.0,-3228.0,15088.0,1314.0,-1896.0,3398.0,-0.33531218885533587,-0.04076496428722801,-0.5999344364396069,0.7252465964522661
-3925.342872619629,7592.0,-3084.0,15004.0,1314.0,-2166.0,3263.0,-0.6120463176113845,-0.10620360290731112,-0.41542664181161154,0.6644853686131676
-3925.35848903656,7764.0,-3500.0,14916.0,1484.0,-2168.0,2884.0,-0.7991221121940992,-0.15540728795847417,-0.17666659092044137,0.553210032722096
-3925.374092578888,8068.0,-4060.0,15044.0,1687.0,-1652.0,2605.0,-0.8867129906711324,-0.22297664438324175,0.05307099209531039,0.40150337238018935
-3925.3896777629852,8552.0,-3868.0,15500.0,1946.0,-1146.0,2494.0,-0.8932820750455699,-0.3085610527271227,0.248111751783669,0.21278573676130075
-3925.405338525772,8828.0,-3812.0,15676.0,2048.0,-459.0,2557.0,-0.8414083830264282,-0.3882391755881695,0.375476111481603,-0.01788757161061589
-3925.4209322929382,8580.0,-3656.0,15812.0,1836.0,29.0,2450.0,-0.7500903268384679,-0.427550514813122,0.4380982206116361,-0.25026987026670433
-3925.436552286148,8688.0,-3492.0,15324.0,1809.0,-85.0,2665.0,-0.5979910809768001,-0.42913229977149425,0.4847434138747261,-0.4725208556985634
-3925.45214176178,8816.0,-3276.0,14736.0,1808.0,-510.0,2810.0,-0.3767991507286655,-0.4081225712945977,0.5198158491662904,-0.6490376335510684
-3925.467780828476,8600.0,-2916.0,14440.0,1866.0,-70.0,2220.0,-0.17588826140360012,-0.3612413735703608,0.48021155569256774,-0.7797210086311268
-3925.483432531357,8212.0,-2896.0,13612.0,1964.0,-30.0,1921.0,0.017486882352148753,-0.30422349655033,0.3961783436190867,-0.866132203038041
-3925.499043703079,7588.0,-3324.0,13248.0,1924.0,-226.0,1833.0,0.2093154299608456,-0.2483068627860067,0.2910565745635864,-0.8998982292887285
-3925.514654159546,7672.0,-3600.0,12920.0,1977.0,-704.0,2087.0,0.42010111910514863,-0.20768880309082002,0.16254094403018504,-0.8683091916541483
-3925.5302550792694,7432.0,-4260.0,13680.0,2113.0,-868.0,2404.0,0.6270681551685492,-0.15565474853066766,0.013346514667315528,-0.763137601340415
-3925.5459055900574,7964.0,-4760.0,14864.0,2419.0,-163.0,3010.0,0.8154025492317921,-0.02930995410900904,-0.10982329625378898,-0.5676252750683107
-3925.561539411545,7432.0,-4188.0,16780.0,2167.0,850.0,3130.0,0.9316871659365481,0.12937992325161438,-0.14074547248358546,-0.30888601823957906
-3925.577175140381,6732.0,-1720.0,18220.0,1603.0,2062.0,2677.0,0.9612553113008323,0.26819696607812066,-0.04425183273681688,-0.04583000307510716
-3925.5927398204803,6632.0,1336.0,19612.0,1000.0,2875.0,1941.0,0.9125864682102383,0.33940453325555947,0.14057434811583017,0.17952535613931753
-3925.6083381175995,6800.0,3492.0,20324.0,-46.0,2674.0,257.0,0.8540443240846687,0.2890107618189417,0.3359271571854504,0.27245920266509244
-3925.6239635944366,7160.0,1596.0,18932.0,-383.0,1537.0,-928.0,0.8302149787059078,0.19415772902890724,0.45876222258992133,0.2501661218371538
-3925.6395757198334,6356.0,-1880.0,16436.0,346.0,715.0,-1362.0,0.817856667499403,0.14764434109696253,0.5360009172543647,0.14837330174696026
-3925.6551995277405,5848.0,-4072.0,15104.0,1465.0,751.0,-1025.0,0.7663238546661145,0.19177491036494615,0.6129522649672361,0.016113795199145887
-3925.6708142757416,5608.0,-4172.0,14336.0,2486.0,1160.0,-216.0,0.6447117550449327,0.335306706672887,0.6782830562654174,-0.10884971727252976
-3925.686408996582,4204.0,-2784.0,14516.0,2845.0,1587.0,1015.0,0.4573496294624059,0.546830084384377,0.6812330207785945,-0.16652251092163411
-3925.7020235061646,3372.0,-916.0,14756.0,2566.0,1543.0,1245.0,0.2513842558931158,0.7175374791169045,0.6216591263794743,-0.1883768896142272
-3925.717613220215,4280.0,-96.0,15324.0,2385.0,1281.0,1141.0,0.0496599200881433,0.8261223241750666,0.5221768997625211,-0.20588123564528038
-3925.733216524124,5040.0,-64.0,15848.0,2566.0,1190.0,1035.0,-0.1654173252215635,0.8760338841340081,0.3932130752333109,-0.2249115822522026
-3925.7488026618958,5168.0,-180.0,16240.0,2952.0,1346.0,655.0,-0.4078602776886442,0.8476256022896221,0.2552854428863124,-0.22362954830978166
-3925.7644052505493,4400.0,144.0,15964.0,3068.0,1433.0,163.0,-0.6363992973084,0.7382963614414597,0.12687178408019278,-0.18389662169812948
-3925.7800664901733,3760.0,264.0,14952.0,2893.0,1171.0,-144.0,-0.8086662447472626,0.5737245049885772,0.023795493296439298,-0.12780012316407094
-3925.7956709861755,3148.0,-48.0,14560.0,2458.0,574.0,-115.0,-0.912386325710614,0.39667905524388125,-0.03745353587481489,-0.09377714240464463
-3925.8113012313843,3220.0,-700.0,14424.0,2138.0,-58.0,186.0,-0.968284938121468,0.22125697628535462,-0.05571295777522333,-0.10181205914872443
-3925.826890230179,3804.0,-940.0,15444.0,1968.0,-307.0,468.0,-0.9880196384180582,0.04894357418923616,-0.055218069882879674,-0.13554587933331716
-3925.8424487113953,4620.0,-684.0,15904.0,2038.0,171.0,840.0,-0.9681306882305647,-0.12654691795782327,-0.09557741171751331,-0.19383964102053525
-3925.8580453395844,5088.0,504.0,16316.0,1963.0,660.0,928.0,-0.9076831332292029,-0.2833917774544316,-0.17069251828528995,-0.25819468298913706
-3925.87362909317,4924.0,1112.0,16364.0,1637.0,752.0,586.0,-0.831590433398451,-0.39931622372598824,-0.24907378452921572,-0.2949002448450782
-3925.8892159461975,4808.0,1172.0,15584.0,1532.0,536.0,136.0,-0.755546556416159,-0.49459777107291847,-0.3193112138074276,-0.2873374230312024
-3925.9048097133636,4096.0,876.0,15452.0,1195.0,389.0,-385.0,-0.698291845265715,-0.5492300807744057,-0.3889027966726291,-0.2439045549967243
-3925.9204890727997,4004.0,704.0,15424.0,1186.0,207.0,-554.0,-0.6420177364664608,-0.5942797815917172,-0.4502467958040073,-0.17866894000359335
-3925.9361550807953,4108.0,664.0,15380.0,1229.0,12.0,-825.0,-0.5858805700882966,-0.6253013361568297,-0.5085948107372397,-0.08410419183754929
-3925.95178937912,4592.0,516.0,15984.0,1358.0,320.0,-1239.0,-0.500139338013677,-0.6290796831735198,-0.5946811605372275,0.021764928018281678
-3925.9674253463745,5328.0,992.0,16400.0,1340.0,554.0,-1492.0,-0.3886723366212833,-0.6013343720199866,-0.6869901656508093,0.12399717767656464
-3925.9830334186554,5252.0,816.0,16172.0,1416.0,599.0,-1688.0,-0.25517839003000364,-0.5439275562371885,-0.7655236329760285,0.23021809264851054
-3925.9986703395844,4812.0,232.0,15536.0,1674.0,490.0,-1495.0,-0.11072234198373469,-0.48156406853484374,-0.7978875527788428,0.34527100081297646
-3926.0142719745636,4240.0,-804.0,15400.0,1837.0,317.0,-852.0,0.01404121780977872,-0.44248579290132184,-0.7691684610822838,0.4608568603798997
-3926.02987575531,3836.0,-304.0,15976.0,1732.0,231.0,-224.0,0.10425879945250605,-0.42953608274585786,-0.6996025919261687,0.5614134570227655
-3926.0455198287964,3992.0,412.0,15360.0,1487.0,188.0,-22.0,0.17114909160922026,-0.4202430880926746,-0.6205041608911713,0.6395923089503301
-3926.0611276626587,4232.0,716.0,15612.0,1204.0,236.0,78.0,0.22251084989815859,-0.41719388440461497,-0.5437109384466841,0.6934094028107881
-3926.076718568802,4272.0,972.0,15512.0,1319.0,-54.0,215.0,0.25329714355505845,-0.3957326195178835,-0.4539336728043939,0.7570868322792804
-3926.0922787189484,3628.0,676.0,15988.0,1627.0,-67.0,472.0,0.2727285062393437,-0.36988536980248976,-0.3279216742394636,0.8253916347131942
-3926.1079075336456,3480.0,280.0,16316.0,1743.0,-266.0,905.0,0.25248259013413366,-0.33005982324576755,-0.17673141702755882,0.8922326271738569
-3926.12349486351,3476.0,596.0,16688.0,2169.0,-693.0,1219.0,0.20425090573904015,-0.24081996962269792,0.011816238248755793,0.9487611323454145
-3926.1391186714172,4120.0,1404.0,16736.0,2709.0,-709.0,939.0,0.1783402292902001,-0.12836239810836195,0.23553508503898227,0.9467001009212307
-3926.1547169685364,4404.0,3316.0,16168.0,2953.0,-626.0,-309.0,0.2414728211710155,-0.03554906379827178,0.4506596093284533,0.85868099851965
-3926.1703140735626,5400.0,5044.0,15316.0,2862.0,-285.0,-2085.0,0.3990803179462476,-0.03414491157356053,0.6232729398854301,0.6716396855815838
-3926.18599319458,5072.0,5096.0,15008.0,2916.0,75.0,-3573.0,0.5688325702025789,-0.12178661634986819,0.7292199313728628,0.3603273773158728
-3926.2015771865845,3368.0,3200.0,15552.0,3112.0,340.0,-4122.0,0.6470300072755119,-0.21899553122176055,0.7291341211163545,-0.04191133991930637
-3926.217185020447,3128.0,2516.0,15244.0,2866.0,504.0,-4688.0,0.5880192284368481,-0.31860160824135897,0.5923007675855934,-0.44933974110028435
-3926.2327885627747,5516.0,2468.0,13208.0,2588.0,403.0,-4679.0,0.4126975074748477,-0.3729980338969189,0.3452757054458955,-0.7558689841909907
-3926.2484469413757,7124.0,2136.0,12748.0,1947.0,-15.0,-4691.0,0.15268435894701776,-0.40695452693369594,0.057915746004071705,-0.8987331449912714
-3926.26407623291,7444.0,704.0,14504.0,643.0,-770.0,-5484.0,-0.22551456816006066,-0.4372731524563749,-0.1777758665598526,-0.852250615111153
-3926.2796778678894,7616.0,-224.0,16656.0,-25.0,-523.0,-5483.0,-0.5790257580987423,-0.351914137176642,-0.337748467549943,-0.6533081846885597
-3926.2952964305878,6556.0,1244.0,18224.0,207.0,-229.0,-5173.0,-0.7967518606427905,-0.20305273711004576,-0.45256437552583767,-0.3451688637743539
-3926.3108830451965,5808.0,2492.0,17612.0,567.0,964.0,-5344.0,-0.8212522986272504,-0.002095917781918098,-0.5698419594081268,0.028642807579140412
-3926.326468706131,4524.0,1672.0,15852.0,790.0,1789.0,-4257.0,-0.6679108098484275,0.1374883510306571,-0.6449262106536194,0.3450540337837713
-3926.342082977295,3636.0,428.0,15260.0,1283.0,2574.0,-3679.0,-0.3960346884578104,0.1780398141845291,-0.6594110551428206,0.6137062900595815
-3926.357686519623,2608.0,-1132.0,15552.0,1799.0,2865.0,-2764.0,-0.10376037414118967,0.11348133798606709,-0.5783732427318045,0.8011492762144078
-3926.373329639435,1852.0,-912.0,15408.0,1857.0,2736.0,-1088.0,0.08808117425940418,-0.0380360700329467,-0.4423724855014367,0.8916846685845924
-3926.3889122009277,1932.0,796.0,14628.0,1043.0,2912.0,-87.0,0.20348858001231257,-0.24448961091826485,-0.3271616964788061,0.8898215845408098
-3926.4045424461365,2372.0,2344.0,13756.0,-419.0,2038.0,621.0,0.2009721263303861,-0.4203360566522912,-0.30467675534042477,0.8307225040117043
-3926.4201188087463,3288.0,2284.0,13040.0,-1986.0,492.0,523.0,0.1015875710717576,-0.496271256472144,-0.4138196765608417,0.7564047069488531
-3926.4357216358185,3696.0,1204.0,14204.0,-3055.0,342.0,-46.0,-0.014815016579668158,-0.5255997742382618,-0.5934506467295215,0.6093781440950645
-3926.451327562332,4596.0,256.0,16644.0,-3389.0,1183.0,-512.0,-0.07796205015447998,-0.5315929766874476,-0.7614982389499002,0.3625620746141134
-3926.4669206142426,4620.0,-740.0,17572.0,-2785.0,2429.0,-528.0,-0.027587780290717796,-0.5271273595842177,-0.8468481118127054,0.06499182006727877
-3926.4825310707092,5088.0,-480.0,17900.0,-1705.0,3297.0,-301.0,0.13258255210890862,-0.4940245122874791,-0.8352832421911913,-0.20165206036631148
-3926.4981667995453,4472.0,-336.0,16168.0,-1607.0,3412.0,-223.0,0.29267236902415383,-0.41433622611995613,-0.7379939245838266,-0.4450093745212826
-3926.513800382614,3676.0,-808.0,14996.0,-1752.0,2493.0,668.0,0.4012991859540455,-0.3910170337546781,-0.5615614359569011,-0.6088623787953535
-3926.5293958187103,4020.0,-1584.0,14904.0,-1715.0,1085.0,1578.0,0.46823987461529615,-0.45929654428579875,-0.36923869434605205,-0.6583774683454756
-3926.5450134277344,4496.0,-2228.0,16012.0,-2035.0,70.0,2042.0,0.4910231951692292,-0.585875509651508,-0.16237170187303812,-0.6239243058474642
-3926.560652732849,5412.0,-296.0,15772.0,-976.0,94.0,2261.0,0.5529963882582304,-0.6398495479954389,0.01022963998700987,-0.5335568432408315
-3926.576265335083,6072.0,436.0,15780.0,174.0,-21.0,2283.0,0.6561471943737852,-0.6180368869996875,0.12608563353282076,-0.41425074368041004
-3926.591896533966,4924.0,-156.0,15924.0,396.0,9.0,2057.0,0.7396078679742013,-0.562934734201942,0.2195481970108502,-0.29645113568500653
-3926.6074872016907,4028.0,-508.0,15932.0,448.0,-252.0,2554.0,0.8119050910832594,-0.4792330498669699,0.3092053633118763,-0.1246509137048626
-3926.6231014728546,3360.0,-1320.0,15504.0,457.0,-39.0,3289.0,0.8336504783835263,-0.3442198582684198,0.42158564780890306,0.0938355509715497
-3926.638734817505,4144.0,-2116.0,14860.0,45.0,-634.0,3819.0,0.7836257405862614,-0.18487569720658506,0.46460510219621276,0.3686377277033094
-3926.65433883667,7516.0,-1884.0,15552.0,-821.0,-2070.0,3438.0,0.7003465733866931,-0.03290517801070998,0.33135669796696143,0.6313752173771415
-3926.669977903366,10904.0,-1160.0,17752.0,-770.0,-4946.0,1640.0,0.6821378402782181,0.21814608522107382,-0.00812237979294455,0.6978784129845166
-3926.6855850219727,13392.0,156.0,19620.0,1483.0,-6091.0,-65.0,0.5732626712651643,0.5942646263149376,-0.24516121425160714,0.5080506300275329
-3926.7011823654175,12352.0,904.0,18832.0,2759.0,-4020.0,-1168.0,0.36279136776128396,0.8570337821687399,-0.24128496013682132,0.27505833510587213
-3926.716762781143,9616.0,276.0,15764.0,2324.0,-2683.0,-718.0,0.14275529515575083,0.9631737072399976,-0.20666469413414498,0.09595331982268321
-3926.7323598861694,6892.0,-1036.0,13992.0,1155.0,-2080.0,192.0,0.006396271474169348,0.970679736678901,-0.2340338951490722,-0.05448001866337237
-3926.7480459213257,5140.0,-3392.0,13448.0,178.0,-1713.0,1211.0,-0.037310251898733326,0.9224459634296367,-0.3328773828008302,-0.1920782071847094
-3926.763656139374,5380.0,-4048.0,14460.0,-680.0,-1458.0,1961.0,0.007756005624370077,0.8232916811913403,-0.4634101033040756,-0.32769151379551625
-3926.7792716026306,7580.0,-3448.0,16056.0,-783.0,-720.0,2403.0,0.10102354696277425,0.6871005258047483,-0.5986483591283961,-0.39913312630095915
-3926.794868707657,9004.0,-2460.0,16816.0,-849.0,391.0,2423.0,0.25048022272460835,0.5525664758706467,-0.6933502480237802,-0.38883850289430844
-3926.810452222824,9000.0,-1052.0,16524.0,-442.0,518.0,1730.0,0.3572667006492979,0.44984721464217015,-0.7407585418839521,-0.34824527378244174
-3926.8260402679443,8072.0,316.0,16428.0,49.0,330.0,402.0,0.38858586319254873,0.4349141411312086,-0.7469360188262113,-0.31927621356915187
-3926.841617822647,7396.0,1396.0,16472.0,79.0,131.0,-1006.0,0.36474763783830594,0.5048084342394523,-0.7036977801894091,-0.3419605818929814
-3926.8571994304657,7092.0,1928.0,15856.0,-474.0,584.0,-1960.0,0.35714356438386574,0.6172227441266411,-0.5749795300819416,-0.40110235419243806
-3926.8727836608887,6904.0,1156.0,14636.0,-979.0,1238.0,-2316.0,0.37982123373810484,0.7248578571223921,-0.3664945936225574,-0.44271732540644293
-3926.888367652893,6372.0,-872.0,14560.0,-1151.0,1460.0,-2014.0,0.4100276730540468,0.7853279002094072,-0.14215178630877504,-0.44150907819861535
-3926.9040100574493,5968.0,-2984.0,14936.0,-1040.0,960.0,-1883.0,0.4121020763557659,0.7918466756320882,0.06011983974248729,-0.44669489119869576
-3926.9196803569794,6008.0,-4464.0,15484.0,-820.0,140.0,-1592.0,0.40111517525531737,0.7502313656560171,0.20466994597147917,-0.4841174727086756
-3926.935298204422,6248.0,-4528.0,15212.0,-599.0,-327.0,-1056.0,0.39919866945277005,0.6923529648036483,0.2859650364649029,-0.5286887480875332
-3926.9509587287903,6868.0,-3164.0,15280.0,-608.0,-224.0,-449.0,0.4198608898365248,0.6480193716247079,0.33254815801219684,-0.5414789467629327
-3926.9666154384613,7340.0,-1288.0,16072.0,-704.0,587.0,17.0,0.4420868184149855,0.6483186088514618,0.3851121780094687,-0.48572712169429494
-3926.9822285175323,7192.0,96.0,16744.0,-815.0,1229.0,495.0,0.463690735892863,0.6793342595978796,0.4350540724103321,-0.36636569061925206
-3926.997829914093,7104.0,192.0,16532.0,-966.0,2002.0,-134.0,0.4326274822229828,0.6862939477737269,0.5447051594651533,-0.212439092745656
-3927.0134422779083,6764.0,-300.0,15624.0,-945.0,2449.0,-453.0,0.35497505170338745,0.6569416492515817,0.6641215233800668,-0.03691861766275136
-3927.0290474891663,5988.0,-948.0,15064.0,-998.0,2757.0,-418.0,0.24306696610896714,0.5912244225367412,0.7520034260942027,0.16081971062422673
-3927.0447380542755,5284.0,-1472.0,14808.0,-1029.0,2905.0,-204.0,0.10461240565525934,0.49744960679235384,0.7817919750331925,0.3611113970215449
-3927.0603375434875,5244.0,-1432.0,14948.0,-1616.0,2813.0,221.0,-0.023250571821591907,0.39354371814898603,0.7185174900589207,0.5729881057184949
-3927.075968980789,5476.0,-672.0,15856.0,-1588.0,2805.0,684.0,-0.17190254991314255,0.28768155059272515,0.5860495083455924,0.7377227206409019
-3927.091551065445,5876.0,-552.0,16864.0,-1672.0,2823.0,1271.0,-0.34052055980736295,0.18733222952311981,0.3861460073232834,0.8365665814259281
-3927.107157945633,5580.0,-520.0,16980.0,-1855.0,3269.0,1365.0,-0.4910277605751412,0.046970403635730164,0.12366109002954466,0.8610420746627677
-3927.1227934360504,4632.0,-988.0,15944.0,-1860.0,3155.0,1675.0,-0.6069445240164338,-0.08686512428147591,-0.14941449280293606,0.77572424500622
-3927.138421058655,3980.0,-1072.0,15192.0,-1845.0,2897.0,1815.0,-0.6687199861215384,-0.19767352553833595,-0.3919324151644956,0.6001064400639105
-3927.1540389060974,4260.0,-1216.0,15116.0,-1545.0,2469.0,2143.0,-0.6897271565013561,-0.2956527869458671,-0.5529762059674416,0.36205413240225487
-3927.169632434845,4308.0,-592.0,15456.0,-1125.0,2312.0,2273.0,-0.6505410822615438,-0.39338431700066684,-0.6408439116465573,0.10660281578568848
-3927.1852099895477,4192.0,-392.0,16108.0,-1141.0,2167.0,2120.0,-0.5661246735500935,-0.4496906766852614,-0.6751890721209632,-0.14629034892495246
-3927.200790643692,3960.0,-24.0,15940.0,-1001.0,1824.0,2036.0,-0.45744735783243584,-0.48160149633061045,-0.6518500628689752,-0.3659144832907735
-3927.2163693904877,3788.0,660.0,15928.0,-884.0,1509.0,1223.0,-0.36347923485812045,-0.45975413430454953,-0.6216933305713084,-0.5196213857608087
-3927.2320449352264,4076.0,712.0,16096.0,-854.0,1402.0,816.0,-0.28110943566985863,-0.4081184120076658,-0.5871375814897866,-0.6400674240734635
-3927.247678756714,3552.0,308.0,16032.0,-775.0,1461.0,272.0,-0.21635720665208888,-0.31798120449705897,-0.5638892428811896,-0.7308258578342611
-3927.2633061408997,3460.0,-252.0,15872.0,-606.0,1483.0,497.0,-0.12712558676661403,-0.2338576037138851,-0.533620908302163,-0.802744313338449
-3927.2789080142975,3652.0,-336.0,16196.0,-421.0,1445.0,131.0,-0.05871490729630254,-0.1328550093430346,-0.512881203639868,-0.8460821337828668
-3927.2944877147675,3768.0,-308.0,16112.0,-430.0,1391.0,159.0,0.010251693712170627,-0.03475672335235486,-0.4823014184340563,-0.8752555139696847
-3927.310094356537,3376.0,-184.0,16100.0,-478.0,1299.0,144.0,0.07397252118492752,0.05753854935960792,-0.440746713484617,-0.8927260027576469
-3927.3256855010986,3004.0,-316.0,15808.0,-445.0,1193.0,249.0,0.14063887255894164,0.13709718185911585,-0.39688198797931473,-0.8966101482078068
-3927.3413558006287,3012.0,-332.0,15896.0,-291.0,1011.0,236.0,0.19678260008067355,0.20345600598378097,-0.3627314599545574,-0.8878671915854606
-3927.356942176819,3196.0,-332.0,16144.0,-173.0,887.0,131.0,0.237382211280586,0.2640928585346141,-0.3351892696603448,-0.8726699269157384
-3927.3725368976593,3420.0,-208.0,16244.0,-179.0,841.0,51.0,0.2692882060255005,0.32187756085634917,-0.3043110100913732,-0.8551453134116463
-3927.3881165981293,3568.0,4.0,16512.0,-204.0,919.0,153.0,0.3098329287659378,0.3801235868370311,-0.27073876253393603,-0.8283780160313675
-3927.403722524643,2860.0,-20.0,16652.0,-196.0,1149.0,128.0,0.3509669140964112,0.45234209164686545,-0.22846010550170143,-0.7874102091847252
-3927.4193074703217,2580.0,-36.0,16236.0,4.0,1188.0,-33.0,0.37030595299853125,0.5317589662485634,-0.1899605502553031,-0.737577719521686
-3927.4348905086517,2588.0,252.0,15848.0,228.0,941.0,-184.0,0.3622075933721772,0.6004011162909665,-0.16504203967966785,-0.693603117062252
-3927.4505066871643,2884.0,28.0,15948.0,284.0,652.0,-298.0,0.3379726560902662,0.6515506882246485,-0.1456570217917967,-0.6633552716395805
-3927.466155767441,3156.0,48.0,15960.0,112.0,526.0,-368.0,0.3165292255317181,0.6887703534448265,-0.1154976379045374,-0.6419228499113051
-3927.481791496277,3124.0,-136.0,16128.0,-110.0,267.0,-538.0,0.29532225118015226,0.7050166116258046,-0.0695048307474709,-0.6410190510369577
-3927.497397661209,2872.0,-676.0,16356.0,-142.0,548.0,-610.0,0.2725811493619056,0.7336948157272988,-0.009860494825026678,-0.6223296594484574
-3927.512995481491,2716.0,-1284.0,15972.0,42.0,390.0,-574.0,0.2386433177780552,0.7549030139576235,0.033839644801721226,-0.6099390828904733
-3927.528639316559,2752.0,-1772.0,16248.0,336.0,1.0,-440.0,0.19287491871863677,0.7596923594731224,0.0449138092589005,-0.619394490147672
-3927.5442745685577,2956.0,-1908.0,16380.0,669.0,298.0,-189.0,0.13684474121923942,0.7845474311186069,0.026236723082440315,-0.6042106251033075
-3927.5599019527435,3244.0,-1708.0,16428.0,789.0,286.0,-6.0,0.081632034019054,0.8068181664849201,-0.01151748372733734,-0.5850196619092509
-3927.575477361679,3324.0,-1048.0,16240.0,874.0,313.0,72.0,0.023996616146420464,0.8261784101971196,-0.05879539835346959,-0.5598182723617889
-3927.591105699539,2820.0,-644.0,16076.0,955.0,207.0,93.0,-0.03912643076231731,0.8347088455330128,-0.11132615268371243,-0.5379003191423009
-3927.6066982746124,2684.0,-456.0,16000.0,947.0,110.0,43.0,-0.10468626088249938,0.8332888378055334,-0.15874494054378177,-0.5191055224353679
-3927.6222891807556,2976.0,-316.0,16188.0,1016.0,35.0,61.0,-0.17466947853304646,0.8214609562296001,-0.20870926080319613,-0.5011316345176468
-3927.637880086899,3408.0,-468.0,16376.0,937.0,-24.0,-19.0,-0.2423458981721079,0.8037399218671677,-0.2471309530694809,-0.48393893795713905
-3927.653520822525,3684.0,-644.0,16612.0,777.0,-101.0,-143.0,-0.30438432379684055,0.7841825487554837,-0.2671224611919764,-0.4701632741727436
-3927.6691710948944,3700.0,-632.0,16560.0,638.0,-77.0,-432.0,-0.36679398548902864,0.772332862679738,-0.26107131208192097,-0.4481137036978669
-3927.684781074524,3584.0,-672.0,16512.0,516.0,-40.0,-541.0,-0.42281180793740786,0.7648910975047364,-0.24295718337566477,-0.4208842965386849
-3927.7003819942474,3264.0,-636.0,16616.0,433.0,21.0,-709.0,-0.4761416049258445,0.7626554557700326,-0.2117171172569598,-0.3831731855222229
-3927.7160494327545,2884.0,-632.0,16388.0,359.0,24.0,-972.0,-0.5300195812249613,0.7633181416331457,-0.15933324436960336,-0.3332230115260555
-3927.7316343784332,2732.0,-392.0,16016.0,274.0,239.0,-1366.0,-0.5803674508422209,0.7706767158767311,-0.08665845621584546,-0.2484377861249067
-3927.747281551361,2908.0,-144.0,15484.0,135.0,-136.0,-1761.0,-0.6213715429412591,0.7650407271846413,0.03537562332343338,-0.16540452426119676
-3927.76287984848,3408.0,-28.0,15496.0,-49.0,-312.0,-2090.0,-0.6366590604273434,0.7440955968088464,0.1893981981328257,-0.07152136834190059
-3927.7784786224365,3636.0,-548.0,15844.0,-196.0,-369.0,-2200.0,-0.6199291683391666,0.7029212666875883,0.3474492590658146,0.029470857728302175
-3927.7940680980682,3684.0,-868.0,16292.0,-325.0,-305.0,-2284.0,-0.5732543840371477,0.6388931234480002,0.4931689936735263,0.14134826377458756
-3927.8096566200256,3624.0,-1072.0,16348.0,-435.0,-167.0,-2190.0,-0.5053202311550107,0.5578246680567528,0.6067762896078761,0.2555496782672965
-3927.8252601623535,3476.0,-1052.0,16328.0,-266.0,-101.0,-1946.0,-0.43730019608578113,0.4619328736151186,0.6899136387244709,0.3455513418856543
-3927.8408753871918,3228.0,-1268.0,15960.0,-595.0,11.0,-1541.0,-0.36380684848512074,0.3874689138358308,0.7261167106296645,0.43619598846225294
-3927.856500864029,3048.0,-1428.0,15836.0,-699.0,111.0,-1207.0,-0.2990910313780645,0.32648646272460663,0.7313013604350226,0.5187961688685306
-3927.8721051216125,2668.0,-1336.0,15364.0,-720.0,10.0,-822.0,-0.24095150862415501,0.29101745011321384,0.7185255160948882,0.5839283320253619
-3927.887746810913,3016.0,-916.0,15832.0,-681.0,-98.0,-568.0,-0.18803682072638248,0.2738628036121591,0.6981061766099411,0.6342626309564927
-3927.9033555984497,3072.0,-424.0,16208.0,-408.0,-141.0,-671.0,-0.13226497245637442,0.24685839149418992,0.6921040380016781,0.6652510144237191
-3927.919037103653,3312.0,-368.0,16784.0,-110.0,-148.0,-830.0,-0.07259311765288873,0.20599592352995674,0.7032807940271445,0.6765294106770402
-3927.9346556663513,3240.0,-620.0,16972.0,47.0,-40.0,-771.0,-0.025423036931494086,0.16035373720584611,0.7184435818945157,0.6763720631367595
-3927.950322151184,3248.0,-620.0,16568.0,230.0,-130.0,-1126.0,0.04573581809008879,0.09641026368911669,0.744199595300191,0.6593786911586219
-3927.966008424759,3076.0,-836.0,16612.0,263.0,-248.0,-1085.0,0.12147008320131025,0.04105102226145886,0.7636004777894064,0.6328302637976049
-3927.9816977977753,2688.0,-1520.0,15904.0,365.0,-277.0,-778.0,0.1810465328371004,0.008346347694218367,0.7811180523729714,0.5975006942965742
-3927.9974195957184,2480.0,-1048.0,16024.0,599.0,-644.0,-442.0,0.2466824602225036,0.02119535327514915,0.7994908043453078,0.5472777855763991
-3928.013044118881,2424.0,-676.0,16336.0,1016.0,-718.0,-5.0,0.2934530260495739,0.07658331197394976,0.8276502697356132,0.4722450093288607
-3928.0287234783173,2180.0,-368.0,16640.0,792.0,-485.0,551.0,0.29919432345981,0.15598514995506915,0.8404145009913422,0.4240929807558649
-3928.044334411621,2116.0,-132.0,16528.0,481.0,-187.0,875.0,0.2729365447912025,0.23872481431932302,0.8380883398703652,0.40758316957276314
-3928.059975862503,1716.0,220.0,15672.0,213.0,-169.0,874.0,0.24900611373078288,0.3127516766810421,0.8207684212778843,0.4080705119105012
-3928.0755698680878,1484.0,476.0,15064.0,-561.0,-182.0,615.0,0.25478148552232205,0.3501251894788946,0.7778443729823319,0.4554743436760518
-3928.0912017822266,1308.0,488.0,15012.0,-918.0,-265.0,322.0,0.28695198293311874,0.3606948773962193,0.7227602652971676,0.5149518072775796
-3928.1068031787872,1308.0,640.0,15456.0,-950.0,-423.0,-129.0,0.34793293205304865,0.34630003381309077,0.6706519586682614,0.5560979335588698
-3928.1224319934845,1596.0,700.0,16040.0,-837.0,-489.0,-484.0,0.42350809149324564,0.3148413044611782,0.6269147013127901,0.5731437923617664
-3928.138034105301,1720.0,572.0,16228.0,-580.0,-537.0,-813.0,0.5070820350112426,0.27439444452301054,0.5973639223400597,0.557433263153774
-3928.1536526679993,1544.0,108.0,16124.0,-433.0,-678.0,-739.0,0.5861676595280462,0.2485141884082311,0.5613176449592031,0.5287444321604386
-3928.1692678928375,1996.0,48.0,16216.0,-388.0,-802.0,-524.0,0.655468578759514,0.2389879426351813,0.511524964320319,0.5015854029086996
-3928.184886932373,2316.0,-36.0,16172.0,-469.0,-999.0,-143.0,0.7128308945166505,0.24828797886973616,0.4346116302194612,0.49126156602094956
-3928.2005121707916,2448.0,-344.0,16540.0,-625.0,-1406.0,51.0,0.7706623189829341,0.26913100112752275,0.31620045968785127,0.48338945336564315
-3928.216125011444,2572.0,-680.0,17144.0,-720.0,-1910.0,214.0,0.8182867800403639,0.30225797233740653,0.1497352804330679,0.4654312081965314
-3928.231775045395,2760.0,-1012.0,16856.0,-525.0,-2398.0,478.0,0.8246889424086974,0.35975296312051075,-0.05435734550257885,0.43302567220056365
-3928.2473907470703,2856.0,-1040.0,16568.0,-555.0,-2982.0,513.0,0.7809960633052045,0.41513436021787464,-0.2956537430018987,0.3609674172515243
-3928.2630157470703,2612.0,-1028.0,16308.0,-677.0,-3541.0,965.0,0.6502278670656249,0.4330979908589654,-0.5641123631649578,0.26722105629920423
-3928.278661251068,2268.0,-1992.0,16256.0,-907.0,-4139.0,1194.0,0.42281899122844224,0.39140363961770186,-0.8077142095492112,0.1250001889713421
-3928.2942702770233,2092.0,-1968.0,15980.0,-1011.0,-4868.0,1190.0,0.09242755756481445,0.29522370401425924,-0.9488779477047047,-0.06269570599659485
-3928.3098573684692,2168.0,-1852.0,16112.0,-264.0,-5725.0,973.0,-0.3296270619323766,0.16155328316427872,-0.9084352035980844,-0.19998004301524303
-3928.325447320938,2876.0,-1808.0,16472.0,366.0,-6856.0,1209.0,-0.7324319124791189,-0.05513460710638415,-0.6274956262442865,-0.2583658408646466
-3928.341080904007,3236.0,-1428.0,16396.0,663.0,-7697.0,1868.0,-0.9109588669936065,-0.3067917381736019,-0.11602450913435998,-0.2501421302265483
-3928.3567316532135,3116.0,-1288.0,16584.0,-216.0,-8360.0,2423.0,-0.7552085147954587,-0.3952627889968671,0.4923641628134181,-0.1760822478045347
-3928.3723225593567,3164.0,-1760.0,16312.0,-1689.0,-8893.0,2845.0,-0.29856177757069474,-0.22969015128390444,0.9262592683223453,0.012127127605394897
-3928.387943506241,3868.0,-776.0,16280.0,-2870.0,-8828.0,3970.0,0.26515961376916564,0.1316422694046443,0.9249557166244311,0.23836445711466073
-3928.403527021408,4720.0,-248.0,16144.0,-3525.0,-8421.0,4759.0,0.6594239480995076,0.45335052000647624,0.44772901531590376,0.39896377219863793
-3928.4191234111786,6008.0,548.0,16644.0,-3685.0,-7570.0,5326.0,0.6909221487119125,0.5379564427503413,-0.2469101457552535,0.41504798523283104
-3928.434729576111,7620.0,1024.0,17404.0,-3667.0,-6224.0,5252.0,0.42491978782975326,0.33828546984433155,-0.7900221424596843,0.2843784964204009
-3928.4503467082977,9052.0,1032.0,17876.0,-3969.0,-5020.0,4811.0,0.06278521659112732,-0.01321147646274814,-0.9973757028384804,0.03354371557723643
-3928.4660041332245,8868.0,-236.0,16992.0,-4104.0,-4288.0,3345.0,-0.2793608760704292,-0.27020877214401684,-0.8844445402680524,-0.2582684176735873
-3928.4816014766693,8356.0,-1272.0,16176.0,-4295.0,-3620.0,2006.0,-0.5454267071201908,-0.3565292259268538,-0.5782929349447675,-0.49089092435386383
-3928.4971945285797,8144.0,-2284.0,15972.0,-3714.0,-2249.0,785.0,-0.6914031514542386,-0.2945754223724581,-0.2683023588353868,-0.6026614695968231
-3928.5127897262573,7892.0,-3844.0,15776.0,-2668.0,-1059.0,-221.0,-0.7724057881769589,-0.17846146312922312,-0.06741066997611586,-0.6058024481147952
-3928.5283892154694,8088.0,-4712.0,15668.0,-1430.0,-484.0,-983.0,-0.8391651260903233,-0.10052614719335723,0.025491487915499413,-0.5338975266173511
-3928.544015645981,8792.0,-4080.0,15360.0,-850.0,679.0,-1611.0,-0.910173709339259,-0.01001694456492147,0.0015368508966085129,-0.41410278644138465
-3928.5596108436584,9056.0,-2444.0,15280.0,-1203.0,989.0,-2008.0,-0.9606007377808549,0.11809468210700659,-0.03414319417508876,-0.24926714770391292
-3928.5752050876617,8568.0,-1460.0,15028.0,-2043.0,1023.0,-2513.0,-0.9503496784828511,0.30583397437047993,-0.047234573502543856,-0.03271030104311116
-3928.590795278549,7964.0,-1316.0,15036.0,-2677.0,752.0,-3041.0,-0.8323683567467409,0.5103951542914534,-0.019364432131802313,0.2151388480278408
-3928.60640335083,7480.0,-2856.0,14620.0,-2838.0,1154.0,-3319.0,-0.597025308522777,0.6515628206172612,-0.007930900925832611,0.46793565004503157
-3928.6220247745514,7076.0,-4232.0,14032.0,-2672.0,1557.0,-3347.0,-0.2855821390018743,0.6777439710740222,-0.007263955318287822,0.6775346386045977
-3928.637608528137,7100.0,-5328.0,13636.0,-2088.0,1749.0,-2915.0,0.010752244465145434,0.5931275685543408,-0.0018136202859391683,0.8050346498388973
-3928.6532330513,7324.0,-5420.0,13672.0,-1545.0,1811.0,-2802.0,0.27409672366247495,0.4424738469846559,0.03457243134502556,0.8531662369098942
-3928.6688718795776,7560.0,-4700.0,13948.0,-1317.0,1894.0,-2338.0,0.47419238971094374,0.2525300931709476,0.06914631473081334,0.8405884348136395
-3928.6845128536224,7780.0,-4144.0,14268.0,-1286.0,1708.0,-2127.0,0.6268782313474519,0.059078606493617646,0.08903944789153073,0.7717547395621449
-3928.7001218795776,7876.0,-3476.0,14712.0,-1627.0,1683.0,-2092.0,0.7359730676647928,-0.1538049758678598,0.07908810915211263,0.6545477400931918
-3928.71577167511,7872.0,-2940.0,14696.0,-2030.0,1876.0,-2227.0,0.7862108938518724,-0.38836104346038874,0.051084306249331704,0.4779524285596031
-3928.731377840042,7576.0,-3104.0,14364.0,-2058.0,2288.0,-2355.0,0.7622052384572219,-0.6018848175495263,0.04002873016458319,0.23489474586110623
-3928.7626287937164,7512.0,-3896.0,14040.0,-2277.0,2103.0,-2763.0,0.6505899579046471,-0.7578003162238799,-0.011278505148460558,-0.048416760798645604
-3928.778223514557,7548.0,-4224.0,14268.0,-2225.0,1891.0,-2892.0,0.46418417527897654,-0.8219421342727482,-0.08078952373973536,-0.32002692415114486
-3928.7938005924225,7568.0,-4388.0,14420.0,-2120.0,1865.0,-3031.0,0.2262964882608473,-0.784567662248455,-0.1537321270392337,-0.5564260201237854
-3928.809395313263,7384.0,-4796.0,14536.0,-1795.0,2140.0,-3174.0,-0.02065666985977573,-0.631745132440152,-0.2266669982262708,-0.7410084085511922
-3928.8249394893646,7264.0,-5064.0,14548.0,-1340.0,2491.0,-3052.0,-0.2280413054757231,-0.383221521601054,-0.2938943241633865,-0.8454374930195887
-3928.8405306339264,7204.0,-5004.0,14368.0,-940.0,2912.0,-2808.0,-0.3684925156008179,-0.07288600946612328,-0.35369406427938,-0.8566220896426959
-3928.8561725616455,7124.0,-4716.0,14312.0,-744.0,3255.0,-2685.0,-0.44350953901932916,0.25970419303108244,-0.39303095315461,-0.7624825839213084
-3928.871794939041,7064.0,-4384.0,14496.0,-602.0,3189.0,-2430.0,-0.45463105307278084,0.5454075588593869,-0.39706378402665676,-0.5815337924277584
-3928.8874258995056,6880.0,-4388.0,14516.0,-588.0,3068.0,-2141.0,-0.4073834058015448,0.758292308847154,-0.3674113518138347,-0.35219374437817164
-3928.903037548065,6480.0,-4244.0,14284.0,-764.0,2883.0,-1859.0,-0.30743173283322445,0.892642598800893,-0.3091367118463388,-0.11449634859672303
-3928.9187276363373,6052.0,-4464.0,13664.0,-369.0,2606.0,-1672.0,-0.2172201562327924,0.9395173117983769,-0.23647505727250034,0.11917286539024004
-3928.9346721172333,5552.0,-4612.0,13480.0,-223.0,2336.0,-1462.0,-0.13176463801671937,0.9230957015094746,-0.15861854601176728,0.3246114028868464
-3928.950439453125,5784.0,-4464.0,13372.0,-128.0,1846.0,-1202.0,-0.0607509990182864,0.8728129363849443,-0.08505227888990873,0.4767315849123116
-3928.966073989868,6072.0,-4160.0,13948.0,74.0,1385.0,-1044.0,-0.01254752973176601,0.8131824700234729,-0.009668436118835359,0.5817932203860495
-3928.9816761016846,6196.0,-4044.0,14288.0,179.0,1139.0,-1022.0,0.02733494880700242,0.7491705803108931,0.07007094968116172,0.6580929297455931
-3928.997346639633,6176.0,-4024.0,14820.0,279.0,1002.0,-436.0,0.027841674619767665,0.6861885488252786,0.11639841725582671,0.7175106445731406
-3929.0129334926605,6136.0,-4128.0,14748.0,399.0,991.0,-218.0,0.007456484639306098,0.6199578234063279,0.15608624105504418,0.7689172799381082
-3929.028529405594,5692.0,-4216.0,14684.0,585.0,1006.0,-230.0,-0.02239509454007414,0.5466374232919814,0.2072559444386406,0.811006140970641
-3929.0441381931305,5488.0,-4224.0,14464.0,820.0,1145.0,-291.0,-0.0612084020071476,0.4550213424503413,0.27467472153887657,0.8448449010238278
-3929.059805870056,5324.0,-4048.0,14464.0,1093.0,1211.0,-272.0,-0.11249093055848196,0.349631620058683,0.35576244721935707,0.8593815229254825
-3929.075429201126,5260.0,-3856.0,14508.0,1326.0,1136.0,-11.0,-0.1853379318903587,0.24813591564306473,0.43915099173142347,0.8433414639586327
-3929.0910618305206,5248.0,-3916.0,14328.0,1431.0,1000.0,-198.0,-0.23739138774410534,0.14211883304724796,0.5262633005627407,0.8040488199102257
-3929.1066596508026,5420.0,-3728.0,14488.0,1543.0,802.0,-158.0,-0.2791437012459184,0.04610127789689001,0.6126649201351736,0.7379669110920655
-3929.1222534179688,5560.0,-3488.0,14704.0,1736.0,748.0,-288.0,-0.3034679222701809,-0.05892287036977336,0.6976559427109953,0.6463060429088053
-3929.1378514766693,5480.0,-3288.0,15164.0,1858.0,707.0,-428.0,-0.30808840856037034,-0.17136952023305566,0.7694411423432198,0.5326108790809585
-3929.153516292572,5392.0,-3292.0,15084.0,1986.0,645.0,-411.0,-0.29758085252596905,-0.2775875600500622,0.8241355887434852,0.393943287900428
-3929.169138431549,5148.0,-3156.0,15188.0,1987.0,467.0,-345.0,-0.2669137237813354,-0.3641591977256557,0.8580558415321178,0.24471476371808312
-3929.1847190856934,5320.0,-3104.0,15212.0,1901.0,343.0,-457.0,-0.21920849481992544,-0.44338634831243795,0.863272684535715,0.10058058492295675
-3929.200299501419,5216.0,-3048.0,15288.0,1771.0,286.0,-715.0,-0.16367845866587444,-0.5262327930619106,0.8339045970030705,-0.029858546049176576
-3929.2159180641174,5120.0,-2832.0,15232.0,1724.0,387.0,-1008.0,-0.11354530893626254,-0.6136267818007135,0.7655937629425912,-0.15631962646728598
-3929.2315135002136,5428.0,-2600.0,15244.0,1831.0,323.0,-1164.0,-0.052021618574813355,-0.692565881812877,0.6629976334600991,-0.27942868245031166
-3929.2471041679382,5556.0,-2972.0,15292.0,1924.0,130.0,-1222.0,0.026429463349774304,-0.7540075887020263,0.5311323140514519,-0.3855807368336088
-3929.2627742290497,5548.0,-3172.0,15184.0,1935.0,-97.0,-1534.0,0.10425727525817309,-0.8053686889835564,0.35658062017343584,-0.46191119999127206
-3929.278375864029,5440.0,-3264.0,15264.0,1853.0,-300.0,-1301.0,0.18773109959352394,-0.8248093796460234,0.18402220285184348,-0.5005820116133851
-3929.294013977051,5432.0,-3164.0,15588.0,1800.0,-275.0,-1185.0,0.26527269256737274,-0.8118220322074974,0.015252284003913817,-0.5199449532721797
-3929.309607028961,5540.0,-3388.0,15768.0,1683.0,-4.0,-860.0,0.34095317679747733,-0.76376426153108,-0.12054121937256317,-0.534682053627918
-3929.3252017498016,5612.0,-3340.0,15764.0,1627.0,-492.0,-741.0,0.4044660931122835,-0.7210281638941883,-0.2571582704333202,-0.5003950342895147
-3929.3407888412476,5356.0,-3216.0,15600.0,1749.0,-177.0,-640.0,0.47638588843154145,-0.6440182801459907,-0.37507632788097883,-0.46649189532553703
-3929.356433868408,4944.0,-2684.0,15096.0,1854.0,-206.0,-903.0,0.5286046647470485,-0.5369408178635754,-0.5016989201403387,-0.4249351245186411
-3929.372060775757,4776.0,-2708.0,14660.0,2098.0,-208.0,-1016.0,0.5685009632603947,-0.3951246632599539,-0.6237722981206685,-0.3627551176110015
-3929.387641429901,4544.0,-3136.0,14376.0,2225.0,-195.0,-706.0,0.5999667153020173,-0.2472885629498165,-0.7133985413458634,-0.2644821891347637
-3929.4032611846924,5012.0,-3172.0,14988.0,2176.0,-266.0,-223.0,0.6140841203853231,-0.12331007314935434,-0.7682043641731209,-0.13250424074668693
-3929.418843269348,5416.0,-3068.0,15732.0,2021.0,-420.0,115.0,0.5994366555486748,-0.027110361161514367,-0.7998492513007263,0.013487012122021007
-3929.4344487190247,6048.0,-2476.0,16340.0,2019.0,-512.0,379.0,0.5586724301602245,0.05179300653629322,-0.8095766366124881,0.17259278578205936
-3929.45006775856,6216.0,-2176.0,16516.0,1974.0,-517.0,411.0,0.49895395258546044,0.12475395837766891,-0.7938294040121693,0.32452469920505705
-3929.4656643867493,5996.0,-2236.0,16204.0,1834.0,-401.0,416.0,0.43343920438282046,0.18457287763569383,-0.7532477428976863,0.4590001598744907
-3929.4813628196716,5572.0,-1896.0,15752.0,1640.0,-426.0,432.0,0.3576365760223163,0.23257773333624646,-0.7023848945283472,0.5697886778320628
-3929.496964931488,5356.0,-1360.0,15556.0,1570.0,-473.0,533.0,0.2673135166210536,0.2693838072613128,-0.6425394842379488,0.6656717354765157
-3929.5125637054443,5276.0,-1128.0,15720.0,1579.0,-447.0,649.0,0.1655096680910626,0.29232527335092173,-0.5696371154730281,0.7501106858352726
-3929.5281567573547,5396.0,-1232.0,16024.0,1476.0,-154.0,682.0,0.07482584346211858,0.2868811553490987,-0.487545888214523,0.821218182178683
-3929.543787956238,5756.0,-1224.0,16204.0,1257.0,17.0,785.0,-0.012055281789440748,0.2582667707346497,-0.4133689306997413,0.8730859479154534
-3929.559414625168,5808.0,-1052.0,16024.0,876.0,-60.0,798.0,-0.09423865895715797,0.23184258347176093,-0.36239417168333893,0.8977965003145438
-3929.5750062465668,5728.0,-936.0,15656.0,643.0,-170.0,799.0,-0.17448735223869158,0.21369279155090928,-0.3252123449899682,0.9045034468779187
-3929.590629339218,5568.0,-904.0,15392.0,633.0,-359.0,542.0,-0.23849474644474677,0.21630836791708322,-0.2787606667230977,0.9047781145537273
-3929.6062116622925,5336.0,-944.0,15404.0,667.0,-603.0,336.0,-0.2912440836232277,0.24098449371294048,-0.21885248899997958,0.8995593063288813
-3929.621794462204,5316.0,-988.0,15540.0,1014.0,-531.0,93.0,-0.32834292193240167,0.25376911831379173,-0.1268001864012193,0.9009516485004895
-3929.6373813152313,5516.0,-888.0,15672.0,769.0,-498.0,-138.0,-0.33890090345684576,0.2713929451349257,-0.048591259193830595,0.8995170573686098
-3929.652987241745,5732.0,-828.0,15728.0,706.0,-11.0,-183.0,-0.3405946201464973,0.25141918927140533,0.011658053745602035,0.9058961230606064
-3929.6685750484467,5808.0,-704.0,15424.0,378.0,104.0,-180.0,-0.33451857235975263,0.23134006259485007,0.04247894458022616,0.9125648686270766
-3929.6841657161713,5860.0,-628.0,15404.0,93.0,12.0,-363.0,-0.30737427480901214,0.22590983668095788,0.05684052200955723,0.9226347901169226
-3929.6998369693756,5872.0,-748.0,15392.0,5.0,-105.0,-467.0,-0.2691460381727701,0.2314464903547291,0.0690875444428445,0.9323196036988807
-3929.715444087982,5812.0,-852.0,15560.0,-33.0,-226.0,-641.0,-0.2146270647512836,0.24608794403238377,0.08432608568304865,0.9414165168253305
-3929.731069803238,5792.0,-876.0,15648.0,-253.0,-3.0,-810.0,-0.14227701547299546,0.24424103699070182,0.08056482447619116,0.955830987034279
-3929.7466671466827,5828.0,-1004.0,15716.0,61.0,-173.0,-875.0,-0.06920860757461254,0.2508224556380768,0.10590261366158951,0.9597306397135148
-3929.7622826099396,6112.0,-1068.0,15668.0,123.0,-86.0,-882.0,0.0027070794348049054,0.24824389808041797,0.13536263221701775,0.9591895519583463
-3929.7779126167297,5900.0,-1176.0,15724.0,24.0,41.0,-758.0,0.0649633384556781,0.23524061567951746,0.15320085089676935,0.9575860883888824
-3929.7935190200806,5792.0,-1084.0,15704.0,-77.0,19.0,-598.0,0.11605812922537186,0.22482711121514093,0.15865417851309493,0.9543647794966537
-3929.8091156482697,5620.0,-1320.0,15472.0,-175.0,-97.0,-523.0,0.16415561122153152,0.2235576756632644,0.15289194953064236,0.9485246189347134
-3929.824719429016,5532.0,-1376.0,15448.0,-121.0,-179.0,-306.0,0.19409062395497848,0.23236353062672452,0.14591964709692715,0.9418298550792275
-3929.840301990509,5616.0,-1508.0,15112.0,242.0,-187.0,-214.0,0.20900341807525175,0.2489020631612197,0.16661573694373838,0.9309159631189297
-3929.8559579849243,5604.0,-1260.0,15412.0,37.0,-66.0,-22.0,0.21090482773000874,0.254524262131262,0.16862512772867808,0.9286022398881013
-3929.8715331554413,5704.0,-1204.0,15672.0,-18.0,166.0,26.0,0.206695027575756,0.2410011084061455,0.1693624746356185,0.9330123169110718
-3929.8871161937714,5836.0,-1136.0,16024.0,-134.0,408.0,41.0,0.19996334802288013,0.20573674290820798,0.1645595267010318,0.9437198812343285
-3929.90278506279,5856.0,-1116.0,15760.0,-318.0,599.0,-45.0,0.20038109446956384,0.1498978816586484,0.14907371725163324,0.9566373758526319
-3929.918430328369,5856.0,-964.0,15776.0,-396.0,603.0,-177.0,0.2120053418942638,0.09016982275049729,0.12829380339890503,0.9646055349638438
-3929.9341385364532,5664.0,-848.0,15868.0,-378.0,500.0,-422.0,0.24434063267561199,0.03640155112603574,0.10851179457761947,0.9629110928516946
-3929.9497530460358,5644.0,-916.0,15320.0,-287.0,365.0,-671.0,0.2974065781204081,-0.006534460817014228,0.09381129060816833,0.9501084516343227
-3929.965413570404,5472.0,-1020.0,15120.0,-179.0,208.0,-835.0,0.3637588141252963,-0.0349369181701647,0.08341145097458717,0.9270930194652763
-3929.981016397476,5420.0,-1152.0,15412.0,-94.0,164.0,-863.0,0.43082521704872867,-0.05707141911052254,0.07792362965668007,0.8972515775504413
-3929.9966638088226,5336.0,-1236.0,15364.0,-111.0,284.0,-939.0,0.5000288975125736,-0.08930646404281961,0.07473327882561122,0.8581435743326999
-3930.012263774872,5588.0,-1300.0,15368.0,-289.0,414.0,-979.0,0.565813169628677,-0.13843548186111554,0.06302193535427017,0.8103822000148034
-3930.0279104709625,5408.0,-1248.0,15528.0,-456.0,305.0,-1265.0,0.6434913478229151,-0.18788093348357712,0.03014130939017113,0.74142507482458
-3930.0434999465942,5444.0,-1300.0,15504.0,-471.0,194.0,-1062.0,0.7003430128967946,-0.22822046874550392,-0.006979511834682463,0.6763034587718535
-3930.05908870697,5400.0,-1352.0,15660.0,-329.0,197.0,-1112.0,0.7556433067715915,-0.25766221624877655,-0.03644509821489041,0.6010699876596488
-3930.074681520462,5660.0,-1448.0,15780.0,-270.0,187.0,-1085.0,0.8032410692127622,-0.280195559145572,-0.06248359917741698,0.5219099857244303
-3930.0902643203735,5576.0,-1608.0,15680.0,-267.0,133.0,-981.0,0.8388544207231394,-0.29816768179139325,-0.08905336550903621,0.44664168240313923
-3930.105843782425,5608.0,-1656.0,15596.0,-223.0,85.0,-912.0,0.8664236733951763,-0.309411814964892,-0.11494790650753779,0.37464826935416967
-3930.1214470863342,5332.0,-1684.0,15324.0,-297.0,-250.0,-960.0,0.8837720739763482,-0.31252875768980315,-0.16885861181618306,0.30456438743215597
-3930.137054681778,5360.0,-1704.0,15420.0,-310.0,-76.0,-813.0,0.8933114727989246,-0.3212483823788161,-0.20455729200415787,0.23864283704468486
-3930.152731895447,5472.0,-1732.0,15524.0,-259.0,-12.0,-714.0,0.8988332225548482,-0.32747794275940667,-0.23038564754270932,0.17826802417724855
-3930.168335199356,5528.0,-2028.0,15756.0,-203.0,148.0,-660.0,0.9046604539334273,-0.33156826423375935,-0.24030281197780423,0.11792585720501512
-3930.183956384659,5584.0,-1676.0,15628.0,-136.0,178.0,-580.0,0.9091896366208856,-0.33125394597656915,-0.244027301782291,0.06399768684092312
-3930.199556350708,5552.0,-1588.0,15532.0,-59.0,204.0,-556.0,0.913799173438883,-0.32456444463326345,-0.24386172666618838,0.012666892661608413
-3930.2151527404785,5572.0,-1452.0,15412.0,-34.0,177.0,-525.0,0.9162029094937851,-0.3156946398939746,-0.24431127869807473,-0.03494455720492491
-3930.2307970523834,5452.0,-1408.0,15448.0,-59.0,91.0,-567.0,0.9137214374624919,-0.307423004785204,-0.2520914913348702,-0.0839887542881493
-3930.246419429779,5248.0,-1416.0,15800.0,-137.0,234.0,-717.0,0.907998946539919,-0.2999628353990938,-0.2510161200314491,-0.15017029648399396
-3930.262036561966,5324.0,-1292.0,15752.0,-208.0,-110.0,-789.0,0.8876046761964298,-0.2996079953426605,-0.27685932421986725,-0.21387356665446458
-3930.2776169776917,5296.0,-1628.0,15820.0,-196.0,-131.0,-788.0,0.86248013838756,-0.29723385531541946,-0.3030545405297686,-0.27556848804897616
-3930.2931916713715,5248.0,-1760.0,15668.0,-131.0,-13.0,-736.0,0.8393469354090052,-0.2871565490146272,-0.31915228759827635,-0.33343613436205205
-3930.3087570667267,5220.0,-1548.0,15736.0,-93.0,46.0,-691.0,0.8167653221029362,-0.2727184192055101,-0.3296223423621153,-0.38712812330266944
-3930.3243429660797,5232.0,-1592.0,15656.0,-126.0,16.0,-566.0,0.7941811771402448,-0.26439958020818044,-0.33708863091650176,-0.4309760721533293
-3930.3399896621704,5172.0,-1348.0,15652.0,-107.0,-25.0,-462.0,0.7730298104994648,-0.2588132392390245,-0.3449794496011963,-0.4652201614575843
-3930.35560297966,5256.0,-1572.0,15388.0,-59.0,-110.0,-417.0,0.7510096246015353,-0.25440969004648384,-0.3589746671060194,-0.49233874694404844
-3930.371267557144,5184.0,-1648.0,15488.0,27.0,-169.0,-327.0,0.7319835178915453,-0.24943092958570826,-0.3780823676801792,-0.5089578215829647
-3930.3868684768677,5344.0,-1676.0,15728.0,183.0,-190.0,-244.0,0.7186082957384737,-0.237927894874971,-0.40326854087839487,-0.5141662358362529
-3930.402462244034,5148.0,-1552.0,15728.0,289.0,-163.0,-150.0,0.7118857984460629,-0.2216551062665854,-0.429165748278498,-0.50980818387048
-3930.418060541153,5356.0,-1296.0,15708.0,386.0,-95.0,-32.0,0.7140439073949714,-0.20052043758376165,-0.45239653226696613,-0.49524764513944153
-3930.4336643218994,5332.0,-1432.0,15572.0,486.0,-63.0,33.0,0.7209349578695307,-0.1740574128437823,-0.4761232104377166,-0.4725076634704129
-3930.449295759201,5616.0,-1660.0,15688.0,602.0,-115.0,192.0,0.7321839102089047,-0.14864509224859287,-0.5042876615983477,-0.43301883624303955
-3930.464921236038,5372.0,-1660.0,15696.0,621.0,-75.0,402.0,0.7506690537860584,-0.12920670752661667,-0.5260446341409608,-0.3782573744285468
-3930.4805517196655,5296.0,-1568.0,15632.0,541.0,-88.0,526.0,0.7685245735184488,-0.12054750949496638,-0.5423698849341866,-0.317290380833275
-3930.496140241623,5204.0,-1372.0,15544.0,543.0,-129.0,683.0,0.7848413144096771,-0.11966803558825255,-0.55705300713215,-0.24371216567739895
-3930.5117616653442,5064.0,-1384.0,15488.0,569.0,-162.0,751.0,0.7962345784663218,-0.12022097925557015,-0.5702607839063116,-0.1623577855846444
-3930.5273463726044,5216.0,-1228.0,15660.0,660.0,-193.0,844.0,0.8020211253365659,-0.11854364440419131,-0.5813897536739933,-0.06852352302774921
-3930.5429418087006,5308.0,-1148.0,15836.0,648.0,-188.0,1015.0,0.8008568051054276,-0.12508169019244406,-0.5844679711291388,0.03715022502108062
-3930.558573484421,5464.0,-1032.0,15808.0,570.0,-146.0,953.0,0.7928802397287721,-0.13271109399681985,-0.5795030076579986,0.13380939837375275
-3930.5741930007935,5508.0,-984.0,15804.0,526.0,-143.0,894.0,0.7781728634279974,-0.13922891380264632,-0.57036946389146,0.22302685678136444
-3930.5898263454437,5484.0,-988.0,15632.0,475.0,-171.0,954.0,0.7536401067802014,-0.15040529997066868,-0.5585181601669726,0.31218952569995
-3930.6054298877716,5480.0,-1016.0,15660.0,428.0,-141.0,872.0,0.726078094018652,-0.16025895128516102,-0.5425441784638363,0.39086248775525007
-3930.6210346221924,5448.0,-920.0,15756.0,504.0,-243.0,837.0,0.6905158498796024,-0.15896523862328416,-0.5268616349970975,0.4693982653809853
-3930.636703491211,5404.0,-624.0,16168.0,643.0,471.0,1023.0,0.6749768286137245,-0.18527333663804244,-0.4548735650996487,0.5506088551223102
-3930.6523151397705,5916.0,-436.0,16452.0,707.0,960.0,678.0,0.6871337111171374,-0.21499922503298605,-0.3507157782459897,0.5988497634389746
-3930.668006658554,6008.0,-368.0,16844.0,588.0,1455.0,270.0,0.7217527794800491,-0.2613383794792661,-0.2253566380376974,0.5999913019505538
-3930.683604955673,6008.0,-428.0,16436.0,338.0,1647.0,458.0,0.7295852114564855,-0.331244279022439,-0.09234643847035608,0.5911470055246332
-3930.699221134186,5920.0,-624.0,15648.0,252.0,1739.0,478.0,0.71733006833845,-0.40347194866298086,0.044609322192482065,0.5662666934167847
-3930.714810848236,5568.0,-744.0,15248.0,-295.0,1550.0,557.0,0.6664200089738018,-0.49098909727589546,0.14506654494309595,0.5420053279570524
-3930.730447769165,5328.0,-764.0,14840.0,-488.0,1263.0,497.0,0.6013608098619568,-0.5682142870749459,0.21496962751520576,0.5189275089760189
-3930.7460441589355,5136.0,-824.0,14716.0,-673.0,935.0,390.0,0.5298890356469325,-0.6349076807731783,0.2514293374296452,0.502884812930434
-3930.7616741657257,4968.0,-892.0,14784.0,-792.0,652.0,411.0,0.451631877773882,-0.6878711223244275,0.2683016646338803,0.5008754164512956
-3930.7773571014404,4944.0,-1048.0,15004.0,-835.0,412.0,484.0,0.36920934351118023,-0.7243727371968667,0.27590241290730316,0.5126855340478124
-3930.792958498001,5044.0,-1088.0,15148.0,-1004.0,61.0,520.0,0.27967802684210114,-0.7432608907052172,0.264494845844445,0.5471617002052679
-3930.808538198471,5024.0,-1576.0,15284.0,-1252.0,-223.0,1220.0,0.14367888078216406,-0.7264101617013526,0.275140652791252,0.613173937293329
-3930.824147462845,5080.0,-1820.0,15444.0,-1427.0,-483.0,1765.0,-0.029067445818414556,-0.6625455308922015,0.29852935124553437,0.6863444685675588
-3930.839770078659,5060.0,-1796.0,15748.0,-1637.0,-737.0,2350.0,-0.23755102274186146,-0.5353600484387497,0.32746453071190046,0.7414351699613325
-3930.855382204056,4960.0,-1732.0,15712.0,-1937.0,-1010.0,2814.0,-0.4596449551839242,-0.3335081758474063,0.3385008559531532,0.7502772703047097
-3930.870973587036,5144.0,-1472.0,16068.0,-2078.0,-1055.0,2541.0,-0.6276149928018724,-0.10129866824169231,0.305086855469508,0.7090557180098703
-3930.8866415023804,5520.0,-724.0,16620.0,-2204.0,-477.0,1451.0,-0.7051849262372364,0.08548089342402683,0.2019994434335995,0.6742428802143405
-3930.9022381305695,6096.0,116.0,16592.0,-2307.0,252.0,474.0,-0.7054204000737571,0.21652710740166767,0.045944240112534986,0.6733403283039929
-3930.917878627777,6248.0,264.0,16044.0,-2221.0,605.0,-426.0,-0.6278907924774897,0.30940553306576474,-0.11125397434334781,0.7054388152229005
-3930.933525323868,6340.0,-176.0,15324.0,-2220.0,529.0,-1417.0,-0.46302396550669817,0.401244256068192,-0.23214844255228104,0.7554594330334923
-3930.9491636753082,5736.0,-1512.0,14304.0,-2203.0,120.0,-2365.0,-0.21894755970635288,0.5102336681845002,-0.2880104090756703,0.7802394339007017
-3930.9648411273956,5604.0,-3024.0,13424.0,-1995.0,-268.0,-2760.0,0.04899719012085395,0.6093691932450446,-0.28340533473692303,0.7388842114477727
-3930.9804561138153,5540.0,-3964.0,13392.0,-1416.0,-1155.0,-2503.0,0.24825708763060966,0.7139569156590071,-0.23794765907494206,0.6099302030270354
-3930.9960930347443,5992.0,-4752.0,14392.0,-904.0,-1620.0,-1645.0,0.35043328776660054,0.796267622967795,-0.21372253793999807,0.444383910841509
-3931.0117433071136,6556.0,-5368.0,15424.0,-818.0,-2098.0,-570.0,0.38250866021592467,0.8459934979217298,-0.26464591420780365,0.26066197733288676
-3931.027322292328,7004.0,-5780.0,16176.0,-1140.0,-2449.0,595.0,0.3855431540696054,0.8261308637753131,-0.40468661023679364,0.07136539611722942
-3931.042921066284,6952.0,-5664.0,16052.0,-1419.0,-2401.0,1693.0,0.377545283501769,0.7054422353349215,-0.5928605918874297,-0.09125311007370998
-3931.0585012435913,6452.0,-4976.0,15516.0,-1537.0,-2321.0,2488.0,0.3536458344729046,0.4825249877154099,-0.7704374168981422,-0.22029627013075972
-3931.0741279125214,6116.0,-3992.0,14792.0,-1378.0,-2176.0,2744.0,0.30228734276658,0.2028918250121119,-0.8803870435784503,-0.3039340771377418
-3931.0897126197815,5076.0,-3168.0,14212.0,-1140.0,-2097.0,2507.0,0.21816208157183786,-0.07229264475541601,-0.9092479194817049,-0.34705518379171507
-3931.1053557395935,4660.0,-2396.0,13528.0,-884.0,-2303.0,1810.0,0.08182091441176335,-0.29232952445515187,-0.8838918855610521,-0.3557863428182363
-3931.1209588050842,4420.0,-2252.0,13072.0,-646.0,-2694.0,1166.0,-0.10279363075152656,-0.4551819810615253,-0.8253574952068692,-0.31784876702555703
-3931.1365694999695,4700.0,-2348.0,13224.0,-500.0,-3130.0,686.0,-0.31668166639452994,-0.564776884755819,-0.7275316115007591,-0.22679847195738503
-3931.152152299881,5008.0,-2716.0,13500.0,-414.0,-3459.0,497.0,-0.522839501360055,-0.6245712487953896,-0.5727729941989211,-0.09209076018873649
-3931.167798280716,5784.0,-3536.0,13428.0,-262.0,-3836.0,145.0,-0.6899256018867983,-0.6168127901547635,-0.36747192301439163,0.09224441207325103
-3931.1834354400635,6252.0,-4208.0,14164.0,-165.0,-3537.0,302.0,-0.7781822027977967,-0.5616066288783849,-0.133204060668027,0.24756237975543335
-3931.199058532715,6808.0,-4432.0,14528.0,-149.0,-3370.0,559.0,-0.8018684547024398,-0.46476036001341237,0.11494475936585459,0.3574807566955878
-3931.214673757553,7144.0,-4428.0,14744.0,-35.0,-3075.0,746.0,-0.7670740929364017,-0.34573123765412095,0.3463941708322571,0.41482324629820266
-3931.230271577835,7436.0,-4444.0,14284.0,241.0,-3426.0,1006.0,-0.6612343221447908,-0.19777960822936472,0.5868561512942722,0.42338192624914023
-3931.2458510398865,7404.0,-4280.0,13936.0,622.0,-3704.0,709.0,-0.46204834365168623,-0.0572541315812747,0.7928383697336265,0.39324370563778
-3931.2615039348602,7432.0,-3948.0,13576.0,726.0,-3939.0,474.0,-0.19071529196335546,0.07690619796679338,0.923403995415399,0.324095935451993
-3931.277100801468,7792.0,-3292.0,14048.0,604.0,-4079.0,173.0,0.12142422777580973,0.18460433919908445,0.947612669124463,0.2306677787917691
-3931.292709827423,8020.0,-2752.0,14304.0,561.0,-3917.0,-209.0,0.4163863125844233,0.23829315490445088,0.8701728560312835,0.11241891141791852
-3931.3082795143127,8072.0,-2852.0,14420.0,683.0,-3527.0,-571.0,0.6440321604344351,0.24242698743125016,0.7248641467728595,-0.031995324883751404
-3931.3238639831543,7864.0,-3476.0,14424.0,793.0,-3316.0,-443.0,0.8006063890890195,0.23914838510152497,0.5225063271659844,-0.16977808375843936
-3931.3394844532013,7844.0,-3768.0,14232.0,1161.0,-3174.0,-260.0,0.8796412588834713,0.2505695326654176,0.27691594445163065,-0.2945568275871356
-3931.355135679245,7884.0,-3756.0,13852.0,1011.0,-3130.0,-249.0,0.8906413490241678,0.23210577714038783,0.015260399286462696,-0.3907070716535405
-3931.370785713196,8220.0,-3836.0,13860.0,871.0,-2963.0,227.0,0.8540727357042632,0.19192270069083806,-0.24084694895213532,-0.4191875311440194
-3931.3863768577576,8788.0,-3808.0,14268.0,853.0,-2584.0,506.0,0.7815777507996835,0.14585109946589278,-0.45990767710805247,-0.3954094141223418
-3931.402009487152,8708.0,-4024.0,15272.0,774.0,-1808.0,784.0,0.7142380137105685,0.10286029168578943,-0.6095145909186211,-0.3282922229088014
-3931.41760969162,9112.0,-4192.0,15660.0,1279.0,-1044.0,1088.0,0.6686360055618844,0.09331372792118584,-0.7104106419878184,-0.19883450404332356
-3931.4332020282745,8768.0,-4092.0,16028.0,1516.0,-468.0,1271.0,0.6394606557600454,0.09333536655361532,-0.7623837178192416,-0.033906428436886536
-3931.4488015174866,8316.0,-4016.0,15448.0,1703.0,-262.0,1477.0,0.6009588142854938,0.08758194487429107,-0.7788551344142118,0.1567245547488651
-3931.4644169807434,8096.0,-4068.0,14712.0,1854.0,-363.0,1829.0,0.5235762073323242,0.06377124590407317,-0.7664883739868229,0.3664652177961472
-3931.480062484741,8212.0,-3956.0,14140.0,1935.0,-389.0,2351.0,0.3976449614676355,0.0070970399831054454,-0.7102894646851787,0.5807899732262285
-3931.495648622513,8068.0,-3660.0,14192.0,1888.0,-216.0,2796.0,0.23155756304505598,-0.08606881859676578,-0.598176326027768,0.7623374163990072
-3931.5112884044647,7844.0,-3672.0,14784.0,1741.0,148.0,3103.0,0.043897220890251186,-0.21261377070189186,-0.4353415324030836,0.8736968402546565
-3931.5268845558167,7448.0,-3748.0,14808.0,1625.0,415.0,3152.0,-0.14367126843212236,-0.3414388783382402,-0.23985222223145974,0.897356657342475
-3931.5424768924713,7804.0,-3680.0,14936.0,1687.0,490.0,2923.0,-0.29909496595729085,-0.44276527942904187,-0.025595840901103208,0.8448940534763487
-3931.5580847263336,8156.0,-3744.0,14868.0,1835.0,544.0,2622.0,-0.40444190033966876,-0.5161462595101186,0.18941047394253502,0.730851188959979
-3931.573707818985,8512.0,-3868.0,14600.0,2113.0,575.0,2427.0,-0.4554764445276746,-0.5646270025577523,0.3973890228032304,0.5619782211247777
-3931.589349269867,8612.0,-3844.0,14796.0,2450.0,620.0,2069.0,-0.44027380124229915,-0.5968110255577403,0.5720978971464299,0.3502564429000664
-3931.604950428009,8648.0,-4132.0,15240.0,2475.0,1097.0,1491.0,-0.3975756590844819,-0.6284889173104226,0.6596966577497073,0.10833095529615874
-3931.620549917221,8604.0,-3844.0,15232.0,2359.0,1740.0,1262.0,-0.36641010470726726,-0.6301036359572416,0.6655010169972406,-0.16069050842383917
-3931.6361434459686,8336.0,-3352.0,15160.0,2129.0,2149.0,589.0,-0.35338580315521617,-0.6120286948015748,0.5786936760116483,-0.40700488966589704
-3931.651795864105,8376.0,-3136.0,15744.0,2032.0,2295.0,305.0,-0.3379676217363379,-0.5578734471221802,0.43644094307136394,-0.6197373692661097
-3931.667432785034,8336.0,-3096.0,15536.0,1314.0,2190.0,104.0,-0.34337828186707825,-0.4627033274264727,0.29839958391340377,-0.760890711371082
-3931.6830248832703,8132.0,-3120.0,15832.0,814.0,2152.0,-68.0,-0.3638160696392542,-0.33898691237266976,0.17354079938492403,-0.8500643103090089
-3931.6986622810364,7324.0,-3484.0,16388.0,279.0,2329.0,-6.0,-0.38330987614905143,-0.17132186831179183,0.07709618564497431,-0.9043110827827732
-3931.7142522335052,7308.0,-3548.0,17324.0,-165.0,2689.0,-495.0,-0.43074034399011807,0.04197804441137083,-0.006729088574962166,-0.901473970347243
-3931.729845762253,7680.0,-3040.0,17756.0,-692.0,3054.0,-1072.0,-0.49073368467196443,0.29653295554482134,-0.06047615373776766,-0.8170625997028722
-3931.745437145233,8336.0,-2360.0,17552.0,-1355.0,2529.0,-1789.0,-0.5466790110024273,0.5219135076434425,-0.024685340571719453,-0.6543233019154864
-3931.7610807418823,8572.0,-2524.0,15852.0,-1700.0,2139.0,-2390.0,-0.5731528726936895,0.6961101657836871,0.07559555959148029,-0.42568971444660253
-3931.7767362594604,8292.0,-3724.0,13972.0,-1526.0,1903.0,-2506.0,-0.5606744773388045,0.7905268484130012,0.1811647279973546,-0.16700531048056716
-3931.792328119278,7592.0,-4940.0,13296.0,-683.0,1912.0,-2283.0,-0.5576757735129879,0.7880937772386454,0.2464921746960548,0.08454311165331324
-3931.8079719543457,6928.0,-6756.0,13088.0,198.0,2301.0,-1273.0,-0.5959297197605063,0.7152783796783,0.2178056658595166,0.292925418136499
-3931.8235759735107,6364.0,-6564.0,13740.0,1268.0,2947.0,227.0,-0.7095834810972145,0.5566278483552556,0.07963972480162673,0.42463423793057375
-3931.8391602039337,6172.0,-4036.0,13852.0,1935.0,3316.0,567.0,-0.8028905094760163,0.300821227685667,-0.07724509859861364,0.5088286681285967
-3931.854793071747,6340.0,-356.0,15036.0,2042.0,2730.0,126.0,-0.808616496795268,0.03399827917694332,-0.17341832899303558,0.5611680330282707
-3931.8704102039337,6440.0,1028.0,15420.0,1213.0,2585.0,-771.0,-0.7120516918729597,-0.16121203491996644,-0.28453585046097996,0.6213150712000041
-3931.8859984874725,5844.0,1296.0,15392.0,1223.0,2603.0,-1482.0,-0.5292222050352989,-0.3286211443544629,-0.3855646719756777,0.6806407899215469
-3931.9015843868256,4844.0,548.0,15680.0,1761.0,2883.0,-1781.0,-0.261774050507516,-0.4944697027578234,-0.44122664137849266,0.7016360242129343
-3931.9171929359436,3440.0,-472.0,16484.0,2613.0,3270.0,-1780.0,0.07988707836891794,-0.6374166068754152,-0.4021438329597333,0.6523790781451878
-3931.932884454727,2480.0,-964.0,17312.0,3095.0,3518.0,-1133.0,0.4056882017558032,-0.7155557485277665,-0.24366925768548386,0.5138310486570618
-3931.948526620865,2004.0,-804.0,16524.0,3465.0,3495.0,-808.0,0.6718556924214308,-0.6714576179868192,-0.01369160938390931,0.31235738448268635
-3931.9641654491425,1784.0,-496.0,15396.0,2861.0,2742.0,-482.0,0.808376130507987,-0.5455523558096138,0.1858980630425842,0.11976046448026886
-3931.979828119278,2192.0,-268.0,14504.0,2045.0,1320.0,-279.0,0.8677309516620259,-0.4101577424833096,0.28070999418381853,0.003939666741085467
-3931.9954648017883,2872.0,-220.0,14716.0,1032.0,32.0,-231.0,0.9002346855193811,-0.3360949824572152,0.2739171218948317,-0.039838223953349586
-3932.011124610901,4116.0,436.0,16252.0,1010.0,-585.0,-413.0,0.9370354401110113,-0.2669458309892723,0.21092283568198908,-0.07884202357422693
-3932.0267701148987,5008.0,784.0,17540.0,1563.0,-581.0,-956.0,0.9641451706816845,-0.1583417149109229,0.12837322197296902,-0.16991853062727597
-3932.042375802994,5108.0,508.0,18140.0,2264.0,-302.0,-1564.0,0.9483423233565864,0.010018990668834035,0.04617520614321521,-0.3137105479486485
-3932.05801653862,4916.0,112.0,17692.0,2567.0,-307.0,-1684.0,0.870241223668175,0.20005879992386785,-0.0466897730412541,-0.44774630573003665
-3932.0736503601074,4472.0,44.0,16196.0,2723.0,-8.0,-1541.0,0.7356185234168487,0.3980035316660844,-0.1224136215192494,-0.5342971851450099
-3932.089334487915,3896.0,-104.0,14768.0,2077.0,-433.0,-1402.0,0.5794669428291161,0.5134529330991083,-0.19366743802261982,-0.6025587698390549
-3932.1049387454987,3736.0,72.0,13696.0,1482.0,-419.0,-1336.0,0.42905251579153586,0.5797017576223258,-0.2293158211679712,-0.6536620419334438
-3932.120531797409,3508.0,436.0,14008.0,997.0,-60.0,-1356.0,0.2969181450578251,0.6338266532764014,-0.2174780022848965,-0.6802989837226182
-3932.1361191272736,3536.0,860.0,14468.0,407.0,79.0,-1457.0,0.18780208255215972,0.6707801148290682,-0.15760214415502544,-0.6999614128626753
-3932.151756286621,3764.0,1372.0,14640.0,-318.0,-139.0,-1783.0,0.09443104552534357,0.6730906127924415,-0.03560094318302162,-0.7326420527489297
-3932.1674275398254,4080.0,1652.0,14512.0,-880.0,-562.0,-1759.0,0.03142471348613552,0.6253598941321182,0.11752640492075056,-0.770795066369644
-3932.1830246448517,4532.0,1200.0,14684.0,-1124.0,-868.0,-1895.0,-0.02527406227418262,0.5330427875972966,0.2880992948495825,-0.7951260306855997
-3932.198668718338,4732.0,244.0,15856.0,-1454.0,-633.0,-1898.0,-0.07179819450972887,0.43444781967586216,0.4678991410412248,-0.7662705168913367
-3932.214277744293,4480.0,-848.0,16332.0,-1621.0,-231.0,-1638.0,-0.10829800526003654,0.3549691708878844,0.6271403824929894,-0.6848090028777455
-3932.2298822402954,4388.0,-1492.0,15728.0,-1914.0,121.0,-1635.0,-0.1498174763970308,0.2839320861444373,0.7725442275833393,-0.5478254381199859
-3932.245519399643,4916.0,-980.0,14512.0,-2304.0,-285.0,-1674.0,-0.14902081130643274,0.18191295946025374,0.9002355903897638,-0.36643738179063867
-3932.261161327362,4724.0,-52.0,14024.0,-2595.0,-811.0,-1489.0,-0.0885764383952099,0.07017392272000918,0.9821069008183272,-0.15065148687061214
-3932.2768013477325,4796.0,952.0,13632.0,-2827.0,-1195.0,-1875.0,0.006193836350189234,-0.08056060434475386,0.9922560268758774,0.09433770480233836
-3932.292393684387,4948.0,696.0,14316.0,-3226.0,-1410.0,-2001.0,0.11511047157692751,-0.23006275906241708,0.8964846160879099,0.36074373084454087
-3932.308046102524,5464.0,-932.0,15320.0,-3370.0,-1649.0,-2229.0,0.2305016019345778,-0.3611030450766665,0.6812418733736918,0.5936186589926694
-3932.323634147644,6520.0,-1800.0,16936.0,-3397.0,-1263.0,-2265.0,0.2959808005478617,-0.46719703748942293,0.3825832473058445,0.7401029338876239
-3932.339215517044,6484.0,-2812.0,18152.0,-3065.0,-750.0,-1814.0,0.29855005177222177,-0.5321893697929406,0.0868473057839317,0.7874642129927357
-3932.354815721512,6124.0,-2976.0,18424.0,-2553.0,150.0,-1163.0,0.2513651190667791,-0.5999234596658819,-0.13482277566612044,0.7474826008816164
-3932.370451927185,5648.0,-2708.0,17820.0,-1497.0,476.0,-554.0,0.21254783317111006,-0.6503444362700135,-0.24846627819585757,0.6856675881404947
-3932.3860490322113,5128.0,-2656.0,17040.0,-381.0,509.0,-258.0,0.21707008410585416,-0.6809628367866187,-0.2759735465065221,0.642657603339765
-3932.401636838913,4532.0,-2460.0,16112.0,141.0,-14.0,-98.0,0.23064274542369997,-0.6749770479121329,-0.2741145909587501,0.6450357352881759
-3932.4172377586365,4156.0,-1308.0,15128.0,309.0,-265.0,-252.0,0.2565261804817518,-0.6471459210023139,-0.27664338004769656,0.6624688037434641
-3932.4328825473785,4036.0,28.0,14272.0,93.0,-257.0,-6.0,0.25589864958962666,-0.6297796967168687,-0.2772590135387713,0.6789851648989995
-3932.4485273361206,4156.0,660.0,14024.0,-356.0,-706.0,100.0,0.21284729133463237,-0.5967642619834163,-0.30786265221994735,0.7097809757657627
-3932.464140892029,4404.0,616.0,14360.0,-666.0,-468.0,74.0,0.16062768845787606,-0.5805521683442806,-0.35303859504361457,0.7159061921376739
-3932.479780435562,4764.0,-516.0,15232.0,-703.0,-44.0,181.0,0.11215283846166493,-0.591946903240784,-0.3876044403013357,0.6976986472878715
-3932.495411157608,4808.0,-1608.0,15988.0,-548.0,186.0,259.0,0.07428370388687958,-0.616369639268743,-0.40512814390397384,0.6711494514200893
-3932.511016845703,4984.0,-2528.0,16408.0,-212.0,138.0,442.0,0.0418604288985003,-0.6407447561777262,-0.3924619287737763,0.6585343547502643
-3932.526655435562,5116.0,-3288.0,16904.0,161.0,-175.0,567.0,0.012294881751879705,-0.6485057878166369,-0.35160791960448146,0.6750266290469131
-3932.5422241687775,5260.0,-3528.0,17196.0,225.0,-34.0,493.0,-0.0050236580428663444,-0.660564411266406,-0.3101143138648871,0.683709392771699
-3932.5578331947327,5196.0,-2128.0,16644.0,-191.0,-413.0,157.0,-0.03653338227949754,-0.6394301021177926,-0.3119867578715755,0.7017540305531791
-3932.573497772217,5268.0,-664.0,15816.0,-674.0,-678.0,-508.0,-0.06121649604360755,-0.5792416376574008,-0.3777573448154751,0.7197437420735783
-3932.5891032218933,5296.0,420.0,14856.0,-1051.0,-743.0,-881.0,-0.08273891786213125,-0.49325193266400263,-0.47989577562246893,0.7208029182335062
-3932.60471868515,5312.0,324.0,14632.0,-1247.0,-718.0,-1519.0,-0.06977034733937387,-0.3692425208441103,-0.6084555422902457,0.6989806238295256
-3932.6203184127808,5344.0,-664.0,14656.0,-1244.0,-702.0,-2194.0,-0.01293033460821558,-0.19714539391270822,-0.7318679425837882,0.6521777477989384
-3932.635959148407,5504.0,-1752.0,15344.0,-1205.0,-528.0,-2687.0,0.08282850095006948,0.005794911962229369,-0.8185882739909016,0.5683476894562965
-3932.6515650749207,5692.0,-2652.0,15556.0,-988.0,-240.0,-2968.0,0.20589431127389485,0.2147574760547831,-0.8369518405801372,0.4593455949643452
-3932.6671640872955,5960.0,-3200.0,15616.0,-798.0,-26.0,-2837.0,0.322274985648181,0.3958347025869491,-0.7904340488294938,0.3386262486937177
-3932.6828050613403,6260.0,-3372.0,15724.0,-664.0,111.0,-2481.0,0.41593779932806774,0.5318102472359243,-0.703666418220617,0.2214208208221542
-3932.698436975479,6344.0,-3228.0,15628.0,-341.0,277.0,-2016.0,0.48009793861193184,0.6277668378953366,-0.5969720105111567,0.13798255413541077
-3932.714040517807,6284.0,-3124.0,16116.0,-71.0,322.0,-1427.0,0.5138525806919508,0.6896127896067086,-0.5020250109111979,0.09143639399433477
-3932.729641199112,6084.0,-2804.0,15856.0,162.0,268.0,-963.0,0.521578938412766,0.7340251472873365,-0.4290530512437094,0.07124586565183302
-3932.745231151581,5684.0,-2320.0,15512.0,194.0,181.0,-588.0,0.518843820004613,0.7624916258681902,-0.38131719827750743,0.06328353041429434
-3932.7608127593994,5508.0,-2140.0,15112.0,219.0,-80.0,-348.0,0.5032710102624526,0.7838590319554516,-0.36032375390181454,0.049498491142427825
-3932.7764241695404,5344.0,-2260.0,14780.0,67.0,-288.0,-47.0,0.489740729584871,0.7892064083393232,-0.3693443525422108,0.029866571061955373
-3932.7920467853546,5400.0,-2392.0,14888.0,80.0,-432.0,253.0,0.46925740506667507,0.7847816415646216,-0.4046384788218653,0.013526430052113616
-3932.8076310157776,5516.0,-2504.0,15300.0,144.0,-425.0,394.0,0.44338669176197265,0.7761694661665575,-0.4482600795589736,0.005665900888423284
-3932.823259830475,5704.0,-2600.0,15764.0,145.0,-325.0,760.0,0.4194156374769867,0.7501545355971434,-0.510889665611071,0.018720185218502834
-3932.8388438224792,5852.0,-2572.0,15768.0,209.0,-170.0,593.0,0.39660756835836003,0.7304225757689192,-0.5547032828988006,0.03859488915982816
-3932.854464530945,6080.0,-2388.0,15732.0,265.0,14.0,475.0,0.3784298406396334,0.7157088469730214,-0.5829478999394999,0.06872734560665557
-3932.870119571686,6396.0,-2208.0,15604.0,367.0,96.0,339.0,0.3580666551603461,0.7092737137021584,-0.5981555653566574,0.10454180573477871
-3932.885712623596,6252.0,-2180.0,15404.0,364.0,162.0,132.0,0.34261831074099897,0.7117714412847986,-0.5975310393615968,0.13766177942985697
-3932.9013776779175,6316.0,-2008.0,15500.0,457.0,141.0,85.0,0.32033146493132225,0.7186348905619736,-0.5925588423713278,0.17270108560598355
-3932.917011499405,6264.0,-1944.0,15472.0,337.0,243.0,82.0,0.31037083096821927,0.7196308125505619,-0.5854137497991426,0.2075865661790809
-3932.9327244758606,6244.0,-1956.0,15256.0,156.0,14.0,85.0,0.29976712974734976,0.7191414802681396,-0.5874616086607851,0.21877855843401825
-3932.948341846466,6000.0,-1940.0,15356.0,129.0,337.0,81.0,0.30729838130276804,0.7115241735032226,-0.5809452014850934,0.24860355637178416
-3932.963986635208,6116.0,-2120.0,15572.0,93.0,343.0,-59.0,0.32009313312250487,0.7091808138031221,-0.5657628406885832,0.27297503101445836
-3932.9796290397644,6140.0,-2136.0,15616.0,73.0,412.0,-211.0,0.3407196902964311,0.7111886225401007,-0.538977040413699,0.2960145025513247
-3932.995285511017,6120.0,-2132.0,15484.0,122.0,492.0,-218.0,0.36156402556112327,0.711488995462804,-0.5070466647782107,0.32551274090680127
-3933.0108675956726,5732.0,-2256.0,15156.0,91.0,487.0,-279.0,0.3849774189576358,0.7119421048777445,-0.47115843952746156,0.35062879382191475
-3933.026472568512,5428.0,-2456.0,15192.0,127.0,401.0,-297.0,0.4023173694785798,0.7153692083984775,-0.43487564082742497,0.3705007515594373
-3933.0420632362366,5492.0,-2332.0,15024.0,169.0,500.0,-507.0,0.4263294450524872,0.7228388025093269,-0.37939389363343523,0.3896248751578656
-3933.0576646327972,5624.0,-2296.0,15248.0,191.0,138.0,-217.0,0.42612021000832934,0.7320800842992063,-0.35391366398514135,0.39651662668737697
-3933.07337641716,5636.0,-2276.0,15200.0,175.0,-36.0,-176.0,0.41987374763280977,0.7450202942675246,-0.3378529561555162,0.3930727377919887
-3933.088978290558,6012.0,-2184.0,15200.0,159.0,-80.0,-152.0,0.4123604525159576,0.7578443602240772,-0.3253647141436206,0.3869994646864951
-3933.1045730113983,5996.0,-2188.0,15508.0,130.0,-45.0,-102.0,0.40593859631296497,0.7667843851976037,-0.315800099588984,0.38409095243207764
-3933.1201589107513,5960.0,-2248.0,15396.0,163.0,243.0,-75.0,0.4041543734684916,0.7661425721885344,-0.2965921622845464,0.4021416302224935
-3933.135780096054,5908.0,-2396.0,15564.0,160.0,68.0,248.0,0.38642482248357474,0.7626391614270434,-0.3050488185285797,0.41952661934698665
-3933.151373386383,5716.0,-2260.0,15424.0,127.0,80.0,-230.0,0.38846181141461683,0.769823823702028,-0.2822970402614065,0.4204486682020927
-3933.1669702529907,5772.0,-2212.0,15584.0,168.0,51.0,77.0,0.37559993820274307,0.7715695438643023,-0.27952993888610317,0.4306601196645211
-3933.1826632022858,5880.0,-2184.0,15444.0,171.0,-29.0,119.0,0.3588888546503108,0.7751584520210861,-0.2820127929599862,0.4368031008074114
-3933.198273420334,5860.0,-2032.0,15484.0,156.0,-60.0,47.0,0.34507108700079303,0.7810150986057653,-0.2810841907639496,0.43810163018241943
-3933.213881254196,5732.0,-1940.0,15488.0,102.0,-58.0,-9.0,0.33706592042746153,0.7864154752989838,-0.27829374573714455,0.4364514366802465
-3933.229528903961,5664.0,-1876.0,15848.0,88.0,-29.0,-26.0,0.33134425978551163,0.7906455078888013,-0.27399115364474036,0.43591227338407806
-3933.245159626007,5656.0,-1836.0,15484.0,-9.0,65.0,-108.0,0.3376529472546429,0.7903787728521057,-0.26497525439757214,0.43712698062690525
-3933.260760784149,5560.0,-1876.0,15516.0,-40.0,146.0,-180.0,0.3506280901437499,0.7875566295113146,-0.24971915847091766,0.4409703386935466
-3933.276394367218,5616.0,-1844.0,15256.0,64.0,123.0,-319.0,0.3610674414683137,0.7912979265779464,-0.22145254437317372,0.4409497303498624
-3933.2919936180115,5588.0,-2192.0,15336.0,131.0,48.0,-334.0,0.36566393463295843,0.799564558770965,-0.19172993091954418,0.4361490993407212
-3933.3075749874115,5692.0,-2076.0,15264.0,203.0,73.0,-293.0,0.3637326447041972,0.8076895310263317,-0.16114221514296118,0.4351659122056482
-3933.3231711387634,5756.0,-1976.0,15416.0,224.0,104.0,-262.0,0.359220418123586,0.8140633632476033,-0.13079967930079284,0.4372104478576955
-3933.338786125183,5840.0,-1840.0,15588.0,200.0,165.0,-300.0,0.3581689269787474,0.8169026922832704,-0.0966244470634628,0.44164321269200696
-3933.3543739318848,6140.0,-2020.0,15724.0,194.0,166.0,-207.0,0.3536088095305881,0.8179066109296264,-0.06917864097058257,0.4485575785263652
-3933.3700144290924,5776.0,-2048.0,15624.0,166.0,292.0,-211.0,0.3516083787146926,0.8123128335692994,-0.038592634460630076,0.46371329181039167
-3933.385619878769,5724.0,-1964.0,15592.0,227.0,366.0,-138.0,0.34210010541332797,0.804229218931407,-0.008396699111627411,0.48591396022052896
-3933.4012281894684,5684.0,-2052.0,15576.0,284.0,430.0,-78.0,0.3254812083132292,0.7936305609685653,0.021921631256836095,0.5135483987071909
-3933.416868209839,5676.0,-2156.0,15448.0,334.0,419.0,-86.0,0.3050807296824388,0.7832147561246778,0.05466904539591498,0.5389913632336714
-3933.4324989318848,5808.0,-1796.0,15612.0,378.0,468.0,-119.0,0.28222304857448643,0.7695100360628851,0.09289024649474041,0.5653104079689021
-3933.4480998516083,5772.0,-1832.0,15484.0,388.0,262.0,-116.0,0.25954927678327244,0.7644394921954591,0.1261363149582069,0.5765033093937909
-3933.4637348651886,5700.0,-1592.0,15488.0,402.0,541.0,-116.0,0.23220698760021397,0.7436372034427355,0.1660304936885783,0.6045804328052874
-3933.4793612957,5616.0,-1644.0,15248.0,325.0,403.0,-59.0,0.2081771474737042,0.7272648117360868,0.19493391585860015,0.6242987564685822
-3933.4949576854706,5628.0,-1776.0,15328.0,274.0,285.0,-20.0,0.18691512661373372,0.7158603110717617,0.21613452455941526,0.6370970238265816
-3933.5106325149536,5844.0,-1912.0,15292.0,318.0,228.0,39.0,0.1604771007778098,0.7086036185081446,0.23490820202072296,0.6457136738419776
-3933.5262134075165,5636.0,-2220.0,15180.0,308.0,157.0,72.0,0.13407721708496026,0.7051288187550091,0.24983703912347133,0.6499216127364403
-3933.541820526123,5692.0,-1884.0,15512.0,224.0,90.0,124.0,0.11125201967526292,0.7050694324584877,0.25583609910953425,0.6519570338015056
-3933.557410955429,5792.0,-1764.0,15652.0,119.0,3.0,152.0,0.09518588494641471,0.7092667546094075,0.25318890674064265,0.6509805646993501
-3933.5730006694794,5780.0,-1684.0,15592.0,114.0,81.0,94.0,0.08097460417936884,0.7075299441522983,0.25443670396937446,0.6542984451143385
-3933.5885915756226,5712.0,-1688.0,15632.0,157.0,67.0,84.0,0.0649690492105635,0.7064987288753548,0.25859801586297504,0.6555651263863231
-3933.6041815280914,5468.0,-1804.0,15172.0,180.0,64.0,6.0,0.05205564262405295,0.7038130656210122,0.2687980773702624,0.6555036020756866
-3933.6198694705963,5500.0,-1760.0,15284.0,202.0,32.0,-60.0,0.04230156692627896,0.7012904427168715,0.28408264364556196,0.652456392388721
-3933.63547706604,5512.0,-1792.0,15360.0,196.0,-11.0,-102.0,0.03635780840179055,0.6999032755774329,0.30133583192348856,0.6465371072128635
-3933.6511108875275,5384.0,-1548.0,15612.0,146.0,0.0,-139.0,0.035257710958732445,0.6965270643109939,0.31796270146838,0.6422668160314596
-3933.666708469391,5828.0,-1808.0,15732.0,81.0,40.0,-126.0,0.03626069237014686,0.6909007858230997,0.33019819641579096,0.6421140221344023
-3933.682323217392,5784.0,-1828.0,15680.0,52.0,61.0,-183.0,0.04159429450477926,0.6821967369909785,0.34422922673288736,0.6437264684370139
-3933.697986841202,5732.0,-1768.0,15644.0,51.0,128.0,-219.0,0.04698251989514412,0.6683681102190652,0.3604460530939522,0.6489648333118595
-3933.7135860919952,5668.0,-1816.0,15516.0,78.0,104.0,-289.0,0.05548698329623693,0.6533852478914862,0.3819396267099112,0.6512534330590188
-3933.7291696071625,5612.0,-1896.0,15504.0,56.0,43.0,-324.0,0.06922667262823924,0.6400769399322079,0.4035720359000864,0.6501067532361918
-3933.744760990143,5584.0,-1844.0,15508.0,41.0,70.0,-329.0,0.08308268095825147,0.6244273365416381,0.4244463395013737,0.6504099279594291
-3933.7603607177734,5432.0,-1928.0,15420.0,33.0,55.0,-314.0,0.09701574870406485,0.6096135256906258,0.44358602798263924,0.6497620561228701
-3933.7760264873505,5516.0,-1972.0,15512.0,40.0,49.0,-233.0,0.10616282943290432,0.597963464138742,0.45848978486422814,0.648811425899043
-3933.791619539261,5584.0,-1988.0,15572.0,57.0,-247.0,-236.0,0.12636364443245574,0.6027098599123372,0.47145478607839386,0.6312712878105375
-3933.8072245121,5460.0,-2016.0,15484.0,64.0,-24.0,-244.0,0.1373817456183533,0.594503782998961,0.48736027055011727,0.6246370743560574
-3933.8228120803833,5552.0,-2032.0,15400.0,75.0,-79.0,-236.0,0.14966655131888806,0.5894752484484481,0.5025457947293585,0.6144644652726378
-3933.838441133499,5536.0,-1976.0,15524.0,85.0,-162.0,-298.0,0.16829435445769456,0.5858891112258133,0.5200079443344722,0.5983332661934575
-3933.854045152664,5652.0,-1908.0,15860.0,110.0,-172.0,-252.0,0.18355720305476184,0.5847785693219254,0.5358299046969348,0.5807125720190575
-3933.869657754898,5576.0,-1912.0,15568.0,138.0,-128.0,-207.0,0.19293058504815092,0.5835888635843672,0.5511095221436837,0.5643404311723957
-3933.8852438926697,5540.0,-1892.0,15648.0,141.0,-139.0,-115.0,0.19805750492856414,0.587130924842587,0.561396626063996,0.5485292426834892
-3933.9008646011353,5528.0,-1940.0,15524.0,107.0,-166.0,-99.0,0.20540878623569409,0.5919397794833914,0.5685570033603732,0.5330642193321604
-3933.916514158249,5564.0,-1960.0,15576.0,86.0,-127.0,-57.0,0.20989851558650618,0.5964753374707056,0.5731096225377752,0.5212534369175882
-3933.9321830272675,5540.0,-1864.0,15540.0,90.0,-92.0,-118.0,0.21516005261036714,0.5963126038871599,0.5815389600458564,0.5098331767890386
-3933.9478454589844,5528.0,-1840.0,15596.0,122.0,-23.0,-162.0,0.21715452429624885,0.5912861375898265,0.5948203008145323,0.4994130813371673
-3933.9634590148926,5580.0,-1812.0,15588.0,133.0,4.0,-200.0,0.2187554540292097,0.583098311872909,0.6108301168919107,0.4889058992497972
-3933.9800782203674,5668.0,-1856.0,15672.0,70.0,-35.0,-505.0,0.2383768823231853,0.5584271767840796,0.63816856454728,0.4733671233054795
-3933.9961688518524,5400.0,-1556.0,15612.0,56.0,-107.0,-357.0,0.25622887517071224,0.5438150992162706,0.6552546388558147,0.4574420833844274
-3934.011916399002,5560.0,-1588.0,15448.0,64.0,-114.0,-283.0,0.27092149463291937,0.5333998456370642,0.668398877791983,0.4419605056864685
-3934.027500152588,5484.0,-1896.0,15468.0,89.0,-62.0,-499.0,0.28937142916032116,0.508264886177734,0.6928671543623798,0.42174173124108394
-3934.0430932044983,5448.0,-1936.0,15460.0,98.0,-87.0,-287.0,0.30075283141694736,0.4963869279505321,0.7066992997130999,0.40462804146467285
-3934.0586836338043,5576.0,-1988.0,15476.0,139.0,-159.0,-272.0,0.3140213161491252,0.4886442066909857,0.7188543853157272,0.38192384709999033
-3934.0743165016174,5552.0,-1908.0,15372.0,135.0,-163.0,-247.0,0.32661440159302274,0.48207877761463197,0.7290897546607551,0.3596542985900958
-3934.089997291565,5516.0,-1928.0,15360.0,110.0,-182.0,-172.0,0.3388945507468655,0.47983951187728224,0.7343457774102174,0.3400600028160255
-3934.1056005954742,5536.0,-1932.0,15548.0,117.0,-224.0,-128.0,0.3520701043051461,0.4815921320354886,0.7362929366715417,0.3193561826921051
-3934.121223926544,5532.0,-1972.0,15156.0,122.0,-294.0,-58.0,0.367334936561147,0.4896094499634701,0.7327701083862304,0.2973139740135314
