programtime,ax,ay,az,gx,gy,gz,q0,q1,q2,q3
-4467.028812646866,2264.0,-1568.0,-16204.0,1413.0,-248.0,-1400.0,0.9850591933705358,0.12128011604312143,-0.021585968184972815,-0.12034768375948746
-4467.044396162033,764.0,-476.0,-14892.0,-256.0,-262.0,-6520.0,0.7982494009605733,0.09479240054951862,0.023853094362020405,-0.5943427668891934
-4467.060003757477,1068.0,-2176.0,-16884.0,-1662.0,-1240.0,-10171.0,0.21267511903875833,-0.0787875436548818,0.08010004194682181,-0.9706419525174036
-4467.075569152832,3084.0,-3396.0,-17384.0,658.0,-674.0,-5435.0,-0.21485716371309196,-0.14588316997852369,-0.022796374328736387,-0.9654195073830064
-4467.091143369675,4072.0,-1632.0,-15832.0,965.0,348.0,-4349.0,-0.5294255335837399,-0.1176956328431349,-0.15457957399135827,-0.8258096013633388
-4467.106729984283,2612.0,-2280.0,-16564.0,28.0,542.0,-5036.0,-0.8092026004498222,-0.011241555710191004,-0.213551654346145,-0.5472298144075163
-4467.122321605682,1916.0,-3156.0,-17004.0,673.0,145.0,-6118.0,-0.9671876939482864,0.05484605108978416,-0.2309896309481223,-0.09046361561038171
-4467.13792514801,2472.0,-1816.0,-16816.0,1104.0,292.0,-2421.0,-0.9597837135681705,0.012605144348096127,-0.2463927938123072,0.13396613252095343
-4467.153518915176,1900.0,-820.0,-15504.0,107.0,37.0,-4166.0,-0.8554856850104304,0.08727387662815655,-0.22926999542193302,0.45602936572084335
-4467.169145345688,2064.0,-1716.0,-16308.0,-1359.0,-723.0,-7490.0,-0.4669989468363595,0.30573285323254407,-0.14354583724186817,0.8172111102515371
-4467.184737443924,3420.0,-2992.0,-16688.0,-729.0,-280.0,-4429.0,-0.12581599034578775,0.38274231153974325,-0.061501840737919186,0.9131791626599735
-4467.200321435928,3784.0,-1952.0,-16188.0,482.0,725.0,1126.0,-0.22600637249025946,0.31154126447840547,-0.06820034253775652,0.9204411297843675
-4467.215933799744,1612.0,-1124.0,-15632.0,-157.0,590.0,-1138.0,-0.12600353361738476,0.2726010183475705,-0.061197082166538054,0.9518753655001805
-4467.231512308121,696.0,-1596.0,-16280.0,-445.0,253.0,-3478.0,0.16714675902611945,0.2632427739203526,-0.017509666365835706,0.9499782179132003
-4467.247093915939,1504.0,-1580.0,-15772.0,-511.0,-167.0,-4262.0,0.49807304253145296,0.2588637187263823,0.033259017157248064,0.8269260288613147
-4467.262665987015,2396.0,-1632.0,-16064.0,-621.0,105.0,-3122.0,0.7101207937057638,0.20768017879677025,0.06116305826517271,0.6699675230824915
-4467.278255224228,2376.0,-1944.0,-16468.0,-86.0,396.0,-1972.0,0.812368095403484,0.16644446582015296,0.11461296330644613,0.5470083966544526
-4467.293843984604,1976.0,-1532.0,-16196.0,393.0,661.0,-659.0,0.8282124706571684,0.15586524536079874,0.1891429187571523,0.503979250585371
-4467.309497833252,1496.0,-804.0,-16036.0,-196.0,416.0,-2711.0,0.9171435093115459,0.07671877116826092,0.24083763566884137,0.3081545825127009
-4467.325091600418,2036.0,-1852.0,-16280.0,-532.0,81.0,-3534.0,0.9679607331734522,-0.04032666593904489,0.2453151806991097,0.03530214111235454
-4467.340711593628,3056.0,-1956.0,-16224.0,243.0,409.0,-1594.0,0.9548737329287207,-0.0547786039655896,0.27240668169239507,-0.10492882578057146
-4467.3562886714935,2732.0,-1276.0,-16040.0,197.0,948.0,-885.0,0.9190611248549159,-0.05053731732576726,0.34339558948516424,-0.18668716469020566
-4467.371923923492,1768.0,-1984.0,-16248.0,-319.0,462.0,-3084.0,0.8231814339213411,-0.15541895072959125,0.35912585728992474,-0.4113950597990868
-4467.387481689453,2056.0,-2332.0,-16272.0,-10.0,156.0,-3250.0,0.6746708647990242,-0.24296673961664217,0.31441756613397986,-0.6220353540899266
-4467.403121232986,3236.0,-1504.0,-16160.0,-38.0,644.0,-1617.0,0.5618522492510006,-0.2519617239609314,0.31665623824425104,-0.7215027140983095
-4467.418696880341,2644.0,-1748.0,-15956.0,-177.0,861.0,-1920.0,0.4063377149069112,-0.25541250094503193,0.3225591456559676,-0.8158490751106642
-4467.434273481369,2096.0,-1956.0,-16232.0,-145.0,648.0,-2102.0,0.23090942407391735,-0.26886815352980137,0.30365173215037794,-0.8844130140683153
-4467.449857950211,2076.0,-1788.0,-15976.0,270.0,486.0,-1950.0,0.07270090698420753,-0.27355831962289484,0.24328703092956697,-0.927734792098608
-4467.465458869934,2124.0,-1212.0,-16364.0,-131.0,624.0,-1851.0,-0.09220571915969789,-0.25964765624286323,0.21080264538592106,-0.9378930880756764
-4467.481034517288,1784.0,-1160.0,-16012.0,95.0,332.0,-2495.0,-0.29334997735626855,-0.27286554822768344,0.14066325843640526,-0.9053750775791963
-4467.496691703796,1912.0,-992.0,-15776.0,-344.0,42.0,-3564.0,-0.5570376274966573,-0.29088716962390027,0.07832831325121219,-0.7739240346728556
-4467.512286186218,2344.0,-1528.0,-16348.0,-521.0,245.0,-2186.0,-0.7059057009814483,-0.25924528044518536,0.0453839323300874,-0.6575935861723754
-4467.527926206589,2656.0,-2056.0,-16316.0,55.0,196.0,213.0,-0.6929084117294533,-0.2507367491503519,0.03511856835168604,-0.6751116216871159
-4467.543512105942,2356.0,-1240.0,-16076.0,2.0,449.0,1588.0,-0.5944835352586127,-0.21758818129560833,0.042287616106877986,-0.7729530821407523
-4467.559103965759,1780.0,-1372.0,-15960.0,-665.0,-92.0,-1227.0,-0.6844014876314668,-0.1926841137523994,0.06825032016987871,-0.6998637937713285
-4467.574682712555,2216.0,-2032.0,-16216.0,-462.0,-518.0,-1416.0,-0.7682578090495654,-0.20349000589815552,0.10283011553032002,-0.5981619543852242
-4467.590260744095,3104.0,-1316.0,-15980.0,-549.0,-133.0,178.0,-0.7664288121611799,-0.17203636455164156,0.14358701738906268,-0.6019743629078987
-4467.60582447052,2832.0,-2000.0,-16312.0,-411.0,-27.0,1697.0,-0.6752490529598517,-0.12345953002115324,0.19052115444231163,-0.7017821247607754
-4467.621409893036,2404.0,-1152.0,-16040.0,-177.0,-122.0,1579.0,-0.5728597569101999,-0.09350617716094176,0.22368473317714538,-0.7829772882331918
-4467.636997699738,2064.0,-1260.0,-16148.0,-756.0,-132.0,1449.0,-0.4725819536993833,-0.03620239273591035,0.29108526586816985,-0.8310385380909396
-4467.6525757312775,1924.0,-1080.0,-16248.0,-489.0,-267.0,980.0,-0.39432619541739916,-0.01051948555739809,0.33931851445214783,-0.8539667076538957
-4467.668168783188,1888.0,-1316.0,-16280.0,-587.0,-333.0,180.0,-0.3708587363999091,-0.009825418837816185,0.3942529162524987,-0.8407924219490353
-4467.683805704117,2272.0,-1312.0,-16096.0,-823.0,-584.0,-1137.0,-0.43106602125042937,-0.06462981623966027,0.4687385535521977,-0.768302831304132
-4467.699439764023,2924.0,-1616.0,-16448.0,-298.0,-216.0,1077.0,-0.349917715687769,-0.023795908080604413,0.5007289762853264,-0.7913670698953313
-4467.715061187744,2792.0,-988.0,-16104.0,-39.0,46.0,1790.0,-0.22561313198796393,0.05803017572994039,0.4999471783208825,-0.8341366987900253
-4467.730662345886,1792.0,-1512.0,-16476.0,-499.0,-92.0,1379.0,-0.11770352871085304,0.12033717376303343,0.5270603559720137,-0.8329899309729939
-4467.7462475299835,1848.0,-1076.0,-15936.0,-43.0,-37.0,531.0,-0.07686595987077273,0.14238400674107035,0.5246968135111333,-0.8357701075826811
-4467.761827468872,2000.0,-1004.0,-16428.0,-312.0,27.0,59.0,-0.06990340547611738,0.14912319538135335,0.5465965344932434,-0.8210408120075842
-4467.777423381805,2164.0,-1436.0,-16144.0,-199.0,-187.0,-457.0,-0.09105123470932736,0.11504633397873355,0.5675959988671407,-0.8101288760228053
-4467.793003082275,2864.0,-1296.0,-16640.0,-113.0,93.0,916.0,-0.029682130779854994,0.1673470337618459,0.5640737594797348,-0.8080437706398568
-4467.808612585068,2396.0,-1520.0,-16208.0,107.0,386.0,1397.0,0.04785427255093419,0.26099707839583275,0.5311419309155914,-0.8046606383381242
-4467.824180364609,1732.0,-1656.0,-16228.0,-67.0,45.0,554.0,0.08605324825059334,0.289291197241416,0.5230459660666387,-0.7970748766869813
-4467.839783906937,1984.0,-1328.0,-16180.0,11.0,-155.0,346.0,0.11680329733616239,0.29431660160091416,0.5123516730830501,-0.7982671801110753
-4467.855356931686,2416.0,-1088.0,-16224.0,-192.0,36.0,589.0,0.16086074028526884,0.32082413387713876,0.51046601464633,-0.7814218740526477
-4467.870939731598,2276.0,-1692.0,-15912.0,-222.0,-287.0,17.0,0.180854880632823,0.2988409517641945,0.5210830711148227,-0.7787541529247226
-4467.886543273926,2644.0,-1460.0,-16292.0,-94.0,-131.0,462.0,0.22038094710906347,0.3092686273059204,0.5131377968244967,-0.7697238178630861
-4467.90216755867,2496.0,-1340.0,-16388.0,-227.0,187.0,1746.0,0.33139805843684667,0.39110535058505624,0.4794152203191244,-0.7123011849873578
-4467.917812585831,1044.0,-1448.0,-15972.0,91.0,-302.0,424.0,0.3667904837787865,0.3924305807051627,0.45029738367744493,-0.7132287477310353
-4467.933506965637,1596.0,-792.0,-15640.0,-982.0,-828.0,-3365.0,0.21312694229034138,0.16921869704391573,0.5727442090279476,-0.7732438231668453
-4467.9491131305695,3204.0,-2228.0,-16616.0,-1218.0,-521.0,-2495.0,0.08611763420500355,-0.012895566541562223,0.6624923691974289,-0.7439901331319407
-4467.964737176895,3804.0,-1544.0,-16480.0,762.0,493.0,3519.0,0.27345734138268546,0.2175502109925595,0.5918966279529144,-0.7263273159939503
-4467.98045539856,1888.0,-460.0,-15976.0,64.0,619.0,2162.0,0.3701455786422928,0.36311596685945036,0.5512875781921122,-0.6536214893609026
-4467.996354341507,312.0,-1388.0,-16220.0,-304.0,-454.0,-1911.0,0.2881934526010987,0.23211838865785095,0.6056939322895344,-0.704414968546511
-4468.012001037598,2000.0,-1300.0,-16216.0,-395.0,-602.0,-2148.0,0.19214277855936185,0.07033305220415946,0.6460819787567174,-0.735331551846471
-4468.027577638626,3224.0,-1344.0,-16276.0,-131.0,132.0,686.0,0.22898794991358062,0.11503718545693215,0.6514881022437626,-0.7140687763733571
-4468.043147802353,2632.0,-1668.0,-16332.0,23.0,330.0,1181.0,0.2818750603716046,0.20204706588120888,0.6413794314723986,-0.6843652960177345
-4468.058730363846,1976.0,-1728.0,-16212.0,197.0,220.0,852.0,0.31587984320727636,0.26693020527755024,0.6183361812327092,-0.6683027436307453
-4468.074328184128,1932.0,-1156.0,-16300.0,-26.0,194.0,273.0,0.3216790446963988,0.29219888679748235,0.6188073442260801,-0.6543851109930527
-4468.089989900589,1916.0,-1324.0,-16320.0,15.0,228.0,59.0,0.3121596688621168,0.30883165676995666,0.6229410411992659,-0.6473977201861248
-4468.105622291565,1796.0,-1184.0,-16204.0,-66.0,-248.0,-519.0,0.2975949999592029,0.2645492150180742,0.6333189584477168,-0.6635947752230287
-4468.121213912964,2300.0,-1420.0,-16236.0,-150.0,-58.0,-392.0,0.28124516781901837,0.23552371077121842,0.6493361721767645,-0.6661773583257201
-4468.136798858643,2768.0,-1496.0,-16368.0,-131.0,148.0,-443.0,0.24944590856398408,0.21565323996266236,0.6693199918466358,-0.665793637179505
-4468.152374744415,2424.0,-1652.0,-16320.0,209.0,265.0,1280.0,0.3022778692262814,0.30834710753751915,0.6348708023771448,-0.6406943228547175
-4468.167977571487,1648.0,-1484.0,-16080.0,207.0,179.0,375.0,0.30737881429169234,0.344382749261829,0.6176442660849424,-0.63673726693817
-4468.183563232422,1712.0,-944.0,-16224.0,-12.0,160.0,-56.0,0.2958465691629619,0.34998404905436215,0.6244291657071754,-0.6325141816088076
-4468.199168920517,2044.0,-1440.0,-15984.0,-194.0,-90.0,-1192.0,0.23941485499421927,0.2736085152221199,0.6657240062799481,-0.6516367508578838
-4468.214788675308,2876.0,-1704.0,-16208.0,-65.0,132.0,656.0,0.2700145194532316,0.3173658612418004,0.6556117100276023,-0.6297176788667869
-4468.230355501175,2712.0,-1644.0,-16232.0,97.0,430.0,1039.0,0.29824681108122286,0.40084681886189116,0.6288106282880314,-0.5957917935320984
-4468.245985507965,1924.0,-1528.0,-16280.0,223.0,434.0,1337.0,0.3334433266605508,0.4988411865657502,0.5775029728011999,-0.5535913067390024
-4468.261558294296,1544.0,-1300.0,-16004.0,-32.0,-59.0,-5.0,0.3374110874821059,0.49492078770998144,0.5777154021983913,-0.5544836210380114
-4468.277161836624,2224.0,-1344.0,-16252.0,-364.0,-136.0,-745.0,0.32291743912546733,0.43899934605594604,0.6220081569535874,-0.5622363865442215
-4468.292734622955,2576.0,-1728.0,-16312.0,42.0,238.0,1321.0,0.37051255723306104,0.520101580552792,0.5723192263131931,-0.5144565035368618
-4468.308343887329,2272.0,-904.0,-16228.0,433.0,457.0,2195.0,0.4181923162130429,0.6515638491794108,0.45915956858675594,-0.43560558728981474
-4468.323967933655,1148.0,-820.0,-15752.0,-350.0,46.0,-1154.0,0.39003484900512186,0.5911855018609026,0.5369125031072495,-0.45836391978223195
-4468.339563369751,1812.0,-1808.0,-16324.0,-800.0,-678.0,-3638.0,0.3013402919494366,0.34799898611268515,0.6966407826751595,-0.5502566256085544
-4468.355150222778,3948.0,-1796.0,-16304.0,-139.0,-250.0,-215.0,0.3101179881572308,0.3191605141602625,0.7031280454671511,-0.5545938615778329
-4468.37073135376,3352.0,-1532.0,-16136.0,8.0,866.0,3938.0,0.4218355743242747,0.5687963965416768,0.5817307251969991,-0.4001434378788264
-4468.386311292648,1092.0,-1228.0,-16140.0,282.0,390.0,1692.0,0.44173683389433593,0.6709512878429349,0.4965782355632731,-0.3287901988925178
-4468.401895046234,972.0,-1128.0,-16144.0,-555.0,-478.0,-1960.0,0.4313554031821631,0.5420872665325498,0.5990590170237252,-0.4014999448709679
-4468.417521953583,2612.0,-1432.0,-16256.0,-223.0,-203.0,-503.0,0.4341194823824862,0.49974566249337155,0.6223684241439725,-0.41767462511334336
-4468.43313908577,3084.0,-1516.0,-16236.0,-166.0,191.0,543.0,0.4499573731604281,0.5292918358726184,0.6113003097797762,-0.37907841679566745
-4468.44873380661,2752.0,-1480.0,-16512.0,59.0,416.0,1539.0,0.47118976266363305,0.6215869312738073,0.5494449771935359,-0.29953315587326074
-4468.464293479919,1860.0,-1428.0,-16020.0,-139.0,20.0,93.0,0.47991424204681893,0.6209165169744169,0.5489251801036709,-0.2877953194149249
-4468.47987985611,2292.0,-1464.0,-16304.0,-191.0,-17.0,199.0,0.4956966727996195,0.6219747145437795,0.5421969622945735,-0.2710253071617262
-4468.49546790123,2504.0,-1336.0,-16192.0,-83.0,310.0,1278.0,0.5121449985390941,0.681826810563846,0.48512349213301337,-0.19358434401674854
-4468.511086702347,2020.0,-1432.0,-16300.0,159.0,305.0,1495.0,0.5102155505497542,0.7508193156072253,0.40361056517541377,-0.11423204001983173
-4468.5266625881195,1884.0,-1124.0,-15928.0,63.0,169.0,562.0,0.5047965915920894,0.7742283279515252,0.3732600863895698,-0.08017359429915512
-4468.542249917984,1940.0,-1404.0,-16264.0,-335.0,104.0,-226.0,0.5218453892124896,0.7524958311989934,0.3952609432720054,-0.0720846759687927
-4468.557832956314,2076.0,-1724.0,-16384.0,-11.0,-58.0,-690.0,0.519009576840409,0.7266591141306383,0.43727790891077767,-0.10669405502385386
-4468.573414802551,2748.0,-1384.0,-16156.0,-98.0,8.0,478.0,0.5286263528901471,0.7400189290238436,0.407948376362845,-0.08064915337053274
-4468.588986158371,2332.0,-1624.0,-16384.0,326.0,396.0,1792.0,0.49924718287621356,0.8111262816106762,0.30426228568080027,0.015838787292517944
-4468.604601383209,1680.0,-944.0,-16164.0,164.0,343.0,513.0,0.47679339317949637,0.8302815066234283,0.28272255589945106,0.058039954903445864
-4468.620187282562,1564.0,-1028.0,-16176.0,-172.0,94.0,-644.0,0.48907007734937863,0.8055282812762593,0.3318920698724236,0.04221731234205693
-4468.635824918747,2004.0,-1520.0,-16228.0,-6.0,-134.0,-831.0,0.49481825134615026,0.7797517044716865,0.3835830952110034,-0.002487282972195909
-4468.651438951492,2612.0,-1380.0,-15980.0,-48.0,60.0,-556.0,0.4950817415740597,0.7583233675521815,0.42356726387386034,-0.020748791741358154
-4468.6670088768005,2816.0,-1644.0,-16292.0,-191.0,196.0,89.0,0.500202077731871,0.7536261761590646,0.4264216679193174,0.003166886403560291
-4468.682638168335,2416.0,-1900.0,-16180.0,489.0,293.0,1344.0,0.4528160470036965,0.8184239986598789,0.3481997111068896,0.06242393113701772
-4468.698205947876,2252.0,-1116.0,-16084.0,-44.0,234.0,285.0,0.44676847491520644,0.823781118684405,0.3367136506191074,0.09168705365407234
-4468.713830947876,1928.0,-1692.0,-16168.0,-114.0,42.0,-519.0,0.457100573166912,0.8030277106918886,0.37438840174974536,0.0777102728517671
-4468.72940158844,2216.0,-1700.0,-16272.0,90.0,94.0,-21.0,0.44754459043358297,0.8053819608204384,0.3802416783390863,0.0804984646595012
-4468.744972229004,2332.0,-1240.0,-16244.0,93.0,296.0,183.0,0.42939402015691097,0.8127431391598197,0.3794488604947159,0.10529922825638324
-4468.76055765152,2036.0,-1428.0,-16156.0,-196.0,33.0,-862.0,0.4485015217268052,0.7743897002517834,0.4387667587293429,0.08155187666044025
-4468.776131629944,2308.0,-1652.0,-15972.0,39.0,-60.0,-365.0,0.4502346939173997,0.7621025816613841,0.461178649888591,0.06166545471408775
-4468.791751384735,2644.0,-1404.0,-16108.0,-71.0,14.0,181.0,0.4530639738983452,0.7665476363129694,0.4493036071565765,0.07255360373219216
-4468.807355880737,2264.0,-1804.0,-16296.0,-30.0,186.0,-88.0,0.4479716941351603,0.7607426157270365,0.462340771291001,0.08266223486274323
-4468.822933912277,1988.0,-1552.0,-16064.0,80.0,56.0,-722.0,0.4444218284432041,0.7329870045534491,0.5120717747290634,0.05478856709924609
-4468.838506937027,2516.0,-1468.0,-15884.0,-511.0,60.0,-372.0,0.47519315844254345,0.69532620192728,0.5350079481796998,0.06692854747662462
-4468.854090690613,2660.0,-2036.0,-16292.0,295.0,225.0,1433.0,0.43451622374255144,0.7669022573748361,0.4553974401049532,0.12517887395143537
-4468.869663953781,2176.0,-1144.0,-16356.0,86.0,289.0,688.0,0.40859006666793635,0.792777901665675,0.42040339232332746,0.166788320256243
-4468.885236740112,1756.0,-1716.0,-16252.0,-145.0,2.0,-646.0,0.42695917225881547,0.7627441313056738,0.4623426629183175,0.1488842417061635
-4468.900800704956,2052.0,-1584.0,-16140.0,65.0,-98.0,-346.0,0.4305784769494737,0.7522307950443576,0.4823830780832871,0.1267184759760728
-4468.916409254074,2732.0,-1208.0,-16204.0,-91.0,307.0,398.0,0.41852054933843347,0.7615476210149972,0.46637932498377427,0.1654572329501892
-4468.93209195137,2000.0,-1740.0,-16312.0,58.0,328.0,410.0,0.3946924342885353,0.7749239721290493,0.4515280031610681,0.1995825195163771
-4468.947689771652,1708.0,-1360.0,-16052.0,155.0,-54.0,-756.0,0.3983213938824506,0.7498382336879805,0.5024067715328796,0.16330990904761356
-4468.963359594345,2328.0,-1384.0,-16216.0,-399.0,-2.0,-1488.0,0.441474177850252,0.6649103719795525,0.5887953555188045,0.12772931082935507
-4468.97895026207,2596.0,-2008.0,-16144.0,167.0,188.0,675.0,0.413496122828026,0.7026619046345499,0.5577129634496548,0.15570309753418768
-4468.9945549964905,2336.0,-1460.0,-15908.0,386.0,402.0,1133.0,0.35243972987654293,0.7617730908014758,0.5049961554247233,0.20116380872702955
-4469.010152101517,1824.0,-1196.0,-16276.0,-248.0,205.0,-433.0,0.3668116792544669,0.7307797739003878,0.5352024816780016,0.21205758092160884
-4469.025724887848,1904.0,-2224.0,-16232.0,113.0,-30.0,-941.0,0.3768613826864193,0.6887657460552254,0.5943823333211917,0.17403128206252033
-4469.04136800766,2480.0,-1412.0,-15972.0,-121.0,47.0,-719.0,0.3915382636621735,0.6455830543066232,0.6360926458713211,0.15908002372694047
-4469.056932449341,2624.0,-1716.0,-16240.0,-228.0,358.0,626.0,0.3747193215365681,0.666232057696559,0.6086494771284992,0.21275828857129733
-4469.072531461716,2024.0,-1312.0,-16132.0,465.0,468.0,1419.0,0.29347443061980744,0.74134041765057,0.5450953226900956,0.25914905539368366
-4469.088118314743,1304.0,-1104.0,-15840.0,-441.0,-150.0,-2785.0,0.38050127824284297,0.5836212603173566,0.6908679739113193,0.19314876231757663
-4469.103736162186,2484.0,-2212.0,-16428.0,-519.0,-331.0,-2728.0,0.4591379123428683,0.39597087184049556,0.7870860947497669,0.11355582571964919
-4469.119318723679,3564.0,-1868.0,-16160.0,4.0,1.0,1151.0,0.445006966080795,0.47288052255958857,0.7437762086095169,0.15858676814220413
-4469.134892702103,2456.0,-1364.0,-15956.0,284.0,597.0,2927.0,0.3422018376626493,0.644001416619151,0.6289969083839798,0.26930088550955017
-4469.150459766388,1156.0,-1016.0,-16308.0,588.0,254.0,2385.0,0.2335487470844045,0.768947637974765,0.5048517656025334,0.3151177677572935
-4469.16605091095,260.0,-908.0,-14852.0,-747.0,-692.0,-4085.0,0.4001617559855979,0.5565271926482319,0.6987389509578303,0.20472403694718175
-4469.181644916534,2856.0,-2264.0,-17080.0,-2041.0,-821.0,-5056.0,0.5762156121973191,0.1727530749097541,0.7923568354111236,0.10150166868856521
-4469.197216510773,4488.0,-3188.0,-16836.0,787.0,485.0,3428.0,0.4777789228812442,0.4251696202266931,0.7376039439897221,0.2165606536228011
-4469.212856054306,2936.0,-736.0,-15736.0,825.0,1209.0,5444.0,0.23883657797922492,0.7063683989007853,0.5399122049268198,0.39050683095763467
-4469.2284326553345,-288.0,-744.0,-16152.0,153.0,502.0,4046.0,0.06379423273330201,0.8320413082457246,0.28852994703456697,0.4694550318262042
-4469.244051456451,-1136.0,-36.0,-14740.0,1010.0,-835.0,1291.0,-0.040911578432250205,0.8930613022554361,0.22864040861956714,0.38534571064212414
-4469.259615898132,1112.0,20.0,-14628.0,-3205.0,-2067.0,-12469.0,0.44190562315869636,0.4788240411187015,0.7261496408212135,0.21943941533531047
-4469.275204896927,5900.0,-4772.0,-19332.0,-2888.0,-981.0,-5512.0,0.6398074943522449,0.03242096367050127,0.7566974306506565,0.1304003440642437
-4469.290806531906,6344.0,-4144.0,-17344.0,3395.0,1958.0,11177.0,0.25965864832020435,0.65207078992157,0.6071342776013153,0.3725171677186345
-4469.306454181671,1888.0,912.0,-14696.0,2479.0,2304.0,10854.0,-0.2530695128951182,0.8578777755625162,0.08687963719924223,0.4386951931342132
-4469.322034358978,-2904.0,300.0,-15720.0,-234.0,-72.0,2031.0,-0.3077691278636885,0.8676405043351948,-0.07141067766588603,0.38389925017677784
-4469.337603569031,-2000.0,-704.0,-14664.0,-1521.0,-2893.0,-7374.0,0.029895770554198235,0.8598278870326655,0.42000222743910187,0.288791233471699
-4469.353166818619,3696.0,-1396.0,-15252.0,-3091.0,-2564.0,-10694.0,0.44275624854256107,0.37149996369432564,0.8058687280995823,0.12857011481208977
-4469.36874127388,7816.0,-4020.0,-18856.0,-2658.0,-189.0,-2678.0,0.5432808826318194,0.07846594043230434,0.8126886687089107,0.1955149777152731
-4469.384311676025,5548.0,-6028.0,-18724.0,3116.0,2060.0,13262.0,0.09546182603279788,0.7236076383095013,0.55810815325362,0.3947078854323329
-4469.399927139282,884.0,656.0,-14700.0,3888.0,2089.0,11775.0,-0.44281601719653824,0.8470660030593882,-0.02291902269839733,0.29303221627278153
-4469.415519237518,-2476.0,2292.0,-14860.0,-1294.0,92.0,770.0,-0.3632999369601314,0.8856813026365363,-0.11550461537166838,0.26502918668074255
-4469.4310874938965,-2340.0,-1024.0,-16556.0,-722.0,-1628.0,3546.0,-0.38336165982681863,0.8604456458311756,-0.33516433726905076,0.01822074005072109
-4469.446679592133,-1064.0,1008.0,-14008.0,997.0,-1262.0,13449.0,-0.3334159970108304,0.28149625641233234,-0.8404748705890075,-0.32124075468643043
-4469.46222281456,-1604.0,2864.0,-12912.0,295.0,-3959.0,6810.0,-0.3624347310267974,-0.2780824914005464,-0.7423640155696577,-0.49010903083833435
-4469.477809906006,6424.0,5144.0,-11016.0,-10696.0,-3982.0,-32768.0,-0.7154176746519365,0.6311685580252606,-0.2992635120564141,-0.015657346760857425
-4469.49337220192,13236.0,-9776.0,-25920.0,-19458.0,-2819.0,-22698.0,0.08979950778868938,0.8680936024613702,0.4112306549466678,0.2631328451537057
-4469.508982896805,10896.0,-25076.0,-27420.0,12566.0,3384.0,32767.0,-0.5366643040750213,0.6381707898735122,-0.5427963954396205,0.100506421594073
-4469.524565458298,4988.0,4228.0,-9704.0,18363.0,6945.0,32767.0,-0.436034895979272,-0.5272475256184533,-0.7275179281668258,-0.05100274907701541
-4469.5401265621185,-3020.0,13328.0,-10820.0,-2804.0,5503.0,9945.0,-0.11980315563265018,-0.7186820631583692,-0.32645054036230925,-0.6021406319889441
-4469.555759429932,-10376.0,-2272.0,-17388.0,-10655.0,-802.0,-21881.0,-0.8348740083900582,-0.011105998218181746,-0.48139496023553763,-0.2666850936556448
-4469.571323871613,-1836.0,-6284.0,-18356.0,-1519.0,-6201.0,-23719.0,-0.6970312044613013,0.40238665544520547,-0.007402456650749603,0.5934456025301587
-4469.586891174316,11544.0,52.0,-16432.0,-49.0,-704.0,-2654.0,-0.5428129486261281,0.43156496483574536,0.12272102487184276,0.7099615017622681
-4469.602456569672,11184.0,-1504.0,-16512.0,-678.0,5345.0,18501.0,-0.8795285292532777,0.16916871926062305,-0.44423858433922336,0.021531159689375714
-4469.618062496185,904.0,-2700.0,-16520.0,4274.0,4485.0,21065.0,-0.3739239449368737,-0.4551674051293141,-0.505087006836531,-0.6307857260873988
-4469.633657217026,-3760.0,908.0,-14672.0,2225.0,431.0,3096.0,-0.0910872301548319,-0.6074531289520829,-0.4920043409974344,-0.6169566768167155
-4469.64924454689,-1280.0,796.0,-15804.0,-3975.0,-1584.0,-9817.0,-0.6563546728504109,-0.1751922365422434,-0.5742324252061359,-0.4569062765213848
-4469.664858341217,2788.0,-3412.0,-17296.0,-2913.0,-791.0,-4978.0,-0.8370908532460309,0.18681635541683625,-0.4360861071354322,-0.2724104622147734
-4469.680442094803,4380.0,-3196.0,-17076.0,1505.0,995.0,4137.0,-0.6748241229323481,-0.05280392414444879,-0.569631702237214,-0.46620153636583883
-4469.696074485779,2900.0,-132.0,-16004.0,1576.0,2255.0,6363.0,-0.2535918531581859,-0.3167639598501919,-0.6309580314604606,-0.6612440761831925
-4469.711660146713,-392.0,-116.0,-15724.0,-6.0,1039.0,-857.0,-0.2442426863497764,-0.2081556828633541,-0.6728762149375271,-0.6665240590013856
-4469.727290630341,-92.0,-1096.0,-15864.0,-1397.0,-1164.0,-7938.0,-0.651803719022093,0.1793106640963998,-0.5797524478806892,-0.4548479930555102
-4469.7428686618805,3716.0,-1528.0,-16464.0,-1055.0,-631.0,-3912.0,-0.7742847849799076,0.3881919767973119,-0.41521743404502043,-0.2781807746122703
-4469.758442640305,5216.0,-1708.0,-16372.0,-100.0,1359.0,4120.0,-0.5811863659210316,0.2607841423849682,-0.6025750786074308,-0.4807466211938366
-4469.774019956589,2380.0,-2052.0,-16584.0,614.0,1845.0,5696.0,-0.2292887320609465,0.006749337705324956,-0.7540457901170782,-0.6154641095930242
-4469.789590120316,-228.0,-2016.0,-16332.0,753.0,456.0,569.0,-0.16838314326786769,-0.021166043185505676,-0.8008025174283938,-0.5743817926775264
-4469.805161714554,832.0,-1184.0,-16036.0,-760.0,-510.0,-3654.0,-0.3690845026512544,0.20879986661129135,-0.7240586651432638,-0.5439837268124278
-4469.820769548416,3216.0,-1652.0,-16332.0,-1068.0,-132.0,-1901.0,-0.4401521793959962,0.3507996130640885,-0.6234537475514162,-0.542688782923634
-4469.836343765259,3704.0,-1904.0,-16144.0,-3.0,596.0,2335.0,-0.2905400224223892,0.24680271853365185,-0.7025059716299783,-0.6009661166150855
-4469.85204744339,2336.0,-1192.0,-15912.0,64.0,698.0,2361.0,-0.12238414910457707,0.13403657570762084,-0.7573129190129294,-0.6273224522656912
-4469.867641925812,1196.0,-1272.0,-15784.0,-454.0,478.0,319.0,-0.0678218444413473,0.14370697724297665,-0.7399977275181141,-0.653568562108282
-4469.883230686188,1276.0,-1460.0,-15920.0,-944.0,-317.0,-2398.0,-0.2079261985167002,0.2790400610263807,-0.6382563778760807,-0.6866819761820556
-4469.898818969727,2552.0,-2068.0,-16764.0,-576.0,-68.0,-898.0,-0.25034618301049155,0.33407684456169934,-0.5783473128592513,-0.700880757538869
-4469.9144904613495,3044.0,-1540.0,-16276.0,136.0,509.0,1239.0,-0.15170479318908583,0.2977588679485494,-0.6297821116240825,-0.7012130946864633
-4469.930160284042,2492.0,-1220.0,-16364.0,-78.0,642.0,1620.0,-0.015017620004089276,0.2462841946689214,-0.6681181415625161,-0.7019520749030829
-4469.945792675018,1856.0,-1536.0,-15820.0,-437.0,158.0,732.0,0.0483139421807329,0.2133105177250747,-0.655639449278816,-0.722704157015987
-4469.961381912231,2268.0,-1580.0,-16532.0,-285.0,-9.0,551.0,0.08773817504020852,0.17979998002611292,-0.6472472525044148,-0.7355575939032303
-4469.976959228516,2664.0,-868.0,-16292.0,195.0,631.0,2273.0,0.2607261558461117,0.09150315938255449,-0.6765454258883099,-0.6825945576916982
-4469.9925401210785,1780.0,-872.0,-16188.0,-379.0,465.0,102.0,0.29681331336907507,0.10441486135878184,-0.6435462200986856,-0.6977446928003048
-4470.0081179142,1344.0,-1596.0,-15892.0,-564.0,-413.0,-1585.0,0.18013906465890506,0.15196278757643192,-0.5989124754682862,-0.7653502958151024
-4470.023766040802,2616.0,-1640.0,-16208.0,-631.0,-464.0,-1249.0,0.08016023593468168,0.17491626613958952,-0.543288360191679,-0.8172003390203145
-4470.039341688156,3492.0,-1788.0,-16196.0,-335.0,383.0,2722.0,0.289253700722144,0.06887193137088697,-0.5429019708872423,-0.785395698800634
-4470.054929494858,2476.0,-1644.0,-16616.0,-228.0,402.0,3159.0,0.5068513552707901,-0.056849019885909076,-0.5167055962437123,-0.6876665030438843
-4470.070516347885,1368.0,-1256.0,-16356.0,25.0,12.0,1246.0,0.5787901736199125,-0.11061995523328011,-0.5087652611912582,-0.6276329097730691
-4470.086143016815,1564.0,-1112.0,-16236.0,-692.0,-440.0,-1323.0,0.47564731500092183,-0.11001584874053595,-0.5015212255119973,-0.7142356789738648
-4470.101729393005,2692.0,-1420.0,-15880.0,-194.0,-472.0,-100.0,0.44636814941873026,-0.14307598331036647,-0.5097122970515027,-0.7214416902416652
-4470.117383956909,3152.0,-1268.0,-16292.0,-536.0,-177.0,1255.0,0.5071084872701088,-0.2293981511579607,-0.4641069742067858,-0.6890734263317323
-4470.132971763611,2400.0,-1764.0,-16496.0,-187.0,-149.0,2489.0,0.6320431520632632,-0.33960931741493255,-0.40043075738297834,-0.5699492731784053
-4470.148561477661,1804.0,-1432.0,-16328.0,203.0,-351.0,1546.0,0.6958247338025921,-0.39625182296580425,-0.38057561608948587,-0.4625739217281242
-4470.164142608643,1784.0,-760.0,-16132.0,-93.0,-337.0,523.0,0.7013173749114403,-0.43241747613247783,-0.3788108701621878,-0.4215108428374178
-4470.179751157761,1660.0,-1184.0,-16276.0,-266.0,-581.0,-889.0,0.6363087185070485,-0.43888269689163123,-0.4363039536576767,-0.4605779555555454
-4470.195325374603,2304.0,-1388.0,-16324.0,205.0,-767.0,-157.0,0.6069674198179738,-0.45140843330704933,-0.4920784940968427,-0.4309057127332733
-4470.21093082428,2748.0,-988.0,-16628.0,689.0,-2.0,1440.0,0.6814166606821235,-0.47243335988472057,-0.45712825161548715,-0.32173252336036157
-4470.226506471634,2116.0,-840.0,-16468.0,991.0,424.0,2060.0,0.7809318005597677,-0.4743007479873573,-0.3675050087881412,-0.17356379763286112
-4470.242074966431,1416.0,-1052.0,-16332.0,1482.0,409.0,934.0,0.8588540609240575,-0.39248006510928674,-0.3196802777762591,-0.07831743437421433
-4470.257652759552,1372.0,-832.0,-16496.0,1982.0,696.0,402.0,0.9326783484430164,-0.24636687494224396,-0.2629527292463789,-0.016441516313296937
-4470.273224115372,1388.0,-484.0,-16568.0,2403.0,1165.0,-1419.0,0.9755846590642132,-0.01620086828171179,-0.1956378122656488,-0.0984781766555023
-4470.288857221603,1588.0,-1136.0,-16676.0,2707.0,1480.0,-2667.0,0.9249213066313674,0.2566769650054007,-0.09137837634830387,-0.26511790680919356
-4470.30445432663,2240.0,-1416.0,-16552.0,3789.0,2146.0,-1555.0,0.7614033229404327,0.5793862282673373,0.026723453958844328,-0.289590116057033
-4470.320105552673,2332.0,-1172.0,-16884.0,4412.0,3136.0,1277.0,0.5065292674906998,0.8590917379702907,0.05308558874134623,-0.05070904450396713
-4470.335716724396,1384.0,-1160.0,-17144.0,5443.0,4340.0,285.0,0.0677776094751423,0.9571944966373997,0.17042035490784352,0.22392363406749755
-4470.351306438446,956.0,-1264.0,-17480.0,6046.0,4997.0,-245.0,-0.41825588305320205,0.7357540339286616,0.27935766621414493,0.45352763110583955
-4470.3668920993805,1212.0,-940.0,-17472.0,6835.0,5668.0,-953.0,-0.755259875345273,0.18848201197911743,0.3188997405453289,0.5407032525645361
-4470.38249373436,1484.0,-216.0,-18092.0,6525.0,5836.0,-2323.0,-0.7181486293230792,-0.45618781717967105,0.22017085638521258,0.4771582710766227
-4470.398072957993,2324.0,-1272.0,-18364.0,4187.0,5004.0,-6395.0,-0.29803041120412926,-0.821003355301266,-0.13566991904690176,0.46768048670793183
-4470.413667440414,3972.0,-3596.0,-20560.0,3837.0,4730.0,-6641.0,0.23903088812175957,-0.8137867338204071,-0.4542625736486079,0.2725085330109496
-4470.429296970367,3552.0,-1884.0,-23864.0,6735.0,6118.0,2886.0,0.6846947418682997,-0.7171190112089569,0.0294996696245938,0.12674069477728986
-4470.444871664047,2192.0,-1492.0,-19468.0,5009.0,7385.0,-5620.0,0.7660844121235448,-0.37838214107068097,0.1283608258804789,-0.5034532025912353
-4470.460403680801,1044.0,-6580.0,-24900.0,6912.0,7615.0,-6199.0,0.43954244800975945,0.24063863449775605,0.08920091154367236,-0.8607779512536443
-4470.4760484695435,2560.0,-1760.0,-20000.0,10446.0,7420.0,1054.0,0.16069042767585762,0.8031608164269299,-0.2879829052232851,-0.4961624086011895
-4470.491621017456,2644.0,636.0,-17936.0,8729.0,8510.0,4960.0,-0.014803964038720096,0.7678588688708691,-0.5871717690993218,0.25573993375666315
-4470.507290363312,508.0,1092.0,-14916.0,8479.0,6619.0,6447.0,-0.2615132299998858,0.1881653891424875,-0.5657220990095058,0.7590540979114481
-4470.52289223671,1300.0,4588.0,-14728.0,6901.0,6523.0,16886.0,-0.5963323294033614,-0.6287891913101558,-0.27234648818725715,0.4181378913372347
-4470.538480997086,-4648.0,7144.0,-12628.0,8132.0,7557.0,32767.0,-0.36662518511704306,-0.662384694370211,0.4493021445907075,-0.47429956058188255
-4470.55406832695,-14404.0,14352.0,-11736.0,8720.0,2054.0,32767.0,0.45174783363102367,0.13696233604415287,0.6126583943320423,-0.6338887167078218
-4470.569652557373,-14996.0,17176.0,-10660.0,-6739.0,-2773.0,5381.0,0.7674290226933091,0.004550814903936543,0.6368306312608505,-0.07401845918153845
-4470.585248470306,-11924.0,6200.0,-14464.0,-16640.0,-9655.0,-7092.0,0.6170304581474579,-0.7641398055934694,0.04918762796851489,0.18150578084662716
-4470.6008768081665,-3684.0,-604.0,-18464.0,-11918.0,-12080.0,4810.0,-0.11019222725493527,-0.6505054852572463,-0.25562561548581153,0.7066511384058837
-4470.616532325745,1568.0,2164.0,-18964.0,-8877.0,-9906.0,24240.0,-0.8920489889346973,-0.18960108647783058,0.2558349571965486,0.3207000218635019
-4470.632106542587,-496.0,2248.0,-19360.0,-8352.0,-7977.0,28871.0,-0.5740319598829313,0.4592656500192795,0.3876290316666296,-0.5561529515830338
-4470.647720575333,-3968.0,1552.0,-18900.0,-12087.0,-9986.0,16272.0,0.4694936219016646,0.5113866246898566,0.37195399999042095,-0.6162058754775861
-4470.663308620453,-1832.0,288.0,-19956.0,-16881.0,-12484.0,1985.0,0.8282672804139563,-0.37572686670504807,0.3245885042330519,-0.25970163024406606
-4470.6788737773895,2692.0,-2684.0,-21320.0,-18359.0,-12332.0,-1782.0,0.24551477475201502,-0.9327755387227487,-0.09588345600883044,0.24588341262223481
-4470.694436788559,5856.0,-3900.0,-22252.0,-15683.0,-9876.0,7652.0,-0.6341550202641816,-0.5562168641045305,-0.010507340381991873,0.5369914395570514
-4470.710023164749,3076.0,-4256.0,-20764.0,-15201.0,-8453.0,6892.0,-0.8893810019734764,0.3524074732466741,0.04151238861750966,0.2882483785207106
-4470.725604534149,392.0,-4988.0,-19788.0,-15536.0,-9378.0,135.0,-0.20336933892598127,0.9581737219263537,0.1998775515856813,0.024351487977556464
-4470.741193294525,1452.0,-4356.0,-19368.0,-15881.0,-9699.0,-5535.0,0.663634161647826,0.5916899296594388,0.40714469286984917,-0.20910745013392468
-4470.756786584854,3060.0,-4960.0,-19428.0,-15672.0,-8869.0,-4446.0,0.897077790456894,-0.3341273647121385,0.21508540934628703,-0.19325788135504032
-4470.7723734378815,2952.0,-4900.0,-18472.0,-14050.0,-8114.0,-4213.0,0.3208236966044295,-0.9311876321417084,-0.17261648213425068,-0.01285688683093676
-4470.787996768951,2140.0,-3868.0,-16492.0,-14201.0,-7668.0,-10866.0,-0.48771266479149467,-0.5956495256526755,-0.6365179204863903,0.046721901624432294
-4470.803590774536,1932.0,-3540.0,-16204.0,-14085.0,-6919.0,-12933.0,-0.7615812772823705,0.3684192885079795,-0.5262375381832066,0.08564601190426646
-4470.819309949875,1688.0,-3248.0,-16972.0,-13324.0,-6995.0,-10811.0,-0.3015959848245733,0.9482231936499517,0.09807485516836714,-0.017145254319653677
-4470.834898710251,1156.0,-3432.0,-15952.0,-12040.0,-6770.0,-9723.0,0.41446403271422533,0.6578257305384555,0.6168178781206812,-0.12255847199810133
-4470.850470781326,1360.0,-2684.0,-14944.0,-10950.0,-6269.0,-8781.0,0.7688515610264218,-0.16609839970676188,0.6045136761294763,-0.1258642685376342
-4470.866050481796,1320.0,-2492.0,-14388.0,-10567.0,-5767.0,-8933.0,0.49894918426344664,-0.8561712246856201,0.1241227582904057,-0.0511281372391787
-4470.881628751755,1444.0,-3672.0,-14412.0,-10408.0,-5285.0,-8984.0,-0.16070960487780114,-0.8782199597128006,-0.44865985944131,0.040080616115173565
-4470.897204399109,1692.0,-4720.0,-14352.0,-8426.0,-4840.0,-5170.0,-0.7051467527222037,-0.3899846222426596,-0.5817252497873564,0.11079614298078642
-4470.912800073624,2584.0,-5664.0,-14688.0,-5011.0,-2501.0,-403.0,-0.89676857037982,-0.033241926048182796,-0.4402124588144364,-0.030234031092279196
-4470.928456068039,2188.0,-5756.0,-14636.0,-1451.0,-2348.0,-1359.0,-0.9606572759754242,0.12213318984371042,-0.24804759813068236,0.026333839744278935
-4470.9440948963165,-736.0,-4284.0,-12232.0,-3373.0,-3129.0,-14649.0,-0.5733936072949586,0.4362517096997429,0.09714138725311182,0.6866351052632447
-4470.959737300873,-68.0,-4236.0,-12552.0,-4346.0,-4091.0,-26118.0,0.46867134725986787,0.26652999181814413,0.4073045565609768,0.7371647915654319
-4470.975336074829,8284.0,-7064.0,-16328.0,-2422.0,-23.0,-14480.0,0.8966865353347223,-0.21263488457471075,0.36145319742926535,0.14174360401609631
-4470.99094581604,9012.0,-7376.0,-17192.0,6407.0,5817.0,6421.0,0.5482594486267968,0.30532317285714344,0.7395656036751446,0.2433763648518618
-4471.006550312042,-584.0,-2760.0,-14752.0,9683.0,6368.0,265.0,-0.08898567571768898,0.45723819515725567,0.873714938027491,-0.1401320429952379
-4471.022186517715,-5676.0,-168.0,-15404.0,4958.0,2181.0,-19782.0,-0.33886567202034695,-0.5184550155545886,0.7733428081513193,-0.13533423163827332
-4471.037808418274,-324.0,-1380.0,-16944.0,4583.0,2999.0,-10658.0,-0.317574232893403,-0.9246962565234143,0.10258190999886568,-0.18319495493799906
-4471.053389549255,1468.0,72.0,-16600.0,9391.0,7157.0,10607.0,0.3195932210077761,-0.5711109594462169,0.35708508440104314,-0.6664703201078022
-4471.068965673447,-5808.0,2104.0,-13328.0,9703.0,7791.0,8082.0,0.6298859977168545,0.24722280136991084,0.2524475307399749,-0.6916608710823144
-4471.084540605545,-8404.0,412.0,-13372.0,3457.0,4066.0,-7107.0,0.029038365812410264,0.4158518478284098,0.3324967996155742,-0.8459727490965904
-4471.100109100342,-3528.0,-4708.0,-16640.0,5377.0,3068.0,-1899.0,-0.3441604600053055,0.5233015298089408,0.01083363152210918,-0.7794816990132624
-4471.115742683411,2760.0,-6368.0,-14060.0,9611.0,4058.0,3942.0,-0.37178865943140843,0.3688371800192482,-0.6770399704821893,-0.5170582227594116
-4471.131328582764,7280.0,-4756.0,-15732.0,11088.0,2480.0,4963.0,-0.24301287150744147,-0.11688454407828452,-0.9621742252789096,0.038775093117221125
-4471.146905422211,13056.0,30212.0,-32768.0,32767.0,9792.0,32767.0,0.1887700621516962,-0.8457006197718545,-0.17039207889124244,0.4691725320219275
-4471.162492275238,-6808.0,14188.0,-15312.0,-11063.0,26978.0,1832.0,-0.11020099178082329,-0.7885777831577535,-0.01592372503402309,-0.6047704161924313
-4471.178081035614,-32768.0,-32768.0,-32552.0,3266.0,-4683.0,-32768.0,-0.5280921346271102,-0.3327441247388728,-0.7811858614042613,0.0121940452199383
-4471.193658828735,15392.0,-1692.0,-22448.0,11315.0,-1715.0,-6391.0,-0.20360267588409442,-0.27427662084897636,-0.5763739505247898,0.742368745829827
-4471.209257602692,18788.0,-120.0,-6912.0,18886.0,17651.0,32767.0,-0.2611653702833413,-0.9005863404622099,0.2959864700125227,0.18201346737858698
-4471.224883317947,-8508.0,1408.0,-13848.0,12882.0,9225.0,16131.0,0.11620488926766614,-0.41774237247860097,0.7043361868038417,-0.5620482807596365
-4471.240508794785,-18484.0,-1344.0,-16248.0,7855.0,358.0,-26319.0,-0.35048943927754206,-0.746278823988472,-0.24517800804519826,-0.5100125627788852
-4471.256093978882,-5504.0,-6800.0,-16204.0,-10148.0,-2119.0,-32768.0,-0.7955003272618895,0.05404585613391921,-0.5892040330510542,0.13075504654639772
-4471.271716833115,10700.0,-8744.0,-19052.0,7176.0,-2230.0,-7589.0,-0.6270824545610977,-0.020718401907541796,-0.23177433143710618,0.7433834826594609
-4471.287296533585,14584.0,5860.0,-10416.0,6521.0,10986.0,17655.0,-0.7160161762874008,-0.6736034475157293,-0.17583829428019257,-0.05157640016835545
-4471.302893638611,-6060.0,-4472.0,-18292.0,414.0,9565.0,10269.0,-0.3151794719533535,-0.51481358027434,-0.10866175313941323,-0.7898237154131231
-4471.318520307541,-13544.0,-6304.0,-15984.0,3839.0,-2690.0,-20183.0,-0.7546391603379823,-0.2973495163542977,-0.5837031465845927,-0.037331481024678766
-4471.334146022797,2096.0,1124.0,-18244.0,-3241.0,1213.0,-25004.0,-0.3547472226887516,0.4933843826046862,-0.5382291588929177,0.5839825609672196
-4471.34973859787,4716.0,-5328.0,-17164.0,-964.0,3654.0,-12915.0,0.33496727231157747,0.6118877456851546,-0.09373100921303297,0.7103554117991835
-4471.365352630615,2884.0,-5148.0,-14968.0,3375.0,2764.0,-3569.0,0.35757158409597806,0.5102782954282188,0.3470441814501385,0.7009414808552623
-4471.380929470062,2100.0,-2596.0,-15352.0,-765.0,1370.0,-6282.0,0.6393248995821494,0.18508908038809058,0.5422910400690508,0.5127632328435734
-4471.396536588669,3600.0,-3624.0,-16084.0,-528.0,1540.0,532.0,0.5449523065708937,0.11075719940997097,0.589671004953705,0.5857029385779197
-4471.412110328674,1872.0,-3748.0,-17020.0,1213.0,3166.0,6781.0,0.019635180464933486,0.2965660862288377,0.6145709638326754,0.7307294619767262
-4471.427752971649,-2440.0,-800.0,-15024.0,1280.0,3286.0,-424.0,-0.15537897531655148,0.06356021008527912,0.6810614831020081,0.7127220565959685
-4471.443307876587,-2824.0,-2252.0,-15928.0,-2262.0,1051.0,-11701.0,0.3614700987353725,-0.46110398865926666,0.4089652548520069,0.6996212544560007
-4471.458885669708,2000.0,-4572.0,-15692.0,-2999.0,1173.0,-9866.0,0.5938569710809738,-0.7260896123790431,-0.09935630689915755,0.3320483352964486
-4471.474464893341,4508.0,-5612.0,-17920.0,-201.0,2693.0,2155.0,0.5187971846150307,-0.797933840015107,0.16354332896709242,0.2596240507823278
-4471.490060329437,2636.0,-1140.0,-16196.0,1930.0,3480.0,5508.0,0.41158982952141765,-0.6115425283980386,0.6437096413557549,0.20554183472157106
-4471.505650758743,-12.0,1320.0,-15680.0,1176.0,3149.0,1514.0,0.2570320282043753,-0.5148066317251238,0.8175023988566261,0.02446418346562468
-4471.521288871765,-376.0,-576.0,-13800.0,-3242.0,2010.0,-10301.0,-0.007456982906891438,-0.9577219122271131,0.2836675478291789,-0.04739044792517407
-4471.536909103394,2000.0,-4444.0,-16840.0,-2018.0,1907.0,-3891.0,-0.22071448865175713,-0.9643464011531616,-0.03178634166680361,-0.14251582917549968
-4471.55256819725,3328.0,-4936.0,-16384.0,-2263.0,3139.0,-207.0,-0.3834261775277542,-0.8348185426673318,-0.07720017591420174,-0.38743063901047303
-4471.568164110184,2284.0,-3896.0,-16352.0,624.0,4579.0,3414.0,-0.17114126350876227,-0.6472614856867864,-0.0024690454925122216,-0.7428035681696166
-4471.583789348602,380.0,-4524.0,-15520.0,-3596.0,4829.0,-5183.0,-0.5828195193590667,-0.22984550875855495,-0.11028569138308517,-0.7715759951124338
-4471.599378108978,1424.0,-6268.0,-18820.0,-779.0,3441.0,-243.0,-0.5557889992455223,0.04161687162567375,-0.22711015877470683,-0.7986160529910981
-4471.614959716797,3424.0,224.0,-17096.0,2550.0,3583.0,3308.0,-0.2374273329904031,0.09194611679322683,-0.5326476656887291,-0.8071311153660591
-4471.630563497543,3072.0,4960.0,-14972.0,824.0,3714.0,-1358.0,-0.15745579256117517,0.3768002923533457,-0.6196170262066568,-0.670301390350777
-4471.646169424057,1700.0,1636.0,-16276.0,-3267.0,191.0,-9540.0,-0.44866237844506557,0.7122653559073514,-0.08832104131000629,-0.5325218555177871
-4471.6617748737335,3672.0,144.0,-15188.0,842.0,-1311.0,-5969.0,-0.6941880677674727,0.5851898866075658,0.25968377414647875,-0.32896817570477505
-4471.677379608154,5536.0,1348.0,-17172.0,-1442.0,467.0,-2067.0,-0.6736341020873688,0.6238466535378572,0.36937150762369714,-0.14351703289281711
-4471.692947626114,2604.0,-1588.0,-16680.0,1928.0,1548.0,3148.0,-0.7447630225096012,0.5962593712757913,0.07835604226236262,-0.2892458005038968
-4471.708530902863,-732.0,-1132.0,-15332.0,1879.0,-268.0,-4792.0,-0.8768973596963264,0.39662117715032874,0.27152450767691705,-0.0041357132766334246
-4471.724160909653,1472.0,-1140.0,-14184.0,72.0,-77.0,-8444.0,-0.7087887559020127,0.15395353955987806,0.4587151910747011,0.5133197645144422
-4471.73977971077,3344.0,-2984.0,-15652.0,-1521.0,1036.0,-4700.0,-0.4751707141167092,0.012487625920665931,0.3568289229454186,0.8041952321384993
-4471.75535941124,1636.0,-5988.0,-14984.0,-1050.0,1749.0,-5809.0,-0.10640437142520336,-0.21800599568678386,0.1913125272419561,0.9510788676584697
-4471.77094578743,460.0,-7680.0,-19712.0,-352.0,857.0,-2121.0,0.04774562601142687,-0.31519865967480226,0.11153200595148359,0.9412389557303837
-4471.786570072174,2788.0,-3024.0,-14680.0,2206.0,669.0,-4099.0,0.4058018300507977,-0.37110077547023923,0.16908995451422928,0.817935007476258
-4471.802175045013,4380.0,-688.0,-14968.0,-2611.0,2761.0,-5452.0,0.579223610734108,-0.6412849456131612,-0.083044821063456,0.49634381732082233
-4471.817853689194,2696.0,-4276.0,-16520.0,-2703.0,1607.0,-4859.0,0.5800911186110047,-0.7252034878626445,-0.34889239808955336,0.12588999108669893
-4471.833428621292,3096.0,-3024.0,-17740.0,-47.0,498.0,-1096.0,0.6007609424628629,-0.6960081113975017,-0.3915066794398822,0.037168788438320076
-4471.849002122879,4272.0,1512.0,-14668.0,2203.0,1444.0,2561.0,0.7383954554475051,-0.6407595669933498,-0.14594626118718962,0.1513242132854065
-4471.864577770233,3464.0,1128.0,-15764.0,-3918.0,2378.0,-3577.0,0.532015404720453,-0.7840657401991811,-0.21808855280801434,-0.23374752901399626
-4471.880151748657,1808.0,-3968.0,-16628.0,-1742.0,270.0,-3696.0,0.3223825889371203,-0.7432366747680774,-0.3982607696647514,-0.4301826018982294
-4471.895794391632,3684.0,-3444.0,-16548.0,-860.0,-221.0,-3205.0,0.13301613644533036,-0.6381860606720017,-0.5571238620272374,-0.5144300358347722
-4471.9113919734955,5468.0,-1740.0,-14748.0,-1883.0,2403.0,628.0,0.1671313519532407,-0.5624721991165066,-0.39545980310535606,-0.7066142374331246
-4471.927156686783,3380.0,-4272.0,-17328.0,-4204.0,2896.0,2361.0,0.18522867682803906,-0.4730484237994494,0.019590061459907698,-0.8611223812637712
-4471.94278049469,1852.0,-4176.0,-17544.0,542.0,1618.0,3724.0,0.4564033675384493,-0.31698326907710667,0.14955028444841842,-0.8178338985675213
-4471.958398580551,3296.0,980.0,-15716.0,347.0,2096.0,2415.0,0.5882234027472331,-0.11781715448631518,0.2648949286616908,-0.7549457088682151
-4471.974029779434,2920.0,2612.0,-15084.0,-886.0,2113.0,1046.0,0.5851253406364108,-0.0001102002274270657,0.43238578316247134,-0.6860545591423548
-4471.989668130875,3072.0,1360.0,-14996.0,-2211.0,836.0,-3573.0,0.31799873695412517,-0.18529359061619696,0.5691866583080486,-0.7352344092711216
-4472.0053424835205,4052.0,164.0,-16660.0,-845.0,183.0,-1794.0,0.17735242764203665,-0.2820164664571366,0.5908192437961457,-0.7348098054712235
-4472.020965099335,4548.0,-856.0,-16452.0,-1956.0,612.0,-2112.0,-0.03667416810963831,-0.37006322411247905,0.6527081619766623,-0.6600608084426696
-4472.036562681198,3356.0,-2520.0,-15408.0,-512.0,177.0,-68.0,-0.06713887163553138,-0.3618118718117693,0.6788330998351277,-0.6354291179193814
-4472.052111625671,2520.0,-3104.0,-17348.0,-446.0,-633.0,-215.0,-0.0554869937510954,-0.40612837668458246,0.698932729011745,-0.586066528213484
-4472.067732095718,2844.0,-1376.0,-15032.0,1569.0,-1101.0,-336.0,0.049373760119456524,-0.48372299902894544,0.6036391823921304,-0.6318180351201359
-4472.083317995071,4304.0,-64.0,-16560.0,-270.0,-202.0,1784.0,0.14509318088768688,-0.39725815210773385,0.6845526831791053,-0.5937352553083984
-4472.0988945961,3508.0,96.0,-15784.0,1820.0,95.0,3847.0,0.37660038778558824,-0.1308866504303462,0.6796368249718736,-0.6157390833794942
-4472.114467144012,2516.0,608.0,-16092.0,-216.0,22.0,-443.0,0.34855482010088473,-0.16300146255760775,0.6864899942871747,-0.6169858574814462
-4472.13009595871,2272.0,-1760.0,-15996.0,1156.0,-712.0,-1053.0,0.34694348889036963,-0.2268189123225297,0.5813500152933582,-0.7001539518190372
-4472.145694494247,3476.0,-1548.0,-15484.0,-370.0,238.0,-3270.0,0.12263574559170387,-0.37429960074974183,0.5252938927749339,-0.754272237985137
-4472.161351680756,3004.0,-3264.0,-16628.0,430.0,792.0,-641.0,0.05787163820570025,-0.34551077616266596,0.4824891307756522,-0.8027935075286895
-4472.176936864853,2588.0,-2356.0,-16240.0,1331.0,645.0,-87.0,0.06419329939820652,-0.2949895502443019,0.3868820405613109,-0.8713108929940868
-4472.192522764206,3300.0,-1500.0,-16020.0,1500.0,704.0,-163.0,0.06592417716944157,-0.23629286117964698,0.26996168493519834,-0.9310963297570326
-4472.208110332489,3636.0,-376.0,-15772.0,2028.0,426.0,281.0,0.1185517055275316,-0.1806644974590646,0.11177317320197264,-0.9699549423693551
-4472.22376036644,3264.0,256.0,-15084.0,2847.0,193.0,-166.0,0.14309798114602354,-0.1327398004339966,-0.12587667625822238,-0.972655219256473
-4472.239352464676,2564.0,2076.0,-17116.0,2907.0,57.0,-60.0,0.1669926340750271,-0.08836558765369212,-0.3613522579177516,-0.913087908572359
-4472.254940032959,2700.0,6740.0,-13516.0,6392.0,-711.0,-5090.0,-0.1721379344313065,0.08826643425596215,-0.7484806807829479,-0.6343139905505443
-4472.270517587662,4348.0,6312.0,-12688.0,-5753.0,903.0,-26422.0,-0.5972215531020576,0.7607016867837427,-0.0937234662004985,-0.23637950866794477
-4472.286136388779,3056.0,-9104.0,-21224.0,-5685.0,-152.0,-20034.0,-0.30570329069387797,0.5871074399582038,0.656270707700827,0.36215895711484797
-4472.301736831665,3856.0,-14260.0,-21216.0,5375.0,-1176.0,-4067.0,-0.3307314550516206,0.21299605802742008,0.9151716628487365,0.08780780957805562
-4472.317353487015,5900.0,-2336.0,-16268.0,11262.0,3549.0,8756.0,-0.5473741176830508,0.34434639126500477,0.45274183501908044,-0.6138664096829421
-4472.332945823669,1212.0,2240.0,-13296.0,1200.0,3533.0,-9037.0,-0.9182434359284944,0.09080446499688066,0.3738874116378695,-0.09376430519978099
-4472.348534107208,236.0,-6040.0,-16588.0,-1583.0,-3151.0,-17849.0,-0.5056750446492362,-0.2080169816532879,0.41624035262690917,0.7264748126451978
-4472.364125967026,9440.0,-4108.0,-17276.0,3110.0,-2269.0,-3925.0,-0.10633892835569082,-0.31007686219608205,0.5793241670078932,0.7462760088381549
-4472.37974357605,10808.0,796.0,-15928.0,4041.0,3904.0,11417.0,-0.62762617637027,-0.016444464972258776,0.746335601232395,0.22090299373184275
-4472.395330667496,500.0,-412.0,-16068.0,2423.0,3215.0,4471.0,-0.8141513927992368,0.0708944496381901,0.5521469890913214,-0.16512174009181543
-4472.410911083221,-3052.0,-1360.0,-14872.0,3000.0,-1984.0,-10808.0,-0.633095699190151,-0.4904732009377177,0.5085108794136085,0.31629505267525393
-4472.426514387131,5116.0,-656.0,-15136.0,117.0,-1322.0,-11679.0,-0.172357753507957,-0.6833058103315456,0.05941362475512771,0.7070049473421648
-4472.442088842392,7916.0,-2712.0,-15808.0,659.0,1884.0,578.0,-0.17557501239846435,-0.7936952829369958,0.1045165405837932,0.5729725173245551
-4472.457688093185,3640.0,-4572.0,-15140.0,1105.0,1313.0,74.0,-0.11332697907264963,-0.8660804332738552,0.14316855335158019,0.4653648506770298
-4472.473344087601,2096.0,-3932.0,-15016.0,658.0,-718.0,-5211.0,0.1426115292521546,-0.8246926755091425,-0.19684053676133412,0.5106836063292455
-4472.4889187812805,5224.0,-2664.0,-15264.0,-847.0,-349.0,-4300.0,0.2495647646843752,-0.6964260895853058,-0.5120937820235562,0.4364264982626082
-4472.504510641098,6044.0,-3576.0,-15892.0,-1039.0,779.0,1493.0,0.16195706232514417,-0.8036123762707896,-0.43762408025575816,0.36940793582126225
-4472.520121097565,4376.0,-2868.0,-15164.0,-683.0,1500.0,3704.0,0.04896286250000203,-0.9457074319897327,-0.16853974914035494,0.2735588494911049
-4472.5357184410095,2988.0,-1696.0,-16560.0,-77.0,469.0,2063.0,0.00026970042675990264,-0.9712170928550174,0.001824127620360794,0.23818891318941177
-4472.551313877106,3360.0,140.0,-14684.0,-2549.0,-582.0,-3588.0,-0.13158341067060533,-0.8950080415756779,-0.3313042503448001,0.26811174024020346
-4472.566878318787,4820.0,-1928.0,-15428.0,-3908.0,-927.0,-3589.0,-0.3434631877263319,-0.6559079669202219,-0.6267180564084187,0.24298612178291487
-4472.582474708557,5328.0,-3024.0,-15320.0,-2794.0,-859.0,-1001.0,-0.5106981834528628,-0.4820631785309961,-0.692899397939616,0.16337956315725863
-4472.598064899445,5068.0,-2880.0,-15376.0,-3151.0,-6.0,-155.0,-0.6181830307427667,-0.3203269951248012,-0.7175414874924397,-0.01935382192591703
-4472.613648891449,4956.0,-3988.0,-14980.0,-6516.0,1223.0,-621.0,-0.626487715586209,0.0623701917231423,-0.6831003475453258,-0.37013108027757796
-4472.629240989685,4768.0,-6504.0,-19364.0,-5541.0,420.0,7923.0,-0.24080043914947308,-0.07135125285710447,-0.43579078742507765,-0.864297713069156
-4472.644855737686,4812.0,-484.0,-18328.0,3582.0,948.0,17170.0,0.6079155315410671,-0.39787236493458644,-0.3383142446401288,-0.5980633407976785
-4472.660462617874,3856.0,6968.0,-14096.0,-259.0,2837.0,6521.0,0.8690282254539632,-0.3875755062640715,0.04405288309577317,-0.3043591855019896
-4472.676073312759,1096.0,3036.0,-14076.0,-8058.0,724.0,-7254.0,0.2908402292654348,-0.7310783293093884,0.049050946307933156,-0.6152482768129619
-4472.6916399002075,2328.0,-4496.0,-17016.0,-5585.0,-2210.0,-7414.0,-0.3489475680972229,-0.7864442364156552,-0.13840991836636582,-0.4904933763318798
-4472.707263469696,5856.0,-2356.0,-17284.0,-609.0,-1785.0,303.0,-0.3936763158171368,-0.8365972500556151,-0.03665236537146246,-0.379184128988418
-4472.722843885422,6172.0,492.0,-15116.0,-186.0,0.0,3631.0,-0.2734261942484417,-0.8025474148700981,0.22363537092891975,-0.48077331878300056
-4472.738450288773,3712.0,-492.0,-15512.0,-2289.0,-1273.0,281.0,-0.38684424363454656,-0.7757779501727715,0.36037878849097893,-0.3444520750384914
-4472.754031896591,3488.0,-2120.0,-16220.0,-1939.0,-2556.0,187.0,-0.4158027682527021,-0.7523514852994538,0.4984645449285173,-0.11228712272697045
-4472.769601583481,4828.0,-1904.0,-15968.0,-517.0,-1991.0,4189.0,-0.298017298962382,-0.5287695888036759,0.7880344928975553,-0.10290796606313023
-4472.7851893901825,4444.0,-744.0,-15776.0,-680.0,-1554.0,4810.0,-0.16355861253257828,-0.1775179260983977,0.965259344397215,-0.10005180774978784
-4472.800784111023,3208.0,-664.0,-16052.0,-1084.0,-1980.0,3692.0,0.017677636267392965,0.12312821216583378,0.9918214159128171,-0.028587120903262177
-4472.816369771957,2868.0,-300.0,-15732.0,-1321.0,-2643.0,1114.0,0.25367147413631363,0.2033485415370521,0.9439527689297683,0.05703791628458105
-4472.832085609436,4488.0,-676.0,-16044.0,-2302.0,-2716.0,2486.0,0.4728210516470137,0.3467008205594558,0.7746257694505218,0.2370521281195322
-4472.847707033157,4464.0,-1900.0,-16264.0,-1061.0,-2424.0,5402.0,0.4929999531936602,0.6360635564226372,0.43327735262074024,0.40576462887738024
-4472.863324165344,3340.0,-1532.0,-15924.0,-806.0,-2345.0,5775.0,0.369721849210069,0.7917077249995726,-0.01458977142371203,0.48609851981104824
-4472.87891459465,2192.0,-608.0,-16148.0,-14.0,-2883.0,4596.0,0.15533863094105552,0.8205242745529904,-0.38478059361180394,0.3931332081958927
-4472.894504070282,2196.0,-912.0,-15964.0,-2011.0,-3060.0,-318.0,0.19744081908457614,0.8655383539867113,-0.4499342696143633,0.09705479773702862
-4472.910082578659,3804.0,-1936.0,-17040.0,-440.0,-2920.0,4016.0,0.07490638059286862,0.6648277533560011,-0.7403311849671933,-0.06559595322243574
-4472.92576956749,4680.0,-824.0,-16116.0,674.0,-2083.0,7668.0,-0.04502712201427456,0.13285647524728514,-0.9871992240467063,-0.07589075905246744
-4472.941400051117,3804.0,-524.0,-16100.0,516.0,-1261.0,11362.0,-0.0595296699413397,-0.6059836435674277,-0.7906562066914128,-0.0640531415760848
-4472.956985473633,1868.0,-900.0,-16432.0,995.0,-1734.0,9100.0,-0.05849127530758963,-0.9688981113436768,-0.2374042511928783,0.03813714807240612
-4472.972569704056,1904.0,-400.0,-16448.0,1762.0,-1703.0,9000.0,0.019760349360684888,-0.8986278841399546,0.41735919677104466,0.13374885162094097
-4472.988142967224,2440.0,-72.0,-15892.0,705.0,-1529.0,6995.0,0.041511335675965655,-0.5291715705737012,0.8228200084679135,0.2030307650870247
-4473.003759860992,2632.0,-1300.0,-15824.0,-303.0,-1132.0,8198.0,-0.029623649126874013,0.06358120290711684,0.9661177683317883,0.2483874549225401
-4473.0193564891815,2932.0,-2896.0,-16416.0,834.0,-530.0,12799.0,-0.17784352334285194,0.7671643282177169,0.6090348795063758,0.09437738214166567
-4473.034996986389,3388.0,-956.0,-16984.0,3930.0,-708.0,17000.0,-0.2979312092548767,0.886379229134454,-0.26643517653151916,-0.23362609746677804
-4473.0506501197815,3372.0,1128.0,-15976.0,2585.0,790.0,16964.0,-0.07404103498887236,0.24468454217531826,-0.916721609332123,-0.3070323939615397
-4473.066237926483,1112.0,-596.0,-15944.0,1030.0,174.0,12773.0,0.17344598371658962,-0.5193218352270065,-0.8120304008155974,-0.20205927432389412
-4473.081801891327,28.0,-2088.0,-16384.0,1464.0,-1932.0,7860.0,0.19604248750962996,-0.8840456712448073,-0.4150455394956553,0.08813509170083748
-4473.097390174866,2212.0,-712.0,-15544.0,613.0,-2135.0,7124.0,0.09300696176586401,-0.9345731075354883,0.08605831259814006,0.33244063916330197
-4473.112992763519,3212.0,-1080.0,-15824.0,-369.0,-1351.0,8464.0,-0.13813050994907525,-0.6683681458798516,0.6041745003892884,0.4113115083166183
-4473.128593921661,1928.0,-2120.0,-16552.0,438.0,-1519.0,9988.0,-0.2931143866372745,-0.0694172105270887,0.9154042051541318,0.2670212508678372
-4473.1441695690155,1512.0,-788.0,-16096.0,1333.0,-1956.0,8241.0,-0.25670262300208313,0.48069491851236684,0.8379014745624829,-0.0309399028158828
-4473.159775972366,712.0,-556.0,-15364.0,-864.0,-2083.0,2583.0,-0.05830454715610535,0.654618673233382,0.7458977850471996,-0.10821953010787844
-4473.175333499908,200.0,-3748.0,-17264.0,-1475.0,-2903.0,1085.0,0.21556218489297493,0.6757068114653528,0.6827335852051958,-0.17557932969558995
-4473.190886259079,1688.0,-3204.0,-16248.0,785.0,-3772.0,2109.0,0.39785596981794547,0.7082001080450141,0.44399768495128833,-0.3781921337140009
-4473.206466436386,2784.0,-824.0,-16440.0,329.0,-2150.0,6253.0,0.5775704865167347,0.7716099446356501,-0.024148996285475552,-0.2654190129259688
-4473.222050666809,1000.0,-688.0,-16376.0,2106.0,-1806.0,5939.0,0.4941339281038005,0.7148899158031198,-0.4894463739658639,-0.07215480851186576
-4473.237647771835,-120.0,1044.0,-15776.0,339.0,-2711.0,590.0,0.3503397197839126,0.6677719954291463,-0.6269672304035437,-0.19558817669382614
-4473.25324010849,424.0,60.0,-15108.0,-995.0,-3459.0,-4499.0,0.12688689271990983,0.7366905947639253,-0.4053114430388833,-0.5262217386083533
-4473.268867015839,724.0,-1352.0,-16188.0,-2114.0,-3383.0,-5923.0,-0.10943699591458322,0.6514889029059026,0.029722992718879716,-0.7501348525561844
-4473.284465312958,408.0,-3904.0,-17160.0,-794.0,-4029.0,-5000.0,-0.3319350312255464,0.3331783765390242,0.3522596963766445,-0.8091504252985041
-4473.300061941147,844.0,-2540.0,-16452.0,30.0,-3607.0,-4406.0,-0.47732019989170443,-0.05162221799170685,0.522062274315282,-0.7049479095094299
-4473.315654754639,508.0,-1396.0,-16324.0,-1187.0,-3881.0,-5950.0,-0.568734963913763,-0.43347158556762044,0.6182034147113483,-0.32629352332942857
-4473.331298828125,104.0,-2224.0,-15812.0,-1887.0,-4205.0,-7866.0,-0.4984660157910895,-0.6917447755967809,0.45641781632193357,0.2543689711419889
-4473.3469026088715,452.0,-1900.0,-16516.0,-2032.0,-5353.0,-7789.0,-0.17945076674693666,-0.6075988711090897,0.13305020205446966,0.7621802135152559
-4473.362494468689,1684.0,-24.0,-15976.0,-1534.0,-5212.0,-5653.0,0.14508106634465442,-0.24991504911100063,-0.15438301308149785,0.9448067726726044
-4473.378081560135,1528.0,692.0,-15132.0,-2830.0,-4650.0,-8150.0,0.5264202467517612,0.15747269590736432,-0.4746206854739911,0.687618556158631
-4473.393671512604,-468.0,-1948.0,-17176.0,-3360.0,-6091.0,-10140.0,0.6330678394073455,0.5376239212466601,-0.5569425312781233,-0.0008042791784950277
-4473.409308195114,760.0,-3632.0,-16700.0,-3193.0,-6809.0,-10735.0,0.2967876880527428,0.5809169547626538,-0.2826207372631762,-0.7032624536817045
-4473.424912214279,1240.0,-5456.0,-17972.0,-2259.0,-7179.0,-5996.0,-0.10253424837785535,0.17606778761300296,-0.01990867067973387,-0.9788209779660512
-4473.440557479858,2380.0,-5416.0,-16576.0,-1926.0,-5958.0,-1594.0,-0.19120341586809494,-0.27236213095978556,0.1939638017171872,-0.9228424388826257
-4473.456131696701,1224.0,-5436.0,-17052.0,-1303.0,-6579.0,3491.0,0.14218527807387407,-0.6021667058620046,0.4105175483320145,-0.6698163536088302
-4473.471738815308,2024.0,-2936.0,-15904.0,-2137.0,-5506.0,4449.0,0.4092744034659167,-0.6648353353929676,0.5889755184467497,-0.2087972177758138
-4473.4873168468475,788.0,-4144.0,-17356.0,-4505.0,-4869.0,4559.0,0.3935580723544381,-0.556645600647207,0.6233189181653902,0.3830551464500855
-4473.502886295319,1196.0,-4836.0,-17220.0,-3874.0,-5023.0,2227.0,0.3485143929053447,-0.3457333187268371,0.3705574862763592,0.7884753259452651
-4473.518461465836,3124.0,-2824.0,-17804.0,-4450.0,-3233.0,9040.0,-0.2228531909253125,0.024638693115254046,0.17555752375316253,0.9585973846978909
-4473.534030199051,264.0,-3984.0,-16148.0,-3044.0,-2245.0,14232.0,-0.8428825484110997,0.30085604566386853,-0.04043469705590442,0.44429684293893823
-4473.549612283707,-2356.0,-1720.0,-15008.0,-3641.0,-3274.0,8956.0,-0.8258158700202737,0.4960001349719536,-0.1314485305509664,-0.2339514880193196
-4473.565197467804,-1568.0,-876.0,-15624.0,-6543.0,-3132.0,5284.0,-0.37039865939660005,0.6638252137555937,-0.0007570047700542126,-0.6497232839011696
-4473.580795288086,-1088.0,-3072.0,-15996.0,-5953.0,-3254.0,7501.0,0.299599173996068,0.5034639076167601,0.005588438452416903,-0.810390768718277
-4473.596378803253,-704.0,-2248.0,-16048.0,-4221.0,-3176.0,11393.0,0.8710919367389153,0.11751886291340877,-0.18837460764004305,-0.4380675311004514
-4473.612012147903,-720.0,188.0,-15540.0,-4652.0,-2655.0,10450.0,0.8902210479698031,-0.35564705280534264,-0.22335094441585251,0.1764540031026962
-4473.627637863159,-1208.0,-316.0,-16692.0,-6402.0,-2333.0,5933.0,0.4354244563443448,-0.7325534058204218,-0.2506057063536356,0.45931234512162566
-4473.643237352371,-1636.0,-3728.0,-18076.0,-6886.0,-3453.0,1456.0,-0.11453769507328604,-0.7327067957277162,-0.46611219731441383,0.4824534043992751
-4473.658828496933,2280.0,-3112.0,-19704.0,-4344.0,-2326.0,4451.0,-0.5833598462569799,-0.6684375566536644,-0.29528382032294276,0.35452783823756306
-4473.674425601959,3724.0,-2112.0,-18744.0,-3191.0,-237.0,11520.0,-0.7831698145542445,-0.5505843767680315,0.20066439112799084,-0.2079319306005246
-4473.690025091171,1036.0,-9212.0,-16452.0,-2495.0,738.0,-3812.0,-0.9137363324608266,-0.40220189038234416,0.011572342008229921,0.05644142994601652
-4473.705597400665,3412.0,-10064.0,-20932.0,5939.0,1413.0,3844.0,-0.6138755211155406,-0.7438801370796579,0.053446856399520015,-0.2587327187938973
-4473.721174240112,4612.0,-2336.0,-17956.0,10100.0,3883.0,8402.0,0.13704453283032475,-0.7430677812292095,0.10449497802440867,-0.6466450866496213
-4473.736786365509,3288.0,-936.0,-16136.0,4946.0,5371.0,-4046.0,0.1458474284689815,-0.3378752672656802,-0.3012756508676846,-0.8796600556882093
-4473.75235247612,3360.0,-8380.0,-14704.0,3264.0,4319.0,-17220.0,-0.5178867747876464,0.2614015007737674,-0.5384753510718985,-0.6111520597864882
-4473.767975568771,9736.0,-10528.0,-15532.0,3648.0,4754.0,-19671.0,-0.6944724310161937,0.6204004231285203,-0.24296001234868225,0.27162803599764723
-4473.7835738658905,12920.0,-12756.0,-18932.0,6460.0,8493.0,-12634.0,-0.32151396007961186,0.16843104097568667,0.045272274606348854,0.9307041307857937
-4473.799168109894,12160.0,-14072.0,-18348.0,9862.0,10562.0,-15886.0,0.3681878131322121,-0.484264607708,0.3687938377160791,0.7027920241757035
-4473.814812898636,12876.0,-10400.0,-18884.0,11705.0,12972.0,-18744.0,0.6510536575446304,-0.6152138636127052,0.2903577057968852,-0.33665032259134464
-4473.83047413826,14640.0,-5928.0,-19100.0,10975.0,17213.0,-15399.0,0.14375196110878843,0.05054057671454844,0.04871139533414108,-0.9871211798696954
-4473.846065044403,12032.0,-5440.0,-20192.0,10963.0,22461.0,-10826.0,-0.36172207289035974,0.8053691313417992,-0.21951206474279816,-0.4151531737780775
-4473.861656188965,6360.0,-7636.0,-20012.0,12488.0,24032.0,-7617.0,-0.3979005751555223,0.5385713880455262,-0.33764361774063495,0.6615230756886987
-4473.877252578735,876.0,-7208.0,-19184.0,14961.0,22846.0,-9722.0,0.04904071173148162,-0.37247372685737873,0.06966672497565632,0.924123843878628
-4473.892877101898,-556.0,-3288.0,-17072.0,13643.0,21821.0,-13097.0,0.5222825616211275,-0.7943642933442132,0.3089112977210212,0.02793036746153461
-4473.908493041992,-1308.0,-1516.0,-15996.0,11075.0,21307.0,-11965.0,0.2924452274506503,-0.26091363308701115,0.18762792561210428,-0.9006639920309751
-4473.924136161804,-3696.0,-1840.0,-15672.0,9919.0,19766.0,-8909.0,-0.21902820933978703,0.6064196053693476,-0.12569019900973713,-0.753978699705757
-4473.939832448959,-5804.0,-832.0,-15108.0,10451.0,17672.0,-5546.0,-0.44732119206755616,0.7733560863101389,-0.40678617062452355,0.19065446830054053
-4473.955447673798,-7508.0,1584.0,-14252.0,9871.0,15550.0,-1541.0,-0.28228605114096555,0.09698539663651816,-0.3929642471294543,0.8697629094462919
-4473.971056461334,-9052.0,3512.0,-13132.0,8300.0,12434.0,-1814.0,0.1280773033519299,-0.5990291464619727,-0.03278271641941116,0.7897376650251036
-4473.987243652344,-10488.0,5408.0,-13504.0,6051.0,8399.0,-3862.0,0.5286754563227379,-0.7913941049541194,0.1988916479694972,0.23375145966130484
-4474.002993106842,-10084.0,6072.0,-14572.0,2227.0,3712.0,-7996.0,0.6117835254550915,-0.7076258727240632,-0.10694987128019585,-0.33696923786363203
-4474.018654823303,-7504.0,4752.0,-16612.0,-310.0,-292.0,-7040.0,0.3259058217589339,-0.5682231815365226,-0.46686819465433627,-0.5940891348344515
-4474.034237623215,-3784.0,4624.0,-18308.0,-444.0,-1552.0,4061.0,0.42142523265376763,-0.7726178170582761,-0.2679569021714392,-0.391996914051001
-4474.049843072891,-3124.0,5724.0,-18364.0,-251.0,-2751.0,11705.0,0.5107120330401433,-0.7931487135617875,0.2956647050069302,0.15056799027831227
-4474.065427541733,-2208.0,6176.0,-17348.0,-3574.0,-2523.0,6336.0,0.20324702125260355,-0.6273912994563279,0.47717044287668375,0.5808435022992969
-4474.081007480621,-2984.0,9024.0,-27216.0,-205.0,1287.0,32767.0,-0.5022596375270567,0.2203652598428464,0.7533477791105009,0.3628243824150473
-4474.096605539322,-10664.0,2192.0,-18032.0,-2096.0,875.0,32767.0,-0.5128003704871569,0.8033496119069872,0.0061100693277457195,-0.30270092191788583
-4474.1121962070465,-12740.0,5852.0,-15544.0,-1729.0,-3200.0,24571.0,0.10868805704218167,0.3390268812498658,-0.6399313601384722,-0.680981302502286
-4474.127880334854,1404.0,5932.0,-18620.0,-19068.0,-9188.0,-14170.0,-0.2799736736489911,0.1655892779881012,0.3385282051524327,-0.8829459708244555
-4474.143481016159,11864.0,-19076.0,-21436.0,-29197.0,-3613.0,-12445.0,-0.23980914884272594,0.07863435599697945,0.964468887005411,0.07815354238172065
-4474.159097194672,3272.0,-32768.0,-32768.0,7752.0,2856.0,32767.0,-0.24301917661389097,0.8525570721179471,0.23525047343521024,-0.3984285799589302
-4474.174691438675,6636.0,9952.0,-28204.0,32767.0,7090.0,32767.0,-0.4005818134464159,0.2557151558041375,-0.8292689991181321,-0.2940355368482827
-4474.190275669098,9012.0,32348.0,13708.0,-4110.0,15304.0,26915.0,0.5130150751248759,-0.3981146306105746,-0.640369113213912,-0.41018004879571107
-4474.205875635147,-29124.0,-28304.0,-14568.0,-13948.0,-5380.0,-32768.0,-0.4382145252187008,0.1867900251786397,-0.46092693208365426,-0.7487482084526562
-4474.221498250961,12988.0,2112.0,-14704.0,-16713.0,-15774.0,-32768.0,-0.8096136797961464,0.3064161638931566,0.4867826744615904,-0.11695063845899435
-4474.237124204636,21824.0,-5660.0,-22256.0,-13229.0,-439.0,-957.0,-0.29206002544940685,0.7815620110435171,0.44350932965858425,0.32735491279939344
-4474.252732753754,6748.0,-13252.0,-21172.0,1246.0,4712.0,29047.0,-0.5036922766206969,0.6307104552110175,-0.588147748232904,-0.05079998433793832
-4474.268306255341,-8388.0,-3084.0,-12636.0,4176.0,-2272.0,2640.0,-0.7572946974845784,0.27257522037579945,-0.5893101990347563,-0.07014969502742471
-4474.283884763718,-6404.0,3104.0,-10784.0,-12686.0,-5886.0,-32768.0,-0.29355230980939523,0.8451414649186952,0.20101553311304518,0.39894323045757873
-4474.29946064949,2088.0,-4852.0,-14844.0,-18712.0,-8297.0,-32768.0,0.6747345549843868,0.29536368877497965,0.6195473841456443,0.2713938290778702
-4474.315097332001,10328.0,-7224.0,-18036.0,-10385.0,-5518.0,-20865.0,0.7487059578720876,-0.5669423269781749,0.2531502614552494,-0.23222991119266037
-4474.330722093582,10272.0,-4592.0,-16304.0,-5382.0,-1113.0,-2487.0,0.4038258760131817,-0.8815190074565411,0.14724032330132739,-0.19536936440788685
-4474.346313238144,3168.0,-2716.0,-16136.0,-6460.0,-1318.0,-4162.0,-0.12184853888590026,-0.9798114554339428,-0.09029767373210829,-0.13026425254212942
-4474.361910104752,-220.0,-2600.0,-15592.0,-7745.0,-4868.0,-16233.0,-0.5273945948874255,-0.43214424050805145,-0.7012046995381495,0.2083705018107443
-4474.377530097961,3552.0,-2148.0,-16248.0,-7084.0,-5026.0,-15668.0,-0.4402112425596162,0.5086991075546089,-0.6410958606841982,0.36937159786704
-4474.393157243729,5740.0,-1916.0,-16368.0,-6548.0,-3256.0,-10746.0,0.009889460249520006,0.9697346842842449,-0.16539139832093958,0.179339136926531
-4474.408749103546,4808.0,-2840.0,-14820.0,-9451.0,-7652.0,-2736.0,0.502060376693014,0.7586360419702168,-0.05985308840551592,-0.4108823941068221
-4474.42432308197,3944.0,-2288.0,-14852.0,-2143.0,-1364.0,215.0,0.6290287349824807,0.6002613500733391,-0.05569092040830647,-0.49082347494649037
-4474.439954519272,1232.0,-1668.0,-15024.0,-2704.0,-2191.0,-5507.0,0.45554977133894314,0.33471333157061495,0.19849626069079648,-0.8006501270803045
-4474.455534696579,1392.0,-672.0,-15372.0,-1100.0,-4512.0,-6883.0,0.06870476324210323,-0.11601794641198859,0.24068197770214592,-0.9611928408116528
-4474.471112728119,10008.0,252.0,-17256.0,-3043.0,1403.0,10696.0,0.6473764767670848,0.14854549506861636,0.4380734208216757,-0.6057471512050642
-4474.4866852760315,8288.0,-3836.0,-17524.0,3976.0,5474.0,30142.0,0.6885482654729482,0.6311799258063658,0.05099309592259469,0.35343017916060016
-4474.5022575855255,192.0,-2720.0,-15988.0,8007.0,3232.0,22848.0,-0.20037731923087168,0.4733532030817893,-0.3254795726626761,0.7936300919505141
-4474.517849445343,-2040.0,1608.0,-13344.0,-1263.0,-1472.0,-1436.0,-0.08856843318027229,0.6246589637301193,-0.3209933476607824,0.7063427513842901
-4474.533501625061,-32.0,-1752.0,-15960.0,-5827.0,-4441.0,-11374.0,0.5207373932326397,0.8157462254114464,-0.016776700400561288,0.2512154560132057
-4474.549119710922,5484.0,-4124.0,-16508.0,-3958.0,-2456.0,-4322.0,0.781384451478289,0.6089210264695386,0.08085460179956319,-0.11007295707434622
-4474.564743280411,5832.0,-3752.0,-17364.0,548.0,-606.0,6569.0,0.7095327440372098,0.5948918344981755,-0.27263716118070297,0.2614114931095228
-4474.580318927765,2036.0,-492.0,-15436.0,-147.0,-630.0,2428.0,0.6315627493810668,0.5300075059183942,-0.43092704716593366,0.3667729778558398
-4474.595939397812,-536.0,-500.0,-15208.0,-3805.0,-3150.0,-8947.0,0.7278258600693843,0.5655054671114493,-0.23333369236971963,-0.30988461092225217
-4474.611522197723,1508.0,-956.0,-15812.0,-3178.0,-4547.0,-12688.0,0.2861186688765953,0.31831741781778583,0.12103435728739342,-0.8956343077339826
-4474.627109050751,3648.0,508.0,-15876.0,-4348.0,-3648.0,-11984.0,-0.3212581889737716,-0.13189567719296796,0.4595469292316356,-0.8174431638890102
-4474.642787456512,3636.0,-1680.0,-16936.0,-3674.0,-2634.0,-7687.0,-0.6361962829533534,-0.4144116471294854,0.5581095158016162,-0.33471038921946983
-4474.6583733558655,3292.0,-2768.0,-17184.0,-1024.0,-1843.0,-3561.0,-0.6463865375149689,-0.5501368089461051,0.5283603598672144,-0.01921628692005554
-4474.67399263382,3976.0,-1384.0,-16520.0,1114.0,-999.0,1385.0,-0.5358347284502056,-0.5423609935321438,0.6394365390613101,-0.09923008109849325
-4474.689564228058,3572.0,-204.0,-16116.0,878.0,-140.0,3624.0,-0.43245558981315735,-0.3637018184399041,0.7702200374839582,-0.2957435442424246
-4474.720731258392,2240.0,-1812.0,-16612.0,495.0,-2018.0,-1220.0,-0.30565389521577124,-0.5054379122442825,0.7779899130529601,-0.21410256512572381
-4474.736332893372,3756.0,-520.0,-16444.0,1085.0,-1346.0,2790.0,-0.10963393361815554,-0.35585605438974305,0.8813064008072831,-0.29093967940053556
-4474.751950740814,2972.0,-544.0,-15920.0,1331.0,-379.0,4607.0,0.07178174803565619,-0.022100450492322208,0.9168238704283491,-0.39216443152045793
-4474.767539978027,1628.0,-464.0,-15684.0,1460.0,-1018.0,2456.0,0.23202149148755769,0.1437411642667033,0.8365829869177545,-0.4750088537942321
-4474.783113479614,2188.0,-612.0,-16052.0,704.0,-1489.0,1851.0,0.39926312941783965,0.22619651817724112,0.7372047326825093,-0.49593676085008714
-4474.798708677292,2324.0,-376.0,-16344.0,1699.0,-1163.0,3226.0,0.5501523693022016,0.419875389631102,0.5308772083274822,-0.48908733106851504
-4474.814304113388,2012.0,-80.0,-15736.0,1520.0,-598.0,1478.0,0.5745691445979274,0.5263246012916336,0.3764354729199957,-0.5011477295954841
-4474.829910039902,2100.0,-468.0,-16576.0,918.0,-567.0,-252.0,0.5373482735434812,0.5369826224590672,0.318094313645674,-0.5672058741965836
-4474.8455328941345,2432.0,-1316.0,-16996.0,873.0,-108.0,-1938.0,0.39657139272983916,0.5102589136726,0.354707500639264,-0.6756845125324542
-4474.861150026321,2660.0,-2992.0,-17300.0,1169.0,127.0,-2407.0,0.19329942863037908,0.4711627400751357,0.3870958770399754,-0.7686337133086938
-4474.876731157303,3344.0,-3844.0,-17432.0,2282.0,1002.0,-674.0,0.019809066436919404,0.5406935609053358,0.2720358772333029,-0.7957729296604107
-4474.892310857773,4168.0,-3688.0,-17664.0,3941.0,2543.0,4402.0,0.0689932423796251,0.7227344728308264,-0.1785879946981658,-0.6640791688026223
-4474.9078731536865,3432.0,-3036.0,-17584.0,5108.0,3831.0,6717.0,0.15219543994549792,0.6771958107575878,-0.6804872856326286,-0.23490303540930818
-4474.923542499542,2384.0,-1744.0,-16652.0,5611.0,4063.0,4725.0,0.12798765625913439,0.4473885048230789,-0.8237222707437729,0.3239510862432569
-4474.939196109772,3740.0,-956.0,-14908.0,3058.0,4209.0,-986.0,0.3077450463534033,0.3935728164842772,-0.5918118893763995,0.6325757758263522
-4474.954828739166,5312.0,-3300.0,-15760.0,1135.0,4682.0,1800.0,0.3750965367747042,0.06641359730348473,-0.42468492394853713,0.8213005159889154
-4474.970463752747,5884.0,-4808.0,-16120.0,2813.0,4439.0,1766.0,0.3571411743466069,-0.2025683722397741,-0.07950444979474691,0.9083475538676203
-4474.986092567444,7392.0,-1568.0,-15036.0,2448.0,5219.0,6173.0,-0.04241463892446949,-0.4692055000446289,0.31079182555398444,0.8255032636529054
-4475.0017030239105,4660.0,-3160.0,-15684.0,1545.0,6237.0,8537.0,-0.5582549858856221,-0.5067187734378703,0.5475502819353968,0.3630098402687336
-4475.01736330986,-76.0,-5416.0,-14424.0,4452.0,4301.0,4479.0,-0.5895241676346986,-0.5374025717884289,0.5634481271636784,-0.21490914267555336
-4475.03297829628,-600.0,-2700.0,-13500.0,3915.0,2570.0,-731.0,-0.5043127637163249,-0.6715112033650195,0.2991114714123674,-0.4530713716155483
-4475.048566102982,112.0,-1856.0,-14116.0,3117.0,2618.0,2925.0,-0.2511660900408023,-0.576305564238539,0.21271760639085194,-0.7480232026967221
-4475.064137220383,-2620.0,-2436.0,-15312.0,3945.0,2937.0,7046.0,0.2822579539656115,-0.2723937907589987,0.19626697255208528,-0.8986719900299156
-4475.0797691345215,-5972.0,572.0,-13580.0,4613.0,-257.0,6171.0,0.730466048398501,-0.060801341456205624,-0.020653317562387957,-0.6799235173810889
-4475.09534740448,-3548.0,2148.0,-10580.0,-2898.0,-2924.0,-12849.0,-0.03405372085204905,-0.25607658560467755,-0.06680187631946032,-0.963744071691951
-4475.110920906067,3388.0,-2020.0,-15320.0,-7989.0,-4365.0,-21366.0,-0.9004000671987185,-0.2102683496334003,0.06221409810989028,-0.3757610226292269
-4475.1264815330505,11172.0,-7568.0,-16452.0,-5645.0,-1599.0,-10037.0,-0.9297000298242963,0.08864664508390102,0.13274787174050676,0.33193015742537957
-4475.142138004303,11572.0,-9384.0,-16824.0,157.0,1715.0,8494.0,-0.9545406536629261,0.09960584893095736,-0.05371664686728914,-0.275763190460279
-4475.157707691193,6156.0,-4108.0,-16380.0,5854.0,3265.0,20064.0,-0.2416320934017067,-0.19209677111445753,-0.3052103691055172,-0.9008659126397128
-4475.173341989517,-380.0,3896.0,-15344.0,4325.0,1874.0,13321.0,0.5845041806786845,-0.30919502314750963,-0.2908094218750799,-0.691507903482406
-4475.188944816589,-1844.0,5908.0,-15356.0,-5471.0,-2182.0,-11779.0,-0.21625254638629007,-0.2763965727151424,-0.2560291011399906,-0.9007157543544007
-4475.204525470734,1488.0,-3976.0,-18948.0,-13206.0,-4141.0,-26066.0,-0.9686681017282136,0.08305783126202881,0.08372590253454239,-0.21857144965682077
-4475.220118761063,5464.0,-15760.0,-23660.0,-3059.0,-4057.0,-5757.0,-0.8528004632597967,0.18478859712714923,0.43769630695379436,0.21680979478488985
-4475.235770225525,9840.0,-4844.0,-17008.0,6781.0,1594.0,19185.0,-0.6784983902393886,0.18746746760302063,0.06769072263790579,-0.7070458606779524
-4475.251354455948,3132.0,2700.0,-12704.0,2812.0,3636.0,14633.0,0.09399335076737292,0.19862589335646916,-0.33537158793378147,-0.9160998321725858
-4475.2669405937195,-4488.0,-952.0,-14340.0,-4057.0,-212.0,-6662.0,-0.30958751278759084,0.2840285422428433,0.08473423975439072,-0.9034951398489337
-4475.282534360886,-1228.0,-5356.0,-16308.0,-3741.0,-4190.0,-16781.0,-0.8201669878317227,-0.037541941233549904,0.49406211125527716,-0.28604080992304876
-4475.298159360886,7876.0,-3116.0,-16248.0,-2313.0,-1807.0,-6347.0,-0.7751645600821035,-0.16281621343725575,0.563881844076596,0.23376922670755956
-4475.313766479492,8308.0,-2816.0,-16020.0,-1215.0,1188.0,5888.0,-0.8561063996129507,0.16303017157226465,0.4785212791915265,-0.1073330380627229
-4475.329394817352,2164.0,-3276.0,-16152.0,-431.0,112.0,4071.0,-0.7687344636641462,0.3450172479867308,0.3922292354296527,-0.36900765553160325
-4475.345014810562,-48.0,-1504.0,-16116.0,-2025.0,-1571.0,-5029.0,-0.7317803671493326,0.23173634012360098,0.6408760422913871,-0.008582618355427991
-4475.360620975494,2744.0,-1388.0,-16628.0,-3629.0,-2011.0,-7261.0,-0.4451838894869097,0.04522267302707967,0.7423609621174425,0.4986646331049134
-4475.376235485077,4444.0,-3448.0,-16860.0,-1087.0,-435.0,-1380.0,-0.3482554586010703,0.016855024483582164,0.7088409569009959,0.6131708909626227
-4475.391855239868,3276.0,-2196.0,-16104.0,31.0,-251.0,-227.0,-0.3204220645721931,0.015355727943826716,0.7183684985584541,0.6172848632790867
-4475.407425880432,1304.0,-784.0,-15680.0,-1572.0,-468.0,-5673.0,0.014851725689797228,-0.24098175172423472,0.5819037133676229,0.7765921001072092
-4475.423019647598,1416.0,-1652.0,-15952.0,-2411.0,-1509.0,-9981.0,0.5316119998451722,-0.48089404427027,0.15334147059457812,0.6801587999885708
-4475.4386649131775,2632.0,-1656.0,-16068.0,-2376.0,-1367.0,-10512.0,0.7794447065530734,-0.47237530068212613,-0.3572136845287611,0.20426920550403843
-4475.4542553424835,2796.0,-1512.0,-16372.0,-2506.0,-1324.0,-11290.0,0.5864232899578357,-0.18764647376204394,-0.671701806758445,-0.4119626301949477
-4475.469849348068,2220.0,-1428.0,-15924.0,-2968.0,-1830.0,-13259.0,-0.02967225392456072,0.23843009390228376,-0.5617976336065574,-0.7916148473486692
-4475.485429763794,2992.0,-1688.0,-16108.0,-3179.0,-1879.0,-13971.0,-0.634278891440329,0.49826102357034346,-0.029105450417179744,-0.5904058883682259
-4475.501005649567,5088.0,-1824.0,-16328.0,-2285.0,-1203.0,-7987.0,-0.7658612996965946,0.47053156204533114,0.40543142459150977,-0.166378720694452
-4475.51660490036,6868.0,-1872.0,-16552.0,-771.0,554.0,2387.0,-0.7015691114056212,0.5998052058087795,0.2749855006861001,-0.26910494499103804
-4475.532243967056,5644.0,-2436.0,-16672.0,839.0,2325.0,11334.0,-0.3759725626377688,0.6151026009914443,-0.33744032991740874,-0.6053325087440617
-4475.547917604446,3408.0,-1756.0,-16260.0,2547.0,3119.0,14314.0,0.2047471678970468,0.16783996274811058,-0.81962802045327,-0.5080533950587335
-4475.563512563705,2852.0,-696.0,-16160.0,2349.0,3550.0,14486.0,0.644707258025662,-0.40438535772751194,-0.6484743886324117,-0.017492889768257296
-4475.57908821106,2784.0,-1544.0,-16376.0,2331.0,3077.0,13791.0,0.5760109670626778,-0.655467414769426,0.004712078414055697,0.4884174754408606
-4475.594680070877,3496.0,-2076.0,-16240.0,2918.0,3420.0,14120.0,0.08536968733492802,-0.39702088702532756,0.6782026358732612,0.6124766252229706
-4475.610261678696,2936.0,-1876.0,-15788.0,2570.0,2922.0,12612.0,-0.44099227115878087,0.1391934434534078,0.8354839267895655,0.2968461051691452
-4475.625867843628,1756.0,-1824.0,-15484.0,1496.0,1738.0,7121.0,-0.6448784216372443,0.46543419963606286,0.6037454724451164,-0.05471957252955625
-4475.6415066719055,2456.0,-1824.0,-16032.0,313.0,1165.0,4753.0,-0.6399210031236062,0.6471738152338465,0.3161068212541847,-0.2678500330287812
-4475.657072305679,4132.0,-2892.0,-16476.0,1227.0,1592.0,7921.0,-0.46232116019159825,0.6795073567104251,-0.20246485704903622,-0.5324818106523629
-4475.672711133957,5480.0,-3424.0,-16332.0,2652.0,2953.0,14228.0,0.05753981563648326,0.2810631208315647,-0.7898464031547029,-0.5420658180964
-4475.68828701973,5088.0,-3436.0,-16028.0,4479.0,3430.0,19232.0,0.542926652613802,-0.42674939488257974,-0.7228008821750666,-0.025970917886548556
-4475.703918457031,3816.0,-2324.0,-15820.0,4416.0,3619.0,20198.0,0.47018706253051856,-0.7108626287392426,0.09135406373477575,0.5150270714535291
-4475.719490289688,1856.0,-2192.0,-15860.0,3400.0,3071.0,16373.0,-0.044370246267795094,-0.32365123030600784,0.7745681041475335,0.5415952496143577
-4475.735165834427,1452.0,-2464.0,-15352.0,2055.0,1981.0,10342.0,-0.44456938793094086,0.19985309209012866,0.8440341886904537,0.22365842085280632
-4475.750801086426,1952.0,-2564.0,-15436.0,657.0,1494.0,5268.0,-0.6025214796249261,0.4805375648211008,0.6372150521505823,-0.0029142235890627847
-4475.76642870903,2292.0,-2732.0,-15028.0,173.0,-28.0,743.0,-0.6064290339441833,0.5117407336583437,0.6062930135161523,-0.05266906175210717
-4475.782018184662,3200.0,-3936.0,-15456.0,-2096.0,903.0,157.0,-0.5487946774040039,0.6229353246087529,0.5504036715635123,0.08849735440694345
-4475.7975952625275,4256.0,-4936.0,-16096.0,1145.0,433.0,4378.0,-0.618510761638031,0.7205578965538834,0.2794661457474941,-0.1419134554326194
-4475.813194274902,3284.0,-1844.0,-15228.0,-295.0,1368.0,2585.0,-0.5822367535980574,0.791034907675032,0.045387815433567465,-0.1822198776459829
-4475.828788518906,1240.0,-3572.0,-15640.0,-1437.0,498.0,-2309.0,-0.5069291506826342,0.838899537718544,0.1967043342304557,-0.02403761008814308
-4475.844391345978,2432.0,-3520.0,-15924.0,-968.0,-394.0,-3773.0,-0.4134681096113367,0.7724211329165115,0.46595789173316815,0.12366470349287832
-4475.860002994537,4772.0,-2936.0,-15696.0,-1224.0,453.0,-1743.0,-0.324488643097874,0.7278956668142188,0.5442209059283856,0.2621042240866631
-4475.875586032867,3724.0,-3640.0,-15632.0,-810.0,801.0,31.0,-0.3100977578033707,0.7305208775363382,0.4986436404895655,0.34861604651560907
-4475.891168117523,2484.0,-3076.0,-15584.0,-539.0,246.0,-1902.0,-0.22507382831803707,0.6453363576551344,0.5880810735956604,0.4324851537026941
-4475.906717777252,2956.0,-2452.0,-15568.0,-1046.0,424.0,-3406.0,-0.056612055125195536,0.45353660947676044,0.6987360644036743,0.5503340180113263
-4475.922386169434,2972.0,-3328.0,-15764.0,-1151.0,597.0,-3534.0,0.11611951882347171,0.2044543828010907,0.7415545869755193,0.6283402400270076
-4475.938071012497,2632.0,-3196.0,-16184.0,-639.0,87.0,-5234.0,0.37138842964109964,-0.13211782577052628,0.7276366969351047,0.5613914425031408
-4475.953678369522,3200.0,-2764.0,-15116.0,-1879.0,-536.0,-8031.0,0.6302688233117916,-0.5489112356106942,0.42645258199514063,0.3458263452821206
-4475.969343662262,4080.0,-3276.0,-15620.0,-2443.0,-633.0,-7439.0,0.6277612374830513,-0.7763034437934757,-0.03165074455585466,0.04761325694801824
-4475.984972476959,4048.0,-3072.0,-15652.0,-1816.0,-358.0,-6039.0,0.4629074533422609,-0.7512012792095039,-0.40980750229077356,-0.23123827282780238
-4476.000585079193,3208.0,-2444.0,-15620.0,-2392.0,-212.0,-6887.0,0.13440576308071975,-0.5111998262510621,-0.6931275513441942,-0.4900857333764927
-4476.016172170639,2480.0,-2752.0,-15684.0,-3082.0,-1076.0,-10099.0,-0.36691495275405644,0.012738925976969953,-0.7517232894742812,-0.5478350420267106
-4476.031795740128,3448.0,-3044.0,-16056.0,-3091.0,-1573.0,-10362.0,-0.6961927748153675,0.5184134851757678,-0.39243787257699525,-0.3042295101564524
-4476.047428607941,4932.0,-2444.0,-15920.0,-2738.0,-779.0,-7131.0,-0.6547245436982533,0.7547192727475728,0.041648216996582325,0.00013131448613876883
-4476.063050508499,4684.0,-2740.0,-16196.0,-1781.0,-256.0,-3484.0,-0.5073076929083243,0.7985065357231818,0.2703685266100871,0.17868149580213027
-4476.078669309616,3824.0,-2452.0,-15756.0,-1188.0,-25.0,-2659.0,-0.3704304435168866,0.764579412858892,0.4247817616294379,0.31266605657670343
-4476.094234466553,3384.0,-2448.0,-15872.0,-1298.0,-497.0,-3225.0,-0.16944425913681668,0.6699390457162239,0.5934122196597154,0.41271328501629356
-4476.109820604324,4012.0,-2332.0,-16116.0,-999.0,39.0,-1503.0,-0.058191467501519864,0.5982479502849295,0.6369448310712646,0.4827156774556823
-4476.125395536423,3956.0,-2156.0,-16048.0,-451.0,339.0,-219.0,-0.04425944629735435,0.5734367017807087,0.6268723657587778,0.5255877543401359
-4476.140981674194,3340.0,-1444.0,-15840.0,-337.0,214.0,-904.0,0.0023077380662959836,0.5137170377156133,0.6535080478755703,0.555892715249601
-4476.156543016434,3296.0,-1428.0,-15460.0,-1329.0,-433.0,-3679.0,0.2506255030803179,0.30719165499542894,0.7131390524874789,0.5781460335626006
-4476.172146558762,4264.0,-2560.0,-15936.0,-1757.0,-610.0,-3095.0,0.4689964582656568,0.10209842041944042,0.6622223427193902,0.5753953453803462
-4476.187783956528,4640.0,-2136.0,-15712.0,-1420.0,-90.0,-33.0,0.48463903126423274,0.04631188913380271,0.5832810340118951,0.6502026250809348
-4476.20335483551,3772.0,-1692.0,-16128.0,-775.0,139.0,329.0,0.4606234218528356,0.022392294328040446,0.5426105309907068,0.7020672760165468
-4476.218945503235,2684.0,-1192.0,-16276.0,-1017.0,-153.0,-1288.0,0.5430852516206481,-0.06935234196014776,0.4720905980193001,0.6909262836211686
-4476.234543085098,2988.0,-812.0,-15896.0,-1345.0,-216.0,-3291.0,0.7087530700785787,-0.2441584018962768,0.3448536352655742,0.5649174547504828
-4476.250171422958,3344.0,-1520.0,-15952.0,-1825.0,-614.0,-4473.0,0.8363786848796279,-0.42481721227633423,0.11209110084437998,0.3277752534043455
-4476.2657968997955,4332.0,-1728.0,-15932.0,-1544.0,-526.0,-2654.0,0.8299265087909605,-0.5294775870139536,-0.06647506810597231,0.1626546653995362
-4476.2813811302185,4188.0,-1664.0,-16160.0,-1495.0,-426.0,-1816.0,0.7674373262731993,-0.6082988530534172,-0.19828502411741553,0.0411765081969833
-4476.296963453293,3532.0,-1620.0,-16036.0,-842.0,-211.0,-856.0,0.7178920793239015,-0.6456763995257482,-0.2595272717213383,-0.019456227084153625
-4476.312533855438,3152.0,-960.0,-16052.0,-883.0,-196.0,-1911.0,0.6492518971379059,-0.647303013131402,-0.37181282867232746,-0.1456914674526973
-4476.328101158142,3276.0,-1452.0,-15888.0,-1009.0,-418.0,-2441.0,0.533083508639553,-0.6142369225050442,-0.5070305645387986,-0.2854031928194621
-4476.34375,4128.0,-1584.0,-16008.0,-923.0,-571.0,-1835.0,0.405458212655259,-0.5803823684241826,-0.5987937047482437,-0.37444097447610114
-4476.359326601028,4628.0,-1368.0,-16296.0,-623.0,-397.0,466.0,0.36714231940504366,-0.6380206279390486,-0.5673463494125146,-0.369126422021562
-4476.374900341034,4020.0,-1464.0,-16168.0,-249.0,-168.0,1281.0,0.3835272246428863,-0.7102910349619845,-0.4902640512619912,-0.3286862845488652
-4476.3904864788055,3268.0,-1132.0,-15876.0,-31.0,-369.0,943.0,0.3911286096923133,-0.7594207133094759,-0.4416392862750599,-0.274323407122215
-4476.406068325043,3216.0,-780.0,-16116.0,-123.0,-304.0,294.0,0.37777574309491396,-0.7817713904728982,-0.42935204185974973,-0.24854739008491056
-4476.421653985977,3144.0,-1236.0,-16088.0,-176.0,-470.0,-307.0,0.34080183809913966,-0.7853452776122393,-0.46143201240851794,-0.23273890952100817
-4476.4372363090515,3548.0,-1236.0,-16368.0,186.0,-501.0,-166.0,0.32935935995189364,-0.7824762617392599,-0.4909662763784539,-0.1954620865684895
-4476.452807188034,3628.0,-1396.0,-16092.0,-118.0,-710.0,-399.0,0.2830821911944146,-0.7789637287177305,-0.5352840971445069,-0.1629445234272359
-4476.4684047698975,4348.0,-2004.0,-16088.0,11.0,-437.0,1314.0,0.27980085423329404,-0.8402440152242148,-0.4536754487544243,-0.09939851129508975
-4476.484063386917,3636.0,-1752.0,-16376.0,694.0,-325.0,2462.0,0.3306086536127173,-0.9011441655843105,-0.2801759807313075,0.011769911256806903
-4476.499660491943,3232.0,-480.0,-16184.0,941.0,-59.0,2486.0,0.3899760311345824,-0.9106511916108535,-0.08326975797655861,0.1081630702447785
-4476.515231847763,2656.0,-1116.0,-16160.0,278.0,-574.0,247.0,0.40458826178540025,-0.8961114811744086,-0.08045233221649273,0.1637680493069483
-4476.530815124512,3376.0,-1436.0,-16380.0,643.0,-1193.0,-558.0,0.4505789678203106,-0.8457095934758672,-0.1558079352281295,0.23974520762846088
-4476.546438217163,4144.0,-1424.0,-16040.0,76.0,-986.0,353.0,0.43338808361510883,-0.8236035036637172,-0.16632018894424946,0.32586750755916444
-4476.562014341354,4260.0,-2296.0,-16200.0,713.0,-860.0,3290.0,0.36217064334120314,-0.784845734556279,0.05532332604069721,0.4997888830760729
-4476.57758307457,3728.0,-1436.0,-16112.0,863.0,-604.0,4489.0,0.21179727732924164,-0.658467124516439,0.35377013289906833,0.6296107148989354
-4476.593153715134,2780.0,-1124.0,-16372.0,1011.0,-410.0,3931.0,0.06263638655109058,-0.4673462803415775,0.591378159100886,0.6541681819449502
-4476.608749389648,2556.0,-1300.0,-16080.0,1182.0,-616.0,2722.0,-0.01237390163955399,-0.27586458982386236,0.7411850848528349,0.6118744026605647
-4476.624348163605,3416.0,-1184.0,-16332.0,1390.0,-322.0,3343.0,-0.13023172514051476,-0.04190937999282567,0.8544391415621961,0.5012155773736486
-4476.639996290207,3528.0,-1144.0,-16080.0,1900.0,121.0,4659.0,-0.3076952824682604,0.25509818766248926,0.8728311009664118,0.28002570771958113
-4476.6555778980255,2856.0,-1252.0,-15908.0,2087.0,18.0,3808.0,-0.4192909211225908,0.4569966774962014,0.7842412479827552,0.017743313784435683
-4476.671152830124,2376.0,-1440.0,-15888.0,1804.0,207.0,2707.0,-0.4898751177728925,0.5540318366984877,0.6460189465604035,-0.18902543108397254
-4476.686778306961,2276.0,-1804.0,-16396.0,2383.0,339.0,1711.0,-0.5769121951223686,0.5368082312033768,0.49354775695814,-0.36799436630603577
-4476.702372550964,2524.0,-1428.0,-16880.0,3423.0,1016.0,1097.0,-0.7089642270321119,0.42265467672120915,0.26744001564503106,-0.49720075127279906
-4476.717996120453,2388.0,-1784.0,-16400.0,3545.0,1433.0,-270.0,-0.8391324800689844,0.2460454733352953,0.03331151324748191,-0.48395108123616054
-4476.733570814133,2672.0,-2052.0,-16992.0,4776.0,1862.0,294.0,-0.8530120084021698,-0.021825489618931982,-0.2837544902986142,-0.4374671996389719
-4476.749227046967,2472.0,-476.0,-17268.0,6231.0,3114.0,3166.0,-0.5347289600843028,-0.3702434482737537,-0.6217619108991963,-0.4363448801263746
-4476.764850854874,952.0,116.0,-16432.0,5387.0,2719.0,-5011.0,-0.33314696173832997,-0.20324223967430907,-0.9207077541360051,0.0017103714579060996
-4476.780430555344,1928.0,-2448.0,-17584.0,3930.0,2253.0,-8655.0,-0.06149364416050859,0.2873217275104682,-0.8668928603550041,0.4026928423672071
-4476.796085357666,4560.0,-4468.0,-18864.0,5704.0,3158.0,-4689.0,0.16322114228054033,0.4099305048544563,-0.4635055394483935,0.768425959219924
-4476.811692714691,5196.0,-3516.0,-19008.0,7400.0,5219.0,24.0,0.08471799036739386,0.1291504283451773,0.08315699591957258,0.9844937495972229
-4476.827299833298,2020.0,-1424.0,-21296.0,8899.0,6095.0,2304.0,-0.1857265904558732,-0.2245562406121383,0.6245901560910251,0.7245462478779177
-4476.842899560928,416.0,-3792.0,-22504.0,7868.0,5935.0,-8372.0,0.11564224407997888,-0.7850115286217682,0.5716578376018759,0.20878478877401146
-4476.858498334885,4040.0,-3568.0,-27588.0,10135.0,8447.0,-649.0,0.2622615517916381,-0.5694062969975531,0.5222735704558885,-0.5781225345846972
-4476.874098062515,4088.0,-3116.0,-24832.0,13415.0,9713.0,7936.0,0.4692970679162534,0.31191013498949177,0.24473503449068093,-0.7890355458589237
-4476.889688014984,2208.0,536.0,-19640.0,14634.0,8779.0,10377.0,0.2975402152335745,0.8646682885324886,-0.34120515582708644,-0.21770992802825748
-4476.905302762985,1148.0,4868.0,-14476.0,11702.0,7692.0,10917.0,-0.08086648361087886,0.5365993623941966,-0.6439052182549525,0.5393586988364932
-4476.920967578888,-108.0,6380.0,-12744.0,7060.0,7083.0,20274.0,-0.43753205681295354,-0.44574534958190676,-0.592786529961522,0.5084101813332494
-4476.936590433121,-8012.0,9452.0,-15192.0,12615.0,4619.0,32767.0,-0.35760799869243365,-0.8704629881416754,0.32787324086584313,-0.08312546824401358
-4476.952257871628,-12280.0,23348.0,-11232.0,8576.0,-1581.0,23550.0,0.21171037535279555,-0.19744729099684052,0.8734289889213147,-0.3915547031487137
-4476.967869520187,-12716.0,21264.0,-10044.0,-18944.0,-3433.0,-11446.0,-0.1112087802295765,-0.7001054239996148,0.5738648153683387,0.4100782561517154
-4476.9834616184235,-11368.0,-68.0,-18736.0,-20296.0,-13300.0,-14872.0,-0.057032522786397595,-0.2883881757073084,-0.34811464373921636,0.8901661340846146
-4476.999071598053,908.0,0.0,-19548.0,-12777.0,-12234.0,8245.0,-0.7041423564916593,0.24045770277630044,-0.5430252691956473,0.3892135557568776
-4477.014657735825,880.0,6768.0,-17572.0,-16046.0,-9520.0,17146.0,-0.5771512784363343,0.3038006887325238,-0.3555947424373947,-0.6694429941943019
-4477.030231714249,-4732.0,-2396.0,-19888.0,-18191.0,-12158.0,9724.0,0.04143006003644499,0.0898964187949363,0.4582654373248733,-0.8832864614419632
-4477.045840501785,-484.0,-1532.0,-20520.0,-14674.0,-15479.0,6706.0,0.5894649836040506,-0.4050210892400899,0.6754845824052723,-0.1794701348643345
-4477.061430692673,5680.0,2232.0,-20488.0,-19389.0,-11348.0,6738.0,0.29776790254474056,-0.5193194892362982,0.2781542675558296,0.7511802365304455
-4477.0770175457,2908.0,-5008.0,-21976.0,-19677.0,-10862.0,5427.0,-0.3047006439269355,-0.08308237865040521,-0.4654007194027033,0.8268355376541019
-4477.0925989151,3692.0,-6140.0,-21848.0,-16557.0,-10365.0,6723.0,-0.6454456602694452,0.4035698304158348,-0.6480177243085747,0.024582933092098597
-4477.108159065247,3552.0,-6640.0,-20800.0,-17396.0,-9243.0,6728.0,-0.27472589461475866,0.4933137406723159,-0.19376384195433938,-0.8022610607795329
-4477.123805522919,-92.0,-7380.0,-20304.0,-16843.0,-10272.0,604.0,0.16015322075193678,0.08436919954363244,0.6054063773547729,-0.7750586444323543
-4477.139426708221,1504.0,-5996.0,-18948.0,-18877.0,-10108.0,-7617.0,0.14311179619975714,-0.5697053737902086,0.8090771363160089,0.018681229984240037
-4477.155018568039,4048.0,-6844.0,-18864.0,-18059.0,-9339.0,-8720.0,-0.037387401728261584,-0.6420125551921957,0.10552137459501375,0.7584769611999934
-4477.170619010925,3340.0,-7712.0,-17544.0,-16860.0,-9551.0,-10137.0,-0.10350228190692684,-0.022433988783462012,-0.7181972778135681,0.6877329888325143
-4477.186197519302,3412.0,-5196.0,-16076.0,-17520.0,-9435.0,-13999.0,0.04734050256852631,0.6729437943716119,-0.7294536142707573,-0.11315012620685166
-4477.201809644699,4956.0,-6156.0,-16480.0,-16760.0,-7494.0,-12361.0,0.19884486256560902,0.6053772864826822,0.060263552115107,-0.7683406574746635
-4477.217392921448,4908.0,-7192.0,-15636.0,-13970.0,-6504.0,-10103.0,0.1550149154641785,-0.0666238609377924,0.7488520254762863,-0.6408995873593919
-4477.232986211777,5692.0,-7972.0,-17600.0,-8497.0,-4409.0,3702.0,0.4473702937196077,-0.13878399643443745,0.8834851214738897,-0.007270678454201427
-4477.248594522476,5688.0,-6164.0,-15112.0,-4506.0,-996.0,15189.0,0.28033888037941207,0.5008668331921445,0.6037444455552572,0.553204457697934
-4477.2641887664795,1200.0,-6088.0,-14076.0,-1828.0,-166.0,14524.0,-0.2048678177572918,0.7578442992366607,-0.07603810417631346,0.6147514961959277
-4477.279849290848,-1360.0,-3824.0,-13608.0,-1961.0,-1160.0,6065.0,-0.35534587979174204,0.7094785492579957,-0.488915946848782,0.362395765392977
-4477.295445680618,-184.0,-4580.0,-14424.0,-2486.0,-1017.0,1571.0,-0.28403135674415025,0.7255007747946834,-0.6111828334865846,0.13939281979248816
-4477.311073064804,1496.0,-5732.0,-13932.0,433.0,-258.0,3028.0,-0.34942564259669323,0.5375880332141897,-0.7643151232377501,0.06872568101408665
-4477.326662063599,1392.0,-3036.0,-14084.0,2441.0,762.0,7775.0,-0.37388650366006426,-0.04874692514833286,-0.9258653247345137,0.02461747598128791
-4477.342238664627,-1744.0,-2216.0,-13660.0,2148.0,587.0,5372.0,-0.2929971965829112,-0.4941137767130022,-0.8183345799579522,0.01824098961158239
-4477.3578312397,-3724.0,-2256.0,-13792.0,2412.0,-1482.0,-2171.0,-0.27792430611819013,-0.3803618216267531,-0.8309342452656017,0.2960257501677611
-4477.373417139053,-316.0,-1400.0,-12824.0,1679.0,-944.0,-6358.0,-0.10915391830477908,0.05562165798080426,-0.8442356913105775,0.5217832412022557
-4477.389002323151,1548.0,-2632.0,-14580.0,2369.0,666.0,-281.0,-0.057374182205994106,0.02294358119598558,-0.7248261525766727,0.6861551164561804
-4477.404596328735,200.0,-4364.0,-14656.0,4802.0,730.0,1415.0,-0.0965356388106555,-0.1228629876980352,-0.4062469604557877,0.9003049282402962
-4477.420183897018,-1084.0,-3128.0,-13852.0,5225.0,428.0,-3711.0,0.2322489135284974,-0.06022144102551273,-0.03440498299675935,0.9701804560753818
-4477.435811519623,-228.0,-3648.0,-14552.0,3921.0,1000.0,-9049.0,0.7729604139712419,-0.029060416878194918,0.20420492818479052,0.5999900315082878
-4477.451447725296,1764.0,-5440.0,-16192.0,6906.0,1638.0,-7463.0,0.8568021223811958,0.16195932353100334,0.4890148372379728,-0.02288644938773071
-4477.467066049576,2420.0,-2320.0,-15368.0,9545.0,2823.0,-2135.0,0.44624859045974824,0.5907350292358947,0.5318472153655264,-0.4111360605131712
-4477.482670783997,-88.0,-1400.0,-15216.0,10423.0,1708.0,-7286.0,-0.28771880294227764,0.4794958317541805,0.39974281688507424,-0.7262969902957159
-4477.4982442855835,1904.0,21028.0,-32768.0,31231.0,-7284.0,32767.0,0.17859634363357765,0.09136898658586048,-0.6711819618721031,-0.7136314373600036
-4477.5138149261475,-5612.0,32767.0,-17192.0,12575.0,26987.0,32767.0,0.9269903059726811,0.012255563502178194,-0.3245528720495628,0.18762784185802284
-4477.529397726059,-32768.0,-19852.0,-10992.0,-13944.0,-11742.0,-32768.0,0.3348575531742214,0.0012789802279942256,-0.4289077457321565,-0.8389916143458823
-4477.544965744019,14012.0,-10100.0,-14700.0,-32768.0,-15566.0,-32768.0,-0.6032548052366214,-0.19849327118928012,0.3466652297622619,-0.6902950671454803
-4477.56054186821,32767.0,-15764.0,-32768.0,7634.0,1763.0,22631.0,0.36209735649573693,0.08214566805234695,0.08040649345333598,-0.9250256155640078
-4477.576109170914,32676.0,1180.0,-28100.0,32767.0,32767.0,32767.0,0.5031861527008591,0.7901576797749208,-0.34918888750105825,0.022839826369626542
-4477.591768026352,-15952.0,1488.0,-18496.0,27162.0,18131.0,32767.0,-0.21226946523261547,0.22799980994321004,-0.42275046176901404,0.8510228010281539
-4477.607355594635,-28584.0,4396.0,-16072.0,8438.0,-284.0,-32768.0,0.6553029545779058,0.41748076832472575,0.2762084286644114,0.5656825520865927
-4477.622942447662,-676.0,-1088.0,-8364.0,-8752.0,-507.0,-32768.0,0.8333860273620699,-0.2712889969981759,0.3229867980481688,-0.35714078147417194
-4477.638533830643,10288.0,-2944.0,-19100.0,6019.0,2943.0,-5641.0,0.5696640572710661,0.07858446100298892,0.17156907166758834,-0.7999196197052924
-4477.654151678085,7940.0,4948.0,-10472.0,8452.0,9221.0,15504.0,0.725962767910518,0.6853851776390666,-0.03322584199556108,-0.04605715258296662
-4477.669753313065,-7080.0,-4152.0,-9172.0,-5122.0,4037.0,-20571.0,0.4507194763359222,0.2048583935605515,0.6910997170436205,-0.5265607024280203
-4477.6853659152985,-7392.0,-9680.0,-21432.0,-1801.0,-3446.0,-24155.0,-0.17785228112233134,-0.6281773304959711,0.45401316495543503,-0.6063281731848583
-4477.700967788696,6740.0,-3004.0,-19716.0,-2530.0,3297.0,-11557.0,-0.7221850160522394,-0.5952626471374796,-0.06594436288319175,-0.34606722542944895
-4477.716553211212,4408.0,-7484.0,-19156.0,-962.0,8215.0,2965.0,-0.5040349254091152,-0.24109577822077402,-0.31788579711713355,-0.7660092947759523
-4477.732120990753,-5192.0,-4344.0,-16428.0,9438.0,4236.0,13964.0,0.41042195853273833,-0.41861557150328255,-0.46326246818899386,-0.6646071808343429
-4477.747763156891,-4492.0,5144.0,-8484.0,-3429.0,1513.0,-21370.0,-0.41719391496518776,0.19161488642102875,-0.46282476650274385,-0.7583048253371175
-4477.7633447647095,1304.0,-3364.0,-17192.0,-11799.0,138.0,-25091.0,-0.7160286569917244,0.6278806803278957,0.27970709478120276,-0.12178979746540974
-4477.778922796249,6208.0,-9256.0,-18240.0,-4403.0,1196.0,-3587.0,-0.48341088671284177,0.7388931413492873,0.40000986832653185,0.24564801142259804
-4477.794502258301,7584.0,-4272.0,-16316.0,385.0,3913.0,12313.0,-0.6027527887715637,0.7090337611799717,-0.36526951118202533,-0.02320313202845257
-4477.810104131699,2188.0,-236.0,-16992.0,-442.0,4649.0,15083.0,-0.2328314989257636,0.1533524839117539,-0.9058507089237678,-0.31891535229333945
-4477.825692653656,-1560.0,1068.0,-14664.0,-2555.0,2187.0,4429.0,0.08786289965988682,-0.07552452519065626,-0.8444066359731932,-0.523023508154765
-4477.841357707977,604.0,948.0,-17092.0,-3468.0,608.0,2366.0,0.20423122359108317,-0.23327902126424224,-0.624672346343122,-0.7166972619332829
-4477.856989860535,3464.0,1000.0,-16660.0,-2070.0,2060.0,5113.0,0.5284724363601769,-0.37373367926762957,-0.31544622727817434,-0.6939262919680921
-4477.872580528259,1688.0,-360.0,-17492.0,-2168.0,2972.0,6877.0,0.7903050159150918,-0.3995463910093215,0.14633400032817484,-0.44087075611660437
-4477.8881483078,-524.0,-1668.0,-16508.0,-267.0,1968.0,5001.0,0.8582348130020265,-0.25223399255680773,0.42254539019771276,-0.14583007910884402
-4477.903777360916,-376.0,1104.0,-16316.0,762.0,1359.0,3098.0,0.8271026248164974,-0.061024593225666224,0.5580748033500468,0.02701408723441875
-4477.9194593429565,516.0,2132.0,-15668.0,-1190.0,889.0,-224.0,0.7711955907404774,-0.15855288478574836,0.6132541988404757,0.06354235715717124
-4477.935101270676,520.0,3916.0,-15272.0,2499.0,244.0,499.0,0.770741553322798,0.034144407472520136,0.635036145187346,-0.038996303998030654
-4477.950734615326,1796.0,5864.0,-15500.0,-2597.0,-221.0,-7005.0,0.6422019279863019,-0.44344062307918747,0.5445451111233545,-0.30725839198543026
-4477.966317892075,2292.0,3040.0,-17240.0,-1311.0,-177.0,-7061.0,0.34763969864557054,-0.7264001872520461,0.2513607064817346,-0.5369424579252535
-4477.981937408447,1616.0,-700.0,-15292.0,-3801.0,223.0,-12495.0,-0.31904443761159756,-0.7290498622713335,-0.23460526670278342,-0.5582627642844945
-4477.997530221939,384.0,-5192.0,-17784.0,-2322.0,-491.0,-7373.0,-0.6925562225536708,-0.44538104874006,-0.47800736119576276,-0.3057949683498051
-4478.013142347336,32.0,-3952.0,-16536.0,-1198.0,-1309.0,-8921.0,-0.8080087732757218,-0.02811248239641742,-0.5591266573399889,0.1835998139835245
-4478.028750419617,1660.0,-1624.0,-16412.0,-1411.0,-17.0,-7949.0,-0.5597600123671309,0.3756596703799877,-0.49072997996555967,0.5520259299777048
-4478.044337511063,1428.0,-2912.0,-17064.0,-1677.0,764.0,-6173.0,-0.15214869876159234,0.5973380668621592,-0.35446839694272136,0.7031288380598468
-4478.059980869293,1424.0,-3120.0,-16540.0,1513.0,588.0,-1286.0,-0.1317629187145228,0.5719036957555401,-0.1993259332961195,0.7847508320152428
-4478.075564146042,1828.0,-348.0,-16044.0,226.0,929.0,-2999.0,0.07572596386151882,0.5381795783770378,-0.043334981611511926,0.8383020930332262
-4478.091155052185,1972.0,-60.0,-16600.0,874.0,651.0,-63.0,0.041546295864745224,0.49461578442035153,0.027712878504483004,0.8676757040894687
-4478.106782436371,1588.0,2928.0,-16052.0,413.0,-108.0,-4309.0,0.3276484307078503,0.46223821120272174,0.228847489728871,0.7915877515497478
-4478.122374296188,824.0,2024.0,-14964.0,-1670.0,243.0,-5951.0,0.705040482709864,0.2456183678291517,0.31734550710712195,0.5847062204595647
-4478.1380071640015,2200.0,-1504.0,-16800.0,20.0,166.0,-1563.0,0.772426092814458,0.1934994220434283,0.3589269511577089,0.4869161617166564
-4478.153626918793,3412.0,-480.0,-17224.0,2764.0,1565.0,5220.0,0.4012596821539349,0.4208818738983937,0.4358117915844152,0.6869622973769972
-4478.16921043396,1220.0,836.0,-17240.0,2240.0,3185.0,5113.0,-0.09485870169472263,0.4387234527431177,0.43085379789304085,0.7828719969235658
-4478.184785604477,-936.0,-796.0,-16620.0,3068.0,2252.0,1202.0,-0.35800094299419255,0.28788687170010074,0.5439283877621713,0.7022096431297732
-4478.200346946716,1236.0,-212.0,-15992.0,3391.0,1479.0,-387.0,-0.4656698887763982,0.06951156265342762,0.6804976239460395,0.561464763941826
-4478.215968847275,2656.0,188.0,-16712.0,3025.0,2411.0,1664.0,-0.6651007364202469,-0.06821780043978351,0.6766293402120671,0.3084802717850626
-4478.231535196304,1280.0,-340.0,-15940.0,3008.0,1917.0,-235.0,-0.7196628921258361,-0.2943067585948711,0.6159143499706199,0.12695813106188383
-4478.247119188309,1376.0,-48.0,-16224.0,2662.0,1260.0,-1063.0,-0.6820127463870588,-0.5138271381053229,0.5201260147939437,0.017584500181839807
-4478.262709379196,2844.0,-876.0,-15424.0,1137.0,1345.0,-2071.0,-0.6700743763858331,-0.6593942498148709,0.33972045707886517,0.028099189745390583
-4478.278305053711,3392.0,-2332.0,-16804.0,2152.0,1883.0,4133.0,-0.5604012379928948,-0.6112479083136467,0.4330192840574033,-0.35329979715906484
-4478.29393529892,2304.0,-1392.0,-15844.0,3809.0,2016.0,4611.0,-0.25491685684057397,-0.49164801862879454,0.40564089477510884,-0.7271554760592482
-4478.3095266819,1556.0,-1060.0,-15256.0,890.0,2233.0,347.0,-0.2677529734764904,-0.34991130013650124,0.30773292503816524,-0.8433094770478606
-4478.325152873993,1200.0,-4608.0,-17576.0,1046.0,2221.0,4567.0,0.037086802391775676,-0.08057618908920491,0.2902355563212096,-0.9528354363095087
-4478.340742588043,1652.0,-4172.0,-16776.0,3580.0,1704.0,5288.0,0.397444373794036,0.17891276525196104,0.030809706952773134,-0.8994881623050119
-4478.356375217438,2312.0,-480.0,-16316.0,3792.0,1836.0,5776.0,0.6673984159889214,0.39907758653593234,-0.24884352147426253,-0.5774022307546296
-4478.3719782829285,1348.0,756.0,-15960.0,1361.0,821.0,-1247.0,0.5661382389267504,0.5386923207130957,-0.22291066749338787,-0.5827597380973646
-4478.3875477313995,1692.0,-1016.0,-16808.0,115.0,-1095.0,-6417.0,0.18515980374791044,0.533640236630848,0.01625250716488648,-0.8250332120196514
-4478.403119802475,4040.0,-1624.0,-15856.0,-251.0,-1430.0,-5951.0,-0.20254942907920465,0.369023248871327,0.25434436186378734,-0.8706919754771154
-4478.418691396713,4644.0,-3272.0,-16568.0,-1130.0,-389.0,-1017.0,-0.2326485005741404,0.33389398840450474,0.376557618559815,-0.8322222296913834
-4478.434261083603,2468.0,-4724.0,-16892.0,994.0,-285.0,3698.0,0.015468125998308453,0.3931918916393897,0.19217145393751567,-0.8990166882314701
-4478.449865579605,1280.0,-2224.0,-16804.0,2152.0,-966.0,2387.0,0.13922907660634015,0.34606378014480327,-0.05728937496089989,-0.9260524023055199
-4478.465497016907,600.0,304.0,-14852.0,-1175.0,102.0,-2581.0,-0.03239071117130496,0.3428823657078707,0.11336427269975932,-0.9319501417949597
-4478.481104135513,712.0,-3752.0,-16496.0,-808.0,-924.0,-3852.0,-0.29457915955332403,0.21893203861896468,0.28019925834931914,-0.8870063454358671
-4478.496723651886,3492.0,-3440.0,-17256.0,2468.0,-62.0,3352.0,-0.07591034679134119,0.21878078521106556,0.025390093751567328,-0.9724854396913789
-4478.512306928635,4020.0,-1032.0,-15540.0,1649.0,1185.0,5336.0,0.3068717032212152,0.2868657222651162,-0.20062098795700312,-0.8850361768552626
-4478.527922153473,1596.0,-2272.0,-16000.0,518.0,-475.0,1925.0,0.42745126115122006,0.22699092210901758,-0.2970037503604488,-0.8231338365613198
-4478.543515205383,2188.0,-2636.0,-14084.0,-157.0,-333.0,-2316.0,0.25033601748965795,0.25214482288118406,-0.24740933738234794,-0.901411940467654
-4478.559139490128,3088.0,-3640.0,-17320.0,140.0,224.0,756.0,0.3107906120138884,0.25605667207388516,-0.26972714279891324,-0.8746950580676754
-4478.574721574783,2788.0,-4188.0,-15840.0,955.0,1658.0,3168.0,0.5426767021644661,0.3179346742131683,-0.3508169307953967,-0.6937917705826177
-4478.590294122696,1252.0,-3972.0,-16476.0,1527.0,1191.0,6517.0,0.8008888647011899,0.22617762724808785,-0.48839598988438243,-0.2624691684653994
-4478.605870485306,1288.0,-1320.0,-16132.0,2459.0,844.0,8644.0,0.7746524079044494,0.0385243407646437,-0.5157853480737732,0.36386123290191924
-4478.6214327812195,1480.0,792.0,-16144.0,1233.0,1338.0,7401.0,0.4959419867878111,-0.21124081615900242,-0.34252631839414177,0.7694768252109949
-4478.637004137039,248.0,608.0,-16328.0,851.0,991.0,3130.0,0.3173993875247865,-0.3209153513635622,-0.1774469397671019,0.8745190390296729
-4478.652598619461,168.0,196.0,-15108.0,-1002.0,880.0,-3812.0,0.5600585348564042,-0.3367529003995544,-0.3173055342488572,0.6872038413324192
-4478.668185949326,628.0,-3144.0,-15336.0,-1859.0,-491.0,-5354.0,0.7280058614852893,-0.22401662146769816,-0.5466450249607664,0.3478551934855982
-4478.6838285923,4008.0,-3864.0,-16256.0,-1718.0,270.0,-2476.0,0.7563489260931264,-0.21593012401762207,-0.6093799575054246,0.09983261456155387
-4478.699453830719,4200.0,-4144.0,-16768.0,-541.0,1658.0,3613.0,0.7575745201936614,-0.43256899300028734,-0.41228740365354777,0.26264807145052
-4478.715058803558,2420.0,-2564.0,-15952.0,457.0,1999.0,5570.0,0.6383861089679286,-0.576079311357113,-0.05293319354780037,0.5077340641752667
-4478.730668067932,792.0,-1712.0,-15484.0,-773.0,1019.0,230.0,0.5901049362005532,-0.6613561047837488,-0.018785134895324004,0.46263526199801575
-4478.7462503910065,1696.0,-2744.0,-16204.0,-1665.0,-50.0,-2300.0,0.5693901792648065,-0.7197420838858145,-0.21486114252048352,0.3340671277981256
-4478.761842250824,3100.0,-2808.0,-16360.0,-611.0,-234.0,736.0,0.5031324633503658,-0.7544796336783581,-0.19745097378011267,0.37233227048007633
-4478.777430772781,3560.0,-1680.0,-15936.0,-962.0,668.0,2453.0,0.36140245369208307,-0.8376149102329685,-0.036944215951764996,0.40795177843523034
-4478.793022632599,1704.0,-2240.0,-16232.0,-1350.0,314.0,1146.0,0.220096002195338,-0.8843918053066899,0.00851997162704493,0.4115049144390356
-4478.808603048325,1476.0,-2128.0,-16460.0,-1000.0,-138.0,-304.0,0.15320047723790056,-0.895232735886017,-0.05330526701209036,0.41502591591476073
-4478.824172973633,2052.0,-1284.0,-16412.0,-877.0,419.0,-55.0,0.08824382652652664,-0.9186928420160244,-0.08349126114894294,0.3758266866791594
-4478.8398060798645,2048.0,-1968.0,-16324.0,-709.0,698.0,100.0,0.03307011857068623,-0.944286085264464,-0.09303286179846827,0.31396662730172686
-4478.855414152145,1668.0,-1788.0,-16060.0,-25.0,454.0,-780.0,0.05592111287835674,-0.9476126178987186,-0.1562284742572866,0.27293922284058636
-4478.870982646942,1744.0,-1328.0,-16000.0,-894.0,411.0,-2985.0,0.05659875766576288,-0.8883223852520785,-0.40734541889241793,0.20432726249355643
-4478.886581659317,1916.0,-1920.0,-16224.0,-602.0,210.0,-3191.0,0.07149893950726528,-0.7519051871013812,-0.6391784637497027,0.14483570947091517
-4478.902190446854,2156.0,-1784.0,-15960.0,-445.0,169.0,-3750.0,0.09416136117017782,-0.5200788959422151,-0.8450473043587806,0.08091126901776137
-4478.917854309082,2404.0,-1952.0,-16304.0,-1068.0,135.0,-4340.0,0.08037759889599522,-0.1953909348089559,-0.9767169158462695,-0.037227550147007585
-4478.9335696697235,2732.0,-2676.0,-16236.0,-183.0,-92.0,-2793.0,0.05867085415653199,0.03989654177325655,-0.9951240249582533,-0.06851402614037193
-4478.949171304703,3096.0,-1976.0,-16268.0,436.0,328.0,-737.0,0.08105196004742513,0.1077265019837361,-0.9903260588911709,-0.03286149150449362
-4478.964805841446,2612.0,-2020.0,-16068.0,156.0,608.0,-253.0,0.13115481806323923,0.13218429212843538,-0.9823938550053603,-0.015101001986964804
-4478.980420351028,2020.0,-2380.0,-15952.0,333.0,215.0,-352.0,0.14492144536615062,0.1662521984100361,-0.9753002619954765,0.012140022585265803
-4478.99608206749,2236.0,-1660.0,-16176.0,180.0,136.0,-1014.0,0.1540456756288636,0.253626740261057,-0.9548111796070142,0.01670382417470108
-4479.011700868607,2332.0,-1664.0,-16180.0,-224.0,397.0,-1231.0,0.1923333618874001,0.3503052905082876,-0.9166262341117455,-0.00950937879748877
-4479.027312040329,2260.0,-2044.0,-16028.0,-34.0,265.0,-1328.0,0.21172334567392537,0.45302446636631255,-0.8655996629216455,-0.02606302591969767
-4479.04288649559,2648.0,-1872.0,-16048.0,79.0,184.0,-1100.0,0.21869697910518324,0.5354549866331052,-0.8150972309675993,-0.03280385173970131
-4479.05849146843,2984.0,-2048.0,-16192.0,9.0,386.0,56.0,0.24549914812351553,0.5324464123193083,-0.8099788901831545,-0.01285238252583942
-4479.074073314667,2652.0,-2164.0,-16612.0,440.0,533.0,795.0,0.2622306647107058,0.4842429976438453,-0.8325566860503711,0.05994299150950119
-4479.089640617371,2044.0,-1320.0,-15688.0,-98.0,555.0,-740.0,0.3092365814184162,0.5311454585806336,-0.7866111213456888,0.05916233867164092
-4479.105220794678,2440.0,-2876.0,-16520.0,519.0,452.0,681.0,0.31127394662337304,0.49432871104735865,-0.8005447296232241,0.1337003794319426
-4479.120806694031,3108.0,-2036.0,-15908.0,1319.0,870.0,1990.0,0.2847133397097527,0.3719809224065044,-0.8273762547548944,0.3098661656662263
-4479.136380434036,2068.0,-1200.0,-16100.0,124.0,915.0,285.0,0.33764780285480306,0.3286385987091127,-0.8078215963169417,0.3541396633953657
-4479.1520137786865,1848.0,-2720.0,-16220.0,369.0,314.0,-530.0,0.3646457919912147,0.36649350971022393,-0.7706213322788089,0.37263751281938223
-4479.167592287064,2944.0,-2256.0,-16180.0,987.0,476.0,836.0,0.33528656028258763,0.3239353141560994,-0.7449213717046812,0.47722215446694877
-4479.183219194412,3296.0,-1732.0,-15924.0,372.0,1137.0,1884.0,0.314185250871257,0.1620464220101181,-0.7357925336047595,0.5776139997785484
-4479.198878765106,2424.0,-2604.0,-16004.0,871.0,840.0,2233.0,0.23738519952166479,0.00025677032416202884,-0.6840693268478851,0.6897081681283335
-4479.214474916458,2780.0,-2172.0,-16024.0,824.0,812.0,2348.0,0.14085302679959566,-0.167371930792942,-0.6024514290605483,0.7675932107874185
-4479.2300407886505,3028.0,-2300.0,-15956.0,752.0,1329.0,3762.0,-0.028544220320382903,-0.41941379024808134,-0.45345268336275524,0.7859121859261102
-4479.245639801025,2392.0,-2532.0,-16132.0,1188.0,1339.0,3845.0,-0.1835647150525152,-0.6250632718687931,-0.22020945792451502,0.7260218290030674
-4479.261258840561,2076.0,-2168.0,-15932.0,970.0,981.0,2534.0,-0.26402535269998995,-0.7289116848540954,-0.03525136530736897,0.6306629131784873
-4479.276885509491,2444.0,-2136.0,-16040.0,513.0,847.0,1298.0,-0.2971123659476967,-0.7836298686083638,0.055449944422281426,0.5427465105271211
-4479.292516469955,3044.0,-2208.0,-16124.0,601.0,870.0,1681.0,-0.33472147216102704,-0.8202344085160528,0.17373876386074386,0.4301068391607097
-4479.3081023693085,2656.0,-2060.0,-15960.0,761.0,902.0,1038.0,-0.3296317266446121,-0.8527408881582679,0.24797281043317929,0.32044560808070205
-4479.323715686798,2408.0,-2108.0,-15968.0,158.0,640.0,213.0,-0.3368705868106999,-0.8691154330662774,0.2494253048963712,0.262571112320423
-4479.339312791824,2436.0,-2484.0,-15788.0,83.0,307.0,-981.0,-0.31329812567586673,-0.8964464729914817,0.1672662759578223,0.2650471626641629
-4479.354909896851,2984.0,-2444.0,-16084.0,38.0,500.0,-557.0,-0.30388380110056395,-0.9153460827491301,0.11069578851769095,0.23988044236440428
-4479.370511770248,2760.0,-2652.0,-15996.0,137.0,497.0,-239.0,-0.2921564426590998,-0.9306614077260155,0.08121318120217867,0.20473977723254888
-4479.386094093323,2528.0,-2520.0,-15852.0,136.0,409.0,-640.0,-0.2717223350967932,-0.9439406792755987,0.021202923658213593,0.18626165103587924
-4479.401684999466,2608.0,-2484.0,-15896.0,-91.0,491.0,-1056.0,-0.26136689107579464,-0.9469114240005482,-0.07849712932424979,0.16995382912567744
-4479.417346715927,2792.0,-2744.0,-16072.0,-284.0,151.0,-1372.0,-0.2612369863760167,-0.9263977258220423,-0.19804903531744422,0.1852540691881145
-4479.432935714722,2996.0,-2760.0,-16128.0,-163.0,-34.0,-855.0,-0.260183078195689,-0.9048460672530801,-0.26828440325977654,0.20391625576396818
-4479.448525428772,3196.0,-2440.0,-15728.0,-15.0,116.0,-360.0,-0.2518677459154962,-0.8977496054955973,-0.2994812949019757,0.20228504246182435
-4479.464114904404,2756.0,-2492.0,-15860.0,-426.0,73.0,-542.0,-0.27302450036638326,-0.8740108882061906,-0.3504702329007385,0.1968075337664054
-4479.479738473892,2616.0,-2464.0,-15952.0,-359.0,-83.0,-872.0,-0.28673959656227116,-0.8346199916540864,-0.41979082301139004,0.2120507915808343
-4479.495315074921,2760.0,-2272.0,-15904.0,-368.0,71.0,-514.0,-0.3007170916313942,-0.806752962831519,-0.4651599809119495,0.20577920186772125
-4479.510885715485,2604.0,-2420.0,-16228.0,-469.0,24.0,-1280.0,-0.307349315362295,-0.7378077046428397,-0.5604490087647785,0.21696335610090875
-4479.5264546871185,2780.0,-2508.0,-16124.0,-458.0,-182.0,-1370.0,-0.31699300181999374,-0.6499331312260942,-0.6473374397580675,0.24094937397566374
-4479.5420298576355,3184.0,-2184.0,-15876.0,-326.0,63.0,-522.0,-0.3202267361351282,-0.6119356331726078,-0.6846470953370151,0.2329119429408269
-4479.557639122009,2872.0,-2220.0,-15980.0,-459.0,71.0,-703.0,-0.3250678515183376,-0.5571125552336215,-0.7316348640155033,0.22060579880713296
-4479.573233127594,2508.0,-2336.0,-16116.0,-241.0,-28.0,-1051.0,-0.31666741954268923,-0.48056371012299237,-0.7832289027358231,0.23522914749715354
-4479.588863372803,2728.0,-2136.0,-16044.0,-224.0,8.0,-1209.0,-0.29871252395767617,-0.3897057710204194,-0.8340803316228391,0.251416468164179
-4479.604488611221,2856.0,-2300.0,-16120.0,-337.0,109.0,-938.0,-0.2803190294329054,-0.31385916800203856,-0.8729987867772409,0.24654975701534904
-4479.620100259781,2900.0,-2312.0,-16036.0,-104.0,102.0,-671.0,-0.2602204789081197,-0.2619275017417378,-0.8946214830395098,0.2516578794163794
-4479.635716676712,2808.0,-2208.0,-15980.0,-81.0,168.0,-583.0,-0.23554637355301744,-0.2179500254314732,-0.9123522338544326,0.25422252791849337
-4479.651306390762,2772.0,-2208.0,-15936.0,-266.0,112.0,-957.0,-0.20939369169543295,-0.13823666172172713,-0.9353099939252382,0.2494797035787911
-4479.666925668716,2788.0,-2348.0,-16020.0,-196.0,93.0,-793.0,-0.1861546507267286,-0.07174677098947164,-0.9485012680085745,0.2460572930264828
-4479.682506084442,2764.0,-2208.0,-15680.0,-202.0,162.0,-925.0,-0.1533427728036189,0.004634969125083292,-0.9579878183521917,0.24233004555546891
-4479.698073625565,2780.0,-2368.0,-15908.0,-384.0,166.0,-1147.0,-0.11414386804209842,0.10161541224403758,-0.9624878793420742,0.22419314775982588
-4479.713634252548,2940.0,-2444.0,-15880.0,-307.0,28.0,-845.0,-0.09199023818597238,0.1746082696693784,-0.9583886158067132,0.20625471954272012
-4479.729209184647,3132.0,-2416.0,-16048.0,-262.0,176.0,-53.0,-0.07202649657216563,0.17795623374519365,-0.9633796867487163,0.1871986693935375
-4479.744770288467,3120.0,-2308.0,-16076.0,-158.0,309.0,577.0,-0.05265768743539334,0.12522349561442192,-0.9752217027579477,0.1746106370469746
-4479.760369777679,2908.0,-2212.0,-15976.0,-159.0,309.0,707.0,-0.035048042285200746,0.06097485495703748,-0.9845042271217518,0.160639747803416
-4479.77600479126,2752.0,-2152.0,-15724.0,-170.0,500.0,341.0,0.0042887474881110775,0.025188314702971896,-0.9887714538276318,0.14723507579037984
-4479.791597127914,2800.0,-2064.0,-16112.0,-189.0,346.0,377.0,0.02991013113946045,-0.011809011339597305,-0.9908016746347175,0.1314457030390914
-4479.807237863541,2720.0,-2096.0,-15976.0,-351.0,243.0,-58.0,0.05139345251403834,-0.010455505827754634,-0.9935670457752674,0.10036892440382389
-4479.822828292847,2824.0,-2096.0,-15996.0,-511.0,191.0,-232.0,0.06965572709331459,0.0057229366527904914,-0.9960626082242904,0.054539968615630714
-4479.838441371918,2972.0,-2060.0,-16004.0,-132.0,284.0,39.0,0.09448190364213752,0.00018538386204277647,-0.9945732784440681,0.043556048053051674
-4479.854028463364,2924.0,-2120.0,-16104.0,-335.0,378.0,243.0,0.126143680781583,-0.02510870224466854,-0.9915520783997569,0.016786920253132553
-4479.869632959366,2800.0,-2356.0,-15964.0,-136.0,259.0,-55.0,0.14809894483029984,-0.022256389010239037,-0.9887135341446951,0.004111336459517988
-4479.885236263275,2920.0,-1924.0,-15876.0,-16.0,301.0,-238.0,0.17379083435710826,-0.0020707019129092537,-0.9847801586897947,-0.0007050801022063324
-4479.900799751282,2648.0,-1964.0,-16060.0,-285.0,339.0,-807.0,0.20190441692851252,0.06274600690283957,-0.9766850866158762,-0.03719928258239212
-4479.916416883469,2776.0,-2428.0,-15968.0,-239.0,92.0,-1257.0,0.20546286055843357,0.16490788943387044,-0.961472014634874,-0.07849819111017009
-4479.932096242905,3232.0,-2132.0,-15952.0,-137.0,187.0,-731.0,0.21744447376040485,0.22453820266670704,-0.9446244458393763,-0.09992573590880645
-4479.947723388672,3156.0,-1828.0,-15968.0,-502.0,382.0,-141.0,0.2569460397725793,0.22958531049635175,-0.9288518410756537,-0.13602784707496643
-4479.963362455368,3036.0,-2324.0,-16104.0,-177.0,260.0,-289.0,0.27775284519799065,0.2519391656014889,-0.9145983643466654,-0.15129390521382843
-4479.979584693909,2856.0,-2276.0,-15920.0,-111.0,197.0,-470.0,0.2892138594201623,0.2890546891457045,-0.8972064763278385,-0.16680308461643836
-4479.995452642441,3036.0,-2120.0,-16144.0,-253.0,325.0,-219.0,0.3173977744899291,0.30429352633275397,-0.8791887650313696,-0.1835516767110359
-4480.011090755463,2828.0,-2336.0,-15996.0,-23.0,301.0,-324.0,0.3354623937308115,0.33309125645477994,-0.8613624875171725,-0.18592972426161158
-4480.0266790390015,2840.0,-2124.0,-15964.0,-247.0,177.0,-523.0,0.346773122620673,0.3675461585796301,-0.8359425337886259,-0.21414551815136537
-4480.0422694683075,3204.0,-2248.0,-15960.0,-139.0,276.0,12.0,0.37126386224726315,0.3675036663313294,-0.8252157603843198,-0.21476300574262147
-4480.0578989982605,2836.0,-2152.0,-15664.0,-201.0,228.0,143.0,0.39643662736543683,0.3548354105218058,-0.8184418547174184,-0.2169856271038514
