programtime,ax,ay,az,gx,gy,gz,q0,q1,q2,q3
-95.67367196083069,3816.0,11248.0,11340.0,-92.0,-219.0,-24.0,0.9997834549438906,-0.0077143383092725185,-0.01921321455671721,-0.002093941571488233
-95.68145608901978,3776.0,10868.0,11292.0,-104.0,-257.0,255.0,0.998791193973364,-0.016937901962766438,-0.04151906053263702,0.02013519135366918
-95.68924903869629,3800.0,10992.0,11464.0,-53.0,-317.0,251.0,0.9964949653140713,-0.021574952906248113,-0.06890150151424178,0.04224794196033635
-95.69703388214111,3816.0,10944.0,11524.0,-35.0,-409.0,41.0,0.99317873061676,-0.023016989997685006,-0.10450228469997742,0.04631953922927744
-95.70480442047119,3800.0,11060.0,11396.0,46.0,-412.0,9.0,0.9888341893911458,-0.01710860658540319,-0.13994019503370284,0.04828025772291307
-95.71260213851929,3916.0,11064.0,11352.0,20.0,-392.0,-30.0,0.9836288522236067,-0.01303072347188713,-0.1736292063741054,0.04644760502940205
-95.72044086456299,3912.0,11184.0,11428.0,2.0,-393.0,-70.0,0.9773768071997858,-0.00987578492449911,-0.2072910048310582,0.040834849530861785
-95.72827291488647,3992.0,11248.0,11472.0,243.0,-358.0,-63.0,0.9706360922096847,0.013575285341351181,-0.23680310730222895,0.04006964561638259
-95.73606419563293,3952.0,11272.0,11448.0,43.0,-398.0,-82.0,0.9620492309574408,0.020603252353091267,-0.2700339759042555,0.03344301218508106
-95.74385809898376,4064.0,11408.0,11488.0,42.0,-387.0,-151.0,0.9526807042745719,0.029101320134203718,-0.30184980833519526,0.020959057167689754
-95.75165104866028,3996.0,11448.0,11616.0,249.0,-380.0,-165.0,0.9415235728396505,0.05508631644052339,-0.33216988398495884,0.012729010240109815
-95.75945353507996,3848.0,11384.0,11636.0,20.0,-411.0,-216.0,0.9290205738530237,0.0636665714951673,-0.36445153049674217,-0.006513290292267859
-95.76724886894226,3884.0,11408.0,11512.0,-21.0,-318.0,-213.0,0.9184251523606837,0.06877418562764158,-0.388681039660506,-0.026313500545114915
-95.77505350112915,3856.0,11400.0,11564.0,-36.0,-304.0,-6.0,0.9080369908622833,0.06561003959713198,-0.41263486371326863,-0.02994353316101269
-95.78284192085266,3844.0,11328.0,11344.0,-55.0,-293.0,-217.0,0.8968174925616987,0.06849219296017356,-0.43409387418634376,-0.050889222166826585
-95.79067802429199,3768.0,11224.0,11572.0,-100.0,-295.0,-235.0,0.8847365907108108,0.06842790082823404,-0.45491474301882107,-0.0749090383716977
-95.79850268363953,3800.0,11156.0,11552.0,-45.0,-306.0,-184.0,0.8712805296490859,0.07042069359051015,-0.47675825976221,-0.09280477529280978
-95.80634021759033,3856.0,11084.0,11416.0,-252.0,-345.0,-100.0,0.8570983811394501,0.05276977773549943,-0.4998164241012933,-0.1130542250624721
-95.81419610977173,3848.0,11056.0,11456.0,28.0,-356.0,-61.0,0.8404819240198835,0.05416175733128349,-0.5260319910304108,-0.11809734904392959
-95.82204222679138,3900.0,11112.0,11476.0,27.0,-426.0,-22.0,0.8200688445507438,0.05288527389624029,-0.5569243678333418,-0.12052172632169018
-95.8298876285553,3884.0,11100.0,11436.0,48.0,-381.0,-49.0,0.8004295012996915,0.05480766815628936,-0.5839999743263053,-0.12350207669214276
-95.83770608901978,3756.0,11192.0,11460.0,19.0,-395.0,-52.0,0.7792496970945401,0.05462421379267285,-0.6110464936642521,-0.12809483762518611
-95.84551191329956,3788.0,11188.0,11672.0,239.0,-376.0,-133.0,0.7560277140067266,0.07382447743068256,-0.638002156949518,-0.12619544331556642
-95.85332798957825,3832.0,11232.0,11600.0,-29.0,-312.0,-207.0,0.7362474136721266,0.08005754694236687,-0.6564557443606078,-0.14351442692160135
-95.86112999916077,3800.0,11008.0,11468.0,-39.0,-312.0,-207.0,0.715746998180078,0.0855462625371687,-0.6740808577438275,-0.161254670584994
-95.86892747879028,3768.0,11016.0,11332.0,-52.0,-315.0,-174.0,0.6948856773804705,0.08813808981274938,-0.6912588412188315,-0.1775578410897214
-95.8767192363739,3864.0,11028.0,11172.0,-254.0,-361.0,-217.0,0.671158501046235,0.08023026632158099,-0.7067787729004957,-0.20874179508811483
-95.88458514213562,3808.0,11360.0,11032.0,53.0,-458.0,-155.0,0.6392112404666072,0.08454927416607683,-0.7327183647714014,-0.21767914053912996
-95.89237928390503,3852.0,11320.0,11008.0,79.0,-460.0,-138.0,0.6061190626516075,0.08902506440519352,-0.75807826484526,-0.2236326545189403
-95.90017127990723,3808.0,11452.0,11240.0,85.0,-532.0,-146.0,0.5668132042263935,0.09274145242620757,-0.785720930133141,-0.22970510326764176
-95.90797448158264,3776.0,11324.0,11588.0,54.0,-556.0,-266.0,0.5222281485697079,0.10240201348381288,-0.8108887577806397,-0.2434153055600388
-95.9158022403717,3784.0,11580.0,11524.0,-76.0,-534.0,-326.0,0.47753755349489224,0.11053386681335294,-0.8293650526957298,-0.2681301151612967
-95.92361450195312,3708.0,11620.0,11736.0,-100.0,-516.0,-464.0,0.42955605300550337,0.12766753313540555,-0.842401502267082,-0.2992362065118734
-95.93140959739685,3704.0,11268.0,11696.0,-154.0,-485.0,-600.0,0.37911469047877816,0.15300087567022236,-0.8478044879097775,-0.3377726066266556
-95.93921375274658,3724.0,11440.0,11604.0,-221.0,-458.0,-681.0,0.3272626394122647,0.18208690472310424,-0.8449514612306582,-0.381838384840305
-95.94701766967773,3616.0,11404.0,11452.0,-219.0,-525.0,-673.0,0.26886307997269887,0.20735252174271857,-0.8393977651266276,-0.42441603157156144
-95.95480561256409,3676.0,11320.0,11256.0,-146.0,-571.0,-719.0,0.20243208078238178,0.23466574968625134,-0.8315695286488332,-0.4609179510683676
-95.962646484375,3736.0,11200.0,11212.0,-124.0,-671.0,-685.0,0.12831528500588074,0.2542672609744578,-0.821417623280667,-0.4941218835412438
-95.97050166130066,3676.0,11008.0,11308.0,-103.0,-707.0,-647.0,0.05188066656005466,0.2680230822031798,-0.8076171707293507,-0.5227107511680921
-95.97831439971924,3772.0,11216.0,11144.0,-79.0,-1022.0,-589.0,-0.0448958648885531,0.26111787718058116,-0.7906032288636134,-0.5520401706787692
-95.9861307144165,3788.0,11240.0,11344.0,-74.0,-810.0,-543.0,-0.12476872489394826,0.2588448178014072,-0.768633462483205,-0.5715196636483945
-95.99392485618591,3760.0,11324.0,11492.0,-115.0,-795.0,-548.0,-0.20207588626919243,0.25620879424524395,-0.7391413389663143,-0.5892304056742174
-96.00173878669739,3752.0,11344.0,11360.0,-134.0,-520.0,-593.0,-0.26244850643253836,0.26934451332457515,-0.708035186895129,-0.5977127142128212
-96.00952911376953,4060.0,11372.0,11552.0,-154.0,-752.0,-658.0,-0.3382818618671112,0.2731447370362608,-0.6646672119670975,-0.60759759043054
-96.01737117767334,3880.0,11472.0,11388.0,-226.0,-724.0,-690.0,-0.40982201005426794,0.2802165811323165,-0.6123532480542516,-0.6152626165557304
-96.02520966529846,3896.0,11416.0,11556.0,-191.0,-795.0,-693.0,-0.4827266160224145,0.2800387348545919,-0.5542375153389971,-0.6175549350101921
-96.03302001953125,3928.0,11408.0,11448.0,-182.0,-827.0,-666.0,-0.551731306672841,0.273983514986708,-0.49108967200509807,-0.6159192583468497
-96.04081845283508,3916.0,11344.0,11428.0,-126.0,-853.0,-681.0,-0.6190384647836977,0.26200249270369896,-0.42495892355007586,-0.6062639575551656
-96.04862594604492,4008.0,11388.0,11356.0,-2.0,-880.0,-635.0,-0.6821746679898932,0.23782609821209377,-0.36112876262503807,-0.5896291089888622
-96.0564513206482,3988.0,11348.0,11424.0,11.0,-917.0,-649.0,-0.7411504113773545,0.20919830456507543,-0.2921846099001589,-0.5670628631992827
-96.0642569065094,3840.0,11400.0,11396.0,55.0,-870.0,-648.0,-0.7928603512755177,0.17804606767701192,-0.22575433172304385,-0.5373146590856211
-96.07206201553345,4020.0,11392.0,11480.0,42.0,-753.0,-643.0,-0.8353925758078491,0.15164524607315066,-0.16498326536967034,-0.5018998762467486
-96.0798647403717,4048.0,11404.0,11620.0,19.0,-672.0,-710.0,-0.8732606755012304,0.130272205661253,-0.10701586962599317,-0.4571570284962044
-96.08766007423401,4020.0,11380.0,11540.0,-38.0,-560.0,-678.0,-0.9024704907880347,0.11650229897160021,-0.054940551657852374,-0.41104228903443335
-96.09545969963074,3988.0,11316.0,11732.0,-44.0,-466.0,-712.0,-0.9272634298287027,0.10605432780225697,-0.009392354791845648,-0.3589523574629175
-96.10325026512146,3976.0,11252.0,11436.0,-49.0,-440.0,-714.0,-0.9470238548424587,0.09624230056135862,0.03426231395950262,-0.30448207136730937
-96.1110486984253,3880.0,11152.0,11476.0,-32.0,-423.0,-614.0,-0.9598020803926647,0.0853082948681257,0.07506108385201385,-0.25664819304169406
-96.11884641647339,3840.0,11120.0,11396.0,25.0,-477.0,-565.0,-0.9675321823889411,0.06836477009530771,0.11839846309354057,-0.21257831072006303
-96.12667942047119,3840.0,11020.0,11528.0,63.0,-461.0,-487.0,-0.9705309581677449,0.049054882407277324,0.15875739799715385,-0.17452611933799617
-96.13451790809631,3840.0,11068.0,11476.0,105.0,-500.0,-403.0,-0.9686550291776667,0.0266009827488448,0.200865737470554,-0.14371074307796178
-96.14232277870178,3880.0,11244.0,11552.0,154.0,-500.0,-296.0,-0.9626602737564482,0.0018073281136497604,0.24149441210051273,-0.12232080698097708
-96.15010952949524,3844.0,10968.0,11456.0,199.0,-503.0,-242.0,-0.9534254704238441,-0.025650048512265676,0.2812038586530638,-0.10604874934207202
-96.15790700912476,3964.0,10968.0,11416.0,7.0,-445.0,-190.0,-0.9434402709388917,-0.035272561612889206,0.3173493741681737,-0.08925063743797006
-96.16571044921875,4024.0,10936.0,11316.0,259.0,-422.0,-139.0,-0.9311369143188795,-0.06394570558816001,0.3491738738610468,-0.08350209184456381
-96.17350196838379,4012.0,10980.0,11348.0,346.0,-471.0,-26.0,-0.9138969547552696,-0.09641640853815688,0.38413495704894524,-0.08908741227947538
-96.18130469322205,4092.0,11244.0,11364.0,401.0,-403.0,69.0,-0.8954142889959026,-0.12928570821112367,0.41305900974863774,-0.104406470967012
-96.1891098022461,4052.0,11068.0,11484.0,456.0,-369.0,104.0,-0.8749084236885948,-0.16450324696902982,0.43813779910850154,-0.12453594215222732
-96.19691824913025,4136.0,11208.0,11572.0,456.0,-356.0,181.0,-0.8516752145540744,-0.1961560593323863,0.4621262076423421,-0.150371199076046
-96.20469427108765,4224.0,11204.0,11760.0,476.0,-221.0,218.0,-0.8308271579461517,-0.22549553970579117,0.4752604124143473,-0.18167425679952212
-96.21253418922424,4276.0,11328.0,11592.0,449.0,-134.0,223.0,-0.8121679092973291,-0.2507796747709137,0.4815598608933284,-0.21352503882635926
-96.22030711174011,4580.0,11348.0,11676.0,461.0,-243.0,201.0,-0.7872952894997837,-0.27929936353788815,0.49381575530027816,-0.24146219678450268
-96.22812724113464,4296.0,11348.0,12016.0,417.0,168.0,4.0,-0.7837968093022742,-0.3040733692793263,0.47302594584805835,-0.2635306478898468
-96.23596978187561,4320.0,11412.0,11640.0,404.0,324.0,272.0,-0.7792962817520177,-0.31268379186749484,0.4480073575120653,-0.3069455312688255
-96.24380898475647,4248.0,11336.0,11668.0,397.0,394.0,266.0,-0.7757256603932206,-0.318325298803379,0.4170180685628824,-0.350734421523358
-96.2516028881073,4244.0,11280.0,11664.0,387.0,258.0,365.0,-0.7622951072824758,-0.32297662246713016,0.39710173171597046,-0.3961091837121435
-96.25940537452698,4188.0,11276.0,11436.0,393.0,536.0,405.0,-0.7541711890026391,-0.31589124458795437,0.3582218567230224,-0.45068352603232464
-96.26719999313354,4132.0,11292.0,11536.0,399.0,548.0,406.0,-0.7426838704272385,-0.30724568133023594,0.316660783179987,-0.5037327747000121
-96.27499771118164,4280.0,11044.0,11468.0,409.0,514.0,475.0,-0.7233412734747507,-0.2973681284483775,0.27715547561020754,-0.5581527036665819
-96.28278613090515,3956.0,11476.0,11368.0,422.0,531.0,266.0,-0.7109415835508417,-0.2912112129155959,0.22925298947681358,-0.5976630832387033
-96.29059910774231,3888.0,11196.0,11404.0,424.0,551.0,538.0,-0.6812215992094326,-0.2772955835455487,0.18580013593822925,-0.6515539897828978
-96.29839634895325,3788.0,11124.0,11512.0,420.0,588.0,527.0,-0.6487391519404292,-0.25959630056926264,0.13900464820346584,-0.7017299916978015
-96.30619359016418,3780.0,11052.0,11416.0,386.0,586.0,558.0,-0.611138291783387,-0.2381810212544438,0.09425150577030694,-0.7489301990775266
-96.31401491165161,3784.0,11060.0,11520.0,401.0,564.0,576.0,-0.5681062380291692,-0.21742494476895455,0.04949139395159647,-0.7921693617082713
-96.32181334495544,3936.0,11076.0,11348.0,434.0,529.0,643.0,-0.5160223634519924,-0.19907262257741942,0.0051614134424276155,-0.8331052581570016
-96.32961225509644,3868.0,10992.0,11416.0,488.0,466.0,664.0,-0.4579543927474617,-0.18638308852526092,-0.03991114782447396,-0.8683007651467441
-96.33740735054016,3996.0,10776.0,11388.0,553.0,456.0,1020.0,-0.3679382010271366,-0.17659436243316726,-0.08322847708210081,-0.9091253664838155
-96.34524059295654,4012.0,11068.0,11280.0,570.0,423.0,793.0,-0.29193391653775264,-0.16651672120682875,-0.12952842811535298,-0.9328821770424288
-96.3530204296112,4076.0,11136.0,11460.0,660.0,417.0,822.0,-0.20970585309474055,-0.15802877300008691,-0.18132194007811328,-0.9477197455620534
-96.36081886291504,4068.0,11220.0,11480.0,656.0,423.0,883.0,-0.12032266136231505,-0.1483475515869563,-0.2301915080133309,-0.9542155577957183
-96.36861491203308,4116.0,11296.0,11536.0,620.0,470.0,838.0,-0.03293497655393345,-0.1319822863822942,-0.27480540970368383,-0.9518287399518278
-96.3764398097992,4268.0,11336.0,11732.0,574.0,546.0,862.0,0.05803772339417791,-0.10845525965182228,-0.31275560941573777,-0.941834915521859
-96.38423681259155,4140.0,11376.0,11444.0,613.0,567.0,831.0,0.14679735952639592,-0.081031115212804,-0.35081046826178364,-0.9213123840269355
-96.39203572273254,4176.0,11368.0,11456.0,573.0,579.0,861.0,0.23647509122903237,-0.053198507508909566,-0.3815898236711682,-0.8919857938878019
-96.39983892440796,4112.0,11404.0,11568.0,567.0,588.0,888.0,0.32587990945957623,-0.024916286714705693,-0.40737160577297765,-0.8527777190317032
-96.40764904022217,4036.0,11420.0,11380.0,260.0,564.0,865.0,0.40902176515717753,-0.006000048995772817,-0.4069551950391201,-0.8167329210154483
-96.41543841362,3964.0,11348.0,11404.0,765.0,566.0,813.0,0.4844996230553527,0.03286347623177282,-0.4381674468343079,-0.7564320165909749
-96.42324376106262,3968.0,11416.0,11392.0,470.0,561.0,791.0,0.5543495956497085,0.059447536666783186,-0.4455947742017495,-0.7004340178713109
-96.43106269836426,3964.0,11332.0,11396.0,461.0,500.0,741.0,0.6143235372009591,0.0833469263390491,-0.4515025817745324,-0.6417205779478062
-96.43887615203857,3896.0,11332.0,11392.0,403.0,545.0,709.0,0.6701196315361405,0.10730624440474139,-0.44817458592389986,-0.5818630336028903
-96.4466598033905,3864.0,11248.0,11416.0,383.0,541.0,673.0,0.7194309102183623,0.13056757701362331,-0.44059064472907744,-0.5208177771854435
-96.45446586608887,3920.0,11280.0,11456.0,396.0,486.0,623.0,0.7596741706377866,0.1532673814185089,-0.43368168585293354,-0.45970040201707674
-96.46226382255554,3960.0,11232.0,11352.0,367.0,424.0,584.0,0.7922807516052383,0.17223024897684275,-0.42683301293069364,-0.4005515335705502
-96.47006416320801,3988.0,11216.0,11216.0,454.0,409.0,627.0,0.8202384735533748,0.1941516900867679,-0.42240564305286726,-0.33329782546001546
-96.4778699874878,3988.0,11480.0,11256.0,449.0,334.0,612.0,0.8405734438012307,0.2130403461627908,-0.4206130639502596,-0.2667109801214646
-96.48567628860474,3984.0,11324.0,11204.0,467.0,311.0,677.0,0.8565884512053639,0.2291480256609878,-0.41980377029456956,-0.19368067028934868
-96.49347043037415,3976.0,11332.0,11220.0,509.0,241.0,637.0,0.8636848816048921,0.24738049848075927,-0.4217514614748278,-0.12238063164733708
-96.50127458572388,4024.0,11372.0,11044.0,557.0,220.0,635.0,0.8640998488592844,0.26768373211069024,-0.4233815687055631,-0.049243456875717476
-96.50906896591187,4296.0,11508.0,11348.0,495.0,7.0,612.0,0.8534938324402311,0.2818639602015577,-0.4380291248604227,0.015214194030366944
-96.51687169075012,3840.0,11592.0,11468.0,459.0,367.0,508.0,0.8536866978712883,0.2955493751266591,-0.4213955588752785,0.0793433784259846
-96.52465486526489,4124.0,11652.0,11432.0,385.0,447.0,455.0,0.8553296703192147,0.3038432153186934,-0.3961029830563161,0.13853837876310385
-96.53248596191406,4072.0,11536.0,11496.0,291.0,510.0,361.0,0.8594167389565472,0.3064446003482931,-0.36319843164469845,0.18863052502047542
-96.5402901172638,4080.0,11708.0,11732.0,239.0,554.0,291.0,0.8644066608625295,0.30559004965057024,-0.32469671342030054,0.23235294382707788
-96.54808521270752,3940.0,11640.0,11420.0,208.0,518.0,260.0,0.8670947139357731,0.30307578295411314,-0.2876676720301893,0.27118100471847706
-96.55588507652283,3884.0,11600.0,11332.0,165.0,512.0,221.0,0.8693066250448623,0.2976325077513993,-0.25028136054159617,0.3050903514504714
-96.5636875629425,3612.0,11504.0,11256.0,128.0,407.0,148.0,0.8703173227571506,0.293180931770106,-0.2194056235855991,0.3293233537030931
-96.57147693634033,3692.0,11292.0,11180.0,146.0,295.0,130.0,0.8681320259276626,0.2933133099250576,-0.1957722646087127,0.34926681518506103
-96.57931113243103,3616.0,11524.0,11152.0,114.0,174.0,38.0,0.8669243909679839,0.29610871600270167,-0.1797954092264922,0.3583787653769396
-96.58713459968567,3620.0,11492.0,11184.0,96.0,66.0,41.0,0.8641870960967714,0.30081089237899294,-0.17258725324723545,0.36456427414457176
-96.5949318408966,3692.0,11412.0,11068.0,109.0,-52.0,-59.0,0.8623982610314156,0.31171673632255575,-0.1712182027031494,0.36025857759324414
-96.60273385047913,3704.0,11524.0,11136.0,135.0,-114.0,-256.0,0.8647904830417406,0.3293160944474127,-0.16825939004165896,0.3396720595532473
-96.61053776741028,3780.0,11452.0,11240.0,199.0,-210.0,-69.0,0.857790474382411,0.3515858066668186,-0.17589066565982536,0.33112746238115665
-96.61834120750427,3608.0,11396.0,11264.0,182.0,-229.0,-92.0,0.8511096037938263,0.37319456236248216,-0.1845998172128843,0.319783002109182
-96.62615895271301,3836.0,11392.0,11132.0,218.0,-245.0,-138.0,0.8435838655068539,0.39831387894479214,-0.19184228787696422,0.30480953442863207
-96.63397431373596,3908.0,11340.0,11324.0,9.0,-214.0,-181.0,0.8443451859801447,0.4075839356364419,-0.20073180321632492,0.28401282629625385
-96.64177227020264,3944.0,11396.0,11320.0,284.0,-201.0,-158.0,0.8342730898563796,0.4360127046526041,-0.20250387496782504,0.2699509465551574
-96.64958429336548,4004.0,11388.0,11144.0,283.0,-186.0,-140.0,0.8232055385658041,0.4631940817810677,-0.203701804588331,0.25746739344048164
-96.65741491317749,4340.0,11432.0,11248.0,337.0,-208.0,-91.0,0.8075441433059154,0.4933089855916951,-0.20704903805629932,0.24829296644643195
-96.66526651382446,4088.0,11264.0,11184.0,315.0,-207.0,-99.0,0.7920579684955369,0.5213830393979573,-0.21024380425100084,0.23791057888403722
-96.67306280136108,4020.0,11628.0,11112.0,345.0,-235.0,-94.0,0.7735925153718932,0.5513468545234474,-0.21473277796407025,0.2268503917464569
-96.68086981773376,3972.0,11648.0,11148.0,294.0,-218.0,-116.0,0.7573668417844908,0.577249879297565,-0.21778447164189413,0.21388774562371216
-96.6886625289917,4000.0,11748.0,11196.0,286.0,-5.0,-150.0,0.7455025751596583,0.5987433870604638,-0.20501134162710344,0.20905170816316418
-96.69648551940918,4016.0,11732.0,11196.0,231.0,-8.0,-294.0,0.738395165143088,0.6187258870711104,-0.18574461895527458,0.193519490725196
-96.70428609848022,4000.0,11672.0,11368.0,141.0,-505.0,-294.0,0.7266987454180611,0.640099190919422,-0.1996729654820524,0.14937424827499737
-96.71209764480591,3928.0,11600.0,11440.0,168.0,-173.0,-369.0,0.7187139246583424,0.6588262520716729,-0.187626770181362,0.11914050190722508
-96.71989941596985,4024.0,11752.0,11316.0,145.0,-205.0,-387.0,0.7106047524196043,0.6757144500832236,-0.17652380577236668,0.08538274874375582
-96.7277512550354,3996.0,11452.0,11436.0,175.0,-161.0,-407.0,0.7003804370319421,0.6933235079520668,-0.16102346842011217,0.053302902003019195
-96.73553705215454,3968.0,11376.0,11244.0,194.0,-208.0,-366.0,0.686995022849283,0.7105859691149052,-0.15053821302158546,0.02106336861975056
-96.74335408210754,3932.0,11504.0,11024.0,275.0,-202.0,-339.0,0.6674580793783643,0.7311344927647331,-0.14098056805206177,-0.008157523761528767
-96.75118851661682,3900.0,11268.0,11216.0,9.0,-235.0,-310.0,0.6635243497351625,0.734761911787033,-0.13481134284009408,-0.04106424402378285
-96.75898766517639,3956.0,11192.0,11200.0,325.0,-218.0,-214.0,0.6390018013241644,0.7546342517504878,-0.13477882175770073,-0.06354929736087273
-96.7667875289917,3908.0,11220.0,11200.0,363.0,-208.0,-187.0,0.6112553760094949,0.77519960812307,-0.135974288200156,-0.0833272213252704
-96.7745852470398,3944.0,11288.0,11152.0,340.0,-219.0,-79.0,0.5848335574598902,0.7920722118982586,-0.14470244959707923,-0.09824725079112681
-96.78237748146057,3940.0,11284.0,11192.0,382.0,-215.0,-39.0,0.5550986711299943,0.809531576741897,-0.15615178646375033,-0.11018489529727567
-96.79017853736877,4040.0,11364.0,11192.0,392.0,-186.0,35.0,0.5249555373191345,0.8255779177844788,-0.17129315035339002,-0.11619570623148757
-96.79797649383545,3984.0,11372.0,11208.0,400.0,-237.0,36.0,0.492675833046575,0.8401909022923599,-0.1886553265387178,-0.12553461277904024
-96.80579566955566,4000.0,11428.0,11116.0,416.0,-258.0,64.0,0.45832434219370993,0.8533369683223854,-0.20881517949842845,-0.13472578319721354
-96.81364941596985,4000.0,11472.0,11028.0,454.0,-263.0,95.0,0.4205034880127628,0.86567461320898,-0.23150698054642868,-0.14208729208785253
-96.82145380973816,3960.0,11452.0,11024.0,438.0,-273.0,87.0,0.3826940104969514,0.8756376839858394,-0.2532739395755389,-0.1505199396942516
-96.8293035030365,3924.0,11504.0,11048.0,414.0,-231.0,14.0,0.34595191481104526,0.8853145636905501,-0.2672744183263909,-0.15842910485220787
-96.83712482452393,4028.0,11268.0,11220.0,468.0,-296.0,70.0,0.3036033581293361,0.8926188701555262,-0.287757963004758,-0.1680830399005638
-96.84495210647583,4092.0,11496.0,11080.0,459.0,-272.0,32.0,0.2613050010644463,0.8989733235461256,-0.3038689197902166,-0.17672107841643975
-96.85275292396545,4124.0,11460.0,11128.0,524.0,-259.0,90.0,0.21452565314719685,0.9033087549815904,-0.32449688352185607,-0.1808695936302746
-96.86059355735779,4068.0,11448.0,11176.0,583.0,-265.0,61.0,0.1618584652381504,0.9068606954287277,-0.342940930096284,-0.18383969860171848
-96.86840319633484,4012.0,11420.0,11468.0,569.0,-200.0,91.0,0.11222278181761401,0.9076612711671643,-0.36159751419421915,-0.18111957871220052
-96.87622928619385,4096.0,11436.0,11232.0,594.0,-158.0,68.0,0.0612449819016256,0.9075000521653531,-0.3773842092121376,-0.17399386813643924
-96.8840229511261,4116.0,11440.0,11212.0,562.0,-138.0,92.0,0.013637708120251966,0.9041856502846106,-0.39344152663106646,-0.1657289590229739
-96.89182353019714,4124.0,11320.0,11288.0,551.0,-105.0,101.0,-0.03188583385983055,0.8987355111076463,-0.4090142103873664,-0.1548068163045168
-96.8996160030365,4052.0,11192.0,11328.0,597.0,-139.0,142.0,-0.0815796755981031,0.888782157303081,-0.4272023072283921,-0.1446002146876971
-96.90741896629333,4044.0,11132.0,11368.0,648.0,-90.0,115.0,-0.1334798481909525,0.8772680747913255,-0.44293053745948263,-0.12804840516263902
-96.91521167755127,4024.0,11024.0,11372.0,686.0,-80.0,108.0,-0.18750496785827186,0.8626008450044189,-0.45709826522804947,-0.10873290739991578
-96.92301392555237,3852.0,11040.0,11272.0,708.0,-22.0,99.0,-0.2402509122472077,0.8452088591474018,-0.4700093260014576,-0.0836224674043269
-96.93082213401794,4200.0,11212.0,11048.0,799.0,18.0,209.0,-0.2961402016968315,0.8178867404059746,-0.4903775778210558,-0.05377817380131391
-96.93867588043213,4136.0,11296.0,11108.0,876.0,47.0,281.0,-0.3541909239597729,0.780913310193229,-0.5141181187539124,-0.02014326975726933
-96.94648766517639,4084.0,11468.0,11016.0,957.0,56.0,408.0,-0.41447970890114966,0.7300967486936505,-0.5431125001647295,0.013932717645719144
-96.95428085327148,3972.0,11676.0,11060.0,989.0,49.0,539.0,-0.47356070762387925,0.6654769997675996,-0.5752616787483347,0.04421108389004601
-96.96206212043762,3976.0,11896.0,11172.0,935.0,89.0,554.0,-0.5231974881165142,0.5959525681681039,-0.6047840020573568,0.07308375864648847
-96.96989011764526,4296.0,11932.0,11184.0,884.0,131.0,698.0,-0.5639938425379637,0.5153513350966725,-0.6383165587833423,0.09421208933216316
-96.9776861667633,4112.0,12000.0,11152.0,987.0,174.0,731.0,-0.6012350067950798,0.4220949548328527,-0.6677385056681114,0.12032291451294716
-96.98546934127808,4160.0,12000.0,11232.0,667.0,208.0,842.0,-0.6197586408599786,0.3342607487448164,-0.6994724162524005,0.1220955274773609
-96.99325680732727,4164.0,12284.0,11516.0,565.0,156.0,870.0,-0.6333959236498592,0.24782322592577496,-0.7242199633244815,0.11357243203247411
-97.00105690956116,4132.0,12056.0,11084.0,484.0,142.0,796.0,-0.6406751962986056,0.16870684390563254,-0.7419544474423733,0.10284401580853522
-97.00883769989014,4104.0,12004.0,11056.0,409.0,138.0,793.0,-0.6429477027537223,0.09288661640345423,-0.7552968877315834,0.08670028488887828
-97.0166084766388,4148.0,11892.0,11120.0,376.0,99.0,650.0,-0.6430490098417757,0.02805748954124605,-0.7615684482106077,0.0755926379500144
-97.02444195747375,4176.0,11760.0,11040.0,365.0,128.0,747.0,-0.6387088397954737,-0.04288017593156987,-0.7660585323509715,0.05802269807129961
-97.03226852416992,4172.0,11644.0,11016.0,375.0,149.0,448.0,-0.6288085743607809,-0.09442829106833923,-0.7696663732041285,0.057417319817965995
-97.04006433486938,4164.0,11556.0,11028.0,359.0,103.0,389.0,-0.6202617304446826,-0.1406839278493058,-0.7694014620341185,0.05920142236821574
-97.04785299301147,4216.0,11532.0,11068.0,385.0,135.0,317.0,-0.607558665845354,-0.1833820435755241,-0.7699832600913588,0.06610047525821086
-97.05564832687378,4184.0,11552.0,11040.0,391.0,113.0,292.0,-0.5948933469052179,-0.2242299464393191,-0.7682488085026641,0.07494401351652452
-97.06344270706177,4324.0,11552.0,10756.0,394.0,35.0,8.0,-0.5846115878244624,-0.24535383114604417,-0.7668139430695323,0.10013573606597942
-97.0712480545044,4080.0,11696.0,11000.0,402.0,-11.0,283.0,-0.5787538389395281,-0.28449473416202475,-0.7559185091526099,0.1126674206118755
-97.07903623580933,4332.0,11744.0,11060.0,378.0,-11.0,247.0,-0.5721536293461461,-0.3195714445369256,-0.7448683027978803,0.12524187698058803
-97.086829662323,4148.0,11828.0,10764.0,316.0,21.0,240.0,-0.5643362824375903,-0.35101360259440145,-0.7352593928195159,0.13307004316861354
-97.094651222229,4128.0,11864.0,10968.0,321.0,6.0,168.0,-0.5558700431903392,-0.3775229862564918,-0.7262491601250034,0.1450760054222559
-97.10245275497437,4132.0,11832.0,10992.0,235.0,83.0,157.0,-0.544754549729612,-0.39982804395375204,-0.7218220226114849,0.14950914182774683
-97.1102454662323,4132.0,11860.0,11260.0,133.0,155.0,87.0,-0.5314652875996335,-0.41360667654244315,-0.7242200697227705,0.14825469910562392
-97.11804246902466,4164.0,11832.0,11052.0,97.0,177.0,80.0,-0.5177979850892478,-0.4254046924541056,-0.7280953904264647,0.14419846294353048
-97.12587189674377,4332.0,11716.0,10972.0,142.0,207.0,-7.0,-0.4992411492016775,-0.43390491269624454,-0.7356898265792818,0.14575760957699255
-97.13369274139404,4328.0,11540.0,10892.0,103.0,213.0,34.0,-0.4820670752136084,-0.44321478252786284,-0.7421586050706069,0.14273260476649124
-97.14148092269897,4120.0,11732.0,10916.0,183.0,166.0,47.0,-0.4647839630339338,-0.45594211168632326,-0.7448149903281348,0.1460934244926425
-97.14925932884216,4124.0,11432.0,10716.0,233.0,178.0,136.0,-0.4455704525730504,-0.47634016611111446,-0.7433087675695189,0.14852304197452265
-97.15706992149353,4080.0,11440.0,10856.0,324.0,87.0,238.0,-0.4293372134508074,-0.5052071642849515,-0.7320782230242864,0.15651438807680704
-97.16487169265747,4132.0,11500.0,10828.0,270.0,25.0,267.0,-0.4193239345761538,-0.5324546090356342,-0.7171111080210039,0.1625151868631711
-97.17267203330994,4016.0,11560.0,10800.0,329.0,-69.0,274.0,-0.41202009381468924,-0.5602851665689947,-0.6966390098019933,0.17610810440688657
-97.1805112361908,4056.0,11708.0,10936.0,312.0,-138.0,284.0,-0.40928974229581455,-0.5862297290613323,-0.6724390885781996,0.191421743196072
-97.18830513954163,4064.0,11976.0,10972.0,12.0,-181.0,499.0,-0.4272597911328438,-0.6122780510244458,-0.6395003946326961,0.1833136775569421
-97.19608736038208,4084.0,11880.0,10924.0,194.0,-226.0,211.0,-0.4327492562923117,-0.6273662049781881,-0.6163244424976216,0.19820168417476458
-97.20387673377991,4196.0,11972.0,11200.0,127.0,-303.0,136.0,-0.44432244674327054,-0.6339391824895295,-0.5948918294573239,0.21633859449829734
-97.21167421340942,4148.0,12012.0,10892.0,84.0,-234.0,17.0,-0.45213103021205375,-0.6335170262975497,-0.583092290793016,0.2328885770669084
-97.21946716308594,4152.0,12008.0,10796.0,38.0,-205.0,-51.0,-0.45943997550166504,-0.6281489085956463,-0.5768867374743423,0.24808375534753813
-97.2273051738739,4224.0,11948.0,10908.0,16.0,-216.0,-184.0,-0.4654067977516667,-0.6146638638349138,-0.5777259488548544,0.2679880130189257
-97.23513150215149,4172.0,11900.0,10820.0,51.0,-224.0,-296.0,-0.46688884551163023,-0.5962568002666455,-0.582938210658023,0.2944073311373565
-97.24293088912964,4212.0,11832.0,10784.0,24.0,-233.0,-334.0,-0.4687112521013781,-0.5738965088713066,-0.5897698334210865,0.3211294175956922
-97.25073337554932,4240.0,11700.0,10728.0,65.0,-251.0,-321.0,-0.46916983026820025,-0.5526466267936143,-0.5933070541060859,0.3499258718753244
-97.2585437297821,4152.0,11656.0,10832.0,90.0,-339.0,-366.0,-0.47084020335101606,-0.5265182610492511,-0.5936802062668445,0.38552799687831163
-97.26633930206299,4128.0,11628.0,10788.0,79.0,-366.0,-375.0,-0.4731463131973059,-0.49749469056322376,-0.5925073425383696,0.4213865781053286
-97.2741539478302,4096.0,11664.0,10884.0,96.0,-404.0,-300.0,-0.4784548659915292,-0.4706251571301164,-0.5846558793304825,0.4558183908637095
-97.28194904327393,4148.0,11628.0,10988.0,56.0,-497.0,-334.0,-0.4876535639755417,-0.435555089712382,-0.5745159677407538,0.49235877993440574
-97.2897355556488,4104.0,11596.0,10992.0,34.0,-500.0,-354.0,-0.49560784944061614,-0.39720279516065465,-0.564327801719367,0.5273868895753834
-97.29752993583679,4160.0,11664.0,10936.0,45.0,-546.0,-355.0,-0.5038802226944066,-0.3559619715004937,-0.5499489888926888,0.5629848183022578
-97.30531644821167,4232.0,11712.0,10980.0,24.0,-522.0,-366.0,-0.5095137244394419,-0.3133231273794032,-0.5362381044222582,0.595544354202659
-97.31310486793518,4232.0,11652.0,10980.0,8.0,-507.0,-345.0,-0.5144502941090652,-0.2708002651774995,-0.5218372889002222,0.6242547197932575
-97.32089948654175,4236.0,11648.0,11068.0,251.0,-768.0,-351.0,-0.5229213307198712,-0.22358859275984266,-0.4804126848595439,0.667656405115593
-97.32869863510132,4168.0,11608.0,10760.0,247.0,-593.0,-344.0,-0.5219550569967681,-0.18552041937427763,-0.44460478120313546,0.703897493248843
-97.3365740776062,4240.0,11628.0,11004.0,37.0,-580.0,-368.0,-0.5204038278370938,-0.13705830583822237,-0.4209276985322492,0.7302155499450835
-97.34436559677124,4200.0,11568.0,11004.0,55.0,-582.0,-292.0,-0.5217498928553956,-0.09160405054501562,-0.3936431007047814,0.7512861349024451
-97.35215616226196,4128.0,11584.0,10908.0,77.0,-601.0,-285.0,-0.5222769772218392,-0.04585554060948391,-0.36267222309384706,0.7704497952855834
-97.35995483398438,4144.0,11484.0,10864.0,40.0,-660.0,-214.0,-0.5277130982777801,0.0034394992378642417,-0.3299186793125221,0.7827264661372706
-97.36777639389038,4168.0,11592.0,10944.0,75.0,-652.0,-200.0,-0.5319490359430242,0.050153684111054794,-0.29393687243382893,0.7925376622932153
-97.37555003166199,4224.0,11612.0,10876.0,73.0,-678.0,-170.0,-0.5369382223081114,0.09778544364593518,-0.2559316992123851,0.7978936757324461
-97.38335275650024,4204.0,11596.0,10984.0,70.0,-690.0,-170.0,-0.5400946930662527,0.14599908536668724,-0.21659097821695805,0.8000439598851942
-97.39116406440735,4236.0,11608.0,10876.0,101.0,-663.0,-173.0,-0.540867743514389,0.19036818004901884,-0.17549912582605823,0.8002637670698123
-97.39895606040955,4272.0,11668.0,10764.0,94.0,-650.0,-180.0,-0.5388705841745833,0.2335712508320194,-0.1347607978800098,0.7980617091747055
-97.4067587852478,4220.0,11648.0,10956.0,97.0,-587.0,-189.0,-0.5337928681046984,0.27159370129571325,-0.0961477779347892,0.7950205281470771
-97.41455292701721,4268.0,11708.0,11048.0,124.0,-529.0,-129.0,-0.5315760516626179,0.3031093448226213,-0.059525099652028166,0.7886750844875215
-97.42235660552979,4328.0,11692.0,11024.0,114.0,-524.0,-136.0,-0.5273169904716184,0.33405853303800936,-0.023507053393696808,0.780889945194068
-97.43016743659973,4368.0,11656.0,11004.0,138.0,-447.0,-103.0,-0.5247506302833189,0.3579121885780789,0.009687071903149715,0.7722964469181846
-97.43796968460083,4300.0,11712.0,10772.0,144.0,-500.0,-83.0,-0.5226453467803778,0.3843763735467592,0.04504772572700459,0.7596494898008459
-97.44575023651123,4268.0,11640.0,11244.0,188.0,-430.0,2.0,-0.5269175061522151,0.4038020553173036,0.07718375187276648,0.7438712995395742
-97.4535551071167,4248.0,11628.0,11104.0,220.0,-421.0,-28.0,-0.5295237781956323,0.42028402321542013,0.11189178743528594,0.7283173319781835
-97.46138000488281,4292.0,11652.0,10952.0,227.0,-401.0,20.0,-0.5347346420847128,0.4349402724112854,0.14416224451191276,0.7100021614379908
-97.46921110153198,4236.0,11700.0,10972.0,227.0,-328.0,36.0,-0.5410885405953277,0.4446643085810418,0.17220665169501467,0.6927060798221382
-97.47700619697571,4268.0,11680.0,10864.0,13.0,-305.0,27.0,-0.5384141557149917,0.4625430711789155,0.1864102804626634,0.6792755785157601
-97.48481035232544,4288.0,11760.0,10992.0,238.0,-506.0,-242.0,-0.5246656767606457,0.47656203459471574,0.23385619436041033,0.665526735129029
-97.49260306358337,4288.0,11724.0,10948.0,235.0,-157.0,38.0,-0.5332440814982919,0.47536523562695454,0.253134025358388,0.65238164253007
-97.50042939186096,4320.0,11844.0,11132.0,218.0,-88.0,-21.0,-0.5390026376772471,0.46948107523669314,0.2705441192770604,0.6448794895917908
-97.50822281837463,4380.0,11812.0,10924.0,207.0,-38.0,11.0,-0.5470818625322801,0.4618760141428404,0.28356762167985816,0.6379352531272771
-97.51602005958557,4100.0,11860.0,10928.0,205.0,64.0,-31.0,-0.5550733505974241,0.44748583411552156,0.2931996422014931,0.6369332567352732
-97.52380275726318,4404.0,11868.0,11008.0,217.0,145.0,-255.0,-0.552767773744597,0.42197331941160526,0.30811610287138863,0.6491924007299693
-97.53163361549377,4336.0,11904.0,10956.0,226.0,240.0,-26.0,-0.5657983420353426,0.39639878974020315,0.3102436629325395,0.6530613334540335
-97.53942441940308,4372.0,11916.0,11096.0,6.0,382.0,-11.0,-0.575362999021671,0.37360543257543744,0.29201220596933214,0.6664122385369533
-97.54722285270691,4300.0,11968.0,11052.0,169.0,456.0,-65.0,-0.5881299334657534,0.33640192743708175,0.2808903442573603,0.6797334323697536
-97.55501413345337,4240.0,12020.0,11104.0,107.0,619.0,-157.0,-0.5961279869599632,0.2896321657503066,0.25975621819808553,0.7023327835387421
-97.56279706954956,4260.0,12000.0,11116.0,45.0,792.0,-210.0,-0.6007463643072889,0.2331294067053409,0.22615889620883442,0.7304838390863905
-97.57059049606323,4276.0,11804.0,10884.0,-49.0,896.0,-210.0,-0.6020322545384386,0.17361513063090483,0.17991578664853267,0.7583173877909024
-97.57838726043701,4212.0,11952.0,10848.0,-77.0,983.0,-227.0,-0.5988808325496096,0.10838844963489573,0.12633915779633692,0.7833467365080056
-97.5861701965332,4224.0,11956.0,10752.0,-94.0,1049.0,-211.0,-0.5924869738151003,0.03890850588760214,0.06705856003105223,0.8018406721759509
-97.59396362304688,4212.0,11920.0,10920.0,-139.0,996.0,-201.0,-0.581435426400177,-0.024805029636165658,0.006792352481253621,0.813185968508658
-97.60176229476929,4180.0,11856.0,10752.0,-92.0,1026.0,-153.0,-0.5690514744474663,-0.09273438679138082,-0.05159403616898251,0.8154255382114206
-97.60955572128296,4232.0,11860.0,10724.0,-81.0,1043.0,-130.0,-0.5534661005962977,-0.1617022510432462,-0.1094211261890602,0.8096633094328739
-97.61739468574524,4220.0,11908.0,10836.0,-105.0,1143.0,-158.0,-0.5302378915261021,-0.2346980952304952,-0.1730882863656284,0.7961187270804156
-97.62522220611572,4248.0,11948.0,11000.0,-89.0,1180.0,-169.0,-0.49987610551496936,-0.3083292548404133,-0.23578448593256426,0.7742497180743814
-97.6330418586731,4280.0,11988.0,10668.0,-62.0,1291.0,-210.0,-0.45791442568697527,-0.3860140801988786,-0.2997658060137315,0.7425954283328972
-97.64083361625671,4360.0,12080.0,10568.0,-55.0,1426.0,-178.0,-0.407831975798051,-0.46790045365512023,-0.3632880758382013,0.6948122184732849
-97.64863348007202,4324.0,12084.0,10604.0,-54.0,1585.0,-224.0,-0.34296450397071304,-0.5496494363275417,-0.42783911874090524,0.630249581226314
-97.65645027160645,4292.0,12056.0,10636.0,-119.0,1725.0,-196.0,-0.2704643387900872,-0.6264820565896702,-0.4897223258437318,0.5427166090919127
-97.66425156593323,4188.0,12032.0,10576.0,-212.0,1841.0,-178.0,-0.19248329921207175,-0.6920158309004357,-0.5457481427697285,0.4315359011380253
-97.67204308509827,4192.0,12024.0,10576.0,-277.0,1917.0,-187.0,-0.10934817307456626,-0.7400796052309081,-0.5911897342572231,0.3013633240382644
-97.67984223365784,4208.0,11908.0,10496.0,-362.0,1912.0,-94.0,-0.031194831387121254,-0.7710149750196698,-0.6161748665697074,0.1577698469225035
-97.68761587142944,4204.0,11876.0,10280.0,-354.0,1857.0,29.0,0.04382916390737435,-0.7865525212762754,-0.6158193728290869,0.013440078627180472
-97.69541454315186,4220.0,11876.0,9984.0,-331.0,1688.0,149.0,0.1103873346813935,-0.7888947694572054,-0.5928227719833109,-0.11840962833749646
-97.70320677757263,4280.0,11808.0,10388.0,-269.0,1555.0,214.0,0.17285304429829243,-0.778978658270895,-0.554985438453685,-0.2351706574801798
-97.71101021766663,4100.0,11848.0,10276.0,-236.0,1448.0,302.0,0.2311585692245335,-0.7609332384693279,-0.5034749117563377,-0.3377267174781933
-97.71879601478577,4360.0,11980.0,10176.0,-142.0,1353.0,210.0,0.28529890346531345,-0.7278505931265786,-0.45477558555079184,-0.4266347577890391
-97.72658729553223,4472.0,11780.0,10416.0,-114.0,1323.0,251.0,0.33755412032708826,-0.6865478195549585,-0.39888220994061085,-0.5055712510689588
-97.73438000679016,4528.0,12080.0,10448.0,-129.0,1396.0,228.0,0.38550566304683803,-0.631743676011258,-0.3358453086667682,-0.5826604845234692
-97.74217796325684,4528.0,12180.0,10672.0,-173.0,1475.0,201.0,0.42576075630112137,-0.563510823585486,-0.2641200868620175,-0.6568286761491955
-97.74996185302734,4532.0,12248.0,10620.0,-182.0,1578.0,207.0,0.46052506431101575,-0.47975146713031463,-0.18315301277758628,-0.7240235968793687
-97.75773310661316,4604.0,12144.0,10768.0,-200.0,1591.0,182.0,0.48424724895544213,-0.3861610326238267,-0.09809653559175321,-0.7789488612655402
-97.76553225517273,4360.0,12084.0,10760.0,-2.0,1718.0,186.0,0.5057562464073493,-0.26781914204068197,-0.019051716655478123,-0.8198295911157519
-97.77332401275635,4412.0,11956.0,10784.0,-3.0,1756.0,495.0,0.537215967715623,-0.14118852217577682,0.06911952224349303,-0.8286659742513978
-97.78111267089844,4376.0,11760.0,10860.0,-285.0,1752.0,326.0,0.5400557634273352,-0.02544811708245311,0.17346170261760352,-0.8231665709021947
-97.78891062736511,4276.0,11760.0,10852.0,-261.0,1784.0,400.0,0.5343532646690936,0.09531087120308245,0.273370834037671,-0.794135261441991
-97.79669284820557,4200.0,11696.0,10728.0,-247.0,1742.0,539.0,0.5255493335800592,0.21467728628292126,0.3623531159233175,-0.7391967127283638
-97.80457782745361,4192.0,11576.0,10772.0,-210.0,1663.0,575.0,0.5080460247562161,0.32666029164578086,0.43602579219278564,-0.6671310209651125
-97.81244564056396,4032.0,11652.0,10672.0,-163.0,1622.0,705.0,0.4863127727118693,0.43552740746316204,0.49132190222094496,-0.5765575017669122
-97.82025837898254,3964.0,11680.0,10604.0,-134.0,1602.0,732.0,0.4542796811772747,0.5355411382521957,0.531843281956303,-0.4732529809171461
-97.82808113098145,3912.0,11768.0,10580.0,-116.0,1618.0,737.0,0.41020272355523374,0.6245014196164561,0.5595325487196099,-0.3586851396534803
-97.83595991134644,3884.0,11696.0,10748.0,-189.0,1699.0,723.0,0.3556161508736432,0.6971615578965157,0.5792593724181394,-0.2279506413565462
-97.84380054473877,3792.0,11728.0,10804.0,-204.0,1849.0,700.0,0.28430316311781745,0.7517909825745697,0.5892700981919818,-0.0821144404936117
-97.85159683227539,3724.0,11688.0,10764.0,-321.0,1936.0,673.0,0.20731039412790883,0.7796362636720882,0.5858902470448862,0.07695658043104231
-97.85940551757812,3732.0,11696.0,10772.0,-475.0,1984.0,663.0,0.13149466469184365,0.778081149013707,0.5636599737336877,0.24410307805848655
-97.86720395088196,3560.0,11688.0,10904.0,-576.0,2303.0,646.0,0.04262577284485566,0.7373319490439835,0.522019180516912,0.42663874130326146
-97.87500643730164,3528.0,11580.0,10836.0,-680.0,2125.0,613.0,-0.03255254256499223,0.6699970562880382,0.45591967941986594,0.5849628385253243
-97.88279438018799,3420.0,11420.0,10496.0,-756.0,2156.0,507.0,-0.09794124871834256,0.5703445808209412,0.37380641001993287,0.7248333179122538
-97.89059162139893,3276.0,11400.0,10720.0,-730.0,2154.0,474.0,-0.15856299457066514,0.44651972770916304,0.2799223951215362,0.8349379391480186
-97.89838552474976,3072.0,11276.0,10508.0,-619.0,2081.0,387.0,-0.20953477909876894,0.30703665150459486,0.18757235047829046,0.9091976046585942
-97.90618586540222,2928.0,11132.0,10392.0,-440.0,1925.0,262.0,-0.2462469209379084,0.16395351969080693,0.10901147658519238,0.9489985222761476
-97.91402888298035,2956.0,10964.0,10412.0,-312.0,1670.0,134.0,-0.26578008274422593,0.03314507186614441,0.04517212422637073,0.9624041931643574
-97.921865940094,2932.0,10808.0,10476.0,-142.0,1499.0,-9.0,-0.2682050225183913,-0.08875115561905482,-0.0011565364529249706,0.9592642809443208
-97.92966890335083,2840.0,10544.0,10452.0,10.0,1122.0,-124.0,-0.2564252662556984,-0.1819681835576363,-0.027085736936832916,0.948894106764826
-97.93744540214539,2904.0,10760.0,10636.0,249.0,836.0,-360.0,-0.2199986001285178,-0.2549637285587983,-0.030484583523696374,0.9410976587093789
-97.9452440738678,2844.0,11072.0,10724.0,349.0,592.0,-272.0,-0.18800425560107847,-0.3088021368574588,-0.01892219768483737,0.932168220109937
-97.95303440093994,2928.0,11496.0,11040.0,357.0,428.0,-626.0,-0.12649654138021843,-0.34738164499547564,-0.013484264121872709,0.9290547843696688
-97.96082162857056,3092.0,11936.0,11496.0,9.0,313.0,-839.0,-0.057736111415670616,-0.37059686640480943,-0.04129716434083457,0.9260772366638429
-97.96860766410828,3412.0,12440.0,11632.0,142.0,374.0,-979.0,0.02714222630939676,-0.3961879535936583,-0.06289650813875991,0.9156104161935849
-97.97642540931702,3752.0,12960.0,11748.0,-107.0,469.0,-1137.0,0.11614552039674038,-0.42508479993256837,-0.10884052088508266,0.8910481872331721
-97.98420214653015,3956.0,13276.0,11552.0,-426.0,597.0,-1405.0,0.2132118517544998,-0.4580079813049338,-0.18612172909054855,0.8426909856482039
-97.99200391769409,4068.0,13324.0,11628.0,-632.0,656.0,-1649.0,0.3156457840919752,-0.48462815625843236,-0.28241135226531605,0.7653411770303424
-97.99979782104492,4216.0,13192.0,11372.0,-893.0,733.0,-1842.0,0.4116664756308737,-0.5037250925683676,-0.39270281163884296,0.6500586478846289
-98.00758099555969,4232.0,12872.0,11060.0,-1086.0,736.0,-2116.0,0.49764384829063146,-0.5002403189332302,-0.5089936501540531,0.49298649847123044
-98.01535487174988,4240.0,12492.0,11100.0,-1178.0,535.0,-2204.0,0.5513295523632383,-0.4650203903701867,-0.6174878481146002,0.31384792282522844
-98.02316665649414,4416.0,11612.0,11032.0,-1231.0,159.0,-2191.0,0.5567318813424564,-0.4008869405562826,-0.7154066001621304,0.13241098758325884
-98.03097200393677,4540.0,11112.0,11080.0,-1120.0,-6.0,-2070.0,0.5300818494083568,-0.3192423799437572,-0.7846741755130181,-0.037201801819630724
-98.03877520561218,4624.0,10492.0,11496.0,-873.0,-679.0,-1834.0,0.44563077908469345,-0.23213522846495513,-0.8496164619199028,-0.16024453835497374
-98.04658126831055,4864.0,9988.0,11436.0,-621.0,-837.0,-1719.0,0.34176207331072106,-0.138347262390089,-0.8946114930512248,-0.25244602737255256
-98.0543794631958,5492.0,9696.0,11312.0,-373.0,-983.0,-1381.0,0.22752294056137198,-0.06254823181362208,-0.9218288369219311,-0.3074941066662177
-98.06217908859253,5724.0,9568.0,11340.0,-53.0,-986.0,-1280.0,0.11247665786254878,0.01281534923582613,-0.9376450649908301,-0.32864342433460725
-98.07000684738159,5756.0,9800.0,11692.0,196.0,-924.0,-598.0,0.019431480521076017,0.03699585810804656,-0.9471371684968017,-0.3180957530358892
-98.07780361175537,5596.0,10156.0,12100.0,289.0,-786.0,-510.0,-0.060387927598737894,0.05760368884269032,-0.951342100279939,-0.2966198264900689
-98.08559918403625,5604.0,10556.0,12540.0,150.0,-542.0,114.0,-0.10304148473132331,0.03325270745640226,-0.9517239851323113,-0.28722493971634044
-98.09339213371277,5572.0,10716.0,12344.0,-193.0,-426.0,406.0,-0.12748268489918052,-0.009427582393292515,-0.9428266772753224,-0.3077939933772082
-98.10122156143188,5860.0,11100.0,12536.0,-561.0,-223.0,516.0,-0.13209522320712894,-0.051540485657916725,-0.9225963883330627,-0.3587622256854724
-98.10901379585266,5468.0,11224.0,12256.0,-972.0,-86.0,1037.0,-0.11005218728629894,-0.12559408893999136,-0.8796761132383657,-0.44529156369133766
-98.11681365966797,5164.0,11056.0,11596.0,-1327.0,-67.0,1311.0,-0.077742192888172,-0.2133187259216394,-0.802418830534503,-0.5518834052766466
-98.12460350990295,4800.0,10796.0,11104.0,-1474.0,-82.0,1435.0,-0.04112990746605417,-0.3029178089286516,-0.6929258411091523,-0.652995337248952
-98.13246607780457,4460.0,10408.0,10644.0,-1562.0,-311.0,1622.0,-0.008621880205488796,-0.4051946176651617,-0.5490587846803443,-0.7309428404206781
-98.14026260375977,4412.0,10140.0,10748.0,-1526.0,-507.0,1543.0,0.011309957279647304,-0.5008420420971325,-0.3893420487602047,-0.7729437901953241
-98.14807462692261,4232.0,10000.0,10504.0,-1314.0,-767.0,2014.0,0.06211902075022991,-0.6076047524602322,-0.20838923424665226,-0.7638924133010263
-98.15587878227234,4136.0,9804.0,10780.0,-1159.0,-1079.0,2107.0,0.11834518432204688,-0.7056052451723198,-0.024631060439108836,-0.6982184229843382
-98.16367673873901,4484.0,9668.0,10868.0,-964.0,-1255.0,2119.0,0.1806063488838281,-0.7761288116559344,0.14770954519986407,-0.5858219052896958
-98.17146587371826,4700.0,9472.0,11244.0,-821.0,-1408.0,2163.0,0.24690166764610882,-0.8108105005980863,0.30555776087260555,-0.43388979407675715
-98.17928624153137,4924.0,9752.0,11260.0,-681.0,-1412.0,2148.0,0.30946839539090215,-0.8003957691609409,0.4411864758652304,-0.2625841169550521
-98.18706822395325,5120.0,9884.0,11472.0,-745.0,-1337.0,2156.0,0.34913789280100227,-0.7484663366526271,0.5580991159236327,-0.08016390405620102
-98.19485688209534,5264.0,10060.0,11376.0,-331.0,-1291.0,2169.0,0.3959226442302342,-0.6461560481065286,0.6470016907493699,0.08435895594748613
-98.20268177986145,5260.0,10188.0,11456.0,-201.0,-1113.0,2175.0,0.4218782154171169,-0.5104872756639136,0.7135821050214075,0.22852153538544517
-98.21050429344177,5372.0,10344.0,11360.0,-76.0,-992.0,2242.0,0.4259042145969765,-0.3459561202208018,0.7582472021753663,0.3521095614486092
-98.21829009056091,5012.0,10284.0,11412.0,9.0,-848.0,2285.0,0.4030439148712726,-0.16456516101598007,0.77854343681935,0.4520442759847068
-98.226083278656,5020.0,10276.0,11336.0,91.0,-774.0,2258.0,0.360093566849613,0.022228817698117128,0.7706972217486349,0.5252278507145282
-98.23393607139587,4904.0,10004.0,11472.0,180.0,-670.0,2296.0,0.2931816612932913,0.20860321582230507,0.7373463514709219,0.5717075911708873
-98.24172925949097,4916.0,10064.0,11452.0,241.0,-613.0,2333.0,0.20722649395758852,0.3869719853129396,0.6761131495768911,0.5917608230985082
-98.24952816963196,5044.0,9972.0,11372.0,307.0,-515.0,2387.0,0.10164409502603787,0.5474818576592528,0.5884929127349222,0.5861810173837758
-98.25731825828552,5136.0,9724.0,11152.0,412.0,-487.0,2416.0,-0.016237900945016762,0.6840200734744569,0.47847987799005026,0.5503724884253617
-98.26512098312378,5320.0,9936.0,11128.0,607.0,-366.0,2477.0,-0.15235229007520612,0.7845373949542217,0.35146752001614295,0.48760684777901336
-98.2729082107544,5568.0,9680.0,11148.0,821.0,-271.0,2478.0,-0.2979887785260768,0.8393812024678051,0.21476623402342063,0.40064616501301425
-98.28070759773254,5508.0,9980.0,10984.0,1063.0,-162.0,2694.0,-0.452759033198368,0.8413175205174868,0.05699709799406268,0.2897333573267714
-98.28853511810303,5688.0,9972.0,11088.0,1273.0,-44.0,2791.0,-0.5956461532795247,0.7785435993034969,-0.11012489162983681,0.164158558443895
-98.2963330745697,5752.0,10076.0,11004.0,1369.0,39.0,2866.0,-0.702901789453402,0.6545225747367426,-0.2768335626438243,0.02987393742241339
-98.31194877624512,5748.0,10244.0,10836.0,1517.0,219.0,3076.0,-0.7589457977629148,0.46596180357193634,-0.4425430242378148,-0.1050549635593183
-98.31973934173584,5704.0,10584.0,10788.0,1519.0,313.0,3226.0,-0.7436545321425498,0.23240120334788766,-0.5806929982045936,-0.236142455611986
-98.32753801345825,5732.0,10616.0,10844.0,1644.0,330.0,3289.0,-0.6591356375907822,-0.032690546135603016,-0.668777238102655,-0.3423573356113956
-98.33535742759705,5896.0,10512.0,10524.0,1687.0,397.0,3353.0,-0.5042921360130855,-0.29796590142718016,-0.6955718351241515,-0.4160355577640784
-98.3431646823883,6240.0,10380.0,10464.0,1800.0,374.0,3434.0,-0.2935666997586123,-0.5416967290317216,-0.6513478551310903,-0.4428647854202211
-98.35095405578613,6572.0,10236.0,10460.0,2008.0,241.0,3336.0,-0.05299061149632349,-0.7322016241056837,-0.5465115249772404,-0.4029862650479494
-98.35874652862549,6556.0,10232.0,10484.0,2200.0,207.0,3765.0,0.21484044429523616,-0.85472199195232,-0.35901495748282614,-0.30724934543736365
-98.36653852462769,6616.0,10380.0,10716.0,2371.0,155.0,3926.0,0.4658983284645885,-0.8624918794193837,-0.11770239238421355,-0.1587219338861353
-98.37433075904846,6628.0,10396.0,10828.0,2520.0,144.0,3929.0,0.6589238945703941,-0.7392934250706492,0.13799857482709016,0.014863584937178773
-98.38211464881897,6680.0,10684.0,11240.0,2649.0,166.0,3892.0,0.7610418680957122,-0.4996116815579345,0.37190836302191427,0.18134942009998756
-98.38989996910095,6516.0,10884.0,11080.0,2743.0,287.0,3783.0,0.7512051659972421,-0.1842224187576331,0.5547942413902188,0.3065228355708509
-98.39766454696655,6468.0,10948.0,11088.0,2750.0,449.0,3590.0,0.6298997400510679,0.14693440865055432,0.6650348262180439,0.37331659078487917
-98.40545964241028,6268.0,11100.0,11244.0,2668.0,644.0,3379.0,0.41897337369402243,0.43829704429276667,0.6954075190174351,0.3857011739594388
-98.4132513999939,6108.0,11188.0,11132.0,2627.0,817.0,3168.0,0.15234635322050072,0.6565314843712732,0.6502035522846858,0.3507026365541654
-98.42104840278625,6044.0,11060.0,10860.0,2806.0,883.0,3062.0,-0.1427955145202745,0.7881929616375912,0.5366587568050118,0.2652520970743715
-98.42882680892944,6084.0,10880.0,10692.0,2571.0,841.0,3007.0,-0.4042449999024849,0.8274614971468426,0.35721089550442586,0.15586477128033702
-98.43669438362122,5976.0,10696.0,10648.0,2684.0,751.0,3164.0,-0.6236952773382614,0.7706263976786213,0.1301730167646362,0.013933482451061756
-98.44458985328674,5920.0,10592.0,10452.0,2771.0,652.0,3292.0,-0.7680080803224136,0.6135443810058204,-0.11533818219484726,-0.14291250758297494
-98.45241975784302,6132.0,10448.0,10284.0,2845.0,450.0,3504.0,-0.8109420980169821,0.3654432441886418,-0.3427396221767098,-0.3022477466100655
-98.46022701263428,6024.0,10672.0,10516.0,2866.0,353.0,3699.0,-0.734976159715073,0.05649834582824977,-0.5193811624208771,-0.432274437934391
-98.46802425384521,6060.0,10596.0,10520.0,2821.0,227.0,3908.0,-0.5447847832868258,-0.2702464198333777,-0.6078097012134133,-0.5106307663833325
-98.47582983970642,6200.0,10736.0,10844.0,3070.0,210.0,3858.0,-0.26566605262396803,-0.5617128305591212,-0.6093408697475099,-0.4925484229228708
-98.48361921310425,6424.0,10740.0,10788.0,2789.0,164.0,4279.0,0.05822353318144922,-0.7734464344272016,-0.4777933015630388,-0.41243689727909694
-98.49141502380371,6720.0,10800.0,10496.0,2774.0,210.0,4437.0,0.37651301474492005,-0.8520080219376681,-0.2519513195109336,-0.2623753282575422
-98.49920535087585,7128.0,10708.0,10800.0,2792.0,233.0,4449.0,0.6281988030072765,-0.7750106507001029,0.020560058277097,-0.06558993219443421
-98.50698828697205,7560.0,10776.0,11028.0,2573.0,198.0,4355.0,0.7563456084411675,-0.5716048552746072,0.28472124620561273,0.1419261145010951
-98.51478028297424,8124.0,10872.0,11028.0,2819.0,220.0,4189.0,0.7682514488229774,-0.2598460118883913,0.49693131054594725,0.3087540025427708
-98.52256536483765,8360.0,10940.0,11336.0,2801.0,310.0,3894.0,0.6578545808727205,0.08177128369064693,0.6283731560205997,0.4070478895425843
-98.5303544998169,8568.0,11064.0,11436.0,2707.0,266.0,3473.0,0.4671108321720448,0.3904131371133861,0.6671569133854597,0.42928627483162163
-98.53817248344421,8680.0,11188.0,11272.0,2526.0,833.0,3013.0,0.20723781278778194,0.6017291653099304,0.653912922252273,0.40911170928958235
-98.54596495628357,8788.0,11436.0,11232.0,2325.0,1243.0,2488.0,-0.07119077466270034,0.706851407259388,0.5993965198806652,0.36880451951310816
-98.55375528335571,8652.0,11620.0,10608.0,2184.0,1702.0,2299.0,-0.3520392419229799,0.7238544393653217,0.49348281206089895,0.3295115126332872
-98.5615463256836,8756.0,11696.0,10220.0,2108.0,2014.0,1711.0,-0.5958090046661524,0.647195269515016,0.3684241496901787,0.3006884750055835
-98.56936860084534,8740.0,11720.0,9716.0,2091.0,2298.0,1457.0,-0.7913542628389278,0.5028074780934457,0.2122115616230748,0.2755164673362779
-98.57715964317322,8812.0,11604.0,9584.0,2161.0,2420.0,1369.0,-0.9214226440148661,0.3063849867612266,0.03540227476482603,0.23633711076648958
-98.58495950698853,8504.0,11424.0,9508.0,2301.0,2451.0,1221.0,-0.9695937067773336,0.07095702662111901,-0.14005932883062952,0.1877139540854469
-98.59276461601257,8364.0,11116.0,9476.0,2335.0,2504.0,958.0,-0.9256464906395999,-0.1714992008823064,-0.3050453368289375,0.14392338566835983
-98.60058760643005,8208.0,10936.0,9864.0,2287.0,2513.0,701.0,-0.7976275196085522,-0.3891688383524617,-0.4485027270169708,0.10575092943726244
-98.60841608047485,8432.0,10840.0,10052.0,2204.0,2585.0,427.0,-0.5994065533881072,-0.558829908245625,-0.5686288877944896,0.07128888672982762
-98.61620783805847,8044.0,10852.0,11640.0,2172.0,2742.0,72.0,-0.3422789480867307,-0.6629112439267492,-0.6646944201739398,0.03968793471271842
-98.62401342391968,6064.0,11856.0,13256.0,2033.0,2639.0,-311.0,-0.06766947194979465,-0.6861041784994228,-0.7242216612137775,0.013597214436216542
-98.63180685043335,4616.0,13528.0,14188.0,1452.0,3191.0,-1432.0,0.21144193725235905,-0.5772189804891737,-0.7853153663361627,-0.073418874482703
-98.63963794708252,4796.0,15556.0,14352.0,478.0,3393.0,-1907.0,0.4313310433627803,-0.3934786719539357,-0.7775387782675525,-0.23358406204008064
-98.64743065834045,3392.0,16648.0,13916.0,-1135.0,3158.0,-2490.0,0.5222592720987014,-0.19047042364588912,-0.6773190573387744,-0.48187671139909244
-98.65523982048035,3452.0,17508.0,12332.0,-2257.0,2933.0,-3017.0,0.4903130951821797,0.00785864903064945,-0.4603529136122573,-0.7400043954308579
-98.66303753852844,3992.0,17608.0,12088.0,-2661.0,2457.0,-3141.0,0.3577977769778249,0.16525465607977588,-0.1671585714048623,-0.903730967401011
-98.67085003852844,3336.0,17168.0,12280.0,-2606.0,2150.0,-2828.0,0.19021016630906254,0.2750453922574826,0.13623965480876354,-0.9325282201028532
-98.67867803573608,4868.0,16460.0,11704.0,-2619.0,1987.0,-2951.0,-0.009944351931767632,0.3341709176969587,0.4226821467230499,-0.8423602023314158
-98.68650126457214,6760.0,15212.0,10956.0,-2487.0,1491.0,-2474.0,-0.1654005255787034,0.3365036666057974,0.6417465343634486,-0.669006228768945
-98.69429850578308,8032.0,13492.0,9728.0,-1909.0,925.0,-1881.0,-0.2630929946646765,0.30351546439153787,0.7718208486564221,-0.4929026441528204
-98.7020993232727,9012.0,11972.0,9824.0,-899.0,410.0,-1035.0,-0.309091516167005,0.26992841903706544,0.8221132190362426,-0.394627594467999
-98.70988726615906,9656.0,10924.0,9928.0,227.0,89.0,-458.0,-0.33633562564469816,0.23371414111870045,0.8218353106254705,-0.39603379827039253
-98.71766996383667,9972.0,10804.0,11396.0,1020.0,227.0,453.0,-0.35609768397277325,0.24286541536458725,0.7668729348907389,-0.47551733009542124
-98.72546696662903,10140.0,10836.0,13088.0,1370.0,656.0,1008.0,-0.38248784944041414,0.29126308407368484,0.6599148320868231,-0.5773917866389796
-98.73325657844543,9772.0,11628.0,15048.0,1397.0,1640.0,898.0,-0.4578912882887369,0.37130448455241105,0.5015659943215998,-0.6331667246474139
-98.74887156486511,7700.0,12556.0,15948.0,362.0,3984.0,-9.0,-0.6085885833819674,0.5443111186795331,0.30451698155908385,-0.4905249740850202
-98.75665497779846,6604.0,13136.0,15292.0,-603.0,4992.0,-803.0,-0.6827001633211827,0.7024018015434713,0.09436044050426409,-0.17789970055499746
-98.76449275016785,5416.0,13740.0,14848.0,-1639.0,5848.0,-1844.0,-0.5765100314546544,0.7659399881015407,-0.10114269482004776,0.2659741971389401
-98.77228260040283,4452.0,13736.0,13932.0,-2347.0,6319.0,-2218.0,-0.2655088759587273,0.6434249850293459,-0.27654294013140307,0.6625959007499204
-98.78005003929138,3096.0,13084.0,12924.0,-2585.0,6501.0,-2121.0,0.1343043581458188,0.319040809652911,-0.38566360453912635,0.8552420039339409
-98.78783798217773,1988.0,12576.0,12112.0,-2550.0,6220.0,-1821.0,0.47058035603207526,-0.09732204592081622,-0.3864021338910413,0.7872584955521037
-98.79563808441162,796.0,12160.0,11232.0,-2210.0,5668.0,-1483.0,0.6536939471824182,-0.46285494961740076,-0.2789271587039881,0.5297633048532745
-98.80345845222473,228.0,11940.0,10768.0,-1688.0,4924.0,-542.0,0.6644734297796226,-0.703646640470279,-0.08898778016616396,0.2354519939454604
-98.81135439872742,-712.0,11800.0,10140.0,-1033.0,4333.0,129.0,0.5890857237823804,-0.7955074487707975,0.13892536954790716,-0.02908007362341451
-98.81918406486511,-948.0,11988.0,9952.0,-423.0,3559.0,265.0,0.4935417719690691,-0.7680767027399711,0.32577242540656964,-0.24565631454217962
-98.8269829750061,-768.0,11928.0,9688.0,39.0,2866.0,584.0,0.4139169690506153,-0.6669128691117445,0.4724061639021467,-0.40091443482662364
-98.83482766151428,-348.0,11892.0,9612.0,356.0,2814.0,601.0,0.32926272859555744,-0.5145403619725073,0.5783572022083326,-0.5406821784678679
-98.84266328811646,-128.0,11936.0,10344.0,484.0,2375.0,346.0,0.2419727103615715,-0.36284864860047006,0.6251617550164852,-0.6472733933306666
-98.85050702095032,200.0,11816.0,10720.0,577.0,2389.0,63.0,0.13047082377991745,-0.20749219713969583,0.6305988560605034,-0.7363894587808247
-98.8583116531372,284.0,11804.0,11064.0,570.0,2473.0,-6.0,0.004177521427035782,-0.04134503431351596,0.6072071665538912,-0.7934561067494131
-98.8661253452301,740.0,11812.0,11360.0,422.0,2549.0,-419.0,-0.15445661586865903,0.11030404593941591,0.5627829900771509,-0.8045194076861155
-98.8739366531372,708.0,11496.0,11656.0,499.0,2587.0,-615.0,-0.32073662585825685,0.24818570493894873,0.4853077111478478,-0.7746020256863876
-98.8817548751831,604.0,11260.0,11892.0,454.0,2654.0,-799.0,-0.48276348499690197,0.3700593477438296,0.3860568162274838,-0.6935096476224076
-98.88956189155579,784.0,11044.0,11852.0,406.0,2846.0,-957.0,-0.6281685550610479,0.4765120736277427,0.26329715579612045,-0.5558912824187637
-98.89740180969238,672.0,10844.0,11624.0,379.0,3113.0,-1143.0,-0.740228190095353,0.5572356403195484,0.11681545113006665,-0.3576378309450773
-98.90523314476013,556.0,10664.0,11440.0,406.0,3355.0,-1255.0,-0.7950104132395096,0.5941051222879665,-0.04926190168741615,-0.1121196305473931
-98.91306042671204,448.0,10524.0,10864.0,552.0,3613.0,-1262.0,-0.7774445752653263,0.5651484814173036,-0.22735787702486338,0.1565104536348269
-98.92085552215576,120.0,10636.0,10800.0,714.0,3671.0,-1234.0,-0.6837602505335086,0.4642584494539474,-0.3837885443776309,0.4118766382127896
-98.92863059043884,-20.0,10988.0,10448.0,856.0,3676.0,-1237.0,-0.520498521722145,0.30456237473577297,-0.49341576882125243,0.6267885830636203
-98.93647956848145,-44.0,10840.0,10284.0,953.0,3465.0,-1191.0,-0.31474542409099177,0.11669521824313306,-0.5383130663781893,0.773004907241526
-98.94428420066833,-152.0,10996.0,10008.0,1098.0,3232.0,-1196.0,-0.08906528149368888,-0.07190482575805926,-0.515623040959183,0.8491348251586185
-98.95208263397217,-140.0,11244.0,10172.0,1162.0,2821.0,-1150.0,0.1254304249344716,-0.22918178539853326,-0.44098094077222366,0.8586493624396069
-98.95988011360168,-392.0,11460.0,9728.0,1236.0,2405.0,-1186.0,0.3211165402846444,-0.3391391818851127,-0.33463922492857767,0.8184652539998979
-98.96766543388367,-572.0,11728.0,9540.0,1219.0,1984.0,-1370.0,0.49933474676408063,-0.3957665582069823,-0.22613314917916655,0.7368157442138188
-98.97546052932739,-652.0,11872.0,9568.0,1123.0,1664.0,-1536.0,0.6540493922645465,-0.41346374185054974,-0.13114087925072201,0.6197331655177629
-98.98325514793396,-808.0,11896.0,9452.0,862.0,1230.0,-1884.0,0.7840397391855717,-0.40031717220736457,-0.08039750425794724,0.46750838529679156
-98.99104809761047,-744.0,11972.0,9468.0,548.0,1276.0,-2271.0,0.8813998356278403,-0.38842307709018464,-0.048667869082250265,0.2643733750928814
-98.99884462356567,-988.0,11848.0,9512.0,209.0,732.0,-2677.0,0.9265057446014614,-0.366991966369971,-0.07601399874408608,0.033554043501908055
-99.00661563873291,-1024.0,11648.0,9492.0,-156.0,463.0,-2822.0,0.905080228932904,-0.3512173349689508,-0.12553230573319846,-0.20424936482000827
-99.01440834999084,-944.0,11368.0,9648.0,-448.0,176.0,-3429.0,0.7966199241633874,-0.33088902541594417,-0.19983625262115162,-0.4647306977417573
-99.02220487594604,-660.0,11100.0,9780.0,-683.0,-105.0,-3728.0,0.592269129496417,-0.30129938802018186,-0.2725939605533457,-0.6957934245838064
-99.03003144264221,-612.0,11000.0,10208.0,-807.0,-436.0,-3869.0,0.30766622246061803,-0.26186139308355366,-0.3286820021918421,-0.8536616705723152
-99.03787660598755,-424.0,10996.0,10040.0,-827.0,-825.0,-3895.0,-0.02374255380666254,-0.22007703205998919,-0.3565052992328336,-0.9076928790716121
-99.04570031166077,-244.0,10604.0,10284.0,-813.0,-1106.0,-4030.0,-0.36851297804759525,-0.16903974341421452,-0.34425956933365653,-0.8468229443509159
-99.05350613594055,-136.0,10688.0,10560.0,-738.0,-1052.0,-3950.0,-0.660898147423455,-0.09788366090106357,-0.29548655967482296,-0.6828763582907142
-99.06131172180176,44.0,10824.0,11252.0,-599.0,-1470.0,-3904.0,-0.8789558077909411,-0.0474745804132126,-0.19554245193637745,-0.4323725264813587
-99.06909799575806,4.0,10976.0,11128.0,-456.0,-1521.0,-3781.0,-0.9880852943861078,-0.00535835932219797,-0.07281916270897414,-0.13548471701877218
-99.07690286636353,24.0,11256.0,11524.0,-315.0,-1517.0,-3652.0,-0.9837784420321208,0.025274037760144807,0.056707881487864674,0.16830156322895504
-99.08469676971436,108.0,11444.0,11840.0,-274.0,-1491.0,-3483.0,-0.8776769166376863,0.05043256598254636,0.17882195403413773,0.4417719944102304
-99.09256911277771,112.0,11688.0,11952.0,-290.0,-1481.0,-3198.0,-0.6975135660124729,0.07597724143285309,0.28205228613479066,0.6543307969971729
-99.10037183761597,156.0,11884.0,11940.0,-410.0,-1513.0,-2893.0,-0.4731700589060301,0.11131189045005735,0.3555730168195928,0.7983029425657356
-99.10818529129028,292.0,11816.0,11856.0,-441.0,-1570.0,-2813.0,-0.21558233905428068,0.1455665654913061,0.4011730217617427,0.8782908611100896
-99.11597990989685,260.0,11976.0,12160.0,-262.0,-1619.0,-2232.0,0.015190734280371382,0.19068032034986881,0.42756517162525287,0.8835147316464863
-99.1238169670105,560.0,12004.0,11976.0,-461.0,-1657.0,-1999.0,0.23286258981310068,0.2368153244263394,0.4122343239688884,0.8483845699470829
-99.13161158561707,688.0,12000.0,11860.0,-380.0,-1664.0,-1842.0,0.4269473644707222,0.27919477836307255,0.3792409129541524,0.7719731560410635
-99.13941860198975,552.0,12076.0,11776.0,-374.0,-1690.0,-1837.0,0.6014446240057449,0.3106890567424335,0.32783371293871255,0.6589853799105886
-99.147216796875,516.0,11896.0,12092.0,-366.0,-1615.0,-1840.0,0.7462609998071996,0.3240996290857546,0.26558648887670344,0.5172211978635249
-99.15500617027283,520.0,11912.0,12188.0,-393.0,-1382.0,-1918.0,0.8574689396481481,0.30969207652075886,0.2073416575952868,0.3547495909857823
-99.16278719902039,564.0,11776.0,12448.0,-392.0,-1170.0,-1949.0,0.9308781350606525,0.2759195764648525,0.15691117150888992,0.18086782258092748
-99.1705813407898,460.0,11736.0,12112.0,-376.0,-910.0,-2029.0,0.9658577358163255,0.22782565097826013,0.12334478618520153,-0.0006088029404238831
-99.17836713790894,444.0,11540.0,12116.0,-341.0,-663.0,-2043.0,0.9624755815149039,0.1742023697018491,0.10601519891214316,-0.17903928892124948
-99.18617510795593,484.0,11720.0,12224.0,-330.0,-418.0,-2280.0,0.9168113693012232,0.11670210710462524,0.10828401554001361,-0.3662131937763668
-99.19397950172424,652.0,11708.0,11992.0,-331.0,-188.0,-1917.0,0.8484798132998145,0.06538504861834503,0.12136443277392717,-0.51095741143206
-99.20178842544556,468.0,11644.0,11836.0,-401.0,-234.0,-1814.0,0.7622990553552343,0.006179615563948578,0.1303015284654331,-0.6339428004446229
-99.2095844745636,400.0,11640.0,12036.0,-538.0,82.0,-1760.0,0.6559176417743792,-0.044320683494323936,0.16411825365322225,-0.7354406318946143
-99.21741461753845,352.0,11496.0,11864.0,-596.0,142.0,-1566.0,0.5452790931602999,-0.09061329864195061,0.20203158952356431,-0.8084820205212282
-99.22524094581604,500.0,11752.0,11856.0,-603.0,94.0,-1397.0,0.43647739340071506,-0.13597287938443933,0.2356834347548806,-0.857585085985154
-99.23304724693298,12.0,11352.0,11780.0,-459.0,9.0,-1202.0,0.33877867703823206,-0.17628064417523875,0.2542851445711101,-0.8885343030653559
-99.24086022377014,224.0,11192.0,11700.0,-261.0,-7.0,-935.0,0.2614835608788006,-0.20445788237830023,0.2587767391179431,-0.9071151641412505
-99.2486617565155,256.0,11092.0,11672.0,-152.0,-131.0,-737.0,0.2029260375669291,-0.23433356093892854,0.2538782678954222,-0.916217567276183
-99.25648713111877,464.0,11136.0,11716.0,141.0,-204.0,-554.0,0.16577803899840307,-0.2599759886340034,0.2271115563152714,-0.9237697051255099
-99.2642765045166,456.0,11144.0,11964.0,380.0,-160.0,-400.0,0.14511009569928313,-0.2748694100184279,0.1846176391315811,-0.9323659125492242
-99.27207040786743,596.0,11232.0,12080.0,256.0,-41.0,-297.0,0.12762895637436636,-0.27948233009088036,0.15580927981140663,-0.9387885517976949
-99.27986669540405,588.0,11396.0,12440.0,464.0,35.0,-281.0,0.11527202461528616,-0.27484680341958023,0.11095633110169381,-0.9480824265746005
-99.28765177726746,756.0,11632.0,12464.0,169.0,693.0,-368.0,0.08191004087445297,-0.21871027058303208,0.094628892302605,-0.9677303010069614
-99.29542469978333,592.0,11508.0,12292.0,8.0,937.0,-253.0,0.052717993086343,-0.14099163423206942,0.09520044997401748,-0.9840117106042302
-99.30322694778442,688.0,11568.0,12140.0,-215.0,1126.0,-182.0,0.02492432978566801,-0.046488359766574595,0.11570682819614739,-0.9918818176071865
-99.31101751327515,588.0,11608.0,12012.0,-403.0,1319.0,-122.0,-0.0005988420331779074,0.06512464706343536,0.15154847762422008,-0.9863019216562764
-99.31880784034729,600.0,11488.0,11784.0,-387.0,1458.0,-59.0,-0.022553675520455695,0.18820633036384077,0.18323503649234,-0.9646214958900436
-99.32658863067627,556.0,11352.0,11752.0,-358.0,1532.0,123.0,-0.03049469287628794,0.31679781283040576,0.20612795793450253,-0.9253218275011152
-99.3343756198883,496.0,11332.0,11592.0,-274.0,1534.0,230.0,-0.03159215435513029,0.4413266576565378,0.21557084584181418,-0.870495219658302
-99.342200756073,440.0,11020.0,11680.0,-169.0,1443.0,389.0,-0.022424078801172618,0.5539236046930658,0.2075012380786575,-0.8059832734304002
-99.3500382900238,332.0,11260.0,11828.0,-19.0,1457.0,529.0,-0.010515677704569112,0.6599656659702556,0.17865235666692084,-0.7296698402155635
-99.35786056518555,348.0,11404.0,11808.0,112.0,1404.0,684.0,0.004730758248585268,0.7528995170096244,0.12952488016106084,-0.6452466525541457
-99.36566734313965,344.0,11512.0,12024.0,175.0,1406.0,517.0,0.006470066205664568,0.83079650434411,0.0854618694162447,-0.549937792380904
-99.37345790863037,360.0,11700.0,11968.0,183.0,1482.0,840.0,0.022292632349160662,0.8982870106843955,0.016360692348080488,-0.43853826825549574
-99.38126349449158,268.0,11880.0,12052.0,149.0,1491.0,884.0,0.04191453989396802,0.946045767123271,-0.055163830851867955,-0.31653993368825517
-99.38904762268066,172.0,11992.0,12024.0,19.0,1522.0,842.0,0.0702122469240345,0.9729471439060828,-0.11832233746013948,-0.1855907325402962
-99.39684700965881,224.0,11944.0,12016.0,-102.0,1534.0,792.0,0.10642334347917949,0.9779009166554881,-0.17259008750614876,-0.05095616608114011
-99.40463280677795,132.0,11920.0,12280.0,-251.0,1505.0,768.0,0.15233694859936708,0.9600666509306287,-0.22061343802537065,0.07996993700701457
-99.41246342658997,168.0,11756.0,11960.0,-303.0,1388.0,803.0,0.19695345757791177,0.9215653420414005,-0.26884322988031395,0.1991230113365679
-99.42024087905884,124.0,11532.0,11816.0,-281.0,1256.0,853.0,0.23219998177074036,0.8670261278822512,-0.31785644154118836,0.3054769133763647
-99.42804980278015,156.0,11372.0,11640.0,-152.0,1087.0,896.0,0.24817726196593026,0.8039533717773932,-0.3648734662071107,0.39866574509087577
-99.43587493896484,196.0,11504.0,11492.0,80.0,966.0,923.0,0.23967859179811388,0.7376357084972363,-0.40314433251867055,0.4857184177499642
-99.44370460510254,172.0,11012.0,11396.0,317.0,803.0,926.0,0.2070990363325126,0.6735178498725946,-0.429849637901319,0.5645467065259053
-99.45149946212769,132.0,11100.0,11360.0,441.0,775.0,861.0,0.16693707358409052,0.6074312103488401,-0.4420740121061934,0.6385373176077151
-99.45931649208069,-4.0,11416.0,11764.0,529.0,807.0,731.0,0.12864999570444016,0.5389317271107023,-0.4370697795562769,0.7084996682549336
-99.46714854240417,-176.0,11592.0,11528.0,515.0,874.0,690.0,0.09462820943134988,0.4616756360304838,-0.4253301605598902,0.7726547505799488
-99.47493958473206,-244.0,11756.0,11772.0,463.0,960.0,635.0,0.06845042249274819,0.37495614254907256,-0.4092468837330325,0.8289990464289362
-99.48273015022278,-472.0,11920.0,11832.0,355.0,1011.0,659.0,0.045046548288383684,0.2786683522601271,-0.39655354363549655,0.8735330817811413
-99.49051809310913,-632.0,11952.0,12040.0,202.0,1279.0,634.0,0.035824200559029344,0.15870605848834562,-0.38830515943401017,0.9070546382717681
-99.49830603599548,-752.0,11776.0,11924.0,79.0,992.0,682.0,0.014303410419470202,0.0569535792655117,-0.3860606923554463,0.9206024354069744
-99.50609636306763,-940.0,11840.0,11896.0,6.0,942.0,517.0,0.004459850126220875,-0.03601736013643309,-0.38507044335564855,0.9221733097197828
-99.51388311386108,-896.0,11808.0,11764.0,-12.0,867.0,824.0,-0.032596154200839764,-0.13278896429881878,-0.38082362466537345,0.9144823391342716
-99.52167987823486,-852.0,11760.0,11616.0,-9.0,782.0,861.0,-0.07507863637876513,-0.22265491149523248,-0.37166570992864795,0.8981384018122093
-99.5295021533966,-640.0,11604.0,11640.0,25.0,756.0,852.0,-0.11633672294450986,-0.30818958453926276,-0.3561417386011523,0.8744415411576678
-99.53733134269714,-528.0,11584.0,11596.0,-18.0,746.0,838.0,-0.15690982731666508,-0.3891109309868939,-0.34072548160487265,0.8413549403569783
-99.54513907432556,-324.0,11756.0,11600.0,-24.0,908.0,669.0,-0.17906781309878772,-0.47304463960751686,-0.33042804465064063,0.7968568218688764
-99.55293607711792,-228.0,11560.0,11404.0,-95.0,1061.0,478.0,-0.18477159551326566,-0.5562325224277309,-0.332010861543837,0.7390761978998409
-99.5607750415802,-16.0,11624.0,11460.0,-166.0,1152.0,380.0,-0.18301342347263136,-0.6352407076017816,-0.3407862883988062,0.6684609456608371
-99.56859636306763,-240.0,11616.0,11228.0,-194.0,1243.0,133.0,-0.1636573184922058,-0.7043251759044251,-0.36228970066162564,0.5881228625769034
-99.5764262676239,-92.0,11568.0,11196.0,-278.0,1259.0,241.0,-0.15240185027494937,-0.7675818945515899,-0.37719390675325354,0.4952943245158193
-99.58422589302063,-108.0,11620.0,11140.0,-312.0,1243.0,-72.0,-0.1285509800358114,-0.8097298505005862,-0.40942960691771313,0.4002244516759784
-99.59201264381409,-124.0,11676.0,11260.0,-350.0,1150.0,-161.0,-0.10605364323049814,-0.8355563325100687,-0.4434278998982468,0.3065451639672239
-99.59980320930481,-72.0,11720.0,11068.0,-386.0,1083.0,-236.0,-0.08560092442528583,-0.8473961485603658,-0.4784671934521447,0.2136852684033755
-99.60760498046875,52.0,11704.0,11468.0,-421.0,942.0,-210.0,-0.07324369794576442,-0.8494739527584593,-0.5067415667934427,0.12744547375201343
-99.61539125442505,-128.0,11704.0,11648.0,-399.0,818.0,-216.0,-0.06409831218378628,-0.8436627789349168,-0.5306515447114207,0.050333486968286344
-99.62319016456604,-132.0,11680.0,11780.0,-359.0,726.0,-281.0,-0.05558281791266181,-0.8295070247806193,-0.5554264181452433,-0.018169761111208833
-99.63098096847534,-180.0,11628.0,11760.0,-386.0,634.0,-288.0,-0.053186114948905565,-0.8107041008376114,-0.5773475689537284,-0.0812396620188803
-99.63880109786987,-276.0,11448.0,11780.0,-420.0,619.0,-392.0,-0.0544074222670912,-0.7824743304360711,-0.603343282039961,-0.14405081960239138
-99.64659285545349,-336.0,11392.0,11792.0,-393.0,598.0,-434.0,-0.05512850922493705,-0.7482199707024346,-0.6292042339622735,-0.20305111395073058
-99.65439343452454,-360.0,11172.0,11760.0,-349.0,518.0,-419.0,-0.056837369394691355,-0.7127882685197131,-0.6514683703876499,-0.25355740984128344
-99.66217947006226,-344.0,11052.0,11392.0,-206.0,384.0,-333.0,-0.055185916553415953,-0.6835190848687616,-0.6687586315710864,-0.28725958284015185
-99.67000460624695,-304.0,10972.0,11232.0,-59.0,181.0,-190.0,-0.052949922380672025,-0.6673899488082248,-0.6792896638408067,-0.30058695006383696
-99.6777913570404,-608.0,10952.0,11064.0,65.0,11.0,-96.0,-0.051088527256046304,-0.661643893724641,-0.6865928283827517,-0.2969976570498115
-99.68559312820435,-660.0,11208.0,11004.0,172.0,-198.0,-43.0,-0.054183607524808323,-0.6647583890878247,-0.6924566538429255,-0.27507126960410927
-99.69340085983276,-740.0,11072.0,11204.0,156.0,-390.0,40.0,-0.06775999165956001,-0.6767936503345213,-0.6915590208649441,-0.24311532049109924
-99.7012231349945,-852.0,11156.0,11180.0,159.0,-571.0,104.0,-0.09056822564893877,-0.6951495938577128,-0.6844599346818047,-0.2001974936847101
-99.70902013778687,-988.0,11204.0,11192.0,109.0,-634.0,177.0,-0.11860754742735401,-0.7164340113162442,-0.6694688767694839,-0.1564160482801862
-99.71681070327759,-728.0,11232.0,11104.0,250.0,-762.0,220.0,-0.14419131114598857,-0.740321429728511,-0.6495160298207093,-0.09623914733972569
-99.72461318969727,-744.0,11040.0,11120.0,-50.0,-812.0,339.0,-0.1901257727651144,-0.7634661422409454,-0.6151374489426001,-0.05076966703245517
-99.73243975639343,-648.0,10868.0,11152.0,-67.0,-966.0,393.0,-0.2437886966044527,-0.7844686086337789,-0.5702318102885041,0.0034287040088638817
-99.74026656150818,-652.0,10676.0,11192.0,-23.0,-1056.0,527.0,-0.2966033515673434,-0.8056154724282772,-0.5089594909720824,0.06301110197910553
-99.74806475639343,-640.0,10424.0,11228.0,51.0,-1202.0,668.0,-0.3476895931056412,-0.8240587335030625,-0.42747712797283277,0.1315387990041743
-99.75587058067322,-680.0,10272.0,11132.0,206.0,-1274.0,790.0,-0.38623067233428976,-0.8378557493208459,-0.3267404490182291,0.20509580701119243
-99.76366686820984,-560.0,10192.0,11028.0,345.0,-1366.0,939.0,-0.4123995879742662,-0.8426189967441287,-0.2035757008784185,0.2801370025120462
-99.77146625518799,-832.0,10244.0,10940.0,441.0,-1482.0,1100.0,-0.42748717762392596,-0.8304263783611646,-0.05769803142261163,0.3525871243523296
-99.77930068969727,-832.0,10028.0,10840.0,533.0,-1527.0,1109.0,-0.4246146458733945,-0.797226283959533,0.09474191600191398,0.4185171729166823
-99.78712630271912,-868.0,10464.0,10888.0,580.0,-1791.0,1195.0,-0.40560196570050994,-0.7296168001992358,0.2606107537117555,0.48500351064368735
-99.79493260383606,-932.0,10708.0,10844.0,551.0,-1578.0,1208.0,-0.3797620947527776,-0.6443651721850782,0.41014882307581846,0.5218737579083642
-99.80274033546448,-1108.0,11076.0,10620.0,477.0,-1566.0,1203.0,-0.3463663318103395,-0.5372748654954291,0.5429457574037906,0.5445879062303373
-99.81057929992676,-1184.0,10956.0,10788.0,331.0,-1637.0,1142.0,-0.3029402283049379,-0.4089230602314737,0.6515756779553261,0.562546251238541
-99.8183925151825,-1204.0,11172.0,10752.0,288.0,-1736.0,1199.0,-0.2486017143757688,-0.25861241426973264,0.7416256085542325,0.5668405979916868
-99.82618427276611,-1188.0,11244.0,10920.0,217.0,-1816.0,1145.0,-0.17967111115103945,-0.09760658827403672,0.8033934776735127,0.5592407046835135
-99.83401918411255,-1504.0,11380.0,11048.0,125.0,-1902.0,1123.0,-0.09823458107508234,0.07071903655648017,0.8334072657432335,0.539241239479988
-99.84185743331909,-1180.0,11268.0,11116.0,83.0,-2015.0,1096.0,-0.00366134562814615,0.23979594056615147,0.8312342756863172,0.5015317341509206
-99.84966135025024,-1056.0,11304.0,10764.0,107.0,-2153.0,1123.0,0.09898831478162012,0.4064213664467927,0.7953386444571207,0.4387019797827749
-99.85745644569397,-848.0,11184.0,10776.0,146.0,-2332.0,1155.0,0.2062659615649901,0.5627576509443436,0.7213255849240074,0.3470555862355667
-99.86524963378906,-920.0,11148.0,11160.0,9.0,-2517.0,1535.0,0.3078517167703895,0.7125726146075939,0.5818770903788714,0.24266569820442274
-99.87303447723389,-876.0,11104.0,11516.0,392.0,-2590.0,1323.0,0.37498614223407556,0.8186976278853328,0.42454744610201783,0.09422872829232652
-99.88083553314209,-816.0,11148.0,11368.0,446.0,-2631.0,1470.0,0.4142350216649023,0.8788267037773231,0.22904854564672888,-0.06008107265421973
-99.88862180709839,-860.0,11160.0,11660.0,510.0,-2653.0,1477.0,0.42107328633476676,0.8815478191287486,0.016521909663023644,-0.21283269632665325
-99.89647388458252,-780.0,11380.0,11988.0,518.0,-2567.0,1351.0,0.3972007440308316,0.8278284973914053,-0.18540191758746632,-0.35008238573646083
-99.9042854309082,-512.0,11276.0,12232.0,457.0,-2413.0,1319.0,0.35517861839346293,0.7272785706559892,-0.36762288951619404,-0.4580037563213388
-99.9120843410492,-380.0,11656.0,12544.0,395.0,-2538.0,1253.0,0.28996660231610266,0.5799750273294251,-0.5255229917725758,-0.5507939018670132
-99.91986918449402,-188.0,11776.0,12592.0,447.0,-2106.0,1188.0,0.22285675027979895,0.42574324468694796,-0.6457053736937436,-0.593415645935612
-99.9276614189148,48.0,12016.0,12912.0,572.0,-1906.0,1105.0,0.14857129683739675,0.27049487004927425,-0.7389553801349006,-0.5989190606440613
-99.93545866012573,400.0,12072.0,13040.0,818.0,-1692.0,1116.0,0.07711529378636373,0.11847611105330899,-0.8152234127974545,-0.5616292636613569
-99.94332146644592,552.0,12084.0,13172.0,1070.0,-1574.0,1111.0,0.008376361524678952,-0.03001511038101837,-0.8736718524473931,-0.48551665672514627
-99.95116305351257,1144.0,12092.0,13180.0,1365.0,-1630.0,1249.0,-0.058088928696092536,-0.18902825979824564,-0.9085806215911422,-0.3679337541319649
-99.95895528793335,1408.0,11780.0,13248.0,1738.0,-1857.0,1465.0,-0.12559882138880418,-0.3619846626924183,-0.9016579212164652,-0.20051192769708778
-99.9667558670044,1928.0,12056.0,13200.0,2041.0,-2167.0,1648.0,-0.19445882873463696,-0.5291615101284536,-0.8258774279181055,0.010016695118761831
-99.97454500198364,2328.0,12124.0,13260.0,2398.0,-2503.0,1982.0,-0.25110866433536827,-0.6709884280040241,-0.6512971794209819,0.2500618968548974
-99.98235583305359,2672.0,12164.0,13576.0,2607.0,-2929.0,2196.0,-0.2913230755383312,-0.7345460693617211,-0.3737903172155639,0.4856477492998619
-99.99014449119568,2776.0,12120.0,13860.0,2780.0,-3085.0,2554.0,-0.29636487620377777,-0.6972383179745607,-0.012563341364525108,0.6525862016274043
-99.99793982505798,2412.0,12592.0,13844.0,2850.0,-3739.0,2266.0,-0.23313948514401792,-0.5099230295465367,0.34990057812538794,0.7504625705738984
-100.00573873519897,2532.0,13736.0,13360.0,2605.0,-3831.0,2287.0,-0.13684205403312513,-0.22055656219140568,0.6383859290374215,0.7246326384654035
-100.01353096961975,2900.0,14736.0,12992.0,2066.0,-3990.0,1548.0,0.02519748884296077,0.08637014303990737,0.7818226905907272,0.6169753361559527
-100.02132749557495,3572.0,15348.0,12260.0,1324.0,-3965.0,1256.0,0.20385929388865642,0.3630906754953559,0.780138265116614,0.4668948885609952
-100.02909779548645,4172.0,15848.0,11716.0,657.0,-3910.0,765.0,0.39437768527652267,0.5528830435238096,0.6724672144280741,0.2942353259877677
-100.03687810897827,5144.0,15496.0,11780.0,650.0,-3774.0,34.0,0.5536189373504294,0.6393943169523186,0.528763136961761,0.07134791269838871
-100.04469299316406,5280.0,15412.0,11312.0,15.0,-3421.0,-378.0,0.6829644908475243,0.6167270328929277,0.368275222623816,-0.13259197389678742
-100.05252385139465,6340.0,14668.0,11484.0,-204.0,-3296.0,-757.0,0.758752858537515,0.5198025802766465,0.2059409942686888,-0.3341970737132722
-100.06029629707336,6908.0,14312.0,11092.0,-225.0,-3251.0,-1134.0,0.7606686083965425,0.3730957550532932,0.04638131225387656,-0.5291801202188996
-100.0680890083313,7368.0,13164.0,10820.0,-346.0,-3306.0,-1409.0,0.6870139434643251,0.18282496200741227,-0.10636487959972313,-0.6951786728175153
-100.07588386535645,7436.0,12440.0,10720.0,-319.0,-3104.0,-1720.0,0.5337544840916246,-0.00827405721422975,-0.23487803788640274,-0.8123238258280578
-100.08367609977722,7148.0,11928.0,10908.0,-279.0,-3016.0,-2154.0,0.30345229657778006,-0.18154926927344628,-0.33997254984082237,-0.8714213859452145
-100.09147310256958,6808.0,11684.0,11228.0,-244.0,-2822.0,-2627.0,0.01514188058975337,-0.3074416986322261,-0.4150124535599263,-0.856162945229766
-100.0992865562439,6312.0,11892.0,11772.0,-374.0,-2780.0,-3294.0,-0.3197789574750787,-0.3706246938438347,-0.44815218593509054,-0.7480229761918518
-100.10707449913025,5776.0,12044.0,12444.0,-617.0,-2221.0,-3820.0,-0.6299789898242452,-0.3251325190569493,-0.4372994187603869,-0.5533394399313445
-100.11487030982971,5168.0,12888.0,12964.0,-996.0,-1997.0,-4414.0,-0.8700684016606683,-0.18213354006286467,-0.3713235313105076,-0.2681924404432631
-100.12269282341003,4724.0,13452.0,13196.0,-1446.0,-1809.0,-4610.0,-0.9662231968165941,0.03151742784365799,-0.24909859499412093,0.058045461903543163
-100.13052892684937,4416.0,13836.0,12984.0,-2131.0,-1781.0,-5124.0,-0.8674505033779664,0.2954047714471085,-0.08506399207753322,0.3911901870541074
-100.13832545280457,4400.0,14444.0,12808.0,-2895.0,-1553.0,-5381.0,-0.543786861249745,0.5321350357552052,0.06357375412801342,0.6458223680239236
-100.14614605903625,4520.0,14664.0,12572.0,-3474.0,-1908.0,-5883.0,-0.034159812483134815,0.65619082995897,0.1969762859127286,0.7276311185462743
-100.15393614768982,4880.0,15048.0,11992.0,-3601.0,-1854.0,-5930.0,0.4920176854217026,0.5783339225328469,0.265642207527175,0.5940392990873001
-100.16174125671387,5288.0,14732.0,12004.0,-3980.0,-2121.0,-5699.0,0.8762397003839799,0.32515159762960444,0.21601980564077738,0.28251702532914635
-100.16952896118164,5388.0,14364.0,11616.0,-3964.0,-2486.0,-5426.0,0.9915268990658462,-0.01593245601162935,0.06945269135471194,-0.10861348414396703
-100.17736601829529,5684.0,14052.0,11852.0,-3874.0,-2888.0,-5218.0,0.8107954708379651,-0.34827452381158025,-0.12843935682429944,-0.45256921255319577
-100.18516039848328,5640.0,13524.0,12068.0,-3537.0,-3281.0,-4978.0,0.40202211945382255,-0.5750881590951828,-0.3185902462328483,-0.6373006196008782
-100.19296145439148,6180.0,12948.0,12300.0,-3577.0,-3560.0,-4775.0,-0.12159529216396495,-0.6547190370497465,-0.41408454383316107,-0.6205574574579661
-100.20075631141663,7040.0,12464.0,12516.0,-3295.0,-3652.0,-4364.0,-0.5883301112560378,-0.5721604289595209,-0.3869860179737805,-0.42040688102731155
-100.20858812332153,7776.0,12232.0,12224.0,-3384.0,-3622.0,-4599.0,-0.9029555212988192,-0.3237010156413996,-0.26382197501489846,-0.10142457556205044
-100.21638607978821,8400.0,11680.0,12224.0,-3478.0,-3549.0,-3944.0,-0.9779801435188159,0.008504458056820147,-0.05643364855807829,0.20074301080361256
-100.22418904304504,8776.0,11468.0,12096.0,-3484.0,-3419.0,-3597.0,-0.821345106379201,0.3387642758995993,0.15668021576474447,0.43137256703350124
-100.23198986053467,9396.0,10972.0,12304.0,-3533.0,-3145.0,-3207.0,-0.4949907472748842,0.5963168658133848,0.307929327892809,0.5518785053634869
-100.23980379104614,9728.0,10624.0,12392.0,-3415.0,-2690.0,-2868.0,-0.09718564182526286,0.7248427703809488,0.3723192388895606,0.5714335425945707
-100.24762177467346,9932.0,10156.0,12348.0,-3242.0,-2118.0,-2593.0,0.2835820271128271,0.7165915552729445,0.3636849191754144,0.5232695828867323
-100.25542044639587,9856.0,9636.0,12340.0,-3120.0,-1387.0,-2381.0,0.593595830854646,0.5893337870413147,0.31552686435271254,0.44807641637924855
-100.26321768760681,9632.0,9160.0,12308.0,-2856.0,-794.0,-2108.0,0.8052435309103652,0.39484950929649926,0.25827180660507126,0.35912726831622516
-100.27100563049316,9080.0,8764.0,12128.0,-2627.0,-179.0,-1959.0,0.9240729747616208,0.16504239926649866,0.2216961568720567,0.2640093895825059
-100.2787971496582,8548.0,8688.0,11720.0,-2318.0,415.0,-1729.0,0.9586516712065509,-0.06274775339029297,0.21939021806430634,0.17005183020201214
-100.28658127784729,7928.0,8132.0,11212.0,-1975.0,879.0,-1790.0,0.9301737441518954,-0.2672213345671504,0.2463455666742649,0.05180179362272045
-100.29436039924622,6944.0,8064.0,11004.0,-1556.0,1218.0,-1266.0,0.8557684251606127,-0.417458196114383,0.30226562619082636,-0.04499497992574342
-100.30215430259705,6280.0,8016.0,10276.0,-1215.0,1408.0,-902.0,0.7586606262327383,-0.5180225677216146,0.3732346419170044,-0.12954758048045428
-100.30993485450745,5600.0,8048.0,9820.0,-899.0,1498.0,-627.0,0.6536707281994901,-0.5735076146585648,0.44834939001195195,-0.20684878413880584
-100.31770420074463,4964.0,8028.0,9480.0,-660.0,1472.0,-335.0,0.5513536665089426,-0.5915789458571735,0.5220767244021424,-0.27107080086794794
-100.32551383972168,4600.0,8028.0,9248.0,-759.0,1431.0,-167.0,0.43861680282533916,-0.5958524592605002,0.5942818676886485,-0.3152843301037698
-100.33331346511841,4032.0,8056.0,8916.0,-436.0,1347.0,-103.0,0.34063397747623136,-0.5764025358767967,0.6475239873642474,-0.36392484912606105
-100.34112858772278,3588.0,8000.0,8944.0,-378.0,1122.0,-136.0,0.2525090871071675,-0.5566811614708428,0.6823491554523248,-0.4009300131510207
-100.34896087646484,3372.0,8184.0,9048.0,-261.0,905.0,-213.0,0.1778191294594735,-0.5415308374579817,0.6985823534543861,-0.4325591343648439
-100.35677576065063,3172.0,8332.0,9120.0,-146.0,629.0,-355.0,0.11888280324622964,-0.5405839306863567,0.6956150570014438,-0.45799081371669975
-100.36460590362549,3296.0,8612.0,9416.0,87.0,290.0,-564.0,0.08266403734424758,-0.5614665938285799,0.6674601802570624,-0.4820983600010389
-100.37244176864624,3328.0,8952.0,9880.0,339.0,247.0,-704.0,0.05507553017423315,-0.5881474263263731,0.6188526674003267,-0.5177554122683715
-100.38023900985718,3812.0,9224.0,10316.0,563.0,-16.0,-843.0,0.04650930890500454,-0.6292477875734915,0.5478592455728802,-0.5493035163362413
-100.38804078102112,4076.0,9780.0,11032.0,787.0,-489.0,-977.0,0.06576591365933146,-0.6914617822349355,0.4513061063517326,-0.5602483794520773
-100.3958351612091,4280.0,10568.0,11660.0,900.0,-619.0,-1245.0,0.0826680680873181,-0.7577239304053011,0.3251448475944283,-0.5597332077808579
-100.40363574028015,4532.0,11144.0,12352.0,1008.0,-624.0,-1509.0,0.09197760940490808,-0.8124213372564261,0.1691571292035748,-0.5503612956760711
-100.4114317893982,4852.0,11552.0,12748.0,579.0,-560.0,-1888.0,0.04974840857684752,-0.8489889337155574,0.0028444321197443573,-0.5260558862692327
-100.41921472549438,4916.0,12012.0,12696.0,487.0,-597.0,-2150.0,-0.012563670118875629,-0.8578818389553059,-0.17799360542402054,-0.4818705023260552
-100.42700982093811,5140.0,12520.0,12576.0,438.0,-544.0,-2431.0,-0.08841588218053514,-0.823572461533849,-0.3690082411406401,-0.4215969050545859
-100.43481540679932,4880.0,12556.0,12096.0,339.0,-489.0,-2588.0,-0.17058766385944762,-0.7411097110796807,-0.5492017815096304,-0.3464587252026085
-100.44260358810425,4984.0,12472.0,11712.0,265.0,-540.0,-2851.0,-0.25742210701597373,-0.6053896706938972,-0.7109546998007816,-0.2485570764789686
-100.45040345191956,4880.0,12096.0,11388.0,134.0,-667.0,-3020.0,-0.34494255047071876,-0.4203582522743167,-0.828710826110546,-0.13248374733080961
-100.45820045471191,4684.0,11592.0,11404.0,116.0,-919.0,-3116.0,-0.42641800369552085,-0.20113754776720652,-0.8818735212564592,0.003235043933978919
-100.46602702140808,4656.0,11204.0,11256.0,223.0,-1119.0,-3152.0,-0.487369568271274,0.03214947127790298,-0.8594434649480045,0.15097763403163905
-100.47385025024414,4592.0,10708.0,11292.0,379.0,-1244.0,-3237.0,-0.5157707040528103,0.2633092212485863,-0.7580552773749024,0.3000017188123945
-100.48164129257202,4452.0,10428.0,11480.0,256.0,-1525.0,-3397.0,-0.5074035092581158,0.4910816150312368,-0.5748387067907688,0.41345010260728915
-100.48943448066711,4172.0,10136.0,11524.0,265.0,-1195.0,-3595.0,-0.4262013174073818,0.6671383531357142,-0.3399871214121112,0.5076294042798205
-100.49725270271301,3944.0,9904.0,12020.0,395.0,-985.0,-3620.0,-0.302071869852294,0.7631664527111887,-0.07119493171772641,0.5667987584653554
-100.505038022995,3708.0,9864.0,12236.0,195.0,-666.0,-4187.0,-0.10503657460198691,0.7660386865065291,0.22036731597020007,0.594634589326355
-100.51282954216003,3220.0,9880.0,12452.0,45.0,-319.0,-4490.0,0.1221116932068887,0.6475141846256911,0.4894553242713861,0.571180882587176
-100.52061915397644,2684.0,9772.0,12560.0,234.0,-98.0,-4695.0,0.32121561156845646,0.4201935159501393,0.7080904490306354,0.4678310122573699
-100.52844905853271,2448.0,9900.0,12620.0,-48.0,104.0,-4838.0,0.4736475189646055,0.10642675808072553,0.8165594878580158,0.31234912475010246
-100.53624320030212,2028.0,9864.0,12480.0,-181.0,195.0,-4951.0,0.5474115549749948,-0.23792241781509146,0.794418872454709,0.11239291645236413
-100.54406547546387,1864.0,9976.0,12380.0,-194.0,255.0,-4989.0,0.5267391649452449,-0.5459139751426657,0.6425499664926717,-0.10795056469044335
-100.5518696308136,1644.0,9416.0,12000.0,-169.0,366.0,-4963.0,0.41401900259938773,-0.7599115837721996,0.38926893499788906,-0.31558255113526895
-100.5596649646759,1680.0,9164.0,11852.0,117.0,316.0,-4657.0,0.26184892870658566,-0.8382486881520522,0.08196841837991804,-0.47122760289999094
-100.5674638748169,1584.0,8892.0,11968.0,309.0,8.0,-4290.0,0.10102636978131295,-0.8065267447077329,-0.22890621291926805,-0.5356400175182167
-100.57523655891418,1584.0,8792.0,11752.0,952.0,165.0,-3955.0,-0.012837350842664307,-0.6702397005030537,-0.5186458655519052,-0.5306791991767101
-100.58304476737976,1360.0,8704.0,12344.0,1269.0,248.0,-3690.0,-0.09307571190450602,-0.46660957163568845,-0.7510364966937945,-0.4577735249502103
-100.59084367752075,1016.0,9692.0,13136.0,1488.0,-16.0,-3454.0,-0.1630195210151507,-0.24024156736517358,-0.9035700937577535,-0.31507096144284724
-100.59868121147156,704.0,10836.0,14196.0,1579.0,17.0,-3408.0,-0.2112655358792145,0.006241512370404477,-0.96798576134078,-0.13539380604189047
-100.60650777816772,920.0,12916.0,14740.0,1269.0,364.0,-3273.0,-0.21016101138328958,0.25200842736349965,-0.9441241419412244,0.030882137812582075
-100.61431097984314,1708.0,14488.0,14160.0,559.0,660.0,-3368.0,-0.15213548779674216,0.4952345024026102,-0.8426778647814941,0.14660012684233428
-100.62210154533386,2876.0,15472.0,13708.0,-264.0,797.0,-3659.0,-0.03349209013918051,0.7200274701382506,-0.6637320721109247,0.19974598518057385
-100.62989664077759,3420.0,15620.0,12776.0,-1398.0,916.0,-3753.0,0.16279691355780262,0.8712545839238827,-0.4281775629087591,0.17628553414614384
-100.63768744468689,3352.0,14616.0,12020.0,-1559.0,960.0,-3451.0,0.35061785911253923,0.9117288401091914,-0.16661034443917494,0.1343824099737292
-100.64551329612732,3104.0,13252.0,11184.0,-1182.0,808.0,-3054.0,0.47232995064673544,0.8733574900928104,0.08377674056554466,0.08445454375610954
-100.65331292152405,3196.0,11600.0,11200.0,-433.0,475.0,-2056.0,0.5082365621831142,0.8224821806332101,0.2524714379754994,0.038429577251288
-100.66112446784973,3512.0,9896.0,11044.0,15.0,543.0,-1545.0,0.49545221864079725,0.7793011628442136,0.3835940615152862,0.008508384322252642
-100.66889595985413,3204.0,8448.0,11880.0,939.0,630.0,-1182.0,0.40733164062595384,0.7720073078447146,0.4869649582730311,-0.030834730312914223
-100.6766927242279,3592.0,7932.0,12268.0,1431.0,1145.0,-917.0,0.25578154952584814,0.7746878915562675,0.5764444030105463,-0.04632839125283453
-100.68451142311096,3304.0,7612.0,12488.0,1562.0,1766.0,-602.0,0.05762608352759872,0.7692565714105191,0.6360672856950266,-0.018492428384748752
-100.69230055809021,2988.0,7892.0,12628.0,1449.0,2287.0,-264.0,-0.1625380997014488,0.7448701852405956,0.6450243369451337,0.05189776520789354
-100.70009565353394,2860.0,8648.0,12500.0,1161.0,3015.0,-61.0,-0.3922092316346764,0.6845763717340715,0.5885072240194238,0.17659659442045564
-100.70787715911865,2864.0,9256.0,11720.0,1010.0,3646.0,155.0,-0.6098238492442923,0.5713035996380853,0.4462361939756109,0.320312861308443
-100.71565771102905,2580.0,10124.0,10760.0,426.0,4039.0,486.0,-0.7552967331845553,0.4280404034713895,0.20616017880205387,0.4514490430968858
-100.72344899177551,2228.0,10504.0,10432.0,321.0,4159.0,892.0,-0.8221500641599463,0.24256953821806723,-0.08307634742797562,0.5082593940386111
-100.73123955726624,1800.0,11212.0,9964.0,306.0,3947.0,1332.0,-0.8071796305395975,0.033479361536657905,-0.3577386338809412,0.4683623023067235
-100.73902368545532,1508.0,11636.0,9572.0,363.0,3773.0,1750.0,-0.7160143321750132,-0.18898441643213812,-0.5765697392957908,0.34521833988674155
-100.74685072898865,1532.0,12104.0,9548.0,528.0,3340.0,2133.0,-0.5698860362217385,-0.4060496246313053,-0.6931029065850934,0.17309525972581358
-100.7546820640564,1512.0,12652.0,9572.0,735.0,2816.0,2433.0,-0.38951801478995923,-0.6003414052206422,-0.6984667406829721,-0.003182057746119918
-100.76249980926514,1576.0,13536.0,9472.0,961.0,2311.0,2650.0,-0.18830059259609125,-0.7565749592630349,-0.6083345900238487,-0.1485471118016572
-100.77029466629028,1704.0,14248.0,9808.0,1084.0,1872.0,2736.0,0.017311955496253074,-0.8565739320592954,-0.4519645856376819,-0.24841378472768333
-100.77810025215149,1868.0,14804.0,9980.0,1187.0,1462.0,2773.0,0.21480366054404046,-0.8949426300616873,-0.25736972664641206,-0.29444507148380283
-100.78589248657227,2004.0,15152.0,9992.0,1065.0,1072.0,2606.0,0.3762319499493067,-0.8761734095467815,-0.05907558298506032,-0.29543146707059786
-100.79368948936462,2144.0,15112.0,9976.0,874.0,785.0,2393.0,0.4955795490279417,-0.817712261078696,0.12385286009114495,-0.26534512943348293
-100.80150580406189,2152.0,14772.0,10208.0,611.0,521.0,2093.0,0.5712142148445469,-0.7424900460815657,0.2763740311593296,-0.21456991198689618
-100.8093991279602,2008.0,14120.0,10176.0,474.0,307.0,1931.0,0.6212191030904737,-0.6564485289961851,0.40179657325215495,-0.1473827278110899
-100.81723856925964,1888.0,13336.0,10176.0,404.0,125.0,1641.0,0.6540222632852877,-0.5691427171815038,0.4920486513946869,-0.07886425848960386
-100.82505106925964,1920.0,12628.0,9864.0,437.0,-179.0,1551.0,0.6872971966286409,-0.47402660450745143,0.5503828804509939,-0.00016319318189713189
-100.83285808563232,1860.0,12148.0,9872.0,586.0,-507.0,1504.0,0.7280761122902027,-0.3626057971730535,0.575924549620608,0.08205561353849239
-100.8406777381897,1884.0,11992.0,9680.0,810.0,-854.0,1611.0,0.7735077716151856,-0.22059132804910048,0.5698276601327357,0.16829031757084387
-100.84857940673828,1748.0,11404.0,9580.0,1058.0,-1198.0,1689.0,0.812124386674612,-0.046458376541389665,0.5261994771197398,0.2478098264727131
-100.85642528533936,1844.0,11236.0,9700.0,1235.0,-1470.0,1754.0,0.8257058049703481,0.14980079178272568,0.44438701890221044,0.3135120792740604
-100.86427426338196,1880.0,11132.0,9820.0,1032.0,-1593.0,1751.0,0.8058367442233844,0.3276191865103806,0.3265355355968544,0.3696854802155577
-100.87218260765076,1944.0,11116.0,9992.0,1168.0,-1619.0,1765.0,0.741794300192281,0.49905259998572177,0.19443469890286305,0.4035874954855371
-100.88003993034363,1996.0,11260.0,10296.0,968.0,-1632.0,1751.0,0.6494658028228195,0.6329007927791651,0.045359120119300926,0.4190146867178017
-100.8878607749939,1844.0,11408.0,10336.0,848.0,-1645.0,1774.0,0.5312673399293733,0.7299839889761888,-0.11205662861697882,0.41511649129584804
-100.89565753936768,2176.0,11580.0,10312.0,756.0,-1771.0,1777.0,0.39142704908148523,0.7913341425218432,-0.27290321429668324,0.38222895724044526
-100.9034640789032,2108.0,11628.0,10572.0,358.0,-1570.0,1838.0,0.2622042315857004,0.7942720735761022,-0.4317960874320453,0.3375395576136949
-100.91125106811523,2228.0,11660.0,10592.0,397.0,-1548.0,1937.0,0.11659714437528856,0.7579660289596398,-0.5761163118067175,0.28281195189897457
-100.91906261444092,2308.0,11760.0,10816.0,410.0,-1555.0,2047.0,-0.038215594678054084,0.6802559516606302,-0.6994185269127741,0.21588221965891075
-100.92685890197754,2428.0,11856.0,11028.0,480.0,-1572.0,2123.0,-0.19731098502005778,0.563406284600426,-0.7897975449852004,0.14093108811936608
-100.9346935749054,2776.0,11964.0,11340.0,600.0,-1647.0,2210.0,-0.3568826049947303,0.40875819772801325,-0.8377260326136331,0.06137292826437551
-100.94251799583435,2676.0,12136.0,11652.0,695.0,-1783.0,2148.0,-0.5078199181981969,0.23234386073854044,-0.8293474911723904,-0.017832552939725334
-100.95034408569336,2568.0,12448.0,11816.0,799.0,-1463.0,2070.0,-0.6105348924776797,0.043582392447163144,-0.7867951304607583,-0.07937973808905929
-100.95813870429993,2980.0,12660.0,12044.0,903.0,-1303.0,1893.0,-0.6748890669605525,-0.14042271871858444,-0.7143393500128347,-0.1205217838734444
-100.96594095230103,2924.0,12908.0,12044.0,920.0,-1151.0,1724.0,-0.7036394508121793,-0.30830896230280624,-0.6228804637872964,-0.1478412488334169
-100.97374510765076,3212.0,12896.0,11932.0,862.0,-870.0,1496.0,-0.6986167070470003,-0.4475292460698962,-0.5326344291208707,-0.1671910148961372
-100.98154330253601,3080.0,13064.0,11836.0,889.0,-704.0,1413.0,-0.6677707262874737,-0.5706160668993245,-0.4418379050747342,-0.1823700275511729
-100.98936820030212,2940.0,12892.0,11560.0,885.0,-542.0,1343.0,-0.6165766942199278,-0.675209726368446,-0.35345434562400174,-0.1974715957341267
-100.99716711044312,2688.0,12768.0,11440.0,1003.0,-498.0,1371.0,-0.5428626651218476,-0.7708539470924262,-0.25996416856014165,-0.20857360843037204
-101.00495290756226,2468.0,12600.0,11204.0,1006.0,-461.0,1357.0,-0.4557566193780424,-0.8477902163689038,-0.16318768192969468,-0.2165812396969741
-101.01277613639832,2296.0,12388.0,11052.0,962.0,-466.0,1382.0,-0.36102593219557927,-0.9040426191533869,-0.059858848572749625,-0.22087131385524453
-101.02059745788574,2024.0,12288.0,10984.0,1053.0,-501.0,1439.0,-0.24968008132575578,-0.9421304789420246,0.048548729283271974,-0.21838735888923375
-101.02842688560486,1824.0,12240.0,10996.0,1123.0,-552.0,1455.0,-0.1256049228525671,-0.9576009705054381,0.15663375683714778,-0.20661474018405537
-101.03622150421143,1780.0,12248.0,10640.0,1131.0,-585.0,1390.0,0.001889066779751266,-0.9487869971955503,0.2553924192874179,-0.1859418660492373
-101.04400420188904,2044.0,12120.0,10584.0,1075.0,-662.0,1337.0,0.12570384697478418,-0.917808646500358,0.34415336792935725,-0.15291922903219599
-101.05183124542236,1556.0,12104.0,10548.0,793.0,-671.0,1290.0,0.2242367529679555,-0.8702733893811485,0.42513521203026267,-0.10771331322273775
-101.05963277816772,1896.0,11776.0,10440.0,1036.0,-693.0,1237.0,0.336332740721364,-0.8012539297882756,0.49008232455567596,-0.06849629680359372
-101.06742238998413,2100.0,11924.0,10592.0,960.0,-679.0,1164.0,0.4349657145107443,-0.7198621437337236,0.5402237279261266,-0.027597916675788953
-101.07522320747375,2112.0,12008.0,10644.0,938.0,-718.0,1048.0,0.5253350088034525,-0.6305769453936585,0.5711630914907825,0.012983350190595384
-101.08301448822021,2140.0,12100.0,10964.0,868.0,-667.0,866.0,0.600970053685454,-0.5427897168748148,0.5849046835114782,0.045834801566042506
-101.09081697463989,2120.0,12136.0,10716.0,782.0,-587.0,795.0,0.6608634864394545,-0.4560194567371833,0.5913348632009815,0.07502524196088958
-101.09865236282349,2256.0,12332.0,10680.0,585.0,-493.0,554.0,0.7036290295643959,-0.3890499507445747,0.5867723613288836,0.0961484298386445
-101.10645413398743,2232.0,12348.0,10744.0,434.0,-434.0,383.0,0.7359695948721681,-0.33836556986338384,0.5755926097370123,0.11202965755039875
-101.11426448822021,2340.0,12312.0,10608.0,266.0,-406.0,405.0,0.7591650874427345,-0.2963979959287351,0.5631804955049933,0.1365442327608363
-101.12205958366394,2400.0,12304.0,10548.0,200.0,-531.0,468.0,0.7833064894122213,-0.25316374706116035,0.541323792178402,0.1711946635857816
-101.12989807128906,2480.0,12140.0,10692.0,251.0,-705.0,628.0,0.809890477288272,-0.19494342603105658,0.5088406716844144,0.21715350857124702
-101.13769197463989,2592.0,12092.0,10724.0,213.0,-915.0,747.0,0.8354613697866907,-0.12849376479236513,0.45831636678405835,0.27466299339643696
-101.145498752594,2688.0,12076.0,10884.0,303.0,-1067.0,941.0,0.8521618976578496,-0.04263252262813624,0.39505147525975187,0.34049508085966246
-101.15330791473389,2748.0,12100.0,10932.0,366.0,-1215.0,1058.0,0.8551151771558977,0.05682627440583547,0.31610255120942105,0.40697418278520503
-101.16109323501587,3036.0,12152.0,11124.0,294.0,-1264.0,1052.0,0.8422025281190963,0.15135177026782837,0.22448470120268257,0.46625546880711166
-101.16889905929565,2924.0,12260.0,11104.0,292.0,-1194.0,969.0,0.814650903491494,0.23845189632489958,0.13446650685507006,0.5112762043296629
-101.17670249938965,2964.0,12200.0,11260.0,248.0,-1140.0,1258.0,0.7581939263020194,0.3184302088001612,0.037907668166943964,0.567721041477554
-101.18450927734375,3036.0,12240.0,11096.0,203.0,-1133.0,983.0,0.7015186967035442,0.38803222791972874,-0.05359328796374504,0.5953404637316762
-101.19231486320496,2968.0,12240.0,11008.0,182.0,-1124.0,997.0,0.6329164378666916,0.449035682898606,-0.14515705200215748,0.6137696379065717
-101.20012021064758,2956.0,12156.0,10900.0,182.0,-1121.0,1074.0,0.5491111720748562,0.5008788102020238,-0.2369811483613445,0.6256494813507969
-101.2079529762268,2752.0,12036.0,10872.0,211.0,-1244.0,1099.0,0.449523296780127,0.5503369784946329,-0.32944003373500713,0.6217131813995912
-101.21577715873718,2836.0,11944.0,10812.0,230.0,-1342.0,1232.0,0.3289708426090238,0.5892337424566151,-0.42325161867612465,0.6045162104954015
-101.22358322143555,2820.0,11888.0,10760.0,311.0,-1500.0,1271.0,0.187797447102973,0.6210592765170072,-0.5075816566895511,0.5669024216794883
-101.2313780784607,2904.0,11864.0,10524.0,355.0,-1286.0,1381.0,0.04273364501702198,0.6206844526871653,-0.5778384010854596,0.5282304686469653
-101.23918294906616,2956.0,11828.0,10772.0,388.0,-1548.0,1404.0,-0.1190119224164237,0.6122599654553801,-0.6309831853301016,0.46133948113509937
-101.2469732761383,2996.0,11808.0,10780.0,377.0,-1282.0,1459.0,-0.26457793224982634,0.5711681731935837,-0.6705127797387977,0.39265512591084467
-101.25476503372192,3208.0,11884.0,10784.0,340.0,-1450.0,1420.0,-0.4085259999273464,0.5215600820861765,-0.6851912797513213,0.3026458298248449
-101.26256442070007,3280.0,11940.0,10616.0,306.0,-1313.0,1455.0,-0.5315390166404962,0.45157926748932536,-0.6863056333086197,0.20622079587547226
-101.27037119865417,3284.0,11976.0,10772.0,317.0,-1261.0,1450.0,-0.6365866459234761,0.36739822178439546,-0.6696232269467791,0.10668047054144969
-101.27815866470337,3320.0,11920.0,10840.0,292.0,-1208.0,1418.0,-0.7201287987999432,0.27576592167880665,-0.6366557566391611,0.006092381948535505
-101.28596520423889,3340.0,11952.0,10780.0,261.0,-1142.0,1420.0,-0.7806722569962465,0.17866880972670285,-0.5912733521761044,-0.09499529774500463
-101.29376602172852,3376.0,11868.0,10788.0,256.0,-1080.0,1478.0,-0.8176235666268458,0.07489445325870678,-0.5358376157199981,-0.19687705236259206
-101.30157351493835,3356.0,11768.0,10996.0,277.0,-1012.0,1611.0,-0.8275391879106078,-0.0372470636374039,-0.47218075688013866,-0.3013915751223691
-101.30940270423889,3460.0,11816.0,11032.0,369.0,-1021.0,1672.0,-0.8122245036453111,-0.1574777967449461,-0.39658263391271104,-0.397761629232059
-101.31722331047058,3540.0,11864.0,11020.0,424.0,-1111.0,1728.0,-0.7719834538709796,-0.28141827194765995,-0.3035418322255147,-0.4823978226035057
-101.32500910758972,3588.0,11904.0,10952.0,256.0,-1121.0,1750.0,-0.7098737592773547,-0.38597692953872476,-0.19237936955827215,-0.556858360736064
-101.33280372619629,3640.0,11952.0,10916.0,542.0,-1170.0,1555.0,-0.625993145103549,-0.4948620846837692,-0.09215035089212095,-0.5956109571324725
-101.34059071540833,3816.0,11968.0,10952.0,624.0,-1240.0,1871.0,-0.5016416700176812,-0.5961040792571826,0.02337392016145848,-0.6264736398693116
-101.34840655326843,3540.0,11992.0,10920.0,681.0,-1261.0,1803.0,-0.3580386749933327,-0.6775427144022451,0.1323789097114438,-0.6286652540367297
-101.35620903968811,3468.0,12044.0,10860.0,644.0,-1301.0,1738.0,-0.2057055688181054,-0.7347096575846824,0.23581411639654312,-0.60189587182264
-101.36399793624878,3092.0,11788.0,10952.0,637.0,-1256.0,1707.0,-0.04852790356395221,-0.7628750303644639,0.3282260650156197,-0.5549183551356612
-101.37181687355042,3320.0,11928.0,10884.0,611.0,-1341.0,1700.0,0.11073210633535442,-0.7670609140915272,0.4096358792561259,-0.4812009986748441
-101.3796112537384,3312.0,11912.0,10780.0,568.0,-1326.0,1649.0,0.26067226828173345,-0.7448149710216091,0.4747348546532054,-0.3897787132057566
-101.38739442825317,3232.0,11780.0,10988.0,764.0,-1366.0,1615.0,0.41398425685093804,-0.6937462579336688,0.5128493475883447,-0.2903768437062727
-101.39518761634827,3160.0,11632.0,10816.0,500.0,-1402.0,1626.0,0.5383789566449301,-0.6269155403737414,0.5380938597058473,-0.16607228072944674
-101.40297842025757,3172.0,11528.0,10808.0,259.0,-1497.0,1643.0,0.6347244829338735,-0.548871027059602,0.5436121710638646,-0.018741235020569794
-101.41075611114502,3192.0,11520.0,10864.0,763.0,-1546.0,1641.0,0.7317435023842683,-0.42218070004653063,0.5241173969048085,0.10777688754252017
-101.41856336593628,3208.0,11456.0,10880.0,490.0,-1602.0,1648.0,0.7911601329389351,-0.2941840848485759,0.47715770587600864,0.24462602476637027
-101.42635822296143,3196.0,11484.0,10824.0,534.0,-1703.0,1677.0,0.8214604834991132,-0.14760071619885168,0.4048029763322176,0.37356559394511624
-101.43416476249695,3240.0,11420.0,10896.0,563.0,-1773.0,1661.0,0.8180305665812012,0.009268583471373493,0.31007408562236566,0.48434919936418497
-101.44195652008057,3284.0,11480.0,10924.0,604.0,-1763.0,1670.0,0.7762890009206029,0.1684109670459227,0.20347798304452866,0.5723721199049441
-101.44979572296143,3348.0,11480.0,10896.0,607.0,-1814.0,1708.0,0.696913992110704,0.322759533397023,0.08368353059092985,0.6349285297649605
-101.4575982093811,3512.0,11500.0,10916.0,611.0,-1799.0,1777.0,0.5796515000568306,0.46098305863392164,-0.04062976770288148,0.6707070747433563
-101.46539974212646,3628.0,11540.0,10908.0,682.0,-1875.0,1538.0,0.44505937580234445,0.5857425429055507,-0.15353689921003152,0.6597380131703308
-101.47318196296692,3760.0,11648.0,11092.0,763.0,-1887.0,1851.0,0.2667377578656918,0.6798648673247748,-0.269722318392042,0.6276022639120031
-101.4809923171997,3900.0,11664.0,11092.0,831.0,-1861.0,1911.0,0.0670712099521485,0.7346250452788332,-0.36999720754533255,0.564738489969723
-101.48878526687622,3844.0,11852.0,11056.0,854.0,-1869.0,1872.0,-0.13630353369202303,0.7495553260490918,-0.4458889651625292,0.4698629487848514
-101.49662637710571,4196.0,11952.0,11204.0,791.0,-1753.0,1865.0,-0.3240005229691247,0.7200391571722359,-0.5010650335213142,0.35426135188122626
-101.50444412231445,4312.0,12140.0,11204.0,763.0,-1634.0,1757.0,-0.48615261937009274,0.6564776515092833,-0.5290450935971092,0.22979123718993238
-101.5122480392456,4408.0,12372.0,11296.0,724.0,-1501.0,1620.0,-0.6169105499290879,0.569433365753892,-0.5327900284345752,0.10630992876053179
-101.52004790306091,4448.0,12404.0,11300.0,613.0,-1291.0,1444.0,-0.7097904913347368,0.4738091850316383,-0.5212034962778612,-0.0070164134842014446
-101.52783942222595,4492.0,12788.0,11456.0,483.0,-1116.0,1289.0,-0.7706388383443551,0.379958471137891,-0.49969231768084166,-0.10979493930308468
-101.53563022613525,4556.0,12536.0,11304.0,379.0,-992.0,1122.0,-0.8084609675159896,0.2932484893497006,-0.4695103975677589,-0.19989040515490902
-101.54342293739319,4428.0,12520.0,11376.0,313.0,-807.0,908.0,-0.8287974374639626,0.21841033447567718,-0.4385797915071693,-0.2702582097345421
-101.5512182712555,4516.0,12480.0,11332.0,178.0,-663.0,836.0,-0.8341784436010117,0.1570069824126651,-0.4088554535865235,-0.33516018525120345
-101.55900645256042,4452.0,12376.0,11124.0,107.0,-532.0,676.0,-0.8324987214770493,0.10900382662645165,-0.38133451959410253,-0.38684367473929804
-101.5667998790741,4428.0,12176.0,11500.0,57.0,-466.0,577.0,-0.8273389598420476,0.06954272018714422,-0.35404081057862874,-0.4304987340762789
-101.57459425926208,4344.0,12092.0,11224.0,-15.0,-382.0,523.0,-0.8180914537536108,0.039792815749772385,-0.3284393609969114,-0.47039397451279996
-101.58238196372986,4280.0,11948.0,11024.0,-26.0,-339.0,414.0,-0.8098215379361471,0.015574500954334963,-0.3041719610559101,-0.5014239022246139
-101.59017634391785,4328.0,11836.0,10836.0,-112.0,-287.0,341.0,-0.8016953191785884,0.0015903816794888346,-0.2791306540378536,-0.5285528959996861
-101.5979368686676,4256.0,11768.0,10992.0,-128.0,-327.0,302.0,-0.7950295866740306,-0.012182804771273766,-0.25009947259216214,-0.5524760532276014
-101.60572528839111,4140.0,11644.0,11020.0,-116.0,-351.0,292.0,-0.7880279088557492,-0.027716625776982466,-0.21958718806261637,-0.5744782592568034
-101.61351799964905,4228.0,11592.0,10952.0,-127.0,-367.0,276.0,-0.7808090405796893,-0.0429509517476403,-0.18710144164424716,-0.5945464728914313
-101.62130737304688,4228.0,11628.0,10948.0,-123.0,-325.0,246.0,-0.7732295489929996,-0.055732773456761565,-0.15751977761452274,-0.6117167990068368
-101.6291127204895,4264.0,11552.0,10960.0,-106.0,-358.0,214.0,-0.7666513808654776,-0.07090597806192984,-0.1265754077266177,-0.6254571677189238
-101.6369104385376,4248.0,11500.0,10896.0,-66.0,-396.0,12.0,-0.7702568393275934,-0.08850317385112012,-0.09637679246219483,-0.6241659263064936
-101.64471244812012,4360.0,11592.0,10812.0,-17.0,-420.0,268.0,-0.7585589069480829,-0.11269955432678258,-0.0651413733881022,-0.638469887009079
-101.65259265899658,4356.0,11680.0,10948.0,11.0,-421.0,338.0,-0.7411488521158734,-0.13895478311342246,-0.03461282279235551,-0.6558901583005876
-101.66040754318237,4400.0,11656.0,10896.0,47.0,-462.0,291.0,-0.7244596303373877,-0.1694093015193168,-0.004017535805757455,-0.668163596715806
-101.6682026386261,4356.0,11768.0,10924.0,28.0,-465.0,248.0,-0.7089817912394747,-0.19843087460449735,0.02721279576807762,-0.676187452886435
-101.6760036945343,4452.0,11716.0,10984.0,24.0,-465.0,251.0,-0.6919182261992141,-0.2267528398476203,0.058641821339578716,-0.6829300510772314
-101.68382024765015,4400.0,11776.0,11080.0,62.0,-387.0,191.0,-0.6768650784590313,-0.2526014957862369,0.08178998297758627,-0.6865541119050497
-101.69161987304688,4400.0,11704.0,11088.0,30.0,-334.0,177.0,-0.6628995681353317,-0.27314240862856864,0.10329891521635343,-0.6894104157101917
-101.69940757751465,4420.0,11688.0,11096.0,-25.0,-329.0,119.0,-0.653129266288428,-0.290425216126278,0.12633179718279489,-0.687834015134545
-101.70720672607422,4516.0,11264.0,11032.0,-53.0,-294.0,100.0,-0.645065117236637,-0.3039559441074537,0.1484612436685565,-0.6851722686263769
-101.714998960495,4576.0,11424.0,10896.0,-62.0,-313.0,68.0,-0.638420708093246,-0.318280081571036,0.17123568297766723,-0.6795550971246002
-101.72279977798462,4456.0,11472.0,10756.0,-60.0,-301.0,130.0,-0.6277162516745562,-0.3307984887690764,0.19480788518194594,-0.6771960979529329
-101.73058652877808,4552.0,11376.0,10904.0,242.0,-282.0,104.0,-0.6095516995938388,-0.3588254717483196,0.1985620165079199,-0.678427691023271
-101.73839592933655,4516.0,11356.0,11000.0,39.0,-314.0,158.0,-0.5933719040023401,-0.37662229138527664,0.21752533150318815,-0.6773095033489267
-101.74618196487427,4472.0,11468.0,10968.0,105.0,-315.0,144.0,-0.5752678826830405,-0.3977824449966226,0.23198257361222058,-0.6760325991741309
-101.75402641296387,4544.0,11444.0,10960.0,128.0,-338.0,163.0,-0.5541640041920264,-0.42061990199232957,0.2466567490954722,-0.6746418328501992
-101.76184582710266,4496.0,11564.0,10836.0,108.0,-303.0,187.0,-0.5325215166698325,-0.43943662671362316,0.2614377240452099,-0.6745121213382854
-101.76963639259338,4588.0,11672.0,10992.0,113.0,-229.0,194.0,-0.5114796396702053,-0.4535652780143099,0.2725332327700478,-0.677047083900777
-101.77743101119995,4540.0,11748.0,10940.0,80.0,-163.0,143.0,-0.4960235436100155,-0.46326733124611863,0.2804661583344419,-0.6787361475667713
-101.78525376319885,4540.0,11764.0,11048.0,247.0,-110.0,137.0,-0.47519948155118197,-0.47694614826509324,0.2758251836214646,-0.6860235363810522
-101.79303574562073,4536.0,11840.0,11032.0,-14.0,-59.0,127.0,-0.46686183266106845,-0.47678823905373896,0.2841680431888964,-0.6884486382690989
-101.8008644580841,4540.0,11724.0,10944.0,-99.0,-13.0,31.0,-0.46891584063978076,-0.4727308295292867,0.29171869356078495,-0.6866903967850643
-101.8087067604065,4480.0,11692.0,11024.0,-95.0,-256.0,14.0,-0.465485019952376,-0.4836797811241045,0.30817661755244435,-0.6740954961469546
-101.81657075881958,4528.0,11696.0,10756.0,-137.0,-243.0,-16.0,-0.4656754288019417,-0.49268443287738284,0.3251422597312244,-0.6593109702919348
-101.82436037063599,4412.0,11620.0,10992.0,-99.0,-28.0,34.0,-0.4672985372007575,-0.4892699000260626,0.33323816281023577,-0.6566577258400131
-101.83215618133545,4456.0,11540.0,10932.0,-74.0,-57.0,-49.0,-0.47172673580631175,-0.4909101668742032,0.3375112837881238,-0.6500517118666458
-101.83997344970703,4400.0,11564.0,10952.0,-59.0,-78.0,-44.0,-0.47457019633926056,-0.49416848349255926,0.34198589439915195,-0.6431378442458444
-101.84781336784363,4472.0,11564.0,10984.0,-24.0,-95.0,-96.0,-0.4782617819530636,-0.5013236711176113,0.3429205761882682,-0.6343072781601575
-101.85565876960754,4448.0,11588.0,11008.0,-16.0,-151.0,-90.0,-0.4795060926745918,-0.5116341116753462,0.34595154622907065,-0.623395516923117
-101.8634684085846,4120.0,11664.0,10972.0,-33.0,-119.0,-185.0,-0.48749784542012137,-0.5221980827834476,0.34422684499864187,-0.6092313946525673
-101.87132024765015,4412.0,11640.0,11180.0,-85.0,-118.0,-240.0,-0.500576394192189,-0.5318841663320562,0.3425547483162741,-0.5909134890902171
-101.87915873527527,4420.0,11636.0,11044.0,-117.0,-112.0,-259.0,-0.5159730405157582,-0.5400747786653209,0.341168550267908,-0.5706970082439737
-101.886967420578,4372.0,11656.0,11148.0,-173.0,-83.0,-291.0,-0.5360426374785989,-0.5448006731708624,0.3394832807265107,-0.5482714833225669
-101.89476752281189,4368.0,11692.0,10776.0,-202.0,-107.0,-366.0,-0.5597356324162197,-0.5508933840910847,0.33634637024024083,-0.519695699803743
-101.90257430076599,4444.0,11704.0,10772.0,-224.0,-121.0,-376.0,-0.5836920828967245,-0.556004596791905,0.333911019738105,-0.48853441189686253
-101.91036653518677,4460.0,11624.0,10924.0,-212.0,-168.0,-396.0,-0.6055799233784469,-0.5633737970580825,0.3318385926706208,-0.45361445039118237
-101.91817331314087,4396.0,11680.0,11024.0,-222.0,-236.0,-384.0,-0.624404887820017,-0.5715092684268714,0.3337408280634245,-0.41486473922495987
-101.92596745491028,4380.0,11648.0,10752.0,-190.0,-255.0,-434.0,-0.6416032321469994,-0.5823377283557327,0.3323479323917971,-0.37252236774038955
-101.93377017974854,4320.0,11608.0,10904.0,-185.0,-313.0,-434.0,-0.6553783858061107,-0.5939607769445655,0.3332789470149264,-0.3265193873971446
-101.94157290458679,4304.0,11616.0,10936.0,-214.0,-339.0,-466.0,-0.6690688587130608,-0.6040014942998004,0.3339928410100819,-0.2756407795265867
-101.94940543174744,4340.0,11616.0,10768.0,-189.0,-357.0,-486.0,-0.6794239138598646,-0.6147136882200259,0.33313037253317973,-0.22256320829414078
-101.95724058151245,4292.0,11596.0,10956.0,-229.0,-380.0,-452.0,-0.6885284324406814,-0.6206287686074322,0.33523187948875127,-0.16842837133939
-101.96504831314087,4296.0,11600.0,10924.0,-209.0,-431.0,-751.0,-0.6963139041695253,-0.6343760342774007,0.32243995595629915,-0.09352255769369874
-101.97283387184143,4344.0,11608.0,11008.0,-230.0,-422.0,-522.0,-0.7002279287210149,-0.6372102521362177,0.3203560166593399,-0.03187420589968503
-101.98062992095947,4368.0,11592.0,11100.0,-214.0,-385.0,-524.0,-0.7017066071699085,-0.638605142278487,0.31469662562651407,0.027519875160598353
-101.98844885826111,4384.0,11556.0,11028.0,-256.0,-364.0,-534.0,-0.7035362109264119,-0.635431908943438,0.305979710257796,0.08740426718622372
-101.99625015258789,4572.0,11536.0,11152.0,-497.0,-353.0,-541.0,-0.7158704299803916,-0.6149817195228613,0.2930639264793824,0.15310306048175937
-102.00405144691467,4592.0,11488.0,11092.0,-265.0,-337.0,-573.0,-0.7125640265478184,-0.6072507076556707,0.27923760531228564,0.21336692785225006
-102.01184511184692,4388.0,11520.0,11104.0,-276.0,-357.0,-597.0,-0.706004683972627,-0.5965635485229559,0.26407042891778865,0.27556510547162005
-102.01963376998901,4304.0,11744.0,11136.0,-270.0,-364.0,-580.0,-0.6964245625350763,-0.5831749051646619,0.2492866081910976,0.33579167002859606
-102.02742958068848,4256.0,11564.0,11080.0,-280.0,-391.0,-565.0,-0.6843140800032879,-0.5656335864309283,0.2356108026508133,0.39529790726081354
-102.03521966934204,4272.0,11488.0,11100.0,-239.0,-446.0,-616.0,-0.6642212145860252,-0.5471382541510252,0.22309188419871379,0.4579082005632802
-102.04301428794861,4260.0,11524.0,11008.0,-232.0,-486.0,-627.0,-0.6392567808325305,-0.5249260755470255,0.21156808014933726,0.5206172594453167
-102.05082035064697,4216.0,11560.0,11040.0,-238.0,-469.0,-586.0,-0.6135659230691995,-0.49978985695733086,0.19969178870591522,0.5778149759691624
-102.05864715576172,4236.0,11288.0,11032.0,-247.0,-488.0,-568.0,-0.5859428326916668,-0.47054656970444697,0.1882583409686254,0.6323098288120975
-102.06645965576172,4236.0,11432.0,11084.0,-204.0,-509.0,-549.0,-0.5545266385320636,-0.43984225824461454,0.18021031088197192,0.6830543454751099
-102.07425475120544,4268.0,11432.0,10788.0,-225.0,-524.0,-263.0,-0.5385672518520406,-0.40105295292492843,0.18195501872721237,0.7183273733770109
-102.08206272125244,4304.0,11376.0,11148.0,-221.0,-519.0,-258.0,-0.5212489863196075,-0.36149235023572873,0.1833773059903665,0.7509963639256494
-102.08989477157593,4216.0,11456.0,11228.0,-181.0,-561.0,-511.0,-0.48348989425093053,-0.3237160490215112,0.18069942686373108,0.7929647904505254
-102.09770798683167,4344.0,11396.0,11044.0,-135.0,-561.0,-458.0,-0.4459519325146264,-0.2856325810400923,0.1819389067307923,0.8285162260043247
-102.1054961681366,4276.0,11324.0,11108.0,-111.0,-581.0,-469.0,-0.4048069030327672,-0.24602236768394983,0.18467148537504005,0.8611044119882207
-102.11330819129944,4272.0,11396.0,11100.0,-84.0,-594.0,-492.0,-0.359332987581989,-0.20568810880714364,0.18859928418855643,0.8905068870785375
-102.12110209465027,4292.0,11460.0,11140.0,-98.0,-661.0,-491.0,-0.3113217135396298,-0.1587329865632971,0.19265336255461823,0.9169336462099337
-102.12890648841858,4264.0,11732.0,11064.0,-112.0,-653.0,-503.0,-0.26102418080094963,-0.11144183907273114,0.19422517676592976,0.9390014239880172
-102.13669610023499,4272.0,11764.0,11056.0,-107.0,-588.0,-757.0,-0.18945084849155786,-0.07324962981835677,0.1910925413561107,0.9603262510081484
-102.14453721046448,4284.0,11524.0,11100.0,-134.0,-612.0,-519.0,-0.13630866470489753,-0.028183378312222993,0.18646990497354995,0.9725505743417322
-102.15233659744263,4592.0,11492.0,11156.0,-149.0,-558.0,-529.0,-0.0825384873108302,0.012449633337851256,0.17902031053016226,0.9802979818197513
-102.16014885902405,4320.0,11588.0,11040.0,-181.0,-600.0,-459.0,-0.033643289996362895,0.0578920712740746,0.16825704107751704,0.9834664230413039
-102.167973279953,4328.0,11624.0,11072.0,-149.0,-613.0,-496.0,0.018630371571090196,0.10349403418323107,0.15967703879042444,0.9815524119611365
-102.17581486701965,4432.0,11572.0,11164.0,-154.0,-571.0,-485.0,0.06937898359574911,0.14514580716935102,0.14990207878331904,0.975524791111337
-102.18361210823059,4404.0,11568.0,11068.0,-193.0,-563.0,-504.0,0.12183925508905853,0.1849377279734751,0.1364348461560727,0.9655769080947002
-102.19140577316284,4484.0,11704.0,10988.0,-150.0,-530.0,-489.0,0.17146181259891788,0.2217596922702373,0.12609876986633686,0.9515895049561548
-102.1992027759552,4472.0,11452.0,11100.0,-152.0,-540.0,-535.0,0.22431524010696213,0.2578679523813277,0.11579537920457808,0.9326190124296658
-102.20699143409729,4504.0,11476.0,11076.0,-120.0,-461.0,-478.0,0.27017748321281104,0.28770879919910425,0.10788573467420681,0.912462844548756
-102.21478319168091,4512.0,11448.0,11100.0,-129.0,-446.0,-487.0,0.3159303915128352,0.315035156281149,0.09946513859946483,0.8894085249360095
-102.22257447242737,4596.0,11404.0,11184.0,-84.0,-391.0,-758.0,0.37949486800623633,0.33551367876113836,0.1030244971509693,0.8560374813685946
-102.23036074638367,4544.0,11424.0,11060.0,-48.0,-346.0,-500.0,0.42086029555800514,0.35473213243927343,0.10277951936708538,0.8285397372706909
-102.23816156387329,4492.0,11416.0,11088.0,-70.0,-319.0,-485.0,0.460458084150177,0.37033236021139093,0.10118470922422382,0.8003711328753794
-102.2459568977356,4500.0,11456.0,11092.0,-37.0,-305.0,-454.0,0.4955965999257577,0.3856231050918131,0.10119621405229424,0.7716463939025822
-102.2537784576416,4484.0,11452.0,11100.0,-41.0,-290.0,-440.0,0.5287177080192055,0.39897134206405865,0.100878065693295,0.7423631653715728
-102.26157689094543,4448.0,11416.0,11024.0,-5.0,-275.0,-385.0,0.5558998647287319,0.4126988657830243,0.10145733417262322,0.7143958257986727
-102.26940155029297,4444.0,11496.0,10948.0,-5.0,-251.0,-348.0,0.579716274024279,0.42458974103026925,0.1016887280496604,0.6879767409083668
-102.27722191810608,4448.0,11468.0,11080.0,-20.0,-8.0,-353.0,0.6015632959147754,0.42055597985373816,0.11333538174935999,0.669633750688495
-102.28501892089844,4388.0,11520.0,11156.0,-27.0,-201.0,-344.0,0.6243955520992702,0.4270394225015233,0.11397049845273037,0.6440328032256193
-102.29282927513123,4292.0,11572.0,10784.0,-53.0,-194.0,-344.0,0.6473730938732943,0.4311874979351132,0.11337641896380342,0.6181676201292976
