programtime,ax,ay,az,gx,gy,gz,q0,q1,q2,q3
-184.29797863960266,7248.0,7628.0,12896.0,-61.0,-118.0,-230.0,0.9997303719447345,-0.005082655534896238,-0.01052191521779703,-0.020065874616016638
-184.30575680732727,7212.0,7608.0,13048.0,-98.0,-127.0,-272.0,0.9987130834047433,-0.013358763034914248,-0.02176763895714029,-0.04381655372799854
-184.31356978416443,7116.0,7584.0,12812.0,-141.0,-118.0,-307.0,0.9966633859197686,-0.025258524622780037,-0.03207619413469563,-0.07067686941748327
-184.32138657569885,7404.0,7608.0,12924.0,-99.0,-167.0,-313.0,0.993530631678542,-0.03376258302654418,-0.04687909072524205,-0.09777178916531919
-184.32915687561035,7100.0,7540.0,12900.0,-101.0,-201.0,-388.0,0.9883379069558368,-0.042364389110480835,-0.06475213986659384,-0.13115106020215198
-184.3369333744049,7120.0,7508.0,12936.0,-104.0,-226.0,-356.0,0.9818882131193055,-0.05161914124677554,-0.08451969817785797,-0.1615160110151515
-184.34473848342896,7296.0,7480.0,13012.0,-88.0,-2.0,-393.0,0.9753259063179011,-0.055999689160252164,-0.08537543239307087,-0.19574076433593557
-184.35251832008362,7300.0,7464.0,12888.0,-136.0,-263.0,-383.0,0.9652852032362028,-0.06890406081206352,-0.10742723435365097,-0.22789492345371787
-184.36029434204102,7308.0,7476.0,12924.0,-73.0,-216.0,-388.0,0.9543519223845447,-0.07539772799419768,-0.1266100158461679,-0.25980279971869036
-184.3680922985077,7268.0,7448.0,13032.0,-75.0,-229.0,-358.0,0.9425225816857044,-0.08256077651559836,-0.14642874168998982,-0.2887793704556168
-184.37586498260498,7332.0,7396.0,12956.0,-89.0,-152.0,-306.0,0.9317616943710811,-0.08949457112462925,-0.1590065049804288,-0.3138913793270848
-184.38366603851318,7308.0,7400.0,12932.0,-39.0,-138.0,-227.0,0.9230444242055748,-0.09300282266653054,-0.1710683209158009,-0.33177567044330647
-184.39147424697876,7272.0,7172.0,12844.0,20.0,-144.0,-218.0,0.9144757441665674,-0.09201260756358194,-0.18514590231328376,-0.347834426468906
-184.3992531299591,7292.0,7444.0,12920.0,6.0,-150.0,-179.0,0.9064458827427875,-0.0929004712547615,-0.1988632920831103,-0.36080293119812606
-184.4070212841034,7220.0,7484.0,12788.0,61.0,-174.0,-141.0,0.8992610526365546,-0.09080822900643516,-0.21580514481326868,-0.36947471392212317
-184.4148199558258,7232.0,7492.0,12832.0,40.0,-148.0,-127.0,0.8925241841220615,-0.089749522790366,-0.22982543067867534,-0.3775259929190462
-184.42260265350342,7284.0,7508.0,12832.0,64.0,-159.0,-93.0,0.8866052911463665,-0.08783452193397599,-0.24514428371276226,-0.38225702692148517
-184.43039226531982,7328.0,7512.0,12864.0,49.0,-179.0,-97.0,0.879729690396606,-0.08762878451536764,-0.26144601582096794,-0.38735364819553864
-184.43820095062256,7356.0,7512.0,12820.0,17.0,-136.0,-74.0,0.874136819197482,-0.08892357580640292,-0.27310254009843704,-0.3916534457666542
-184.44601345062256,7388.0,7556.0,12972.0,23.0,-103.0,-85.0,0.8688588289780826,-0.08835287035981725,-0.28246811088729834,-0.39684993629554427
-184.45379400253296,7312.0,7544.0,12888.0,-245.0,-111.0,-121.0,0.8597286544556849,-0.10744979065646723,-0.28330953475594645,-0.4111652839334425
-184.46159148216248,7304.0,7592.0,12980.0,19.0,-42.0,-120.0,0.8544777234184805,-0.10425269727662417,-0.2883154264553363,-0.4193726387832148
-184.4694058895111,7344.0,7616.0,12984.0,-11.0,-89.0,-131.0,0.8472304535910881,-0.10471862344729076,-0.29577576039164194,-0.42866218398161726
-184.4771888256073,7300.0,7532.0,12912.0,-4.0,-87.0,-189.0,0.8377072177826578,-0.10306750228451703,-0.3037884603172068,-0.44196863986686946
-184.48495936393738,7316.0,7556.0,13008.0,40.0,-91.0,-208.0,0.8274308810900172,-0.0978125776036978,-0.3138321960864937,-0.45530230548575856
-184.49278163909912,7264.0,7484.0,13008.0,-252.0,-100.0,-194.0,0.8144602180809002,-0.11431590129415964,-0.31258936555119027,-0.4752623658772285
-184.50056266784668,7316.0,7544.0,12928.0,-21.0,-150.0,-235.0,0.8001405797502757,-0.11528099527589108,-0.3246625161135167,-0.49099856964754296
-184.50832986831665,7268.0,7464.0,12944.0,255.0,-171.0,-207.0,0.7885464465894872,-0.09858302265907021,-0.34944206573550807,-0.4963528300604267
-184.51612830162048,7272.0,7440.0,12920.0,-26.0,-182.0,-249.0,0.7716831200727267,-0.10033295253258022,-0.36281835183896355,-0.5126414969545232
-184.52391648292542,7208.0,7176.0,12856.0,3.0,-199.0,-189.0,0.7567240409201728,-0.10274115222755538,-0.37783860693900245,-0.523498776157875
-184.53168892860413,7280.0,7644.0,12776.0,-252.0,-174.0,-240.0,0.7373259597215143,-0.11907850634278637,-0.37968210074712655,-0.5459049741669038
-184.5394880771637,7272.0,7432.0,12860.0,13.0,-187.0,-167.0,0.7231272620921214,-0.12132317586593994,-0.39390199429016437,-0.5542642589155339
-184.54725861549377,7264.0,7468.0,12976.0,-15.0,-166.0,-178.0,0.708492163310051,-0.12390453295785755,-0.4053504858804682,-0.5642495058369194
-184.55502820014954,7328.0,7660.0,12920.0,-9.0,-144.0,-199.0,0.6933438695700165,-0.12424407171810507,-0.41576537158261256,-0.5753058707899253
-184.5628740787506,7192.0,7480.0,12904.0,-20.0,-134.0,-183.0,0.6789536038056377,-0.12529671721380786,-0.42464937930860003,-0.5856582972925433
-184.57064867019653,7264.0,7572.0,12948.0,-47.0,-205.0,-190.0,0.6609436277105144,-0.13126903522770633,-0.4362108061833017,-0.5963573542333205
-184.57841968536377,7224.0,7560.0,12928.0,-73.0,-172.0,-200.0,0.6429862137077974,-0.1365843752291428,-0.44436132926560745,-0.6086513340807508
-184.58621287345886,7284.0,7648.0,12904.0,-105.0,-22.0,-281.0,0.6257581146290762,-0.13251425153195917,-0.44307332340463096,-0.6281343687492063
-184.59402179718018,7340.0,7664.0,12932.0,-118.0,-279.0,-318.0,0.5957556108147749,-0.1416737144239974,-0.455038973161996,-0.6464853778143
-184.601802110672,7288.0,7636.0,12876.0,-111.0,-338.0,-342.0,0.5611692373001252,-0.15263032755630684,-0.4699920074935656,-0.6640034511282442
-184.60958242416382,7356.0,7648.0,12932.0,-136.0,-334.0,-330.0,0.5260861926438879,-0.1648181548467211,-0.48226909891990516,-0.6807971871044731
-184.61739349365234,7396.0,7536.0,12932.0,-100.0,-347.0,-302.0,0.4917202739874448,-0.17704128739194785,-0.496025681445031,-0.6934162372307896
-184.62516474723816,7492.0,7464.0,12892.0,-139.0,-318.0,-339.0,0.45492264433592544,-0.1872971756922915,-0.5058834412419441,-0.7085528205612538
-184.63293743133545,7500.0,7356.0,12988.0,-143.0,-266.0,-317.0,0.42097380707609106,-0.1951883592236973,-0.512245114047657,-0.7226946113772578
-184.64075541496277,7480.0,7364.0,12888.0,-124.0,-237.0,-372.0,0.38453857454736967,-0.1978137454820911,-0.5188888253712804,-0.7373969037690871
-184.64852619171143,7208.0,7176.0,12972.0,-104.0,-2.0,-294.0,0.3636428633772182,-0.18796868384845436,-0.5169772090580502,-0.7517753701217185
-184.65633010864258,7388.0,7336.0,12868.0,-95.0,-3.0,-265.0,0.3445073354523472,-0.17910154633557368,-0.5148541691013004,-0.7643052508512158
-184.66413497924805,7368.0,7408.0,12936.0,-62.0,-204.0,-242.0,0.3181545604044213,-0.18357133101991158,-0.5202489357413257,-0.7709865673158421
-184.67192149162292,7380.0,7460.0,12904.0,-47.0,-183.0,-278.0,0.2903131147403218,-0.18443804710838965,-0.5262160672337924,-0.7776873104105642
-184.67969608306885,7332.0,7452.0,12984.0,-14.0,-126.0,-294.0,0.264296014478429,-0.17972964504815425,-0.5328037105371809,-0.7835592367265505
-184.68748998641968,7256.0,7484.0,12928.0,-37.0,-148.0,-264.0,0.238749471988049,-0.1783327119883213,-0.5374579308305759,-0.7888821876856101
-184.69524836540222,7352.0,7496.0,12824.0,-34.0,-135.0,-227.0,0.21625777879612715,-0.17761849841593955,-0.5411356615891598,-0.7930046897005683
-184.70304155349731,7380.0,7448.0,12808.0,-74.0,-112.0,-244.0,0.19293545693801128,-0.175177132180953,-0.5415682913240867,-0.7992450610728143
-184.71083521842957,7304.0,7540.0,12820.0,-35.0,-133.0,-279.0,0.16664907779703697,-0.17178469871233598,-0.5452490055881105,-0.80338136900409
-184.7186257839203,7300.0,7476.0,12920.0,-49.0,-103.0,-290.0,0.14068642442975623,-0.1658572783184419,-0.5472747258439976,-0.8082011306985077
-184.7264060974121,7248.0,7432.0,12924.0,-64.0,-163.0,-290.0,0.11152981372678525,-0.1642266716677295,-0.5485374882818055,-0.8122175354623271
-184.73421573638916,7284.0,7508.0,12860.0,-41.0,-145.0,-259.0,0.08567225191047532,-0.16246680003337993,-0.5503841833383909,-0.814458135738378
-184.74201774597168,7256.0,7492.0,12920.0,-64.0,-175.0,-272.0,0.05706044528168949,-0.1622749487721505,-0.550590269170822,-0.8168606381015389
-184.74981021881104,7280.0,7500.0,12884.0,-50.0,-138.0,-285.0,0.02945126140865868,-0.15863378102272227,-0.5513518265952083,-0.818522516507641
-184.7576231956482,7296.0,7548.0,12932.0,-51.0,-203.0,-285.0,-0.0013225620031478917,-0.15951293045329787,-0.5517322492843022,-0.8186240901339477
-184.7654094696045,7308.0,7536.0,12908.0,-62.0,-183.0,-293.0,-0.031857757496094805,-0.15843832707360633,-0.5509213169437958,-0.8187600883887481
-184.77318477630615,7276.0,7520.0,12916.0,-31.0,-211.0,-511.0,-0.07879980756217592,-0.1487315004709261,-0.5543600115150192,-0.8150794493353999
-184.78096270561218,7356.0,7436.0,12992.0,-70.0,-496.0,-263.0,-0.12221135406738698,-0.17066219864539686,-0.548536346076346,-0.8093495387802145
-184.78875470161438,7316.0,7224.0,12952.0,-39.0,-223.0,-257.0,-0.15150354037606847,-0.17366898022060664,-0.5468077194627353,-0.804914331154946
-184.79694175720215,7292.0,7380.0,12924.0,20.0,-219.0,-204.0,-0.17587346743185717,-0.17957568157729076,-0.5480426062681848,-0.7977909499075069
-184.80478525161743,7356.0,7412.0,12892.0,25.0,-233.0,-214.0,-0.20140273527617927,-0.185930702998172,-0.5491726672102074,-0.789478367971603
-184.81257677078247,7328.0,7400.0,12908.0,39.0,-240.0,-233.0,-0.22818598510247834,-0.19195587505514367,-0.5510080633659187,-0.779406320439067
-184.82034850120544,7328.0,7404.0,12884.0,80.0,-238.0,-204.0,-0.2520278637601695,-0.19990187441495003,-0.5547323502992744,-0.7673286232282217
-184.8281283378601,7324.0,7356.0,12920.0,83.0,-219.0,-173.0,-0.2726446662312529,-0.208001093659465,-0.5581395368199974,-0.7555664685853085
-184.83589696884155,7400.0,7432.0,12752.0,65.0,-225.0,-126.0,-0.29062109242963524,-0.21823858473417382,-0.5590375088390557,-0.7452438288770014
-184.84367394447327,7392.0,7624.0,12836.0,97.0,-168.0,-110.0,-0.3040362651369324,-0.22626240387831176,-0.5629043513643419,-0.734510697871639
-184.8514895439148,7420.0,7484.0,12872.0,90.0,-157.0,-100.0,-0.3163033143713808,-0.23380690375761617,-0.5662232225562915,-0.724346469109172
-184.85932850837708,7380.0,7484.0,12920.0,145.0,-158.0,-115.0,-0.3283245792613998,-0.24210007513667609,-0.5730816650671666,-0.7107516650951191
-184.86811232566833,7664.0,7528.0,12820.0,138.0,-158.0,-56.0,-0.3367004390342309,-0.2530493989796961,-0.578033025052339,-0.6989110372422321
-184.87606287002563,7660.0,7532.0,12960.0,86.0,-132.0,-35.0,-0.3435406049830287,-0.2618711267651735,-0.5799566995864647,-0.6906906632490468
-184.88389587402344,7372.0,7568.0,12880.0,83.0,-130.0,-95.0,-0.3538905192791518,-0.26738309983023295,-0.5830040409483792,-0.6807158485942344
-184.89170169830322,7204.0,7596.0,12896.0,52.0,-147.0,-124.0,-0.36745663181883104,-0.27139757833817174,-0.5842035655554438,-0.6708391552353233
-184.89950013160706,7332.0,7608.0,12856.0,24.0,-122.0,-121.0,-0.3801387715700712,-0.2731355938664597,-0.5843411101403003,-0.6629003912447291
-184.90730023384094,7368.0,7544.0,12860.0,-248.0,-125.0,-204.0,-0.40403691477054393,-0.26164143496170394,-0.5702936415089914,-0.6656298471885819
-184.91509985923767,7296.0,7612.0,12952.0,19.0,-135.0,-189.0,-0.42120750769403886,-0.2607252578333799,-0.5706752613756267,-0.6549323029472236
-184.92289400100708,7296.0,7552.0,12824.0,48.0,-104.0,-198.0,-0.4365200949045001,-0.2585557542221326,-0.5738287579503519,-0.6428994363447108
-184.9306879043579,7408.0,7580.0,12952.0,41.0,-130.0,-208.0,-0.4536662813330307,-0.2569708879206542,-0.5755779322091339,-0.6299705643096252
-184.93848276138306,7384.0,7592.0,12912.0,47.0,-101.0,-202.0,-0.46869630116399136,-0.2542239165207798,-0.5784207651868711,-0.6173519222815
-184.94627404212952,7300.0,7460.0,12932.0,76.0,-100.0,-194.0,-0.4824155928644882,-0.2529140917567402,-0.5824576644835258,-0.6033678206835894
-184.95411157608032,7280.0,7520.0,12924.0,90.0,-117.0,-113.0,-0.4922668540200574,-0.2571263286175123,-0.5845361664691248,-0.5915039016392488
-184.96194672584534,7372.0,7460.0,12936.0,102.0,-99.0,-121.0,-0.5012151463117223,-0.26045097545738066,-0.5880359083311057,-0.5789321523324032
-184.96975016593933,7380.0,7408.0,12932.0,138.0,-106.0,-61.0,-0.5065435007898101,-0.26871684759695497,-0.5915339610045778,-0.5668267024438716
-184.97758102416992,7396.0,7632.0,12856.0,107.0,-104.0,-59.0,-0.5122816983552597,-0.2755564184884125,-0.5934086806440975,-0.5563292725502776
-184.98539900779724,7384.0,7168.0,12936.0,122.0,-85.0,237.0,-0.5021026621185394,-0.29735829799357155,-0.5895104180519458,-0.5585234339900721
-184.9931938648224,7352.0,7484.0,12916.0,166.0,-6.0,46.0,-0.4958164628807098,-0.3072846182758777,-0.5959350656623216,-0.5519090468741696
-185.00096321105957,7328.0,7456.0,12864.0,168.0,5.0,66.0,-0.4878235331624492,-0.3177312159236775,-0.6022596489880733,-0.5462219238746546
-185.0087730884552,7284.0,7520.0,12888.0,171.0,6.0,65.0,-0.4796199026122359,-0.32812102242450764,-0.6086514059836254,-0.540226628051118
-185.01656794548035,7348.0,7564.0,12880.0,160.0,-7.0,52.0,-0.47292108471185673,-0.33789245284563124,-0.6142149296973713,-0.5337736955693645
-185.02434635162354,7316.0,7548.0,12768.0,129.0,27.0,114.0,-0.4623189833689647,-0.34804544249349895,-0.6177764289355598,-0.5324263436643782
-185.032133102417,7396.0,7480.0,12788.0,182.0,-13.0,60.0,-0.4546539121296734,-0.35919105683761676,-0.6236737886393807,-0.5246928722950791
-185.03992319107056,7344.0,7544.0,12868.0,184.0,-242.0,82.0,-0.4581478446285608,-0.3819052336201413,-0.6195694451910639,-0.5102770302310174
-185.04770636558533,7344.0,7516.0,12832.0,184.0,-37.0,85.0,-0.4501763907224907,-0.3954484684159914,-0.6232320039186445,-0.502537158183421
-185.05549120903015,7340.0,7588.0,12796.0,206.0,-9.0,94.0,-0.43936705002073057,-0.4089731703973851,-0.6284320053470664,-0.4947431211312159
-185.0632929801941,7340.0,7512.0,12788.0,197.0,-22.0,80.0,-0.430033435605001,-0.4217923402882278,-0.6330194361496665,-0.48626007382130143
-185.0710802078247,7360.0,7640.0,12868.0,166.0,-245.0,22.0,-0.43640250474396997,-0.4394874316733879,-0.6297410902701416,-0.4688601182439085
-185.078871011734,7388.0,7656.0,13020.0,161.0,-29.0,7.0,-0.43151638300944073,-0.4471402709012214,-0.6347894400556251,-0.45924019437185365
-185.08666515350342,7428.0,7680.0,12996.0,100.0,-235.0,-24.0,-0.4415134881982055,-0.4588759409406107,-0.630625092001048,-0.4436335243233902
-185.09445214271545,7404.0,7692.0,12884.0,91.0,-42.0,-71.0,-0.44293429660215755,-0.460067190355904,-0.6352395920743065,-0.4343017958895002
-185.10223841667175,7432.0,7752.0,12764.0,98.0,-38.0,-64.0,-0.4435365794139445,-0.46171517632894127,-0.639922202764519,-0.4249634961715161
-185.11007356643677,7468.0,7636.0,12948.0,111.0,253.0,-54.0,-0.42683580719493636,-0.45346834002846065,-0.6557197636836553,-0.4268597542551073
-185.1178548336029,7672.0,7552.0,12768.0,97.0,22.0,-53.0,-0.42371807186536303,-0.4532044436586533,-0.6621284827326929,-0.4203029861621872
-185.12562584877014,7388.0,7504.0,13052.0,173.0,-254.0,-252.0,-0.44056584844444063,-0.45408074346592825,-0.6685611833258222,-0.39081754790162143
-185.13343000411987,7440.0,7380.0,12876.0,146.0,-9.0,38.0,-0.4340018523072163,-0.46217898419642317,-0.6715458523173498,-0.3834829161728484
-185.1412229537964,7504.0,7400.0,12660.0,199.0,14.0,53.0,-0.4233411433915826,-0.4722789850555915,-0.6764070185285415,-0.374444097125455
-185.14900040626526,7664.0,7452.0,12944.0,209.0,-10.0,70.0,-0.4129821033855689,-0.48437118531829737,-0.6797782623832693,-0.36432382725778734
-185.15677618980408,7184.0,7468.0,12792.0,196.0,-39.0,78.0,-0.4044914709483576,-0.4972146646578316,-0.6811131369257214,-0.3539055267814246
-185.1645483970642,7612.0,7184.0,12784.0,230.0,-24.0,89.0,-0.3931258837179032,-0.5112462750266829,-0.6832772926390012,-0.3423615445494363
-185.17234134674072,7324.0,7568.0,13004.0,211.0,-23.0,102.0,-0.38198657255529506,-0.5251419568822177,-0.6840295551182877,-0.3322886564931925
-185.1801197528839,7332.0,7528.0,12888.0,214.0,-58.0,116.0,-0.37222042139566175,-0.5407516094620172,-0.6827581343110047,-0.3207506582883814
-185.1879162788391,7392.0,7568.0,12752.0,169.0,-46.0,98.0,-0.36421866077981285,-0.55328009046068,-0.6812033210846491,-0.3117498099162622
-185.19569540023804,7400.0,7616.0,12932.0,150.0,-53.0,96.0,-0.35750071000495437,-0.5651182094069244,-0.6788155965999614,-0.30338760283720184
-185.20350241661072,7176.0,7500.0,12920.0,160.0,-16.0,23.0,-0.3499476262363104,-0.5718321373776971,-0.6812946176630824,-0.2939086754366743
-185.21128010749817,7444.0,7928.0,12832.0,135.0,-5.0,-237.0,-0.3495231442816388,-0.5618231567921416,-0.696184597309638,-0.2784157297503259
-185.2190499305725,7412.0,7724.0,12988.0,124.0,55.0,-24.0,-0.3406926610013279,-0.5627654209869193,-0.7019508185905222,-0.27292607050508316
-185.22684168815613,7396.0,7760.0,12892.0,105.0,85.0,253.0,-0.3242301124663467,-0.579178882129857,-0.6942829230740285,-0.27820474365591225
-185.23462510108948,7168.0,7716.0,12924.0,114.0,83.0,-50.0,-0.31465757779155296,-0.5773029290393424,-0.7018203913638537,-0.27415337883534463
-185.24239683151245,7416.0,7656.0,13012.0,61.0,145.0,-52.0,-0.3039440805581926,-0.5722564265308022,-0.7097624159269849,-0.2763655027772485
-185.25018095970154,7340.0,7568.0,13028.0,43.0,125.0,-64.0,-0.2956006550911514,-0.5663637731704023,-0.717208744789987,-0.2783234548985023
-185.25795936584473,7268.0,7428.0,12816.0,45.0,193.0,-90.0,-0.2834557637252246,-0.5570950844981263,-0.7275555182590612,-0.2827735219035974
-185.26575899124146,7288.0,7416.0,13072.0,66.0,145.0,-107.0,-0.27366558750530945,-0.5482713419236598,-0.7378289005467384,-0.2830445112673878
-185.27357363700867,7264.0,7304.0,13092.0,61.0,97.0,-124.0,-0.26755697840442905,-0.5392825941596157,-0.7474646284730765,-0.2808632694482721
-185.2813766002655,7220.0,7360.0,13080.0,89.0,153.0,-67.0,-0.25501461091819627,-0.5331622028644479,-0.7562296576310533,-0.2807531274521976
-185.28914761543274,7300.0,7280.0,13008.0,110.0,144.0,-77.0,-0.24226016400105851,-0.5269182310456814,-0.7655618860205641,-0.27853579554970465
-185.29693031311035,7212.0,7360.0,13272.0,133.0,175.0,-26.0,-0.22505655808984493,-0.5236379198912333,-0.7735099615480269,-0.27719165553584857
-185.30475783348083,7200.0,7340.0,13024.0,164.0,209.0,32.0,-0.20263421109768562,-0.5238180408523813,-0.7798722145405113,-0.27632112759988176
-185.31253623962402,7236.0,7324.0,12936.0,194.0,232.0,108.0,-0.17530796960699613,-0.5287954060234724,-0.7833745520211306,-0.275620836669575
-185.32032442092896,7392.0,7416.0,12864.0,215.0,305.0,55.0,-0.1431343402099882,-0.5282184936276705,-0.7902149749414767,-0.2757862886740521
-185.32813429832458,7132.0,7204.0,12944.0,169.0,367.0,51.0,-0.10873468033072796,-0.5246760497900717,-0.7959838569090828,-0.28160524073639215
-185.3359203338623,7076.0,7592.0,12996.0,176.0,395.0,101.0,-0.070693692338565,-0.5232540279536261,-0.7988037044968476,-0.2883058545641407
-185.34370017051697,7088.0,7540.0,13232.0,161.0,362.0,37.0,-0.03714111413117612,-0.5173954784192352,-0.8028864084919182,-0.29376158974817407
-185.35148358345032,6980.0,7544.0,13232.0,111.0,347.0,105.0,-0.005105701866763828,-0.5159219959288974,-0.8016478253299193,-0.3019258022577757
-185.35925912857056,7008.0,7608.0,13072.0,107.0,342.0,52.0,0.025014430051793535,-0.5103256769214726,-0.8018488521156302,-0.30980703691922656
-185.36704683303833,6952.0,7588.0,13056.0,119.0,349.0,69.0,0.05659414099998764,-0.5051698673283456,-0.8007723561226029,-0.31680300190779537
-185.3748540878296,7012.0,7600.0,13072.0,112.0,328.0,105.0,0.0873393620772453,-0.5026154134064135,-0.7971903934543282,-0.32285764451592786
-185.38263773918152,6964.0,7552.0,13128.0,102.0,321.0,16.0,0.11457569871848439,-0.4936687615373954,-0.7965397981248599,-0.32967849967584034
-185.39040780067444,7076.0,7592.0,12952.0,89.0,350.0,61.0,0.14445457348457458,-0.4866744728479288,-0.7925340140027864,-0.33789150673879237
-185.39822506904602,6920.0,7448.0,13068.0,73.0,502.0,23.0,0.18281293187349218,-0.47204695107345557,-0.7865723301368662,-0.3536312732001133
-185.40602731704712,6932.0,7404.0,12976.0,113.0,211.0,-246.0,0.19430939363887853,-0.44660755650015516,-0.7964356595452855,-0.35843519668877116
-185.41381001472473,6976.0,7360.0,13028.0,105.0,146.0,-216.0,0.20177117396950361,-0.425082756768794,-0.8053837834460529,-0.36048578975450885
-185.42159509658813,6980.0,7304.0,12932.0,119.0,145.0,-10.0,0.2160770198388463,-0.4176349781676013,-0.806796136694957,-0.35773138012005895
-185.42940402030945,7056.0,7276.0,12988.0,134.0,58.0,10.0,0.22538325185557018,-0.41393672070366566,-0.8094150060421539,-0.3502943462716521
-185.43717694282532,7148.0,7220.0,12952.0,236.0,59.0,92.0,0.24087524915532058,-0.4138534246124967,-0.8118970394492421,-0.33395756409224625
-185.4449484348297,7416.0,7160.0,12604.0,295.0,32.0,53.0,0.2553053363102991,-0.4103017273542059,-0.8175876010102857,-0.31308496044346457
-185.45275330543518,7156.0,7180.0,12788.0,346.0,45.0,83.0,0.2730931251594561,-0.4070549046354984,-0.8226292088033463,-0.2881104552535487
-185.46054601669312,7252.0,7408.0,12684.0,389.0,13.0,60.0,0.2892383835874196,-0.4014950531727689,-0.8294474528453111,-0.2591520841242796
-185.46832251548767,7288.0,7192.0,12640.0,438.0,46.0,95.0,0.3098844685707731,-0.3959375180818594,-0.834188908195585,-0.22656999659541113
-185.47612166404724,7192.0,7200.0,12696.0,493.0,240.0,116.0,0.3463377823521744,-0.385808685053898,-0.8324124259982189,-0.19568176229817613
-185.48389387130737,7316.0,7300.0,12792.0,503.0,-81.0,76.0,0.3583915618695086,-0.3770928475945828,-0.8400174705255451,-0.15403610578564916
-185.49167156219482,7364.0,7344.0,12464.0,502.0,-145.0,-246.0,0.3605837916304943,-0.3448265059208306,-0.8582863053379177,-0.12007759198615774
-185.49945521354675,7184.0,7384.0,12412.0,567.0,-185.0,-7.0,0.3632936240559953,-0.32791788405143385,-0.8690632532371092,-0.07222649037869305
-185.50723600387573,7428.0,7500.0,12524.0,645.0,-156.0,23.0,0.36951857367679225,-0.3096403892284478,-0.8759279849413161,-0.018138860575298073
-185.5150203704834,7456.0,7432.0,12592.0,637.0,-134.0,16.0,0.3759836011454939,-0.29002906732563893,-0.8793878988648718,0.034588944851098334
-185.5228374004364,7576.0,7900.0,12708.0,558.0,-179.0,252.0,0.3751049575068004,-0.29003770937607903,-0.8758245589808155,0.09003188257366772
-185.53062534332275,7604.0,7980.0,12700.0,489.0,-7.0,57.0,0.38622300709359647,-0.2780380793484559,-0.8699480218191834,0.1292944490559877
-185.53839898109436,7668.0,8132.0,12900.0,425.0,-351.0,73.0,0.3687052120039445,-0.26494409805869634,-0.8741693172924277,0.1723052415032146
-185.54621410369873,7772.0,8084.0,12796.0,400.0,-375.0,141.0,0.34687653835322907,-0.2568410548119527,-0.8758792587551127,0.21574258686165446
-185.55401945114136,7664.0,8072.0,12812.0,350.0,-398.0,72.0,0.3226638820402404,-0.24395333933953592,-0.8787557094639175,0.25330454108913686
-185.5618278980255,7704.0,7920.0,12828.0,338.0,-411.0,91.0,0.29606999983118937,-0.23203584964263507,-0.8799326527458969,0.2902075917548481
-185.56960344314575,7672.0,7760.0,12748.0,326.0,-465.0,252.0,0.2602634891661386,-0.23081688896682875,-0.8772883160215642,0.3306836714245049
-185.57742547988892,7584.0,7648.0,12712.0,312.0,-429.0,-75.0,0.23567332466502136,-0.20534640686776273,-0.8785689959919933,0.3611197260043484
-185.58520674705505,7576.0,7504.0,12556.0,342.0,-381.0,-147.0,0.21705099890801283,-0.1748069182119145,-0.8773010338155967,0.39073558998941
-185.5929992198944,7552.0,7364.0,12536.0,358.0,-348.0,-187.0,0.2020899227691281,-0.14164872302520057,-0.8735764072836908,0.4194753425623692
-185.6007797718048,7480.0,7240.0,12304.0,383.0,-295.0,-202.0,0.19159339326125832,-0.10854035386468018,-0.8663292639898261,0.4483130263514692
-185.6085512638092,7456.0,7084.0,12664.0,376.0,-220.0,-289.0,0.18969803203034452,-0.07167885857590149,-0.8571156200282004,0.4735288922344065
-185.6163432598114,7380.0,6916.0,12596.0,454.0,-112.0,-315.0,0.19700995593063153,-0.03588465832302615,-0.84112547145045,0.5024015424324538
-185.62414479255676,7384.0,7072.0,12768.0,525.0,-1.0,-297.0,0.21138486902875508,-0.0049611518010452315,-0.8178763865703311,0.5351355346163823
-185.63192534446716,7292.0,7404.0,12784.0,628.0,-15.0,-223.0,0.2207042655012658,0.023249439938342296,-0.7875334921520276,0.5749261600161648
-185.6397044658661,7364.0,7812.0,12976.0,598.0,-53.0,-201.0,0.22566789629660455,0.05121389839017198,-0.7569212557592673,0.6111639303595722
-185.64748525619507,7472.0,8000.0,13028.0,536.0,-165.0,-67.0,0.21576294762588435,0.07495858522823204,-0.7303203481331033,0.6437854844861871
-185.6552619934082,7508.0,8040.0,12988.0,478.0,-240.0,17.0,0.19624759603730324,0.09630933565956944,-0.7072399842969945,0.6723265557197475
-185.6630516052246,7548.0,7872.0,12912.0,488.0,-276.0,45.0,0.17233856295806557,0.11799693048972558,-0.6827965096996363,0.7001178975390829
-185.67087697982788,7564.0,7748.0,12672.0,482.0,-275.0,63.0,0.14703890514718326,0.13818588060507317,-0.6572479930976002,0.7261606560146968
-185.6786665916443,7460.0,7652.0,12712.0,462.0,-497.0,84.0,0.10751438642574677,0.1705457359542134,-0.6341206533962498,0.7464889855822683
-185.6864550113678,7324.0,7532.0,12544.0,521.0,-251.0,229.0,0.07091253916875617,0.17889619546010088,-0.6049301706209348,0.772675256308281
-185.6942265033722,7376.0,7216.0,12376.0,503.0,-260.0,-115.0,0.05708347184873319,0.20540150502146284,-0.5699649732926295,0.7935311135652746
-185.7020299434662,7368.0,7092.0,12512.0,533.0,-147.0,-275.0,0.05924730995484572,0.23162495244029851,-0.5279371843157198,0.8149367871724368
-185.7098114490509,7248.0,7076.0,12312.0,682.0,42.0,-334.0,0.0710712350562948,0.24704809440669154,-0.4712536976583674,0.843703781573196
-185.71758556365967,7172.0,7388.0,12664.0,532.0,216.0,-330.0,0.09271029516382182,0.24763443050359524,-0.42272826837119193,0.8668233967306667
-185.72539401054382,7200.0,8064.0,12980.0,1011.0,235.0,-310.0,0.10260743145442422,0.24839765991621063,-0.3359261149670247,0.9027313901940252
-185.7331600189209,7468.0,8644.0,13204.0,658.0,175.0,-253.0,0.11326626148771782,0.24746042563674592,-0.27623093385936526,0.9217540685733149
-185.74095177650452,7552.0,8808.0,13416.0,468.0,117.0,-109.0,0.11473000743266419,0.2451142666538738,-0.23458602962082553,0.9336623674455191
-185.7487440109253,7496.0,8644.0,13516.0,293.0,-52.0,3.0,0.10720503140548499,0.25218026659764187,-0.2109452897308691,0.9383039374959753
-185.7565360069275,7452.0,8400.0,13360.0,150.0,-50.0,27.0,0.10085142120909937,0.25719297715486955,-0.19941950411323356,0.9401662750394484
-185.76432752609253,7540.0,8408.0,13240.0,49.0,-98.0,15.0,0.09690097621097025,0.26542829099564935,-0.19630207358502114,0.9389480917786195
-185.77212047576904,7348.0,7872.0,12944.0,20.0,-88.0,-89.0,0.10230842113386218,0.2743453849468628,-0.1930469054892641,0.9364830425610883
-185.7799015045166,7276.0,7796.0,12896.0,19.0,-70.0,-200.0,0.11709332163242925,0.2835786855849304,-0.18701133220592306,0.9332197194324461
-185.78768730163574,7112.0,7744.0,12904.0,38.0,-27.0,-282.0,0.13873175726866593,0.29069095397704336,-0.17687098303007745,0.9300370552634117
-185.79551792144775,7116.0,7776.0,12904.0,0.0,24.0,-418.0,0.17301262200278986,0.29500754649692307,-0.16557621524849261,0.9249982146369637
-185.80335116386414,7000.0,7828.0,12988.0,6.0,-17.0,-484.0,0.2115952948953959,0.30319943023362567,-0.15245954089455763,0.9165443934007539
-185.81114983558655,6876.0,7692.0,13000.0,-16.0,-39.0,-530.0,0.25372317059138266,0.31273743678341454,-0.13999138011013357,0.9045563895269637
-185.8189835548401,6712.0,8024.0,13096.0,-127.0,-163.0,-542.0,0.2977092898681819,0.32898567868715106,-0.1383633246761423,0.8854339005987414
-185.82676911354065,6928.0,8064.0,12940.0,-195.0,-268.0,-575.0,0.3440389475311445,0.3509742765528823,-0.14335506023608627,0.859013146863627
-185.83456349372864,6904.0,8048.0,12888.0,-323.0,-283.0,-612.0,0.39554909739728666,0.3693393414818728,-0.15670652871519164,0.8261794152845755
-185.85019636154175,6888.0,7764.0,12904.0,-462.0,-355.0,-655.0,0.4516165931780531,0.38677563600027537,-0.18036508772873025,0.783527597019683
-185.8579807281494,6876.0,7932.0,12768.0,-474.0,-327.0,-742.0,0.5116192248803643,0.4007460261713494,-0.19969303952084952,0.7333287674758244
-185.86580204963684,6896.0,7528.0,12772.0,-465.0,-348.0,-829.0,0.5727717522392307,0.41502716446121996,-0.21491937336312172,0.6734201033153702
-185.8735852241516,6932.0,7436.0,12548.0,-429.0,-342.0,-920.0,0.6333340175905717,0.42899634272873877,-0.22270530743950365,0.6043612381070016
-185.88139748573303,6980.0,7412.0,12760.0,-349.0,-393.0,-957.0,0.6862593297619842,0.44691781410303977,-0.22577452761727013,0.5275779207199554
-185.8891749382019,7116.0,7464.0,12844.0,-317.0,-401.0,-888.0,0.7288286816619288,0.46193236450559755,-0.228658526182282,0.45071334772042115
-185.8969554901123,7216.0,7552.0,12892.0,-259.0,-398.0,-879.0,0.7631340567752131,0.4767090865931865,-0.2277093758595354,0.3721871817982939
-185.90477395057678,7316.0,7592.0,12820.0,-212.0,-385.0,-807.0,0.7881091763384831,0.4894056021383926,-0.2258184803902326,0.29727444673379017
-185.9125530719757,7404.0,7572.0,12616.0,-160.0,-369.0,-697.0,0.8038949017258106,0.5003082548870251,-0.22493996571826022,0.22988399007720545
-185.92033672332764,7468.0,7640.0,12996.0,-112.0,-342.0,-571.0,0.8122385831921703,0.5094616178016866,-0.22579892255604367,0.17243024831332152
-185.92813873291016,7532.0,7540.0,12716.0,-68.0,-284.0,-452.0,0.8156864992954963,0.5170714707479389,-0.22657010504076308,0.12632741787687785
-185.93591690063477,7628.0,7628.0,13000.0,-100.0,-213.0,-345.0,0.819364611559503,0.5185956475161552,-0.22709106513589564,0.09016560229205431
-185.94369339942932,7596.0,7512.0,12800.0,-42.0,-174.0,-287.0,0.8198358990960065,0.5222380648023337,-0.2267610309652341,0.060958486370151915
-185.95150780677795,7624.0,7452.0,12732.0,-16.0,-131.0,-199.0,0.8189709505939226,0.5254299110807649,-0.22709388207048004,0.040476651925586894
-185.9592924118042,7596.0,7440.0,12756.0,40.0,-99.0,-107.0,0.8155995063534872,0.5305298342444863,-0.22910000506280204,0.029132934845117565
-185.96709966659546,7560.0,7520.0,12732.0,43.0,-56.0,-91.0,0.8127980048179027,0.5353439364414551,-0.22874956062556953,0.020974069538669073
-185.97488522529602,7608.0,7688.0,12660.0,116.0,-9.0,-48.0,0.8073574276803117,0.5443350361415777,-0.22691942902964238,0.01951730327270367
-185.9826741218567,7572.0,7692.0,12572.0,139.0,-247.0,-35.0,0.795795310162067,0.554895278547688,-0.24235330431663937,0.00811973252946725
-185.99044966697693,7580.0,7844.0,12720.0,157.0,64.0,43.0,0.7895457366527636,0.5646089359510389,-0.23984455665153184,0.01757463576608782
-185.99823307991028,7520.0,7904.0,12684.0,125.0,71.0,3.0,0.784928853909848,0.5728386774596848,-0.23488130812195115,0.02394399717952093
-186.0060350894928,7512.0,7928.0,12736.0,115.0,88.0,37.0,0.7809622052119847,0.5795599171730651,-0.2304356278571565,0.0332829964225279
-186.01382064819336,7484.0,7944.0,12568.0,65.0,57.0,-20.0,0.7789780244200686,0.584045228373057,-0.2253373041728639,0.036159480546281236
-186.02159523963928,7168.0,8000.0,12616.0,28.0,58.0,-105.0,0.7791011234705207,0.5876341741185029,-0.2159317962881065,0.032572629105265045
-186.02941250801086,7444.0,7972.0,12580.0,255.0,104.0,-144.0,0.7682333643376204,0.6070091023456752,-0.20067648311163028,0.03296053267085053
-186.0371856689453,7388.0,7964.0,12824.0,-26.0,3.0,-225.0,0.7702825783639993,0.6089209003632718,-0.18859866621498975,0.017624689263039155
-186.0449721813202,7312.0,7684.0,12756.0,-55.0,6.0,-223.0,0.7736133904734628,0.6086037458976615,-0.17640692243690012,0.002097683443645621
-186.0527741909027,7356.0,7992.0,12768.0,-81.0,-19.0,-314.0,0.7774904631236172,0.6075685671283128,-0.16098252678268685,-0.02129887462129626
-186.06056356430054,7324.0,7924.0,12608.0,-38.0,-22.0,-306.0,0.7784660295818396,0.6088670971431428,-0.14615881389835197,-0.04369324802982817
-186.06834864616394,7348.0,7888.0,12740.0,-71.0,-54.0,-370.0,0.7798307437549648,0.6080630551865442,-0.12986607030663902,-0.07251300431574517
-186.0761353969574,7176.0,7828.0,12768.0,-113.0,-64.0,-381.0,0.7823301238579743,0.6037546504691833,-0.11326870196435888,-0.10300534207753614
-186.0839068889618,7328.0,7780.0,12624.0,-82.0,-124.0,-357.0,0.7818916594658336,0.6000717345166765,-0.10219501218252698,-0.13459392919788568
-186.09168338775635,7300.0,7680.0,12744.0,-114.0,-56.0,-362.0,0.7827931322261309,0.5943741880056221,-0.08574360374410375,-0.16310202693171688
-186.09949111938477,7288.0,7632.0,12736.0,-89.0,-65.0,-379.0,0.7811868527280377,0.5897010945341471,-0.06929925975578369,-0.19286610077303018
-186.1072645187378,7324.0,7648.0,12636.0,-59.0,-53.0,-332.0,0.7780908920791133,0.5863835891073209,-0.054902943403828966,-0.21843652829767765
-186.1150484085083,7348.0,7612.0,12712.0,-30.0,-76.0,-341.0,0.772521335381117,0.5841105521844157,-0.04212259686415152,-0.24546147567635318
-186.12287020683289,7304.0,7660.0,12684.0,-50.0,-5.0,-382.0,0.766558099788918,0.5815640453672993,-0.022008885945803854,-0.27145450764990003
-186.13065147399902,7296.0,7708.0,12676.0,-47.0,22.0,-355.0,0.7603260509982942,0.5792000716594427,-0.0015184601929126586,-0.293988549847912
-186.138432264328,7208.0,7916.0,12636.0,-44.0,-1.0,-345.0,0.7534744281895503,0.5759014540696542,0.01685423786078118,-0.31674869523175714
-186.14620780944824,7296.0,7736.0,12556.0,-23.0,-69.0,-300.0,0.7462901959840421,0.5717037455608334,0.02789314096655321,-0.3397465869980651
-186.15398955345154,7372.0,7780.0,12692.0,-25.0,-82.0,-345.0,0.7372751963869673,0.5664053004462685,0.04035719512622868,-0.36603499452985977
-186.16177439689636,7372.0,7788.0,12640.0,-16.0,-96.0,-291.0,0.7289688765402182,0.5609594428443403,0.04892303309933401,-0.3892755031488896
-186.16957449913025,7304.0,7776.0,12744.0,-42.0,-63.0,-313.0,0.720498217100768,0.5544692703159827,0.06150461124002612,-0.41190208815456325
-186.1774036884308,7416.0,7856.0,12724.0,-27.0,-73.0,-286.0,0.711799169775672,0.5483097276362002,0.07155912732396442,-0.43310238487315295
-186.18517518043518,7460.0,7852.0,12748.0,-42.0,-51.0,-258.0,0.704306873257682,0.5418983292570199,0.08215825015892202,-0.4511629982182293
-186.1929726600647,7200.0,7860.0,12692.0,-85.0,-61.0,-240.0,0.6992531402551421,0.5322955883644584,0.09293508136497709,-0.4680486332666113
-186.20078682899475,7448.0,7848.0,12788.0,-79.0,-46.0,-270.0,0.6921735497649295,0.523130009906482,0.10571502689759454,-0.48585502243889733
-186.20857572555542,7456.0,7824.0,12812.0,-69.0,-14.0,-249.0,0.6848400014705033,0.5158283923822545,0.11897987170500182,-0.500758456870457
-186.2163529396057,7500.0,7804.0,13044.0,-88.0,24.0,-337.0,0.6736310207866105,0.5077740657782555,0.13921404779081184,-0.5186580712325864
-186.2241404056549,7536.0,7792.0,12704.0,-120.0,41.0,-318.0,0.6638783735269672,0.4983868295547299,0.16092089941720397,-0.5338356839143775
-186.2319142818451,7512.0,7772.0,12992.0,-43.0,81.0,-305.0,0.650266444105393,0.4950971019726321,0.18065777083890774,-0.5471701573773421
-186.2396948337555,7492.0,7812.0,12544.0,-87.0,100.0,-245.0,0.6406757325759329,0.49083688166372536,0.20085763202725862,-0.555220652482708
-186.24747347831726,7380.0,7836.0,12760.0,-73.0,119.0,-191.0,0.6324412434947693,0.4889829054696353,0.2190288955229096,-0.5594105242228447
-186.25527238845825,7388.0,7828.0,12592.0,-102.0,119.0,-280.0,0.6207190043576691,0.48354003947294766,0.2422789656029085,-0.567624744599906
-186.2630593776703,7396.0,7836.0,12764.0,-107.0,118.0,-284.0,0.608535569149648,0.47731518399535294,0.265700622350797,-0.5755500460338749
-186.27088117599487,7292.0,7744.0,13024.0,-134.0,165.0,-292.0,0.595437060334361,0.471408932952908,0.29306879510736056,-0.5808089242142336
-186.27866291999817,7192.0,7784.0,12712.0,-136.0,51.0,-346.0,0.5819830551182039,0.4577650210351773,0.31653613907670947,-0.5929180227741058
-186.28644609451294,7232.0,7664.0,12784.0,-133.0,-55.0,-397.0,0.5679885180637183,0.43683465152453066,0.336116820057627,-0.6112201026222647
-186.29422235488892,7144.0,7916.0,12664.0,-130.0,-138.0,-473.0,0.5513145201174948,0.4086881780053125,0.3537506495905864,-0.6355208501540707
-186.30204510688782,7196.0,7608.0,12752.0,-119.0,-152.0,-506.0,0.5316851504305552,0.37842420682494304,0.37052771217730207,-0.6609199913826218
-186.30982995033264,7248.0,7640.0,12692.0,-113.0,-76.0,-526.0,0.5070511183414176,0.3513317972969464,0.3903072878254728,-0.6834656923848764
-186.31760501861572,7296.0,7684.0,12788.0,-106.0,-34.0,-494.0,0.48160289671626466,0.3274070524667874,0.4097280462270956,-0.7021297600902845
-186.3254096508026,7444.0,7684.0,12672.0,-119.0,10.0,-496.0,0.4538751780931371,0.3049225169981608,0.4310446652279935,-0.7177883238928565
-186.33318543434143,7528.0,7724.0,12688.0,-108.0,34.0,-481.0,0.4250087071671783,0.28435984829505573,0.4513999504174778,-0.7312627163152755
-186.3409435749054,7468.0,7708.0,12748.0,-124.0,33.0,-428.0,0.39922619987676206,0.2647495746904811,0.4706676244020442,-0.7409440541450517
-186.34875297546387,7308.0,7760.0,12660.0,-66.0,53.0,-290.0,0.3797427972564031,0.2538260978425554,0.4831826880334478,-0.7469285173098398
-186.356538772583,7312.0,7784.0,12836.0,-64.0,52.0,-8.0,0.3784886071614289,0.25470264639333595,0.4891118096422243,-0.7433993367213487
-186.36432552337646,7308.0,7776.0,12816.0,-72.0,71.0,-244.0,0.3611807675888459,0.24640113324345383,0.501292424773278,-0.7466865738214403
-186.3721420764923,7340.0,7736.0,13048.0,-67.0,21.0,-15.0,0.36076588406737825,0.24494905757870278,0.5065081340878174,-0.7438396643008935
-186.37992691993713,7304.0,7788.0,12732.0,-69.0,-26.0,-318.0,0.3426512528949727,0.22689045819937953,0.5166351482609686,-0.7511317876704113
-186.38770413398743,7364.0,7716.0,12728.0,-89.0,-30.0,-357.0,0.3222339192817718,0.20600835527020273,0.5282471337384882,-0.7580770571124326
-186.39548873901367,7328.0,7776.0,12716.0,-72.0,-7.0,-348.0,0.3007144590782002,0.18733729138020835,0.5386922514491013,-0.7643861665338604
-186.40327334403992,7360.0,7832.0,12632.0,-73.0,44.0,-367.0,0.27523270555674895,0.17096123588398246,0.55030299165718,-0.7695361141558537
-186.411048412323,7268.0,7812.0,12760.0,-56.0,129.0,-286.0,0.2505871119016219,0.16443336497506114,0.5610983261765711,-0.7715804794016192
-186.418860912323,7228.0,7812.0,12800.0,-56.0,114.0,-332.0,0.22335759559733923,0.1545050293014388,0.5717407922235379,-0.7741783043441209
-186.42663884162903,7228.0,7820.0,12832.0,-90.0,130.0,-311.0,0.19698756706402654,0.14589970458090454,0.5841715433565535,-0.773726555417237
-186.43440794944763,7160.0,7832.0,12740.0,-79.0,126.0,-509.0,0.1570293242498499,0.12691291637664517,0.5974107938620424,-0.7761026004076618
-186.44221210479736,7164.0,7856.0,12892.0,-81.0,81.0,-344.0,0.1303298250801137,0.11324609550554911,0.6074124130093612,-0.7753964270419873
-186.45002388954163,7420.0,7860.0,13024.0,-112.0,75.0,-343.0,0.1041803547241208,0.09876061906197295,0.6188168986403708,-0.7723072185142162
-186.45780158042908,7108.0,7768.0,12928.0,-132.0,65.0,-376.0,0.07639633235151337,0.0815320763613119,0.6310584876853799,-0.7676466023162554
-186.46559357643127,7016.0,7704.0,13080.0,-113.0,81.0,-331.0,0.050512611630383585,0.067890967126712,0.6411156155092098,-0.7627647476116897
-186.47340488433838,6960.0,7592.0,13044.0,-96.0,43.0,-329.0,0.02673009045976703,0.05184627651118442,0.6492576299721067,-0.7583284221225929
-186.4811873435974,6932.0,7600.0,13284.0,-114.0,-2.0,-368.0,0.002965595139423446,0.030525983643240974,0.6579991768849965,-0.7523938149577976
-186.48894596099854,7016.0,7612.0,13112.0,-48.0,-34.0,-385.0,-0.020266485299270016,0.0061145580876470935,0.6616938275547093,-0.7494752566489477
-186.4967622756958,7052.0,7588.0,12952.0,-36.0,-114.0,-400.0,-0.03985038295186134,-0.024417457619179336,0.6639298359436848,-0.7463329737361182
-186.5045521259308,7068.0,7572.0,13096.0,-7.0,-58.0,-379.0,-0.06121140867049236,-0.050157306990833726,0.6633122219401787,-0.7441466953691217
-186.51234197616577,7108.0,7672.0,12892.0,-18.0,-58.0,-327.0,-0.07919623800030143,-0.07278079589532141,0.662982781890129,-0.7408675607371866
-186.5201222896576,7148.0,7608.0,12896.0,254.0,9.0,-270.0,-0.09557568853201225,-0.08958178710687598,0.644339821298562,-0.7534365174779541
-186.5279037952423,7180.0,7692.0,12888.0,-21.0,49.0,-326.0,-0.1199522329278529,-0.10452698912490417,0.6423878478004702,-0.7496822149140154
-186.53568243980408,7228.0,7608.0,13024.0,-7.0,102.0,-307.0,-0.14583834445741226,-0.1149983551496547,0.6386113042258356,-0.7467811980183836
-186.5435049533844,7264.0,7556.0,12948.0,-26.0,151.0,-329.0,-0.17595081592183284,-0.12315419537132191,0.6346493185588569,-0.7423574590395535
-186.5512809753418,7128.0,7492.0,12892.0,21.0,238.0,-285.0,-0.20734917283074308,-0.123829782952672,0.626122657801149,-0.7413790682021756
-186.55907344818115,6972.0,7500.0,13024.0,32.0,270.0,-295.0,-0.2407870583966605,-0.12303681775268012,0.6154773684666426,-0.7403182713477722
-186.56686997413635,7284.0,7492.0,12932.0,102.0,385.0,-266.0,-0.2774128608795549,-0.11455103096715664,0.5972879125688475,-0.7437521868351925
-186.57465863227844,7204.0,7492.0,12968.0,162.0,453.0,-172.0,-0.3103629447620867,-0.09799921002332136,0.5733760108625453,-0.7518716296820657
-186.5824339389801,7324.0,7464.0,13040.0,150.0,524.0,-157.0,-0.3452840534793579,-0.07551256767519526,0.5471780755705642,-0.7587311303425324
-186.59021830558777,7200.0,7496.0,13088.0,205.0,604.0,-87.0,-0.37804573385458123,-0.04585772205558855,0.5138601268440366,-0.768717283845013
-186.59803080558777,7216.0,7524.0,13016.0,223.0,675.0,36.0,-0.40433448866358185,-0.006400222870302783,0.4756892850257715,-0.7811481053782571
-186.60581731796265,7200.0,7436.0,13032.0,259.0,541.0,99.0,-0.4194115428111924,0.0252974508217969,0.4382096922687713,-0.7946233462089839
-186.6136040687561,7112.0,7444.0,13100.0,311.0,889.0,158.0,-0.44170644110626905,0.08119235579193594,0.3822505035365547,-0.8075814347743762
-186.62141036987305,7108.0,7528.0,13112.0,360.0,876.0,213.0,-0.45692182579664326,0.1355110300035425,0.3202805977753703,-0.818706018389197
-186.62917041778564,7044.0,7560.0,13280.0,410.0,913.0,269.0,-0.46624676491918443,0.19094466193189286,0.2502150943742556,-0.8267687081822777
-186.636944770813,6936.0,7580.0,13012.0,450.0,945.0,354.0,-0.4667411222352578,0.24718965254185643,0.1724532354354117,-0.8314504688065711
-186.64475178718567,6940.0,7672.0,13116.0,474.0,944.0,389.0,-0.46078238434018476,0.30056135978878346,0.09066168930723308,-0.830134279123354
-186.6525263786316,6836.0,7776.0,13308.0,428.0,973.0,402.0,-0.44842317885059285,0.3550518749956516,0.009842635371446537,-0.8202182278275376
-186.66029858589172,6768.0,7856.0,13060.0,368.0,921.0,442.0,-0.42709055841455285,0.40492612747792545,-0.06600955998468239,-0.8057736805018546
-186.668119430542,6708.0,7844.0,12916.0,362.0,912.0,448.0,-0.40136509201725623,0.4507953077674591,-0.14071759629836586,-0.7847854557118343
-186.67589259147644,6620.0,7824.0,13044.0,321.0,866.0,394.0,-0.374941460872603,0.49196563046831443,-0.20777574977014512,-0.757771705175171
-186.6836678981781,6564.0,7848.0,12876.0,296.0,733.0,405.0,-0.34653074703835857,0.5216938373156244,-0.2679462345426725,-0.7320907026170591
-186.69146156311035,6536.0,7756.0,12908.0,256.0,589.0,341.0,-0.3219676064877495,0.5423841362246298,-0.31702005571424047,-0.7082757890958521
-186.69922423362732,6564.0,7744.0,12960.0,295.0,509.0,211.0,-0.3083345968286257,0.5587695566038262,-0.359023748205223,-0.6810347327676946
-186.70701599121094,6900.0,7712.0,12912.0,265.0,442.0,220.0,-0.29396461329365275,0.5702275184751919,-0.3969316299995627,-0.6564073921054121
-186.71483898162842,6756.0,7684.0,12984.0,501.0,386.0,200.0,-0.29356110614064,0.5715028767142977,-0.44475378397978776,-0.6240195593925132
-186.72263646125793,6868.0,7488.0,13000.0,6.0,395.0,156.0,-0.2698270240799055,0.5863180386141,-0.4626636337064747,-0.6077556225304853
-186.7304129600525,6896.0,7720.0,13100.0,5.0,421.0,170.0,-0.2438498970272985,0.601116330305714,-0.4811666524581163,-0.589639752494536
-186.73817825317383,6952.0,7436.0,13224.0,289.0,408.0,126.0,-0.2351326294172007,0.6099824418284835,-0.510820564601382,-0.5582977861541629
-186.7459592819214,6944.0,7608.0,12816.0,259.0,401.0,94.0,-0.2262327178756906,0.6193947946681116,-0.5361972334760282,-0.5269358333927192
-186.75374817848206,6948.0,7676.0,12876.0,289.0,365.0,93.0,-0.22028159539453174,0.6255297409026425,-0.5612479003445388,-0.49516598867002093
-186.76150155067444,6928.0,7508.0,12992.0,331.0,376.0,104.0,-0.21519939582064648,0.6296447743882153,-0.5878807890146852,-0.4600357116915094
-186.76930832862854,6880.0,7672.0,12996.0,309.0,370.0,130.0,-0.20775182130574607,0.631384228215608,-0.6138062163954993,-0.42595195247699935
-186.77709031105042,6692.0,7672.0,13040.0,354.0,395.0,111.0,-0.20171937110233143,0.6329584720225145,-0.6395389819729044,-0.3868627127988232
-186.78490662574768,6952.0,7424.0,12820.0,323.0,407.0,137.0,-0.1919798413343259,0.6326403020500542,-0.6644577642971814,-0.3484334487509123
-186.79268789291382,6856.0,7624.0,13012.0,326.0,424.0,184.0,-0.17954706819924174,0.6286086808172402,-0.6908045284286892,-0.3088738904547972
-186.8005142211914,6848.0,7616.0,12884.0,302.0,466.0,200.0,-0.16238003419765112,0.6235305443404328,-0.7162817905548585,-0.2679230883817573
-186.80833315849304,6812.0,7688.0,13016.0,292.0,461.0,206.0,-0.14441198634369884,0.6164766526742239,-0.7399060717975681,-0.22724594567328069
-186.81613421440125,6792.0,7756.0,13028.0,289.0,498.0,184.0,-0.12394217065997165,0.6099655308887496,-0.7607668757466565,-0.18388624262399775
-186.82392644882202,6816.0,7664.0,13180.0,229.0,482.0,161.0,-0.10138498821268489,0.6038084024970495,-0.7773167457631325,-0.14462079378598466
-186.83172965049744,6780.0,7752.0,13124.0,274.0,452.0,127.0,-0.08341960272637972,0.597792050738767,-0.7905862374174323,-0.10324357200649194
-186.83952355384827,6772.0,7804.0,13148.0,267.0,432.0,115.0,-0.06639142424093616,0.5911894403833382,-0.8013171087529131,-0.06307230443203547
-186.8473196029663,6736.0,7792.0,13232.0,261.0,385.0,17.0,-0.05274868093140872,0.5901181403764186,-0.8052023867874997,-0.02504542613708483
-186.85511803627014,6660.0,7784.0,13036.0,223.0,367.0,29.0,-0.038303008442882,0.5874402558159814,-0.8083061731523976,0.009378477211414733
-186.8629186153412,6712.0,7816.0,13092.0,242.0,331.0,-37.0,-0.027260628194808213,0.5885919567651672,-0.8067980243474584,0.043512233806294556
-186.87074542045593,6672.0,7760.0,13048.0,224.0,263.0,-3.0,-0.020176242875934895,0.5870068261030575,-0.8060524377103361,0.07276931353977957
-186.87854027748108,6696.0,7808.0,12992.0,230.0,277.0,53.0,-0.012749687620397833,0.5808233560516786,-0.8073863688455766,0.10299964044986623
-186.8863182067871,6820.0,7828.0,13112.0,200.0,212.0,-33.0,-0.007596215741144959,0.5808346363988364,-0.803884270619467,0.12784170726508937
-186.8941786289215,6760.0,7824.0,12944.0,177.0,5.0,-40.0,-0.015717432339168284,0.5834009347141639,-0.7997796338890282,0.14053059777726531
-186.90196871757507,6836.0,7788.0,12996.0,129.0,234.0,-132.0,-0.004276293755532029,0.5893751886463758,-0.7915224297279468,0.16158850069646982
-186.9097545146942,6808.0,7772.0,12892.0,130.0,218.0,-180.0,0.006689949792881449,0.5984738203108924,-0.7802138789412172,0.1817983335505425
-186.9175717830658,6972.0,7752.0,12544.0,129.0,223.0,-17.0,0.015463540875279723,0.5960227395685308,-0.7769412016141038,0.2021883825922109
-186.9253854751587,6876.0,7828.0,12952.0,168.0,271.0,-327.0,0.03090840684649293,0.6131629107516314,-0.755983723464378,0.22707823568482619
-186.93318247795105,7008.0,7832.0,12756.0,197.0,340.0,-350.0,0.04974992485126302,0.6293935000903798,-0.7316395655960233,0.25708425287391107
-186.94097352027893,7052.0,7844.0,12920.0,228.0,414.0,-423.0,0.07311135816065083,0.647120768573309,-0.7003902431895523,0.29213515268429213
-186.94879293441772,7076.0,7868.0,12948.0,250.0,471.0,-403.0,0.09796660010711246,0.6602221586502038,-0.6670816007832789,0.3309250434571797
-186.95658135414124,7108.0,7964.0,12796.0,292.0,294.0,-463.0,0.11154457956014072,0.6801863365101671,-0.6284902663918275,0.36042244581374105
-186.96436524391174,7284.0,8016.0,12796.0,364.0,620.0,-453.0,0.1378992470050582,0.6871817972912648,-0.5824622895650688,0.4117070030757346
-186.9721703529358,7312.0,8100.0,12952.0,403.0,725.0,-483.0,0.1674422176330567,0.6881097813833975,-0.5283749806262806,0.4682818727719392
-186.97995519638062,7224.0,8180.0,12904.0,436.0,869.0,-399.0,0.1969054575882248,0.6745072643198073,-0.471838092803533,0.5325758212041793
-186.987726688385,7044.0,8164.0,13016.0,535.0,953.0,-228.0,0.2143335349046266,0.6456953633160588,-0.4151149519571986,0.6040018296901117
-186.99551272392273,6928.0,8244.0,12808.0,582.0,1073.0,-13.0,0.21994862793649392,0.5970563084557539,-0.36147530956747437,0.6815291381702915
-187.00330090522766,6812.0,8292.0,12688.0,656.0,1110.0,209.0,0.20711049874026666,0.5335100796281018,-0.3098965016662335,0.7592340841280802
-187.01108193397522,6708.0,8228.0,12772.0,648.0,1092.0,440.0,0.17620914350373143,0.4577535992716,-0.26571974102714047,0.8299427687064007
-187.0188639163971,6604.0,8420.0,12644.0,688.0,1035.0,662.0,0.12394235423288837,0.3751269907638509,-0.22452039996828713,0.8907910100723666
-187.02664852142334,6360.0,8220.0,12604.0,628.0,947.0,523.0,0.08089434686105793,0.2962413406430347,-0.18125155450258826,0.9342617656365564
-187.03443264961243,6332.0,8108.0,12480.0,630.0,1010.0,876.0,0.009168650809015527,0.20278558372114788,-0.14392510633060987,0.9685450462652411
-187.04222702980042,5968.0,8164.0,12480.0,591.0,638.0,875.0,-0.06678519209105346,0.13757164131508445,-0.1080134288921645,0.9823170978875366
-187.05004692077637,5920.0,8256.0,12600.0,545.0,466.0,854.0,-0.14143108398711007,0.0860439266404811,-0.07359813222728616,0.9834515779148324
-187.05782842636108,5924.0,8336.0,12768.0,453.0,299.0,857.0,-0.2155904951214316,0.049167746039965946,-0.04435388497764893,0.9742361130906794
-187.06560492515564,5908.0,8352.0,12556.0,419.0,61.0,813.0,-0.28534312798991646,0.03292927155034843,-0.013007063440936571,0.957771255929482
-187.07344484329224,6020.0,8336.0,12800.0,354.0,-71.0,664.0,-0.3411842501728335,0.02931210060105881,0.016723862114066585,0.9393904516378397
-187.081223487854,6352.0,8444.0,13092.0,287.0,-73.0,537.0,-0.38526865453529163,0.027571901788369366,0.04131189960668951,0.9214668637640885
-187.08900094032288,6164.0,8476.0,13288.0,268.0,-145.0,404.0,-0.41745467984164164,0.03170567740137731,0.06702189299905977,0.9056679337139274
-187.0967824459076,6196.0,8620.0,13468.0,193.0,-195.0,312.0,-0.44119635720705225,0.04192538501947856,0.08877937364472409,0.8920236876302365
-187.10455322265625,6208.0,8448.0,13504.0,157.0,-303.0,122.0,-0.4486684995809944,0.060406013419258844,0.11248429881542174,0.8845309341942397
-187.1123332977295,6208.0,8800.0,13688.0,109.0,-368.0,238.0,-0.46360351667215927,0.08680009632033608,0.13426541047246418,0.8714988939514772
-187.12014937400818,6240.0,8804.0,13792.0,45.0,-444.0,-210.0,-0.4423112891382677,0.11611664675472863,0.15740571257281954,0.8752720088616591
-187.12792420387268,6336.0,8924.0,13720.0,-9.0,-426.0,-365.0,-0.40793821674616354,0.14371691477396928,0.17694722907931357,0.8840936250459929
-187.13570284843445,6100.0,8724.0,13344.0,-118.0,-444.0,-257.0,-0.3793016350993713,0.17787793269163032,0.1869603557105439,0.8885581219396298
-187.1435034275055,6012.0,8872.0,13524.0,-19.0,-408.0,-613.0,-0.32406464480416675,0.199542886518805,0.20833377278797063,0.9009782358878724
-187.15129399299622,5996.0,8792.0,13728.0,-368.0,-308.0,-687.0,-0.2572637285542883,0.22086517598337077,0.1997647575798587,0.9193084300914686
-187.15908908843994,5824.0,8736.0,13412.0,-496.0,-290.0,-800.0,-0.17771826397514148,0.24021728830277986,0.1814619599120805,0.9369009713705005
-187.16687202453613,5612.0,8492.0,13376.0,-621.0,-193.0,-793.0,-0.09632615525620082,0.2518529922135247,0.14993749687074373,0.951215059362912
-187.17467546463013,5448.0,8680.0,13344.0,-691.0,-245.0,-886.0,-0.0042686849378440715,0.2648984892213399,0.11379815915677015,0.9575283534755948
-187.18246126174927,5408.0,8292.0,13324.0,-753.0,-248.0,-967.0,0.09593154336630826,0.2745201800714863,0.07316542877875426,0.9539825101921406
-187.1902506351471,5248.0,7940.0,13268.0,-853.0,-187.0,-1003.0,0.19981718819518166,0.2745798654449313,0.024738217407956595,0.9402483764375728
-187.19806575775146,5208.0,8224.0,13444.0,-939.0,-242.0,-945.0,0.2983991230882481,0.2740487247846068,-0.033347329069868425,0.9136428270544246
-187.2058343887329,5252.0,8044.0,13444.0,-1004.0,-343.0,-942.0,0.39361087123908195,0.275862756464171,-0.09873768867451502,0.8713329389352928
-187.21361684799194,5128.0,7692.0,13436.0,-1078.0,-358.0,-828.0,0.4759762107404914,0.2711547038526405,-0.1714871010281165,0.8188491604493973
-187.22141313552856,5444.0,7788.0,13448.0,-1135.0,-431.0,-753.0,0.5460798014710042,0.2640636220601237,-0.25045470625858307,0.7545460185056998
-187.2291932106018,5636.0,7668.0,13712.0,-1139.0,-601.0,-694.0,0.6001434325436978,0.26244010436582865,-0.3351255091120889,0.6772325635536761
-187.23695731163025,5796.0,7292.0,13604.0,-1148.0,-636.0,-708.0,0.6443783488432174,0.2584713421176266,-0.41633107347683335,0.5870583838968907
-187.2447669506073,5972.0,7096.0,13612.0,-1139.0,-689.0,-628.0,0.6718272556725247,0.25051495974323534,-0.495002797090297,0.49077757115943255
-187.25255727767944,5980.0,6880.0,13724.0,-1087.0,-751.0,-542.0,0.6812284873909248,0.24053171542619003,-0.5691735719116104,0.39257316117965296
-187.26034569740295,6076.0,7124.0,13724.0,-1052.0,-754.0,-445.0,0.6764282979635377,0.22435698781301378,-0.6360404259997453,0.2959075467568969
-187.26812052726746,6188.0,6876.0,13732.0,-1019.0,-746.0,-459.0,0.6624126981591941,0.20754441063022222,-0.6925422035644687,0.19626520632980252
-187.27590489387512,6312.0,6928.0,13744.0,-975.0,-673.0,-349.0,0.6417793954694907,0.18275724199337007,-0.7374517295587659,0.10432614543141505
-187.28368735313416,6340.0,7104.0,13732.0,-909.0,-651.0,-274.0,0.6138998754206497,0.1546409100947101,-0.7738316367375183,0.01994316594033976
-187.291494846344,6432.0,7120.0,13688.0,-909.0,-525.0,-297.0,0.5886771162006756,0.1263506215924445,-0.7958464145845433,-0.06421259750069312
-187.29927968978882,6412.0,7320.0,13716.0,-804.0,-442.0,-270.0,0.5634750908289499,0.10097968917932153,-0.8081756132608865,-0.13838750853651546
-187.30706405639648,6424.0,7632.0,13552.0,-742.0,-382.0,-290.0,0.5380698650603906,0.0801043466628139,-0.8129445359519016,-0.20781072018922506
-187.31484723091125,6492.0,7460.0,13472.0,-716.0,-314.0,-438.0,0.5113860759358269,0.07165296876676362,-0.8090819221126712,-0.28060038616568483
-187.3226194381714,6620.0,7612.0,13424.0,-680.0,-193.0,-491.0,0.4887001237586164,0.07105431714462382,-0.7956355343909034,-0.3508383808364266
-187.33039236068726,6544.0,7712.0,13404.0,-722.0,-47.0,-666.0,0.46788801241480976,0.08475879745544128,-0.7684718498972072,-0.4281912773609368
-187.3381974697113,6412.0,7712.0,13524.0,-659.0,26.0,-712.0,0.4463851556884304,0.10618617812365616,-0.7347687895473115,-0.4995794373907775
-187.34597396850586,6316.0,7736.0,13468.0,-668.0,73.0,-789.0,0.42122014661596635,0.13337600040765304,-0.6925331398977337,-0.5702475609272414
-187.3537585735321,6200.0,7636.0,13608.0,-635.0,45.0,-774.0,0.3914011630487177,0.15840591240547275,-0.6476593338278038,-0.6342318848692694
-187.36156105995178,6116.0,7472.0,13548.0,-541.0,-27.0,-754.0,0.3545433197049324,0.18039108326923656,-0.6060897771102463,-0.6887766500194454
-187.36934852600098,5936.0,7248.0,13348.0,-437.0,-153.0,-772.0,0.3060678744947252,0.19780349032631792,-0.5705110668029191,-0.7360117920742865
-187.37714910507202,6124.0,6992.0,13344.0,-342.0,-1.0,-711.0,0.265714132089463,0.2233566967491791,-0.5349066577236088,-0.7703133476373084
-187.38493967056274,5856.0,7128.0,13368.0,-257.0,-312.0,-652.0,0.21194108972104345,0.22620817724385336,-0.5109009926522979,-0.8018048457965109
-187.39274644851685,6080.0,6888.0,13228.0,-142.0,-315.0,-634.0,0.15611353670342293,0.2291922430371774,-0.493197215579609,-0.824533799145952
-187.40053606033325,6108.0,7116.0,13076.0,-101.0,-187.0,-517.0,0.1128369287402883,0.2361585520122727,-0.4774782079530721,-0.8387559399216488
-187.40831804275513,6204.0,7004.0,12812.0,-57.0,-34.0,-418.0,0.08203074035252052,0.25017471398822166,-0.46462895988035313,-0.8454605252515519
-187.4161286354065,6164.0,7112.0,13148.0,-81.0,139.0,-384.0,0.06114852337144944,0.27505803286905817,-0.4489032573348916,-0.8479916286130541
-187.4239056110382,6592.0,7288.0,13368.0,-86.0,360.0,-314.0,0.05411829552161486,0.31307823692571757,-0.4326334030165344,-0.8437307427418136
-187.4316897392273,6768.0,7564.0,13504.0,-154.0,578.0,-238.0,0.06261595428637398,0.3631446318260104,-0.41136954799349507,-0.8336547928419688
-187.4395010471344,7108.0,7780.0,13732.0,-169.0,711.0,-205.0,0.07850233729611525,0.4202165911200355,-0.38781733075473707,-0.816610750328928
-187.44728636741638,7132.0,7928.0,13776.0,-253.0,789.0,-225.0,0.09826639639312691,0.4808215598073837,-0.35512410704231895,-0.7956388700671299
-187.45506405830383,7464.0,8076.0,13924.0,-338.0,806.0,-226.0,0.12145337700781472,0.5390785672524595,-0.31428839382498064,-0.7719236886178237
-187.46285343170166,7824.0,8152.0,13904.0,-396.0,807.0,-287.0,0.14249493441654515,0.5949763157623952,-0.2646739613729242,-0.7454167099807965
-187.47062873840332,8036.0,8088.0,13876.0,-426.0,832.0,-174.0,0.1720161976114793,0.6454924142378351,-0.21685890817343872,-0.711844213902539
-187.47841095924377,8176.0,8024.0,13664.0,-370.0,876.0,-69.0,0.20454041961902764,0.6931736649623451,-0.1762590111685189,-0.6682860524705259
-187.48619890213013,8164.0,7912.0,13424.0,-280.0,856.0,15.0,0.2348927043511835,0.7355198550372611,-0.14514558353703916,-0.6186830528374334
-187.49398469924927,8168.0,7492.0,13172.0,-227.0,1055.0,86.0,0.2663818930195767,0.7831896311487724,-0.11630119909277277,-0.5496623689338207
-187.50176000595093,8056.0,7248.0,12752.0,-130.0,1056.0,143.0,0.2916647702014925,0.8257070674913201,-0.0949103734306477,-0.4734253072380588
-187.50956463813782,7872.0,6952.0,12424.0,60.0,1576.0,338.0,0.3113858321876861,0.8808317396048652,-0.08086738313120254,-0.3473251738111716
-187.51733994483948,7712.0,6892.0,11936.0,283.0,1823.0,617.0,0.3167580469145717,0.9261481865941957,-0.08613538887890969,-0.18572714116635636
-187.52511835098267,7608.0,7140.0,11892.0,313.0,2100.0,940.0,0.3161428637571803,0.9425813842542617,-0.106985522927906,0.012170523266116588
-187.53291845321655,7372.0,7184.0,11540.0,370.0,2266.0,1199.0,0.29814802507149984,0.9160223440570063,-0.13920742481938797,0.229416898264766
-187.5406939983368,7016.0,7388.0,11288.0,322.0,2374.0,1462.0,0.2642423290367794,0.8343609113108996,-0.1824702856187538,0.4480205978388423
-187.54846692085266,6900.0,7632.0,11424.0,180.0,2294.0,1632.0,0.21744127664414303,0.7017621309611705,-0.23433614043830417,0.6366598589864777
-187.55627250671387,6308.0,7892.0,11448.0,240.0,2128.0,1741.0,0.14545212516933664,0.5369984167704518,-0.27917352983592747,0.782648401204973
-187.564040184021,6220.0,8000.0,11440.0,-287.0,2040.0,1662.0,0.092737233643306,0.3443602614502725,-0.34162200996334285,0.8695459839126924
-187.57184624671936,6248.0,8656.0,11708.0,-265.0,1451.0,1524.0,0.02791921719443826,0.18352986354650155,-0.38898077778032103,0.9023476386710771
-187.5796480178833,6348.0,8884.0,11852.0,-864.0,1037.0,1348.0,-0.02874029220982076,0.053296774901420686,-0.46943406248037195,0.8808888183942262
-187.58746123313904,6592.0,9016.0,12068.0,-1165.0,729.0,1102.0,-0.07723650429475347,-0.04440655343136941,-0.5592371554348339,0.8242065180510458
-187.5952513217926,6768.0,9188.0,12568.0,-1478.0,487.0,1015.0,-0.13049493646116514,-0.11744382250047852,-0.6562384510696232,0.7338454302182539
-187.6030285358429,7372.0,9132.0,13404.0,-1776.0,401.0,336.0,-0.14536564433975338,-0.14029373251678795,-0.7611880192835561,0.6162623608183228
-187.61084175109863,7688.0,9048.0,14000.0,-2041.0,584.0,-159.0,-0.12093029929804566,-0.13294952541430016,-0.8654939450348479,0.467568730254508
-187.61861538887024,8292.0,8996.0,14808.0,-2053.0,907.0,-675.0,-0.04768076834318657,-0.09531213755854176,-0.9470706719247572,0.3028188949590393
-187.6264045238495,8136.0,9204.0,15192.0,-2618.0,1040.0,-1131.0,0.04489121113117523,-0.01778043254535464,-0.9956500652691681,0.07968427016154114
-187.63420867919922,7788.0,8884.0,15688.0,-2964.0,1420.0,-1731.0,0.16721890120429106,0.10575903603913807,-0.9639651484877964,-0.1778315435377048
-187.64202451705933,6704.0,8748.0,15824.0,-3298.0,1408.0,-2296.0,0.26297932358770276,0.2555855913619123,-0.8164016557066921,-0.4461011291320697
-187.64980745315552,6064.0,8520.0,15496.0,-3584.0,1104.0,-2856.0,0.287113728548358,0.3882080107124837,-0.5434799622419552,-0.6866511326279151
-187.6576533317566,4360.0,8016.0,15124.0,-3740.0,460.0,-3580.0,0.20141787688599974,0.4478167259103777,-0.1697381852514238,-0.8544471705923072
-187.6654336452484,3176.0,7548.0,14500.0,-3658.0,-399.0,-4280.0,0.017375447989507332,0.3740312906959497,0.23620369489057955,-0.8966640964751091
-187.67325043678284,2216.0,7052.0,13712.0,-3441.0,-1306.0,-4627.0,-0.1825917039346013,0.15202597158442274,0.5815911669753422,-0.7780103393363939
-187.68103671073914,2088.0,6488.0,12692.0,-3240.0,-2647.0,-5343.0,-0.31671949635068763,-0.21286399049212676,0.7869251201207978,-0.4848984816495123
-187.68882369995117,2676.0,5820.0,11208.0,-3011.0,-3974.0,-5809.0,-0.2873870516337432,-0.5794268057460278,0.7618110261757036,-0.03629352191976858
-187.69661164283752,3176.0,5156.0,10600.0,-2693.0,-4575.0,-6007.0,-0.11344949852415163,-0.7585382047450782,0.47622749298984624,0.4300655509888441
-187.7043879032135,4396.0,5132.0,10628.0,-2392.0,-4531.0,-5974.0,0.11599566228989219,-0.6701375265180358,0.029449015942815918,0.7325253970629398
-187.71215963363647,5724.0,5512.0,10664.0,-2186.0,-4108.0,-5659.0,0.30371161430104215,-0.37407770119617406,-0.40684059111175547,0.7760836696067496
-187.7199101448059,7128.0,5888.0,11544.0,-2017.0,-3789.0,-5349.0,0.3995772499141905,0.016492932558567774,-0.7022809464690478,0.5889545625539967
-187.72768187522888,8168.0,6368.0,12064.0,-1924.0,-3317.0,-4600.0,0.38603680107028476,0.35624011004290373,-0.8066093740604171,0.27101640152194323
-187.7354838848114,9144.0,6744.0,12844.0,-1904.0,-2825.0,-3429.0,0.30180698713985954,0.5531406618683767,-0.7740808147249204,-0.06121146115049247
-187.74326157569885,9572.0,7104.0,13796.0,-1979.0,-2680.0,-2804.0,0.1882503345550602,0.6320177791358833,-0.6531087915391569,-0.3722421856940935
-187.7510416507721,9980.0,7344.0,14252.0,-2013.0,-2642.0,-1622.0,0.09142622483223162,0.576258575904229,-0.5154512366147006,-0.627596464124944
-187.75884437561035,10492.0,7452.0,14192.0,-1916.0,-2682.0,-974.0,0.013268724682525981,0.4384565450515878,-0.3667385001730991,-0.8204161575307438
-187.76662182807922,10644.0,7320.0,14320.0,-1822.0,-2665.0,-553.0,-0.04022454934895806,0.2528922440857927,-0.20977004453769968,-0.9436228202653731
-187.7744061946869,10436.0,6960.0,13636.0,-1593.0,-2605.0,-301.0,-0.07484243520151991,0.04750214052750104,-0.06066709171277752,-0.9942140918944598
-187.78218698501587,10152.0,6568.0,13096.0,-1350.0,-2412.0,-10.0,-0.0805462426418811,-0.14893111363642977,0.0701330201376384,-0.9830631646408391
-187.78996419906616,9880.0,5828.0,12480.0,-1132.0,-2124.0,-165.0,-0.09439365255599708,-0.31745049062480796,0.17592963497279704,-0.9270187635088865
-187.79779601097107,9544.0,5592.0,12200.0,-816.0,-2035.0,-184.0,-0.09894594317494003,-0.4696649197990336,0.2487853111529414,-0.8412671587515603
-187.80563735961914,9120.0,5512.0,12248.0,-767.0,-1491.0,-141.0,-0.10732149471122582,-0.5694331259417265,0.30869647815261386,-0.7542774663407059
-187.81343936920166,8928.0,5520.0,11872.0,-188.0,-1356.0,-62.0,-0.08371028285734361,-0.6539084103306961,0.32821784724758823,-0.6765126932962041
-187.8212435245514,8356.0,5408.0,11864.0,-55.0,-1287.0,132.0,-0.04199707937857176,-0.7210858452274561,0.346103529423697,-0.5987351635378827
-187.82902765274048,8044.0,5676.0,12236.0,73.0,-1365.0,335.0,0.02111740889855599,-0.7766992262722259,0.36556072150634034,-0.5125014398431487
-187.83682107925415,7776.0,6292.0,12332.0,125.0,-1367.0,661.0,0.10183192888148199,-0.8093871672396525,0.3987039743308578,-0.4189961964276364
-187.84459781646729,7684.0,6588.0,12396.0,195.0,-1515.0,948.0,0.2005158001979505,-0.8200319458622117,0.4396692373156511,-0.30664634906465765
-187.85238242149353,7840.0,6912.0,12224.0,1.0,-1634.0,1125.0,0.2890879675114524,-0.8085491903799199,0.48434227717825823,-0.16759747108429981
-187.86014771461487,7984.0,7156.0,12164.0,295.0,-1688.0,1107.0,0.39130928585341596,-0.7669398692463243,0.5075652636714691,-0.03252357421060479
-187.86791896820068,7920.0,7180.0,12068.0,330.0,-1717.0,1084.0,0.4848106760236164,-0.7012961081219665,0.5123465252632265,0.10316692879602957
-187.87574458122253,7976.0,6528.0,11284.0,445.0,-1740.0,1046.0,0.5711546891933181,-0.6100370170842815,0.49859845138499204,0.23029707569981
-187.88354349136353,7832.0,6864.0,12236.0,494.0,-1737.0,966.0,0.6434787361898815,-0.5004621533425805,0.4659553581363197,0.34403248882516074
-187.8913218975067,7780.0,6628.0,12072.0,483.0,-1735.0,933.0,0.6963423735257523,-0.3773252662741808,0.41722822471528836,0.445705677285548
-187.8991117477417,7464.0,6152.0,11916.0,550.0,-1807.0,943.0,0.7313037010846841,-0.235156629244871,0.35381227776093577,0.5335851652807185
-187.9068944454193,7740.0,6384.0,12172.0,563.0,-1939.0,922.0,0.7459431068632425,-0.07878653076754341,0.27004476623999274,0.6036864982084788
-187.9146966934204,7732.0,6040.0,12068.0,566.0,-2154.0,926.0,0.7356616278783231,0.09160022564152674,0.16227021529729196,0.6512140547909019
-187.922465801239,8040.0,5876.0,11992.0,601.0,-2400.0,980.0,0.6906859820826682,0.27340993529377916,0.03341398577673275,0.6686429443220528
-187.93024015426636,8176.0,5752.0,11784.0,677.0,-2591.0,1081.0,0.6001255531149098,0.45448296922956694,-0.10595451863797965,0.6496677544399092
-187.938054561615,8588.0,5652.0,11520.0,750.0,-2604.0,1203.0,0.4629424345612743,0.6100442962008197,-0.2395844929644594,0.5967658918590186
-187.9458351135254,9096.0,5684.0,11728.0,528.0,-2498.0,1393.0,0.30060785872801477,0.7097683375935165,-0.37522334411653946,0.5148507203556143
-187.9536201953888,9412.0,5520.0,11704.0,909.0,-2216.0,1552.0,0.09903303666906815,0.7591377862209587,-0.474130127654395,0.43485963393958754
-187.96142554283142,9852.0,5340.0,11752.0,1065.0,-1929.0,1695.0,-0.11238504472179574,0.7496528137691466,-0.5467957934368587,0.35553427515590885
-187.9692018032074,9880.0,5212.0,11580.0,1312.0,-1577.0,1773.0,-0.319666956222621,0.6822549092959458,-0.5902946835878043,0.2896436817348508
-187.9769880771637,9868.0,5356.0,11272.0,1449.0,-1206.0,1855.0,-0.501800092311708,0.5619543167464416,-0.6142955033372639,0.23461681062025144
-187.98479104042053,9912.0,5464.0,11692.0,1600.0,-797.0,1906.0,-0.6455046726714141,0.3958155869525069,-0.6240457046284277,0.192926662801237
-187.99257016181946,9664.0,5728.0,11688.0,1759.0,-419.0,1921.0,-0.7420830101808434,0.19401293431488748,-0.6208738042808132,0.16182554334015348
-188.00034475326538,9044.0,5916.0,11828.0,1935.0,-167.0,1890.0,-0.7888969759259697,-0.03059618421278591,-0.5981285938305548,0.13765035462635247
-188.00812458992004,8720.0,6236.0,11812.0,2098.0,-250.0,1862.0,-0.7951219235020054,-0.26153299225581594,-0.5346861549159162,0.11615651711988952
-188.0158975124359,8376.0,6480.0,11844.0,2240.0,-38.0,1876.0,-0.7411343777712913,-0.4885489418856808,-0.4518959623065924,0.0884861837743119
-188.02368116378784,8100.0,6536.0,11844.0,2290.0,-140.0,1821.0,-0.6424854501664354,-0.6853836881704091,-0.3365389137420578,0.06483213594874203
-188.0315113067627,8124.0,6616.0,11332.0,2329.0,-374.0,1604.0,-0.5077991311884306,-0.835465149775261,-0.2002145414122035,0.0636566043893106
-188.03928971290588,7860.0,6900.0,11512.0,2254.0,-531.0,1421.0,-0.3509523111545056,-0.9313982676089689,-0.05883431442724998,0.0766046071473371
-188.04707956314087,7684.0,7072.0,11284.0,2256.0,-612.0,1530.0,-0.17583706668617283,-0.9756685696713003,0.09659430519407396,0.08844042253876674
-188.05485892295837,7800.0,7160.0,11104.0,2145.0,-640.0,1120.0,0.003449054425233153,-0.9712938932008575,0.21334970617041948,0.10515788097565029
-188.0626459121704,7920.0,7300.0,11452.0,2008.0,-572.0,880.0,0.17288118002133784,-0.9310219081466373,0.3004132102519213,0.11429001378755295
-188.0704221725464,8164.0,7272.0,11608.0,1806.0,-259.0,658.0,0.31537515315693676,-0.8715322295260147,0.362841090465343,0.09652164906679367
-188.07824611663818,8344.0,7104.0,11772.0,1592.0,-466.0,479.0,0.4422224122522181,-0.7995777085997591,0.3954001419967888,0.093667249992231
-188.08606481552124,8316.0,7004.0,12256.0,1484.0,-431.0,7.0,0.5556109463748153,-0.7318858897469269,0.38786046953115777,0.07213720838028827
-188.09386110305786,8236.0,6944.0,12300.0,1456.0,-450.0,132.0,0.657244845549468,-0.6481864718992633,0.38023733734451953,0.057472410203432765
-188.10163593292236,8284.0,6944.0,12308.0,1419.0,-539.0,13.0,0.7488697981373391,-0.5587085002035161,0.35403059175633955,0.04124533111437888
-188.10942459106445,8448.0,6724.0,12692.0,1452.0,-565.0,-68.0,0.8298039732336777,-0.45954571033450253,0.31602361544089935,0.01929198285356539
-188.1172001361847,8540.0,6584.0,12652.0,1514.0,-607.0,-189.0,0.8984874818219155,-0.35038681982992165,0.26421998844066547,-0.011709791082747549
-188.12498950958252,8792.0,6564.0,12960.0,1561.0,-696.0,-236.0,0.9513758218721493,-0.23137028530559933,0.19843396054656595,-0.044449971164238586
-188.13277173042297,8872.0,6576.0,13096.0,1614.0,-743.0,-186.0,0.9842647320552117,-0.10205076671043425,0.1250037363008565,-0.07199058380733259
-188.1405544281006,8876.0,6548.0,12960.0,1678.0,-891.0,-73.0,0.9948711509567639,0.03538546152315872,0.0365150664125313,-0.08744090594021543
-188.14833045005798,8932.0,6736.0,13296.0,1667.0,-996.0,21.0,0.9790571857663277,0.1702868258027552,-0.062150817250412604,-0.09266444772644004
-188.15614104270935,9060.0,6896.0,12900.0,1736.0,-1041.0,157.0,0.9342748755633464,0.3046219097362929,-0.16519695164627282,-0.08393995572125468
-188.16391348838806,9180.0,6800.0,12908.0,1718.0,-1272.0,303.0,0.8574184770666627,0.4233740525354578,-0.28478040971106316,-0.06699317181017271
-188.1716959476471,9320.0,6768.0,12784.0,1768.0,-1004.0,439.0,0.7574436235833498,0.5300392895491353,-0.38028945955919913,-0.026784987872782995
-188.1795437335968,9432.0,6776.0,12852.0,1775.0,-973.0,710.0,0.6338118308902378,0.6108055089672153,-0.4733661104554471,0.03352191389444944
-188.18732523918152,9604.0,6732.0,13028.0,1720.0,-850.0,835.0,0.49646571266191025,0.6629040373721534,-0.5507341985673398,0.10378764818218927
-188.19509434700012,9784.0,6696.0,12948.0,1729.0,-778.0,1009.0,0.34400510067803086,0.6844065086386093,-0.616402402163235,0.18247273836932654
-188.20288681983948,10160.0,6864.0,13052.0,1709.0,-589.0,1099.0,0.18960987183965025,0.6745482877331995,-0.6613164586239393,0.2677559440428008
-188.2106602191925,10360.0,6968.0,12904.0,1644.0,-444.0,1123.0,0.04038381903686647,0.637280155222237,-0.6855551078802965,0.3496531781339252
-188.2184338569641,10592.0,7260.0,12972.0,1648.0,-227.0,1244.0,-0.10112579643108728,0.5663429661616363,-0.6939125066764802,0.43302961914097987
-188.22618532180786,10708.0,7188.0,12572.0,1560.0,38.0,1268.0,-0.2204516230222995,0.4671980814089627,-0.6874180511103961,0.5104737580348307
-188.23394012451172,11020.0,7500.0,12872.0,1412.0,362.0,1210.0,-0.3060380892480822,0.3465942803346048,-0.6716351795330975,0.5788948767973889
-188.24173617362976,11032.0,7564.0,12892.0,1269.0,622.0,1277.0,-0.36742887982618916,0.20361588006324818,-0.6537137719044434,0.6294401449528034
-188.2495620250702,11052.0,7612.0,12828.0,1161.0,804.0,1048.0,-0.39513283179748027,0.06170120578453725,-0.6269039046148152,0.668621343376905
-188.25738644599915,10936.0,7448.0,12744.0,1001.0,779.0,1404.0,-0.43396990976169825,-0.09381969122140026,-0.5947539574393668,0.6701758821912026
-188.26516556739807,10632.0,7360.0,12696.0,862.0,1195.0,1446.0,-0.4423698982989794,-0.2671175210388265,-0.5684943444560384,0.6401338011342018
-188.27295064926147,10384.0,7028.0,12732.0,719.0,1406.0,1403.0,-0.42708173479054135,-0.43569464405783864,-0.5406940198499237,0.579155718132995
-188.28077507019043,10072.0,6920.0,12984.0,609.0,1850.0,1479.0,-0.38281126011050154,-0.6080136700154749,-0.5110429555117428,0.47181565661680425
-188.28856587409973,9668.0,7112.0,14052.0,301.0,2337.0,1637.0,-0.3201768943095257,-0.7637546713092704,-0.47513643287918084,0.29733975273148844
-188.2963309288025,8940.0,8068.0,15104.0,100.0,3252.0,1804.0,-0.21448591001916595,-0.8805144143505718,-0.4214613125762793,0.032565664826614514
-188.30412459373474,8088.0,9656.0,16232.0,-114.0,3415.0,2313.0,-0.09806666454192597,-0.915590947925735,-0.2897013079261948,-0.2610542042716941
-188.3118999004364,7624.0,10816.0,16488.0,-491.0,2998.0,3062.0,0.00770641760038903,-0.8614209147522142,-0.05562821124040098,-0.5047772982904642
-188.31968712806702,7340.0,10528.0,16304.0,-1194.0,2293.0,2462.0,0.035789848012091674,-0.7380637152967916,0.17531214403736203,-0.6505741242122923
-188.32749557495117,6668.0,9636.0,15524.0,-1666.0,840.0,1873.0,0.02134439474869394,-0.6497625105573754,0.3830794394001948,-0.6562036572557494
-188.3352882862091,6792.0,8664.0,15144.0,-2021.0,-348.0,1132.0,-0.016526038119033772,-0.6226979364620024,0.5509265599146478,-0.5553864380507184
-188.34306621551514,6936.0,7780.0,14964.0,-2082.0,-735.0,773.0,-0.05578470824988001,-0.6056508631822759,0.6808403616152001,-0.40808271250779965
-188.3508584499359,7252.0,7796.0,15172.0,-2056.0,-369.0,318.0,-0.12911185663731126,-0.5801027876305068,0.7598417877328398,-0.26353622497475265
-188.35861229896545,7736.0,8040.0,15504.0,-2387.0,444.0,194.0,-0.26903366819897434,-0.5185256641192469,0.8016275521332134,-0.12706411250235133
-188.36641383171082,7652.0,8136.0,15512.0,-2458.0,882.0,8.0,-0.4309521706449274,-0.43917834985688525,0.7882768901329484,0.004706178464132563
-188.37422919273376,7724.0,7576.0,15324.0,-2455.0,1040.0,213.0,-0.5811849502743067,-0.32385746074775784,0.736437631288175,0.12247454394823412
-188.38205695152283,8132.0,6552.0,14396.0,-2484.0,670.0,-227.0,-0.6752074414414573,-0.21417743505870335,0.6529803005361025,0.2680292231185569
-188.3898401260376,8800.0,4572.0,13288.0,-1952.0,743.0,-462.0,-0.7307190443440652,-0.14035228361886043,0.5453200928205225,0.38597527263036396
-188.39763236045837,8464.0,4192.0,12876.0,-1508.0,637.0,-784.0,-0.7439270328081181,-0.10158229600320975,0.4386398418514732,0.49381038480021844
-188.4054160118103,9036.0,3092.0,12844.0,-703.0,598.0,-861.0,-0.731633993017563,-0.1137923120449066,0.3595536892215176,0.5678768832659483
-188.4131977558136,8980.0,3216.0,12372.0,404.0,1148.0,-516.0,-0.7333319012920323,-0.2110075302254762,0.29911308384280005,0.5729149219645165
-188.42097735404968,9940.0,3892.0,13200.0,1082.0,1981.0,-492.0,-0.7260475509304148,-0.38416212215878515,0.21313083824405152,0.529008188477072
-188.42877292633057,10480.0,4728.0,13920.0,1638.0,2998.0,445.0,-0.7159279486196245,-0.5917433847837057,0.10897348000618766,0.35413517137579
-188.43655133247375,10176.0,6192.0,14388.0,1899.0,4005.0,1065.0,-0.6401832033524807,-0.7655893429787872,-0.025561483834096854,0.058181050238582
-188.44433736801147,9676.0,7916.0,14852.0,1993.0,4626.0,2148.0,-0.4580517102056014,-0.8166678741932486,-0.11759828891707456,-0.33077614255290627
-188.45214533805847,9392.0,9148.0,15384.0,1827.0,5444.0,2595.0,-0.1726751684134281,-0.6650906487279088,-0.17786445391776776,-0.7044160356072382
-188.45994591712952,8544.0,9924.0,15908.0,1674.0,5552.0,3272.0,0.18313905290345184,-0.34547330174645585,-0.15088621410156838,-0.9079326161539328
-188.47550988197327,7116.0,10308.0,15916.0,1129.0,4946.0,3245.0,0.4774180672215836,0.019466134997232855,-0.05631919421680811,-0.8766534132948133
-188.48329758644104,6228.0,10064.0,15832.0,888.0,4452.0,2824.0,0.6469122403904255,0.34720488149573014,0.050843582194717456,-0.6770289902568317
-188.49107718467712,5572.0,9672.0,14904.0,652.0,3785.0,2178.0,0.6897486746301825,0.575945013080802,0.1491078983616947,-0.4126753474578049
-188.49885487556458,4896.0,9376.0,14228.0,482.0,3196.0,1682.0,0.6524445375049176,0.7070019254163153,0.22821399302277898,-0.1496087441502543
-188.50663423538208,4404.0,8908.0,13748.0,373.0,2646.0,1157.0,0.5737034188041643,0.761567065994649,0.29323151947475856,0.06996618634197481
-188.51441025733948,4248.0,8512.0,13220.0,350.0,2205.0,988.0,0.4773455849308341,0.773487368645273,0.3325871900353088,0.2514840832292745
-188.52221584320068,4288.0,8016.0,12848.0,502.0,1877.0,444.0,0.3736861726471248,0.7546932334406296,0.3859972898468771,0.37656720516016373
-188.5300223827362,4464.0,7504.0,12996.0,192.0,1702.0,290.0,0.29090092703403664,0.7066369862424724,0.42383386605156476,0.48621566646158004
-188.53779339790344,4564.0,7116.0,13048.0,190.0,1695.0,165.0,0.2072171252625178,0.6384483947731309,0.45959939007327894,0.5815609261752548
-188.5455687046051,4700.0,6640.0,13088.0,181.0,1829.0,287.0,0.10780888253369218,0.553058172244914,0.4795333169843058,0.6727196302041295
-188.5533480644226,4912.0,6536.0,13436.0,214.0,2018.0,465.0,-0.014045873388321398,0.4485894381190812,0.4806873356056561,0.7533325393457404
-188.56111788749695,5092.0,6312.0,13676.0,220.0,2257.0,653.0,-0.15699766642338805,0.3204625618648217,0.4571101924150982,0.8146813801547682
-188.56893038749695,5080.0,6316.0,13684.0,214.0,2359.0,835.0,-0.3091469149612896,0.1787251085866861,0.4068332047685203,0.8408164270685781
-188.57676029205322,5000.0,6344.0,13500.0,251.0,2543.0,770.0,-0.4478929995312868,0.012218030917837758,0.335438281473752,0.8286879629952962
-188.58454585075378,4936.0,6292.0,13704.0,499.0,2624.0,1163.0,-0.5906421528516191,-0.15791030065487413,0.25921140891224415,0.7476734780046845
-188.5923366546631,4940.0,6688.0,13792.0,278.0,2776.0,1167.0,-0.7018482581812283,-0.31587591630098266,0.14538812587245745,0.6216861916146161
-188.6001420021057,4828.0,6844.0,13772.0,318.0,2962.0,1211.0,-0.7668786882965475,-0.4626031391491093,0.014171519430667134,0.4446285878381897
-188.60792899131775,4300.0,7048.0,13620.0,340.0,3019.0,1206.0,-0.7729869726061953,-0.5778175246433765,-0.12105567066632078,0.23230060911594055
-188.6157112121582,3944.0,7256.0,13564.0,292.0,3046.0,1094.0,-0.7199884499857336,-0.6452765219602812,-0.25529774885091533,0.00760930520077424
-188.62350010871887,3528.0,7192.0,13292.0,263.0,2955.0,936.0,-0.6176962514033891,-0.6606238772369541,-0.374469729274187,-0.20445013006582352
-188.6390688419342,2564.0,7616.0,13152.0,31.0,3066.0,535.0,-0.4885325906670074,-0.6031298199650834,-0.49159519577562233,-0.3948474282750182
-188.6468484401703,2640.0,7608.0,13304.0,-103.0,2838.0,368.0,-0.34883167410372556,-0.501224034544842,-0.5720192802214698,-0.5476174516863893
-188.65463829040527,2560.0,7576.0,13432.0,-247.0,2643.0,192.0,-0.21287377450820685,-0.36710629382573956,-0.6157997107838198,-0.6638587510598339
-188.66241765022278,2640.0,7516.0,13652.0,-371.0,2809.0,-37.0,-0.07372011417170647,-0.18967081321455062,-0.6286209898017294,-0.7506170651948538
-188.67021226882935,2592.0,7432.0,13592.0,-495.0,2390.0,-122.0,0.04032663326279551,-0.022655779757053036,-0.5999396766982136,-0.7987069942203654
-188.67804217338562,2600.0,7312.0,14000.0,-533.0,2232.0,-291.0,0.1332076789511893,0.14340138507976644,-0.5443446537984392,-0.8157086826230913
-188.6858422756195,2660.0,7092.0,14156.0,-648.0,2169.0,-338.0,0.2160961620660285,0.3003324181734926,-0.45952125395395726,-0.8074299378267925
-188.69364070892334,2756.0,6916.0,14292.0,-633.0,1969.0,-355.0,0.2820345510827291,0.4340318056497663,-0.3623351143842971,-0.7751039727443573
-188.70142245292664,2812.0,6668.0,14292.0,-647.0,1857.0,-441.0,0.3304605677035152,0.5490965588225855,-0.25222577984678973,-0.7250316808684597
-188.70919680595398,2812.0,6528.0,14448.0,-589.0,1825.0,-362.0,0.37072048292229753,0.6461216045507097,-0.14290284676531925,-0.6516686060115543
-188.71698260307312,2632.0,6572.0,14216.0,-524.0,1836.0,-339.0,0.3983303162593814,0.7273694035800837,-0.03410768645552619,-0.5577664167094556
-188.724769115448,2872.0,6480.0,14164.0,-767.0,2036.0,-353.0,0.42815611749225896,0.7863724675807025,0.09466727108389017,-0.43513077237828335
-188.7325508594513,2972.0,6508.0,14152.0,-484.0,1773.0,-279.0,0.4306018322002716,0.8225053775149801,0.1958651988375776,-0.3157590694644023
-188.74031496047974,2908.0,6576.0,14052.0,-466.0,1778.0,-254.0,0.42126830991971087,0.8386832203101716,0.289962881756726,-0.18725649316081372
-188.7481186389923,2828.0,6588.0,13980.0,-446.0,1772.0,-6.0,0.40395623685405985,0.840440654400524,0.358293973444131,-0.04587258147458155
-188.75589084625244,2808.0,6628.0,14004.0,-444.0,2042.0,-34.0,0.3665625466048356,0.8183618354150562,0.4274881664794586,0.114759196941722
-188.76367616653442,2744.0,6580.0,13844.0,-430.0,1800.0,-292.0,0.3287440131812769,0.7654731846438734,0.49503329261476686,0.24682021106793017
-188.77148127555847,2740.0,6440.0,14084.0,-442.0,1830.0,-358.0,0.28304461266637243,0.6882884101681849,0.5542143136354248,0.3728153782105973
-188.77927947044373,2588.0,6676.0,14292.0,-441.0,1851.0,-364.0,0.22864689457722218,0.591103138213942,0.5989201995210134,0.48950206557228315
-188.78706622123718,2720.0,6740.0,14544.0,-400.0,1798.0,-421.0,0.1710068360862088,0.47777059751741047,0.6308557704297024,0.5869522255475208
-188.79488468170166,2784.0,6824.0,14544.0,-350.0,1725.0,-431.0,0.11133906965557473,0.3559442379312152,0.6485035862240218,0.6635890367587307
-188.802720785141,2888.0,6896.0,14708.0,-296.0,1624.0,-482.0,0.055912961894333486,0.22909097663080694,0.6546761400187722,0.7181853638223678
-188.81049418449402,2984.0,6936.0,14980.0,-500.0,1542.0,-407.0,0.0032716108687299637,0.10557030522684235,0.6321715510612268,0.7675958163288006
-188.81829571723938,3012.0,6956.0,15160.0,-178.0,1473.0,-367.0,-0.051342135374979676,-0.013314663717498952,0.618417023779971,0.7840580906822849
-188.82612013816833,2840.0,7072.0,15140.0,-144.0,1289.0,-355.0,-0.09616609678918853,-0.11920023113850017,0.5981123466459508,0.7866416004220312
-188.83391332626343,3284.0,7132.0,15356.0,-69.0,1146.0,-360.0,-0.13132245729795458,-0.2148517880683306,0.5766969462120268,0.7771832175251796
-188.84170079231262,3208.0,7064.0,15220.0,-90.0,1042.0,-321.0,-0.16300510915704067,-0.2992088577464859,0.5500048388681078,0.7624946367394403
-188.84949398040771,3300.0,7040.0,15160.0,-42.0,979.0,-306.0,-0.19004355552534646,-0.37683867710196245,0.5230954271927376,0.7404371901068818
-188.85727715492249,3240.0,7008.0,15152.0,28.0,961.0,-501.0,-0.19980305733952294,-0.46011789002012365,0.4902196142534002,0.7127797663812128
-188.86506509780884,3180.0,7000.0,15128.0,66.0,906.0,-11.0,-0.2345771041974022,-0.5163713875237946,0.4765354659539824,0.6717500443030378
-188.87284684181213,3152.0,7032.0,15012.0,126.0,913.0,-505.0,-0.2363531541137712,-0.5909056223012219,0.4405780261481019,0.6331340576439718
-188.88067865371704,3104.0,6988.0,14856.0,171.0,955.0,-189.0,-0.25295794337041133,-0.6519624844537587,0.4189981421906961,0.5791353508390241
-188.8884575366974,3084.0,7104.0,14960.0,232.0,964.0,-96.0,-0.26922807571122387,-0.7065792955136032,0.40244554142207883,0.5160421771423549
-188.89628171920776,3192.0,7132.0,14952.0,259.0,969.0,-50.0,-0.28403881750488014,-0.7551052407981933,0.3867657900239556,0.44671047574091816
-188.9040927886963,3044.0,7196.0,14932.0,260.0,950.0,-22.0,-0.297106829753516,-0.796340058453441,0.3705281252751742,0.37453831766089074
-188.91187167167664,3048.0,7180.0,14932.0,308.0,910.0,33.0,-0.3052235206986247,-0.8300457241827309,0.35803073904079363,0.29946066199119553
-188.91964292526245,3032.0,7248.0,15064.0,312.0,907.0,106.0,-0.312714967369632,-0.8556831672930841,0.3484652404743403,0.22042604786060532
-188.9274139404297,3012.0,7236.0,15080.0,363.0,869.0,125.0,-0.3134514412561335,-0.8754705593105471,0.3398955509547147,0.14060763918123836
-188.93518447875977,3000.0,7220.0,14968.0,347.0,675.0,228.0,-0.3091076224258765,-0.8843415005307772,0.3422873126278865,0.07233245337450339
-188.94299268722534,3016.0,7184.0,14760.0,327.0,556.0,193.0,-0.301262671729463,-0.889347102043051,0.34364913049107815,0.014415610385234279
-188.9507737159729,3008.0,7420.0,14732.0,341.0,400.0,226.0,-0.286802219605641,-0.8909035266162424,0.35065875950359193,-0.03276930691091967
-188.95855355262756,2948.0,7100.0,14864.0,341.0,289.0,202.0,-0.2683882500011065,-0.8915923244067876,0.35781985295576013,-0.07068116546126975
-188.96631932258606,2952.0,6916.0,14548.0,351.0,142.0,199.0,-0.2441877834481799,-0.8920832310641987,0.3675487854663429,-0.0973022382627471
-188.9740970134735,2968.0,7040.0,14768.0,377.0,103.0,3.0,-0.21805916256763688,-0.8986093878088885,0.36216266485500526,-0.11742901663199151
-188.98190712928772,3020.0,7140.0,14592.0,407.0,-33.0,186.0,-0.18311694920856875,-0.9001112257774586,0.3729124228124484,-0.13116512133222444
-188.98968768119812,3100.0,6948.0,14376.0,419.0,-82.0,163.0,-0.1456120474206411,-0.90171438170976,0.381919363815376,-0.14087549469873256
-188.99746322631836,3100.0,7016.0,14412.0,469.0,-127.0,133.0,-0.10278982517743653,-0.9039231860694291,0.38785087480872654,-0.14808384258989926
-189.0052466392517,3136.0,7088.0,14136.0,490.0,-113.0,95.0,-0.059070742284980375,-0.9056570314305658,0.38962951383400407,-0.1564762946128088
-189.0130376815796,3248.0,7132.0,14268.0,545.0,-75.0,48.0,-0.012813801931944105,-0.9068043511814823,0.38591032474724385,-0.16915938168442377
-189.02081847190857,3176.0,7296.0,14552.0,581.0,-20.0,2.0,0.033793306978112725,-0.9065152196564039,0.3770182594238489,-0.18693689040902634
-189.02860236167908,3172.0,7388.0,14472.0,637.0,-34.0,20.0,0.08547719131583041,-0.9031324932202399,0.3675270272664016,-0.20486393944096692
-189.0363802909851,3152.0,7488.0,14372.0,649.0,-105.0,-44.0,0.13896617304446826,-0.9000919794349186,0.3510782198053183,-0.21740955564241796
-189.04416799545288,3208.0,7544.0,14384.0,667.0,-177.0,-149.0,0.19358302143299788,-0.898221579959802,0.32393924769974647,-0.22535964791219995
-189.05194067955017,3088.0,7588.0,14232.0,683.0,-355.0,-188.0,0.2528610563408759,-0.8968349457550905,0.28905980200504233,-0.21952857928626573
-189.05973076820374,3156.0,7600.0,14188.0,685.0,-498.0,-251.0,0.31331289254049827,-0.8949307165955154,0.24455033480200808,-0.20280329782814036
-189.0675072669983,3168.0,7748.0,14328.0,662.0,-571.0,-201.0,0.3725291242230533,-0.8884964379282277,0.20088161346602545,-0.1773209202709661
-189.07529497146606,3308.0,7684.0,14196.0,631.0,-675.0,-146.0,0.4296353130169047,-0.8780499093237982,0.1573007866102353,-0.14035069318367252
-189.08310651779175,3396.0,7928.0,14348.0,604.0,-1024.0,-139.0,0.4856740049781447,-0.8651245311785962,0.10028023484932144,-0.07499453940166569
-189.09089994430542,3376.0,7960.0,14324.0,548.0,-820.0,-36.0,0.5320701601656236,-0.844422239015394,0.0589762888806651,-0.01934487703296907
-189.09867668151855,3440.0,7876.0,14368.0,502.0,-838.0,33.0,0.5714166909422952,-0.8193415987457603,0.02154748591142682,0.04120698640031669
-189.10645985603333,3496.0,7852.0,14476.0,443.0,-836.0,167.0,0.6020167616199069,-0.7911035765687623,-0.00660335815748302,0.10810802712951757
-189.11423206329346,3596.0,7760.0,14384.0,370.0,-927.0,140.0,0.6233678572669371,-0.760003750012618,-0.042006170644195436,0.17900362041309795
-189.12204718589783,3804.0,7744.0,14580.0,321.0,-965.0,124.0,0.6367147056958451,-0.7249551253395726,-0.08095769800650911,0.2499605987511332
-189.12983655929565,3816.0,7608.0,14552.0,363.0,-996.0,119.0,0.6473219654326339,-0.6808659060536204,-0.1203445771587564,0.320800676106979
-189.1376142501831,3852.0,7504.0,14540.0,327.0,-1071.0,40.0,0.6513512755234062,-0.6297203200823785,-0.16851750603897425,0.3883242002602758
-189.14541506767273,3788.0,7496.0,14448.0,368.0,-1103.0,253.0,0.6433919927964536,-0.5719455545243527,-0.2037362776657127,0.466279482100766
-189.15319442749023,3592.0,7376.0,14364.0,379.0,-1160.0,-32.0,0.6394397792231236,-0.49992279047436494,-0.2535876450448851,0.5262007968370975
-189.16096878051758,3752.0,7388.0,14228.0,413.0,-1276.0,-56.0,0.6275705088660242,-0.41404919667987616,-0.3061384844493945,0.5839501241282652
-189.16877508163452,3776.0,7240.0,14120.0,478.0,-1322.0,-130.0,0.6115947238424841,-0.31447358954408056,-0.3561212608524191,0.6326420020961143
-189.1765570640564,3856.0,7252.0,13964.0,522.0,-1321.0,-235.0,0.5932490739163674,-0.20458667184059237,-0.4010066514182342,0.6673780753972196
-189.1843707561493,3944.0,7292.0,13928.0,553.0,-1322.0,-233.0,0.5659807362649154,-0.08991441688281143,-0.4377704905818131,0.6927757222863737
-189.19215631484985,3584.0,7264.0,13572.0,578.0,-1325.0,-313.0,0.5344670791595929,0.030594264618932564,-0.4666923110312131,0.7039937635315996
-189.19993543624878,3768.0,7320.0,13812.0,532.0,-1301.0,-166.0,0.48664845427604225,0.14113877601615513,-0.49034164327941826,0.7090967499019017
-189.20770645141602,3832.0,7276.0,13820.0,761.0,-1315.0,-97.0,0.423375123318442,0.25680367703770796,-0.4933843859747932,0.7151064424904051
-189.2154860496521,3796.0,7388.0,14060.0,755.0,-1536.0,-246.0,0.35177572224060655,0.3868131203307974,-0.4917684621969723,0.6962709463782593
-189.22324562072754,3744.0,7196.0,13920.0,455.0,-1261.0,29.0,0.27871838423903644,0.47293909184359695,-0.5002618800572782,0.669613865638169
-189.23103523254395,3640.0,7112.0,13944.0,405.0,-1253.0,176.0,0.19577423552243164,0.5446755748265469,-0.5108076485249782,0.6356701291561218
-189.2388677597046,3640.0,7192.0,13956.0,333.0,-1312.0,171.0,0.11124472487155,0.61120438638842,-0.5191284839348707,0.5869918452715431
-189.24664855003357,3524.0,7308.0,13928.0,276.0,-1344.0,190.0,0.02575620435962037,0.6692523897327832,-0.5242934100320943,0.525884280969552
-189.25442147254944,3572.0,7120.0,13960.0,296.0,-1410.0,238.0,-0.0664072589095371,0.7179345201275382,-0.5234985654172025,0.4539926792135463
-189.26220703125,3400.0,7268.0,13956.0,281.0,-1477.0,167.0,-0.15673886191963787,0.760601837482134,-0.5098093730977983,0.3701515596138538
-189.2700231075287,3408.0,6956.0,14016.0,287.0,-1562.0,105.0,-0.24632002799321331,0.7948371779456921,-0.4814892136778269,0.2751880111426709
-189.27780103683472,3608.0,7004.0,14024.0,303.0,-1613.0,46.0,-0.332843524022551,0.8167892176461045,-0.4382257332412803,0.17328811032051916
-189.28560256958008,3456.0,6984.0,13932.0,310.0,-1630.0,-104.0,-0.41143361765455905,0.8277419457266281,-0.3748227667186773,0.0712288080606024
-189.2934112548828,3424.0,6976.0,13964.0,319.0,-1662.0,-162.0,-0.48259974083490803,0.8228945072269941,-0.2981654691164503,-0.03224086146940774
-189.301203250885,3288.0,6924.0,13956.0,345.0,-1730.0,-225.0,-0.5465384230130826,0.7997429367826272,-0.20759525587891808,-0.13642286088936176
-189.3089828491211,3292.0,7032.0,14004.0,350.0,-1724.0,-232.0,-0.597898262340625,0.7576398071509953,-0.11197090271955032,-0.23656311516048464
-189.31676578521729,3200.0,6684.0,13984.0,345.0,-1759.0,-277.0,-0.6357686443663082,0.6972639450058336,-0.008851381024421272,-0.33097261954652585
-189.32454109191895,3212.0,7024.0,13944.0,382.0,-1817.0,-257.0,-0.6591473637607207,0.6154886184249104,0.09532455192560965,-0.4214400826177652
-189.33233785629272,3172.0,7052.0,13980.0,341.0,-1956.0,-312.0,-0.6626177998621137,0.5133515128948137,0.20887731435774648,-0.5037639755492578
-189.34012269973755,3248.0,6944.0,13960.0,361.0,-1996.0,-336.0,-0.6469131570600244,0.39216217052301316,0.31837397700584263,-0.5712706976546184
-189.3479073047638,3368.0,6680.0,13828.0,359.0,-2085.0,-361.0,-0.6087484447140648,0.25332568264451577,0.4231213251449565,-0.6214658267181498
-189.35568261146545,3388.0,6772.0,14156.0,376.0,-2175.0,-421.0,-0.5491926262945303,0.09780972478014435,0.5176218112802196,-0.6487591058699165
-189.3634967803955,3472.0,6628.0,13840.0,424.0,-2332.0,-259.0,-0.4525140464190714,-0.0649842746925778,0.5947312527246064,-0.6612887560428792
-189.37127208709717,3728.0,6480.0,13836.0,495.0,-2425.0,-586.0,-0.3492352291910264,-0.24893194603994007,0.6428372088201432,-0.6346872961458955
-189.37905263900757,3800.0,6408.0,14088.0,576.0,-2560.0,-630.0,-0.2219864801651873,-0.43187339362577687,0.6571875542542273,-0.5764649972334596
-189.38685512542725,4040.0,6448.0,14284.0,698.0,-2607.0,-657.0,-0.07702031042965775,-0.5969828539294727,0.6295044559390203,-0.49132828521107874
-189.39463424682617,4112.0,6288.0,14360.0,909.0,-2763.0,-718.0,0.08836233788863186,-0.7362911636786806,0.5530369107195094,-0.37975991746545723
-189.40241146087646,4312.0,6400.0,14196.0,1152.0,-2891.0,-779.0,0.2658942330150243,-0.8289618257811416,0.42606304242007964,-0.24615611333195356
-189.41021466255188,4728.0,6520.0,14280.0,1418.0,-2971.0,-1014.0,0.4378530327296373,-0.8595800418337917,0.24251153913306991,-0.10293214657134744
-189.41802334785461,4788.0,6700.0,14068.0,1660.0,-3040.0,-702.0,0.5929180807015076,-0.8010350726416683,0.05609756695182621,0.06036575980871253
-189.4258041381836,5000.0,6720.0,14076.0,1914.0,-3127.0,-615.0,0.7089667848791628,-0.6548305447874556,-0.13191394434814652,0.22618967005144464
-189.43358325958252,5248.0,6696.0,14220.0,2148.0,-3241.0,-570.0,0.7621559612182258,-0.4268124585088112,-0.30520465675667696,0.3792090894680997
-189.44139885902405,5456.0,6776.0,14296.0,2348.0,-3257.0,-439.0,0.733232156622719,-0.14234126129126418,-0.43426696370474005,0.5035094577692404
-189.44919276237488,5620.0,6920.0,14208.0,2547.0,-3239.0,-254.0,0.6146665302708204,0.1625803688358117,-0.5010974297952652,0.5870724368309429
-189.45697164535522,5736.0,7028.0,14324.0,2746.0,-3207.0,-247.0,0.4204679420141347,0.45509728257525467,-0.49603790404530895,0.6083087792242964
-189.46479034423828,5988.0,6868.0,14296.0,2909.0,-3315.0,205.0,0.14052407075315257,0.6802368015042426,-0.4397393670552778,0.5693506551151619
-189.47256779670715,5944.0,6876.0,14452.0,3055.0,-3566.0,407.0,-0.1830375726323946,0.8131716126205599,-0.32899816331775206,0.4438573914744065
-189.480393409729,6408.0,6792.0,14512.0,3153.0,-3255.0,585.0,-0.4857691780757869,0.8100373594209209,-0.1823412712706857,0.2731655958669514
-189.48817420005798,6640.0,6836.0,14352.0,3285.0,-3256.0,659.0,-0.72745519102338,0.6832178663667859,-0.011572244981032804,0.06235683824933109
-189.4959638118744,6984.0,6904.0,14680.0,3322.0,-3198.0,708.0,-0.8638351661869361,0.4527525959555353,0.15504137987915287,-0.15737237063563797
-189.503746509552,7308.0,6928.0,14660.0,3583.0,-3099.0,742.0,-0.8794274553752677,0.13823890571139158,0.28613326874218087,-0.35443632460403046
-189.5115351676941,7500.0,7092.0,14828.0,3269.0,-2910.0,853.0,-0.7640277068688627,-0.1692860423495465,0.370880227174853,-0.5000517534146482
-189.51931309700012,7896.0,7204.0,14948.0,3289.0,-2816.0,812.0,-0.5497123070271531,-0.4530167153003275,0.398442936752676,-0.5777849611345816
-189.5270972251892,8116.0,7380.0,14880.0,3284.0,-2278.0,892.0,-0.27851501435342024,-0.653909410583944,0.35523432798643484,-0.6071576745372647
-189.53487873077393,8324.0,7452.0,14948.0,3293.0,-1847.0,974.0,0.017274440788088683,-0.7588609170535996,0.2661286441542533,-0.594144129841108
-189.54266619682312,8560.0,7576.0,15084.0,3234.0,-1376.0,829.0,0.2922349803337147,-0.7687603726428154,0.1441812757697324,-0.5502889835721274
-189.55044627189636,8672.0,7792.0,14604.0,3137.0,-824.0,746.0,0.5271395688302024,-0.6903263131318698,0.021574864963317935,-0.4950838126752706
-189.55823016166687,8820.0,8020.0,14480.0,2982.0,-425.0,617.0,0.7092018155606707,-0.5507246530737965,-0.08668344267217398,-0.4315334541709307
-189.56603908538818,8712.0,8432.0,14412.0,2728.0,-179.0,466.0,0.8325050779121094,-0.3809517353926951,-0.1732085693366343,-0.3630562794667008
-189.57381415367126,8488.0,8840.0,13952.0,2421.0,-188.0,208.0,0.8966852488027827,-0.20922270832716444,-0.2511468793970769,-0.2985074000235977
-189.58162093162537,8368.0,9116.0,13440.0,2018.0,-375.0,-166.0,0.9064327233026526,-0.05624098387763905,-0.33087027222698834,-0.256401117031597
-189.58943128585815,8140.0,9532.0,13108.0,1760.0,-724.0,-677.0,0.865617145017554,0.08532005624506117,-0.4242947876257484,-0.2517963054685661
-189.59720301628113,7912.0,9676.0,12980.0,1036.0,-1181.0,-990.0,0.7822357890512688,0.17224898791004406,-0.5219216431346166,-0.29331766895120087
-189.60498023033142,7676.0,9640.0,12776.0,527.0,-1862.0,-1353.0,0.6414753856736156,0.2176392288917116,-0.6288112591300626,-0.3817576404128306
-189.6127905845642,7948.0,9452.0,12352.0,222.0,-2263.0,-1475.0,0.45155529893397145,0.22924868475768004,-0.7150408479858942,-0.4819330225800459
-189.62056469917297,8460.0,9060.0,12284.0,78.0,-2527.0,-1471.0,0.22334157789855535,0.2110021018974895,-0.7639032022063744,-0.567493216025947
-189.62833881378174,9260.0,8556.0,12476.0,214.0,-2483.0,-1205.0,-0.0056006599443442166,0.1676317854059674,-0.7782613986496082,-0.6051259476354912
-189.63612174987793,10512.0,8424.0,12912.0,464.0,-2129.0,-770.0,-0.1937181232698237,0.1050652584109736,-0.7748059129271023,-0.5925456754420304
-189.6439025402069,12264.0,8032.0,13832.0,928.0,-1773.0,-160.0,-0.3254089836698925,0.008285094008177195,-0.7794295715912503,-0.5352848713472887
-189.65167808532715,13380.0,8120.0,14620.0,1314.0,-681.0,227.0,-0.35900395734769386,-0.07572873196040036,-0.8146646538764073,-0.4491133704186487
-189.65948843955994,14072.0,8472.0,15456.0,1789.0,38.0,330.0,-0.32741821803492344,-0.1519195902293611,-0.8728252759634152,-0.32847189566653434
-189.6672694683075,14264.0,9488.0,16376.0,1523.0,1215.0,48.0,-0.21024016367445594,-0.16197603551393555,-0.9370941063620672,-0.22675421345325641
-189.6750648021698,13596.0,10704.0,16020.0,1107.0,1733.0,-237.0,-0.056575674049928776,-0.12657339779570917,-0.9783045056613385,-0.15394369840616776
-189.68286395072937,12420.0,11732.0,15452.0,765.0,1893.0,-433.0,0.10601575483855438,-0.06684309694970482,-0.9864658111932124,-0.1057254154075606
-189.69065809249878,11160.0,12104.0,14712.0,-233.0,1686.0,-641.0,0.24096551680715292,0.0017396220700044316,-0.9603992742493246,-0.1398779019226615
-189.69843673706055,9804.0,12020.0,13940.0,-515.0,1290.0,-793.0,0.3363190345121169,0.07244527283938605,-0.9179094386555706,-0.1976953512227324
-189.706369638443,8924.0,11684.0,12676.0,-1364.0,997.0,-1121.0,0.399358370647221,0.1372995618672879,-0.8448118115574393,-0.32856464380405487
-189.71416759490967,8476.0,11228.0,11636.0,-1730.0,155.0,-1033.0,0.3958730191331451,0.15520726037874719,-0.7654942277508003,-0.4829221949013508
-189.7219626903534,8136.0,10580.0,10956.0,-1925.0,-93.0,-1300.0,0.35382300751728596,0.16816279515309657,-0.6564506376923476,-0.6446728735963926
-189.72973370552063,8432.0,10092.0,10844.0,-2058.0,-79.0,-1641.0,0.2799772240111105,0.18914360448718534,-0.505687524515779,-0.7937994573352459
-189.73754835128784,9032.0,9528.0,11268.0,-2163.0,195.0,-1566.0,0.2102657439618274,0.2129607051733077,-0.3166188367432433,-0.9001047534524091
-189.74533677101135,9464.0,8880.0,12276.0,-2053.0,257.0,-1409.0,0.14161437818289282,0.22874219478872454,-0.12161928433505687,-0.9554219622203264
-189.75312733650208,9816.0,8032.0,12940.0,-2462.0,721.0,-1407.0,0.07864465842825819,0.2646187086286517,0.11680680363037454,-0.9540168380956715
-189.76093649864197,10228.0,7388.0,13544.0,-2512.0,696.0,-1380.0,0.014215745302343851,0.2818707235141118,0.35104755542521543,-0.8928115263823101
-189.7687327861786,9936.0,6784.0,13664.0,-2533.0,584.0,-1484.0,-0.05517432037511611,0.2695847867062661,0.5665662467147161,-0.776712640061484
-189.7765121459961,10012.0,6404.0,13448.0,-2521.0,434.0,-1490.0,-0.11461718800462457,0.22982925361887135,0.7459050525685172,-0.6145462284870542
-189.78431010246277,10080.0,6192.0,12884.0,-2576.0,305.0,-1595.0,-0.16277137704032055,0.1624171677146843,0.8823760084945795,-0.41053467829296936
-189.79212093353271,9996.0,6084.0,12756.0,-2634.0,308.0,-1607.0,-0.19962917309574135,0.08404228512211176,0.9605942969957728,-0.17419438607418147
-189.800461769104,9592.0,6012.0,12240.0,-2572.0,268.0,-1540.0,-0.2192856283912551,0.0036595216654194255,0.9732818738115426,0.06799128761926003
-189.80837416648865,9304.0,5912.0,11636.0,-2477.0,357.0,-1556.0,-0.23211501100295656,-0.08062271873285322,0.9221850765903308,0.2986591425108334
-189.81620693206787,8900.0,6164.0,11008.0,-2412.0,458.0,-1645.0,-0.23545165463490542,-0.1705125492282486,0.8118087261002512,0.5064134487875065
-189.82397389411926,8600.0,6304.0,10928.0,-2331.0,610.0,-1716.0,-0.23006754925188225,-0.26250294477240216,0.6493110289731588,0.6756895103676447
-189.83172869682312,8204.0,6288.0,10332.0,-2260.0,628.0,-1786.0,-0.2055234137143821,-0.3440497940671392,0.4478185868056916,0.7992799127520341
-189.83952116966248,7960.0,6324.0,10052.0,-2249.0,698.0,-1965.0,-0.1578180223051039,-0.4144303388116873,0.21191084594821538,0.8708815990004883
-189.84729647636414,7848.0,6084.0,9960.0,-2224.0,707.0,-1809.0,-0.11032435253577157,-0.45590759645504725,-0.03124031729983632,0.8826102442795178
-189.855078458786,7428.0,5784.0,9852.0,-2216.0,701.0,-1963.0,-0.0439025613428525,-0.46688859139294664,-0.2771375532846377,0.8386193325305896
-189.86284971237183,7316.0,5596.0,9740.0,-2055.0,673.0,-1831.0,0.02198559934179069,-0.45031642777902403,-0.4899382603428305,0.7461181202371124
-189.8706283569336,7316.0,5228.0,10212.0,-1892.0,612.0,-1754.0,0.08577634543369013,-0.40794253950881904,-0.6633603030108206,0.6214325477576211
-189.87841415405273,7328.0,4968.0,10348.0,-1687.0,674.0,-1116.0,0.12319560284485165,-0.38584302916240515,-0.7762212448201105,0.48314447050172393
-189.88622379302979,7356.0,4744.0,10604.0,-1419.0,653.0,-704.0,0.14774702751635688,-0.3767203392618041,-0.8433697010268296,0.3535253162596254
-189.89406299591064,7528.0,4644.0,10904.0,-1100.0,683.0,-294.0,0.16984784766961852,-0.3877220731514395,-0.8723335456907519,0.24465789931197487
-189.90184998512268,7688.0,4480.0,11124.0,-831.0,856.0,164.0,0.20234706844384745,-0.42843334741830114,-0.867059099943831,0.1539774266466479
-189.9096395969391,7992.0,4508.0,11072.0,-583.0,1018.0,511.0,0.2492375807944919,-0.4880370650540104,-0.8326200678480771,0.08027623602187935
-189.9174201488495,8112.0,4824.0,11028.0,-343.0,1149.0,852.0,0.30968663762068055,-0.5608490380001642,-0.7674198129996483,0.024685495114997714
-189.92520904541016,8020.0,5024.0,11404.0,-149.0,1261.0,1043.0,0.38078462317444417,-0.630977248546719,-0.6756634361747026,-0.01870036328261752
-189.93298625946045,8056.0,5316.0,11288.0,-249.0,1372.0,1102.0,0.44453419970064867,-0.6936711171689893,-0.5622208329428418,-0.07153643482231649
-189.9407799243927,7960.0,5612.0,11344.0,174.0,1441.0,1077.0,0.5260680796640601,-0.7217958698005101,-0.4367711570758162,-0.10721032713384589
-189.94855117797852,7804.0,6056.0,11308.0,251.0,1484.0,980.0,0.6003578868849533,-0.7248240341805707,-0.30550354002461005,-0.14445800137641363
-189.95633220672607,7872.0,6512.0,11568.0,304.0,1550.0,1021.0,0.6649569981460385,-0.7070286046138815,-0.16137249907742623,-0.1786103564070764
-189.96413326263428,8012.0,6744.0,11756.0,311.0,1518.0,525.0,0.7066056730024158,-0.6658555036857782,-0.045294647603758106,-0.23514520192981433
-189.9719226360321,8032.0,7136.0,11936.0,247.0,1604.0,506.0,0.7297540876140464,-0.6128864893418797,0.07706771408453916,-0.29306942904124367
-189.97969913482666,8104.0,7544.0,12360.0,153.0,1693.0,38.0,0.7196914977168977,-0.5534119495424448,0.18095697397697497,-0.378198275758544
-189.98752164840698,8264.0,7876.0,12704.0,2.0,1548.0,-197.0,0.6825782103320529,-0.5005808881186959,0.2660513604840863,-0.46121842419265524
-189.99530506134033,8236.0,8040.0,12940.0,-30.0,2010.0,-411.0,0.608402015469515,-0.42416586009493834,0.36315344156749674,-0.5639591196002032
-190.00308799743652,8364.0,8244.0,13316.0,-177.0,2075.0,-616.0,0.49692848798412204,-0.34475401621166435,0.45108331660943507,-0.6563006838426835
-190.0108597278595,8128.0,8256.0,13588.0,-301.0,2537.0,-905.0,0.32711574487470746,-0.24141492894740896,0.5361977085813617,-0.7397338297309918
-190.01862859725952,7680.0,8140.0,13816.0,-370.0,2548.0,-1120.0,0.12406167053945369,-0.13585611131698117,0.5915997373964723,-0.7849595974527689
-190.02639961242676,7284.0,8096.0,13820.0,-378.0,2333.0,-1330.0,-0.0895874380384369,-0.04749386042357811,0.6100072780461252,-0.7858813809338736
-190.03420996665955,6824.0,7960.0,13344.0,-350.0,2130.0,-1576.0,-0.3044533153307058,0.01693332374002373,0.5947329856215006,-0.7438508702320602
-190.04198384284973,6356.0,7716.0,13392.0,-502.0,1797.0,-1674.0,-0.4940872104094894,0.05858636719770335,0.5684703298937283,-0.6551999314093835
-190.04975962638855,6172.0,7536.0,13348.0,-182.0,1458.0,-1865.0,-0.6582716462458245,0.055984781787540586,0.5144696646523873,-0.5466855660335963
-190.05756044387817,5768.0,7248.0,13400.0,-17.0,1061.0,-1886.0,-0.7820967272161145,0.022371809378544036,0.4553296572416633,-0.42485187378563155
-190.06533980369568,5496.0,6768.0,13264.0,122.0,671.0,-1750.0,-0.8624733355831905,-0.03037302810973485,0.40286411300436836,-0.30482409849723824
-190.07310938835144,5264.0,6392.0,13096.0,285.0,505.0,-1551.0,-0.9113441595142783,-0.09213640633371369,0.34932339881631497,-0.19732173875815123
-190.08092069625854,5088.0,6140.0,12804.0,283.0,-117.0,-1223.0,-0.9210697579144902,-0.15318777622521756,0.3416313619315427,-0.10701410568385039
-190.08873462677002,4992.0,5644.0,13032.0,533.0,-260.0,-929.0,-0.9107441444579956,-0.22520303686605558,0.3432931961380769,-0.044480074270214234
-190.09651851654053,4796.0,5280.0,12776.0,1059.0,-945.0,-652.0,-0.8563418580537201,-0.32950701030286356,0.39758152167682437,-0.005717160791132309
-190.10431480407715,4692.0,5092.0,12704.0,1259.0,-1402.0,-372.0,-0.7611831007198407,-0.4311166139387016,0.4841460002449531,0.018477088822950898
-190.11212515830994,4976.0,4936.0,12704.0,1443.0,-1787.0,-284.0,-0.6185530640718921,-0.5254244273821179,0.5826604450153685,0.04275609724869844
-190.11991381645203,5128.0,4964.0,12864.0,1570.0,-2014.0,-176.0,-0.43291167107442735,-0.5968677162462824,0.672561205183615,0.06322847169161525
-190.12769532203674,5372.0,4876.0,12944.0,1633.0,-1887.0,-96.0,-0.23119130779010666,-0.6387774598870801,0.7307037610284595,0.06771963940670234
-190.13551211357117,5536.0,5304.0,13024.0,1754.0,-1746.0,40.0,-0.02182696175703876,-0.6463825974835143,0.7609793041500889,0.05122128528423302
-190.14329409599304,5748.0,5588.0,12856.0,1854.0,-1585.0,195.0,0.18302844378510133,-0.6159817961549621,0.7660197204627333,0.016757190501594462
-190.15107607841492,6008.0,6048.0,12884.0,1884.0,-1532.0,184.0,0.3780461071568783,-0.558849790266894,0.7377137638433384,-0.02337638591129468
-190.15885734558105,5904.0,6244.0,12992.0,1842.0,-1451.0,110.0,0.5501578886361955,-0.4838754619189508,0.6773537468143455,-0.06620224014829958
-190.1666407585144,6144.0,6672.0,13160.0,1856.0,-1511.0,44.0,0.703010086452936,-0.39236980624147794,0.5832898386985168,-0.10768341360914954
-190.17441248893738,6060.0,6844.0,13288.0,1935.0,-904.0,0.0,0.8015659920258954,-0.2772888295818303,0.5009215822675694,-0.1722801028419576
-190.18222856521606,6028.0,7164.0,13272.0,1907.0,-522.0,-237.0,0.8542484780693379,-0.15959812956547548,0.42351233772435076,-0.25578364793449393
-190.1900668144226,5808.0,7452.0,13448.0,1846.0,-98.0,-577.0,0.8586004282198966,-0.04474001668488584,0.3616471750678006,-0.36057586765218536
-190.1978600025177,5716.0,8060.0,13692.0,1799.0,34.0,-924.0,0.8228188089448182,0.06112474792065534,0.29911871776544496,-0.4793338768756317
-190.20563626289368,5824.0,9404.0,14052.0,1715.0,565.0,-1040.0,0.7432911873311445,0.1779185827015133,0.26882488932795784,-0.5861709372215186
-190.2133948802948,6248.0,10532.0,13936.0,1606.0,688.0,-1493.0,0.6136914744509815,0.27677390962860976,0.24925136323795108,-0.6961700475164796
-190.22116947174072,6428.0,12056.0,14996.0,1317.0,446.0,-1243.0,0.4902889666140087,0.34282652546226283,0.22000595753795574,-0.7705089754855858
-190.22895741462708,6900.0,13332.0,15400.0,924.0,-140.0,-928.0,0.4003773278386936,0.3527387104193513,0.1782465998896843,-0.8267415237861269
-190.23676705360413,7396.0,13496.0,15760.0,411.0,-838.0,-530.0,0.3610210167260705,0.2969824093686225,0.13481425837584118,-0.8736649184591619
-190.24453139305115,7560.0,12680.0,15184.0,-40.0,-1458.0,-186.0,0.36213092839093425,0.1807462037631757,0.09572147856006959,-0.9094115674820695
-190.25230622291565,7672.0,10764.0,14196.0,-341.0,-1838.0,27.0,0.3800239960966128,0.02386087439958153,0.0631615393936377,-0.9225091007708678
-190.26011490821838,7388.0,8860.0,12972.0,-412.0,-1994.0,90.0,0.39295007324455516,-0.14761841046749338,0.02924238765514373,-0.9071625695498994
-190.26788806915283,6948.0,7224.0,11936.0,-301.0,-2082.0,145.0,0.39911769245724077,-0.31706629966734756,-0.016504810440100565,-0.8601753428314481
-190.27565240859985,6604.0,6352.0,11484.0,-25.0,-2080.0,20.0,0.39048672904172643,-0.46635588713299925,-0.08539467620555215,-0.7891388029075973
-190.28341031074524,6520.0,5496.0,11332.0,306.0,-2027.0,-96.0,0.37521551828761707,-0.5853363867698609,-0.17679036363313042,-0.696663330803211
-190.29120779037476,6520.0,5436.0,11360.0,643.0,-1883.0,-167.0,0.36337089764013014,-0.6660201387009999,-0.28190339018418314,-0.5872897446708661
-190.29901576042175,6704.0,5484.0,11632.0,883.0,-1641.0,-222.0,0.3581840728824608,-0.7071424239637163,-0.38698844505428126,-0.4710559473762342
-190.30682039260864,7040.0,5892.0,11876.0,1174.0,-1357.0,-113.0,0.37559373060434087,-0.7136043652382039,-0.47881136404105523,-0.3470415495424691
-190.31460571289062,7380.0,6568.0,12072.0,1196.0,-1054.0,28.0,0.40304070092524946,-0.7006789115666595,-0.5426290029121149,-0.22838787507669667
-190.32238960266113,7724.0,6924.0,12260.0,1097.0,-466.0,371.0,0.45282615574614654,-0.6848428730557864,-0.5549202329199242,-0.13417245243700307
-190.33798241615295,7836.0,8528.0,12348.0,810.0,359.0,1279.0,0.5288135056560498,-0.7040615698242578,-0.46945268309761407,-0.06532809858561596
-190.3457474708557,7828.0,9060.0,12384.0,727.0,621.0,1253.0,0.6004865985530735,-0.7115495591022211,-0.3645047806202152,-0.015790338964177107
-190.35355854034424,7444.0,9248.0,12300.0,598.0,799.0,1436.0,0.6574791422460837,-0.7164323588294941,-0.23159110952496378,0.028485272025328804
-190.3613748550415,7620.0,9520.0,12640.0,500.0,974.0,1458.0,0.6961219544392081,-0.7106211022158119,-0.08225692637323741,0.060544790832486636
-190.36915016174316,7456.0,9420.0,12648.0,429.0,1058.0,1439.0,0.7136837260827538,-0.6915730456893063,0.07260574044474224,0.08432477723139402
-190.37701606750488,7168.0,9244.0,12724.0,396.0,770.0,1373.0,0.715531823605826,-0.6572342918376489,0.20430385864085038,0.11965462124149133
-190.3848111629486,6972.0,9168.0,12764.0,306.0,991.0,1279.0,0.6949867579688017,-0.6192301070316989,0.3392587454247618,0.13583440082078502
-190.3926339149475,6820.0,9028.0,12732.0,334.0,742.0,1110.0,0.6731325042853155,-0.5707264871343006,0.4450056417430615,0.15209828195863048
-190.4004261493683,6696.0,8868.0,12524.0,336.0,474.0,995.0,0.655004609559869,-0.5159623579818587,0.5242179894456032,0.17305289983913394
-190.40820837020874,6876.0,8580.0,12528.0,342.0,284.0,826.0,0.642838832873929,-0.46129768520112735,0.5808533821364804,0.19123814744443196
-190.4159882068634,6908.0,8476.0,12340.0,342.0,124.0,732.0,0.6365362957962358,-0.40596930854839636,0.6213875435535453,0.2094945950788103
-190.4237768650055,6908.0,8476.0,12124.0,401.0,12.0,647.0,0.6369071585957291,-0.34798258762966305,0.6508480759283845,0.2228321612703128
-190.4315631389618,6736.0,8508.0,12160.0,407.0,27.0,577.0,0.6353524523370876,-0.29247629091233096,0.6764701594708037,0.23059272301822528
-190.43934559822083,6752.0,8588.0,12212.0,391.0,255.0,442.0,0.6204515092527456,-0.24936435248038724,0.7086129552635746,0.22522216589547858
-190.44713139533997,6764.0,8740.0,12004.0,359.0,26.0,218.0,0.6219964113403249,-0.2167368381592792,0.7212978125879582,0.2141846699003051
-190.4549114704132,6856.0,8852.0,11964.0,252.0,70.0,42.0,0.6214504010491863,-0.20160193694786183,0.7303683279152423,0.1992941635697567
-190.46267580986023,6884.0,8940.0,12184.0,175.0,184.0,-127.0,0.6148671028225623,-0.20328399778875347,0.7408916155737179,0.1780271779312836
-190.47045922279358,6868.0,8716.0,12248.0,90.0,144.0,-209.0,0.6102787731890326,-0.2140937387405713,0.7460662734742044,0.15845758300342389
-190.47824454307556,6704.0,8840.0,12340.0,64.0,223.0,-322.0,0.601094566474365,-0.23454632465873146,0.7523276055130138,0.13295306588090194
-190.4860770702362,6728.0,8716.0,12436.0,-29.0,-154.0,-469.0,0.6155329588638205,-0.26478688655047455,0.7335924590809209,0.11335424669090982
-190.49386620521545,6728.0,8432.0,12460.0,-110.0,-376.0,-481.0,0.6409403614607909,-0.2972960092630486,0.7001226551204727,0.10314457675435783
-190.50165343284607,6788.0,8288.0,12468.0,-146.0,-485.0,-510.0,0.6701224521270768,-0.33156497576374944,0.6571064902760027,0.09597721833399801
-190.50944113731384,7164.0,8060.0,12652.0,-179.0,-559.0,-497.0,0.6996557779044315,-0.36498635605084595,0.6071113205949863,0.09318045260182868
-190.51722288131714,7080.0,8176.0,12576.0,-168.0,-620.0,-494.0,0.7294217396836666,-0.39533628049254405,0.5507138796444487,0.09147335005417324
-190.5250096321106,7224.0,7908.0,12616.0,-142.0,-648.0,-406.0,0.7572418573557422,-0.4176928443475145,0.4931167705929009,0.09462192034268425
-190.5327913761139,7380.0,7860.0,12340.0,-99.0,-710.0,-335.0,0.7851642958928742,-0.43168786005597515,0.43205952017500227,0.10240698687827281
-190.54057335853577,7668.0,7812.0,12616.0,-65.0,-680.0,-228.0,0.80888112121123,-0.43771148224463413,0.3754672801484615,0.11464864411403042
-190.54834961891174,7656.0,7768.0,12616.0,-33.0,-676.0,-129.0,0.8296495849875718,-0.43661371911345914,0.32181647854453593,0.13222776013022897
-190.55613040924072,7500.0,7776.0,12292.0,33.0,-653.0,-50.0,0.848522542871433,-0.4272744992066194,0.2724716026504762,0.15233260424416847
-190.5638976097107,7672.0,7928.0,12508.0,86.0,-637.0,27.0,0.8652425404421265,-0.41101029352482726,0.2269949005806415,0.1757816825959836
-190.57167077064514,7720.0,8020.0,12416.0,117.0,-524.0,55.0,0.8780901831245072,-0.39245606815208417,0.19088352610495812,0.19621249790141734
-190.57947897911072,7660.0,8040.0,12572.0,141.0,-431.0,33.0,0.888921965336383,-0.373253721627427,0.16117225687104822,0.2110045081245192
-190.58726716041565,7644.0,8064.0,12656.0,105.0,-292.0,106.0,0.8942184214337184,-0.3579063475850396,0.14374700577370436,0.22718551771189202
-190.59503960609436,7548.0,8184.0,12548.0,90.0,-230.0,168.0,0.8963650993812654,-0.3439002688234906,0.13268658606589614,0.24628537023648475
-190.60284876823425,7468.0,8212.0,12512.0,86.0,-180.0,166.0,0.8973165352558993,-0.3310898578006714,0.12530765295516127,0.26362953880160783
-190.61062264442444,7400.0,8176.0,12428.0,72.0,-170.0,216.0,0.8960930457834169,-0.3188658261827925,0.1197600943377392,0.2846038615261218
-190.61839318275452,7364.0,8168.0,12572.0,55.0,-170.0,275.0,0.8922842842824167,-0.3071207309833311,0.11534252204873717,0.31016401343533756
-190.6261920928955,7348.0,8068.0,12496.0,24.0,-302.0,367.0,0.8853455439420889,-0.29290143705530675,0.10212881255248037,0.34632603373041887
-190.63396859169006,7188.0,8096.0,12360.0,54.0,-368.0,363.0,0.8782015401862951,-0.2738484206493294,0.08443069422820354,0.3829367509059829
-190.641752243042,7296.0,8008.0,12304.0,44.0,-507.0,375.0,0.8691984165529475,-0.25013479873709343,0.055834690584000604,0.4228583479724525
-190.64956307411194,7436.0,7944.0,12308.0,91.0,-603.0,367.0,0.8589803135207439,-0.21849913101040158,0.02134309960546894,0.4625531567622634
-190.65738105773926,7412.0,7920.0,12416.0,144.0,-612.0,385.0,0.8456247439812554,-0.1816182748931475,-0.011420948914197229,0.5017999168168252
-190.66516184806824,7504.0,7960.0,12356.0,171.0,-622.0,481.0,0.8246608275933188,-0.1415868782935814,-0.04215377802336249,0.5459951779334121
-190.6729507446289,7668.0,7976.0,12300.0,236.0,-586.0,258.0,0.811722997603357,-0.09714138489667656,-0.06979523832392538,0.5716624451627751
-190.68075323104858,7740.0,7988.0,12292.0,279.0,-522.0,494.0,0.7845177840628782,-0.053899616307847044,-0.08846947173830585,0.6113917160227831
-190.6885507106781,7776.0,8064.0,12136.0,320.0,-499.0,543.0,0.7513740582596188,-0.009210925694137503,-0.10272867693689605,0.6517660641343048
-190.69633269309998,7876.0,7992.0,12424.0,335.0,-446.0,547.0,0.7148925365887879,0.033464848243640315,-0.11216616236905039,0.6893674760830241
-190.70412468910217,7824.0,8068.0,12412.0,354.0,-461.0,519.0,0.6765797806406245,0.07833708068855548,-0.12077955387237985,0.7221602326242204
-190.71189832687378,7796.0,8104.0,12396.0,318.0,-424.0,442.0,0.6409430252885023,0.11925905381820276,-0.1284376084482157,0.7473105761010695
-190.71969318389893,7780.0,8408.0,12652.0,302.0,-445.0,437.0,0.6032423739200671,0.16025777437886723,-0.1377623057120883,0.7690498236026734
-190.72749137878418,7736.0,8436.0,12516.0,298.0,-437.0,362.0,0.5686813933840773,0.20085437623550875,-0.1453972880133221,0.7842949834113183
-190.7352843284607,7648.0,8216.0,12476.0,260.0,-433.0,331.0,0.5352931077355293,0.23906994739224535,-0.15443593530858882,0.7952712687819607
-190.74305081367493,7636.0,8248.0,12292.0,268.0,-385.0,262.0,0.505851921370351,0.2746411163921016,-0.15884338670874668,0.8021563870790533
-190.7508544921875,7524.0,8256.0,12368.0,231.0,-366.0,6.0,0.4945622141328316,0.3102689982347044,-0.15857173559657015,0.7962388898793854
-190.75864672660828,7528.0,8212.0,12344.0,203.0,-389.0,208.0,0.46891550863832426,0.3429460844308603,-0.16644419390759563,0.7967449775470529
-190.76643252372742,7552.0,8340.0,12408.0,177.0,-391.0,193.0,0.44426284736554866,0.37428664875375645,-0.17547853638263688,0.7948253331923594
-190.7742166519165,7580.0,8280.0,12316.0,130.0,-372.0,121.0,0.4257765941020642,0.40301305124661646,-0.18444330890852867,0.788844368832415
-190.78205180168152,7532.0,8224.0,12376.0,67.0,-376.0,127.0,0.40850167286179406,0.4290480264461979,-0.19789264673716492,0.7809498541129887
-190.78985977172852,7432.0,8216.0,12528.0,7.0,-341.0,169.0,0.390745640811057,0.4493225449016404,-0.2155487546278861,0.7739288269657858
-190.7976791858673,7412.0,8188.0,12388.0,11.0,-328.0,130.0,0.37531438200928025,0.46912988101662395,-0.23076079498563357,0.7653794646395465
-190.80556106567383,7288.0,8116.0,12432.0,-8.0,-308.0,216.0,0.35494600724241426,0.48477049120232507,-0.2498907764749147,0.7593191046160296
-190.81338953971863,7400.0,8180.0,12420.0,31.0,-293.0,198.0,0.3340879986330822,0.5005318536055802,-0.26497088831993565,0.7534211976301491
-190.82117176055908,7180.0,8032.0,12064.0,-5.0,-366.0,213.0,0.31174751699017395,0.5191173286589781,-0.28490114703006447,0.7430760534140372
-190.8289520740509,7088.0,8120.0,12332.0,35.0,-424.0,144.0,0.2901769437762125,0.5435155684816527,-0.30029436397955617,0.7281562078845971
-190.8367645740509,7128.0,8020.0,12160.0,40.0,-763.0,66.0,0.26361511443224855,0.589921115080211,-0.31934074266307677,0.6931966816862208
-190.84454560279846,7420.0,8000.0,12296.0,41.0,-551.0,63.0,0.2421621607678375,0.62166202751873,-0.3322606269892728,0.6667058475716628
-190.85231065750122,7360.0,7992.0,12432.0,58.0,-766.0,-52.0,0.21943943002424615,0.66741804723161,-0.3413706112959021,0.624392178461294
-190.86019730567932,7360.0,7996.0,12388.0,84.0,-459.0,-46.0,0.2033088569328698,0.6947830623746037,-0.34252063280888845,0.5988502492528628
-190.868177652359,7632.0,8032.0,12420.0,77.0,-366.0,-101.0,0.19296593772223228,0.7178423466024632,-0.33858393822058264,0.5769119768927401
-190.8760154247284,7316.0,8188.0,12480.0,59.0,-316.0,-167.0,0.18834290771670778,0.739268463156152,-0.33022588433977074,0.5558416625331115
-190.88381147384644,7176.0,8172.0,12548.0,65.0,-313.0,-244.0,0.18694469272457545,0.762040858703209,-0.31620445075220616,0.5332543078620983
-190.89164066314697,7180.0,8128.0,12504.0,60.0,-354.0,-255.0,0.18500918527325735,0.7859093669001581,-0.301936797645517,0.506904565584774
-190.89946031570435,7200.0,8120.0,12784.0,42.0,-344.0,-333.0,0.187721429582986,0.8098270047978955,-0.2824821883136191,0.47869061037473704
-190.90724444389343,7088.0,8064.0,12668.0,36.0,-470.0,-382.0,0.18937333367774292,0.8382561071555914,-0.26125844220492694,0.4395548494611186
-190.91501784324646,7376.0,8036.0,12540.0,53.0,-763.0,-437.0,0.1844061345996682,0.8757486421296251,-0.2391134225757582,0.3766742153031364
-190.92282843589783,7172.0,8056.0,12588.0,80.0,-533.0,-453.0,0.1818019935710057,0.9022785718736706,-0.21000496400370117,0.32975646917842566
-190.9306035041809,7160.0,8024.0,12636.0,129.0,-484.0,-342.0,0.17245401798473586,0.9232019760401707,-0.18675080403643637,0.2882392414439592
-190.93838691711426,7312.0,7948.0,12632.0,168.0,-436.0,-262.0,0.15830535839040843,0.9399169932722026,-0.16777184103968984,0.25169042218006604
-190.9462022781372,7276.0,7904.0,12664.0,163.0,-419.0,-198.0,0.14308906062786708,0.953374809541414,-0.15358046644427423,0.2168295034981781
-190.95396161079407,7300.0,7992.0,12788.0,180.0,-376.0,-156.0,0.12599790676454803,0.964084080289655,-0.14176974193931863,0.1859240541012953
-190.96174550056458,7188.0,8036.0,12828.0,170.0,-364.0,-5.0,0.10727069185807692,0.9713103429644937,-0.14249775301649212,0.15730100668380315
