programtime,ax,ay,az,gx,gy,gz,q0,q1,q2,q3
-9087.658155202866,-2508.0,1604.0,-15952.0,-180.0,69.0,-22.0,0.9998577532616169,-0.015527954516122537,0.006298495767181202,-0.0019195890830609116
-9087.67375946045,-2516.0,984.0,-16080.0,180.0,-9.0,1318.0,0.9936513742594829,0.0009528147227832257,0.007543090726761902,0.11224589239091527
-9087.689381837845,-2584.0,1788.0,-16020.0,230.0,-140.0,1172.0,0.976877268945373,0.023061280838771094,-0.0021347719489712247,0.2125427521526681
-9087.704958438873,-2404.0,2044.0,-16072.0,361.0,21.0,512.0,0.9652047498914788,0.05347974700939767,0.0055675253054558475,0.25590762026307773
-9087.72052025795,-2072.0,1880.0,-16012.0,-120.0,44.0,-744.0,0.980223500126895,0.04218265165245092,0.010262752106970375,0.193073016285907
-9087.736091852188,-2084.0,1436.0,-15896.0,397.0,-62.0,892.0,0.9602790221057425,0.07791959861592301,0.008580199229370769,0.2678042494740455
-9087.751682758331,-2568.0,1624.0,-16192.0,115.0,-115.0,210.0,0.9544025774734612,0.09061594898762823,0.00042842066839375375,0.284436787980768
-9087.767293930054,-2336.0,1756.0,-16132.0,-60.0,-48.0,-664.0,0.9696934297977857,0.08690615693780329,0.000380504950628786,0.22834585021254747
-9087.782899141312,-1884.0,1060.0,-15900.0,-89.0,-133.0,310.0,0.9637329452266781,0.08227640664074395,-0.014817675143850585,0.2534360662935151
-9087.798497200012,-1860.0,1408.0,-16008.0,264.0,-214.0,861.0,0.9394374850532933,0.10804261282243,-0.032908757871088386,0.3235753685721894
-9087.814086675644,-2344.0,2264.0,-16356.0,-199.0,-21.0,-685.0,0.9587211133943403,0.09441170598103966,-0.033607752757194624,0.2661029414724257
-9087.829676389694,-2260.0,1452.0,-15912.0,-249.0,-244.0,-165.0,0.9633317706362159,0.0799898269867081,-0.058291077714500907,0.2493906123341695
-9087.845309972763,-2256.0,2080.0,-15740.0,-349.0,-110.0,-1118.0,0.9843569026651269,0.058743675431125124,-0.06690770531282769,0.1520329824154357
-9087.860893011093,-2312.0,1780.0,-16096.0,-173.0,-239.0,-1667.0,0.9951488158735384,0.05649933486454231,-0.0802770387455737,0.006500498103994815
-9087.876547336578,-2408.0,1140.0,-16028.0,-650.0,-512.0,-2190.0,0.9758387316398751,0.015685274814764522,-0.11201802317300374,-0.18693502740224402
-9087.892114639282,-2084.0,2300.0,-16224.0,-672.0,-592.0,-3038.0,0.8880789746897579,-0.020459118196832115,-0.14215731317061048,-0.4366788951949814
-9087.907748222351,-2980.0,1760.0,-16456.0,-657.0,-806.0,-4892.0,0.6327692599258318,-0.03776476195723594,-0.1728263570428112,-0.7538620144021975
-9087.92343211174,-2404.0,2596.0,-16032.0,-688.0,-313.0,-5685.0,0.22510284281693033,-0.009378608777758065,-0.1465545310895123,-0.963204298822562
-9087.939042568207,-2320.0,1120.0,-16424.0,235.0,-528.0,-4037.0,-0.1138227008289713,0.0024609898525704207,-0.1698462935143434,-0.97887209219815
-9087.954685688019,-1824.0,2344.0,-16540.0,645.0,-601.0,-2826.0,-0.35268528849245695,-0.012908879620212439,-0.21172842433390623,-0.9113822043670947
-9087.970272302628,-2344.0,1300.0,-16268.0,579.0,-757.0,-3213.0,-0.5965463240667616,-0.030253076302459363,-0.22882798973044224,-0.7686709216124912
-9087.986962556839,-1328.0,1540.0,-15724.0,1133.0,-939.0,-2834.0,-0.7729003150256819,-0.09214507395434827,-0.2540618240756487,-0.5740966625286227
-9088.002727508545,-2608.0,1088.0,-16084.0,833.0,-1142.0,-3852.0,-0.9268101792542598,-0.11316485544898766,-0.23541618575401224,-0.26980701734189383
-9088.018328905106,-1864.0,1700.0,-16020.0,1675.0,-1053.0,-3055.0,-0.956645032736074,-0.20091080632521935,-0.20981279335725886,0.021064685774310712
-9088.034012079239,-4092.0,1040.0,-16044.0,1518.0,-1060.0,-3139.0,-0.8991947855940461,-0.25576430946333223,-0.16564930320598173,0.31399628009356284
-9088.049618005753,-3044.0,1880.0,-16216.0,1966.0,-1046.0,-2872.0,-0.7546046228494099,-0.3241926066173155,-0.08958376910190334,0.5634232559119894
-9088.065219163895,-3316.0,1036.0,-16136.0,1356.0,-1106.0,-4737.0,-0.4501315219736109,-0.29499043160616284,-0.07705508026230343,0.8393001684691244
-9088.08089709282,-2520.0,656.0,-16436.0,1961.0,-1343.0,-3416.0,-0.1489356654759986,-0.23592067087270496,0.029429701743797568,0.9598403498808878
-9088.096543312073,-2232.0,944.0,-16236.0,1954.0,-1616.0,-2783.0,0.12213281001237178,-0.12676117137980625,0.14901937231955092,0.9730408053223607
-9088.11213684082,-3020.0,756.0,-16820.0,2032.0,-1836.0,-3639.0,0.44372097138299127,0.002996665611408765,0.24342605859162048,0.8624653462885896
-9088.127754688263,-3064.0,672.0,-16024.0,2778.0,-1810.0,-5134.0,0.7657014138127028,0.12145422711088373,0.3388761152822018,0.5330226956644245
-9088.1433365345,-3888.0,-476.0,-16112.0,3079.0,-1399.0,-6953.0,0.9099679197979497,0.15473411063466205,0.3834680767082513,-0.031112281985854272
-9088.158914327621,-4000.0,-8.0,-16352.0,5044.0,-1007.0,-7287.0,0.675212145068826,0.24365724333664995,0.3065675671524622,-0.6250888206418028
-9088.17448925972,-3680.0,1692.0,-16864.0,5528.0,-270.0,-7081.0,0.14051844822106313,0.28755162942264706,0.11007817822902595,-0.9409842829737932
-9088.190082073212,-2876.0,3028.0,-16156.0,4463.0,577.0,-6584.0,-0.42487736245249114,0.26817766020539957,-0.06902272780864993,-0.8618560393058836
-9088.205669641495,-1940.0,348.0,-16768.0,3686.0,1123.0,-6062.0,-0.8136146372891927,0.2141851489824596,-0.2085333863197475,-0.4986679965008343
-9088.221339225769,-1740.0,-1268.0,-16828.0,3847.0,1320.0,-5304.0,-0.9434636930960583,0.0822779744188265,-0.3202315275249578,-0.02362971675907484
-9088.236927747726,-2184.0,-1308.0,-16948.0,3800.0,1357.0,-4388.0,-0.8354766475570642,-0.09320322172867651,-0.3624643994246637,0.4023822684909488
-9088.25250196457,-2480.0,-1432.0,-16512.0,3614.0,1447.0,-4515.0,-0.5337520496385345,-0.2348577411196733,-0.3354035616229087,0.739902048783145
-9088.26809167862,-1612.0,3016.0,-16972.0,6687.0,1087.0,1864.0,-0.4136222004787348,-0.572277459891981,0.07138827409523221,0.7044990408030485
-9088.28372502327,-4732.0,3828.0,-14472.0,-269.0,850.0,-8525.0,0.07351128834493674,-0.5350708078078142,-0.32151152429868396,0.7777696708286442
-9088.299317598343,832.0,700.0,-15304.0,2855.0,778.0,2650.0,0.046076827846106616,-0.6086222622715295,0.0008242060791901557,0.7921206906068449
-9088.314920663834,-4444.0,5020.0,-14452.0,-270.0,304.0,-1178.0,0.11240223071905966,-0.6273517175543665,-0.07863009951641732,0.7665591095675557
-9088.330493927002,-3304.0,1792.0,-15152.0,-2068.0,284.0,-1058.0,0.07039376563297885,-0.6462775444150709,-0.26657880018524677,0.7115516823370104
-9088.346072673798,-3636.0,1648.0,-15320.0,-1958.0,348.0,-1986.0,0.08868230512840944,-0.6156840118661555,-0.483717769216832,0.6156994120781658
-9088.361650943756,-3948.0,-100.0,-15380.0,-3921.0,226.0,-5958.0,0.1762066128300611,-0.34535906937582794,-0.8597252875776604,0.33249176334809893
-9088.37723684311,-2172.0,-3252.0,-16668.0,-2060.0,274.0,-1927.0,0.1848095538448053,-0.2334474357301781,-0.9449455091208356,0.13574132882454454
-9088.392867565155,-3204.0,-1476.0,-16224.0,-1078.0,42.0,-1000.0,0.17639811879984077,-0.16753440565210848,-0.9695066486399118,0.02954293231347788
-9088.408448934555,-2556.0,-924.0,-15088.0,-1884.0,115.0,-552.0,0.15738447548999548,-0.14798827674958515,-0.9665841786273361,-0.1380022552234021
-9088.424100399017,-2840.0,-660.0,-15156.0,-1740.0,-268.0,2082.0,0.1333973829282516,-0.3412250085201479,-0.8974458099929578,-0.24568608001757578
-9088.4397315979,-3348.0,-1440.0,-15296.0,-2053.0,-421.0,3968.0,0.11564470799423836,-0.6378113024285293,-0.689291382546465,-0.3235744643115911
-9088.455298423767,-3724.0,56.0,-15820.0,-1770.0,-356.0,2197.0,0.05591073835173258,-0.7744721482394527,-0.5053752493977304,-0.3763811077013738
-9088.470896482468,-3884.0,-1308.0,-16404.0,-3072.0,-239.0,-2334.0,-0.2264565789179669,-0.6580491357560454,-0.53390927369079,-0.4802391490314648
-9088.486526489258,-2760.0,-3068.0,-17084.0,-2175.0,350.0,-3954.0,-0.4656853911574987,-0.3871819959395428,-0.6295534891636695,-0.4867130805357597
-9088.502163648605,-2216.0,-4220.0,-17200.0,-1712.0,398.0,-3347.0,-0.6113099898547225,-0.11099946832390414,-0.6517657166583406,-0.434949037157768
-9088.517784357071,-1728.0,-4840.0,-17328.0,-433.0,500.0,-878.0,-0.6174158358418684,-0.01886796093445828,-0.6676819328590891,-0.41550273432964735
-9088.533394575119,-2252.0,-4152.0,-16444.0,22.0,590.0,407.0,-0.5669872263508461,-0.02226978340133261,-0.6984626887316685,-0.4360956481690229
-9088.548995256424,-3104.0,-3360.0,-15592.0,1145.0,343.0,1584.0,-0.4763410052767515,-0.15997709882149105,-0.7450596974364907,-0.43862583348503037
-9088.564588546753,-4352.0,-1804.0,-15088.0,861.0,22.0,1830.0,-0.38673794898257663,-0.3091104620406398,-0.7421214613973799,-0.4518187884619112
-9088.580193519592,-4632.0,-932.0,-15076.0,319.0,138.0,1008.0,-0.3279335511963529,-0.37809788060825444,-0.7292108701043811,-0.46664021001292455
-9088.595819950104,-4720.0,36.0,-15460.0,-315.0,104.0,-2310.0,-0.41713168483765445,-0.21349433531134554,-0.7797506911171381,-0.41522305571440965
-9088.611451148987,-4316.0,-1632.0,-16112.0,-1296.0,-252.0,-4930.0,-0.5818359531564385,0.14618049920940368,-0.7450981911462105,-0.2914221522397936
-9088.62706899643,-2944.0,-2580.0,-16688.0,-422.0,-341.0,-2698.0,-0.6485974178236643,0.3251941713595799,-0.6639546884070479,-0.1809262619094616
-9088.642661809921,-2616.0,-1308.0,-15972.0,327.0,-225.0,-1434.0,-0.6875570318089026,0.3831103935325924,-0.6107588136051791,-0.08640269660738514
-9088.65825343132,-2752.0,2212.0,-14596.0,88.0,-287.0,-900.0,-0.7099258388706354,0.42227251053800663,-0.5624119410656062,-0.03720267053009171
-9088.673837661743,-2184.0,2792.0,-13368.0,-1194.0,-726.0,547.0,-0.6936291062807128,0.4631715519344178,-0.529408919598726,-0.15516756184264763
-9088.689440488815,-2848.0,2024.0,-13876.0,-2441.0,-1207.0,2069.0,-0.5964770478264213,0.4782548737622403,-0.4859424876349233,-0.4234941627108018
-9088.705024003983,-2340.0,1512.0,-14816.0,-3264.0,-923.0,1833.0,-0.4089380050750093,0.508451122853183,-0.37340052836737686,-0.6594082264345605
-9088.720661878586,-2388.0,388.0,-15464.0,-4082.0,-469.0,-982.0,-0.281020623793236,0.6186448077498361,-0.0735267936712976,-0.7299998777119399
-9088.736255168915,-2100.0,-1664.0,-16428.0,-4047.0,-47.0,-2529.0,-0.20667511275235145,0.6751471805417766,0.29718936090891906,-0.6427598043887316
-9088.751883983612,-2184.0,-2996.0,-17596.0,-2702.0,-168.0,-991.0,-0.09566755320331195,0.668103272275631,0.49481026305124465,-0.5474016262469847
-9088.767450809479,-1724.0,-3728.0,-17540.0,-1482.0,-83.0,1915.0,0.08395367772304844,0.7428908500744701,0.4449244162196395,-0.49305905196438576
-9088.783074140549,-1992.0,-1720.0,-16864.0,682.0,-71.0,4349.0,0.21428368414864815,0.8530399472900754,0.12436258998874761,-0.4592812833616437
-9088.798659324646,-2740.0,-708.0,-16300.0,747.0,-171.0,4862.0,0.32641526810779814,0.838974291587221,-0.2486856650687441,-0.3573942512004793
-9088.814230918884,-3088.0,-892.0,-15712.0,834.0,-152.0,5328.0,0.3872234989375659,0.6717986600235376,-0.6053864191637629,-0.1795878775229698
-9088.82979440689,-3996.0,1016.0,-15796.0,1001.0,-491.0,3992.0,0.34310989536118974,0.458107653431774,-0.8197800260433862,-0.019330971852753485
-9088.845369815826,-3388.0,-148.0,-16284.0,-512.0,67.0,1700.0,0.36656186723024736,0.317540817091477,-0.8745253551640716,-0.0023727934394120746
-9088.860967636108,-3344.0,-256.0,-16632.0,-329.0,263.0,-1010.0,0.39345544213358874,0.38246616564864994,-0.8343732151084272,-0.052285610822750225
-9088.876551866531,-2364.0,-1560.0,-17164.0,74.0,310.0,-84.0,0.4127113948520462,0.3924317502543836,-0.8210456929775637,-0.039377607780967515
-9088.892174243927,-2496.0,-1380.0,-15892.0,1096.0,438.0,916.0,0.40597517281359685,0.36474727108650734,-0.8334694533814652,0.08644222101448824
-9088.907818317413,-2852.0,228.0,-15640.0,1313.0,263.0,1799.0,0.36257542832638007,0.2733034145152606,-0.8554051239582007,0.24925163248070592
-9088.923475980759,-3612.0,320.0,-15360.0,442.0,222.0,931.0,0.3466472384551786,0.21209948257805686,-0.8574933654268092,0.31552278810020007
-9088.93910908699,-3540.0,20.0,-16104.0,999.0,-69.0,2243.0,0.2551995761451899,0.07468933096838794,-0.8543338889345959,0.4465515495356607
-9088.954693078995,-4444.0,-248.0,-16128.0,-239.0,-97.0,-224.0,0.25794670728929187,0.08978165773189459,-0.864124490188788,0.42271931064181634
-9088.970300674438,-2932.0,-724.0,-16320.0,4.0,104.0,-1.0,0.26559333664158097,0.08609359789941538,-0.861756262246364,0.42358495772572197
-9088.985944509506,-2800.0,-1032.0,-16616.0,38.0,407.0,-2165.0,0.36900044626138345,0.2305138874894028,-0.8198142309242058,0.3722991339065616
-9089.001551389694,-2504.0,-1412.0,-16776.0,1104.0,470.0,-1114.0,0.4122121038341947,0.32720252003249645,-0.7390857105612532,0.4204426295954522
-9089.017163276672,-2540.0,-888.0,-15976.0,1333.0,539.0,-7.0,0.4057945484009463,0.35312828823130493,-0.6655670125280488,0.5173507015298119
-9089.032744169235,-2812.0,-132.0,-15900.0,1966.0,537.0,923.0,0.32836907888469274,0.3385974222089549,-0.5755764819010856,0.6680099154864685
-9089.048318386078,-3588.0,620.0,-15836.0,1523.0,467.0,-343.0,0.3234634680381681,0.3686521380279334,-0.4588830964923419,0.7408733290689808
-9089.063929080963,-3816.0,56.0,-16068.0,1386.0,394.0,-602.0,0.3304341149452433,0.40283718548156844,-0.3359002480714921,0.7846696891171165
-9089.079526901245,-3448.0,-108.0,-16008.0,971.0,195.0,-1201.0,0.3806891782576081,0.4487713295361011,-0.21973601915506627,0.7780720565794864
-9089.095117330551,-2856.0,-536.0,-15896.0,1320.0,-35.0,804.0,0.2711900905119568,0.4755215104418415,-0.16142522342034385,0.8211437907936212
-9089.110710382462,-2896.0,844.0,-14584.0,1152.0,20.0,1749.0,0.09668275911473524,0.4692094254805803,-0.14858760537926552,0.8651107921288471
-9089.126294136047,-2864.0,1540.0,-14336.0,730.0,-77.0,1394.0,-0.039094007168447055,0.4590594792252422,-0.14985570340499232,0.8748024470095849
-9089.141883850098,-2728.0,464.0,-14868.0,103.0,-102.0,1884.0,-0.1858800926388694,0.4362266012226067,-0.21432803069520373,0.85394287795183
-9089.157512664795,-2840.0,460.0,-14976.0,-54.0,-140.0,1921.0,-0.3250251614600632,0.40613480157631104,-0.28536016134911385,0.8049737546536769
-9089.173130989075,-3128.0,-200.0,-15472.0,-984.0,-227.0,729.0,-0.3449443181623127,0.4294877546534686,-0.3718927939621252,0.7471609169177037
-9089.188742637634,-2920.0,-960.0,-16116.0,-704.0,-129.0,1036.0,-0.38790717284022264,0.42307659206207865,-0.4502355113677621,0.6839752969308562
-9089.204271316528,-3072.0,-1084.0,-16276.0,-781.0,-56.0,283.0,-0.377098348605914,0.4407020168935025,-0.5042842804723899,0.6397467719755495
-9089.219875574112,-3164.0,-2228.0,-16540.0,57.0,-54.0,1181.0,-0.44515772652106833,0.3879230661416114,-0.5420701365814867,0.5979216171877488
-9089.235454320908,-3592.0,-1536.0,-16332.0,896.0,-244.0,1785.0,-0.57134452466655,0.27727074232535637,-0.5382649582269837,0.5540371867743205
-9089.251058101654,-4336.0,-908.0,-15784.0,586.0,-336.0,1350.0,-0.6607659400694098,0.19923078713400957,-0.5215981972051579,0.5016281357484657
-9089.266659498215,-3576.0,-384.0,-15600.0,702.0,-325.0,1462.0,-0.7439384072144569,0.10539311982591135,-0.4927154960623636,0.4389525902698341
-9089.28226351738,-3544.0,-356.0,-15952.0,37.0,-153.0,-1219.0,-0.7000264141234079,0.1603649100694483,-0.4677571245463848,0.5152178059656312
-9089.297865867615,-3352.0,-1424.0,-16852.0,427.0,-2.0,-979.0,-0.6591026418050759,0.1736401658674559,-0.43314300686479024,0.5897626098416383
-9089.313487291336,-3140.0,-1668.0,-16984.0,408.0,-138.0,-1765.0,-0.5724279854346032,0.22129936343670806,-0.3730916969147128,0.6958127470283149
-9089.329077243805,-2480.0,-1836.0,-17192.0,1379.0,-91.0,-269.0,-0.5812662516220858,0.16557272914792406,-0.27781525168229293,0.7466819282803239
-9089.344732999802,-2984.0,-1384.0,-16924.0,1341.0,-225.0,-949.0,-0.5386297421865148,0.13392383377550163,-0.16390986782146877,0.8155218959719653
-9089.360327720642,-2404.0,-1492.0,-16976.0,1980.0,283.0,-454.0,-0.5172025626520583,0.026904996449055838,-0.03080744147678701,0.8548850986547105
-9089.37594795227,-2344.0,-1184.0,-16808.0,1717.0,638.0,-1427.0,-0.40484932731348633,-0.09252166860720014,0.07009118447180031,0.9069862120623978
-9089.39157819748,-2512.0,-1700.0,-16724.0,2063.0,894.0,-1019.0,-0.3059394917489688,-0.2372729440446228,0.1891985337576243,0.9023893240928469
-9089.40717959404,-3580.0,-1772.0,-16432.0,2006.0,734.0,-1869.0,-0.12547784745051702,-0.36862806107519563,0.28046882883696317,0.8773288428166197
-9089.42278289795,-3552.0,-1836.0,-16456.0,2639.0,722.0,-881.0,0.00897428503219206,-0.4603441469524362,0.4329361188691027,0.7749638995161987
-9089.43836927414,-3948.0,-1192.0,-15796.0,2278.0,762.0,-2052.0,0.20292433242599436,-0.5666564761198268,0.4870800646396604,0.6328310706749068
-9089.45394897461,-3692.0,-1548.0,-15840.0,2436.0,824.0,-2808.0,0.4207473648880158,-0.653399796100683,0.472049366678926,0.41618476283184785
-9089.4695250988,-3488.0,-2024.0,-15544.0,2075.0,926.0,-3675.0,0.5934182254933702,-0.7133528351717613,0.3480406867039068,0.1336047252284983
-9089.485162734985,-2828.0,-2776.0,-15916.0,2070.0,725.0,-3052.0,0.6989766015288401,-0.6722725856102096,0.2088886386127727,-0.12588414439737236
-9089.500736951828,-2404.0,-3464.0,-15116.0,2481.0,655.0,-778.0,0.8022054850678048,-0.5142883095689542,0.1714237215106304,-0.2501755425122159
-9089.516323804855,-2608.0,-2284.0,-14472.0,2541.0,494.0,847.0,0.9021138076980295,-0.30472918223368733,0.18357451371708455,-0.24419500684757414
-9089.53192949295,-2936.0,-1924.0,-14012.0,1887.0,432.0,989.0,0.9494479751297389,-0.12906335733159385,0.20031264824176054,-0.2043674026617471
-9089.547510385513,-3352.0,-2304.0,-13984.0,1706.0,242.0,1702.0,0.9732356721506289,0.045196741035223795,0.20486386094681514,-0.0938103380831363
-9089.56310224533,-4076.0,-2312.0,-14100.0,1255.0,-29.0,1289.0,0.9674470995328481,0.17245022342600505,0.18509597822882798,-0.006819742613425964
-9089.578685045242,-4360.0,-2720.0,-15188.0,1076.0,-482.0,1028.0,0.9507731354766756,0.2771140964904492,0.1274232263532397,0.05478634654605399
-9089.594288825989,-4236.0,-3048.0,-15164.0,507.0,-334.0,-1753.0,0.9382929022591541,0.2975716634176225,0.14292899299795542,-0.1030962543526832
-9089.609878778458,-3132.0,-3636.0,-16196.0,288.0,-160.0,-2343.0,0.8927768892713207,0.28466680704403224,0.1844336165489513,-0.2964767714966117
-9089.6255133152,-2980.0,-3484.0,-16476.0,387.0,-105.0,-3721.0,0.749489598288584,0.23990716876877682,0.2461340900642669,-0.5657984642421733
-9089.641086816788,-2508.0,-4376.0,-16284.0,1046.0,-386.0,-1827.0,0.6345951894706124,0.2458889220706759,0.2042448170537391,-0.7036416973221266
-9089.656717061996,-1552.0,-3768.0,-15004.0,1241.0,-37.0,-1293.0,0.5227819487387002,0.285972550794489,0.1521599628613316,-0.7885214518116159
-9089.672296524048,-1768.0,-2160.0,-15520.0,2103.0,-359.0,835.0,0.5221246726805822,0.3613886220206496,-0.028987833043391184,-0.771973960433679
-9089.687954425812,-2572.0,-1888.0,-15064.0,964.0,-330.0,205.0,0.5025428883439569,0.38129723512206865,-0.11489764809912256,-0.767373178006939
-9089.703507184982,-2456.0,-1192.0,-14940.0,1583.0,-436.0,2222.0,0.5776428172475722,0.3884118924632298,-0.30522952654679664,-0.6498460691574879
-9089.719068288803,-3120.0,64.0,-14864.0,221.0,-372.0,695.0,0.5979995650445271,0.3592887636400013,-0.3592770599516835,-0.6198613544342558
-9089.734671115875,-3056.0,492.0,-15584.0,35.0,-384.0,676.0,0.6198645398622282,0.31865579172098046,-0.40163404932726027,-0.5940677815241718
-9089.750260829926,-3384.0,-76.0,-15524.0,-1055.0,-155.0,-1872.0,0.5371710198620875,0.3138941305619697,-0.29821991873602116,-0.7238664588777068
-9089.765924930573,-2368.0,-692.0,-15656.0,-961.0,116.0,-1405.0,0.4724550250021876,0.3095826290180065,-0.19163808479065117,-0.8026329731690897
-9089.781563282013,-2400.0,-112.0,-15828.0,-1084.0,-24.0,-458.0,0.46673602213638404,0.2697426100027346,-0.10389518537583446,-0.8358242640920032
-9089.797197818756,-1908.0,-256.0,-15672.0,-1394.0,-138.0,1948.0,0.6267521015765275,0.18161578250907234,-0.052617141424052744,-0.7559291945290806
-9089.812789916992,-2372.0,996.0,-15588.0,-1081.0,-358.0,4059.0,0.8540192109404018,0.0756097034151675,-0.061240706119845396,-0.5110615775111124
-9089.828384637833,-2680.0,2680.0,-15144.0,-2233.0,-588.0,3482.0,0.9591710333441521,-0.12713575431158397,-0.026776532411165958,-0.25121792547740185
-9089.844013690948,-2528.0,1608.0,-14980.0,-3165.0,-775.0,2882.0,0.921179668762626,-0.3889419870574865,0.00925679333346028,-0.008152321101017676
-9089.859609365463,-3172.0,2672.0,-15740.0,-3011.0,-627.0,5400.0,0.7235684110321225,-0.5514364861543304,0.12691523183891742,0.3952961930268087
-9089.87522816658,-2236.0,4472.0,-14796.0,-5589.0,444.0,328.0,0.39343084527665223,-0.8226882972339805,-0.01968812861466942,0.40988841551183797
-9089.890844345093,216.0,2364.0,-15672.0,-6834.0,1325.0,-3322.0,0.01964149317504508,-0.9117613660374705,-0.3791903253865341,0.15658901711357281
-9089.906467914581,-2856.0,-9132.0,-19484.0,-6324.0,528.0,-3950.0,-0.3449410954915108,-0.6693025395817571,-0.6525509508799878,-0.08501180892176391
-9089.92217040062,-2936.0,-9192.0,-19868.0,1135.0,-32.0,14921.0,-0.10306175565622089,-0.9444841716502906,0.12858465191191937,-0.2842426979111548
-9089.937802791595,-4088.0,3104.0,-14252.0,-2211.0,699.0,9824.0,-0.037106764979347985,-0.5981367793785032,0.7405705874143913,-0.30399126007861266
-9089.953418970108,-3188.0,1160.0,-17600.0,-1876.0,964.0,7198.0,-0.005276740461094476,-0.08477742882226111,0.9730788187481282,-0.21424881814409208
-9089.968995809555,-8528.0,-2080.0,-17496.0,-673.0,758.0,-684.0,-0.08667626893549141,-0.12760938943581202,0.9747745896223459,-0.16129962045159635
-9089.984623908997,-4396.0,-2048.0,-15716.0,-1544.0,1410.0,-71.0,-0.22088795958520413,-0.10043465139182053,0.9691044589017039,-0.04424859146825243
-9090.000251054764,-3124.0,-1844.0,-15460.0,-1578.0,1191.0,3735.0,-0.3009072356774159,0.23501705938313677,0.9242194209576543,0.006346592832150905
-9090.015866041183,-3216.0,-696.0,-16116.0,-1345.0,1363.0,2907.0,-0.3679669069305928,0.48233823723241376,0.7924096102156236,0.06353888530170748
-9090.031445980072,-3232.0,1368.0,-16360.0,-1484.0,1728.0,-932.0,-0.4101930121004087,0.44586568473815064,0.750920217723946,0.2628008953759397
-9090.047049760818,-1220.0,-88.0,-16508.0,-1902.0,1706.0,101.0,-0.43927610802855926,0.46999076876803675,0.627046422009032,0.4392698064217277
-9090.062667369843,-728.0,-1532.0,-16276.0,-573.0,1361.0,4398.0,-0.6105543281634876,0.630859659702771,0.3454459569868599,0.33152163266062834
-9090.0782558918,-1928.0,-616.0,-15892.0,-955.0,1264.0,4028.0,-0.666465275088135,0.7173491179340474,0.026939672699118483,0.20126732008899276
-9090.093859434128,-2300.0,-692.0,-16116.0,-1105.0,623.0,4201.0,-0.6278397404785039,0.729114049531212,-0.272411123916255,-0.0014637686857522027
-9090.109446287155,-2876.0,-744.0,-15992.0,-1371.0,486.0,4197.0,-0.49253298342978297,0.6570309425183235,-0.5277135323030439,-0.21734771365598635
-9090.125032901764,-3624.0,40.0,-15944.0,-1503.0,678.0,3316.0,-0.2968558316821898,0.5536909904491079,-0.6837441455556572,-0.37120997522982285
-9090.140661001205,-3868.0,-276.0,-16408.0,-1657.0,886.0,2695.0,-0.07352027512070655,0.4466320639070446,-0.7530042221844118,-0.47759733040371827
-9090.156248569489,-3336.0,-16.0,-16248.0,-2025.0,916.0,2207.0,0.15199191114321392,0.34041277542398357,-0.7337374764981722,-0.5680201729316204
-9090.171865701675,-2908.0,-744.0,-16432.0,-1518.0,861.0,3692.0,0.4098858398866339,0.11932257024340809,-0.7130209995222914,-0.5561985047904825
-9090.187470436096,-2440.0,80.0,-15984.0,-1933.0,633.0,3308.0,0.5965186139499543,-0.11826761578493974,-0.5978582619374232,-0.5222488036376293
-9090.203047513962,-1832.0,328.0,-16060.0,-1841.0,503.0,3168.0,0.7118574157333182,-0.3392809227763764,-0.4333357437775669,-0.43631136619418415
-9090.218661785126,-1752.0,428.0,-15956.0,-2264.0,526.0,2258.0,0.7222184482604491,-0.5248765049335852,-0.23846325605647037,-0.38215238200476914
-9090.234220981598,-2520.0,124.0,-15876.0,-1981.0,383.0,3082.0,0.706444702678807,-0.6676776227833136,-0.006821989793719858,-0.23472523201975876
-9090.249794483185,-3048.0,-76.0,-16092.0,-2254.0,210.0,2737.0,0.602772737154804,-0.7681002429525916,0.20230500175697153,-0.07589288756653835
-9090.265390634537,-2924.0,288.0,-16280.0,-1511.0,301.0,4048.0,0.48894601086879863,-0.7242513802309919,0.46727447025318003,0.134336540593399
-9090.280986785889,-3164.0,1656.0,-16376.0,-1707.0,413.0,1491.0,0.339642824266133,-0.7266667719367887,0.5482430286802594,0.23670178704646055
-9090.296626091003,-2532.0,1468.0,-16228.0,-1145.0,625.0,1825.0,0.1954480740732573,-0.6734840089118258,0.6466470426897813,0.3001115496972256
-9090.312244653702,-2176.0,1232.0,-16008.0,-1734.0,633.0,760.0,0.03716985828628769,-0.6667768999501295,0.6470333973133019,0.36793307827521987
-9090.327874183655,-2180.0,32.0,-16448.0,-835.0,484.0,1779.0,-0.09439244051535553,-0.575770909688351,0.714330362817346,0.3864065986592916
-9090.34346461296,-1964.0,1456.0,-15936.0,-971.0,281.0,1208.0,-0.19945324809386394,-0.4973766988848827,0.7331854577003667,0.4186572653709572
-9090.359078645706,-2128.0,1096.0,-16164.0,-669.0,510.0,1228.0,-0.3032786277825563,-0.42236150104748427,0.7470196408662706,0.41423965590376993
-9090.374673366547,-2336.0,1244.0,-16128.0,-392.0,326.0,1012.0,-0.3735406112149595,-0.3561771325414966,0.7579677667314255,0.39886103673315493
-9090.390274047852,-2152.0,1308.0,-16064.0,-23.0,412.0,887.0,-0.4305985302396976,-0.3100751333126269,0.7686657764391658,0.3571991623558815
-9090.40584897995,-2616.0,1348.0,-16112.0,-191.0,379.0,-313.0,-0.45071989779597776,-0.3354564852207846,0.7393791309398365,0.37099733285396097
-9090.421429395676,-2248.0,1372.0,-16260.0,445.0,327.0,180.0,-0.46378893676624094,-0.35158693048980516,0.7453921939302605,0.32507988198261334
-9090.436992406845,-2372.0,1628.0,-16112.0,103.0,373.0,-937.0,-0.45627937663098883,-0.42573388384738486,0.7018775227092021,0.3434060770007588
-9090.452562093735,-1728.0,1724.0,-16076.0,-121.0,349.0,-1909.0,-0.4187196459602153,-0.5406920679500301,0.6049301743540969,0.40790370174686325
-9090.46813750267,-2020.0,700.0,-16612.0,342.0,510.0,-623.0,-0.40592936123082657,-0.6026175205142632,0.5675416849036746,0.38725949124156106
-9090.483753681183,-2524.0,780.0,-16176.0,-400.0,158.0,-1763.0,-0.37036960971695915,-0.6728750269041519,0.45020842635046765,0.4553876625578253
-9090.499361038208,-2376.0,-268.0,-16220.0,118.0,-75.0,51.0,-0.36229129402584775,-0.6718217896419801,0.46035844605230825,0.4532886523878883
-9090.514951705933,-2844.0,700.0,-15780.0,68.0,-85.0,122.0,-0.3594781286276597,-0.665813735024426,0.4729186940285124,0.4514592496887684
-9090.530577421188,-3088.0,672.0,-15924.0,-323.0,34.0,-744.0,-0.3492596123943544,-0.6861814820740855,0.4149402977011728,0.48476514535640725
-9090.546169519424,-2712.0,540.0,-15928.0,-135.0,169.0,-592.0,-0.3377238711339125,-0.709760640819806,0.36814852346357496,0.4966377797560035
-9090.561796188354,-2804.0,640.0,-16096.0,-279.0,142.0,-703.0,-0.32818348590775587,-0.7288234279006527,0.30770351377646044,0.5161691177610257
-9090.577383756638,-2500.0,632.0,-15892.0,62.0,166.0,48.0,-0.33065276834596674,-0.7368822811437246,0.30881073708614426,0.5023038713586445
-9090.592998504639,-2224.0,1168.0,-16208.0,184.0,205.0,-276.0,-0.3119037693225725,-0.7583565324198986,0.29310278836516124,0.49163214283751466
-9090.608597517014,-2184.0,1292.0,-15936.0,59.0,201.0,-634.0,-0.28529796011319203,-0.7836494142147454,0.24784199559850872,0.49302435515285303
-9090.624178171158,-2092.0,500.0,-16232.0,451.0,92.0,401.0,-0.2731545434055668,-0.7892179649802206,0.2920012986337101,0.466108185688261
-9090.639788150787,-2492.0,1060.0,-16012.0,293.0,106.0,-392.0,-0.23934164856583265,-0.8098919785058966,0.27417689915160476,0.4600191152389262
-9090.655359268188,-2380.0,780.0,-16048.0,320.0,49.0,-580.0,-0.19413743502299097,-0.8311814995483998,0.24463562498371658,0.46000150230188774
-9090.670933246613,-2300.0,564.0,-16124.0,226.0,-3.0,-671.0,-0.15032850734498837,-0.847752700927229,0.2047318963931515,0.46561953196711997
-9090.686520338058,-2536.0,280.0,-16328.0,757.0,-139.0,622.0,-0.11657196437328231,-0.8379565404811156,0.2822985220464266,0.45226912103025296
-9090.70209980011,-2764.0,264.0,-16108.0,639.0,-190.0,668.0,-0.0911191150917564,-0.8178789181709542,0.35711801140630783,0.44185756529181336
-9090.717698574066,-2604.0,784.0,-16188.0,706.0,-139.0,464.0,-0.05405985421136549,-0.8015715981187359,0.4174421756743965,0.42462046019975064
-9090.733361244202,-2316.0,928.0,-16260.0,551.0,-76.0,11.0,-0.013090601700108647,-0.8001328407838101,0.43852499186978006,0.40903777912555755
-9090.748941659927,-1936.0,1436.0,-16148.0,502.0,-61.0,-4.0,0.024415296744348704,-0.7980165706379893,0.45585443810415893,0.3934084106025316
-9090.764538049698,-2236.0,148.0,-16380.0,129.0,-317.0,132.0,0.04146191385046049,-0.7813299527437169,0.4686173804884245,0.41012457296475785
-9090.78011727333,-1900.0,568.0,-15792.0,54.0,-496.0,23.0,0.06452125249749756,-0.7618464177510604,0.46994926505051293,0.44110625932366193
-9090.79575753212,-2124.0,508.0,-16156.0,174.0,-558.0,1270.0,0.04968620250872307,-0.6823828526750875,0.5539089625849986,0.4744152029849833
-9090.811329364777,-2920.0,460.0,-15880.0,237.0,-610.0,759.0,0.0616264641845035,-0.6171975142145181,0.6040580109750414,0.5003831799095694
-9090.826927661896,-2800.0,644.0,-15820.0,599.0,-545.0,1260.0,0.06702022739421587,-0.5194743487594717,0.6893858831913549,0.500401632848481
-9090.842499732971,-3072.0,888.0,-15900.0,453.0,-573.0,-40.0,0.12351787185158783,-0.49332162674687313,0.7026908079679957,0.49759696172139056
-9090.858094453812,-2652.0,1172.0,-16204.0,1002.0,-523.0,-118.0,0.20279943427425118,-0.46486850404614105,0.7320154419820865,0.4548879599458723
-9090.873691082,-2208.0,1256.0,-16176.0,237.0,-486.0,-1543.0,0.3015433089616951,-0.5346243735264498,0.6636501356775303,0.4275709408590329
-9090.889377832413,-1860.0,252.0,-16240.0,1079.0,-678.0,-82.0,0.39162932735206596,-0.4828103315728187,0.6781832599470682,0.39190320183928157
-9090.904967069626,-2276.0,840.0,-16128.0,797.0,-808.0,-652.0,0.4919355969098372,-0.4636212495187946,0.6463182501579388,0.3540161366383937
-9090.920623779297,-2356.0,1052.0,-16168.0,1786.0,-906.0,-672.0,0.6253100494359563,-0.3904019194608771,0.6250677628163553,0.2566397772041991
-9090.936245679855,-3232.0,260.0,-16724.0,2022.0,-960.0,-513.0,0.7430744225279609,-0.28108244809397875,0.5889954095619582,0.1480454912287924
-9090.951891422272,-2640.0,1676.0,-16196.0,2746.0,-960.0,-1291.0,0.8443189302534024,-0.15133016603490201,0.5114586620484796,-0.05132993161088689
-9090.96748828888,-2820.0,1040.0,-16584.0,3091.0,-901.0,-2170.0,0.8670886908540939,-0.023228157637113733,0.381561951124511,-0.31941842830333866
-9090.983115196228,-2380.0,1356.0,-16508.0,4096.0,-868.0,-2355.0,0.7733834366350042,0.16981646290470812,0.18191538057813766,-0.5830499319734767
-9090.998795747757,-2608.0,1244.0,-16916.0,5024.0,-1023.0,-3080.0,0.4950393384200774,0.361850455563504,-0.08589165179567168,-0.785253414750237
-9091.014424800873,-2316.0,1656.0,-17152.0,6105.0,-559.0,-3599.0,0.04366991036358732,0.5221814921258046,-0.3524501470564242,-0.7753697969678787
-9091.030019044876,-2912.0,1132.0,-17160.0,6511.0,-275.0,-4823.0,-0.47983530169459204,0.5525815498928573,-0.4688792150896532,-0.4945341197759546
-9091.045617103577,-3140.0,-232.0,-17016.0,7851.0,82.0,-4134.0,-0.8170072568865345,0.31366981812458844,-0.4838396728410561,0.003091662576593235
-9091.061198234558,-1456.0,2432.0,-16796.0,7796.0,654.0,-4102.0,-0.793237122631023,-0.054682836052702286,-0.3297535989516592,0.5089668149297331
-9091.076779603958,-3528.0,-1340.0,-16236.0,5342.0,311.0,-5957.0,-0.4050659928844668,-0.21879462018449755,-0.11702005404834523,0.8799754329169451
-9091.092370271683,68.0,-5812.0,-15288.0,2616.0,1011.0,-9134.0,0.2739502434551254,-0.2271477195743491,-0.09719903902329272,0.9294662578146659
-9091.107996940613,1544.0,-4712.0,-14368.0,2135.0,974.0,-8909.0,0.8161018590280882,-0.14008125352834025,-0.06047009403337252,0.5574032344976323
-9091.123572349548,-1940.0,-972.0,-13192.0,155.0,-98.0,-6557.0,0.9862453671379092,-0.07810929792067123,-0.12158492445828745,0.08022542939631282
-9091.139144420624,-2052.0,-3388.0,-12896.0,1276.0,-775.0,-2660.0,0.9715194432193889,0.06285591869349506,-0.19092006281798798,-0.12549356376109919
-9091.154781103134,-3512.0,-3756.0,-13324.0,210.0,-311.0,-2245.0,0.9225606649465687,0.11230399311123736,-0.20346030935208437,-0.3080154787392517
-9091.170403242111,-3740.0,-5168.0,-13644.0,-1673.0,-757.0,-1753.0,0.857568710714776,-0.011413277861009296,-0.1975455288101278,-0.47478564377894905
-9091.186017036438,-4748.0,-6060.0,-15060.0,-1785.0,-718.0,1149.0,0.8744439067669065,-0.19120423284757015,-0.1728361779737554,-0.4109944657082697
-9091.201654672623,-5916.0,-3020.0,-15412.0,-1715.0,-993.0,1227.0,0.8572315279093481,-0.36893441159130363,-0.16322269731255115,-0.31999977903742116
-9091.217254400253,-5276.0,-492.0,-16348.0,-2431.0,-1050.0,639.0,0.7604996385932148,-0.5734988561606071,-0.14914826286743627,-0.26550735840215606
-9091.232892036438,-4228.0,-1692.0,-16660.0,-3060.0,-1020.0,-146.0,0.5683529701000811,-0.7685895340597267,-0.14748710655498223,-0.2539538991870522
-9091.248527288437,-2360.0,-1560.0,-16404.0,-1687.0,-904.0,1022.0,0.45784065176308475,-0.8701450088690709,-0.08487898018589063,-0.1613231535025328
-9091.264106273651,-2480.0,1500.0,-16140.0,-1715.0,-970.0,521.0,0.322420785288666,-0.941514629068579,-0.05899653953568575,-0.0781949409265732
-9091.279726743698,-2376.0,-1788.0,-18268.0,-2200.0,-1311.0,1970.0,0.14251541315032418,-0.9841598570385692,0.07796357456013947,0.0709958720646565
-9091.295360088348,-2012.0,-2716.0,-19104.0,804.0,-1224.0,6239.0,0.15792321836162743,-0.8066409439354371,0.5267735541351836,0.21656469549083837
-9091.310940265656,-2572.0,-396.0,-17088.0,577.0,-1283.0,5353.0,0.14063930360665416,-0.4758756042726501,0.8076043799502056,0.31865053118490044
-9091.32650899887,-1612.0,-1588.0,-19412.0,5567.0,-1327.0,14988.0,0.028187061476919933,0.39847036464881924,0.9117142822233703,0.09593709215865474
-9091.34208869934,-3916.0,2568.0,-19988.0,5582.0,-1443.0,10267.0,-0.0954240339154429,0.8655865865193026,0.41696971598891475,-0.26036584057300965
-9091.357686758041,-4324.0,3548.0,-21172.0,8829.0,-1094.0,6636.0,-0.4105732363877174,0.7246713440006373,-0.1981336846981083,-0.5167437505518342
-9091.373355388641,-3780.0,4408.0,-21844.0,8709.0,-559.0,1756.0,-0.7041597436008353,0.2821515032924093,-0.5386090238215512,-0.36667411163025265
-9091.388950824738,-2052.0,2732.0,-24468.0,11007.0,-118.0,813.0,-0.6874770033642522,-0.31409502463040545,-0.6509608282420539,0.07049599592992634
-9091.40456867218,-3320.0,3164.0,-24712.0,11827.0,71.0,-3369.0,-0.23063918008873152,-0.5677135557952935,-0.4601524783686726,0.6424691306400878
-9091.420158863068,-2100.0,2804.0,-25088.0,13297.0,903.0,-4428.0,0.4505862611985484,-0.44784480319342185,0.030149006030636742,0.7716852278663389
-9091.435787677765,-2084.0,3780.0,-23232.0,13124.0,2574.0,-6450.0,0.8498683029896472,-0.07477613680365636,0.46628470861306154,0.23390375681431522
-9091.451419115067,288.0,2996.0,-19876.0,10412.0,4914.0,-10054.0,0.5535731510304234,0.11277790976812596,0.5865762872997373,-0.580315576823711
-9091.467017650604,1944.0,1716.0,-17800.0,9985.0,6167.0,-6357.0,-0.1188650762687417,0.3791900793641665,0.28768537367145985,-0.8713914752457335
-9091.48265838623,-1328.0,6124.0,-14560.0,8381.0,6268.0,-3567.0,-0.5935115608743552,0.4890705500387539,-0.21344827222927984,-0.6024897171534239
-9091.498277664185,-2636.0,7952.0,-10552.0,3056.0,5837.0,-1421.0,-0.5944837753611243,0.5725199340819698,-0.5309716425722245,-0.19203926862835927
-9091.513846874237,-2616.0,8596.0,-8292.0,666.0,4899.0,3865.0,-0.2944391345474384,0.38671235957781164,-0.8678867408580722,-0.10262432479422327
-9091.529427051544,-5604.0,10636.0,-6484.0,-3637.0,4023.0,3276.0,0.14219872661801916,0.2344900427930197,-0.9181731052323504,-0.28592322537199555
-9091.545003175735,-6556.0,10472.0,-6200.0,-8365.0,2602.0,1464.0,0.4412424960917295,0.06190904958207711,-0.5587656009188678,-0.6994664627073698
-9091.560580015182,-7028.0,7528.0,-7732.0,-12092.0,1474.0,-1843.0,0.31724562693356206,-0.1523255133513115,0.1674772737720281,-0.9209253568795245
-9091.576152086258,-5868.0,5880.0,-10008.0,-14450.0,398.0,142.0,0.08122303776343867,-0.32184259649056546,0.8335191275408623,-0.4416627958569861
-9091.591866254807,-5364.0,4444.0,-11204.0,-16812.0,-452.0,420.0,-0.19244272258816855,-0.2408325618267367,0.8387939412263511,0.44876519456035013
-9091.607464790344,-4352.0,2044.0,-12888.0,-17641.0,-1278.0,4399.0,-0.34160608990492597,0.22750620051799894,0.13945650427544337,0.901164852555294
-9091.623095273972,-4268.0,384.0,-14092.0,-16801.0,-2056.0,10079.0,-0.3899847248616503,0.509311331095102,-0.6639775631999414,0.38424949962203747
-9091.638688087463,-6004.0,108.0,-15792.0,-17314.0,-3166.0,12526.0,-0.10486175254597255,0.22440843474432895,-0.7935572328242122,-0.5557983316824248
-9091.654285430908,-6232.0,-68.0,-17588.0,-16827.0,-3660.0,15225.0,0.3166403421850753,-0.3807821521984593,-0.10808973558475955,-0.8620095448017061
-9091.669878005981,-5448.0,232.0,-18168.0,-18146.0,-2955.0,12833.0,0.2962966369402651,-0.5578371216761671,0.7289145780104247,-0.264025730908604
-9091.685507535934,-4580.0,-1068.0,-18712.0,-19349.0,-2355.0,9835.0,-0.1251663306298738,-0.2262266672005296,0.7401130321703008,0.620795928092056
-9091.701143503189,-3404.0,-2984.0,-19168.0,-19844.0,-1661.0,6420.0,-0.36385505229237997,0.23785058883907725,-0.09123414269162104,0.895942481143482
-9091.716738462448,-3004.0,-3856.0,-20332.0,-19406.0,-1454.0,5423.0,-0.19567002528003025,0.4562038559309392,-0.8263734068577078,0.2658914731221006
-9091.732335329056,-2480.0,-4488.0,-20516.0,-18453.0,-828.0,5058.0,0.18584338116807614,0.21859903957201926,-0.7402387488848089,-0.6080487580972934
-9091.747954368591,-1724.0,-4400.0,-20068.0,-16463.0,-464.0,6249.0,0.4370760122647616,-0.25995002057228167,0.00352279385107587,-0.8610331795178902
-9091.763511419296,-2516.0,-2748.0,-19032.0,-15018.0,-256.0,5064.0,0.27940748013304584,-0.4983643121815616,0.7247592104655585,-0.38508253561391387
-9091.779087305069,-3164.0,-1540.0,-17564.0,-14271.0,296.0,2584.0,-0.1693474951705655,-0.41712201686941847,0.8206363224521026,0.35197539004102607
-9091.794690132141,-3160.0,580.0,-16256.0,-13504.0,150.0,2831.0,-0.48460813627426114,-0.012466352176419272,0.32382547291197206,0.8124879121645676
-9091.810277700424,-3768.0,920.0,-17052.0,-14389.0,518.0,-1024.0,-0.2749863774764352,0.3297447861310305,-0.4472027939395457,0.7846403821588924
-9091.825865983963,-3828.0,-940.0,-17776.0,-13777.0,807.0,-3855.0,0.2603663804066537,0.4718837217459855,-0.8113467170398692,0.2263881751631953
-9091.841509580612,-4280.0,-2576.0,-17908.0,-11613.0,83.0,-4251.0,0.5629027852241533,0.34485640505605925,-0.5871796908327297,-0.46843838970806173
-9091.85714006424,-3004.0,-1688.0,-16220.0,-8743.0,-159.0,-1245.0,0.6073982824026032,-0.021546155919355374,-0.1586468676797383,-0.7780965628216553
-9091.872735500336,-5480.0,108.0,-17324.0,-7164.0,-303.0,-4841.0,0.20826349769679564,-0.28301543368076326,0.2414433995327405,-0.9045626924916038
-9091.888322591782,-1016.0,256.0,-15580.0,-6993.0,128.0,-886.0,-0.031601631176918915,-0.35673501019016673,0.6592516750783095,-0.6611570904996955
-9091.903935909271,-1872.0,1600.0,-15192.0,-3547.0,-630.0,5203.0,0.17020506876446428,-0.07356793524989233,0.8996571330637599,-0.39526577944143826
-9091.91962814331,-5180.0,3856.0,-15628.0,-4847.0,-202.0,-701.0,0.12021863113013331,-0.1907835132278595,0.9740027767572053,-0.021626897116450466
-9091.935274362564,-4364.0,4468.0,-15708.0,-4456.0,457.0,-5899.0,-0.003341586519510111,-0.6198167766465303,0.7465495139419135,0.24182601270361825
-9091.95085811615,-4924.0,4428.0,-16348.0,-3719.0,483.0,-11620.0,0.006436672187148084,-0.9485003016565425,0.02703423615598638,0.3155549034384751
-9091.966464042664,-2756.0,4568.0,-15844.0,-1756.0,220.0,-11551.0,0.12496868392410146,-0.6881925657143904,-0.6842409843610525,0.20636883450351823
-9091.982078313828,-2892.0,3048.0,-15004.0,-2094.0,341.0,-14145.0,0.1713566205184042,0.07967397507996024,-0.9802362435752493,-0.05853095831228281
-9091.997737884521,-1680.0,152.0,-15952.0,176.0,473.0,-10763.0,0.11314038550708713,0.7324837739175556,-0.6551411272109954,-0.14648166285071137
-9092.013380527496,-1500.0,732.0,-15728.0,1380.0,581.0,-10033.0,-0.05268349950820611,0.9937193435389168,-0.019286021296808033,-0.09682130209149345
-9092.02899312973,-1484.0,-1016.0,-16008.0,2547.0,561.0,-7845.0,-0.2747356183293033,0.8109809402523117,0.5165201647166591,-0.006097049267238773
-9092.04455947876,-428.0,-3724.0,-16280.0,3448.0,2503.0,-13357.0,-0.40403207657795137,0.0808198011520419,0.8860428135027694,0.21249558460812634
-9092.060137033463,1080.0,-15564.0,-20300.0,5451.0,3262.0,-20469.0,-0.148517604190155,-0.8273217147748874,0.47930015173799134,0.2524929029725285
-9092.075768232346,-128.0,-5064.0,-21248.0,22048.0,986.0,18612.0,0.36600472684158986,-0.13145671678362053,0.8470129505914786,-0.3623930643271221
-9092.091361522675,-12192.0,15260.0,-10032.0,10331.0,947.0,-12260.0,0.015548302997406498,-0.39364931424206684,0.2380525985752243,-0.8877665391206375
-9092.106945991516,488.0,6232.0,-17292.0,12558.0,362.0,10392.0,0.7156468396169304,-0.0764495628574545,-0.21699827540249297,-0.6594822315707584
-9092.122522830963,-10728.0,10920.0,-12824.0,10578.0,165.0,-2677.0,0.45991740319556906,0.4667799952136764,-0.6034699686712518,-0.45433073329688217
-9092.138161420822,-7984.0,-1052.0,-18784.0,4880.0,1061.0,-6086.0,0.06218670779267229,0.8450614929855917,-0.41745664645216624,-0.32822832720498435
-9092.15378856659,-3996.0,3884.0,-17076.0,10613.0,558.0,3257.0,-0.4355455350304672,0.5742611152495365,-0.6880505806580752,0.08432471098953287
-9092.169385671616,-4232.0,9540.0,-15684.0,4795.0,2520.0,-10320.0,-0.314368545884306,0.6963302404220907,-0.16225997004882373,0.6244744316239498
-9092.1849629879,768.0,2812.0,-19384.0,7515.0,1807.0,148.0,-0.6246209730573447,0.32319303001460137,0.1564454302070961,0.6934837652996598
-9092.200599908829,224.0,5796.0,-17912.0,8226.0,2140.0,1791.0,-0.792257912038106,-0.1833612441841427,0.3883936485955052,0.43342407486771545
-9092.216186285019,-1616.0,4184.0,-15636.0,5241.0,2976.0,-3218.0,-0.5903889884489195,-0.6591832105200972,0.2830847222629806,0.3698396643249204
-9092.231824159622,-2200.0,-132.0,-15080.0,6494.0,2803.0,2324.0,-0.3025606084204545,-0.8611153890098118,0.40413803061601516,-0.06008175473913547
-9092.247457742691,-5256.0,4452.0,-13420.0,6041.0,3005.0,-3259.0,0.023886157395158054,-0.9372894078170203,0.040306317015245084,-0.34538879293859504
-9092.263082742691,-5088.0,3416.0,-16308.0,5221.0,2826.0,-4441.0,0.25784329810256706,-0.7195111054208062,-0.398391868314312,-0.5070547525275276
-9092.278635978699,-5892.0,4480.0,-18520.0,6025.0,3028.0,-5635.0,0.3903650060564791,-0.20165475589720275,-0.7545275225516793,-0.4874820398564336
-9092.294266700745,-5316.0,3852.0,-18332.0,5602.0,2641.0,-4853.0,0.3760429970843967,0.347145192135795,-0.8148384567890831,-0.27225019606672846
-9092.30985212326,-4328.0,948.0,-14520.0,3354.0,2588.0,-6999.0,0.23755113797100955,0.8272507126685859,-0.48638868813456576,-0.15050501417803827
-9092.325427532196,-1384.0,-1688.0,-14728.0,4859.0,2469.0,-2851.0,-0.04067805961731106,0.9528036795722984,-0.2583352188211893,0.15418611602821958
-9092.340980291367,-2880.0,516.0,-13856.0,2830.0,2338.0,-6511.0,-0.11361423278350508,0.8863107203647745,0.2620366408429138,0.364529713372246
-9092.356573820114,-1232.0,-1540.0,-15416.0,3518.0,2171.0,-1163.0,-0.3730048583723856,0.7078545991419484,0.4142847624366968,0.4337941651485851
-9092.372162342072,-1456.0,1860.0,-16536.0,4019.0,1790.0,317.0,-0.6512576872978346,0.486135495940602,0.45609742735590897,0.36264423486577313
-9092.387790441513,-1848.0,2380.0,-17572.0,3417.0,2224.0,-1551.0,-0.7808584002553924,0.14951026109179497,0.4708921323906878,0.38231850626330344
-9092.403431415558,-3572.0,3032.0,-17584.0,3148.0,2345.0,-4068.0,-0.7016745152759063,-0.2783901190473552,0.4210345407193215,0.5028734748924338
-9092.419048070908,-4344.0,132.0,-16832.0,2643.0,1862.0,-3321.0,-0.5190847842964067,-0.5971458544264745,0.3174914473474934,0.5226538013967013
-9092.434659004211,-4168.0,-64.0,-15252.0,2233.0,1596.0,-4126.0,-0.23730363611531483,-0.812816566456659,0.12123004658754007,0.5179956461056799
-9092.450251102448,-2996.0,-192.0,-14368.0,924.0,2060.0,-6748.0,0.09480928014133833,-0.8466380652454851,-0.3043606543473779,0.4261217888839982
-9092.465848207474,-984.0,-2752.0,-14488.0,2222.0,1723.0,-1693.0,0.35345495443795316,-0.814708200748079,-0.31976815994607777,0.3302551539367579
-9092.481432676315,-108.0,1412.0,-14180.0,1655.0,1806.0,-2071.0,0.5594971671798679,-0.730022619638483,-0.35020510263390225,0.1771617363401247
-9092.497039794922,828.0,992.0,-17792.0,1879.0,1752.0,-1261.0,0.7296240684681017,-0.6083447487620757,-0.306638416253411,0.05948333416396411
-9092.512661218643,-1788.0,824.0,-19344.0,2342.0,1482.0,352.0,0.8662567433425855,-0.4630279625767345,-0.17636959030493646,0.06401662363171885
-9092.528237819672,-4376.0,692.0,-16800.0,1780.0,1255.0,-1216.0,0.9421287082811268,-0.30980384952607554,-0.11795215023741037,-0.05002361548040568
-9092.543802976608,-5016.0,76.0,-16048.0,2163.0,700.0,-1004.0,0.9806047467117933,-0.1161815513895811,-0.09474810340073046,-0.1262496524548664
-9092.559379339218,-4548.0,36.0,-15152.0,361.0,1230.0,-6805.0,0.7869301535064147,-0.013470410197053794,-0.053333786577116744,-0.614585216842091
-9092.574988126755,-788.0,-1344.0,-14596.0,1331.0,1482.0,-4057.0,0.5375316071334327,0.16371883781596397,-0.025817848375656788,-0.8267946251530609
-9092.590678691864,-1444.0,-968.0,-15236.0,332.0,1466.0,-2814.0,0.3208006762770582,0.2810260809187839,0.05707347633369606,-0.9026925757104675
-9092.606268882751,-2112.0,-1052.0,-17248.0,1040.0,1153.0,570.0,0.3309713914050906,0.3999444561313704,-0.00638521797198458,-0.8546704622675402
-9092.62185716629,-4328.0,216.0,-17840.0,1016.0,949.0,-469.0,0.25888413097044355,0.4965511639515093,-0.0380483092648666,-0.8276281015481318
-9092.637444972992,-3608.0,696.0,-17476.0,688.0,916.0,-2048.0,0.08243973038960889,0.5734114396410197,0.021245164524069583,-0.8148322862567775
-9092.653039455414,-2060.0,120.0,-16848.0,719.0,1780.0,2480.0,0.21168866626229835,0.684800202347047,-0.13614423170141837,-0.6838869348188803
-9092.668672084808,-1276.0,856.0,-16344.0,-181.0,1088.0,-4199.0,-0.014237829810706442,0.7448265784201795,0.1361846906628444,-0.653057717441755
-9092.684254646301,1220.0,1464.0,-16072.0,126.0,1410.0,-2806.0,-0.19198456219739615,0.7636656830895978,0.29862783781372815,-0.5392384137205636
-9092.699877500534,-1100.0,-920.0,-17372.0,-1066.0,783.0,-3384.0,-0.2864351069538136,0.6961812203156289,0.5349871676458572,-0.38350406573915563
-9092.715474128723,-440.0,-816.0,-16296.0,223.0,889.0,-137.0,-0.34476883900333455,0.7117653621636622,0.5120482188538956,-0.33515837815110144
-9092.731088876724,-1948.0,-492.0,-15876.0,-192.0,1013.0,-749.0,-0.3973296282594672,0.7094648708178125,0.5305089157165832,-0.23947662501353484
-9092.7466776371,-2356.0,-132.0,-16644.0,750.0,687.0,1001.0,-0.45090440698012674,0.738605122394654,0.42582826345215447,-0.2642309198099285
-9092.762264966965,-2924.0,-732.0,-16312.0,-282.0,680.0,-829.0,-0.47462890291962706,0.731322575514361,0.45692669976966854,-0.17638788533783267
-9092.777854681015,-2124.0,-752.0,-15472.0,370.0,890.0,722.0,-0.519483922644406,0.7544962159511034,0.3663420381234404,-0.16329551534874012
-9092.793494462967,-2344.0,-120.0,-15380.0,-1246.0,921.0,-2218.0,-0.4848796104939261,0.7331962951236899,0.47535648098002203,0.03675829341037898
-9092.80913066864,-1416.0,-1152.0,-16748.0,-410.0,851.0,-114.0,-0.49161202229594514,0.7406874574559422,0.443871645177208,0.11259517089654322
-9092.824796438217,-1524.0,-540.0,-16328.0,-754.0,667.0,-87.0,-0.4657794003227178,0.7603113695708872,0.4119427668713393,0.18782792220177727
-9092.84039258957,-620.0,-360.0,-15824.0,-431.0,428.0,934.0,-0.4654245979377419,0.8007652583971333,0.3240542224529774,0.19272728267959321
-9092.856024503708,-836.0,-720.0,-15228.0,-341.0,746.0,806.0,-0.4736185731293244,0.8209029251280708,0.23058890486668923,0.2205279838376541
-9092.871622800827,-1060.0,-64.0,-15524.0,-430.0,610.0,112.0,-0.4560104470039677,0.8275673265072849,0.1887060084077474,0.2675384733298026
-9092.887269735336,-128.0,648.0,-15352.0,-920.0,875.0,-1278.0,-0.3693570927647522,0.8128860171387116,0.22201811230565283,0.3917902742194692
-9092.902905702591,-472.0,-764.0,-16544.0,-615.0,641.0,-163.0,-0.33137346571169934,0.805318595452365,0.1913377859953833,0.4528172232714125
-9092.918553113937,-1712.0,180.0,-16532.0,-302.0,309.0,381.0,-0.329796148075616,0.8073677210829198,0.14354749684093815,0.46774563580920747
-9092.934181213379,-2160.0,-700.0,-16664.0,-58.0,194.0,1755.0,-0.3949787436911883,0.8136768754331929,0.011817003641955965,0.4263591125358209
-9092.949789762497,-2064.0,424.0,-16308.0,424.0,89.0,1077.0,-0.46271910926945875,0.7929981443065091,-0.05169733222545696,0.3929024750292143
-9092.96537566185,-1916.0,144.0,-16796.0,347.0,199.0,336.0,-0.4966615484634193,0.7700522930693775,-0.07104502283624785,0.3940804193901408
-9092.980953216553,-2132.0,64.0,-16812.0,324.0,-218.0,-105.0,-0.5156749166674529,0.7638897426934325,-0.0434112528307254,0.3855739934895035
-9092.996577739716,-1856.0,-336.0,-16828.0,354.0,-142.0,1101.0,-0.5737162016584656,0.7449363343460504,-0.09803413802609555,0.32605043399316713
-9093.012157201767,-1468.0,60.0,-15844.0,332.0,-118.0,531.0,-0.6102740348282355,0.7262236746580846,-0.11706565998799377,0.29404150732872636
-9093.027796983719,-1520.0,-752.0,-15784.0,276.0,-2.0,1115.0,-0.6529210028702683,0.6969116497755387,-0.1796987688319484,0.23604378597688586
-9093.04343175888,-1024.0,240.0,-15560.0,585.0,200.0,771.0,-0.6984452755297815,0.6452015910244484,-0.2251733743193354,0.2125701190837799
-9093.059013605118,-972.0,-948.0,-16256.0,382.0,232.0,1539.0,-0.7365693954750266,0.5819380241825778,-0.31589904427773247,0.13791829278397671
-9093.07464170456,-1116.0,-260.0,-15692.0,1006.0,246.0,2478.0,-0.7891207227057964,0.43444905094035957,-0.43382837028451393,0.018315356114066126
-9093.090245485306,-1912.0,-820.0,-16076.0,167.0,-133.0,1614.0,-0.7948867854871393,0.3586338587582436,-0.4809563391032175,-0.0906518256105489
-9093.10585308075,-1492.0,-496.0,-15996.0,209.0,-217.0,1636.0,-0.789131575140132,0.27107051100283425,-0.5135919229560232,-0.20003867590006413
-9093.12142944336,-1440.0,-680.0,-16036.0,67.0,-287.0,2125.0,-0.7532222569339296,0.1634993038008348,-0.5361878991643048,-0.3441318731326247
-9093.136992454529,-1936.0,80.0,-16580.0,119.0,-409.0,1942.0,-0.7050478258821343,0.05183820620589141,-0.532890483276245,-0.46502483420763807
-9093.152577161789,-1896.0,-296.0,-17400.0,-93.0,-495.0,2477.0,-0.6122821006917464,-0.07584509955695545,-0.49817418951075915,-0.6092459494744267
-9093.168115615845,-1996.0,296.0,-16428.0,222.0,-525.0,2382.0,-0.4956994098171072,-0.2143475131760827,-0.4561464563455692,-0.7072960123354156
-9093.183747768402,-2068.0,-692.0,-16004.0,-462.0,-490.0,1656.0,-0.4165297833218344,-0.2871395748649895,-0.37124835052550614,-0.7786067469424534
-9093.199362039566,-1472.0,-32.0,-15384.0,-34.0,-437.0,1433.0,-0.3312952625751614,-0.35911672664271777,-0.3147163594056721,-0.8137765287614985
-9093.214955091476,-1384.0,-1208.0,-15196.0,-1068.0,-567.0,44.0,-0.3750866224376313,-0.36788162139831826,-0.22007969166949215,-0.8219112285522904
-9093.230591535568,-772.0,-256.0,-15564.0,-701.0,-267.0,1453.0,-0.29545903352507963,-0.38831340848325807,-0.11342847790435615,-0.8654771150647722
-9093.246188163757,-2028.0,-76.0,-16500.0,-1469.0,-996.0,-15.0,-0.35200645255133745,-0.4207771463630265,0.022320019210585098,-0.835786974774823
-9093.261809825897,-1676.0,-324.0,-16032.0,-1201.0,-626.0,203.0,-0.3773448840304586,-0.42640795874842435,0.13564738450772063,-0.8107939801751468
-9093.277395486832,-1528.0,160.0,-15424.0,-1112.0,-456.0,411.0,-0.3818459475033275,-0.4149265961842373,0.24322911617291562,-0.7892206213727512
-9093.292984247208,-1980.0,-44.0,-16604.0,-1303.0,-396.0,17.0,-0.41644387450065407,-0.3958724825060545,0.34450465094653737,-0.7424122995085556
-9093.30856180191,-2268.0,548.0,-16768.0,-1378.0,-423.0,-612.0,-0.48637212005199765,-0.3881919959826686,0.42424556629021704,-0.6578486410825899
-9093.324165582657,-2272.0,-76.0,-16464.0,-1245.0,-415.0,104.0,-0.503774107833499,-0.35316528513166245,0.5136750601436849,-0.5980166069941665
-9093.339814901352,-2108.0,296.0,-15988.0,-1085.0,-283.0,-337.0,-0.5391661328598117,-0.3337383213560571,0.5695939441249562,-0.5229544462490145
-9093.355416059494,-1716.0,556.0,-16276.0,-1261.0,-181.0,-1152.0,-0.6124665917790759,-0.3362939006390919,0.5956568874620524,-0.3962120123954943
-9093.370974302292,-1140.0,72.0,-16416.0,-1044.0,-158.0,-313.0,-0.6425612119057429,-0.30095602234722274,0.628324003359701,-0.3189819875309568
-9093.386594772339,-1760.0,-4.0,-16424.0,-851.0,-5.0,711.0,-0.6416426540037803,-0.2134914091504845,0.6680588225480086,-0.31050528561957513
-9093.402180194855,-2080.0,596.0,-16420.0,-926.0,-268.0,481.0,-0.6272586973061636,-0.1403123855274773,0.7141833749966437,-0.27713005611042374
-9093.417778968811,-2736.0,292.0,-16552.0,-710.0,-372.0,-2.0,-0.611094822328129,-0.11033491642324111,0.7500700034149995,-0.2275616714621587
-9093.433386087418,-2348.0,884.0,-16516.0,-675.0,-374.0,-797.0,-0.6058691787245036,-0.13334530924584986,0.7723332981192765,-0.13653879811256933
-9093.448989868164,-2712.0,-664.0,-16768.0,-1013.0,-705.0,683.0,-0.5575284946839455,-0.04185581031150962,0.8235947731334614,-0.09540292671539632
-9093.464586019516,-2208.0,-28.0,-16120.0,-765.0,-739.0,1169.0,-0.49253283126747843,0.07254105836691634,0.8621922959678123,-0.09366776258885369
-9093.480174064636,-1464.0,-96.0,-15864.0,-1199.0,-694.0,1392.0,-0.41500151766919424,0.21994842726145838,0.8803140936503709,-0.06665977946260097
-9093.495807886124,-996.0,260.0,-15608.0,-1082.0,-788.0,1199.0,-0.32247369407388626,0.342500014507487,0.8814643978560895,-0.0415327822919931
-9093.511440992355,-1204.0,-796.0,-15480.0,-1623.0,-838.0,2084.0,-0.1959783776110236,0.5301897256284588,0.8249189016406827,-0.00036886704987588797
-9093.527065038681,-1688.0,20.0,-15104.0,-1930.0,-978.0,1420.0,-0.03502308322348205,0.6490533613722068,0.7569506588948182,0.06729649122845091
-9093.542656898499,-2264.0,-132.0,-16424.0,-2176.0,-1171.0,2237.0,0.14656585912476994,0.7781042308294426,0.5963329221936969,0.13213364754015294
-9093.558240175247,-2296.0,116.0,-16048.0,-2567.0,-1394.0,2114.0,0.3519006408133321,0.8312583500375917,0.3867366936360106,0.1887067149929575
-9093.573819875717,-2516.0,512.0,-16512.0,-2555.0,-1542.0,3245.0,0.49992978653201814,0.8286597198652871,0.05786121885196401,0.24504154048609766
-9093.58941245079,-3172.0,812.0,-16716.0,-3318.0,-1585.0,2056.0,0.6605143996053642,0.6836623714951425,-0.21670634847107975,0.2221820160317525
-9093.605030059814,-2308.0,516.0,-16348.0,-3260.0,-1606.0,2775.0,0.7157800740872158,0.44085658175334924,-0.49979714340223813,0.2085837369293568
-9093.620667934418,-1380.0,760.0,-15692.0,-3751.0,-1591.0,3010.0,0.6728907925447251,0.09548922598889072,-0.716544028107906,0.15704917959502718
-9093.636254549026,-780.0,-20.0,-15412.0,-4109.0,-1763.0,3594.0,0.4894624305486972,-0.3096875796351002,-0.8106100588931742,0.0862059425000372
-9093.651857376099,-2216.0,1264.0,-15608.0,-4064.0,-1931.0,4428.0,0.1834181312583625,-0.6849335497016092,-0.7042705158321316,0.035026592017875335
-9093.667468309402,-3548.0,1276.0,-16232.0,-4740.0,-2251.0,3574.0,-0.21822811619735646,-0.8515604531662382,-0.4733246512414929,-0.05643632191579504
-9093.683103561401,-3404.0,1968.0,-16504.0,-4394.0,-2373.0,3218.0,-0.5564237354437191,-0.8102083671772212,-0.14865221666887424,-0.1088923636914414
-9093.698713064194,-3016.0,1796.0,-16412.0,-5173.0,-2384.0,2859.0,-0.8090766543359745,-0.5409804335897894,0.1908280748056402,-0.1277489089874452
-9093.714305400848,-2596.0,1580.0,-15868.0,-5072.0,-2224.0,3970.0,-0.8312743218749905,-0.12190758699803328,0.5087585588547485,-0.18784640218974447
-9093.729945421219,-2608.0,2476.0,-15616.0,-5269.0,-2063.0,3678.0,-0.6335478717150835,0.3357903472856096,0.67568225988326,-0.17121746579758876
-9093.745536088943,-2336.0,2488.0,-16276.0,-5367.0,-1985.0,3936.0,-0.25666628589339513,0.7140535633464924,0.641720349130721,-0.11155680108990342
-9093.76115846634,-2852.0,2920.0,-16360.0,-5068.0,-2225.0,5373.0,0.19606259081242497,0.918109531023124,0.3368503267902763,-0.07187633038562213
-9093.7767496109,-3700.0,2592.0,-15928.0,-5511.0,-2263.0,4850.0,0.6099306953078169,0.7910676972755667,-0.046364279480553626,-0.006840967526943233
-9093.792334318161,-3640.0,3488.0,-15772.0,-5183.0,-2204.0,4665.0,0.8104721164041269,0.4175009015370902,-0.4068352377426746,0.057558970438968196
-9093.807939291,-3700.0,3652.0,-16148.0,-5444.0,-1902.0,4156.0,0.7820655650894127,-0.08949051595273766,-0.6120973976669842,0.07550943798755415
-9093.823503494263,-3800.0,3888.0,-16472.0,-5375.0,-1812.0,5711.0,0.4954173082922836,-0.6132735159633018,-0.5947313644860729,0.157327331887921
-9093.839079856873,-3928.0,4192.0,-16904.0,-5355.0,-1607.0,7757.0,0.014288810865748252,-0.9408183503969427,-0.247703941746768,0.23086666862830663
-9093.85467338562,-4460.0,5572.0,-16264.0,-5556.0,-1501.0,7471.0,-0.4826218477905564,-0.833069568328194,0.19451223646265664,0.1877131754219751
-9093.870256900787,-5292.0,4720.0,-15876.0,-6082.0,-1558.0,8155.0,-0.767621425060582,-0.3074350821360233,0.5605324060002265,0.045215482786044876
-9093.88584947586,-5992.0,4924.0,-15280.0,-6246.0,-1651.0,7724.0,-0.6646306865340024,0.37198081773240715,0.6414471818163686,-0.09187945742280358
-9093.901509523392,-4984.0,4560.0,-15684.0,-6591.0,-1589.0,9319.0,-0.20215122866322116,0.8906929461756896,0.34128969113211116,-0.2220862515100121
-9093.917174100876,-4308.0,5152.0,-15820.0,-7477.0,-1539.0,9518.0,0.41731369000810764,0.8736478922535995,-0.1550553709981146,-0.19633256586032055
-9093.932872772217,-3752.0,5400.0,-17420.0,-7660.0,-2240.0,13242.0,0.7131816282795936,0.22471172214528937,-0.6639499033213416,0.0068653400896689955
-9093.948516130447,-5072.0,7900.0,-17412.0,-8206.0,-3022.0,13361.0,0.4027584335992131,-0.6170065456405313,-0.6524989831862869,0.17701311743006315
-9093.964112520218,-4264.0,8588.0,-16344.0,-9023.0,-2598.0,12273.0,-0.2507025046642412,-0.948748612019623,-0.1324329372590929,0.13959169916167702
-9093.980052947998,-3368.0,8712.0,-14932.0,-9290.0,-2884.0,7264.0,-0.7836671911357485,-0.5452271946290711,0.2875881521555505,0.0767208870782594
-9093.997102737427,-1748.0,3128.0,-15848.0,-10372.0,-1342.0,159.0,-0.9191911441404798,0.1305980290632611,0.23458628086189978,0.28809906658975715
-9094.012750864029,280.0,-680.0,-15932.0,-8889.0,-301.0,1478.0,-0.6670453191487625,0.6928356071392086,0.014674013764561027,0.2735215476005637
-9094.02835726738,-712.0,-1004.0,-16880.0,-7663.0,-62.0,2322.0,-0.2121719864881447,0.9372797938946636,-0.2499962052085761,0.11828581270703065
-9094.04399895668,-912.0,-4092.0,-18068.0,-6253.0,-57.0,4068.0,0.214712160675382,0.8086082573472922,-0.5415351000227576,-0.08240818922428687
-9094.059608697891,-524.0,-4280.0,-17124.0,-1579.0,153.0,3622.0,0.3395031881915512,0.5757043601839169,-0.7401561737900186,-0.07396562224113862
-9094.075284719467,-544.0,420.0,-15372.0,-930.0,323.0,425.0,0.40775548096530767,0.5206004493683216,-0.742795484399187,-0.10471632258835972
-9094.090906143188,-2304.0,-1228.0,-15484.0,-722.0,515.0,-7006.0,0.3487228516311642,0.8120405487001047,-0.3402472993470536,-0.32126981698270163
-9094.10654091835,-1364.0,-4572.0,-16268.0,1428.0,1342.0,-9605.0,0.013543323998959493,0.8954455925818176,0.2592740176466956,-0.36162238989614287
-9094.122163534164,1040.0,-3444.0,-16936.0,4870.0,1939.0,-7554.0,-0.5064621295118291,0.6173573114175429,0.5445685361672099,-0.2565368800510922
-9094.137780427933,-1296.0,-860.0,-17200.0,6966.0,2461.0,-7813.0,-0.8557463888049739,-0.004786638196172974,0.5111633583259401,-0.07992013042389277
-9094.153396606445,-3216.0,-1000.0,-17100.0,9320.0,1801.0,-9539.0,-0.6473923996971257,-0.7220944995354562,0.19964795694181472,0.14001181323015308
-9094.168977022171,-4512.0,-3808.0,-18700.0,12469.0,2260.0,-6725.0,0.11321472893671322,-0.9806554752865698,-0.12447126604373351,0.10002083718770056
-9094.184563875198,-4280.0,60.0,-18272.0,15057.0,2264.0,-4360.0,0.8583566651948314,-0.47154927325851065,-0.20154047922729457,0.015702020182479987
-9094.200157642365,-6608.0,828.0,-18016.0,13356.0,3070.0,-11002.0,0.8067543913463274,0.3921979520955106,-0.22179297673355158,-0.3822773782048507
-9094.215817928314,-6196.0,-1800.0,-19592.0,16378.0,2372.0,-7856.0,0.01583082725615174,0.942109780227153,-0.17621189306908985,-0.2848296256531949
-9094.231442213058,-7968.0,544.0,-18348.0,15423.0,2430.0,-12483.0,-0.7584384418405364,0.6046618489058785,0.23375393964374397,0.06718834807652835
-9094.247076034546,-6484.0,-984.0,-18744.0,16020.0,2362.0,-11757.0,-0.7866425233015536,-0.35242441588667645,0.39348971746782974,0.3196191700567836
-9094.26267361641,-5916.0,-164.0,-17964.0,16987.0,2136.0,-10755.0,-0.018418788449841465,-0.9602338304640787,0.19227915617943572,0.2015948044053891
-9094.278262853622,-4964.0,1104.0,-17424.0,16616.0,2238.0,-11595.0,0.7547886282567013,-0.5982756988419928,-0.24038422891375788,-0.12073001830129128
-9094.293849945068,-4144.0,1232.0,-16644.0,16540.0,2340.0,-11724.0,0.7558646839832588,0.3729119925418557,-0.4273019414584734,-0.32713647939532925
-9094.309525489807,-3816.0,-460.0,-15752.0,16286.0,2542.0,-11664.0,-0.0061892291823431615,0.9647380656392309,-0.17031747162785071,-0.20058443859656713
-9094.325132369995,-3124.0,764.0,-16184.0,17403.0,2313.0,-7653.0,-0.8065333482073137,0.5697481247905509,0.08629647672729589,0.13207554895440102
-9094.340737581253,-4312.0,2268.0,-15484.0,15495.0,2351.0,-9576.0,-0.7856885686239767,-0.32816129133897154,0.30468549723358984,0.42681423099032845
-9094.356318235397,-3224.0,1056.0,-15508.0,14502.0,2389.0,-7309.0,-0.09245003750852851,-0.9192107905411554,0.2700646268184424,0.27123718487477216
-9094.371924877167,-3304.0,1388.0,-15572.0,14886.0,2368.0,-4342.0,0.6775406736544791,-0.7064961256540523,0.1504264071993009,-0.13846933233304198
-9094.38747382164,-5388.0,3584.0,-14568.0,13979.0,2044.0,-4694.0,0.8880187847306178,0.05063711020963951,-0.1140465803236495,-0.4425515772784622
-9094.403111934662,-5452.0,3232.0,-13532.0,12532.0,1259.0,-3127.0,0.47938425034729065,0.7292147282467992,-0.3220516444927197,-0.3670413585775423
-9094.418695926666,-4832.0,2984.0,-13636.0,11139.0,703.0,-1784.0,-0.1900931785634947,0.9026469338455333,-0.3814880641417564,-0.05966534337670385
-9094.434298753738,-4488.0,3536.0,-13844.0,9354.0,198.0,-1884.0,-0.7146414050060219,0.6234315439811002,-0.2191156090826812,0.22936678503367924
-9094.449898958206,-3608.0,3752.0,-15376.0,7839.0,127.0,-2482.0,-0.8847480103511582,0.1459598134950325,0.05264993655242043,0.4394822808773842
-9094.465528011322,-3748.0,4844.0,-15256.0,6860.0,20.0,-2112.0,-0.7551729809981326,-0.33426456130769167,0.28914900730916143,0.484121703083323
-9094.481159448624,-3320.0,6580.0,-13748.0,4814.0,95.0,-3101.0,-0.43470534430743973,-0.6564986474301064,0.35411770534360176,0.5046200950370221
-9094.496752262115,-2924.0,5328.0,-12888.0,2732.0,-10.0,-575.0,-0.24522821718085047,-0.7554944134881891,0.42935228875678777,0.42982313202728695
-9094.51236462593,-2648.0,5964.0,-12128.0,951.0,-808.0,2028.0,-0.22344571323037454,-0.6556746093280509,0.603192552087544,0.395375220553328
-9094.527995347977,-2480.0,4524.0,-16052.0,-1991.0,-1335.0,3396.0,-0.36109453905835703,-0.36868848697146844,0.7097178207172461,0.47956245515395096
-9094.543592214584,-3056.0,2876.0,-16640.0,-3481.0,-597.0,528.0,-0.4373084133933124,-0.19233899380986919,0.5728733087220608,0.6660204465250817
-9094.559220314026,-2720.0,496.0,-18240.0,-4164.0,-504.0,487.0,-0.4787570210928203,0.018851458128674198,0.33641878215581245,0.8107149562537699
-9094.574821472168,-3704.0,-148.0,-18720.0,-3730.0,-758.0,-333.0,-0.40484637716426997,0.20727669695447948,0.09964848001240359,0.88498924413115
-9094.590458869934,-2716.0,-656.0,-17976.0,-3835.0,-657.0,2184.0,-0.4644348968071791,0.3846617593972875,-0.19823400673044794,0.772682881951374
-9094.606088876724,-2176.0,-640.0,-16912.0,-3112.0,-694.0,7477.0,-0.7145197865544801,0.3494535685016124,-0.514721720463925,0.32000816953053923
-9094.621653795242,-2484.0,3772.0,-15812.0,-3270.0,-185.0,10605.0,-0.6601331204390756,0.05906027733796762,-0.659453745275338,-0.3547631671727791
-9094.637233018875,-4504.0,8796.0,-15248.0,-4810.0,-359.0,9608.0,-0.26136055794308666,-0.1662279731135747,-0.3935480375979247,-0.8655511895948464
-9094.652871608734,-6388.0,11548.0,-15700.0,-6069.0,-824.0,10102.0,0.2682887576192841,-0.3042888849649029,0.1600633813816237,-0.8998939553984114
-9094.668503284454,-2012.0,11028.0,-16288.0,-12565.0,1844.0,-1276.0,-0.12792887370517475,-0.31509975891119,0.7723261943478144,-0.5365245518434897
-9094.68409371376,1084.0,-9944.0,-24108.0,-10551.0,1607.0,1235.0,-0.3416708972425561,-0.02836064256553424,0.9355201631098855,0.0851979832248973
-9094.699740886688,-5068.0,-5508.0,-24012.0,-2022.0,1027.0,8702.0,-0.38936999304328596,0.5780478954533681,0.7170526690690658,-0.00933321275510971
-9094.715338230133,-8268.0,8284.0,-17344.0,-5258.0,1623.0,1668.0,-0.20024147307580392,0.7708490785309206,0.5202371604372465,0.3082991201554965
-9094.7309319973,-5104.0,-2760.0,-17612.0,-6849.0,1578.0,3784.0,0.071539909181468,0.8369576544792681,0.04418641536360246,0.540769347041957
-9094.746531009674,-5000.0,-3744.0,-17488.0,1742.0,863.0,11686.0,-0.4245221282451762,0.5925496411243716,-0.5018313643394904,0.46565133651556334
-9094.762149572372,-5512.0,2616.0,-14652.0,-3532.0,1960.0,-1394.0,-0.09301081841167849,0.6604369599971789,-0.6053065683290058,0.43448356455202897
-9094.777722597122,-152.0,-3748.0,-15240.0,-1540.0,1711.0,4985.0,-0.09278389492507616,0.3109785420293644,-0.8702359614286667,0.37063845817204094
-9094.793310880661,-824.0,-76.0,-14920.0,-1077.0,1514.0,4477.0,-0.08595784610032292,-0.06376048957832547,-0.956838003396503,0.27019786068494184
-9094.808908939362,-1280.0,324.0,-16836.0,-2593.0,1525.0,1584.0,-0.009918144781879544,-0.2037561579589674,-0.9784600798142651,0.031637488960852285
-9094.824511766434,-1100.0,-1280.0,-16800.0,-2200.0,859.0,3554.0,0.013354222972378158,-0.47580225319681535,-0.8641376063190361,-0.16340158483577893
-9094.84008693695,-2152.0,-152.0,-16000.0,-1495.0,751.0,4535.0,0.06677781620725476,-0.7452856981996463,-0.602321457667109,-0.2780266407296693
-9094.855712890625,-2800.0,364.0,-15968.0,-1387.0,683.0,3728.0,0.09697122724573151,-0.879874438721731,-0.3039862198425174,-0.3521504384725827
-9094.871294736862,-2800.0,832.0,-16084.0,-1482.0,856.0,1766.0,0.058716284302597704,-0.8927626582649627,-0.1130642572129216,-0.43213852837517774
-9094.886899232864,-2532.0,348.0,-15968.0,-1996.0,925.0,-686.0,-0.1113601548137079,-0.8445877345042283,-0.08482152710603054,-0.5167937530430131
-9094.902460336685,-3320.0,-684.0,-16228.0,-1537.0,884.0,205.0,-0.2063294256556888,-0.7820634070622616,-0.008894692892830087,-0.5879845915337434
-9094.918095111847,-2668.0,-172.0,-16452.0,-1969.0,742.0,243.0,-0.3221525112172249,-0.6971400897052072,0.09377048249636459,-0.633577581243726
-9094.933761835098,-2648.0,136.0,-16324.0,-2045.0,992.0,-638.0,-0.4798180420054285,-0.5781300012587364,0.137278466243727,-0.6455191483731682
-9094.949379205704,-2448.0,352.0,-16160.0,-1673.0,514.0,-714.0,-0.6023839544170352,-0.4814410043828949,0.1717025582351695,-0.6130794094203321
-9094.96498465538,-2228.0,372.0,-16244.0,-1635.0,721.0,-806.0,-0.7145472747533905,-0.36398874274069515,0.1848043854109573,-0.5681388267258534
-9094.980600595474,-1888.0,396.0,-15936.0,-1999.0,786.0,-1268.0,-0.8340013893502614,-0.21604364917173563,0.19028444230328576,-0.4707001755169854
-9094.996255159378,-2428.0,-712.0,-15972.0,-2023.0,663.0,-895.0,-0.9017409561966225,-0.05554713698798955,0.2043541963004643,-0.3768515967120608
-9095.011959314346,-2448.0,128.0,-15820.0,-1907.0,704.0,-1267.0,-0.9447358622678388,0.09300849382836182,0.20148117276323843,-0.24130666721574995
-9095.027553319931,-2504.0,-256.0,-15900.0,-2200.0,595.0,-890.0,-0.9349014940493089,0.26549821495760073,0.2016567774737899,-0.12167349085805026
-9095.043148756027,-2096.0,40.0,-16220.0,-2231.0,574.0,-812.0,-0.8819657886549842,0.4299230896378608,0.19311811761030498,-0.0028066508653641926
-9095.058715820312,-2032.0,24.0,-16104.0,-2509.0,533.0,-136.0,-0.7773565904503493,0.6060758009885883,0.1540595084365062,0.06822406173595016
-9095.074284553528,-2020.0,-40.0,-16304.0,-2528.0,424.0,618.0,-0.6361605348488282,0.7636052045546481,0.075610415830564,0.0805601048648524
-9095.089900016785,-2536.0,508.0,-16212.0,-2207.0,270.0,1226.0,-0.4873941096408877,0.8713445669813382,-0.03573523466008966,0.04391606179131857
-9095.105524301529,-2612.0,200.0,-16180.0,-2802.0,309.0,785.0,-0.2674922927261054,0.9562857238170557,-0.11562462175323289,0.024422010569219405
-9095.121163606644,-2264.0,352.0,-16240.0,-2264.0,305.0,1895.0,-0.07668161347295273,0.9577745194725563,-0.27659903442365724,-0.016759300707345662
-9095.13675236702,-2372.0,368.0,-15980.0,-2168.0,491.0,1984.0,0.11567760938455038,0.895298516756809,-0.4283024224651037,-0.04020312787155562
-9095.15232372284,-2276.0,368.0,-15796.0,-1601.0,475.0,2973.0,0.25748659177614514,0.7377857735076777,-0.6231957088771479,-0.031621446872197534
-9095.167942285538,-2412.0,1160.0,-15920.0,-1105.0,474.0,2990.0,0.3488314603350653,0.531147223714982,-0.7721182961978406,0.005707512322953398
-9095.183532476425,-2048.0,2376.0,-16156.0,-661.0,203.0,2776.0,0.37982252765072233,0.3143216608249993,-0.86838332990536,0.053358536034159264
-9095.199109315872,-2424.0,2104.0,-16560.0,-902.0,235.0,971.0,0.4147214524135471,0.20837626478109175,-0.8854598125402775,0.023374549407740686
-9095.214716434479,-2092.0,1412.0,-16384.0,-567.0,174.0,914.0,0.43436531408466383,0.1163954407801428,-0.8930470533206651,0.01567915307039347
-9095.230287790298,-2148.0,1172.0,-16080.0,-732.0,74.0,454.0,0.4453908824333395,0.053044495584907835,-0.8934576252362586,-0.023381942617734065
-9095.245861768723,-1912.0,832.0,-16196.0,-177.0,24.0,1318.0,0.4474748299313674,-0.056157048097080185,-0.8924208994770627,0.014057051734506025
-9095.261445522308,-1888.0,1148.0,-15864.0,-193.0,-15.0,719.0,0.4432527255405502,-0.119419697903719,-0.8879932736151122,0.02709064539236345
-9095.277023553848,-2348.0,1072.0,-15820.0,463.0,-12.0,1016.0,0.4423620864336982,-0.17938130244877523,-0.8727871059815089,0.10188621324904065
-9095.292606830597,-2212.0,1516.0,-16232.0,313.0,78.0,611.0,0.4466815178403022,-0.21416829596490403,-0.8560237616675718,0.14775277352345434
-9095.308246612549,-2076.0,1664.0,-16396.0,243.0,163.0,150.0,0.4610091954608011,-0.21794951942106083,-0.8435411034617467,0.16854357138512338
-9095.323880910873,-2780.0,940.0,-16344.0,-154.0,152.0,-520.0,0.4760742504408782,-0.18792154230917973,-0.8487106402076955,0.13315048329442492
-9095.3394780159,-1996.0,1080.0,-15928.0,-309.0,209.0,-733.0,0.4934620620522505,-0.14854950406840148,-0.8536015422514064,0.07610942925941057
-9095.355083465576,-2280.0,588.0,-15968.0,-215.0,75.0,-30.0,0.4960817062075622,-0.15607019122283128,-0.8521776874715408,0.057777375792949955
-9095.370675086975,-2168.0,948.0,-15768.0,-157.0,74.0,-140.0,0.49977828156071663,-0.1528261021881599,-0.8516723907055936,0.03898705785270102
-9095.386270046234,-1936.0,844.0,-15968.0,-22.0,74.0,-25.0,0.5047767230472618,-0.15220114304132903,-0.8489953034632577,0.03524551920332325
-9095.401849985123,-2080.0,1424.0,-15964.0,29.0,-255.0,-249.0,0.4865149260227205,-0.13164488254918066,-0.8631842707665006,0.029761827178850158
-9095.417488336563,-2160.0,1072.0,-16268.0,-17.0,63.0,-262.0,0.49132668457651724,-0.11278029444739959,-0.8634831379779146,0.016600139614448114
-9095.433091402054,-2512.0,1476.0,-16120.0,49.0,110.0,-928.0,0.4994992079781414,-0.040780895820498916,-0.8651100964091639,-0.02054217262643521
-9095.448721408844,-2732.0,940.0,-16216.0,103.0,62.0,-820.0,0.501485674797898,0.02566484782508906,-0.8634179071774719,-0.04861019567833664
-9095.464317083359,-2608.0,988.0,-16176.0,177.0,26.0,-597.0,0.4994956202245051,0.07840926357867292,-0.8605839260326915,-0.06124882868876988
-9095.479927062988,-2688.0,736.0,-16284.0,310.0,14.0,-18.0,0.497864530814344,0.09334332834522253,-0.8613510498511033,-0.038630311037466565
-9095.495505094528,-2024.0,768.0,-16208.0,491.0,38.0,224.0,0.4966390278903108,0.09788731496755762,-0.8623796539497359,0.008311558105615409
-9095.511080741882,-2024.0,880.0,-16272.0,374.0,-50.0,265.0,0.4888093907684986,0.09414295913866011,-0.8659968964858024,0.047453746091368744
-9095.52667927742,-2128.0,880.0,-15904.0,413.0,-64.0,747.0,0.4758785311218131,0.0554433870595879,-0.87088526203887,0.10965634870902431
-9095.542264461517,-2412.0,796.0,-15848.0,390.0,-67.0,1011.0,0.456903061222721,-0.004523171954587865,-0.8710850675474294,0.1800831437327383
-9095.557844877243,-2448.0,840.0,-15652.0,472.0,-18.0,712.0,0.4430385292708168,-0.03943918885610884,-0.8618742996474775,0.24358592646352517
-9095.573427200317,-2280.0,1016.0,-15880.0,27.0,-27.0,327.0,0.43372093909379245,-0.06240240158787195,-0.8610273514802437,0.2581162282201213
-9095.589008808136,-2012.0,840.0,-15968.0,398.0,-41.0,632.0,0.4174379047440082,-0.09372200073804791,-0.8485343325262368,0.31136998696862794
-9095.604629278183,-2200.0,936.0,-16252.0,208.0,-54.0,450.0,0.4023004160387549,-0.11791681997854091,-0.8405428575989975,0.3431292808264906
-9095.620251655579,-2076.0,768.0,-16200.0,229.0,-81.0,823.0,0.37280423418645253,-0.16738909571780225,-0.8259182805719191,0.38840299615805474
-9095.635855913162,-2208.0,804.0,-15876.0,37.0,-67.0,536.0,0.3497475820196011,-0.20237305824332652,-0.8182684727944487,0.40885019334632355
-9095.651475429535,-2512.0,708.0,-16340.0,173.0,-137.0,1158.0,0.29991463202065627,-0.27351655662172747,-0.7918102291320518,0.4563731672606919
-9095.667089700699,-2396.0,1060.0,-16060.0,-50.0,-180.0,754.0,0.2554851134024109,-0.3191047729227352,-0.7788830113760606,0.47564772186718846
-9095.682669639587,-2416.0,948.0,-16044.0,61.0,-115.0,621.0,0.22308147829341896,-0.3547294394925901,-0.7606073897050067,0.4958609457557953
-9095.69823718071,-2492.0,1004.0,-16040.0,-124.0,-252.0,33.0,0.20087264803150792,-0.34842280567487094,-0.7697675922043931,0.49569101439335395
-9095.713837862015,-2352.0,976.0,-16112.0,-32.0,63.0,-350.0,0.21902209642963566,-0.3281351832846842,-0.7804582076440384,0.4850171222620386
-9095.729424476624,-2288.0,636.0,-16160.0,-394.0,29.0,-214.0,0.2184506823792919,-0.3221587846597383,-0.8022334117591106,0.4526749053039271
-9095.745020389557,-2184.0,844.0,-16032.0,-419.0,5.0,-211.0,0.21501410107578048,-0.31538759636270813,-0.8240658816580314,0.41858693611518616
-9095.760607004166,-2152.0,924.0,-16104.0,-438.0,81.0,-318.0,0.21997890701879289,-0.30342244740808777,-0.8464594694350382,0.37822012833726476
-9095.776193380356,-2200.0,872.0,-16060.0,-404.0,-18.0,-245.0,0.2156678208427286,-0.2923021567017195,-0.8660079762039342,0.34362337724846104
-9095.791821718216,-2372.0,940.0,-16368.0,-360.0,-224.0,225.0,0.18244856557514602,-0.3091520026554354,-0.874619874432137,0.32584909915790544
-9095.80745601654,-2452.0,1276.0,-15928.0,-509.0,-230.0,-542.0,0.16599553354246205,-0.26878360733479345,-0.9053870580490647,0.2836813888666449
-9095.823087453842,-2456.0,1076.0,-16080.0,-669.0,169.0,-885.0,0.1844779704776633,-0.21176576559115376,-0.9358667558390972,0.21278288053139663
-9095.838691949844,-2464.0,740.0,-16096.0,-790.0,112.0,-1255.0,0.20040294120175534,-0.12306623583365975,-0.9639154622032813,0.12474110982693082
-9095.854298830032,-2312.0,904.0,-16140.0,-564.0,73.0,-493.0,0.20512817781417744,-0.09206970118859803,-0.9720473449205522,0.06759852086090662
-9095.869863271713,-2280.0,1192.0,-16044.0,-836.0,189.0,-1084.0,0.2189512311834439,-0.016081743775102467,-0.9753037002217958,-0.02417495013603189
-9095.88544678688,-1972.0,1024.0,-15876.0,-611.0,307.0,-1156.0,0.23982557913687014,0.07080840707867149,-0.9632539821206365,-0.09803890558029708
-9095.901015281677,-2284.0,1204.0,-15972.0,-891.0,400.0,-2015.0,0.2565546926579634,0.22081993169926273,-0.9175434768584212,-0.2086437526360925
-9095.916741132736,-2456.0,560.0,-16196.0,-667.0,139.0,-1352.0,0.25344548538546474,0.3139972739694513,-0.8687898714112706,-0.28701090085686176
-9095.932364225388,-2804.0,488.0,-16340.0,-578.0,42.0,-320.0,0.26376903406593105,0.32605613562788555,-0.8433257724168735,-0.33602817540322305
-9095.947985887527,-2444.0,1000.0,-16080.0,-539.0,2.0,-101.0,0.2757499370421943,0.32085531519592875,-0.8237863590670615,-0.37734582752003687
-9095.963591814041,-2304.0,1424.0,-16008.0,-395.0,66.0,-341.0,0.2798181124247728,0.3377684520838509,-0.7989392134977473,-0.41147348623151575
-9095.97924041748,-2440.0,1156.0,-15896.0,-472.0,138.0,-722.0,0.2764241845536419,0.38052777823762035,-0.7552921459827047,-0.4564231089682417
-9095.994849443436,-2216.0,972.0,-16044.0,-421.0,77.0,-410.0,0.2785989596624335,0.400035421256524,-0.7222361394336395,-0.49064166181758107
-9096.010532855988,-2312.0,1032.0,-16148.0,-604.0,26.0,-417.0,0.2827230897156309,0.4120215192343707,-0.6799481514427033,-0.5366343574344631
-9096.026165246964,-2284.0,888.0,-16108.0,-557.0,27.0,-163.0,0.296188657086214,0.4088236990776187,-0.6466707578493625,-0.5717975108624458
-9096.041796207428,-2296.0,1052.0,-16328.0,-503.0,-10.0,60.0,0.31611343561238076,0.39169772846191914,-0.6235331244926791,-0.5982070109949459
-9096.057381629944,-2296.0,1004.0,-15968.0,-395.0,-57.0,346.0,0.3440726663867752,0.35876639986288766,-0.6158367210812018,-0.6112657388917455
-9096.072972536087,-2416.0,1180.0,-16124.0,-368.0,-112.0,430.0,0.3719014070694132,0.3183792854102818,-0.6124441269828028,-0.6206739605990422
-9096.088570833206,-2436.0,1124.0,-16212.0,-412.0,-85.0,513.0,0.40577190450919143,0.27267515017063954,-0.6063258568639206,-0.627189269111514
-9096.104171276093,-2352.0,1264.0,-16044.0,-523.0,-71.0,292.0,0.4297074387483496,0.2346332740719112,-0.5865667851706251,-0.6451652116452238
-9096.119875192642,-2272.0,1056.0,-15956.0,-471.0,-28.0,555.0,0.4680867115655027,0.18674221944543795,-0.5715381537856952,-0.6475849849244689
-9096.135477781296,-2340.0,1264.0,-16080.0,-471.0,-72.0,300.0,0.4884010795588175,0.14841638564408854,-0.552325726008223,-0.6590699919944895
-9096.151089191437,-2268.0,1188.0,-16044.0,-236.0,-73.0,661.0,0.5248306875543034,0.10221934338644602,-0.5496344833177934,-0.6418768495489641
-9096.166682243347,-2348.0,1452.0,-16032.0,-302.0,20.0,349.0,0.5474527426896498,0.07280796736173675,-0.5347415852955418,-0.6395669873952556
-9096.18227481842,-2452.0,1188.0,-16120.0,-301.0,-17.0,423.0,0.5714608108680373,0.03778825564101388,-0.521174867316089,-0.6327569415310366
-9096.197848558426,-2440.0,1500.0,-16044.0,-331.0,38.0,5.0,0.5741803967522042,0.023217886920738937,-0.5010822332949396,-0.6470659913707201
-9096.213443279266,-2480.0,904.0,-16164.0,-429.0,28.0,324.0,0.593791784101848,-0.01078912396744986,-0.4758692304006332,-0.6487244310915603
-9096.229028463364,-2088.0,1272.0,-15984.0,-325.0,-55.0,508.0,0.6189774328441283,-0.051722848433682626,-0.45949096060777617,-0.6348698620184627
-9096.244601249695,-2260.0,1212.0,-16052.0,-252.0,-35.0,470.0,0.6416584315111433,-0.08600643217257066,-0.4451083495529191,-0.6186726986491974
-9096.260176897049,-2416.0,1412.0,-16032.0,-316.0,10.0,254.0,0.6528588074627911,-0.1129548149787543,-0.42561028708763693,-0.6163379517898901
-9096.275791406631,-2212.0,1416.0,-15892.0,-78.0,-7.0,538.0,0.6798826476175641,-0.137623392492178,-0.416337890578099,-0.5877772947098707
-9096.291415691376,-2456.0,1456.0,-16076.0,-302.0,-255.0,-252.0,0.6533906182287882,-0.1593691164823569,-0.4189436896500574,-0.6100560381019362
-9096.307003498077,-2336.0,1284.0,-16036.0,-43.0,21.0,395.0,0.674062444005536,-0.17509502486197953,-0.41000483929710096,-0.5889631445199477
-9096.322665452957,-2376.0,1452.0,-15980.0,-139.0,51.0,-252.0,0.6604719181108457,-0.1716431769181008,-0.4038659890790221,-0.6092681905939824
-9096.338254213333,-2392.0,1252.0,-16068.0,68.0,24.0,142.0,0.6697016632146119,-0.171503446168268,-0.40421845095546993,-0.5989104224733035
-9096.353832006454,-2352.0,1300.0,-16036.0,-35.0,11.0,-203.0,0.658726984879747,-0.1658533296649739,-0.40500513255812237,-0.6119985907106785
-9096.369399785995,-2428.0,1268.0,-16052.0,44.0,-10.0,32.0,0.660590962367859,-0.16504918707357183,-0.40774936872915907,-0.6083738970281608
-9096.384983301163,-2408.0,1236.0,-16012.0,14.0,-35.0,356.0,0.6779965914954826,-0.17874321499457413,-0.405472180758693,-0.5864842671757707
-9096.400549650192,-2404.0,1184.0,-16152.0,-18.0,-52.0,473.0,0.6993588813044078,-0.19911041553889372,-0.40018740763695265,-0.5577653954248075
-9096.41612458229,-2372.0,1320.0,-16028.0,-137.0,2.0,317.0,0.7120302820131799,-0.21843577207210652,-0.3879912896629981,-0.5429193771833324
-9096.431721925735,-2324.0,1272.0,-16088.0,-168.0,3.0,402.0,0.7273261194404947,-0.24227782338413908,-0.3721850336242785,-0.5232365363981852
-9096.447297096252,-2456.0,1276.0,-15980.0,-160.0,253.0,288.0,0.7447023794394715,-0.25020102107577874,-0.3427696415394399,-0.5150988137714463
-9096.46287202835,-2348.0,1420.0,-16008.0,-147.0,70.0,-241.0,0.7323956195972015,-0.24946113196390918,-0.3370239351864347,-0.5364519243562895
-9096.478449583054,-2344.0,1448.0,-15992.0,-194.0,113.0,-281.0,0.7178688048740152,-0.2483265303458085,-0.3269348703412715,-0.5622382981175345
-9096.494020223618,-2544.0,1188.0,-16228.0,-254.0,101.0,-187.0,0.7056639919103913,-0.2539932264883286,-0.3123219923596252,-0.5830786778022792
-9096.509616613388,-2484.0,1284.0,-16184.0,-308.0,74.0,-78.0,0.696493814353092,-0.26711899891352564,-0.2939547256165958,-0.5976072508554329
-9096.525197505951,-2424.0,1220.0,-16244.0,-382.0,65.0,79.0,0.6928588593509107,-0.2889781513568238,-0.2683218077673898,-0.603690016924073
-9096.54077219963,-2456.0,1392.0,-15888.0,-387.0,58.0,-226.0,0.6719230969862615,-0.30398817306058323,-0.25015695002851696,-0.6273213233488161
-9096.556349515915,-2352.0,1336.0,-15932.0,-407.0,26.0,-114.0,0.6549029503022284,-0.32393050299143683,-0.22942984256542442,-0.6430653950085917
-9096.571979284286,-2236.0,1500.0,-15904.0,-451.0,118.0,-45.0,0.6413549588513623,-0.34212166843339303,-0.19867885031298357,-0.6573760683075023
-9096.58755683899,-2352.0,1632.0,-16016.0,-508.0,151.0,-456.0,0.6014281037796219,-0.35356888848589973,-0.1745478846238734,-0.6948426534491279
-9096.603134155273,-2400.0,1316.0,-15916.0,-467.0,155.0,-295.0,0.5706861066372004,-0.36398889482413715,-0.14716120855786877,-0.7212302204093815
-9096.618777275085,-2380.0,1640.0,-15892.0,-661.0,508.0,-879.0,0.4980262077352772,-0.3519504013608324,-0.10771410628056259,-0.7851741734793289
-9096.634351968765,-2280.0,1236.0,-16088.0,-492.0,214.0,-429.0,0.45464380657443093,-0.35428419957306884,-0.07784292114276704,-0.8134630874872825
-9096.649940729141,-2376.0,1672.0,-16108.0,-606.0,300.0,-1012.0,0.3639858589844637,-0.3484818685977254,-0.05399872590846173,-0.8620665979599504
-9096.66551566124,-2212.0,1388.0,-16132.0,-460.0,499.0,-901.0,0.28314183421072303,-0.3200564954181012,-0.030866532932197176,-0.9035716897984444
-9096.681089639664,-2652.0,1244.0,-16132.0,-479.0,160.0,-831.0,0.20389057146868908,-0.3161998964720113,-0.012363261125180392,-0.9264412610152958
-9096.69671535492,-2380.0,1404.0,-15904.0,-5.0,104.0,-251.0,0.18348508484759632,-0.3078254693264827,-0.017081034246871126,-0.9334264525614528
-9096.71229171753,-2496.0,1512.0,-15908.0,-306.0,163.0,-383.0,0.14412692245175648,-0.2988728775571865,0.00010202489244433216,-0.9433463960159036
-9096.72793841362,-2332.0,1588.0,-16048.0,-223.0,117.0,-475.0,0.09906409758130731,-0.2920327891192911,0.007482807044526727,-0.9512345463913425
-9096.74351978302,-2396.0,1312.0,-15956.0,-364.0,127.0,-338.0,0.06155987838807434,-0.28487965378487673,0.030117671711650255,-0.9561102917984532
-9096.75909614563,-2272.0,1440.0,-16196.0,-226.0,87.0,53.0,0.06010108670764801,-0.278939988184464,0.05073477037953624,-0.9570821936713412
-9096.774671316147,-2552.0,1344.0,-16020.0,-431.0,102.0,-240.0,0.029067001143355083,-0.2737858520803627,0.08137111682792297,-0.9579014343821283
-9096.79024553299,-2292.0,1356.0,-16016.0,-225.0,47.0,117.0,0.03311903634937369,-0.2698307265152656,0.1031317259593247,-0.956795879778014
-9096.805822134018,-2488.0,1380.0,-15944.0,-264.0,73.0,147.0,0.03849823718310883,-0.26336916450689957,0.12889761013819415,-0.9552695823804885
-9096.821410655975,-2400.0,1472.0,-15992.0,-197.0,70.0,285.0,0.056909956317465774,-0.25514597334634437,0.1521631856077462,-0.9531569409613473
-9096.836981773376,-2460.0,1504.0,-16124.0,-162.0,85.0,213.0,0.06986756647485325,-0.24623653957799455,0.17091496444811136,-0.9514589663560051
-9096.85257101059,-2340.0,1504.0,-16316.0,-119.0,65.0,389.0,0.09857521630272341,-0.23585407957514645,0.1896150482836584,-0.9479988994418811
-9096.868129253387,-2360.0,1688.0,-16092.0,-171.0,149.0,156.0,0.10546221071361067,-0.22257661060351389,0.20840215133303008,-0.9465230677819821
-9096.883724451065,-2464.0,1580.0,-16084.0,-232.0,142.0,-203.0,0.08156874797553329,-0.21677521363882493,0.22506530195443789,-0.9464146321574404
-9096.899297237396,-2216.0,1504.0,-16048.0,-127.0,112.0,30.0,0.0794368002434656,-0.20800451398337913,0.23713466973711048,-0.9456167645184222
-9096.914896249771,-2296.0,1780.0,-16012.0,-147.0,132.0,102.0,0.08244090117795626,-0.1961573251717608,0.25223434500679526,-0.9439828583154567
-9096.930572986603,-2344.0,1448.0,-16088.0,38.0,51.0,298.0,0.10648805067900013,-0.18520686689517496,0.25475008040259756,-0.9431124577972289
-9096.946157455444,-2408.0,1572.0,-15980.0,-1.0,129.0,168.0,0.1174178347592244,-0.17096903613111647,0.25897819383622367,-0.9433519681869434
-9096.96178650856,-2452.0,1704.0,-15964.0,95.0,85.0,13.0,0.11798454233602884,-0.16281037812287508,0.25249085214553835,-0.9464781022971763
-9096.977378606796,-2448.0,1484.0,-16116.0,0.0,110.0,-53.0,0.1111851213147709,-0.15499273773810998,0.2531455444950276,-0.9484368473171955
-9096.992964029312,-2392.0,1536.0,-16028.0,46.0,146.0,9.0,0.10932634920429155,-0.1423529772408834,0.25114648390804317,-0.9511618279036144
-9097.008558750153,-2460.0,1380.0,-16132.0,-89.0,103.0,-165.0,0.0922621342308721,-0.13832912408413503,0.2577213961303771,-0.9518048297807119
-9097.024176359177,-2292.0,1392.0,-16024.0,47.0,46.0,227.0,0.11063866871441178,-0.12908146827269354,0.25717292096554945,-0.9512934080796078
-9097.03984284401,-2308.0,1316.0,-15984.0,-65.0,236.0,401.0,0.13779607981182806,-0.1011018638529437,0.26944233000462986,-0.9477296472705861
-9097.055458068848,-2076.0,1440.0,-15692.0,13.0,74.0,186.0,0.15154005854624147,-0.09047535238556319,0.27116701028902457,-0.9462125943980149
-9097.07105088234,-2296.0,1484.0,-16016.0,-43.0,80.0,126.0,0.15970761264868033,-0.08146394023413812,0.2770575268726157,-0.9439789360503855
-9097.086637973785,-2332.0,1320.0,-15960.0,96.0,130.0,128.0,0.1677753892547548,-0.06631270485293696,0.2721410672047425,-0.9451948388962811
-9097.102216482162,-2444.0,1564.0,-16040.0,-6.0,88.0,-40.0,0.16235805117542929,-0.060065610076649,0.27399639672977466,-0.9460221774798604
-9097.117792844772,-2488.0,1408.0,-15908.0,42.0,60.0,-242.0,0.1411439676556731,-0.06025602021965246,0.2703582813649793,-0.9504493632588102
-9097.133363485336,-2520.0,1608.0,-16116.0,173.0,94.0,72.0,0.1458002996421928,-0.048587587869363194,0.25781545609446804,-0.9538934476806542
-9097.14892745018,-2776.0,1576.0,-15996.0,186.0,197.0,-477.0,0.10235157573345074,-0.04044434899131522,0.24284861968882818,-0.9638013060246283
-9097.164521694183,-2328.0,1636.0,-15928.0,229.0,310.0,-669.0,0.0402481591102288,-0.026383951955012915,0.22380034793456388,-0.973446134632955
-9097.180098056793,-2400.0,1548.0,-16180.0,114.0,416.0,-996.0,-0.0519698058842604,-0.009966070153348232,0.21263990072713596,-0.9756967199600521
-9097.195711135864,-2216.0,1776.0,-16132.0,-190.0,330.0,-1052.0,-0.14710697556362826,-0.0004173371746155299,0.2256327391077843,-0.963041655699754
-9097.21131515503,-1824.0,900.0,-16612.0,-155.0,215.0,-419.0,-0.18635561435909348,0.011462580362452407,0.23597226642156205,-0.9536546983726082
-9097.226917743683,-1852.0,1168.0,-15936.0,-108.0,72.0,370.0,-0.15681003130955068,0.02691416949321275,0.2435787907350132,-0.9567421879823512
-9097.242496728897,-2384.0,1116.0,-16048.0,29.0,-80.0,928.0,-0.07740056359110245,0.03957246765273745,0.23956771912049873,-0.9669800827912923
-9097.258078336716,-2636.0,1768.0,-16124.0,51.0,111.0,306.0,-0.054014135007532015,0.05514467170782933,0.23362612809693303,-0.9692576389547101
-9097.273647069931,-2680.0,1312.0,-15580.0,120.0,140.0,20.0,-0.05571122085065915,0.06701239412998855,0.22294614512941155,-0.9709277085737288
-9097.289206266403,-2696.0,1524.0,-15628.0,174.0,306.0,-264.0,-0.08495215872584712,0.08710780874946035,0.20834380236091649,-0.9704577375653621
-9097.304772138596,-2600.0,1528.0,-15600.0,51.0,443.0,-1078.0,-0.1837026946128378,0.10434593121591178,0.20807482919991088,-0.9550236186001342
-9097.320371389389,-2280.0,1412.0,-16264.0,170.0,337.0,-1412.0,-0.30652786495856715,0.10346693719341613,0.19995861670588402,-0.9248523193012089
-9097.335996389389,-2072.0,1308.0,-16664.0,119.0,1.0,-1703.0,-0.4401705917936559,0.07010710267146673,0.2036788359622103,-0.8716936251092549
-9097.351578474045,-2016.0,1028.0,-16176.0,579.0,-147.0,-851.0,-0.5037279531325275,0.021662420316162456,0.17004672484677363,-0.846683530103099
-9097.367175340652,-2228.0,2316.0,-15928.0,-202.0,-566.0,-2897.0,-0.686464509453665,-0.05240087268192872,0.20874898266261907,-0.694582239939975
-9097.382785320282,-2212.0,1608.0,-16064.0,906.0,-225.0,-1813.0,-0.7758909123902988,-0.15106758870763978,0.15685011568451832,-0.5920894501018931
-9097.398357152939,-2412.0,2692.0,-16220.0,1030.0,95.0,-2980.0,-0.884632461937232,-0.24777591607945254,0.0559108933739887,-0.3910325749857452
-9097.414012908936,-2420.0,1532.0,-16424.0,961.0,254.0,-3805.0,-0.9409650350744312,-0.3141787990523476,-0.07453495389254425,-0.10159244874317935
-9097.429602384567,-2304.0,1120.0,-16444.0,2138.0,-211.0,-1804.0,-0.8737573216793662,-0.4663571199717402,-0.12213675551050956,0.06435675890480289
-9097.445204257965,-2280.0,1752.0,-16456.0,2525.0,-418.0,-1761.0,-0.738697113278836,-0.6157659497265423,-0.14269193150467946,0.23408947578724631
-9097.460744857788,-1896.0,1748.0,-16508.0,3586.0,-653.0,-876.0,-0.5094426692181931,-0.7820780513363647,-0.07078882882992661,0.351867915716458
-9097.476335048676,-2400.0,1568.0,-16608.0,4178.0,-731.0,-1805.0,-0.16066418775285704,-0.8668512402643133,-0.030818410182724392,0.4709630257459133
-9097.491956949234,-2040.0,2756.0,-16288.0,5555.0,-897.0,-2701.0,0.32332741515244645,-0.7910432303510165,0.005058732241835848,0.5193114668046253
-9097.507546186447,-2212.0,1760.0,-16976.0,6416.0,-992.0,-2794.0,0.7602268521216727,-0.48220321199189864,0.06383320328842873,0.4306512716988149
-9097.523148059845,-2416.0,3640.0,-16472.0,6771.0,-816.0,-5970.0,0.9992535439753681,-0.028107276238182724,0.010245435844259262,0.024441090800098167
-9097.53873538971,-2908.0,172.0,-17544.0,7373.0,-1138.0,-5900.0,0.793319072108291,0.4708592821292984,-0.06726842537405918,-0.380014927614188
-9097.554322957993,-2948.0,-608.0,-18636.0,8941.0,-1085.0,-3858.0,0.22150022548104575,0.8183034159298952,-0.21304876974083872,-0.48572357499016455
-9097.569948673248,-2120.0,900.0,-19196.0,9500.0,-1486.0,-3305.0,-0.46725395958400584,0.748368752545664,-0.3055169666805465,-0.35815824789697737
-9097.585548877716,-2516.0,960.0,-20604.0,10743.0,-1099.0,-2150.0,-0.912328133007799,0.24048053689312948,-0.32895662921821933,-0.040174932376830036
-9097.601167440414,-3448.0,328.0,-23092.0,12164.0,-1182.0,-1464.0,-0.822213425592743,-0.470150894781443,-0.16834941464909145,0.27309649118683954
-9097.616791725159,-3488.0,1788.0,-23304.0,12457.0,-1188.0,-3162.0,-0.16801418275952182,-0.8560002716998156,0.05570552987810329,0.4857279724109902
-9097.63234448433,-3552.0,1528.0,-26016.0,12878.0,-851.0,-1824.0,0.5780295753284904,-0.6719856252271529,0.3154622056224971,0.338822558808334
-9097.647957086563,-5692.0,3916.0,-26244.0,14417.0,-887.0,-2408.0,0.9361243694807433,0.009243768529338314,0.3426408529106752,-0.07863182259303104
-9097.663546323776,-6652.0,3896.0,-25388.0,14353.0,-1909.0,-3690.0,0.5819199805504955,0.6440843199090261,0.05567855412253119,-0.4933806073350093
-9097.67911529541,-4224.0,2452.0,-22496.0,13258.0,-1284.0,-7905.0,-0.29586770651855304,0.7278615108299038,-0.0808787767052705,-0.6133013490695418
-9097.694728851318,-1704.0,2892.0,-19888.0,14907.0,-856.0,-3726.0,-0.8648761741291316,0.19332261350384472,-0.3703089728986146,-0.27836457231941725
-9097.71033334732,-1172.0,5812.0,-14548.0,10264.0,1420.0,-10518.0,-0.7648879289421613,-0.12689614868420515,-0.33701901099283726,0.5340992509235498
-9097.725997686386,3904.0,2384.0,-13072.0,6584.0,4913.0,-18652.0,0.1578425591506192,-0.12102241635551973,-0.27681407170017014,0.9401134351603679
-9097.741593837738,7096.0,5068.0,-10796.0,6729.0,7430.0,-12570.0,0.8356596844536953,-0.19387484189365,0.1420643966324084,0.49386551273492696
-9097.757182359695,1520.0,13052.0,-8480.0,1230.0,6460.0,-10412.0,0.8345581775272406,-0.3484260337146886,0.3339664737186304,-0.2656658461003315
-9097.772768497467,-2020.0,8908.0,-9744.0,-5755.0,4419.0,-5644.0,0.31181798423368845,-0.6471155984889593,0.48190931531140146,-0.5017712214912404
-9097.788348436356,-1504.0,8264.0,-7788.0,-4008.0,3642.0,10462.0,0.272128077267194,-0.10925217503529674,0.9394945585372534,-0.17708824436367376
-9097.80396938324,-7300.0,11340.0,-6100.0,-9133.0,1640.0,8337.0,0.12137452056260993,0.2589806861238289,0.8110516441295038,0.5102866454531769
-9097.819557905197,-5968.0,9368.0,-8672.0,-12837.0,702.0,9382.0,-0.03259281479848305,0.44159943889607234,0.020416682064573106,0.8963876410815022
-9097.835124254227,-6504.0,8452.0,-9656.0,-15066.0,255.0,10821.0,-0.15705574161328187,0.25428234802554084,-0.8281726763045114,0.47413500158872757
-9097.850694417953,-7084.0,7732.0,-11000.0,-18231.0,-536.0,9095.0,-0.08211753547692643,-0.06422970247643701,-0.8708182560614807,-0.48042358455536494
-9097.866270542145,-6788.0,5416.0,-12332.0,-20247.0,-1073.0,9903.0,0.06244243742674922,-0.32450743043828656,0.018600198155778534,-0.9436365307824369
-9097.881830215454,-6704.0,2956.0,-14088.0,-22418.0,-1687.0,10241.0,0.11513764090843234,-0.23946895941539062,0.9028292699837032,-0.3380787635792058
-9097.897418260574,-6108.0,1124.0,-15844.0,-23217.0,-2169.0,12393.0,0.06628267862108257,0.1750222303286348,0.7264401493070125,0.661255272100276
-9097.913009881973,-6060.0,-108.0,-17144.0,-23393.0,-2235.0,13368.0,-0.08043453794704145,0.396576458173467,-0.3279922642451137,0.8536266587467837
-9097.928766489029,-7284.0,-1424.0,-18272.0,-23917.0,-2999.0,13062.0,-0.1201671492871877,0.15967192547210912,-0.9797750387857181,-0.010276469270347696
-9097.944361925125,-7256.0,-3576.0,-19936.0,-23115.0,-3516.0,16356.0,-0.03139787015128867,-0.3725292878385999,-0.42858706983218553,-0.8225261254362015
-9097.959998607635,-7192.0,-2984.0,-19100.0,-22407.0,-3814.0,16510.0,0.10673005885746442,-0.4542003586088448,0.6522531268567795,-0.5973914857791607
-9097.975580453873,-6004.0,-2728.0,-19776.0,-22797.0,-3463.0,13920.0,0.04931067663105965,-0.02144534091321961,0.9239628156621974,0.37868360117238636
-9097.991181850433,-4248.0,-2932.0,-22860.0,-22868.0,-2162.0,9608.0,-0.057132159861077565,0.30367742451465984,0.0740156260773048,0.9481759463549664
-9098.006791353226,-3544.0,-4604.0,-23304.0,-21694.0,-759.0,4152.0,0.08244011609527915,0.23094836359250964,-0.8411116769323929,0.48207637106595125
-9098.022428035736,-2500.0,-5928.0,-20780.0,-19367.0,173.0,1324.0,0.21836958135532497,-0.006525227195734191,-0.8546478674468161,-0.47100867297466387
-9098.038024425507,-2828.0,-6596.0,-19356.0,-16279.0,30.0,1671.0,0.16056915453563222,-0.25250492448514517,-0.10559293686310456,-0.9483190082493801
-9098.053615093231,-4100.0,-4884.0,-18184.0,-13793.0,-457.0,2084.0,0.015804504675880654,-0.31921183485849014,0.6824416044894478,-0.6573640380946421
-9098.069207429886,-4036.0,-3736.0,-18752.0,-12430.0,-690.0,1369.0,-0.14225148762879952,-0.19873311667242255,0.9671195768187721,0.07035187800576236
-9098.0848031044,-3540.0,-4248.0,-19868.0,-10638.0,-535.0,416.0,-0.20787583255358807,-0.020701418721138225,0.6705162181843678,0.7118757550688308
-9098.100382566452,-2296.0,-4908.0,-17608.0,-8367.0,302.0,-1909.0,-0.09763069294591614,0.0004795042603658877,0.11362763541563853,0.9887147102882686
-9098.11603474617,-4692.0,-4348.0,-18156.0,-4958.0,198.0,-6133.0,0.3540450072796191,-0.029234171734040228,-0.25999183578283924,0.8978873767626251
-9098.131588220596,-188.0,-3908.0,-18064.0,-3120.0,330.0,-4745.0,0.649634469013456,-0.03931522613238006,-0.4538018935832154,0.6086815349951507
-9098.147205352783,-972.0,-2412.0,-17548.0,1318.0,-685.0,240.0,0.608941486325086,0.061684475408994244,-0.4185036768969806,0.6709992281287812
-9098.162802696228,-2816.0,-532.0,-16644.0,119.0,484.0,-4635.0,0.8311581594998895,0.19353959389385686,-0.3345435311139793,0.3997488777744689
-9098.178396701813,-1964.0,-908.0,-17468.0,758.0,1590.0,-7726.0,0.9328870115089483,0.3444287865329234,-0.051444273789346774,-0.09189190094697292
-9098.194011211395,-2392.0,-880.0,-17784.0,3058.0,1731.0,-8406.0,0.6114428852948125,0.5050726215698286,0.24861090425747837,-0.5560862012738805
-9098.209580659866,-2252.0,-64.0,-17696.0,5853.0,1770.0,-8378.0,-0.06792144672603904,0.5350683697146378,0.31761092975996774,-0.7798793586847714
-9098.225188493729,-2256.0,-852.0,-18248.0,6632.0,3296.0,-15787.0,-0.8475758977485331,0.15528431078197383,0.32072414860023873,-0.3932402584748762
-9098.240776062012,2532.0,-876.0,-18816.0,11024.0,2490.0,-8188.0,-0.8552206718655193,-0.5100700384361232,-0.08282089487869101,-0.03958355308905912
-9098.25637292862,-4960.0,11008.0,-14832.0,11960.0,3230.0,-18032.0,-0.16783243562043618,-0.5852547593398975,-0.5418500928645299,0.5794028107339585
-9098.27200627327,1512.0,12800.0,-13712.0,5064.0,1984.0,-13042.0,0.5316969830967928,-0.090142110052603,-0.6179131220471744,0.5721504100871965
-9098.28760099411,84.0,12436.0,-14912.0,7117.0,2238.0,2909.0,0.46157533207477464,-0.023312154427674286,-0.11140299038032031,0.8797693618274758
-9098.303225517273,-6488.0,10200.0,-19184.0,26.0,1509.0,-11022.0,0.9489103427005899,-0.02227221591052692,-0.05075527311247915,0.31063968221327
-9098.318851947784,-11996.0,-10348.0,-31060.0,6664.0,-356.0,-7672.0,0.8739178218004453,0.4285472758576858,0.06404070209836862,-0.22025817026677927
-9098.33445072174,-9992.0,6720.0,-20956.0,16143.0,2177.0,3490.0,0.1841968417496553,0.9753907386196263,-0.11934427793781767,0.021008898781541493
-9098.350051403046,-7436.0,12024.0,-10600.0,7044.0,3099.0,-12314.0,-0.22330583503905804,0.7502507838170182,0.6143536087824756,0.09913580985399746
-9098.365640640259,-1280.0,948.0,-12256.0,9273.0,2406.0,2762.0,-0.7416953411122508,0.5257754557207327,0.35227196157370483,-0.22215457731735364
-9098.381198883057,-28.0,796.0,-12748.0,8838.0,1968.0,2149.0,-0.9051461068951275,0.04514733335911151,-0.03486773033988119,-0.42125584250441095
-9098.396768808365,892.0,2356.0,-15060.0,6197.0,2159.0,-1450.0,-0.8420214294708314,-0.31118304948014425,-0.3689290757444718,-0.2409488723743391
-9098.412334918976,-1572.0,2656.0,-14028.0,5168.0,2352.0,-701.0,-0.5730345010874817,-0.5538149607625995,-0.5990642214167542,-0.07773357329545309
-9098.427934885025,-5152.0,2004.0,-16612.0,6011.0,1042.0,910.0,-0.19515923771194868,-0.7879921898438395,-0.5706419114769686,0.123891039008933
-9098.443508148193,-5816.0,3660.0,-19348.0,7076.0,1392.0,-653.0,0.3110272164769481,-0.75330336311022,-0.4757419199902295,0.3308560703711571
-9098.459079504013,-3736.0,5348.0,-15672.0,5746.0,2313.0,-4059.0,0.7574709579779862,-0.41638365901418845,-0.43167774271722037,0.25790836118364463
-9098.474673748016,-1956.0,5264.0,-13012.0,5328.0,3086.0,-4155.0,0.9740680750747234,0.019129873521658233,-0.21725889118045377,0.06019972809164754
-9098.49024939537,-2680.0,2284.0,-14452.0,1072.0,3466.0,-13204.0,0.7106006399753615,0.2198579417998777,0.0672634147822374,-0.664969810537261
-9098.505838632584,-2004.0,-400.0,-16684.0,3388.0,3633.0,-7803.0,0.13337382442460677,0.46314020609004347,0.1912402280847014,-0.8550671012402111
-9098.521438598633,-1884.0,2352.0,-14468.0,1355.0,3779.0,-10399.0,-0.5450405763533711,0.4212047649591646,0.3974274814262669,-0.6062744536191957
-9098.537027359009,-1912.0,-260.0,-17136.0,3178.0,3231.0,-3737.0,-0.8645798716315117,0.2773118678805911,0.18967934706728592,-0.3736596296074066
-9098.552623987198,-2372.0,1396.0,-17068.0,4597.0,3221.0,-1656.0,-0.9646335391025262,0.007452770685101926,-0.14523598631693393,-0.21984790134590232
-9098.56825184822,-2816.0,1704.0,-16020.0,3576.0,3289.0,-2522.0,-0.8784392904071846,-0.17912969796074624,-0.441543121379436,0.036008836969809
-9098.583858728409,-1776.0,2012.0,-15812.0,4144.0,3130.0,-2041.0,-0.6171542371878517,-0.3848719673322119,-0.6298449186005312,0.2725611762449014
-9098.59944152832,-1340.0,2432.0,-15364.0,2179.0,3258.0,-6812.0,-0.16713663626137532,-0.16942354465132345,-0.8101622194707953,0.5357221159138091
-9098.61501121521,-1324.0,-92.0,-16288.0,2440.0,2763.0,-6105.0,0.2969503458520645,0.08268324969834676,-0.7020090161860617,0.6420025806109644
-9098.630635261536,-1436.0,112.0,-16292.0,2341.0,2630.0,-4744.0,0.6283239648381076,0.2547953693020744,-0.416625871736662,0.6055668402348386
-9098.646219491959,-1748.0,-44.0,-16752.0,2514.0,2192.0,-2116.0,0.722178657611023,0.33458567864494204,-0.11040218960721607,0.5952493315130869
-9098.661782741547,-1868.0,200.0,-17056.0,3081.0,1828.0,25.0,0.6188996568649715,0.41409240230236743,0.1565856211517054,0.6488232735779516
-9098.677394628525,-2676.0,1076.0,-16252.0,3561.0,1811.0,32.0,0.43770994687309994,0.476403619306322,0.42963424565776764,0.6299714349700835
-9098.692990541458,-1400.0,104.0,-15632.0,2637.0,1936.0,753.0,0.20534909197090964,0.47894595104350224,0.5925012517745348,0.6143165251329051
-9098.708577156067,-1836.0,-64.0,-16084.0,2459.0,2089.0,-546.0,0.02285890916199659,0.36817013497330653,0.754565547168295,0.5427329518393665
-9098.724156141281,-1212.0,-80.0,-16428.0,1374.0,2240.0,-1027.0,-0.11665395697784922,0.19153584013715652,0.8324056169539088,0.5067610532864048
-9098.739779949188,-828.0,-600.0,-16180.0,1942.0,1864.0,1635.0,-0.34399007112619895,0.20068880240295395,0.8409475229338859,0.3663360468586487
-9098.755361318588,-1472.0,-608.0,-16792.0,1454.0,1545.0,2715.0,-0.5453285384273135,0.2939358082746852,0.7600554725775479,0.19630131022374234
-9098.770942926407,-876.0,556.0,-17120.0,2787.0,1067.0,5330.0,-0.687129289145939,0.4382514048704908,0.5475555696604237,-0.18966271183521202
-9098.786540031433,-1600.0,592.0,-16900.0,1970.0,1385.0,2401.0,-0.7561423800210235,0.43903411667161696,0.32620260300251963,-0.3592904219832419
-9098.802144289017,-1120.0,1080.0,-16456.0,2058.0,1317.0,1210.0,-0.8117641804926646,0.3689246154212081,0.12507475330950496,-0.4350745332583291
-9098.817722797394,-156.0,-508.0,-16380.0,719.0,1188.0,13.0,-0.8411298133791373,0.3608911922849914,0.013200602372491098,-0.4025964834333485
-9098.833348751068,-760.0,-492.0,-15728.0,730.0,1224.0,456.0,-0.8422525663063296,0.3481886024185847,-0.1156713774584888,-0.39496258573825743
-9098.848922729492,-516.0,756.0,-16012.0,-11.0,1132.0,-1545.0,-0.8715209099812842,0.3983570900164466,-0.14959181865388016,-0.24369082890180294
-9098.86452293396,-924.0,180.0,-16212.0,-440.0,1052.0,-2849.0,-0.8721877730746475,0.4749105587809449,-0.11719502776362194,0.0037114855437986823
-9098.880100488663,-300.0,420.0,-16120.0,-116.0,961.0,-3235.0,-0.8214154595884221,0.4957127871538674,-0.05408321220593375,0.2768040490288641
-9098.89586019516,-1220.0,-304.0,-16144.0,-969.0,662.0,-3335.0,-0.6647339434217974,0.540073182449162,0.018412422493740185,0.5158592102115196
-9098.911493778229,-560.0,-284.0,-16288.0,-737.0,545.0,-2809.0,-0.48831057967103714,0.5365050654425645,0.08328253891668666,0.6832123471128109
-9098.927208662033,-1572.0,-180.0,-15924.0,-1551.0,445.0,-4657.0,-0.12967953687963268,0.49835200488354875,0.1744575547449592,0.8392812749821367
-9098.942808389664,-304.0,-480.0,-16008.0,-1506.0,575.0,-2640.0,0.1162824121761385,0.4183904314007332,0.16658757687319628,0.8852550066293463
-9098.958445549011,-908.0,-132.0,-16748.0,-944.0,459.0,-1038.0,0.22241878401156306,0.3556013321519442,0.1352182654412996,0.8976600680556233
-9098.974046945572,-1120.0,360.0,-16316.0,-916.0,527.0,-1192.0,0.3347728897793665,0.28006111969039205,0.10976102360608404,0.892997983874253
-9098.989646196365,-584.0,-244.0,-16768.0,-493.0,456.0,714.0,0.28574165148417896,0.2363927963494025,0.06709100118711255,0.9262661345428294
-9099.005235910416,-1500.0,376.0,-17120.0,-135.0,409.0,-106.0,0.2944715155451118,0.19948738396143928,0.0686470218453016,0.932083095311012
-9099.020874500275,204.0,-12.0,-15688.0,-484.0,110.0,182.0,0.2871098868891899,0.17931099541170442,0.029005500950209893,0.940518027838684
-9099.03649020195,132.0,-484.0,-16004.0,-83.0,-105.0,1724.0,0.14550541493493382,0.18840319143108505,-0.007308050529181034,0.9712255165926489
-9099.052102088928,-660.0,-636.0,-16476.0,-106.0,-157.0,3243.0,-0.12288994624061816,0.1910845919930084,-0.06893439251464047,0.9714076329453466
-9099.067714214325,-1372.0,-184.0,-16148.0,355.0,-39.0,5318.0,-0.5257754941445092,0.14405371042379406,-0.1153833746753078,0.8303585581655508
-9099.08331155777,-2284.0,468.0,-16800.0,549.0,131.0,4842.0,-0.811810001458866,0.05592309741022564,-0.1313696199166854,0.5661970961338004
-9099.098860025406,-1872.0,524.0,-16592.0,498.0,323.0,2922.0,-0.9241090252605801,-0.027866721906568692,-0.1395831828759974,0.35463007529019386
-9099.114439725876,-560.0,188.0,-17476.0,698.0,164.0,3162.0,-0.9797599188236719,-0.12299801053811653,-0.11915658470786088,0.10365181711410433
-9099.130024194717,-308.0,772.0,-16792.0,1144.0,45.0,2849.0,-0.9588797118690644,-0.24252660988442373,-0.07948218898413302,-0.12414960047522983
-9099.14561367035,888.0,1592.0,-16820.0,878.0,-523.0,2574.0,-0.8902995514231602,-0.33030744575935705,0.008925607168633769,-0.3133433157868864
-9099.16119647026,140.0,392.0,-16692.0,999.0,-738.0,1282.0,-0.8159041343487031,-0.42230806825537204,0.07500020037677957,-0.387725816760443
-9099.176793336868,-344.0,244.0,-14796.0,1321.0,-912.0,903.0,-0.7212834070821675,-0.5347209928564851,0.12692412582731893,-0.42156135110975945
-9099.19238114357,-1436.0,-628.0,-15800.0,1406.0,-1047.0,898.0,-0.6020290962374024,-0.642609022296304,0.180404882709109,-0.43825642042265295
-9099.207996845245,-1560.0,80.0,-15952.0,1673.0,-894.0,1039.0,-0.446325007756118,-0.735557573790468,0.21784918310445664,-0.46075023224270045
-9099.223633050919,-1396.0,608.0,-16748.0,1102.0,-973.0,-357.0,-0.368072484177746,-0.8174715085020665,0.18693726343612724,-0.4016434223507097
-9099.239286184311,-1040.0,212.0,-16980.0,1020.0,-626.0,-1184.0,-0.322940139391988,-0.8821716666766004,0.08593516411881452,-0.33181013313397284
-9099.254861593246,-788.0,-292.0,-16460.0,232.0,-704.0,-1274.0,-0.33373427759256286,-0.9112752226686291,0.0009822250183889425,-0.24124248329020234
-9099.270436048508,-372.0,-632.0,-16200.0,-123.0,-603.0,154.0,-0.3394553220117989,-0.9190961263511922,0.033330081810178484,-0.19728532771249382
-9099.286037445068,320.0,-1124.0,-15192.0,-840.0,-600.0,1139.0,-0.38178626994164083,-0.8933651246496451,0.15554566242676068,-0.17872757214261215
-9099.301615715027,-472.0,-1632.0,-15192.0,-665.0,-755.0,3701.0,-0.3464893965961721,-0.789814401647974,0.45484485594933854,-0.22193347204128225
-9099.317197084427,-1140.0,-1128.0,-15148.0,-1004.0,-1114.0,4597.0,-0.2599762003891021,-0.5515649225464038,0.7599945183196861,-0.22493742145684267
-9099.33286356926,-1548.0,-368.0,-15584.0,-644.0,-1230.0,4341.0,-0.11516079300117117,-0.2538928085477396,0.9380771682497961,-0.20563963609072483
-9099.34847331047,-1460.0,844.0,-16028.0,-259.0,-1098.0,4549.0,0.047013520112991605,0.09384585705178124,0.9761081384873083,-0.1902513758679383
-9099.36408662796,-2108.0,1376.0,-16768.0,-1157.0,-948.0,1595.0,0.16084695941032504,0.20553784250056767,0.9610467714022435,-0.09094808478461211
-9099.379693746567,-1440.0,-396.0,-17480.0,-653.0,-847.0,2719.0,0.25668480241883584,0.4047496804587671,0.8775709088256946,-0.0126454876763854
-9099.39531135559,-1556.0,-80.0,-16188.0,-719.0,-542.0,2829.0,0.31596765912294345,0.5854087965456339,0.7419087898520681,0.08385897003660144
-9099.410898208618,-1772.0,-272.0,-16228.0,-138.0,-843.0,4817.0,0.3146001239215975,0.8274627118496342,0.4338020839749798,0.16777358095340653
-9099.426501750946,-1800.0,400.0,-16212.0,156.0,-751.0,4271.0,0.25155948971442604,0.9394248534385573,0.10019021880542904,0.21014444539954646
-9099.442083597183,-1992.0,464.0,-16180.0,277.0,-650.0,3026.0,0.17260523391213747,0.9496804398301965,-0.15157110382598518,0.21293354812014306
-9099.457667350769,-1312.0,60.0,-16324.0,191.0,-612.0,3077.0,0.08806775839023906,0.8904180557498349,-0.3975708409042509,0.203315475036922
-9099.473249673843,-1140.0,-128.0,-16228.0,381.0,-703.0,3951.0,-0.03411431628596577,0.7252232685066947,-0.663393483928862,0.18109806658695815
-9099.488865375519,-1864.0,120.0,-16120.0,588.0,-742.0,3342.0,-0.15992062476184007,0.5184523128772763,-0.8263153470628667,0.15111432842837794
-9099.504452228546,-2068.0,-148.0,-16092.0,321.0,-665.0,2593.0,-0.24961728964698957,0.32685554568796416,-0.9054636373263779,0.10484399096753233
-9099.520074605942,-1472.0,260.0,-16220.0,996.0,-692.0,4269.0,-0.34642869002564985,-0.024067523662275322,-0.9354504500482953,0.06588150374968631
-9099.535701036453,-2008.0,332.0,-16104.0,199.0,-473.0,2510.0,-0.3891532874513212,-0.2266745064139466,-0.8928211068858782,0.006989857430461749
-9099.551318645477,-1492.0,12.0,-16236.0,181.0,-375.0,2143.0,-0.4084525284437797,-0.3925282051132874,-0.8229202182843609,-0.043479357599260714
-9099.56691479683,-1696.0,-348.0,-16196.0,-645.0,-464.0,1424.0,-0.4536118287938677,-0.468891642184891,-0.7477698560899741,-0.123357930392084
-9099.582495689392,-1208.0,-148.0,-16064.0,-540.0,-480.0,2383.0,-0.47014229172203953,-0.5943991011873577,-0.6113338294338443,-0.22787470906566526
-9099.598078489304,-2236.0,-516.0,-16360.0,-937.0,-584.0,983.0,-0.5257832932063735,-0.6150351764144001,-0.5136531065729893,-0.2853842085082595
-9099.613649845123,-1740.0,228.0,-16060.0,-951.0,-435.0,1610.0,-0.5483857522925598,-0.6455622671601756,-0.37847903211997597,-0.37319706342234704
-9099.62927889824,-1856.0,-184.0,-15956.0,-1215.0,-437.0,1736.0,-0.5645902848999006,-0.6477429079301357,-0.2165106588758992,-0.463454496165465
-9099.644899845123,-1900.0,-108.0,-16376.0,-1234.0,-317.0,1793.0,-0.5575006826862404,-0.62251738385678,-0.048839852724125804,-0.547064680258534
-9099.660530805588,-1508.0,556.0,-16128.0,-1536.0,43.0,1266.0,-0.5716465052275559,-0.543266595228323,0.08978787625205549,-0.608292542160672
-9099.676107645035,-1664.0,396.0,-16052.0,-1738.0,-149.0,1014.0,-0.5898793582328015,-0.4498926617603357,0.23398427026282698,-0.6284029733336969
-9099.691727876663,-1524.0,628.0,-15996.0,-1761.0,-107.0,378.0,-0.6282676955280724,-0.35330116464909206,0.3467503309956567,-0.6001851362436783
-9099.707295894623,-1588.0,396.0,-15904.0,-1937.0,-1.0,311.0,-0.6619277908545668,-0.2345377915672953,0.4514749227594148,-0.5504670908787456
-9099.72287106514,-1608.0,456.0,-16176.0,-1630.0,-333.0,456.0,-0.6527694421654948,-0.13699524424296852,0.55236327024525,-0.5000191757460215
-9099.738433361053,-2256.0,228.0,-16448.0,-1616.0,-295.0,692.0,-0.6200454054743795,-0.024211062639230483,0.6405018175962667,-0.45245435267203504
-9099.754011154175,-1972.0,704.0,-16192.0,-980.0,-313.0,1228.0,-0.5505903670558371,0.08427765312201116,0.6922315418282571,-0.4588714606375496
-9099.76958990097,-1944.0,1408.0,-16248.0,-1153.0,-109.0,349.0,-0.5184761041905818,0.15556482930043997,0.7371911726061694,-0.4043900200297019
-9099.785180807114,-1748.0,1220.0,-16240.0,-835.0,122.0,-165.0,-0.5191448693758021,0.1865608199581315,0.7614353069285502,-0.3404408001693618
-9099.800768375397,-1900.0,1156.0,-15772.0,-666.0,128.0,-177.0,-0.5208673710364954,0.2084395973864706,0.7770391306091742,-0.28541251817857344
-9099.816352367401,-1840.0,752.0,-16304.0,-652.0,229.0,-556.0,-0.5365394551870565,0.20551992486817885,0.790797902973781,-0.21101101905356756
-9099.83201432228,-1768.0,760.0,-16340.0,-305.0,-40.0,-460.0,-0.5359001242513787,0.18715183516668288,0.8057756578465937,-0.16885152247755783
-9099.847607851028,-1124.0,964.0,-16392.0,-154.0,-148.0,242.0,-0.5189448646837149,0.20914508987293903,0.8108681815391164,-0.1716023046695108
-9099.86321258545,-1100.0,1132.0,-16304.0,-115.0,-204.0,489.0,-0.4942717356932958,0.24566611671613822,0.8121648762176974,-0.1890286333618309
-9099.878811120987,-1776.0,1232.0,-16300.0,96.0,-121.0,689.0,-0.4752256974597487,0.2878688457230671,0.799676237506699,-0.22761805574930544
-9099.894425153732,-2080.0,1024.0,-15852.0,-151.0,75.0,-149.0,-0.47927704528760173,0.285233655808575,0.8033113882918789,-0.208868592409285
-9099.910032749176,-2232.0,392.0,-16252.0,-35.0,-48.0,129.0,-0.47238808142165656,0.2949130276993507,0.8028388634839637,-0.21289801761347119
-9099.925683498383,-2180.0,496.0,-16408.0,-45.0,-25.0,239.0,-0.4646677799246445,0.3130474864004385,0.7985255789601073,-0.22009549133204676
-9099.941375017166,-1880.0,492.0,-16120.0,-255.0,-74.0,685.0,-0.43822204995489966,0.3690139575670567,0.7862424469303829,-0.2315447012974986
-9099.956954717636,-1664.0,684.0,-16376.0,190.0,-121.0,1265.0,-0.4076620489908521,0.4433997304084755,0.7417870286062601,-0.29489038146024177
-9099.972549676895,-1528.0,1008.0,-16100.0,160.0,-53.0,789.0,-0.3889147806591308,0.48631097756647124,0.7074103762240087,-0.3343912171301897
-9099.98830127716,-1684.0,1060.0,-15928.0,101.0,-14.0,420.0,-0.37958141410823093,0.5081504993952428,0.6867555728103082,-0.3550602811382127
-9100.003969669342,-1660.0,732.0,-16072.0,27.0,33.0,221.0,-0.3756125986014712,0.5215383862720515,0.6750220099389314,-0.36229569900096786
-9100.019549131393,-1780.0,896.0,-15988.0,-105.0,50.0,-275.0,-0.3821211683145643,0.5103063096452353,0.6891074475872886,-0.34453128848031467
-9100.03519153595,-1768.0,576.0,-16184.0,-88.0,49.0,-76.0,-0.3831808932366714,0.5102268892651111,0.6935847893120545,-0.3343367532356377
-9100.050817966461,-1724.0,728.0,-16072.0,-130.0,-45.0,-184.0,-0.37972789880530516,0.5021338458083657,0.7070547330608532,-0.3220899380900525
-9100.066418409348,-1832.0,460.0,-16252.0,66.0,-97.0,491.0,-0.3622446969349037,0.5271146598212116,0.6863541372718811,-0.34618912922545686
-9100.082028150558,-2004.0,532.0,-16228.0,55.0,-91.0,458.0,-0.34496692986671096,0.5497133506456165,0.6660569472267256,-0.36766995046008333
-9100.097616672516,-1868.0,784.0,-16260.0,36.0,-90.0,441.0,-0.32684018332288045,0.5710523692395582,0.6460675646765296,-0.3868738657809434
-9100.11317896843,-1872.0,588.0,-16064.0,-61.0,-94.0,375.0,-0.30545054446081193,0.5905412486603058,0.6318593638754284,-0.39839018913906404
-9100.128897666931,-1756.0,740.0,-16064.0,59.0,-117.0,361.0,-0.28912594267098224,0.6045950684329683,0.6140838464439955,-0.4168597150573533
-9100.144562721252,-1848.0,688.0,-16044.0,44.0,-65.0,393.0,-0.27330831343453144,0.6219332102895887,0.5931276403740219,-0.4320894004379222
-9100.160155057907,-1932.0,908.0,-16120.0,301.0,-21.0,726.0,-0.2603873258060377,0.6501534356308053,0.5417024123769413,-0.46481980069919887
-9100.175774812698,-2148.0,712.0,-16184.0,239.0,56.0,203.0,-0.2680858927090148,0.6564910437424698,0.5191103596905271,-0.4771518606044673
-9100.191349506378,-1928.0,512.0,-16120.0,377.0,35.0,395.0,-0.27434555273438016,0.66642409711764,0.4795139382719726,-0.5006793619460548
-9100.206933021545,-1912.0,516.0,-15920.0,211.0,-13.0,382.0,-0.26902795088064346,0.6764675165568239,0.44815630583007804,-0.5188174883647838
-9100.222525596619,-1732.0,324.0,-16216.0,500.0,-114.0,958.0,-0.24944771645299094,0.6940994047642332,0.37007448057463227,-0.5648422185794381
-9100.238169670105,-1560.0,696.0,-16144.0,297.0,-148.0,579.0,-0.23359458443450576,0.6980492918660561,0.3231171627127062,-0.5947739532029446
-9100.253782272339,-1748.0,312.0,-16152.0,561.0,-168.0,849.0,-0.21797271495227682,0.6992140198549174,0.2447910089601145,-0.6353463716013101
-9100.269388198853,-1856.0,800.0,-16012.0,582.0,-126.0,412.0,-0.2273949391583346,0.6888088230932968,0.18945440592142676,-0.6617710895400037
-9100.284973144531,-1628.0,996.0,-16092.0,815.0,-27.0,312.0,-0.25707767748414095,0.6745166049310352,0.12384969514291622,-0.6808815392009662
-9100.300539016724,-2244.0,1156.0,-16072.0,359.0,34.0,-1346.0,-0.3558266078824723,0.6493977178233206,0.1796736044424677,-0.6476012855726645
-9100.316120147705,-2084.0,-256.0,-16884.0,618.0,-50.0,-150.0,-0.39780957168580927,0.6243109945300143,0.15461177376878374,-0.6542771019959112
-9100.331754207611,-2212.0,552.0,-16168.0,371.0,-93.0,-281.0,-0.43231346591614056,0.6020709678847427,0.15186887155888112,-0.6538741948336357
-9100.347351312637,-2304.0,320.0,-16252.0,380.0,-109.0,-1.0,-0.45049534297998567,0.5814182355375244,0.13430526612148783,-0.6640548748633756
-9100.362924098969,-2124.0,344.0,-15960.0,301.0,-126.0,-394.0,-0.48651430589472117,0.5573788857289267,0.1416966134726644,-0.6576888912196527
-9100.378515481949,-1876.0,268.0,-16128.0,354.0,-81.0,101.0,-0.49654233054327335,0.538929648720265,0.11988083195842517,-0.6697978305711825
-9100.394095659256,-1568.0,496.0,-15956.0,152.0,-35.0,-334.0,-0.5224567112045455,0.5268064765939887,0.12818769760387277,-0.6580895344244394
-9100.409678697586,-1948.0,556.0,-16120.0,-16.0,39.0,-686.0,-0.5604191434088613,0.5214406335006606,0.1586118733795725,-0.623596282107527
-9100.425296545029,-1836.0,8.0,-16156.0,-129.0,92.0,-1011.0,-0.6082842831311986,0.5169753174682604,0.20636759458493542,-0.5658084198113199
-9100.440915584564,-1948.0,596.0,-16052.0,-197.0,58.0,-866.0,-0.6411181261433743,0.5134190338930992,0.25139358168645554,-0.5120251078350949
-9100.45653295517,-1952.0,364.0,-16236.0,-182.0,93.0,-562.0,-0.6590549442014183,0.5149815570941713,0.2792083489426143,-0.47168132701779436
-9100.472099542618,-2296.0,568.0,-16132.0,-338.0,72.0,-1012.0,-0.6841265904456941,0.5107563996273687,0.3331013912295734,-0.40017767509664925
-9100.487717628479,-2032.0,72.0,-16308.0,-451.0,-3.0,-647.0,-0.6847197196286731,0.51777471288299,0.3770862291373902,-0.3476697111419289
-9100.503319501877,-1928.0,240.0,-16336.0,-370.0,250.0,-226.0,-0.6822305181662806,0.5397329588796483,0.3833409911611175,-0.31032166807556366
-9100.518890619278,-2120.0,404.0,-16164.0,-469.0,28.0,-419.0,-0.6711954865194638,0.5537731975787822,0.4135988231311914,-0.2678952743587776
-9100.534461975098,-1940.0,512.0,-16100.0,-368.0,74.0,-263.0,-0.66147677972566,0.567312003159799,0.43035075854137883,-0.23538008747013092
-9100.55004477501,-2112.0,496.0,-16180.0,-360.0,95.0,-554.0,-0.6572542858293892,0.5684698397945904,0.459025639751221,-0.184808839219867
-9100.56564617157,-1968.0,424.0,-16156.0,-349.0,89.0,-411.0,-0.649155251088799,0.5729918541052945,0.47951347300193137,-0.14263458319230096
-9100.581239938736,-1956.0,452.0,-16212.0,-279.0,57.0,-318.0,-0.6408558191093102,0.5759770709243243,0.4954362413703325,-0.1099871066080424
-9100.596863985062,-2000.0,468.0,-16216.0,-1.0,43.0,-291.0,-0.6449974350664663,0.563852804249183,0.5076256260127401,-0.0914579013163197
-9100.612466096878,-1952.0,608.0,-16344.0,-179.0,-14.0,-160.0,-0.6364548796672509,0.5667710891507997,0.5177295938469614,-0.07517836328107791
-9100.628086566925,-1964.0,344.0,-16288.0,-66.0,-20.0,123.0,-0.6311785437579628,0.5759852028890383,0.5132779028757987,-0.08000303976645724
-9100.643706083298,-2092.0,564.0,-16048.0,-61.0,-54.0,254.0,-0.6234964458045874,0.5903513998313722,0.5038974088768063,-0.09394044982555254
-9100.659317731857,-1956.0,496.0,-16308.0,73.0,-106.0,618.0,-0.6163397486128237,0.611926457064462,0.47662466413386084,-0.13601564234932864
-9100.67491698265,-2028.0,784.0,-16080.0,40.0,-31.0,114.0,-0.615544378871585,0.6142870465205611,0.4718131693067191,-0.14542652916641324
-9100.690492630005,-2008.0,624.0,-16144.0,90.0,80.0,32.0,-0.6229699448093566,0.6119274176092038,0.4647419705750556,-0.14652025193935583
-9100.706088781357,-1992.0,708.0,-16068.0,34.0,40.0,-399.0,-0.6308723572137418,0.5942216498360559,0.483254017301211,-0.12396069752923237
-9100.721661806107,-1944.0,404.0,-16176.0,99.0,54.0,-91.0,-0.6389684914758337,0.5856485717610671,0.4840093434514294,-0.12029119979049228
-9100.737238645554,-2068.0,412.0,-16116.0,-251.0,255.0,-153.0,-0.6378993478377777,0.5956918917859264,0.4800858218775568,-0.08805223291202123
-9100.752807617188,-1976.0,452.0,-16188.0,195.0,33.0,505.0,-0.6445684364758124,0.6057481058569387,0.4501129204274702,-0.12247090190780476
