programtime,ax,ay,az,gx,gy,gz,q0,q1,q2,q3
-79.07921981811523,2248.0,13996.0,9172.0,-447.0,-766.0,-593.0,0.9957030150787478,-0.038516067616694113,-0.06661098172190005,-0.051526647595996136
-79.08700847625732,2368.0,14036.0,9136.0,-566.0,-795.0,-742.0,0.9802680205120048,-0.0861431358077282,-0.1349146289571809,-0.11598280479464629
-79.094797372818,2376.0,14212.0,9208.0,-634.0,-752.0,-918.0,0.9508503030306324,-0.13593293040120824,-0.19840727479407588,-0.19503972151303609
-79.10257458686829,2520.0,14288.0,9212.0,-725.0,-664.0,-1064.0,0.9054590869275461,-0.18718167634211297,-0.2518290250630186,-0.2858128829809825
-79.11035871505737,2552.0,14388.0,9136.0,-805.0,-629.0,-1141.0,0.842546964047523,-0.2389993982041217,-0.29750087645757783,-0.3801146268421442
-79.11813879013062,2456.0,14332.0,9224.0,-816.0,-548.0,-1265.0,0.7619203561614117,-0.2813383845676435,-0.33392178455184324,-0.4783537666178124
-79.12593173980713,2784.0,14264.0,9268.0,-870.0,-467.0,-1318.0,0.6650637208497375,-0.31677479773355394,-0.3574091274092825,-0.5741103468627821
-79.1337206363678,2432.0,14188.0,9192.0,-865.0,-441.0,-1356.0,0.5535649795443927,-0.34293314249098694,-0.3732886250872989,-0.6607709705970038
-79.14150142669678,2516.0,14328.0,9232.0,-854.0,-326.0,-1406.0,0.4316231451499029,-0.3531930290064475,-0.3779171009955484,-0.7390093433829351
-79.14927840232849,2544.0,13956.0,9316.0,-864.0,-179.0,-1460.0,0.30149358876715154,-0.34509255080438145,-0.3699371944053447,-0.8081826646910534
-79.15706658363342,2488.0,13804.0,9256.0,-823.0,-137.0,-1558.0,0.16036904754849474,-0.3220580311014557,-0.35827088575060656,-0.8615116746828905
-79.16484713554382,2492.0,13640.0,9168.0,-853.0,-100.0,-1571.0,0.014826397685980099,-0.28864218097943234,-0.3357386284948,-0.8965185121499303
-79.1726667881012,2440.0,13432.0,9008.0,-823.0,-50.0,-1789.0,-0.1453471990967203,-0.23748605593074318,-0.3120799702863225,-0.9083395054159465
-79.18045115470886,2408.0,13476.0,8988.0,-801.0,-99.0,-1521.0,-0.28212106277877813,-0.19149603554834857,-0.27602380997164144,-0.898636651063475
-79.18830347061157,2352.0,13312.0,8988.0,-788.0,-128.0,-1612.0,-0.4196356124245176,-0.14164802537642507,-0.23540439817806605,-0.8651165002532795
-79.19607400894165,2352.0,13808.0,8924.0,-783.0,-127.0,-1715.0,-0.5538665680913322,-0.08635779077532385,-0.1904975959039525,-0.8059062120854692
-79.20386910438538,2308.0,13660.0,8888.0,-826.0,-177.0,-2012.0,-0.6920479602997522,-0.025235699209461906,-0.13674719650401918,-0.7083311262246305
-79.21164274215698,2180.0,13668.0,9072.0,-823.0,-230.0,-1752.0,-0.7934785379485455,0.030431003791757533,-0.07491886100066326,-0.6032022281868892
-79.21943712234497,2144.0,13648.0,9044.0,-864.0,-322.0,-1782.0,-0.873808712137808,0.08338793587210562,-0.0024956940610633364,-0.47906007791738237
-79.22721600532532,2096.0,13572.0,9104.0,-822.0,-334.0,-1542.0,-0.9213681235169854,0.13057436139675535,0.06765295123895892,-0.35979743648513896
-79.23501062393188,2020.0,13476.0,9040.0,-745.0,-439.0,-1803.0,-0.9525661560568838,0.16328436357419365,0.1446320960897391,-0.2122203848075664
-79.24279379844666,2176.0,13484.0,8996.0,-657.0,-470.0,-1737.0,-0.9562384019099861,0.1844244929675563,0.21756240527465093,-0.06528648342041284
-79.25058555603027,2160.0,13396.0,9112.0,-598.0,-489.0,-1740.0,-0.9344918579133802,0.19554678829371624,0.285842645674957,0.0823432024829742
-79.25834846496582,2248.0,13372.0,9108.0,-765.0,-473.0,-1643.0,-0.886111817958641,0.21719905209993587,0.34240967041430614,0.2244683395218299
-79.26615881919861,2424.0,13464.0,9076.0,-495.0,-501.0,-1610.0,-0.8206364943979385,0.21441573166095176,0.3973376727276762,0.35029189529578747
-79.27398800849915,2476.0,13592.0,9232.0,-480.0,-563.0,-1521.0,-0.737626229457995,0.21072427954901007,0.4466158491379573,0.4604748711090682
-79.28182220458984,2500.0,13632.0,9332.0,-451.0,-597.0,-1474.0,-0.6401594513176503,0.20393823791817453,0.4889694010577819,0.5563398213616468
-79.28962898254395,2536.0,13604.0,9260.0,-403.0,-592.0,-1428.0,-0.5331681104609769,0.19215984617808166,0.5228235771140588,0.636758876434359
-79.29740524291992,2472.0,13444.0,9280.0,-344.0,-670.0,-1393.0,-0.4153869621849383,0.17989862822854294,0.552955328573378,0.6995216650044261
-79.30519318580627,2352.0,13328.0,9708.0,-216.0,-767.0,-1342.0,-0.2902883248489022,0.1680311984177507,0.583193773082102,0.7398535178351013
-79.31301140785217,2408.0,13268.0,9436.0,-120.0,-732.0,-1282.0,-0.1670221546787802,0.15164571493213996,0.6076384256325658,0.7615003090504657
-79.32078576087952,2544.0,13188.0,9240.0,-55.0,-846.0,-1243.0,-0.03842843259830069,0.14141362761284682,0.627251119442631,0.7649061868303714
-79.32856774330139,2268.0,13072.0,8972.0,8.0,-857.0,-1203.0,0.08800832022294172,0.13158307201156683,0.6400601524326712,0.75184003085723
-79.33637714385986,2228.0,13364.0,8984.0,-68.0,-894.0,-1144.0,0.21210930455373714,0.12480795633211139,0.636606074766874,0.7308661454246224
-79.34420323371887,2224.0,13428.0,8740.0,-126.0,-1007.0,-1120.0,0.33793469395650927,0.12346037655869024,0.6166214967691883,0.7002396787976476
-79.35198712348938,2184.0,13428.0,8600.0,-220.0,-1123.0,-1136.0,0.4655497490923783,0.12335251173499377,0.5764531019929556,0.6601131798194845
-79.35976648330688,1792.0,13476.0,8568.0,-307.0,-1234.0,-1046.0,0.5851433545249963,0.12818251594692706,0.5144449482877941,0.6136146123112771
-79.36757326126099,1804.0,13380.0,8564.0,-334.0,-1362.0,-949.0,0.6932593871781279,0.14014454934150078,0.4327744592991507,0.5589787068910603
-79.37536811828613,2160.0,13332.0,8484.0,-426.0,-1470.0,-918.0,0.7891808095370789,0.14986455186033876,0.33018248688691176,0.49569526052533014
-79.3831696510315,2276.0,13368.0,8560.0,-426.0,-1587.0,-916.0,0.8683997087832303,0.1609251882643477,0.21152828310416064,0.4186177433103992
-79.39095759391785,2532.0,13332.0,8748.0,-474.0,-1602.0,-993.0,0.9275864054517691,0.16317649824136063,0.08550103028433147,0.3250330208810658
-79.39875292778015,2764.0,13516.0,9028.0,-452.0,-1587.0,-1022.0,0.9611063231312469,0.16198183649529416,-0.0406412599626074,0.21996547063436764
-79.40653729438782,2796.0,13472.0,9084.0,-416.0,-1569.0,-1012.0,0.9674212507904333,0.1589106150526426,-0.1636063601597861,0.10989312470728325
-79.41433024406433,2816.0,13536.0,9316.0,-374.0,-1477.0,-954.0,0.9490363281857642,0.15355081236907187,-0.27520981913574744,0.0034280104652540558
-79.42211365699768,2952.0,13472.0,9428.0,-333.0,-1438.0,-911.0,0.908868148662705,0.14690238445221046,-0.37778501499602085,-0.098269324985665
-79.4299099445343,2936.0,13456.0,9636.0,-5.0,-1285.0,-812.0,0.8521356958368435,0.16110673233395695,-0.465043354679747,-0.17788775940333904
-79.4376962184906,2788.0,13436.0,9244.0,-219.0,-1157.0,-700.0,0.7917634271992896,0.15438104601079305,-0.5338916563304629,-0.2534499305246768
-79.44549179077148,2784.0,13448.0,9432.0,-215.0,-1046.0,-606.0,0.7283686048283758,0.1439657967055245,-0.5897221602796984,-0.3177747607258236
-79.45327568054199,2724.0,13376.0,9508.0,-246.0,-841.0,-745.0,0.6641980565511549,0.1427596917769657,-0.6237151615219871,-0.3865747138200012
-79.4610424041748,2744.0,13480.0,9228.0,-231.0,-704.0,-421.0,0.6128807748852587,0.12828536195823392,-0.6495453457756677,-0.43128976971922023
-79.468834400177,2468.0,13460.0,9472.0,-237.0,-570.0,-344.0,0.5692151619822481,0.113526754130308,-0.6658540610504192,-0.4687687541302471
-79.47662997245789,2500.0,13468.0,9276.0,-336.0,-480.0,-511.0,0.5225604324395884,0.10672877410606504,-0.6692073188149055,-0.5173984225632431
-79.4844183921814,2228.0,13484.0,9552.0,-343.0,-419.0,-131.0,0.4948028891012671,0.07979052325177827,-0.6706713071756958,-0.5468121899404677
-79.49225211143494,2232.0,13432.0,9460.0,-387.0,-307.0,-99.0,0.47435807218997306,0.05424331245108547,-0.6639843767288208,-0.5754709635269061
-79.50005435943604,2288.0,13452.0,9508.0,-361.0,-222.0,-35.0,0.4611334984036374,0.03023755905913494,-0.6542830820146398,-0.59862779359264
-79.50783562660217,2152.0,13464.0,9560.0,-335.0,-163.0,-24.0,0.4512138607404156,0.00969977210862808,-0.6427930300006722,-0.6189742214982178
-79.51562023162842,2136.0,13324.0,9536.0,-265.0,-24.0,-8.0,0.4495287822128773,-0.001475063836811349,-0.6291035510835981,-0.6341533096680105
-79.5234043598175,2256.0,13248.0,9536.0,-139.0,90.0,51.0,0.45720897297993196,-0.004627318537501408,-0.617660724084408,-0.6398701218788961
-79.53117871284485,2084.0,13104.0,9652.0,-24.0,217.0,122.0,0.47558071456112483,8.583423550437383e-05,-0.6073270831225918,-0.6363778678393982
-79.53896832466125,2364.0,13196.0,9548.0,76.0,360.0,134.0,0.5017928317475291,0.016262081461269826,-0.5961172823792241,-0.6265649881394201
-79.54674983024597,2592.0,13204.0,9624.0,168.0,535.0,167.0,0.537803667849607,0.044272871811340854,-0.5812066261643225,-0.6091026066039874
-79.55452513694763,2672.0,13220.0,9584.0,223.0,603.0,298.0,0.5822438127613577,0.07169049373471485,-0.5646776496167323,-0.5805099203566745
-79.5623071193695,2612.0,13204.0,9520.0,340.0,748.0,334.0,0.6319951748403048,0.11023266733739108,-0.5441972505341488,-0.540629457707707
-79.57008957862854,2532.0,13288.0,9436.0,407.0,813.0,324.0,0.6795564606294499,0.15526902280680357,-0.5196684130986191,-0.49400332772255523
-79.57789731025696,2384.0,13312.0,9312.0,434.0,859.0,388.0,0.7263740711845504,0.19979619199571214,-0.4905077477933557,-0.4380232182538773
-79.58568215370178,2388.0,13404.0,9356.0,449.0,897.0,321.0,0.765972695837421,0.2479288177508578,-0.45429870937436007,-0.38135261008809984
-79.59346985816956,2260.0,13324.0,9328.0,460.0,948.0,318.0,0.8004953059895964,0.29641370146192214,-0.4110154230523637,-0.32001953797752924
-79.60125041007996,2128.0,13588.0,9084.0,439.0,971.0,208.0,0.8260611258385755,0.34534965054622946,-0.3589916440417091,-0.26359369255377346
-79.60904383659363,1820.0,13632.0,9364.0,422.0,921.0,103.0,0.8412437040040878,0.39231007844802784,-0.3039642374325573,-0.21449376490618338
-79.6168212890625,1924.0,13652.0,9336.0,324.0,878.0,35.0,0.851262795013141,0.43025083367547445,-0.24568554314823032,-0.17284237858793003
-79.62461590766907,1812.0,13620.0,9368.0,313.0,850.0,-113.0,0.8533515455270215,0.46728577012221933,-0.1821680994020259,-0.14230225700311883
-79.63239932060242,1840.0,13580.0,9328.0,301.0,707.0,-152.0,0.848536435006523,0.49961319537716803,-0.12655402345668218,-0.11981924978216969
-79.640216588974,1844.0,13796.0,9328.0,319.0,702.0,-213.0,0.8382438226053955,0.5314339574517899,-0.06843171263183472,-0.10120446352457668
-79.64800643920898,1776.0,13456.0,9288.0,320.0,603.0,-213.0,0.8236504280335865,0.5601665562336386,-0.017315590669964295,-0.08668086292363456
-79.65579915046692,1716.0,13344.0,9452.0,383.0,530.0,-177.0,0.803115820733615,0.5907798001356748,0.026384693974502,-0.07271900826397361
-79.66358709335327,1772.0,13252.0,9344.0,400.0,493.0,-123.0,0.7794655469150884,0.620529872007223,0.06452632326967611,-0.056678856060784245
-79.67137789726257,1808.0,13252.0,9312.0,440.0,449.0,-145.0,0.7513319973608291,0.6507061056425292,0.10047893940445649,-0.044562052886693876
-79.67917513847351,1928.0,13560.0,9392.0,444.0,387.0,-94.0,0.721512197171466,0.6794649562703515,0.12918817027828364,-0.03252597721025217
-79.68697357177734,2012.0,13196.0,9256.0,398.0,373.0,-49.0,0.6929060541201865,0.7041230081572494,0.1541814772882335,-0.017890265744172417
-79.69475936889648,1952.0,13212.0,9596.0,379.0,342.0,-49.0,0.664402963019316,0.7260908038950956,0.17702301627411146,-0.004868155640792854
-79.70254182815552,1824.0,13212.0,9544.0,362.0,363.0,-89.0,0.6352933215092513,0.7450009239135225,0.2032750399765286,0.007434859533396073
-79.71030616760254,2012.0,13108.0,9584.0,316.0,396.0,-61.0,0.6072877228343144,0.7603449371130018,0.22910683259326797,0.024233397624316196
-79.71809434890747,1984.0,13300.0,9452.0,318.0,395.0,-162.0,0.5781336355902841,0.7722145875216271,0.26112080540023,0.035525416325489716
-79.7258710861206,2164.0,13384.0,9540.0,332.0,395.0,-166.0,0.5467836861495543,0.7830147182945031,0.29288119981406774,0.04621854920221681
-79.73364782333374,2216.0,13476.0,9656.0,364.0,482.0,-189.0,0.5096936109109925,0.7923419991213569,0.3297102901537157,0.06080874930170688
-79.7414243221283,2348.0,13780.0,9688.0,307.0,543.0,-196.0,0.47322495918839835,0.7961282253121594,0.36839943398245717,0.08074555036567412
-79.74920201301575,2472.0,13740.0,9576.0,283.0,493.0,-279.0,0.4391178230854002,0.7941124178889037,0.409471482658117,0.09430858971027908
-79.75702834129333,2472.0,13884.0,9440.0,198.0,515.0,-307.0,0.40900438955512675,0.7852558634671832,0.4513891488336968,0.11106968321840885
-79.76481866836548,2432.0,13824.0,9432.0,145.0,550.0,-397.0,0.3806537857478931,0.7680140850196958,0.49868510945501815,0.12872537517907254
-79.77257370948792,2232.0,13696.0,9256.0,98.0,484.0,-356.0,0.35661485671697873,0.7492445348615207,0.5389307682450808,0.14495550347482294
-79.78039288520813,2272.0,13608.0,9164.0,121.0,258.0,-362.0,0.3409664965236145,0.7320955141798016,0.5716643972460238,0.144837230322746
-79.78821039199829,2220.0,13408.0,9004.0,104.0,483.0,-330.0,0.3140616582337907,0.7116347500506356,0.6075855876590093,0.16056466303912442
-79.79598712921143,2196.0,13528.0,9156.0,108.0,454.0,-335.0,0.2876961578361014,0.689575105302922,0.6415104664929413,0.17372799513267326
-79.80376935005188,2084.0,13184.0,8968.0,128.0,346.0,-307.0,0.26512232608443675,0.669742297396349,0.6699957518995828,0.17961375149567646
-79.81188178062439,1964.0,13204.0,9024.0,142.0,263.0,-195.0,0.24445722127415273,0.6571624692954621,0.689339671347212,0.1821784109693802
-79.81974911689758,1856.0,13172.0,9048.0,182.0,167.0,-157.0,0.22646717551905043,0.6487138163062354,0.7045416179138402,0.17749397616024015
-79.82758212089539,1712.0,13248.0,9040.0,117.0,58.0,-101.0,0.21789162748034938,0.6438330174064456,0.7131157320216233,0.17166315013578407
-79.83538007736206,1636.0,13248.0,9016.0,46.0,-42.0,-2.0,0.21802114064906564,0.645187279592448,0.7130780198636671,0.16649292498327983
-79.8431601524353,1620.0,13444.0,9068.0,253.0,-34.0,24.0,0.2055626367804979,0.6518130288407066,0.7145491015667501,0.1493430923863026
-79.8509566783905,1916.0,13592.0,9052.0,-63.0,-165.0,33.0,0.2190536548208674,0.6547974908116508,0.7087739525241176,0.1445518127168463
-79.8587417602539,2112.0,13336.0,9120.0,-213.0,-115.0,-71.0,0.23925285896782056,0.6476115681315372,0.7077433786286947,0.14985538463857578
-79.86653518676758,2032.0,13688.0,9096.0,-321.0,-165.0,-89.0,0.26868956637316077,0.6372162857228366,0.7047237450749809,0.15851108875813222
-79.87436413764954,1964.0,13552.0,9152.0,-370.0,-196.0,-37.0,0.30171170937561664,0.6285340285189136,0.6965561175989643,0.1694833161549731
-79.88217163085938,1944.0,13528.0,9204.0,-361.0,-289.0,41.0,0.33828341373536447,0.6252631932477422,0.6807492545697353,0.17660895663565476
-79.88996767997742,1884.0,13400.0,9316.0,-368.0,-376.0,157.0,0.3779378420860645,0.6287798863387125,0.6545994318433342,0.18247856281105587
-79.89781522750854,1876.0,13448.0,9284.0,-321.0,-410.0,247.0,0.4146092083269375,0.638003382904544,0.6215566202842105,0.18632835413253004
-79.9056293964386,1632.0,13340.0,9252.0,-276.0,-334.0,384.0,0.4413818377362899,0.6534175194579634,0.5827835981916072,0.19644565727137073
-79.91342973709106,2036.0,13160.0,9648.0,-176.0,-294.0,481.0,0.45761170401075146,0.675215332350497,0.5402162156707199,0.20698363132767467
-79.92122435569763,2224.0,13296.0,9592.0,-81.0,-155.0,587.0,0.4585291087944957,0.7014162568528024,0.4971828294962375,0.2248900288248553
-79.92901229858398,2220.0,13068.0,9512.0,-7.0,-35.0,613.0,0.44789957472073666,0.7273314307767372,0.45739016811643585,0.24732406854098593
-79.93679594993591,2212.0,12968.0,9768.0,74.0,49.0,669.0,0.42616662185103565,0.7545100933202515,0.41764854316161076,0.27325121023140225
-79.94457912445068,2208.0,13052.0,9880.0,198.0,126.0,576.0,0.3943205601597304,0.7786583718182416,0.3885055714324715,0.2954079497891182
-79.95238471031189,2216.0,13240.0,9944.0,178.0,165.0,569.0,0.36153693036107026,0.7985963240015704,0.35954336491610933,0.3197866914383314
-79.96020841598511,2120.0,13436.0,9980.0,186.0,139.0,554.0,0.3284045795367625,0.8167826201873644,0.3300280003888818,0.3407317162496943
-79.96798372268677,1984.0,13428.0,9960.0,209.0,103.0,576.0,0.29308681619710814,0.8350089490253197,0.29768166329421997,0.35811422836500106
-79.97577261924744,2032.0,13576.0,9220.0,236.0,92.0,632.0,0.25340764331706045,0.8530215019032427,0.2608874675519075,0.3742681029336889
-79.98358368873596,1820.0,13648.0,8972.0,136.0,74.0,655.0,0.21993547860127557,0.8669703852282822,0.21783180311375822,0.39056374888327855
-79.99136972427368,2272.0,13812.0,9264.0,158.0,49.0,479.0,0.19064522090702032,0.8765240575267624,0.18774506898868734,0.40013968235176
-79.99914407730103,2200.0,13900.0,9128.0,115.0,43.0,438.0,0.16582733677441133,0.8833616915262792,0.15886584189028272,0.40857687232958784
-80.00695705413818,2176.0,13732.0,9064.0,52.0,45.0,348.0,0.14882424509474187,0.8868570494380443,0.13450398957393303,0.4162266146256408
-80.01474404335022,2168.0,13724.0,9120.0,36.0,77.0,225.0,0.1370402194781226,0.8869219604650384,0.11940198259855267,0.4246558381110236
-80.02251434326172,2160.0,13676.0,9088.0,18.0,100.0,169.0,0.1284320901863095,0.8850101627252189,0.10820237015115938,0.434228577107874
-80.03029823303223,2184.0,13472.0,9176.0,-54.0,171.0,29.0,0.1299827404363108,0.8780346853591856,0.10585754936671425,0.44827866080925166
-80.03808498382568,2220.0,13396.0,9220.0,-52.0,151.0,45.0,0.13090836753650326,0.8718063012667848,0.10211679093011175,0.4608567384671635
-80.04587602615356,2228.0,13440.0,9280.0,-89.0,203.0,-54.0,0.1381273524941923,0.8619136041603864,0.10498730382388534,0.4764487795051941
-80.05366563796997,2176.0,13528.0,9360.0,-133.0,250.0,-148.0,0.15205089647038203,0.8481645830988203,0.11360571139444721,0.49456153024463917
-80.06146311759949,2196.0,13600.0,9364.0,-179.0,293.0,-157.0,0.16919836915773115,0.8310633789257938,0.1213715948617924,0.5157271643451711
-80.06924700737,1800.0,13568.0,9372.0,-247.0,243.0,-130.0,0.1904128424826245,0.8145995476133278,0.12325744180136175,0.5338334285958807
-80.07705616950989,1836.0,13536.0,9376.0,-204.0,196.0,-102.0,0.20761225000223799,0.8006220547099879,0.12427236732958903,0.5481403633005553
-80.08484029769897,1660.0,13380.0,9424.0,-223.0,93.0,-10.0,0.22274010015300566,0.7917619793702025,0.11601675162664167,0.556812292563311
-80.09263372421265,1560.0,13276.0,9488.0,-161.0,-9.0,114.0,0.22850884968381302,0.7900213225750023,0.10018181863504598,0.5600121594287032
-80.10041379928589,1576.0,13284.0,9724.0,-115.0,251.0,142.0,0.22734409608178868,0.7763286300927004,0.08980246699063896,0.5810026135892513
-80.10824656486511,1568.0,13304.0,9240.0,-43.0,-46.0,138.0,0.22372975275624687,0.7787363043717168,0.07742116558825388,0.5809653424293618
-80.11603331565857,1680.0,13512.0,9376.0,-245.0,-34.0,85.0,0.23637037656088114,0.7759631251678818,0.05861148797959673,0.5818719506394675
-80.12382483482361,1932.0,13752.0,9456.0,66.0,57.0,248.0,0.21908584915632023,0.775412244079245,0.046405837098933075,0.5904098074342861
-80.13160562515259,2188.0,13996.0,9292.0,97.0,229.0,-223.0,0.22312144552471408,0.7641526638706152,0.07092870923568133,0.6010462919381209
-80.13940143585205,2424.0,13876.0,9476.0,159.0,438.0,-431.0,0.23218987617186038,0.7403702854428629,0.11644970476449086,0.619983199850458
-80.14718723297119,2608.0,14280.0,9612.0,146.0,652.0,-278.0,0.23084375739167665,0.703707277124263,0.15529900884448444,0.6537502930382285
-80.15496969223022,2608.0,14148.0,9844.0,146.0,811.0,-452.0,0.23601357967102332,0.651925207584507,0.20711706332440655,0.6902127469169496
-80.1627550125122,2524.0,13888.0,9808.0,139.0,916.0,-426.0,0.23640696551630497,0.5894217670222681,0.2576586297943142,0.7282209539063238
-80.17054319381714,2520.0,13608.0,9612.0,171.0,978.0,-313.0,0.22471911609639608,0.5214251104550045,0.30363249246720564,0.7651303696534291
-80.17835855484009,2488.0,13412.0,9536.0,138.0,951.0,-272.0,0.21073774506392864,0.4515030734005237,0.34264737472377743,0.7964467051285701
-80.18612813949585,2300.0,13404.0,9320.0,145.0,903.0,-230.0,0.193493542111409,0.3830047470371454,0.3771895411202164,0.8207287389739154
-80.19391179084778,2108.0,13244.0,9084.0,99.0,809.0,-152.0,0.1741293053180405,0.32064450887413476,0.402033040992441,0.8397830183497947
-80.20169925689697,1848.0,13320.0,8760.0,102.0,657.0,-126.0,0.15733570034071065,0.26889650514001695,0.422355102313652,0.8512087373091322
-80.20947337150574,1792.0,13176.0,8452.0,32.0,465.0,-90.0,0.14616210356416764,0.2310113156168852,0.43293507167761747,0.8589747582147857
-80.21723580360413,1720.0,13204.0,8644.0,11.0,290.0,-61.0,0.13966542708613994,0.206765699340205,0.43860911330599023,0.8633444039189315
-80.22501969337463,1756.0,13176.0,8616.0,57.0,118.0,-13.0,0.13524792094479413,0.19778442596210202,0.44462132421284206,0.8630765891751272
-80.2327995300293,1668.0,13164.0,8800.0,99.0,23.0,-90.0,0.13956865792831133,0.19343851168937634,0.4539032349837027,0.8585301306249062
-80.24057197570801,1724.0,13184.0,8964.0,142.0,-4.0,-126.0,0.14688664163218806,0.1901938894275125,0.4665188880391911,0.8512406980620281
-80.24840235710144,1980.0,13196.0,9016.0,173.0,-40.0,-220.0,0.16203396360653047,0.186176905895033,0.48224064394558913,0.8405516734123208
-80.25622248649597,2212.0,13256.0,9424.0,173.0,-66.0,-324.0,0.1857079834902882,0.17964266424153344,0.4988146318932094,0.8272998374600448
-80.26399898529053,2240.0,13624.0,9672.0,134.0,-79.0,-471.0,0.2208555236861539,0.1668261348446157,0.5139138509000281,0.8119633195183292
-80.27180695533752,2324.0,13872.0,9496.0,99.0,-71.0,-260.0,0.24091535926544053,0.16209893961697575,0.5229778953024088,0.8013599967992652
-80.27961349487305,2536.0,13900.0,9236.0,70.0,-9.0,-536.0,0.2774639947771728,0.13966348963998448,0.5344764180264181,0.7860297703252241
-80.2874186038971,2244.0,13804.0,9720.0,23.0,-245.0,-479.0,0.321066272083985,0.13463846178607256,0.5351796662388029,0.7696568445628845
-80.29520845413208,2352.0,13644.0,9388.0,63.0,-34.0,-422.0,0.34994987690240614,0.11903036450628005,0.5428621632447028,0.7541004758643071
-80.30300760269165,2556.0,13584.0,9292.0,25.0,-33.0,-392.0,0.3767562934791742,0.10348923041003309,0.5470847765484866,0.7402992109828738
-80.31079840660095,2208.0,13536.0,9568.0,-52.0,-39.0,-365.0,0.40239291995253296,0.08698381400600305,0.5452938281252571,0.7301838091066837
-80.31859374046326,2080.0,13468.0,9588.0,-123.0,-254.0,-368.0,0.4384379144438942,0.0814434608822314,0.530741083189571,0.7207309209908882
-80.32638549804688,1940.0,13364.0,9532.0,-171.0,-29.0,-485.0,0.47095659968948034,0.054395325598488226,0.5216539789737955,0.7093082235409117
-80.33418083190918,1824.0,13340.0,9368.0,-175.0,-75.0,-2.0,0.4751763635839082,0.051963903387626756,0.507551881941068,0.7168669774609339
-80.34195446968079,1852.0,13372.0,9280.0,-185.0,-64.0,-295.0,0.4969818333949935,0.035444152868458284,0.49431357207974513,0.7123249692103676
-80.34978699684143,1552.0,13468.0,9400.0,-190.0,-111.0,-280.0,0.5194248543325688,0.022260584255172567,0.47822554947755475,0.7078153791188059
-80.35758829116821,1688.0,13484.0,9276.0,-183.0,-125.0,-306.0,0.5435128269490733,0.00917233872481819,0.4615212412223343,0.7010761863340816
-80.36539459228516,1592.0,13380.0,9380.0,-153.0,-167.0,-288.0,0.5676032558288454,0.0008034089803317529,0.444177227613956,0.6932045073249918
-80.37318539619446,1668.0,13352.0,9368.0,-13.0,-146.0,-265.0,0.5890016284109891,-0.0010004273176528607,0.4359730082376877,0.6804436912504711
-80.38103222846985,1748.0,13216.0,9284.0,69.0,-148.0,-121.0,0.6016426733364257,0.007012410579431157,0.4323334375592336,0.6716135186896409
-80.38882040977478,1540.0,13304.0,9508.0,115.0,-154.0,-74.0,0.611535368009414,0.01956454192606341,0.43090795581743035,0.6632948484543335
-80.39661002159119,1544.0,13296.0,9556.0,240.0,-131.0,21.0,0.614573622842364,0.04101648441218754,0.4375847363702333,0.6550851155450488
-80.40438842773438,1884.0,13312.0,9224.0,276.0,-114.0,160.0,0.608435359775613,0.0686957452422473,0.44640699207905826,0.6525397344095301
-80.4122109413147,1952.0,13372.0,9328.0,10.0,-95.0,211.0,0.5998473688265374,0.08310919455200608,0.4404823674316903,0.6627603487495086
-80.4199914932251,1948.0,13324.0,9344.0,504.0,-105.0,211.0,0.5872353643834365,0.12380261864003006,0.4619639063866517,0.6530060395059979
-80.4277834892273,1956.0,13404.0,9176.0,236.0,-127.0,169.0,0.5798607843094218,0.15013776685599978,0.4667701238439343,0.6506502695536782
-80.43560338020325,1992.0,13520.0,9096.0,229.0,-122.0,150.0,0.573025638245373,0.17493827438773346,0.4713275221194811,0.6472160265015348
-80.4433982372284,2020.0,13336.0,9056.0,191.0,-99.0,118.0,0.5673037768273583,0.19510300391821983,0.475089851773496,0.6437319903510619
-80.4511604309082,2040.0,13640.0,9096.0,198.0,-55.0,82.0,0.5614232876687102,0.21155295220194179,0.48182943266523076,0.638662382088848
-80.45895099639893,1988.0,13644.0,9188.0,148.0,-46.0,28.0,0.558946114456016,0.22269563833204511,0.4870747385715933,0.6330435157616096
-80.4667387008667,2012.0,13648.0,9320.0,127.0,-252.0,64.0,0.5634180081866447,0.24560586825941527,0.480205044781193,0.6258122885452355
-80.47451496124268,2104.0,13792.0,9328.0,139.0,59.0,14.0,0.5571029970334245,0.2499183521046773,0.49015461963222284,0.6220333727629487
-80.48231101036072,2096.0,13768.0,9312.0,75.0,121.0,-32.0,0.5519424422274775,0.24572719270260823,0.5005669487265756,0.6200084008116574
-80.49011039733887,2036.0,13756.0,9404.0,12.0,149.0,-118.0,0.5514504480903665,0.23316686312478438,0.5106569762826311,0.6170616418279155
-80.49788856506348,1880.0,13760.0,9380.0,-25.0,184.0,-145.0,0.5514173676649712,0.21566225566726144,0.520814936821866,0.6149638035699164
-80.50567698478699,1644.0,13712.0,9200.0,-91.0,123.0,-174.0,0.5567277967519627,0.19685802966889585,0.5248316931129464,0.6130683244001304
-80.51345658302307,1528.0,13628.0,9140.0,-138.0,63.0,-227.0,0.5681575809658234,0.17647400628683324,0.5240802263053651,0.6094208764818086
-80.52123999595642,1392.0,13488.0,8968.0,-173.0,-30.0,-210.0,0.5831500200815082,0.16000030686701866,0.5163059230514807,0.6064356105171884
-80.5290207862854,1432.0,13416.0,9136.0,-233.0,-81.0,-255.0,0.603210600718419,0.1410462108023015,0.503005178324816,0.6026846009129956
-80.53681063652039,1392.0,13344.0,9068.0,-200.0,-122.0,-272.0,0.6249707937435033,0.1251329126985941,0.4890177171976972,0.5954955359983268
-80.54458093643188,1608.0,13336.0,9024.0,-192.0,-176.0,-245.0,0.6469332296107771,0.11351762577454191,0.47174557062475303,0.588257819038393
-80.55240225791931,1600.0,13332.0,9208.0,-165.0,-171.0,-209.0,0.6660187041962615,0.10457239093789567,0.45538581072816176,0.5814700887420776
-80.56021547317505,1704.0,13368.0,9368.0,-148.0,-161.0,-214.0,0.6843181846294863,0.09584903892500783,0.44019087380339633,0.5733703676880758
-80.56799650192261,1932.0,13432.0,9408.0,-190.0,-81.0,-29.0,0.6902882043241111,0.08768512608117998,0.4259043014161413,0.578289754076925
-80.57578182220459,1984.0,13728.0,9220.0,-166.0,-35.0,-281.0,0.7066807914646588,0.06925242246243951,0.41730577814534753,0.5671527558643027
-80.5836193561554,1988.0,13820.0,9248.0,-245.0,-50.0,-278.0,0.7232915136754108,0.04674773710286302,0.4034808551222198,0.5584507452504087
-80.59141731262207,2004.0,13868.0,9628.0,-188.0,-64.0,-199.0,0.7357288641416825,0.031267069216501395,0.390899651953813,0.5521982170867521
-80.59920310974121,1872.0,13916.0,9512.0,-194.0,-102.0,-271.0,0.7523916885775959,0.014765036662706649,0.37550921251330827,0.5410005286220504
-80.60699462890625,2036.0,13856.0,9504.0,-200.0,-131.0,-346.0,0.7727071833473264,-0.0032248786479691293,0.3576202543696391,0.524424410783615
-80.61478352546692,1768.0,13796.0,9460.0,-208.0,-166.0,-443.0,0.7972501462531955,-0.023157626172298957,0.33640386497082597,0.5006878950823684
-80.62257719039917,1564.0,13636.0,9340.0,-191.0,-210.0,-263.0,0.814018625944565,-0.03466954092196763,0.3127114694366034,0.48824505776339655
-80.63036441802979,1544.0,13524.0,9312.0,-212.0,-3.0,-548.0,0.8356849039042584,-0.06416748246296772,0.3013977180033001,0.45461268258078563
-80.63815331459045,1784.0,13372.0,9328.0,-173.0,-300.0,-526.0,0.862160237162313,-0.07829771417291473,0.2692836186910833,0.42194256257950097
-80.64593839645386,1576.0,13416.0,9352.0,-111.0,-340.0,-520.0,0.8871885017559359,-0.08591380140718069,0.2356938161413003,0.3872516056939932
-80.65373420715332,1684.0,13332.0,9224.0,-95.0,-378.0,-557.0,0.911474668411826,-0.09148151658487315,0.19868364049372814,0.3483817905216092
-80.66151404380798,1752.0,13408.0,9248.0,-105.0,-370.0,-485.0,0.9304506678721768,-0.09654088141459528,0.16194654596944144,0.31418900222713175
-80.66930794715881,1768.0,13368.0,9444.0,-61.0,-384.0,-475.0,0.9470457492794342,-0.09722378903943589,0.124908244278654,0.2793739682357587
-80.67709469795227,1840.0,13444.0,9232.0,-34.0,-384.0,-368.0,0.9588978472233977,-0.09426307943240984,0.08912286749191557,0.2523618531717323
-80.68493843078613,1900.0,13352.0,9224.0,13.0,-373.0,-383.0,0.9693068004061641,-0.08752331125260154,0.05498671533977137,0.22307052205499442
-80.69272661209106,2024.0,13396.0,9540.0,43.0,-405.0,-349.0,0.977323750244824,-0.07726866933827209,0.01887954573427081,0.19624322331982103
-80.70048522949219,1984.0,13448.0,9496.0,95.0,-406.0,-343.0,0.9834354715008824,-0.06238359668789262,-0.016408329139464575,0.16939222825434008
-80.70830845832825,1964.0,13432.0,9712.0,-250.0,-356.0,-373.0,0.985873129126236,-0.07762010229799345,-0.05260874483645936,0.13878621312228898
-80.71609663963318,1932.0,13296.0,9288.0,2.0,-375.0,-335.0,0.9872985479968927,-0.07097612529830116,-0.0870166509741739,0.11239247845877495
-80.72388195991516,1784.0,13100.0,9228.0,84.0,-355.0,-498.0,0.988597290171308,-0.056070682904320976,-0.11966543673251649,0.07219182527271159
-80.73163723945618,1824.0,13016.0,9704.0,69.0,-338.0,-106.0,0.985606302735562,-0.046535937930432786,-0.14880727040310915,0.06535303178924966
-80.739422082901,1836.0,13084.0,9440.0,191.0,-282.0,-57.0,0.9826175214772747,-0.027426037437335717,-0.1720883968288885,0.06400158305234807
-80.74720573425293,2136.0,13200.0,9520.0,195.0,-225.0,-252.0,0.980557813157955,-0.005340607619985234,-0.19074110460314989,0.04577864108848994
-80.7549843788147,2028.0,13288.0,9524.0,264.0,-125.0,51.0,0.9780778716204921,0.01721286782881753,-0.2002382904658473,0.05451624765838795
-80.76275944709778,1984.0,13292.0,9628.0,307.0,-84.0,146.0,0.9750047510369505,0.04156101682208997,-0.20600357430435778,0.07211757559650117
-80.7705397605896,1844.0,13264.0,9596.0,360.0,255.0,165.0,0.9764211231161993,0.06787454829417343,-0.18240134306099884,0.09340549275018939
-80.77832293510437,1912.0,13544.0,9692.0,421.0,-20.0,211.0,0.9710594858059569,0.10077870083852287,-0.18168572946943362,0.11780247956104267
-80.78613138198853,1956.0,13372.0,9564.0,444.0,-4.0,211.0,0.9640212761173397,0.13528068157145745,-0.17905243527978768,0.1424862863823565
-80.79390621185303,2048.0,13496.0,9572.0,430.0,86.0,197.0,0.9569783081516585,0.167458220126885,-0.16853528869968892,0.16657166236199164
-80.80170845985413,1992.0,13448.0,9624.0,456.0,135.0,121.0,0.949645655980271,0.20190057595319902,-0.15213328824235287,0.18510739616810654
-80.80948567390442,2016.0,13452.0,9620.0,458.0,119.0,252.0,0.9380286144806269,0.23461031147752637,-0.13902390895156716,0.2138519883092034
-80.81752133369446,2044.0,13540.0,9548.0,385.0,111.0,-149.0,0.9335872449047752,0.2659422851782727,-0.11946764569678638,0.20836755682432123
-80.82537722587585,2040.0,13608.0,9600.0,290.0,115.0,-352.0,0.9336226036207979,0.29115973638979675,-0.0964242100045976,0.185141064161185
-80.8331789970398,2004.0,13756.0,9396.0,256.0,115.0,-501.0,0.9349427174170463,0.3142370640845553,-0.06997096414018526,0.14913499549616557
-80.84101009368896,2080.0,13972.0,9476.0,211.0,139.0,-578.0,0.9360287232474672,0.3329282335357844,-0.0398832180685872,0.10685667731570274
-80.84881210327148,1976.0,13976.0,9428.0,144.0,135.0,-692.0,0.9368274231248198,0.34542259041284723,-0.00736164296100635,0.05462068771722417
-80.85659623146057,1792.0,13848.0,9404.0,127.0,104.0,-680.0,0.9344704542541454,0.35534370019158334,0.02215228846848121,0.0022585339966767833
-80.8643901348114,1628.0,13488.0,9372.0,185.0,70.0,-661.0,0.9269663125209273,0.36870769746587995,0.04816900386560777,-0.04967732226437499
-80.87220525741577,1544.0,13300.0,9420.0,250.0,28.0,-527.0,0.915276220401488,0.3865297053004115,0.06600612964919778,-0.09223566629388669
-80.88104200363159,1296.0,13108.0,9428.0,224.0,-15.0,-385.0,0.903997968140914,0.4019263698018735,0.07567471028872182,-0.12456406013656014
-80.88919019699097,1700.0,12896.0,9352.0,194.0,20.0,-294.0,0.8934462010900625,0.4154076482068786,0.08513041517239246,-0.1481323191661492
-80.89716863632202,1896.0,12912.0,9480.0,188.0,39.0,-213.0,0.883337349849534,0.4289151602415992,0.09314185063910202,-0.1645342132665681
-80.90505862236023,1952.0,13020.0,9528.0,130.0,125.0,-211.0,0.8742128085431874,0.4389273787166743,0.10848761173937056,-0.17698915133710585
-80.91295266151428,1952.0,13192.0,9568.0,129.0,127.0,-135.0,0.8658701791943625,0.4493926501688698,0.12104674595341015,-0.18347415090473293
-80.92082214355469,1900.0,13260.0,9420.0,101.0,99.0,-41.0,0.8601962107630543,0.4581584068585233,0.1282272919311895,-0.183605868146245
-80.9287052154541,1836.0,13560.0,9376.0,124.0,42.0,38.0,0.8553782453597139,0.46854812153534,0.12758708470579283,-0.18031153869710737
-80.9365782737732,1880.0,13464.0,9184.0,153.0,28.0,14.0,0.8490173985885638,0.48052883201734525,0.1264112122451358,-0.17967109926938482
-80.94445943832397,1860.0,13620.0,9084.0,127.0,-64.0,-4.0,0.8443390047239551,0.48885193581385333,0.11956578996110527,-0.18390065748600828
-80.95236372947693,1920.0,13820.0,9184.0,145.0,-44.0,-102.0,0.8369440748275693,0.4976923206540071,0.11806641879653162,-0.1946465779961601
-80.96034669876099,1972.0,13948.0,9156.0,109.0,-97.0,-224.0,0.8292606750288918,0.501544669854597,0.11856504631951714,-0.21615273947447636
-80.96824193000793,2032.0,14044.0,8996.0,86.0,-104.0,-257.0,0.821546705287207,0.5029710250473682,0.12036605060278109,-0.23998577636356622
-80.97613048553467,2184.0,14072.0,9328.0,66.0,-65.0,-353.0,0.8116226085845845,0.5023568233790102,0.12949808032941715,-0.26858259517306804
-80.98405337333679,2128.0,13988.0,9568.0,5.0,-54.0,-375.0,0.8028872399663134,0.49690993405719563,0.14166965408908747,-0.29729161852434927
-80.99194669723511,2204.0,13780.0,9456.0,3.0,-49.0,-400.0,0.7926003573061352,0.49058119562370334,0.1551601358070863,-0.3271698280021111
-80.9997570514679,2228.0,13492.0,9456.0,-22.0,45.0,-438.0,0.7799606935306445,0.48404065776796124,0.17727704591988344,-0.3548785808761575
-81.00759077072144,2120.0,13268.0,9416.0,-17.0,17.0,-378.0,0.7684028854145909,0.4772919756643857,0.19458014805591695,-0.3793256406248542
-81.01538372039795,1908.0,13000.0,9356.0,74.0,56.0,-313.0,0.7538178609303928,0.47859463466121166,0.20859913358345844,-0.3989889844144308
-81.02317523956299,1944.0,12760.0,9156.0,116.0,63.0,-199.0,0.7408534800156241,0.48468836757969735,0.21673407848400394,-0.4113874654208086
-81.03096604347229,1972.0,12712.0,9084.0,193.0,48.0,-155.0,0.7261605572153862,0.4958337639882232,0.2191813784022747,-0.4228465998392198
-81.03876280784607,1880.0,12660.0,8944.0,271.0,77.0,-67.0,0.7103830827283208,0.5143957665633013,0.2166650971021638,-0.42872964303028
-81.04655456542969,1776.0,12780.0,9008.0,252.0,55.0,-103.0,0.6940980250367573,0.5299574096599305,0.2149899310195867,-0.4372097953463562
-81.05435132980347,1824.0,12888.0,9232.0,300.0,46.0,-103.0,0.6752937747936117,0.547714678593296,0.21080278628806415,-0.4467092274305802
-81.06214427947998,1760.0,13144.0,9308.0,313.0,28.0,-131.0,0.654552291592663,0.5645643693530574,0.2062213520828232,-0.45858600542636524
-81.06993889808655,1764.0,13524.0,9440.0,234.0,15.0,-211.0,0.6342024310731142,0.5744829209159193,0.20783947823514218,-0.4738769896120819
-81.07773399353027,1812.0,13940.0,9440.0,168.0,17.0,-108.0,0.6210454849196598,0.5824024876076059,0.2070283932138034,-0.48192228885235
-81.08556795120239,1900.0,14084.0,9272.0,124.0,43.0,-242.0,0.6037511107365677,0.5863579779272635,0.21619960943928193,-0.49490064344645346
-81.09335923194885,2092.0,14572.0,9304.0,19.0,83.0,22.0,0.6022830335151661,0.5913116767542876,0.21843929751232452,-0.48978558755451795
-81.10116672515869,2144.0,14492.0,9212.0,-46.0,129.0,250.0,0.6128317752988541,0.5989567727218434,0.2140385960761855,-0.46890881734557316
-81.10900902748108,2208.0,14276.0,9348.0,-133.0,221.0,-92.0,0.6118554461241515,0.5989635742099212,0.23587238275359862,-0.4596082776365453
-81.11680698394775,2076.0,13448.0,9252.0,-16.0,282.0,-97.0,0.6029285175193397,0.6071867494173177,0.25639204987827485,-0.44951592947656377
-81.12460947036743,2024.0,12800.0,9076.0,196.0,385.0,250.0,0.5933062956435069,0.6375655664608106,0.25531231204798044,-0.41989690559707593
-81.1323938369751,2052.0,12324.0,8984.0,497.0,434.0,231.0,0.5635300748880302,0.6830521047330214,0.24611556939666687,-0.3940822292581022
-81.14021706581116,2040.0,11872.0,8900.0,835.0,530.0,422.0,0.5147489314192972,0.7480936529175678,0.2172247739864661,-0.3580542160534766
-81.1480085849762,2008.0,11156.0,8860.0,1277.0,671.0,385.0,0.4271919051059101,0.8267115633208381,0.18070003822979125,-0.3184376916562343
-81.15578961372375,1816.0,10268.0,8904.0,1700.0,833.0,357.0,0.29724955932989733,0.9061364150728378,0.1367641362630093,-0.2680579560269772
-81.16359996795654,1920.0,10272.0,9396.0,2044.0,698.0,424.0,0.13480365332388378,0.9629406295251047,0.07215339561570845,-0.22218732313399991
-81.17139554023743,1868.0,11020.0,9480.0,2298.0,744.0,690.0,-0.048425021424838295,0.9853481676005958,-0.021181652193052066,-0.1621583902131628
-81.1791729927063,1868.0,13004.0,9504.0,2149.0,363.0,440.0,-0.2221558177186526,0.9626377767757726,-0.08932995366241116,-0.12647317010586093
-81.18695735931396,2768.0,14696.0,9452.0,1650.0,229.0,235.0,-0.3526002019717575,0.9214672013741025,-0.13034818891993982,-0.09788076423151998
-81.1947329044342,2332.0,16552.0,9404.0,1228.0,105.0,530.0,-0.44260062228199054,0.872583495135566,-0.1854490833725265,-0.09116671897619294
-81.20250725746155,2144.0,17676.0,8868.0,786.0,-120.0,1648.0,-0.4851292601620474,0.8043868336885814,-0.30870006257490484,-0.14938438368629114
-81.21028876304626,2452.0,18236.0,9132.0,317.0,-136.0,1938.0,-0.4787488088413575,0.7263026567288329,-0.43677821661391986,-0.22914802716406726
-81.21808767318726,2628.0,17316.0,9132.0,-309.0,3.0,1558.0,-0.42380455017305485,0.6733930471727121,-0.5245110495353067,-0.30301760045818343
-81.22588801383972,2380.0,15012.0,9160.0,-260.0,559.0,1272.0,-0.3466257657652264,0.6346938645743239,-0.6084943817761822,-0.3267244467838334
-81.23367834091187,1936.0,12792.0,9456.0,-290.0,528.0,1318.0,-0.2627989344699451,0.583813091429756,-0.6837849012764954,-0.3500531432554008
-81.24145531654358,1932.0,11360.0,8936.0,192.0,585.0,1521.0,-0.18921959970689184,0.5013270193538413,-0.7727021622994871,-0.3402918323002392
-81.24924564361572,2000.0,10772.0,8648.0,709.0,538.0,1783.0,-0.1290161821976616,0.37958444748536146,-0.867640993142354,-0.294057101559072
-81.25704789161682,2032.0,10728.0,8748.0,1220.0,598.0,1840.0,-0.07539422674606183,0.2371214868551742,-0.9479403451113558,-0.1987415737965225
-81.26483273506165,2136.0,10492.0,8952.0,1677.0,676.0,1681.0,-0.024417667302380233,0.09647988463376984,-0.9934665123256164,-0.05585425921217217
-81.27263498306274,1900.0,10596.0,9184.0,1999.0,713.0,1439.0,0.026947896262537956,-0.028401344062470454,-0.9923055478021532,0.11746009681392912
-81.2804183959961,1948.0,10904.0,9368.0,2264.0,782.0,1397.0,0.08357753589248679,-0.1478355471928632,-0.9367516205631415,0.3060324294133792
-81.28827142715454,1972.0,12004.0,9476.0,2506.0,698.0,1387.0,0.1316663486575602,-0.2533601993029729,-0.8201023133986487,0.49588786796868506
-81.29606628417969,2264.0,13236.0,9328.0,2377.0,696.0,1206.0,0.17683072008855902,-0.33300505024416577,-0.6636074745648123,0.6461142721272718
-81.30384826660156,2432.0,14736.0,9244.0,2250.0,596.0,1253.0,0.20081992798279416,-0.3940993199955461,-0.47846422917646975,0.7585704080061388
-81.31163334846497,2488.0,16044.0,9152.0,1586.0,560.0,1437.0,0.18027638551525754,-0.4549541748355534,-0.30840277030017843,0.8157235162090343
-81.31944036483765,2672.0,17268.0,9280.0,1165.0,346.0,1774.0,0.1076222965532293,-0.5002198702458706,-0.1468565176454198,0.8465404219060505
-81.3272271156311,2464.0,17624.0,9092.0,641.0,245.0,2042.0,-0.0120033299627837,-0.5291205391849049,-0.007728775680387906,0.848426567894336
-81.33501672744751,2880.0,17204.0,8820.0,61.0,502.0,1054.0,-0.08656445014315897,-0.564042230394427,0.044888652297538065,0.8199682720678912
-81.34279561042786,2876.0,16312.0,8520.0,-206.0,738.0,678.0,-0.1476640311660407,-0.6101198002376146,0.05788983596730119,0.7762718146045796
-81.35057020187378,2444.0,14828.0,8500.0,-138.0,743.0,595.0,-0.19851900066389064,-0.6532812366727023,0.07055234346362793,0.727211247863085
-81.35835576057434,2056.0,13588.0,8392.0,53.0,560.0,648.0,-0.23954266111692946,-0.6837407660182504,0.10101067085164174,0.6818465536789765
-81.36613345146179,1840.0,12948.0,8692.0,507.0,394.0,690.0,-0.253104800545827,-0.7092077859867276,0.16368367414680252,0.6373146248551529
-81.37390971183777,1796.0,13036.0,8760.0,434.0,246.0,701.0,-0.2681303189668709,-0.7203295982179416,0.225238693755982,0.5987478040185215
-81.38169169425964,1840.0,12820.0,8996.0,541.0,234.0,587.0,-0.26882033671077943,-0.7316471497674877,0.284259708067531,0.5582333680255748
-81.3895103931427,1916.0,13436.0,8996.0,542.0,276.0,396.0,-0.25996363516695736,-0.746390855086866,0.3288711103000636,0.5168785085912176
-81.39728832244873,2056.0,13744.0,9364.0,472.0,337.0,298.0,-0.25205335988568267,-0.7624262731681458,0.361381278857485,0.4738975132289673
-81.40506768226624,1960.0,13984.0,9428.0,449.0,404.0,172.0,-0.24179414956709389,-0.7823356329208188,0.381960755559792,0.42847698644116267
-81.41285037994385,1864.0,14132.0,9568.0,384.0,387.0,78.0,-0.23124635334586288,-0.8013181548558591,0.39304163985386315,0.387211322282327
-81.42061686515808,1904.0,14092.0,9504.0,286.0,370.0,25.0,-0.22471226666197153,-0.817993844306261,0.3966672048329395,0.35077855763818555
-81.42840242385864,1924.0,13988.0,9372.0,163.0,292.0,-44.0,-0.22185817031486438,-0.831238922622372,0.39262607139836153,0.32506241529962776
-81.4362313747406,1956.0,13680.0,9132.0,74.0,239.0,-2.0,-0.22468623036034419,-0.8392689017703931,0.3898654908910759,0.3052027316716497
-81.44399690628052,1916.0,13596.0,9208.0,47.0,154.0,40.0,-0.22764129226906563,-0.8427929032505087,0.3909913450225002,0.2915567395930761
-81.4517924785614,2044.0,13352.0,8888.0,-9.0,62.0,220.0,-0.23608787409626547,-0.8364656415075947,0.40563826263514313,0.2829228625762443
-81.45958495140076,1892.0,13308.0,8604.0,-125.0,-11.0,320.0,-0.25273166460684665,-0.8218642391853054,0.42595149035731594,0.28148038282586085
-81.46738481521606,1984.0,13192.0,8548.0,-95.0,-99.0,382.0,-0.2652037286632349,-0.802573769728333,0.45291900085325343,0.2835607608842603
-81.47516703605652,1800.0,13296.0,8636.0,-169.0,-171.0,545.0,-0.2835068353262032,-0.7717811860155179,0.4902045025532647,0.2892701521282623
-81.48296308517456,1924.0,13184.0,8488.0,-196.0,-165.0,627.0,-0.3050675478026525,-0.7345909804232438,0.5306368579292106,0.29280438481264043
-81.49073958396912,1952.0,13184.0,8924.0,-111.0,-213.0,735.0,-0.32049067372637513,-0.69051422687473,0.579260203152465,0.2914334359365324
-81.4985499382019,2132.0,13192.0,8784.0,-45.0,-168.0,889.0,-0.33638760601988077,-0.6379803599806213,0.6343873232338221,0.2781675087342815
-81.50633549690247,2124.0,13248.0,8776.0,8.0,-214.0,1057.0,-0.3483264457486939,-0.5719073113412322,0.6966067014566742,0.25754575887049025
-81.51413917541504,2048.0,13108.0,8892.0,72.0,-252.0,1224.0,-0.3549158055089706,-0.49104345263593263,0.7624045541666796,0.22726723127016696
-81.52192568778992,2112.0,13476.0,8968.0,73.0,-268.0,1277.0,-0.3570631765089593,-0.4003859371322836,0.8215104064981255,0.19317774546598193
-81.52972626686096,2196.0,13700.0,9096.0,100.0,-288.0,1206.0,-0.35127245141174585,-0.31033618083975945,0.8691621639823531,0.15765865800040238
-81.537517786026,2548.0,13924.0,9280.0,85.0,-217.0,1108.0,-0.3461459114118606,-0.2248057505010023,0.9025574371480857,0.12261914696821469
-81.54529762268066,2308.0,13852.0,9276.0,60.0,-182.0,994.0,-0.34001248025693814,-0.14580865949040006,0.9245637370300204,0.09117699411705202
-81.55308985710144,2476.0,13964.0,9272.0,14.0,-141.0,897.0,-0.33460632810229046,-0.07250544885812087,0.9373054489010149,0.06511574725250265
-81.5608811378479,2404.0,13916.0,9200.0,46.0,-122.0,780.0,-0.32804162491545347,-0.009343041038444484,0.9437972142448613,0.03934740513200389
-81.56865215301514,2416.0,14008.0,9000.0,21.0,-114.0,694.0,-0.32046208821977445,0.04750288810252222,0.9459001409214826,0.017901090482430923
-81.57644033432007,2364.0,13964.0,9276.0,57.0,-27.0,637.0,-0.3190119999515124,0.09836379832309004,0.9426210305731654,-0.004636786341254847
-81.58426094055176,2248.0,13940.0,9280.0,131.0,-78.0,597.0,-0.3130657210002423,0.14356994503210138,0.93825178316838,-0.03257478471814025
-81.59204649925232,2284.0,13936.0,9308.0,238.0,-35.0,533.0,-0.31129923247608376,0.1803566180321425,0.9306387329951226,-0.06690162061596007
-81.59982943534851,2256.0,13924.0,9316.0,351.0,64.0,572.0,-0.31817012471210987,0.21725723554838722,0.9162620704986167,-0.10968538420473724
-81.60761737823486,2328.0,13948.0,9232.0,379.0,154.0,260.0,-0.3349219104040806,0.22876888905234788,0.9026223947831254,-0.14410038781700582
-81.61538457870483,2380.0,13892.0,9256.0,453.0,207.0,479.0,-0.35364918944877405,0.25537816614797954,0.8797138170566423,-0.1892560253644587
-81.62316751480103,2244.0,13828.0,9456.0,479.0,295.0,398.0,-0.37976023039974566,0.27550160406677526,0.8522860457512456,-0.23127803566502245
-81.63094353675842,2100.0,14032.0,9180.0,465.0,279.0,461.0,-0.40166137520706086,0.2994095300592265,0.8209853721846769,-0.2738705746064614
-81.63871741294861,2084.0,13788.0,8760.0,430.0,506.0,453.0,-0.43730279434325187,0.32805569847934607,0.7792123663707679,-0.3065514848270681
-81.64650797843933,2148.0,13696.0,8556.0,373.0,156.0,424.0,-0.44671414221907035,0.34634315797277954,0.7501561462998474,-0.34315979985348605
-81.65430188179016,2096.0,13720.0,8464.0,364.0,59.0,409.0,-0.44886169195100917,0.36024641403802116,0.7237509551759445,-0.3806970679602512
-81.66210150718689,2120.0,13760.0,8576.0,314.0,-13.0,288.0,-0.4480831931171012,0.3654164081120582,0.7042779917194975,-0.41192816255752135
-81.66988563537598,2064.0,13868.0,8560.0,301.0,-71.0,201.0,-0.44590987315790787,0.3632212733834373,0.6894561278718356,-0.4403236756319018
-81.6776795387268,2144.0,13592.0,8496.0,322.0,-169.0,75.0,-0.44288273315093585,0.34848296687075164,0.6809112553272125,-0.4677332240138979
-81.685471534729,2120.0,13940.0,8656.0,304.0,-172.0,243.0,-0.43173851184408174,0.34387331098303076,0.6672815993522556,-0.5000882627598067
-81.69323492050171,2208.0,13988.0,8856.0,340.0,-172.0,-22.0,-0.43269624049811717,0.3220486865216167,0.6591954080622368,-0.5239465821609661
-81.70103621482849,2280.0,13940.0,8744.0,373.0,-195.0,-114.0,-0.43691156411272053,0.29222357017014033,0.6522074083143706,-0.5462043268974028
-81.70883178710938,2316.0,13992.0,8852.0,398.0,-123.0,-171.0,-0.44792506319517567,0.2611910174088566,0.6417551782653729,-0.5650598918310378
-81.71660995483398,2396.0,14028.0,8860.0,405.0,-35.0,-240.0,-0.46670162232013807,0.22993078028141772,0.628044691519997,-0.5786892926748184
-81.7243959903717,2364.0,14032.0,8844.0,458.0,70.0,-237.0,-0.49126385029616154,0.20154125793243174,0.6061383569234694,-0.5921463020312805
-81.73221111297607,2384.0,13988.0,8852.0,258.0,145.0,-95.0,-0.5082721627977684,0.19279958128805738,0.5879791790197494,-0.5989726329468569
-81.74000787734985,2448.0,13912.0,8964.0,551.0,233.0,-85.0,-0.5332829058920046,0.17584549604768906,0.549429786019107,-0.6187201419366597
-81.74778532981873,2624.0,13932.0,9112.0,593.0,333.0,32.0,-0.5557274763283765,0.16736864831856096,0.5004424423054277,-0.6424267036425947
-81.75556063652039,2656.0,13888.0,9200.0,591.0,435.0,40.0,-0.5800106400279486,0.16439097401071234,0.4445982878296798,-0.6624919830285464
-81.76334142684937,2732.0,13940.0,9148.0,571.0,648.0,128.0,-0.6042794461107528,0.1772778140283752,0.3757252488719134,-0.6798893035057555
-81.77112460136414,2752.0,13876.0,9096.0,533.0,815.0,77.0,-0.6324683696136912,0.1991815015064058,0.2986954246366683,-0.6863610814993615
-81.77892804145813,2708.0,13876.0,9020.0,502.0,969.0,141.0,-0.6550669335515866,0.2319536858195253,0.21155681472057739,-0.6872616054657362
-81.78671622276306,2676.0,13996.0,8964.0,493.0,1090.0,144.0,-0.6728828646861493,0.2701227965809431,0.11595864270670822,-0.6788342348178013
-81.79449915885925,2604.0,14024.0,8940.0,506.0,1229.0,131.0,-0.6848941342753868,0.3122207193749434,0.010498258753723047,-0.6582765633009436
-81.80230116844177,2660.0,14012.0,8796.0,470.0,1367.0,83.0,-0.6887363832977634,0.3596592578248921,-0.09981271005717479,-0.6215503483176615
-81.81007432937622,2636.0,14132.0,8732.0,447.0,1490.0,62.0,-0.6801916150322588,0.4091078035051191,-0.21371277261618987,-0.5694708269716061
-81.81788992881775,2568.0,13864.0,8652.0,408.0,1618.0,189.0,-0.6482693199556233,0.45671475025708247,-0.3333111699383785,-0.50996292972744
-81.82574343681335,2528.0,14012.0,8496.0,434.0,1642.0,238.0,-0.6005176291452499,0.4926810091720142,-0.4500668004478568,-0.44054951528930647
-81.8335371017456,2524.0,14016.0,8664.0,423.0,1699.0,391.0,-0.5304605531499437,0.5141009752464691,-0.5653523929156488,-0.36699926515871256
-81.84133577346802,2564.0,13956.0,8248.0,464.0,1688.0,458.0,-0.4477464404059343,0.5175882305572048,-0.6706441299308707,-0.28611536079305894
-81.8491621017456,2468.0,13932.0,8340.0,424.0,1674.0,282.0,-0.3576976817155946,0.5202260585199251,-0.75071794164526,-0.19452451933886594
-81.85697984695435,2492.0,13972.0,8312.0,408.0,1722.0,638.0,-0.24918533793519065,0.4883398013568001,-0.8292977895129148,-0.1081484261462881
-81.86477136611938,2440.0,13952.0,8076.0,350.0,1701.0,740.0,-0.13216625769302193,0.4372955149277245,-0.8891693818887683,-0.02612514618262557
-81.87256622314453,2448.0,13920.0,8204.0,294.0,1698.0,1001.0,-0.009133491415991917,0.354742203999845,-0.9336266589689405,0.04915088705588296
-81.88038778305054,2396.0,13936.0,8224.0,506.0,1672.0,906.0,0.10606943803234123,0.2693831175217628,-0.9469786276501836,0.13933229734535502
-81.88825249671936,2448.0,14000.0,8168.0,237.0,1635.0,953.0,0.22107180654171985,0.17057722705432948,-0.9384489837898201,0.20333266040331574
-81.89604496955872,2232.0,13964.0,8140.0,215.0,1573.0,988.0,0.3249513209418984,0.06503270484575333,-0.9069793657533948,0.2599342540261484
-81.90384268760681,2188.0,13920.0,8096.0,273.0,1507.0,1063.0,0.41322248985620125,-0.04495202329210268,-0.8528435894567774,0.31604477752601395
-81.91161823272705,2488.0,14040.0,8056.0,261.0,1544.0,947.0,0.4968362005024559,-0.14672769446031683,-0.7763759146595725,0.35897801142292207
-81.91940927505493,2620.0,14168.0,8104.0,220.0,1585.0,834.0,0.5739350010863769,-0.24035174021051242,-0.6816348142848694,0.38497225284504677
-81.92718935012817,2896.0,14220.0,8268.0,137.0,1596.0,701.0,0.6408727617821415,-0.3249925681554855,-0.5756717633951005,0.3902101416916375
-81.9349799156189,2888.0,14224.0,8440.0,20.0,1586.0,673.0,0.6905302905489356,-0.407047922699271,-0.46194845962706416,0.37958335989449465
-81.94273948669434,2868.0,14108.0,8192.0,-98.0,1563.0,757.0,0.7168582169677535,-0.4895612383983157,-0.340159316917705,0.36157396164242883
-81.9505341053009,2796.0,14108.0,8064.0,-153.0,1766.0,762.0,0.7285242928073409,-0.5693859846632107,-0.19908809191140017,0.3246781281788904
-81.95830941200256,2808.0,14312.0,8000.0,-188.0,1474.0,870.0,0.7122079501393814,-0.6310628736037789,-0.06666798703462035,0.3001247487661637
-81.96609854698181,2624.0,14192.0,8128.0,-210.0,1469.0,838.0,0.679809757504423,-0.6799268170612676,0.06463210847095137,0.2671720561685117
-81.97387742996216,2324.0,14188.0,8036.0,-344.0,1354.0,865.0,0.6252219189502001,-0.7196174437541215,0.1864160282320795,0.23769171446895146
-81.98165941238403,2552.0,14248.0,8168.0,-451.0,1527.0,778.0,0.5493899158292426,-0.7542435408152389,0.30566031326667464,0.18936518797642654
-81.98947882652283,2704.0,14056.0,8200.0,-579.0,1123.0,751.0,0.46508319293090145,-0.7741644977489024,0.39616866604380224,0.16558182908598956
-81.99725389480591,2676.0,14124.0,8380.0,-727.0,1267.0,701.0,0.3584246237392216,-0.7898718985229618,0.4797217435846743,0.13229218326571462
-82.005038022995,2668.0,14112.0,8516.0,-841.0,903.0,622.0,0.2535702608055146,-0.7947929033075465,0.5372757662420682,0.12385925357430197
-82.01281905174255,2800.0,14072.0,8452.0,-977.0,785.0,590.0,0.14150967244627652,-0.7914587323852188,0.5808078756918096,0.12739819099852717
-82.0205888748169,2420.0,13948.0,8600.0,-1098.0,667.0,267.0,0.028612464320283245,-0.7936989887240087,0.5914253765190745,0.13942476893750785
-82.02836966514587,2496.0,13872.0,8608.0,-1157.0,756.0,761.0,-0.0989864413078703,-0.7593128847823637,0.6260478831419083,0.14734203559820874
-82.03613996505737,2452.0,13864.0,8568.0,-1257.0,278.0,478.0,-0.20228738550944558,-0.7207156822010653,0.6346041268780178,0.19216222636770877
-82.04391837120056,2368.0,13844.0,8600.0,-1410.0,10.0,521.0,-0.29783396004659063,-0.6614123236307518,0.638054821801571,0.2582919177366982
-82.05173254013062,2324.0,13752.0,8652.0,-1578.0,-214.0,351.0,-0.381195892537289,-0.5900075596576742,0.6219873571866448,0.345994940077841
-82.05951023101807,2132.0,13816.0,8668.0,-1777.0,-453.0,72.0,-0.44472571495171515,-0.5067497600602797,0.5796374020893587,0.4576507415471256
-82.06728458404541,1868.0,13904.0,8652.0,-1937.0,-750.0,-152.0,-0.47863924205142905,-0.40258581091190176,0.5160922357049694,0.5852161524307804
-82.07509899139404,2024.0,13960.0,8768.0,-2068.0,-978.0,-507.0,-0.47168762464386993,-0.2830672401594816,0.4245927113174833,0.7190999595344072
-82.08291816711426,1648.0,14328.0,8892.0,-2226.0,-1276.0,-707.0,-0.4238808340418412,-0.13372125496904955,0.3116669991690483,0.8398257832017638
-82.0907211303711,1584.0,14168.0,8728.0,-2343.0,-1472.0,-874.0,-0.33651249704958175,0.035827273369239125,0.17884698076237596,0.9238449563019562
-82.09851598739624,1488.0,14152.0,9080.0,-2416.0,-1653.0,-1141.0,-0.20363281084882942,0.21420157414516305,0.03518053828814099,0.9546798906991264
-82.1063027381897,1448.0,14064.0,9040.0,-2415.0,-1797.0,-1454.0,-0.03049581641051638,0.3861750377221173,-0.10235354346450232,0.9162219150195204
-82.11410689353943,1308.0,14020.0,9180.0,-2325.0,-1924.0,-1761.0,0.164142554177899,0.5374589673896637,-0.213843843863433,0.7990406064287995
-82.12188529968262,1288.0,13380.0,9008.0,-2234.0,-2104.0,-2086.0,0.3570252196481598,0.6574736933696557,-0.28708294908566,0.5982012332036167
-82.12988018989563,1316.0,12968.0,9048.0,-2103.0,-2237.0,-2419.0,0.5187370769512759,0.7281106202381814,-0.3100974602863114,0.32342902593366046
-82.13778567314148,1280.0,12668.0,9080.0,-1958.0,-2454.0,-2655.0,0.6135198813061388,0.7346545292151822,-0.289562475930116,-0.005445225334339804
-82.1455705165863,1352.0,12216.0,9008.0,-1652.0,-2594.0,-2766.0,0.6139120118194785,0.6722820616986395,-0.2353757973710924,-0.3402162625065264
-82.15336012840271,1612.0,12132.0,9144.0,-1306.0,-2720.0,-2771.0,0.5202500195072682,0.5445373348763007,-0.16924730805613517,-0.6357470855963512
-82.16116046905518,1964.0,12120.0,9464.0,-943.0,-2815.0,-2749.0,0.3499130614827977,0.3639260195781129,-0.10770374617820946,-0.8564570069401889
-82.16894674301147,2260.0,12300.0,9620.0,-774.0,-2957.0,-2694.0,0.13704771745634647,0.13609510313581952,-0.05167368438068148,-0.9798091020117039
-82.17673969268799,2748.0,12548.0,10160.0,-634.0,-2936.0,-2575.0,-0.08392805528152499,-0.10494114715234279,-0.0021790819022657003,-0.9909281955687178
-82.18452763557434,2916.0,13088.0,10440.0,-574.0,-2850.0,-2309.0,-0.2753385164693837,-0.32991045723432316,0.044578900810674206,-0.9018650193673057
-82.1923017501831,2900.0,13456.0,10544.0,-539.0,-2689.0,-2302.0,-0.4406731956090698,-0.5130703293557931,0.08116530136360404,-0.732105296839863
-82.20010805130005,3324.0,13592.0,10376.0,-682.0,-2428.0,-1702.0,-0.5440603715693603,-0.6320694028787919,0.13693761660483122,-0.5345415523519621
-82.20789313316345,3344.0,13384.0,10276.0,-824.0,-2062.0,-1549.0,-0.6202129396303256,-0.6886067984873172,0.1826631225478192,-0.3283150472537587
-82.2157130241394,3544.0,12984.0,10484.0,-977.0,-1678.0,-1377.0,-0.6773186269803637,-0.6908976231846912,0.21406358647677412,-0.13444974067613696
-82.22349977493286,3556.0,12748.0,10768.0,-1088.0,-1292.0,-1270.0,-0.7216532539456235,-0.6543054517358033,0.22279613161676542,0.03824709969533138
-82.23125624656677,3508.0,12412.0,10848.0,-1186.0,-1074.0,-592.0,-0.7582912813342623,-0.5809722216963158,0.2498738371076863,0.15820453785770783
-82.23905396461487,3580.0,12352.0,10936.0,-1247.0,-842.0,-469.0,-0.7893728279228862,-0.4922307875250807,0.26208274738279386,0.2567333711728002
-82.2468421459198,3432.0,12384.0,11244.0,-1267.0,-667.0,233.0,-0.8272753184339476,-0.38141416012346385,0.28730532901562333,0.2959635685123212
-82.25461864471436,3552.0,12528.0,11032.0,-1158.0,-587.0,633.0,-0.8607365933449445,-0.26450634683200863,0.31816935009363556,0.29654202741520214
-82.26242709159851,3208.0,12340.0,11084.0,-1072.0,-472.0,983.0,-0.8899263535601915,-0.1434190254264848,0.34531408826409715,0.26119006265766265
-82.27019929885864,3068.0,12264.0,11200.0,-1042.0,-479.0,1165.0,-0.9059293340996942,-0.016573074039901648,0.36948555539433897,0.20614994346225168
-82.27798271179199,3320.0,12144.0,11000.0,-943.0,-392.0,1255.0,-0.9082648935863988,0.10419620800109083,0.3814710052019334,0.13666713396756264
-82.28580141067505,3236.0,11944.0,10652.0,-834.0,-307.0,1159.0,-0.8970952160078253,0.21060068788400765,0.38218154110519487,0.06931661645748805
-82.29359078407288,3264.0,11784.0,10500.0,-775.0,-267.0,967.0,-0.8745438460680793,0.3030828892593815,0.37828839002224746,0.014550516039397983
-82.30138325691223,3440.0,11988.0,10448.0,-769.0,-224.0,541.0,-0.8445833095201034,0.37839525357302456,0.3787408001132825,-0.00717437683887715
-82.30918335914612,3464.0,12224.0,10236.0,-1020.0,-215.0,362.0,-0.7999507030540858,0.4631196791279358,0.38150767606013425,-0.007136427320982543
-82.31700730323792,3400.0,12616.0,9852.0,-779.0,-213.0,269.0,-0.7591893345837595,0.524765793244461,0.38494182536710286,-0.008497504211422518
-82.32480764389038,3212.0,13000.0,9688.0,-828.0,-335.0,284.0,-0.707505397042656,0.5868699714560384,0.3934498691998788,-0.014729228944539173
-82.3325765132904,3228.0,13116.0,9212.0,-987.0,-416.0,168.0,-0.6396440043733876,0.6500814497838272,0.4099949269659938,-0.01240226504652602
-82.3403742313385,3160.0,13292.0,9080.0,-1116.0,-609.0,133.0,-0.5510018196042422,0.7120253307736699,0.4349855516147002,-0.014300105451170273
-82.34816455841064,3388.0,13184.0,9148.0,-1160.0,-737.0,56.0,-0.44766152167579154,0.7635110618025889,0.4650863848749349,-0.01856542808453613
-82.35595488548279,3076.0,13304.0,9380.0,-1076.0,-523.0,121.0,-0.3525897210166648,0.8051841151171185,0.4766062647209174,-0.01433519533274159
-82.36376357078552,3428.0,12860.0,9384.0,-942.0,-837.0,302.0,-0.24958092595578735,0.8403292115793183,0.47928298606937564,-0.042941784196234234
-82.37157702445984,3528.0,12792.0,9600.0,-807.0,-895.0,437.0,-0.15034032990805254,0.8674265720842496,0.46685081138961826,-0.08378094741742514
-82.3793580532074,3692.0,12268.0,9620.0,-640.0,-929.0,474.0,-0.06017600111936964,0.8833287695117397,0.4453051654834913,-0.1334632662416079
-82.38713550567627,3640.0,12156.0,9772.0,-445.0,-879.0,598.0,0.01524409212674471,0.8941643537156573,0.4069398127381189,-0.18611210333601877
-82.39495778083801,3668.0,11948.0,10040.0,-330.0,-855.0,669.0,0.08190134112205512,0.8992047701477355,0.35718624213940176,-0.23904171203432167
-82.40274715423584,3688.0,11912.0,10232.0,-164.0,-816.0,1014.0,0.14052752809593944,0.9066962924520182,0.27337380713188275,-0.28882626036292014
-82.41053318977356,3732.0,11808.0,9756.0,-256.0,-763.0,922.0,0.20118142342164264,0.9011848366635207,0.1963456296814589,-0.32990956146007133
-82.41833066940308,3676.0,11448.0,9744.0,140.0,-740.0,980.0,0.229833829594548,0.8939231245477215,0.10159553389238755,-0.3711552312252435
-82.42611646652222,3644.0,11464.0,9824.0,507.0,-660.0,770.0,0.22009845873072215,0.8851873263582195,0.011740567479243683,-0.40970992762491465
-82.4339063167572,3800.0,11572.0,9740.0,334.0,-487.0,1111.0,0.2332261628335585,0.870053916800361,-0.09488388350895027,-0.42380276955270674
-82.4416971206665,3808.0,11496.0,9752.0,366.0,-422.0,1103.0,0.24144651894776584,0.8477824032059148,-0.19966979928465872,-0.4279024965527004
-82.44949507713318,3832.0,11748.0,9980.0,428.0,-271.0,1106.0,0.24509654851534973,0.8227163274333849,-0.30155669374250854,-0.41488442600255926
-82.45727896690369,3748.0,12012.0,9756.0,507.0,-107.0,1037.0,0.24230468481717787,0.7982487908737053,-0.3946898077868641,-0.38510682052319495
-82.46507096290588,3832.0,12004.0,9800.0,586.0,249.0,1182.0,0.24820272747333078,0.7729372510645196,-0.48815610134898973,-0.3204169669467864
-82.4728479385376,3720.0,12500.0,9712.0,717.0,71.0,1405.0,0.23999486414952742,0.7236915734786119,-0.5958346569928927,-0.25229750927042965
-82.480633020401,3616.0,12176.0,9552.0,903.0,169.0,1281.0,0.2180068152514051,0.6733210347030468,-0.6866246172319238,-0.1663082912589517
-82.48840999603271,3724.0,12196.0,9468.0,1076.0,274.0,1731.0,0.19332782786601035,0.5846566502987876,-0.7861916483729052,-0.0519965793365866
-82.49625134468079,3672.0,12008.0,9688.0,1256.0,373.0,1852.0,0.16020964596586568,0.4712899731387689,-0.8633410950972348,0.08282985014267281
-82.50403809547424,3764.0,11828.0,9348.0,1450.0,510.0,1903.0,0.12254805966442689,0.3368796212981988,-0.9036383864973465,0.23437525525306285
-82.51183676719666,3960.0,12264.0,9324.0,1519.0,543.0,1914.0,0.07973646529647097,0.1866551625569306,-0.9017628933044713,0.3816092643686981
-82.51961421966553,4080.0,12232.0,9200.0,1504.0,580.0,1925.0,0.03595857345628982,0.025680360666084905,-0.8586098461072269,0.5107216778625836
-82.52740454673767,4180.0,12104.0,9400.0,1564.0,613.0,1734.0,0.001099210444991576,-0.12396572484721645,-0.7738364126056545,0.6211348463297747
-82.5351767539978,4000.0,12032.0,9344.0,1628.0,608.0,1762.0,-0.034932273410867326,-0.2695686877156239,-0.6513795344752865,0.7083905426700614
-82.54295802116394,3916.0,12320.0,9312.0,1637.0,749.0,1814.0,-0.06442485286511408,-0.413835278833894,-0.49745700305733187,0.7596883113718411
-82.5507345199585,4016.0,12488.0,9152.0,1788.0,403.0,1858.0,-0.10294952982114525,-0.5179985663367629,-0.3060935172098274,0.7920767881365927
-82.5585081577301,3952.0,12744.0,9152.0,1588.0,228.0,1986.0,-0.1585493286805053,-0.5866529712962604,-0.10582190106269493,0.7870845741721199
-82.56631803512573,3896.0,12640.0,9164.0,1627.0,212.0,2185.0,-0.2173941215597197,-0.6262582483716714,0.1119149536801088,0.7402806531312991
-82.57409930229187,3644.0,12860.0,9176.0,1704.0,170.0,2378.0,-0.27096589540271654,-0.6260578654763097,0.3380191816534101,0.6483610610132365
-82.58187174797058,3596.0,12712.0,8932.0,1766.0,218.0,2542.0,-0.3135897421350447,-0.5839772961336634,0.5518839291977236,0.5060198809546655
-82.58964800834656,3644.0,12668.0,9180.0,1914.0,169.0,2881.0,-0.3365076525727387,-0.48334451234406667,0.7453318593739168,0.3124437574173656
-82.59746503829956,3984.0,11936.0,9192.0,1919.0,224.0,2591.0,-0.32808427662605266,-0.36304311059195754,0.8665456633788369,0.0982803162480015
-82.60524106025696,4308.0,11928.0,9348.0,2045.0,320.0,2893.0,-0.29834694852465937,-0.19628059453272673,0.9231060103105763,-0.1426124827790112
-82.61301445960999,4680.0,11688.0,9736.0,2224.0,462.0,3056.0,-0.24626284816721386,-0.0021051544038834273,0.8879757651766391,-0.3883931235185166
-82.62080240249634,4904.0,12148.0,9772.0,2327.0,622.0,3039.0,-0.1809930752162394,0.1937005066070378,0.7542238982431771,-0.600722841069666
-82.62858819961548,5316.0,12392.0,9936.0,2456.0,819.0,3155.0,-0.1045996652228816,0.38201435891796315,0.5266902310801269,-0.752144494163536
-82.63638687133789,5292.0,12512.0,9936.0,2447.0,1056.0,3123.0,-0.027964210751768,0.5389728409019372,0.23738237977799598,-0.8076978924437409
-82.6442198753357,5580.0,12620.0,9620.0,2486.0,1261.0,3136.0,0.0470437351695113,0.6448226317356208,-0.0832154076232346,-0.7583309676631622
-82.65200734138489,5568.0,12660.0,9880.0,2530.0,1472.0,3248.0,0.12185381087386196,0.681028840731609,-0.3994481961336226,-0.6014918997566573
-82.65979933738708,5704.0,12780.0,9548.0,2472.0,1586.0,3087.0,0.18032966657914215,0.6400208319826164,-0.6522632635618902,-0.3638779754084149
-82.66758418083191,5828.0,12956.0,9592.0,2522.0,1751.0,3367.0,0.22875483347612965,0.5050887609131728,-0.8296892374595787,-0.06459364523114426
-82.67537713050842,6028.0,13032.0,9560.0,2547.0,1799.0,3506.0,0.24672876450017756,0.28887143376249624,-0.8908664425314239,0.24906865137070341
-82.6831443309784,6036.0,13108.0,9704.0,2505.0,2349.0,3359.0,0.2704777005532651,0.028181815608621777,-0.8027761479537237,0.5306581338762285
-82.69097471237183,5776.0,12684.0,9620.0,2437.0,2575.0,3805.0,0.2447142545151606,-0.2733115073328244,-0.5813185561603648,0.7262812746176083
-82.69876098632812,5604.0,12500.0,9252.0,2568.0,2772.0,4171.0,0.1635764682949455,-0.543718058585931,-0.23310506462806352,0.7894779544942625
-82.70655417442322,5672.0,11532.0,9368.0,2656.0,2839.0,4535.0,0.03090270311858961,-0.7037155159573231,0.1824825737189326,0.6859516060406866
-82.71431756019592,5972.0,11712.0,8968.0,2856.0,3436.0,4911.0,-0.1233223009821564,-0.7124291829830998,0.5749201707827577,0.3830183631911456
-82.72211527824402,5984.0,11540.0,9440.0,2992.0,3897.0,5171.0,-0.2596100212933645,-0.5223815082893069,0.8103489636353997,-0.05526982699883721
-82.7298948764801,6460.0,11248.0,9688.0,3045.0,4532.0,5063.0,-0.3496482265595614,-0.17722623872159932,0.7745555553431026,-0.49638762037291606
-82.73768830299377,7216.0,11452.0,9636.0,3019.0,5074.0,5117.0,-0.35061489351394715,0.2448796049867255,0.4692352746639373,-0.7726069068541959
-82.74546360969543,6780.0,11312.0,9876.0,3124.0,5477.0,4550.0,-0.27713252521872284,0.5832439597150899,-0.005320258790388355,-0.7635415782838283
-82.75323915481567,6212.0,11064.0,10224.0,3423.0,5866.0,4494.0,-0.1215479240793053,0.7247461874222835,-0.4924838499233944,-0.4662925299996852
-82.76101613044739,5736.0,11596.0,9588.0,3508.0,6028.0,4548.0,0.08158482938817345,0.5964253524071254,-0.7983852193194992,0.01420409067466908
-82.76879334449768,5420.0,11912.0,8912.0,3642.0,6101.0,4788.0,0.24930286387317177,0.22510493153048708,-0.800550830918909,0.49628038343292785
-82.77655935287476,5600.0,12124.0,8704.0,3637.0,6114.0,5049.0,0.3074593015119846,-0.24934375951022755,-0.48459420910557216,0.7800416142799134
-82.78437209129333,5172.0,12340.0,7892.0,3404.0,6319.0,5184.0,0.23413716100141133,-0.638881119937431,0.02350436227607814,0.732433102323815
-82.79216384887695,5156.0,12336.0,8016.0,3312.0,6563.0,5136.0,0.060597744562502456,-0.7718147667622742,0.5164774478860389,0.3658974241324447
-82.79994130134583,4884.0,12168.0,7912.0,3421.0,6800.0,5461.0,-0.1470852129339956,-0.5609681813498764,0.797071275004563,-0.16839840323403815
-82.80772399902344,4820.0,12244.0,8048.0,3644.0,7019.0,5380.0,-0.2901752452255881,-0.0999811781104394,0.703756270937305,-0.6407255279746055
-82.8155369758606,5700.0,12344.0,8756.0,4195.0,7078.0,4781.0,-0.32389772239005465,0.3717501158634683,0.25499679891650895,-0.831786480611681
-82.82336521148682,6428.0,13024.0,9156.0,4588.0,7314.0,3343.0,-0.30556003726146047,0.6590364848822231,-0.30604989855501685,-0.6153352214990804
-82.83115577697754,8124.0,13436.0,10048.0,5073.0,7459.0,1926.0,-0.22949322419288548,0.6798692694175039,-0.6919393541346699,-0.07956485876917863
-82.83892154693604,7492.0,14416.0,9760.0,4959.0,8115.0,315.0,-0.02415350036664356,0.47528143997074246,-0.6982143113217992,0.5348092526357427
-82.84671592712402,7136.0,14920.0,8308.0,4359.0,8444.0,-708.0,0.26352558420970573,0.08845789023661159,-0.3713942787448492,0.8858869893148978
-82.85452628135681,5920.0,15324.0,7076.0,3723.0,8154.0,-1524.0,0.48330407879410586,-0.31869393785972816,0.09086356571680493,0.8103055928584403
-82.86231279373169,5016.0,15144.0,6524.0,3160.0,7569.0,-1460.0,0.4969321555746308,-0.5921040618051567,0.47976858364812436,0.4150823037592169
-82.87010788917542,5116.0,14988.0,6296.0,2830.0,7082.0,-1511.0,0.3320792303305116,-0.652998984465269,0.671452698906543,-0.11165565011024417
-82.87789416313171,4388.0,14732.0,6320.0,2626.0,6635.0,-1624.0,0.06488786202160333,-0.5118666493071882,0.6283646874678717,-0.5821854672118684
-82.88570022583008,4124.0,14340.0,7124.0,2584.0,6176.0,-1948.0,-0.21994508232944715,-0.24792012356632911,0.38006167847292327,-0.8635466945372977
-82.89352989196777,800.0,15588.0,10220.0,2674.0,6531.0,-3237.0,-0.5155336651594317,0.07086934942997393,-0.01417898968046238,-0.8538158651900869
-82.90133094787598,-2436.0,17900.0,10560.0,1428.0,5543.0,-6521.0,-0.7999114814098427,0.34085355102647713,-0.2630174364378838,-0.4180697391476636
-82.90915822982788,-3656.0,21112.0,11688.0,-192.0,4635.0,-6643.0,-0.759541644603161,0.5517059008062246,-0.31197467631415865,0.1462494118545212
-82.91699147224426,-5220.0,21576.0,9572.0,-1007.0,2648.0,-5850.0,-0.4908278871541833,0.6470247725683819,-0.19020727699943604,0.5516050404510947
-82.92477607727051,-4016.0,21740.0,7380.0,-1694.0,1333.0,-6103.0,-0.06890408226583278,0.6588206279313402,0.013814000017952069,0.7490105346807625
-82.93255996704102,-2808.0,19096.0,6740.0,-1414.0,562.0,-5629.0,0.338524528508319,0.5558367212601638,0.21550788714172078,0.7280130723254098
-82.94037675857544,-2340.0,18384.0,8588.0,-631.0,248.0,-4970.0,0.6232631012748804,0.3918550760170176,0.3883969760389515,0.5542025757723557
-82.94820261001587,-1224.0,18532.0,8820.0,-570.0,-502.0,-4286.0,0.8106654642290142,0.2240206856677951,0.4486991144599151,0.30216773848671485
-82.955983877182,2036.0,19252.0,8404.0,-652.0,-918.0,-2999.0,0.9038048233244215,0.08176891875980041,0.409379342796709,0.0941235302764358
-82.96376395225525,6784.0,19148.0,7896.0,-969.0,-520.0,-3058.0,0.9182795847408908,-0.09566061445017116,0.36761501407738595,-0.11167297128668283
-82.9715678691864,8620.0,19176.0,8164.0,-1653.0,142.0,-2751.0,0.8407969324774527,-0.3031729224216779,0.35821418127633625,-0.2698690382006232
-82.97935509681702,8316.0,17512.0,9392.0,-2055.0,1180.0,-2954.0,0.6456700315859569,-0.4922729708387638,0.39399323191375224,-0.4307515127071794
-82.98713088035583,8276.0,14740.0,11712.0,-2654.0,2183.0,-3734.0,0.28908584158396394,-0.6291932836333469,0.417188716252437,-0.5886414554361777
-82.99497604370117,7148.0,12756.0,12384.0,-2455.0,2914.0,-4025.0,-0.14288282207445946,-0.6192900194461163,0.35621334242034997,-0.6849645433540262
-83.00276255607605,4724.0,12216.0,13856.0,-2450.0,2870.0,-5249.0,-0.5908831980744967,-0.5053669250763765,0.15940267072429684,-0.6083190822570539
-83.01054525375366,3516.0,12000.0,12920.0,-2088.0,3320.0,-5791.0,-0.884838035784581,-0.25763716324413183,-0.1336523741841576,-0.3644472326954053
-83.01832056045532,1220.0,11896.0,11768.0,-1595.0,3375.0,-6280.0,-0.9115869375649025,0.038607941387509975,-0.40870636445797576,0.02185840283289466
-83.0261013507843,348.0,12156.0,10916.0,-1355.0,3249.0,-6874.0,-0.6452512485937473,0.31946694925261127,-0.5361405461119244,0.4406188935330024
-83.03387784957886,-668.0,12468.0,9628.0,-1082.0,2879.0,-6917.0,-0.1788554262077269,0.4950222486663013,-0.45635341820331576,0.7174296254933724
-83.0416612625122,-1872.0,12908.0,7944.0,-415.0,2847.0,-5997.0,0.2837222372852784,0.4860736110182114,-0.23139299677009126,0.7935309809877049
-83.04944443702698,-1772.0,14264.0,7124.0,-38.0,2752.0,-4973.0,0.6140241331986512,0.3537675201546364,0.04059256618173277,0.7043970109988155
-83.05721163749695,-1916.0,15432.0,6748.0,162.0,2630.0,-4231.0,0.788416451970517,0.170400764220985,0.2956119089985313,0.5118365726219354
-83.06504464149475,-1544.0,16496.0,6408.0,-49.0,2497.0,-4248.0,0.8400316005753341,-0.04942093581112411,0.48551061050979083,0.23703149204442264
-83.07283306121826,-1140.0,16892.0,7148.0,-328.0,2358.0,-4667.0,0.7596709440760933,-0.29083143251396737,0.5743110682437993,-0.0921082595703378
-83.0806257724762,-992.0,16432.0,8132.0,-596.0,2246.0,-5057.0,0.5319377613448157,-0.5088567050466521,0.5393980438362508,-0.4088481650810682
-83.0884051322937,-704.0,15976.0,8980.0,-842.0,2210.0,-5258.0,0.18120301455355162,-0.6401339652028053,0.391688863877513,-0.6355893391371367
-83.09622883796692,-728.0,15268.0,9456.0,-962.0,2225.0,-5211.0,-0.21253855401941033,-0.6346525035414334,0.16893282415004002,-0.723536636065252
-83.10401844978333,-664.0,15188.0,9324.0,-1013.0,2319.0,-5055.0,-0.5579591074918313,-0.48771006339093526,-0.08096697047999267,-0.6665319783216863
-83.1118106842041,-680.0,15460.0,9116.0,-1205.0,2444.0,-4954.0,-0.7893297799416469,-0.22574053889176396,-0.30576694735597415,-0.48218905162056125
-83.1195912361145,-452.0,15172.0,8920.0,-1479.0,2733.0,-5044.0,-0.8508004079702617,0.11140869315505875,-0.471859620656213,-0.20267034139531345
-83.12737894058228,-512.0,14244.0,8228.0,-1512.0,3011.0,-4912.0,-0.7089963027169028,0.42506255233545825,-0.5509518989937,0.11444681878961681
-83.13516211509705,-1156.0,14020.0,8364.0,-1485.0,3002.0,-4637.0,-0.4144808189631101,0.635159361080582,-0.5185074082664978,0.394877581430164
-83.14295697212219,-1384.0,12892.0,8384.0,-1540.0,3205.0,-4563.0,-0.023878890682269352,0.7024411375928692,-0.38789451105888634,0.5962751840278175
-83.15073728561401,-1776.0,12276.0,8396.0,-1445.0,3528.0,-4412.0,0.3688522537182485,0.5981537020813105,-0.1781137354830858,0.6887929012741442
-83.15852689743042,-2220.0,11532.0,8340.0,-1248.0,3837.0,-4331.0,0.6699858281763414,0.3505079394494998,0.08588145684406173,0.6487584679956548
-83.16631269454956,-2476.0,11420.0,8540.0,-1155.0,3549.0,-3740.0,0.8086271193300988,0.04900637299576011,0.31117583382703917,0.4968804259897481
-83.17411160469055,-2548.0,11340.0,8540.0,-1048.0,3569.0,-3305.0,0.7883813165215594,-0.24688448358784573,0.4878063347423528,0.2820424282063371
-83.18187069892883,-2948.0,11652.0,8508.0,-1003.0,3530.0,-2825.0,0.6360878586071196,-0.48481609467552655,0.598164341776516,0.05044809910440091
-83.18966007232666,-2888.0,12248.0,8780.0,-796.0,3505.0,-2311.0,0.40253486481252143,-0.6231252556390334,0.6479022142129385,-0.1729257621441235
-83.19744968414307,-2836.0,13156.0,8816.0,-550.0,3838.0,-2180.0,0.11434097353012825,-0.6598121573533262,0.6269105667372745,-0.3981924159173319
-83.20522832870483,-2808.0,13908.0,8964.0,-460.0,3762.0,-2185.0,-0.18124552308969363,-0.6102343075652755,0.5180939173328193,-0.5712642497592563
-83.2130126953125,-2756.0,14704.0,9316.0,-326.0,4014.0,-2361.0,-0.4611348066297327,-0.4738488739209433,0.31949111112375816,-0.6787837392802804
-83.2208001613617,-2856.0,15196.0,9148.0,-193.0,4036.0,-2540.0,-0.6759334917263128,-0.2748709495884414,0.0583674386346113,-0.6812878378059144
-83.22857403755188,-3156.0,15368.0,8596.0,-136.0,4075.0,-2604.0,-0.7874673685826405,-0.03491440704023175,-0.2180398409812534,-0.5754430947916837
-83.23638463020325,-3352.0,15456.0,8064.0,-125.0,3981.0,-3229.0,-0.7979642119960627,0.21428934230192329,-0.4521508342446675,-0.33599526371834937
-83.24418902397156,-3804.0,15112.0,7536.0,-211.0,3662.0,-3555.0,-0.6884780469912755,0.4351781863396279,-0.5796086698077801,-0.02591746185271733
-83.25196695327759,-4272.0,14692.0,7072.0,-200.0,3256.0,-3773.0,-0.4811272874159639,0.591736628117289,-0.579062308046836,0.2881859463048271
-83.25982546806335,-4864.0,14448.0,6784.0,-184.0,2680.0,-3990.0,-0.21742319678285066,0.6765053225255675,-0.4519505770222916,0.539266518545813
-83.26766920089722,-4940.0,14000.0,6356.0,-168.0,1985.0,-4080.0,0.05847254173541609,0.6946418592586207,-0.2385159390219652,0.676138888144438
-83.27548241615295,-5212.0,13700.0,6036.0,-70.0,1522.0,-4114.0,0.31498910811887093,0.644433198556013,0.013697892102797534,0.6966348269482978
-83.28327941894531,-5064.0,13552.0,6112.0,-78.0,646.0,-4450.0,0.5485462872403511,0.5562501045677962,0.25800290610669224,0.5684340703754861
-83.29109287261963,-4804.0,13296.0,6320.0,77.0,275.0,-4477.0,0.7084551257463871,0.4146270603049228,0.45856304075101434,0.3404345360326305
-83.29956555366516,-4596.0,12764.0,6964.0,230.0,-172.0,-4473.0,0.782317803401676,0.23731155916149999,0.5741288762927499,0.045145451331652764
-83.30855917930603,-4328.0,12540.0,8096.0,540.0,-275.0,-4342.0,0.7491733471179701,0.05398309963902938,0.6045491487920741,-0.2652271622896094
-83.31752276420593,-4056.0,12540.0,8884.0,908.0,-806.0,-4046.0,0.6510456570417054,-0.1113447487954016,0.5158532357927028,-0.5455614891879936
-83.32649731636047,-3968.0,12736.0,9492.0,1088.0,-939.0,-4034.0,0.4795066344630502,-0.258287946476492,0.34787133842488854,-0.7631161485077826
-83.33550977706909,-3824.0,12768.0,9692.0,1198.0,-940.0,-3738.0,0.26986404043344026,-0.3622987409711573,0.13612103345767806,-0.8816938733041454
-83.34448647499084,-3988.0,12680.0,9328.0,1142.0,-860.0,-3493.0,0.04497868713263884,-0.4206859907170153,-0.07849915078644827,-0.9026838307204099
-83.35345435142517,-4160.0,12448.0,9456.0,1063.0,-897.0,-3184.0,-0.16563452716662974,-0.4451594441742043,-0.2706721944658142,-0.8373379460026047
-83.36244583129883,-4004.0,12220.0,8932.0,962.0,-939.0,-2884.0,-0.3481637111393469,-0.4425937712305336,-0.4235424075435288,-0.7095805894511509
-83.37144494056702,-3896.0,12144.0,8672.0,895.0,-971.0,-2736.0,-0.5017382491099275,-0.4142602034142829,-0.5366342283086872,-0.5372810421509409
-83.3804280757904,-3564.0,12160.0,8324.0,1018.0,-795.0,-2672.0,-0.6075507064696364,-0.35898819071821,-0.625446632928618,-0.33290558323850084
-83.38943219184875,-2592.0,12392.0,8268.0,560.0,-617.0,-2717.0,-0.6820687222443726,-0.2506802798842317,-0.6735966107421004,-0.13494169633529615
-83.39817118644714,-2532.0,12676.0,8836.0,378.0,-441.0,-2774.0,-0.7110688794061558,-0.11196553353640046,-0.6915390794807644,0.06015371635136353
-83.40597796440125,-2444.0,12992.0,8836.0,141.0,-367.0,-2738.0,-0.6975345700433853,0.04509108823528134,-0.6752996364956826,0.23533533161203563
-83.41379165649414,-2056.0,13248.0,9192.0,-74.0,-403.0,-2653.0,-0.6490313882787282,0.20851434696669333,-0.6248637828175351,0.3805591636802362
-83.4215795993805,-2348.0,13524.0,9200.0,-286.0,-419.0,-2515.0,-0.5691361601064249,0.36664811189868596,-0.5511609159112191,0.48772414136717535
-83.42933869361877,-2312.0,13496.0,9248.0,-396.0,-490.0,-2419.0,-0.46615566642785666,0.5114680640218718,-0.45550383786274307,0.560013899680384
-83.43716025352478,-2684.0,13488.0,9324.0,-274.0,-550.0,-2385.0,-0.3512145178684671,0.6298994858757789,-0.33239900477862416,0.6077712577557695
-83.44494414329529,-2876.0,13392.0,9344.0,-555.0,-593.0,-2196.0,-0.2169131021805437,0.7270312594094718,-0.2183502114290337,0.6137568240865325
-83.45273494720459,-3140.0,13224.0,9328.0,-621.0,-555.0,-2110.0,-0.07356760702502542,0.7933080895472913,-0.10510370525923173,0.5951498075243064
-83.46053218841553,-3324.0,12952.0,9176.0,-685.0,-463.0,-2009.0,0.07276555213313465,0.8254439223773655,0.0014413703398870553,0.5597726573213211
-83.46833395957947,-3472.0,12576.0,9004.0,-686.0,-310.0,-1802.0,0.20738983333735028,0.8240672081903944,0.0944927878876732,0.5186268470208716
-83.4761152267456,-3720.0,12812.0,9132.0,-645.0,-251.0,-1593.0,0.324382270737191,0.8013847276354922,0.173415933465085,0.47168376563583914
-83.48389506340027,-3172.0,12568.0,9160.0,-520.0,-281.0,-1406.0,0.41932759465851904,0.770059859099684,0.24032997429323322,0.4164296882037701
-83.49170565605164,-3184.0,12400.0,9136.0,-426.0,-222.0,-1283.0,0.4958559482857033,0.7303092480310043,0.3008463347830543,0.36092487256723854
-83.49951100349426,-2820.0,12324.0,8728.0,-387.0,-245.0,-1073.0,0.558014464932093,0.6894137042134404,0.34467332940938245,0.307455520950762
-83.50727701187134,-2780.0,12484.0,9120.0,-209.0,-258.0,-805.0,0.5983676938471636,0.6599137569938732,0.37383923395914564,0.2582908504827408
-83.51510429382324,-2292.0,12268.0,9316.0,-52.0,-183.0,-660.0,0.6212321748211453,0.6385280669893273,0.4003568872204911,0.21463190696861043
-83.52294945716858,-2224.0,12432.0,9248.0,72.0,-143.0,-526.0,0.6314757436066131,0.6259091883497714,0.4227115487121103,0.17547370105293578
-83.53074097633362,-2288.0,12544.0,9528.0,95.0,-8.0,-456.0,0.6331717067418975,0.613847512168396,0.4481864794657037,0.14633421066299537
-83.53853178024292,-2272.0,12708.0,9616.0,85.0,150.0,-428.0,0.6278351127135537,0.5993241141042533,0.480015561265474,0.12735281088418596
-83.54631447792053,-2128.0,13024.0,9580.0,44.0,300.0,-244.0,0.6154453503292499,0.5877766030237628,0.5093180890317932,0.12783102080854755
-83.55410671234131,-2276.0,13288.0,9832.0,-97.0,505.0,-208.0,0.5997115096750887,0.5669648246546428,0.545299723153404,0.14678284878137896
-83.56188344955444,-2664.0,13624.0,9872.0,-213.0,606.0,-101.0,0.5818850825489036,0.5423204553130461,0.5782627774467267,0.18141233330648582
-83.56967329978943,-2584.0,13756.0,9920.0,-343.0,621.0,-215.0,0.5691052512025071,0.5031154936189159,0.6131694781616989,0.21683450875088078
-83.57745552062988,-2980.0,14076.0,9896.0,-461.0,653.0,-3.0,0.5532209726677909,0.4665196252498115,0.6353662409088968,0.2694730683585587
-83.5852541923523,-2992.0,13660.0,9836.0,-474.0,593.0,-191.0,0.5429660098067544,0.4180736160138365,0.6589886124266756,0.31005865973975183
-83.59303569793701,-3088.0,13136.0,9584.0,-395.0,668.0,-137.0,0.5215305909054984,0.3724786404694756,0.6832335377586958,0.3499391918969777
-83.6008608341217,-2968.0,13036.0,9624.0,-150.0,826.0,-28.0,0.4768143922412356,0.3378172253046754,0.7151360502000625,0.3835465908378344
-83.60863780975342,-2668.0,12724.0,9684.0,-42.0,1116.0,166.0,0.4009734158622972,0.3075582994531279,0.7515401968580093,0.4240466303554903
-83.61642694473267,-2788.0,12640.0,9968.0,80.0,1349.0,180.0,0.3016185494811182,0.27030343238160376,0.7912116894612286,0.4581990479164472
-83.62423777580261,-2496.0,12884.0,10128.0,141.0,1588.0,255.0,0.17673926014641728,0.22585783596762973,0.8244163279234933,0.4879438390922256
-83.63201236724854,-2132.0,12996.0,10064.0,146.0,1546.0,277.0,0.05038529560844023,0.18046563764903464,0.8410161063975118,0.5075287030251063
-83.63978743553162,-1908.0,13240.0,9924.0,107.0,1921.0,219.0,-0.10056110848029465,0.11030913862574493,0.83878549433556,0.5236012336588892
-83.64759969711304,-2268.0,14072.0,9952.0,65.0,1917.0,294.0,-0.251371305115599,0.04298791049695794,0.8104778588157152,0.5273425327859297
-83.65537738800049,-1532.0,13944.0,9492.0,-144.0,1802.0,307.0,-0.387497890969546,-0.01495179178484322,0.7534780453286356,0.5309356492309734
-83.66315937042236,-2028.0,14036.0,9552.0,-342.0,1846.0,349.0,-0.5183599807551824,-0.06516637643751083,0.6663455893525809,0.5320148769384677
-83.67093253135681,-2324.0,14196.0,9804.0,-421.0,1717.0,333.0,-0.6283604502103566,-0.10531016633100616,0.5639647891442575,0.525372848636325
-83.67868518829346,-2320.0,14136.0,9584.0,-515.0,1595.0,215.0,-0.7137017668614474,-0.13829477547521749,0.449834704112226,0.5187996550031365
-83.68647170066833,-2436.0,14056.0,9744.0,-472.0,1545.0,45.0,-0.7743571253314088,-0.1755757379746999,0.3293595427336811,0.5109466648226375
-83.69428157806396,-2560.0,13452.0,9568.0,-321.0,1520.0,-115.0,-0.8102847446957966,-0.22319096659950324,0.20853568163577446,0.5001372755817647
-83.70208716392517,-2632.0,13160.0,9808.0,-126.0,1534.0,-116.0,-0.8280066988964511,-0.2810903261846526,0.09145634501953744,0.4764754684804614
-83.70987391471863,-2608.0,13052.0,9852.0,88.0,1609.0,-172.0,-0.8232666393707954,-0.3524653557356569,-0.02500569726193831,0.44426898227278694
-83.71765208244324,-2696.0,12928.0,9584.0,303.0,1536.0,-133.0,-0.7979725886469018,-0.42964411191120494,-0.1262728896164267,0.4033619245988796
-83.72542405128479,-2724.0,12972.0,9636.0,373.0,1460.0,22.0,-0.762203234099503,-0.5029784649990042,-0.2118856965690221,0.3480852557419863
-83.73319602012634,-2704.0,12960.0,9660.0,346.0,1422.0,175.0,-0.7202338454648404,-0.5677373814728963,-0.2857110135091017,0.2780408068698357
-83.74099969863892,-2660.0,12852.0,9252.0,237.0,1360.0,255.0,-0.6758511585998305,-0.6173442281611218,-0.3500310063762832,0.19897137972739226
-83.7487940788269,-2472.0,12644.0,9060.0,119.0,1196.0,445.0,-0.6367942706475139,-0.6546008608090405,-0.3919629766923025,0.11115662283945799
-83.75656914710999,-2268.0,12560.0,8964.0,59.0,1031.0,599.0,-0.6008433169610282,-0.6846168973446918,-0.4121338064182683,0.020802354207796407
-83.76438498497009,-2072.0,12536.0,8768.0,44.0,917.0,778.0,-0.5636696109977664,-0.7125970232744278,-0.41130495437457554,-0.07287171306466912
-83.77219462394714,-2076.0,12640.0,9088.0,15.0,841.0,980.0,-0.5231266899219769,-0.7384226753673212,-0.3892894977681017,-0.171825800513494
-83.77998733520508,-2152.0,12768.0,9048.0,-14.0,1021.0,1054.0,-0.4698201075807993,-0.7520606790488352,-0.3647414945273144,-0.2839673285984713
-83.78776550292969,-2152.0,12924.0,8976.0,-41.0,712.0,1112.0,-0.41963323241333467,-0.7629906291492892,-0.31780032019346544,-0.37517490130556314
-83.7955801486969,-2200.0,12948.0,9364.0,-95.0,573.0,1127.0,-0.3710269249347672,-0.7672333976959373,-0.25904268067737796,-0.45452043300700606
-83.80336546897888,-2356.0,13120.0,9348.0,-95.0,422.0,1103.0,-0.3225030685694652,-0.7681660327509594,-0.19406819143963736,-0.5179288116742293
-83.81118631362915,-2580.0,13184.0,9396.0,-84.0,300.0,1057.0,-0.27413806217666115,-0.7665207845829204,-0.12730801379123666,-0.5666452852472518
-83.81902360916138,-2556.0,13220.0,8980.0,-40.0,168.0,1271.0,-0.21089861082171937,-0.7665156913547807,-0.04410549701767736,-0.6050042776652038
-83.82682156562805,-2612.0,13312.0,9232.0,-35.0,51.0,991.0,-0.1602329260864886,-0.7640691899628435,0.022942279782761782,-0.6244976654445201
-83.83460640907288,-2572.0,13268.0,9276.0,8.0,-39.0,914.0,-0.10956301331005988,-0.7620033487729504,0.08366043258926384,-0.6327304122548609
-83.84243321418762,-2780.0,13320.0,9176.0,62.0,-105.0,780.0,-0.061549760429113504,-0.7608593259258634,0.13272496693516947,-0.6322094560308457
-83.85021543502808,-2596.0,13412.0,9052.0,66.0,-90.0,634.0,-0.02119662409127596,-0.7576127230983107,0.1713247689360179,-0.6294612684476429
-83.85799741744995,-2464.0,13440.0,8896.0,92.0,-211.0,589.0,0.020289626525196336,-0.7593917165082242,0.20522532374729094,-0.6170859895079297
-83.86574602127075,-2372.0,13552.0,8776.0,95.0,-305.0,591.0,0.06369923762282048,-0.7637399293598505,0.2382670763280012,-0.5965505240679858
-83.8735294342041,-2176.0,13660.0,8820.0,116.0,-372.0,585.0,0.10935987183541353,-0.7688458099075575,0.26859413024998535,-0.569889228021541
-83.881276845932,-2100.0,13680.0,8868.0,100.0,-435.0,559.0,0.15372236592166927,-0.7749124679628637,0.29635588128486745,-0.5367059649743217
-83.88901972770691,-1796.0,13756.0,8840.0,115.0,-498.0,537.0,0.19907845644922914,-0.7811759551607225,0.31989887487298335,-0.49779172864916565
-83.89679718017578,-2088.0,13716.0,8776.0,110.0,-543.0,524.0,0.2439351887710334,-0.7864903726961464,0.34062863850270864,-0.45376276617557315
-83.90458416938782,-2184.0,13832.0,8964.0,69.0,-518.0,351.0,0.2775318099037967,-0.7939092217573125,0.3504107300755036,-0.41218510689758536
-83.9123888015747,-2204.0,13940.0,8764.0,7.0,-740.0,300.0,0.3106707644729067,-0.809231765396027,0.35215012711573934,-0.35301262576318376
-83.92022347450256,-2256.0,14096.0,9020.0,-20.0,-674.0,218.0,0.33603606363311717,-0.8222769607232006,0.3492096844187786,-0.2983168786876005
-83.92798829078674,-2272.0,14088.0,9120.0,-256.0,-762.0,155.0,0.3440352896884289,-0.842761470684412,0.34376813595054456,-0.23068656589392772
-83.9357659816742,-2124.0,13832.0,9136.0,-32.0,-523.0,23.0,0.35745171617199073,-0.8526772365419747,0.3300523203589964,-0.19035563221108623
-83.94356918334961,-2464.0,13960.0,9056.0,-77.0,-741.0,-50.0,0.37143888570360833,-0.8669994928699031,0.3038474864854233,-0.13424506883712056
-83.95135164260864,-2580.0,13804.0,9160.0,-99.0,-733.0,-219.0,0.37995083602510377,-0.8826135689185862,0.264074925079924,-0.08303664316826267
-83.959144115448,-2592.0,13572.0,9000.0,11.0,-759.0,-290.0,0.3951882809750467,-0.8921974869674573,0.2159445141153653,-0.03431958118072502
-83.966961145401,-2372.0,13424.0,8680.0,103.0,-740.0,-326.0,0.4151209561555373,-0.8947474420950172,0.16431380476546026,0.010128187815909899
-83.97475385665894,-2188.0,13432.0,8660.0,166.0,-722.0,-366.0,0.43761826135564863,-0.891030511543763,0.10943897346218441,0.05077396885868312
-83.9825336933136,-1960.0,13532.0,8936.0,237.0,-717.0,-423.0,0.46344897614193237,-0.8803306088105053,0.05006851765870074,0.0878988580345629
-83.99032235145569,-1840.0,13548.0,8768.0,276.0,-725.0,-438.0,0.4897060530945739,-0.8629087155208846,-0.010756309020291352,0.1243415942349597
-83.99813747406006,-1804.0,13520.0,8768.0,281.0,-650.0,-452.0,0.513790170902446,-0.8411528760494914,-0.06933800418202037,0.15386273289448124
-84.00593328475952,-1872.0,13468.0,8868.0,264.0,-684.0,-533.0,0.5345300963583466,-0.8143451652961398,-0.1351674137166689,0.18124375331328418
-84.01371359825134,-1840.0,13808.0,8920.0,204.0,-713.0,-258.0,0.5434370421243321,-0.7886391374528265,-0.18310278825831097,0.22180590852556428
-84.02150225639343,-1956.0,13492.0,9080.0,197.0,-715.0,-552.0,0.5544717443602453,-0.7541591681526469,-0.2503744250770857,0.24721990426487322
-84.02928113937378,-2092.0,13476.0,9380.0,174.0,-693.0,-650.0,0.5628319803211752,-0.7140225799961442,-0.32179092617297494,0.2642773486626
-84.0370705127716,-2108.0,13520.0,9364.0,252.0,-695.0,-644.0,0.5718083088783701,-0.6650647617919856,-0.38882274190662336,0.2820301329582416
-84.04484272003174,-2104.0,13704.0,9364.0,279.0,-641.0,-646.0,0.5801844113626234,-0.6112991242746891,-0.44988380682755713,0.2954724857362347
-84.05262970924377,-2024.0,13944.0,9484.0,321.0,-614.0,-659.0,0.5881887927546625,-0.551377028575499,-0.5060879368587492,0.30641853175537626
-84.06040644645691,-1960.0,14024.0,9340.0,337.0,-478.0,-661.0,0.5992380738237042,-0.4905970043965674,-0.5517771406077104,0.30946776449244306
-84.06822419166565,-1812.0,14180.0,9692.0,320.0,-332.0,-689.0,0.6140066819008173,-0.430533535311725,-0.5884461051277272,0.3022711546164205
-84.07601070404053,-2228.0,14016.0,9372.0,357.0,-232.0,-688.0,0.6321381262693528,-0.3689692619815686,-0.6157602482790525,0.2917231387270605
-84.08378458023071,-2392.0,13796.0,9724.0,374.0,-73.0,-674.0,0.6559865401537749,-0.3094819610785334,-0.6305042661288818,0.2763456988942389
-84.09158062934875,-2384.0,13576.0,9516.0,404.0,-16.0,-588.0,0.6789537157838729,-0.2530434856286833,-0.6362904882663656,0.26481174586091943
-84.09939694404602,-2392.0,13572.0,9416.0,386.0,42.0,-529.0,0.700962626962854,-0.20135004324166558,-0.635477953793744,0.2535297338184028
-84.10716843605042,-2196.0,13448.0,9540.0,356.0,104.0,-523.0,0.7235068853869026,-0.15253372636591067,-0.6293891694369717,0.23904083859063044
-84.11494421958923,-2200.0,13536.0,9224.0,323.0,129.0,-530.0,0.7448927441595959,-0.10545216644344808,-0.6205469760412168,0.22121503298119527
-84.12272667884827,-2168.0,13808.0,9712.0,507.0,129.0,-550.0,0.7655696058345215,-0.04498306243601285,-0.6060265127452046,0.21121450841772133
-84.13050103187561,-2052.0,13464.0,9236.0,164.0,151.0,-574.0,0.7837362961232862,-0.006321495276217734,-0.5942177849456322,0.18061749884972872
-84.13829803466797,-2424.0,13520.0,9336.0,110.0,192.0,-585.0,0.8018666685156579,0.028594586741068222,-0.5787076310081744,0.14590981236919706
-84.14607286453247,-2404.0,13480.0,9312.0,65.0,187.0,-548.0,0.8171537333079739,0.05849366676461744,-0.5625828253640591,0.11108029390788941
-84.15384197235107,-2356.0,13416.0,9300.0,40.0,223.0,-579.0,0.8323646202787157,0.08761992043957718,-0.5424097074032348,0.07268836058935724
-84.16164231300354,-2224.0,13408.0,9200.0,41.0,292.0,-640.0,0.8484005532461913,0.11896252695401018,-0.5149290780855008,0.030207002073841603
-84.16941857337952,-2096.0,13468.0,8964.0,71.0,313.0,-682.0,0.8617225078718044,0.1538678856775007,-0.4832853676914246,-0.013937236441575252
-84.17718601226807,-2252.0,13584.0,9168.0,25.0,350.0,-760.0,0.8729424486760552,0.18789106388148072,-0.44542742039070493,-0.06529044782370794
-84.1850175857544,-2184.0,13712.0,9036.0,45.0,338.0,-778.0,0.8785246653695702,0.22305229370524782,-0.40587414424160057,-0.1170823028739229
-84.19279932975769,-2228.0,13780.0,8920.0,-20.0,359.0,-821.0,0.8805537826666305,0.2536780811410271,-0.360859518299524,-0.17335765063224176
-84.20060753822327,-2468.0,13700.0,8940.0,-60.0,281.0,-845.0,0.8752750413521762,0.27927742524929766,-0.3184745585616242,-0.23339168211623953
-84.20838618278503,-2616.0,13644.0,8856.0,-39.0,196.0,-933.0,0.8596451647256005,0.30537067779506577,-0.2787923163270556,-0.3000563018232945
-84.21620678901672,-2712.0,13596.0,8772.0,-12.0,209.0,-1039.0,0.8342021193896665,0.33401401177528967,-0.23391022181566284,-0.3712512250130804
-84.22398829460144,-2788.0,13496.0,8656.0,-237.0,130.0,-1127.0,0.8030472383982354,0.3424674839108001,-0.18282021420428812,-0.4521149462725954
-84.23177480697632,-2712.0,13544.0,8632.0,44.0,1.0,-1050.0,0.7570307255451957,0.36108484277438135,-0.15243289316307934,-0.5227680460596728
-84.23958134651184,-2868.0,12972.0,8544.0,126.0,-84.0,-1275.0,0.689383587713733,0.3803874740922218,-0.12287495459726312,-0.6041170284617059
-84.2473783493042,-2852.0,12852.0,8692.0,277.0,-113.0,-868.0,0.6311990246258138,0.3992444387361281,-0.11533903140972289,-0.654895852241532
-84.25515723228455,-2732.0,12880.0,8912.0,354.0,-185.0,-800.0,0.5696197464226211,0.41498274425238313,-0.11782392909147947,-0.699600020148396
-84.26294541358948,-2644.0,13028.0,9052.0,440.0,-163.0,-816.0,0.5006105290871736,0.4337883751143219,-0.12311871434900587,-0.738957729481047
-84.27072644233704,-2580.0,13220.0,9268.0,427.0,69.0,-954.0,0.4220400340171436,0.46511336101169615,-0.11133752206418589,-0.7701660387707439
-84.27850365638733,-2564.0,13516.0,9380.0,339.0,177.0,-968.0,0.34367107564008587,0.49674557555160354,-0.08819657393971313,-0.7920576931534654
-84.28631091117859,-2688.0,13652.0,9300.0,263.0,331.0,-962.0,0.26734943551058327,0.5325749940465999,-0.05474122224428841,-0.8011813487816838
-84.29410004615784,-2848.0,13712.0,9336.0,222.0,300.0,-902.0,0.1948364496915279,0.5609063978267506,-0.021466345677409602,-0.8043394598997848
-84.30190587043762,-2900.0,13776.0,9068.0,146.0,339.0,-860.0,0.12767014059210663,0.5867547207681106,0.01590543318794296,-0.7994787364605966
-84.30968427658081,-2908.0,13764.0,9072.0,97.0,335.0,-797.0,0.0665666729458339,0.6082755901348503,0.053356853327168184,-0.7891278291265901
-84.31744980812073,-3160.0,13636.0,9144.0,80.0,203.0,-724.0,0.011605624006747495,0.6179366593994231,0.08711351806682817,-0.7813007291892894
-84.32522559165955,-3064.0,13356.0,8980.0,61.0,245.0,-728.0,-0.04298340955410603,0.6276932778112306,0.12203976526030268,-0.7676326407787175
-84.33302545547485,-3132.0,13472.0,9076.0,115.0,157.0,-806.0,-0.10458691713338314,0.6275037771024019,0.15735240485445287,-0.7553415169135576
-84.3408031463623,-3152.0,13452.0,8884.0,179.0,196.0,-838.0,-0.1717413511765427,0.6254027824403292,0.18897227605605366,-0.7373369290183046
-84.34857726097107,-2912.0,13356.0,9080.0,495.0,166.0,-783.0,-0.2509808218504803,0.6136434576760891,0.19658399431200957,-0.722360759658861
-84.35637712478638,-3184.0,13400.0,9016.0,345.0,219.0,-914.0,-0.32953925263051653,0.601876732381484,0.218039577475972,-0.6939791226309389
-84.36418294906616,-3312.0,13552.0,9124.0,367.0,303.0,-932.0,-0.40930520898975864,0.5894427190688464,0.2349660304144235,-0.655604676143988
-84.37195420265198,-3200.0,13640.0,9468.0,426.0,334.0,-936.0,-0.4894494531960896,0.5715541270138991,0.24561796368157854,-0.6110948605383157
-84.37976384162903,-3232.0,13508.0,9212.0,479.0,395.0,-918.0,-0.5681357723336213,0.5498599639532594,0.2477355710276196,-0.5599132531775071
-84.38759517669678,-3108.0,13572.0,9076.0,470.0,415.0,-822.0,-0.6372756974258361,0.5268563445141405,0.24255736596850647,-0.5074130486398942
-84.39537143707275,-2984.0,13456.0,9164.0,256.0,508.0,-710.0,-0.6891211257885711,0.518376636966545,0.23478230220654597,-0.4486368317578723
-84.40319037437439,-3068.0,13556.0,9240.0,499.0,523.0,-581.0,-0.7427890198395743,0.4952282705737036,0.2092990977676491,-0.39900791934996843
-84.4109628200531,-2716.0,13212.0,9276.0,465.0,575.0,-534.0,-0.7895536243773448,0.47374398142485347,0.1782568211004839,-0.3469815845653437
-84.41872525215149,-2684.0,13216.0,9316.0,492.0,583.0,-470.0,-0.8307336524334363,0.44868391735335605,0.14209323905533963,-0.29727739981002815
-84.42649531364441,-2764.0,13220.0,9260.0,424.0,608.0,-443.0,-0.8639950431682106,0.42686301122408127,0.10397423732321329,-0.24594693127284134
-84.43429756164551,-2856.0,13180.0,9052.0,440.0,624.0,-402.0,-0.8922274431316789,0.40212230788750924,0.062189637968404494,-0.1958578263723166
-84.44206619262695,-2900.0,13192.0,9184.0,400.0,649.0,-352.0,-0.9134312076588831,0.3789506534039852,0.017040525831141594,-0.14747695290764964
-84.4498438835144,-2932.0,13212.0,9008.0,445.0,717.0,-321.0,-0.9305356327514223,0.35092827207775557,-0.03519588658618563,-0.09855979709721088
-84.45764350891113,-3004.0,13108.0,8976.0,526.0,794.0,-212.0,-0.9426868753028295,0.31432253156439965,-0.0974224598821695,-0.05524188260044839
-84.46541333198547,-2912.0,12960.0,8916.0,589.0,836.0,-82.0,-0.9484000461764597,0.2692626764853733,-0.16617532071433014,-0.02051161256245362
-84.47318649291992,-2960.0,12740.0,8968.0,718.0,912.0,121.0,-0.946983326382704,0.20836368839773275,-0.24455176477560295,0.0012598633179696876
-84.4809901714325,-2960.0,12628.0,9036.0,722.0,997.0,331.0,-0.9331576304315438,0.1403730995296898,-0.33084513640221874,0.007329762261611257
-84.4887580871582,-2968.0,12744.0,9140.0,525.0,1063.0,483.0,-0.903625187087435,0.08220546838566999,-0.4203434940386142,-0.0038896334146353057
-84.49653649330139,-2976.0,12892.0,9088.0,780.0,1187.0,657.0,-0.8575304631284902,-0.0032302671801345256,-0.5140899289725711,-0.018509865195590072
-84.5043785572052,-2992.0,13140.0,8992.0,677.0,1317.0,865.0,-0.7881169791521586,-0.08979382307196106,-0.6066486412260237,-0.052783734320493374
-84.51217842102051,-2908.0,13264.0,9212.0,623.0,1378.0,875.0,-0.6982290152592746,-0.1708054546650818,-0.6893646262696345,-0.0898785344498101
-84.51997137069702,-2864.0,13284.0,9376.0,607.0,1470.0,916.0,-0.5861440697432267,-0.24830791480120196,-0.7602565982085673,-0.12956933986195787
-84.52775549888611,-2988.0,13284.0,9244.0,644.0,1449.0,895.0,-0.46021414797450305,-0.32028851225330424,-0.8119964452011158,-0.16211101104927597
-84.53556966781616,-3052.0,12824.0,8960.0,519.0,1336.0,962.0,-0.3337170200897981,-0.3860760620780389,-0.8366038075655726,-0.1991790500014647
-84.5433452129364,-3296.0,13276.0,8908.0,878.0,1193.0,1003.0,-0.19726339283323913,-0.45859963936932846,-0.8425647382528795,-0.20213408042954462
-84.55112433433533,-3568.0,12952.0,8548.0,984.0,1037.0,975.0,-0.06375932584680143,-0.5230142633068402,-0.8293240112551024,-0.18604438476049556
-84.55892539024353,-3612.0,13008.0,7936.0,1087.0,918.0,935.0,0.06670042372843736,-0.5755120329880288,-0.8006040349728016,-0.15287292940773328
-84.5667142868042,-3840.0,13128.0,8140.0,1119.0,786.0,903.0,0.18792260055371762,-0.6153433901712951,-0.7578923256076275,-0.10787414499631824
-84.57448720932007,-3500.0,13084.0,8148.0,1104.0,682.0,819.0,0.2973563623894239,-0.639279033062807,-0.7068137319632237,-0.05758350407045531
-84.58230376243591,-3508.0,13436.0,8160.0,1070.0,584.0,771.0,0.3938385857165804,-0.650995404663927,-0.6489058680243482,-0.004162445288637941
-84.59008049964905,-3540.0,13692.0,8380.0,935.0,761.0,701.0,0.48673037758582105,-0.6534519370399461,-0.5789904955378801,0.029395775048580056
-84.59786772727966,-3376.0,13956.0,8312.0,843.0,399.0,535.0,0.5511933053653539,-0.6428602234804732,-0.5270544737294519,0.07162579778838157
-84.60571026802063,-3228.0,14084.0,8508.0,716.0,368.0,499.0,0.6031460365576217,-0.6314943652538856,-0.47525352636633267,0.10753516129057389
-84.61348414421082,-3216.0,14116.0,8608.0,621.0,266.0,423.0,0.6429197216482866,-0.6173241873103628,-0.4310570973049925,0.14055197665021996
-84.62126326560974,-3228.0,14120.0,8784.0,618.0,188.0,441.0,0.6763511143575482,-0.6001079551456852,-0.3882441113844034,0.17800596128641916
-84.62903594970703,-2872.0,14268.0,8936.0,623.0,121.0,301.0,0.7071302894474563,-0.5742810702615129,-0.3549653546982371,0.210160898002466
-84.63679671287537,-2892.0,14364.0,9196.0,729.0,21.0,152.0,0.7400283954089601,-0.5331901251365027,-0.33194367859521134,0.24058191678935278
-84.64456963539124,-2972.0,14552.0,9088.0,805.0,10.0,99.0,0.7738285049621577,-0.4829809890211993,-0.30896793706462083,0.26917953677456286
-84.65236806869507,-2972.0,14520.0,9200.0,790.0,25.0,-155.0,0.809518524853488,-0.42487782858523004,-0.2944664413996971,0.2782949938197441
-84.66014075279236,-3120.0,14612.0,9052.0,791.0,-116.0,-313.0,0.8411885707582808,-0.35699776493487984,-0.2941585356777283,0.2800448895178692
-84.66789722442627,-3216.0,14644.0,9000.0,697.0,-210.0,-405.0,0.8652080020844816,-0.2893781076775668,-0.30426843010816934,0.2740367609745827
-84.67569541931152,-3192.0,14796.0,9124.0,630.0,-281.0,-451.0,0.8822449693473513,-0.22235940468237306,-0.3208801467659332,0.2631274227861188
-84.68346118927002,-3208.0,14556.0,8748.0,481.0,-350.0,-526.0,0.8918000383578552,-0.1619786905252132,-0.3460487425446122,0.2422929284646134
-84.69123411178589,-2832.0,14472.0,9020.0,424.0,-322.0,-640.0,0.8993124591154515,-0.10237239104181513,-0.3700950151006786,0.20925265644605168
-84.69900488853455,-2628.0,14352.0,9272.0,352.0,-308.0,-621.0,0.9018542367763437,-0.04874740679184271,-0.39235623023339794,0.1741815562471125
-84.70681238174438,-2936.0,14120.0,9444.0,349.0,-324.0,-755.0,0.9010643825050968,0.009669916156610484,-0.41436639443076223,0.12763213728792136
-84.71459627151489,-2664.0,13952.0,9336.0,303.0,-245.0,-728.0,0.8977953838621681,0.0625889147032786,-0.4283821025751881,0.08083842319905249
-84.72237873077393,-2616.0,13636.0,9292.0,260.0,-214.0,-604.0,0.8910746846212757,0.10704885156181364,-0.4390577903183355,0.04188921779135142
-84.73017024993896,-2544.0,13760.0,9188.0,265.0,-203.0,-585.0,0.8814901519903993,0.150742214495996,-0.4474721637404816,0.0045342463759142386
-84.73794150352478,-2256.0,13820.0,9308.0,230.0,-119.0,-527.0,0.872927135495243,0.18899430578690993,-0.4488397180970575,-0.028675354483381127
-84.7457275390625,-2424.0,13920.0,9240.0,176.0,-132.0,-421.0,0.8631015166922505,0.21854556170903924,-0.4518241168548756,-0.056112180220779434
-84.75350213050842,-2548.0,14032.0,9264.0,149.0,-111.0,-393.0,0.8533835753883391,0.24470652425366995,-0.452908245755183,-0.08203237880292139
-84.76127505302429,-2480.0,14124.0,9056.0,250.0,-153.0,-477.0,0.8376148397785177,0.28090497145892196,-0.4551739708609224,-0.11095239268790173
-84.76906180381775,-2744.0,14092.0,9036.0,-98.0,-192.0,-455.0,0.8272183071998079,0.2898131084952797,-0.4564717390874214,-0.1528129110785223
-84.77684783935547,-2828.0,13908.0,8876.0,-179.0,-233.0,-490.0,0.8149406129246483,0.2930728727790581,-0.45774828907643655,-0.2011133821868247
-84.78462958335876,-2884.0,13780.0,8700.0,-209.0,-257.0,-596.0,0.7981589606049124,0.29711630364883207,-0.4561103183410928,-0.2581231357606832
-84.79241132736206,-2940.0,13524.0,8832.0,-263.0,-4.0,-620.0,0.7894916163549902,0.30299257811480734,-0.43343519163129457,-0.3115002728218234
-84.80022430419922,-3100.0,13160.0,8836.0,-219.0,-320.0,-620.0,0.7647573910691214,0.302175988581937,-0.4320466761304956,-0.3703666755720212
-84.80803513526917,-3088.0,12924.0,8732.0,-108.0,-288.0,-637.0,0.7347353121463328,0.30922534255373035,-0.42994849422018017,-0.4238962148044718
-84.81583666801453,-3116.0,12696.0,8584.0,91.0,-369.0,-533.0,0.6975481080310377,0.32101963265423467,-0.44165932539142266,-0.4640151643294143
-84.82369112968445,-3052.0,12632.0,8580.0,277.0,-428.0,-529.0,0.6505039688141706,0.3403560881916577,-0.46294869538886774,-0.49666973455771424
-84.83148288726807,-3320.0,12632.0,8468.0,384.0,-461.0,-433.0,0.6004317031285518,0.3590063754519944,-0.49167484417856233,-0.5185094404781411
-84.8392722606659,-3272.0,12692.0,8500.0,426.0,-552.0,-439.0,0.5421256384118031,0.37427021513554903,-0.5245784792613367,-0.539294926116358
-84.84707379341125,-3268.0,12580.0,8504.0,452.0,-621.0,-420.0,0.4777767435862334,0.3845521537523737,-0.5597132253043513,-0.5572881927261206
-84.85485434532166,-3144.0,12808.0,8336.0,352.0,-622.0,-445.0,0.41283737361472134,0.3896578686415631,-0.5860995345688392,-0.5781171022645873
-84.8626356124878,-2936.0,12732.0,8292.0,382.0,-667.0,-429.0,0.34309544529098013,0.39053385710341054,-0.6128722370703228,-0.5951104459719514
-84.87044906616211,-2856.0,12820.0,8484.0,322.0,-637.0,-475.0,0.27264425194828873,0.3913615393155917,-0.6305927113633517,-0.612253288925021
-84.87822151184082,-2848.0,12804.0,8648.0,330.0,-658.0,-447.0,0.20074048867370467,0.38750599059403074,-0.6466789527036225,-0.6255786885683744
-84.88601899147034,-2704.0,13024.0,8508.0,307.0,-646.0,-764.0,0.11175411565431867,0.39900798600414605,-0.6461261404552802,-0.6409560479156114
-84.89382529258728,-2772.0,12620.0,8904.0,285.0,-603.0,-503.0,0.039622044356444674,0.39528842947296067,-0.648624296214315,-0.6492023363222754
-84.90167236328125,-2796.0,12992.0,9008.0,328.0,-634.0,-611.0,-0.04202171583720271,0.3936739687126672,-0.6460750379547099,-0.6525657262589997
-84.90953159332275,-2864.0,13172.0,9104.0,283.0,-608.0,-708.0,-0.12585531130001082,0.39639339336203017,-0.6332796282570404,-0.6526788113238677
-84.9173264503479,-2648.0,13380.0,9212.0,273.0,-623.0,-754.0,-0.21180902427446877,0.3979027745681181,-0.6134450396613748,-0.6484562456648446
-84.92513680458069,-2528.0,13676.0,8920.0,507.0,-614.0,-821.0,-0.30717942764555933,0.39563766316283666,-0.5992681319125094,-0.6244912687880332
-84.93292355537415,-2324.0,13908.0,8928.0,112.0,-674.0,-819.0,-0.38920773381352447,0.39687701619267907,-0.5565956535897784,-0.6174198347661857
-84.94069576263428,-2724.0,14320.0,9116.0,8.0,-707.0,-771.0,-0.4634016053126569,0.3941621500546468,-0.5042041916243902,-0.6129219239073976
-84.94847536087036,-2932.0,14136.0,9200.0,-33.0,-736.0,-684.0,-0.5291657608137201,0.3845699446899966,-0.4474379995757757,-0.6098268539177313
-84.95628428459167,-3372.0,13976.0,9380.0,-82.0,-642.0,-757.0,-0.5895106361457257,0.3821144990871823,-0.38659579356773843,-0.5975026458971908
-84.96406102180481,-3660.0,13908.0,8948.0,-77.0,-604.0,-838.0,-0.6483410287846967,0.3810956611378867,-0.3223128670947784,-0.5749212321365614
-84.97183465957642,-3860.0,13576.0,8780.0,-144.0,-525.0,-861.0,-0.6987417612611925,0.3853939803341487,-0.25582795147824067,-0.5456954189236477
-84.9796154499054,-4060.0,13264.0,8684.0,-183.0,-466.0,-878.0,-0.7419179320698791,0.39223660265754223,-0.1885418473457018,-0.510059017573745
-84.987389087677,-4168.0,12984.0,8252.0,-179.0,-494.0,-807.0,-0.7771110147115602,0.39353100208647546,-0.12066038108880754,-0.4761017681612696
-84.99517130851746,-4384.0,12736.0,8232.0,-224.0,-449.0,-748.0,-0.8027743964428186,0.39653056563258227,-0.055172309898038036,-0.44189681505469974
-85.00295543670654,-4552.0,12696.0,8220.0,-338.0,-388.0,-684.0,-0.8170886022157542,0.40722899691200243,0.008560788314102914,-0.4079920012777094
-85.01073145866394,-4600.0,12716.0,8236.0,-483.0,-353.0,-682.0,-0.8214276735568934,0.42709596589585835,0.07481039765702235,-0.37047134495503364
-85.01851773262024,-4788.0,12572.0,8228.0,-683.0,-317.0,-757.0,-0.8149124877517118,0.458744072634284,0.14708649078755634,-0.32223761009079815
-85.02629971504211,-4908.0,12384.0,8028.0,-855.0,-373.0,-772.0,-0.793259983064541,0.49628159823074003,0.2272140464760794,-0.26984616285942004
-85.03409004211426,-5108.0,12220.0,7772.0,-934.0,-501.0,-649.0,-0.7538022751923781,0.5330708108213389,0.3101238969205032,-0.22680566378271005
-85.04186606407166,-5180.0,12108.0,7892.0,-1039.0,-666.0,-766.0,-0.6970785870271128,0.5629500743912239,0.40685219470463013,-0.1778762179585147
-85.04966020584106,-5220.0,12348.0,8012.0,-1047.0,-518.0,-370.0,-0.6294388146665971,0.6020048415542149,0.47010176709672424,-0.14283304207686445
-85.05744171142578,-5220.0,12292.0,8128.0,-1011.0,-903.0,-277.0,-0.5388277497574928,0.6303268521188796,0.5429223364425715,-0.1326199539319776
-85.06522965431213,-5108.0,12924.0,8412.0,-988.0,-929.0,-238.0,-0.44003866808317127,0.6500761593638341,0.6067851020191511,-0.12481505352305917
-85.07301115989685,-5156.0,13216.0,8404.0,-946.0,-892.0,-149.0,-0.338521565780316,0.6644806952456073,0.6555536869241844,-0.11881884828454566
-85.08079075813293,-4936.0,13484.0,8584.0,-859.0,-835.0,-247.0,-0.24207164371337528,0.6633026620491721,0.6994976280062101,-0.1101542838117168
-85.08856916427612,-5112.0,13428.0,8768.0,-788.0,-798.0,130.0,-0.1457192609411784,0.6769446862456864,0.7129627722217664,-0.11043493188452437
-85.09639930725098,-5088.0,13484.0,8932.0,-699.0,-646.0,369.0,-0.06035437062773423,0.6998074684740405,0.7033284230096688,-0.1093434332770717
-85.10421514511108,-5240.0,13340.0,8988.0,-619.0,-682.0,602.0,0.025033714760735085,0.7301641021684748,0.6729529927491579,-0.1156199229360367
-85.1120126247406,-5240.0,13756.0,9208.0,-518.0,-671.0,521.0,0.10242491536070537,0.7500440392010649,0.6410812936044202,-0.12632438783855957
-85.11979269981384,-5284.0,13696.0,8788.0,-402.0,-679.0,929.0,0.17609118355787493,0.7865087181862342,0.575349256567152,-0.13917314488743485
-85.1275839805603,-5292.0,13604.0,8580.0,-509.0,-657.0,1101.0,0.2556717428484593,0.8200626601923634,0.4922556194050447,-0.14076078442240744
-85.13535571098328,-5420.0,13352.0,8460.0,-72.0,-745.0,1339.0,0.30667394812194587,0.8591456058854262,0.377255830882207,-0.1596807925094228
-85.1431336402893,-5132.0,13196.0,8232.0,102.0,-781.0,1649.0,0.3435122483001538,0.8939519694253434,0.2283308872079812,-0.175254721976726
-85.15093207359314,-5228.0,13100.0,8044.0,243.0,-877.0,1869.0,0.36479539350848406,0.9101553505530805,0.05159535104509468,-0.18941879126718889
-85.15870475769043,-5104.0,13128.0,8304.0,345.0,-938.0,2113.0,0.3690714694461601,0.8966107328596762,-0.14880122713273386,-0.19425148381796023
-85.16648077964783,-4960.0,13096.0,8324.0,431.0,-1000.0,2059.0,0.3502166330114127,0.849356353582761,-0.3424593149159943,-0.19663090351725843
-85.1742799282074,-4788.0,13176.0,8248.0,473.0,-1100.0,2641.0,0.31768101107243635,0.7425223675652551,-0.5622540089282344,-0.177791277382811
-85.18205642700195,-4632.0,13196.0,8612.0,475.0,-1190.0,2910.0,0.2637611589193485,0.5727318480476011,-0.762386719757147,-0.14551553461895056
-85.18983364105225,-4472.0,13280.0,8752.0,487.0,-1365.0,3211.0,0.1810459619537147,0.3373236927670965,-0.9180806536426734,-0.10277645336002304
-85.1976363658905,-4220.0,13392.0,8952.0,517.0,-1458.0,3436.0,0.0758268848132319,0.05419799952733508,-0.9945099828023855,-0.04756841907352663
-85.2054431438446,-4068.0,13600.0,9116.0,470.0,-1293.0,3632.0,-0.022330832333338078,-0.24942085910061154,-0.9680809422096812,0.010481331176397752
-85.2132203578949,-3924.0,13684.0,9252.0,450.0,-1551.0,3784.0,-0.1384544347577215,-0.535188430801744,-0.8303276112497012,0.07042564183769959
-85.22102761268616,-4016.0,13676.0,9292.0,367.0,-1579.0,3948.0,-0.24374299422338322,-0.7647280270355561,-0.5852260807620244,0.11528587003291377
-85.22879576683044,-3888.0,13680.0,9332.0,350.0,-1527.0,3869.0,-0.3170387466570669,-0.8967625409569565,-0.27332170537136924,0.14352220604291652
-85.23657655715942,-4256.0,13592.0,9372.0,309.0,-1486.0,4336.0,-0.3552481331200003,-0.9189597957276904,0.10314287728307912,0.13664993456509095
-85.24436521530151,-4308.0,13464.0,9424.0,339.0,-1464.0,4502.0,-0.34061849410324635,-0.8050628690827792,0.4746004909619937,0.10299122427505776
-85.25214672088623,-4364.0,13348.0,9116.0,364.0,-1424.0,4627.0,-0.2741367176752262,-0.5629108782072813,0.7783437068138724,0.04649169045540565
-85.25993609428406,-4356.0,13172.0,9212.0,416.0,-1406.0,4851.0,-0.16270091310994933,-0.2172637383871019,0.9621003414116265,-0.026226206566742603
-85.26773357391357,-4488.0,12916.0,9044.0,509.0,-1051.0,5079.0,-0.04838850775701267,0.18173180776609346,0.9759518243896076,-0.11022766818595728
-85.2755606174469,-4520.0,12660.0,8932.0,644.0,-1301.0,5319.0,0.09321525020215414,0.5583444349506305,0.8027372038948009,-0.18755103458143915
-85.28334307670593,-4408.0,12656.0,8768.0,664.0,-1193.0,5589.0,0.21092406582073372,0.8363105578375736,0.4555080492141187,-0.22047246179104849
-85.29113006591797,-4356.0,12504.0,8776.0,751.0,-1267.0,5658.0,0.2809965008671676,0.9358622901352237,0.004126432956464001,-0.2125693132940831
-85.29893517494202,-4184.0,12548.0,8704.0,735.0,-1240.0,6123.0,0.2937579279790792,0.8178474004141835,-0.4734655469710708,-0.1437438180117157
-85.30670952796936,-4324.0,12508.0,8668.0,689.0,-1252.0,6159.0,0.23655903785849822,0.4948646856830468,-0.8351464495180262,-0.040977705264151267
-85.31448554992676,-3940.0,12792.0,8532.0,700.0,-1324.0,6714.0,0.114759717247816,0.012965692962634863,-0.9902123881644938,0.07836787880739254
-85.32230281829834,-3804.0,12604.0,8304.0,605.0,-1319.0,6907.0,-0.04018580321950128,-0.48442821532700525,-0.8574453312971151,0.1688250847814889
-85.33008408546448,-3608.0,12724.0,7960.0,614.0,-1409.0,6953.0,-0.1887282788392712,-0.8376138001526204,-0.4666140996711153,0.21226408209672887
-85.33785367012024,-3624.0,12908.0,8064.0,649.0,-1518.0,7483.0,-0.2841524035445084,-0.9350356209041021,0.09774138564610944,0.1881818820512157
-85.34565210342407,-3496.0,13004.0,8092.0,666.0,-1588.0,7705.0,-0.2823670282479941,-0.7078533224759446,0.6397488973428935,0.09966886959685343
-85.35342907905579,-3384.0,13352.0,7788.0,686.0,-1644.0,7956.0,-0.17718103021279816,-0.21683737138335998,0.95961590480553,-0.026939787462976966
-85.36120533943176,-3296.0,13464.0,7708.0,662.0,-1653.0,8123.0,-0.005741821870563349,0.36374530212576295,0.920444954258545,-0.14295968957377117
-85.3690094947815,-3132.0,13424.0,7504.0,613.0,-1718.0,8301.0,0.17385326190546774,0.8103194880472602,0.522078561438471,-0.20147294186066692
-85.37677597999573,-3076.0,13572.0,7108.0,653.0,-1869.0,8465.0,0.2882227290537021,0.9344928635051344,-0.0928625781423764,-0.18715578563208088
-85.3845567703247,-2880.0,13596.0,6972.0,648.0,-1799.0,8625.0,0.2865126035416504,0.6742307592329618,-0.6749074497175149,-0.08844967852812681
-85.3923487663269,-2648.0,13360.0,6992.0,669.0,-2090.0,8885.0,0.15054822360926662,0.11826037290611356,-0.9807237364789246,0.039123768670948945
-85.40010285377502,-2496.0,13160.0,7260.0,931.0,-2149.0,8973.0,-0.057265936162089914,-0.4899371682105594,-0.8537517443394378,0.16670375760211456
-85.40791153907776,-2448.0,12812.0,7588.0,1158.0,-2405.0,9612.0,-0.2465387073631213,-0.8876822479829258,-0.31204275959200034,0.23209525754290947
-85.41567134857178,-1876.0,12988.0,7856.0,1402.0,-2455.0,9779.0,-0.3012554724357774,-0.8480133299994413,0.3939279819666431,0.1869205111656913
-85.42344164848328,-1700.0,13112.0,8400.0,1588.0,-2487.0,10286.0,-0.19448025569812089,-0.3620606801254425,0.9110213986280041,0.03360811349318623
-85.43121790885925,-1092.0,13216.0,8584.0,1696.0,-2465.0,11069.0,0.015998797369865033,0.3510265952481306,0.9242532152635883,-0.14926607781456008
-85.43898844718933,-824.0,13360.0,9080.0,1866.0,-2490.0,11616.0,0.21458472549658714,0.8679637575104895,0.3728152789934908,-0.2481956465791291
-85.44675731658936,-400.0,13464.0,9584.0,2070.0,-2474.0,11795.0,0.26930463937244054,0.8456823055257647,-0.41846299954705757,-0.19283455951459014
-85.45453691482544,-52.0,13736.0,9788.0,2225.0,-2249.0,12528.0,0.15516320385898102,0.2669894595898194,-0.9510603262745176,0.011192158985662753
-85.46231341362,652.0,13784.0,10568.0,2437.0,-1878.0,12707.0,-0.04608034492326007,-0.49632529386583246,-0.8371391457553161,0.2252462100120847
-85.47009611129761,688.0,13788.0,11440.0,2761.0,-1638.0,12770.0,-0.19512936223064745,-0.9244389329567839,-0.1463533690355629,0.29311752353130316
-85.47787237167358,540.0,13724.0,11920.0,3101.0,-1515.0,12524.0,-0.18836097309449165,-0.7265164659866105,0.6412050771216908,0.1598437284931417
-85.48566174507141,576.0,13692.0,11640.0,3247.0,-987.0,12550.0,-0.06769096386936457,-0.04208096539756199,0.9907885343424023,-0.10947696551000978
-85.49343776702881,-520.0,14004.0,11244.0,3159.0,-447.0,12631.0,0.06819833323320898,0.6784642029001212,0.6667143773863643,-0.3008774696012111
-85.50122213363647,-876.0,13916.0,10028.0,2975.0,-202.0,12865.0,0.15839157896209238,0.9433269913693862,-0.11440004881712594,-0.26825160558422806
-85.50905442237854,-620.0,14000.0,9296.0,2652.0,117.0,13143.0,0.16177501518414875,0.5530730403928472,-0.8166181159593775,-0.03277055293609203
-85.5168399810791,668.0,14512.0,9128.0,2176.0,334.0,13078.0,0.07714334983802006,-0.22716986679616288,-0.9475433588095734,0.21119739196177176
-85.52460050582886,940.0,14852.0,8648.0,1774.0,460.0,12756.0,-0.05634414466112918,-0.849624700283519,-0.43768727521981876,0.2887785572739029
-85.53239178657532,1772.0,15600.0,8388.0,984.0,417.0,11342.0,-0.17969507509519606,-0.9205835686574986,0.302263740765517,0.16991822775321264
-85.54020047187805,2296.0,16712.0,8548.0,117.0,361.0,10751.0,-0.24741068330439564,-0.4694992121542706,0.8472630590255044,-0.02244442879905571
-85.54798722267151,2616.0,17852.0,8420.0,-267.0,-186.0,9841.0,-0.17093916843163637,0.20001113153848737,0.9518432291496131,-0.15738429107961122
-85.55576467514038,2572.0,18612.0,7984.0,-743.0,-849.0,9333.0,0.03153089080905486,0.7536323552549885,0.6275325940590165,-0.19299460985003583
-85.56357884407043,2820.0,18964.0,8116.0,-1051.0,-1461.0,9185.0,0.25981734135439266,0.9519345061622204,0.028613841592036577,-0.15967746609515743
-85.5713517665863,4008.0,19696.0,7740.0,-1043.0,-1898.0,8415.0,0.373382618472818,0.7352129450312217,-0.5570466958235143,-0.0987234741741038
-85.57913017272949,4980.0,19268.0,8260.0,-1383.0,-2222.0,7282.0,0.34554100608079436,0.2625664083608951,-0.8989830415869088,-0.059074404409034706
-85.58692574501038,5348.0,19164.0,8680.0,-1338.0,-2358.0,6106.0,0.1924093363996549,-0.2324575095700791,-0.952930701126241,-0.02941483234308543
-85.59469699859619,6036.0,18456.0,8896.0,-1275.0,-2066.0,4293.0,0.005258382050523264,-0.5660449325501602,-0.8241198789907752,-0.019796686710789727
-85.60247755050659,6292.0,17592.0,9188.0,-1531.0,-1877.0,2236.0,-0.19372253891797728,-0.7023431168197917,-0.6840843187931188,-0.034847796951712966
-85.6103093624115,5980.0,16760.0,8988.0,-1387.0,-1605.0,330.0,-0.3672637945125508,-0.6914332363276029,-0.6216398309011703,-0.02452153296481812
-85.61807751655579,5732.0,15276.0,8520.0,-1390.0,-1416.0,-950.0,-0.5205919525285138,-0.5876098950343316,-0.6192379835875979,0.015586850312279604
-85.62585544586182,4232.0,14096.0,8156.0,-1190.0,-1481.0,-1664.0,-0.6440413969904756,-0.43122935601429824,-0.6238472714319347,0.10033196599778418
-85.63365483283997,3280.0,13012.0,8084.0,-866.0,-1874.0,-1737.0,-0.7432369106338367,-0.26435465688761306,-0.5756117641803599,0.21537550229883692
-85.64142918586731,2160.0,12684.0,8104.0,-558.0,-2514.0,-1669.0,-0.8221633861296506,-0.09381316921920183,-0.4456709292082874,0.3415023845414529
-85.64919948577881,2448.0,12672.0,8196.0,-303.0,-2984.0,-1755.0,-0.8502506497882794,0.08134825897711168,-0.2437948362714287,0.4593695365426279
-85.65701198577881,2832.0,12720.0,7984.0,-210.0,-3237.0,-1883.0,-0.8004074616900462,0.2533573368515931,0.0014946509279268898,0.5432823585880268
-85.66477489471436,3448.0,13052.0,8368.0,-336.0,-3559.0,-1913.0,-0.6616126423205615,0.4196157216974951,0.26082652457058225,0.5640575163104614
-85.67255520820618,3196.0,12764.0,8472.0,-541.0,-3865.0,-1722.0,-0.4395303287859502,0.5639298566442549,0.48784885645965614,0.5007990616140473
-85.68037247657776,2876.0,12996.0,8936.0,-744.0,-3971.0,-1429.0,-0.16044683385039943,0.6604156295153382,0.6350824016191816,0.3671217140851987
-85.68815279006958,3300.0,13304.0,9368.0,-967.0,-3986.0,-990.0,0.13892163112360134,0.7007479272630404,0.6728125675793989,0.19229241209607745
-85.69594073295593,4060.0,13424.0,9776.0,-1243.0,-3740.0,-888.0,0.42398487029934684,0.6566427617359111,0.6232679111695957,0.024376712726919103
-85.7037422657013,4868.0,13296.0,10464.0,-1331.0,-3144.0,-977.0,0.6432857996614514,0.5357569440682937,0.5349028430361065,-0.11413511882159927
-85.71159529685974,5500.0,13276.0,11200.0,-1312.0,-2490.0,-1052.0,0.7839953259277362,0.37546169425280296,0.4422766525029922,-0.22084204247159234
-85.71937465667725,6108.0,13300.0,11732.0,-1272.0,-1850.0,-1015.0,0.8580122561948149,0.20882979308092647,0.3649373563852797,-0.2950013756845618
-85.72716355323792,6996.0,13772.0,11796.0,-697.0,-1191.0,-786.0,0.8800914271817758,0.10005934411033429,0.30487871489407087,-0.3499659650050198
-85.73494553565979,8092.0,14436.0,12092.0,-423.0,-550.0,-1172.0,0.8566815643345397,0.019557588556686573,0.2835514949739223,-0.43047967171194873
-85.74273777008057,8420.0,15712.0,11760.0,-306.0,-46.0,-1385.0,0.8002796074647566,-0.038904377238038274,0.2915111844309194,-0.522551651666568
-85.75051307678223,8956.0,16964.0,11108.0,-374.0,586.0,-1742.0,0.6954804826365815,-0.08142972606147074,0.3388526048310022,-0.628374896207977
