programtime,ax,ay,az,gx,gy,gz,q0,q1,q2,q3
-4781.05612206459,-516.0,460.0,-16736.0,1082.0,565.0,833.0,0.9917547360924972,0.09386156043099944,0.049143311799584546,0.07209359067856123
-4781.071778297424,-864.0,1164.0,-16624.0,1290.0,727.0,118.0,0.9691446327255785,0.2000344554546392,0.11838643206309302,0.08203383566273123
-4781.087418556213,-600.0,1228.0,-16224.0,1202.0,471.0,-250.0,0.9388149404771634,0.2940701553378465,0.170228322862975,0.056316688216672336
-4781.10302400589,-416.0,612.0,-16612.0,1445.0,405.0,206.0,0.8868411706400313,0.41020444334987927,0.20360144566319285,0.0615751901149493
-4781.118654727936,-256.0,1488.0,-16560.0,1990.0,823.0,2549.0,0.7557046120616979,0.5811671368601725,0.17940325317907266,0.24283692283339756
-4781.134254693985,-1732.0,3972.0,-16420.0,2139.0,329.0,7099.0,0.41250809206069083,0.6938101786184768,-0.09525365922322565,0.5825729571774093
-4781.149844646454,-5284.0,4780.0,-12784.0,366.0,-1498.0,1751.0,0.28302353799750785,0.7533360086946249,-0.23176550067523138,0.5465046089834784
-4781.165442228317,-516.0,2228.0,-13260.0,-2057.0,-1735.0,148.0,0.36602537929716955,0.761672340498267,-0.37230185285882883,0.3837603389983623
-4781.181082010269,1468.0,-4584.0,-15692.0,-1763.0,-1650.0,-2657.0,0.49462960716396087,0.8083211134517634,-0.2934944408722538,0.12577576253797917
-4781.196661710739,2320.0,-3780.0,-21640.0,4587.0,774.0,5534.0,0.10981238009212692,0.7240820093562703,-0.5075691749359407,0.45389428015776623
-4781.212238550186,-4432.0,48.0,-18676.0,3056.0,98.0,-286.0,-0.06541879211761754,0.7363074767624729,-0.3550759889118279,0.5722697994825867
-4781.227808475494,52.0,3064.0,-15616.0,2062.0,1455.0,3362.0,-0.3010635187360536,0.5143877281172411,-0.4473673006333352,0.6668047099208976
-4781.243375778198,-1052.0,3364.0,-13444.0,679.0,497.0,4971.0,-0.5504196527797334,0.25054150191113483,-0.5896752944079324,0.535303847192292
-4781.25896859169,-2180.0,2244.0,-13628.0,-706.0,-964.0,3385.0,-0.7086314980484141,0.1482329775598936,-0.6208427206114586,0.30070367573601575
-4781.274612665176,2216.0,-3212.0,-15508.0,-3219.0,-1799.0,-1000.0,-0.7001017348102426,0.42574950212798307,-0.5514915740819349,0.1563712443836559
-4781.29021024704,2452.0,-9272.0,-20756.0,-585.0,173.0,-3606.0,-0.5912069563241603,0.6028763880569882,-0.41552938947964513,0.33815635732003557
-4781.3057997226715,3624.0,-8700.0,-23276.0,5223.0,1688.0,11106.0,-0.7689474379496808,-0.08072519451118419,-0.6335121474547136,0.02942175503042566
-4781.321409225464,-728.0,7500.0,-14788.0,5066.0,3401.0,6986.0,-0.4375448809311201,-0.6339958850478205,-0.6215287800586129,-0.14249796655480784
-4781.33700799942,-6412.0,2580.0,-12560.0,-2871.0,-876.0,-9372.0,-0.5767500754928477,-0.020489762957097903,-0.8125195465968268,0.08216755096170027
-4781.352611780167,3156.0,-3292.0,-16352.0,-401.0,1949.0,1649.0,-0.43976048536604073,-0.12795730949449724,-0.8883794805142652,-0.03193025303310677
-4781.368241548538,-1104.0,-1736.0,-16200.0,889.0,2022.0,2488.0,-0.2553013172185678,-0.3354504575504767,-0.9034620418420557,-0.0777853900563832
-4781.383876085281,-820.0,-1120.0,-17324.0,-301.0,1534.0,784.0,-0.13598279138436467,-0.3758014657938428,-0.9022632183170861,-0.16187348030671792
-4781.399475812912,-440.0,-288.0,-16324.0,-393.0,1829.0,454.0,0.0017178364692351973,-0.3758035771698127,-0.8911056416195481,-0.2543608772945457
-4781.41508936882,156.0,-208.0,-16056.0,-530.0,1241.0,-190.0,0.0760965674017043,-0.33127066532861504,-0.8792906569737192,-0.3336420226547309
-4781.430675983429,1124.0,408.0,-15896.0,-192.0,1506.0,1411.0,0.22351762548410062,-0.39068389528538117,-0.8098915287940079,-0.3761405012097145
-4781.446231126785,208.0,-76.0,-16488.0,-493.0,1031.0,745.0,0.30176161177742095,-0.416250541403473,-0.7431048973483687,-0.4283345981539188
-4781.461814880371,196.0,20.0,-16628.0,259.0,1411.0,1620.0,0.45503636064191993,-0.45382139952777834,-0.6455463569315376,-0.4126232529521637
-4781.477425575256,-1456.0,1480.0,-16056.0,-318.0,982.0,-1716.0,0.42926763979641974,-0.3295275376825107,-0.6533508931647181,-0.5294086377585635
-4781.493015050888,-380.0,-804.0,-16572.0,-679.0,805.0,-1714.0,0.3706501594683391,-0.21684487609744796,-0.6316704818383999,-0.6454371862314883
-4781.508601903915,-224.0,-1032.0,-16748.0,400.0,1217.0,-269.0,0.42728160644758406,-0.11984055645347377,-0.6161597484128207,-0.6507041065310275
-4781.524237155914,-372.0,752.0,-16316.0,261.0,1066.0,-1957.0,0.36907705821162995,0.054578786871166386,-0.6005567110353306,-0.7072021761532887
-4781.53986620903,152.0,712.0,-16560.0,-18.0,1025.0,-3029.0,0.22717789227322596,0.26586999504637,-0.5319500835107807,-0.7711889908765629
-4781.555466175079,648.0,-456.0,-16208.0,-467.0,686.0,-3409.0,0.03861619910424319,0.44094139263348964,-0.39019212143287646,-0.8073596384517197
-4781.571092605591,1024.0,-1404.0,-16756.0,-142.0,654.0,-1297.0,-0.024845418263267784,0.5266489310535196,-0.32561125549018205,-0.784857260213356
-4781.586696147919,560.0,-552.0,-16148.0,-218.0,692.0,-600.0,-0.03613236514546576,0.5897939192434076,-0.2837774981155143,-0.755187338728474
-4781.602284193039,100.0,-468.0,-16204.0,-389.0,563.0,-150.0,-0.01202618134293009,0.6308811883193846,-0.2518258063470687,-0.7337765739274298
-4781.61788725853,-100.0,-184.0,-16424.0,-186.0,518.0,-47.0,0.006581046239086048,0.6647250351769576,-0.23767959166954206,-0.7082412930232119
-4781.633517742157,-588.0,12.0,-16188.0,-109.0,801.0,-892.0,-0.025476692317227066,0.7288644485607927,-0.17783386517627625,-0.6606683511181771
-4781.6490931510925,-424.0,508.0,-16136.0,-187.0,786.0,-1993.0,-0.114275378462009,0.7918956340816387,-0.041369961996951234,-0.5984404471993637
-4781.6647074222565,140.0,160.0,-16404.0,-1.0,704.0,-3079.0,-0.26261308017065627,0.8097759576944843,0.15851330910717354,-0.5001707701367153
-4781.68030667305,584.0,248.0,-16440.0,-318.0,617.0,-3144.0,-0.3713942834543889,0.7708215987747452,0.36627776626647124,-0.365706093767374
-4781.695858001709,672.0,-312.0,-16424.0,-637.0,319.0,-2986.0,-0.41905970742353493,0.6822811263188528,0.5575358540444325,-0.21916933576147107
-4781.711447954178,1532.0,-600.0,-16152.0,-585.0,335.0,-1775.0,-0.42838591899914497,0.6154284948294009,0.6533466273356512,-0.10426627788698398
-4781.727058649063,792.0,-492.0,-16504.0,-408.0,360.0,-610.0,-0.43116678214195603,0.5977521165366002,0.6747523617682059,-0.038689319477007496
-4781.742661237717,312.0,-48.0,-16880.0,-409.0,220.0,-850.0,-0.42384679452990204,0.5619202202682505,0.7097684520198886,0.028780294260120447
-4781.758246421814,216.0,-292.0,-16456.0,-510.0,233.0,-346.0,-0.41142252569442606,0.557932937454964,0.7157611532598033,0.08442934405934412
-4781.773861408234,140.0,-92.0,-16068.0,-261.0,267.0,-488.0,-0.4109144529155547,0.5341750415358829,0.727079269330526,0.13100409724522555
-4781.789427995682,504.0,-100.0,-16304.0,-342.0,222.0,-627.0,-0.4007542431583258,0.5031327625942946,0.742972853545517,0.18505350223452197
-4781.805004358292,444.0,284.0,-16412.0,-412.0,298.0,-892.0,-0.38576596639890776,0.4531606012614225,0.7621361942353647,0.2549088269737575
-4781.820570707321,100.0,-200.0,-16752.0,-414.0,126.0,-1087.0,-0.35152639102729055,0.3900536863215214,0.7877097778895471,0.32218104229690614
-4781.836148262024,264.0,-260.0,-16228.0,-348.0,151.0,-634.0,-0.3313409692525493,0.35224660037626654,0.7933717060658534,0.36972534486061526
-4781.851800441742,468.0,-144.0,-15784.0,-327.0,254.0,-373.0,-0.3262721274882674,0.3273688659402657,0.7861699519137445,0.4102595899491012
-4781.8674256801605,300.0,-24.0,-16180.0,-359.0,189.0,-546.0,-0.3087221839759371,0.29292071279552945,0.7823235329912628,0.45481640127039713
-4781.883044719696,408.0,212.0,-16452.0,-52.0,369.0,-507.0,-0.3118412481372263,0.2447611195368672,0.7822769759768607,0.48050989914857567
-4781.898669242859,20.0,356.0,-16340.0,-127.0,333.0,-1236.0,-0.278137530967846,0.1489955909024182,0.7895193294997161,0.5264019909774926
-4781.9142854213715,424.0,-144.0,-16508.0,-134.0,323.0,-944.0,-0.2541906177164189,0.07213474231877397,0.7849741878435389,0.5603563448689826
-4781.930013418198,268.0,-616.0,-16752.0,3.0,272.0,-514.0,-0.24729040528275217,0.02355192110821723,0.7815217887843686,0.5722905347133438
-4781.945608377457,456.0,-328.0,-16092.0,-168.0,219.0,-753.0,-0.22363556669813694,-0.03501628331219139,0.7682850066282019,0.5987479785359673
-4781.961198806763,912.0,-28.0,-16012.0,-111.0,290.0,184.0,-0.25283245587235476,-0.03564666699999729,0.7572271641541669,0.6011755868765661
-4781.976893901825,508.0,112.0,-16632.0,-80.0,221.0,36.0,-0.26942605163034233,-0.043092107969928066,0.7483233484707847,0.6046195821068522
-4781.992524623871,408.0,-88.0,-16408.0,-57.0,174.0,244.0,-0.2936792947362323,-0.0349933779035666,0.7421000410841969,0.6015109844125549
-4782.008104562759,584.0,68.0,-16416.0,71.0,278.0,458.0,-0.3350341042943602,-0.021724859474797922,0.7395003231361824,0.5834547553340859
-4782.023733139038,212.0,-108.0,-16536.0,71.0,239.0,512.0,-0.3758101792842613,-0.002928147206883644,0.7364123906330826,0.5625432659114621
-4782.039317846298,336.0,-136.0,-16304.0,34.0,218.0,380.0,-0.4080362005270702,0.00967218001703919,0.7307170610157548,0.5472343965191224
-4782.054900407791,540.0,-56.0,-15988.0,-45.0,291.0,293.0,-0.4401215516135517,0.016060551964894098,0.7177167345833304,0.5393679332097006
-4782.070501327515,332.0,-240.0,-16356.0,-94.0,488.0,120.0,-0.4755897381043015,0.004223985152851094,0.6939278951124122,0.5406113533252586
-4782.086145162582,248.0,-444.0,-16224.0,-30.0,14.0,386.0,-0.494208762722834,0.028175943163740072,0.6916318921980474,0.5259364417582678
-4782.101744890213,188.0,-36.0,-16396.0,-305.0,23.0,-163.0,-0.4869915937828507,0.030434501038863346,0.676975058408574,0.5510151531710014
-4782.117358922958,80.0,-612.0,-16632.0,-121.0,90.0,392.0,-0.5103529437180013,0.054389212463538686,0.6660880142848058,0.5412101658617388
-4782.13294839859,784.0,328.0,-15876.0,-270.0,252.0,300.0,-0.5372822145711202,0.07191320359308541,0.6403881122033426,0.5441133878183584
-4782.148536682129,-48.0,-192.0,-16092.0,-229.0,138.0,-87.0,-0.539119497204239,0.07124479801157288,0.6236574160906655,0.5615387554262424
-4782.164133310318,408.0,-148.0,-16184.0,-349.0,367.0,-124.0,-0.5501458446675894,0.06290234723870491,0.5897128994948436,0.5878958585295788
-4782.179781198502,-140.0,-252.0,-16204.0,-343.0,384.0,-797.0,-0.5252129784583474,0.01861979779678359,0.5564229599619185,0.643582255827595
-4782.19534945488,428.0,-80.0,-16768.0,-529.0,221.0,-1639.0,-0.4379289980775434,-0.048561798162957796,0.5136653756915627,0.7362118079857352
-4782.210927248001,1260.0,304.0,-16800.0,-392.0,195.0,-1078.0,-0.37706391964097974,-0.09395670823059035,0.4743110872868681,0.7899518529380141
-4782.226499795914,1056.0,200.0,-16260.0,-762.0,-207.0,-1117.0,-0.2955916313715779,-0.10017467995452212,0.41677116216640814,0.8537519659394991
-4782.242074728012,1532.0,232.0,-16172.0,-205.0,-180.0,230.0,-0.30779469677261295,-0.07311119376349086,0.4082515367446024,0.8562989318753136
-4782.257632255554,736.0,124.0,-16484.0,91.0,-437.0,537.0,-0.33111792679297025,-0.02376096357465019,0.4297139797420894,0.8397274741132058
-4782.273220539093,268.0,168.0,-16780.0,103.0,-342.0,515.0,-0.35523540211964666,0.017598373993803047,0.4478373792069309,0.8203290730546704
-4782.288900613785,284.0,412.0,-16324.0,474.0,-278.0,451.0,-0.37659650383832943,0.040365995144996926,0.4890414218445007,0.7857379636068316
-4782.304526567459,356.0,564.0,-16204.0,623.0,-136.0,43.0,-0.37527600141298056,0.031027451711639984,0.5355217744665687,0.7559243672987028
-4782.320113420486,8.0,320.0,-16832.0,675.0,-240.0,-385.0,-0.3395493719942582,0.006758029110172502,0.5877390425458613,0.7343183035224746
-4782.33570933342,460.0,216.0,-16892.0,913.0,-192.0,-419.0,-0.30210384642741,-0.029356073916317622,0.6498480930694337,0.6968277712835533
-4782.351331949234,596.0,-20.0,-16484.0,824.0,-360.0,-497.0,-0.2482744027278156,-0.057144857037258565,0.7055751930304054,0.6612548171805208
-4782.366923093796,900.0,-88.0,-16436.0,925.0,-323.0,51.0,-0.22581387228131247,-0.055209576973847256,0.7636227850970181,0.602362216424936
-4782.3825170993805,500.0,28.0,-16356.0,1075.0,-343.0,169.0,-0.20555642255348244,-0.04687722426599705,0.823816165110576,0.5261900883660142
-4782.398095607758,-156.0,20.0,-16860.0,1197.0,-315.0,-635.0,-0.1476644906032173,-0.09881934812143152,0.8755603546231474,0.4492482610583327
-4782.413677692413,172.0,360.0,-16616.0,1285.0,-124.0,-836.0,-0.09340448160621227,-0.1728526106253893,0.9122677658457105,0.3593954663246856
-4782.429294347763,-16.0,392.0,-16720.0,1912.0,-51.0,-1873.0,-0.0016384102481835428,-0.32714425309062484,0.9197046101557427,0.21706538954865456
-4782.444887638092,360.0,184.0,-16612.0,2261.0,-246.0,-2250.0,0.12063876212014676,-0.4848439791718542,0.8652673008530486,0.04105000620464361
-4782.460493803024,800.0,-552.0,-16796.0,2844.0,-114.0,-119.0,0.24233954295969132,-0.449816438697064,0.843581530092859,-0.1652480543975313
-4782.476095199585,-12.0,4.0,-16684.0,3379.0,-86.0,-624.0,0.3563929643597304,-0.40766885567950945,0.7362792539581744,-0.4058115563345103
-4782.4917097091675,60.0,56.0,-17020.0,4096.0,241.0,-623.0,0.43667109866341214,-0.29325146012106856,0.5422999153025332,-0.6551585568332412
-4782.507311582565,-616.0,612.0,-17780.0,5676.0,390.0,-1617.0,0.4185123677263265,-0.11668639339197426,0.1701853597898295,-0.8844595112103684
-4782.52290058136,-268.0,616.0,-18224.0,6988.0,588.0,-3265.0,0.1897467271774486,0.11211539531521689,-0.3155633381903182,-0.9229550895081203
-4782.538486480713,-160.0,152.0,-18484.0,9012.0,863.0,-999.0,0.035107692713488646,0.2805761973420687,-0.796520923352344,-0.534414507717866
-4782.5540816783905,-208.0,112.0,-19424.0,10295.0,1169.0,629.0,-0.07883962710399538,0.23932915498148294,-0.9548947639327726,0.15710461033249995
-4782.569672346115,-488.0,288.0,-19908.0,11218.0,1685.0,2164.0,-0.1424896635825079,-0.029073700261190393,-0.6043909227940552,0.7833026414926844
-4782.585343122482,-120.0,220.0,-20176.0,10163.0,2456.0,764.0,-0.029042789004387188,-0.2683402674321259,0.04534600507515266,0.9618179438464568
-4782.600946426392,192.0,-52.0,-21820.0,11179.0,3725.0,1095.0,0.08770659790195914,-0.4210405492025431,0.6955127823375991,0.5755817737009195
-4782.61653470993,-1340.0,140.0,-22624.0,9895.0,4322.0,-3309.0,0.25289909051345333,-0.5435992913994536,0.7863263624364121,-0.14910637861942888
-4782.63211607933,908.0,-1508.0,-22364.0,10278.0,5362.0,163.0,0.2631848533085209,-0.16583159169947898,0.5474727247565173,-0.7768572789329222
-4782.647713661194,-1300.0,-1276.0,-20204.0,10628.0,5289.0,-56.0,0.11145551765282526,0.301512732752651,-0.036188613797945114,-0.9462336518028475
-4782.6633207798,-484.0,-912.0,-18728.0,9912.0,5140.0,914.0,-0.04122856797253762,0.5861347528786677,-0.5925338183787429,-0.5510443999609322
-4782.67889714241,-1032.0,-332.0,-17212.0,9290.0,4482.0,2438.0,-0.12288353028791699,0.47146964405400077,-0.8663030329222765,0.11015928408099594
-4782.6944668293,-2872.0,1356.0,-16064.0,9088.0,3204.0,6322.0,-0.22230228241900807,-0.09501794914292734,-0.7569550944058712,0.6071015315620364
-4782.710056304932,-4952.0,6212.0,-12732.0,5433.0,2354.0,819.0,-0.057776996298949695,-0.33638351942586986,-0.4505338406566413,0.8249407281620375
-4782.725647211075,-3388.0,4580.0,-11136.0,1761.0,1158.0,-2304.0,0.1980319670416923,-0.3263949907559298,-0.3833706846732153,0.8409973651398824
-4782.741232872009,-1940.0,4120.0,-10160.0,-77.0,910.0,-109.0,0.233433612238443,-0.38985798291428514,-0.37529526203852165,0.8078817785584439
-4782.756855010986,-3260.0,3352.0,-9984.0,-3396.0,-609.0,-1589.0,0.19918820502901877,-0.3458051886347968,-0.6466501828697755,0.6500664362086819
-4782.772442817688,-2308.0,1252.0,-11316.0,-6249.0,-2542.0,43.0,-0.11666984733780404,-0.2695149279426795,-0.8997394539466779,0.3228293130277358
-4782.788090467453,-1920.0,-644.0,-13012.0,-7411.0,-3586.0,2539.0,-0.5146932049952966,-0.2337247099977558,-0.8091319642635472,-0.16052765828712648
-4782.803697109222,-1680.0,-828.0,-14152.0,-8902.0,-4876.0,2359.0,-0.7453219393803612,-0.05090374343622713,-0.30892265168279076,-0.5886177119827004
-4782.819301128387,-556.0,-1924.0,-15720.0,-9485.0,-5655.0,2409.0,-0.5811085863022943,0.149967427984898,0.3962660515204983,-0.6948350868239868
-4782.834865808487,316.0,-2352.0,-16516.0,-9747.0,-5937.0,2817.0,-0.053991521567228036,0.26645371465361456,0.8736253751276607,-0.4035666456475314
-4782.850471973419,936.0,-416.0,-16320.0,-12492.0,-5675.0,3361.0,0.4960563887934435,0.24044438601535859,0.79511925534608,0.2527843471198334
-4782.86604309082,3868.0,-6576.0,-17736.0,-5267.0,-4842.0,12461.0,0.4161738269897314,0.6135410220345886,0.12965252292749374,0.6584504410416999
-4782.881640434265,-1132.0,-2172.0,-15632.0,-9751.0,-5168.0,-1504.0,0.7766696936060759,0.3869410452335129,-0.38566227935814534,0.31356884543544905
-4782.897219419479,3164.0,-5612.0,-17784.0,-12281.0,-5046.0,-2424.0,0.7039654086288851,-0.1460497408120628,-0.6356446119667557,-0.28117272972379237
-4782.9128658771515,4060.0,-7312.0,-17512.0,-8905.0,-3553.0,3339.0,0.3556403401844837,-0.722734037958317,-0.4438767781053766,-0.3926179627433272
-4782.928527832031,1476.0,-6512.0,-17292.0,-7957.0,-3660.0,4532.0,-0.10064413141558448,-0.9631522459331756,0.0007299623877987277,-0.24941527042343364
-4782.944140195847,876.0,-6000.0,-17456.0,-7332.0,-3491.0,5352.0,-0.45743809578691197,-0.7429547321853173,0.4886363860561946,-0.0017710641515233793
-4782.959769487381,-900.0,-4624.0,-16932.0,-7084.0,-3640.0,1747.0,-0.6200719048411432,-0.31477972585650454,0.6098289127328994,0.3801752940570833
-4782.975383758545,132.0,-4384.0,-17264.0,-7118.0,-3802.0,-920.0,-0.4753174382016526,0.120362110892296,0.45229360269294994,0.7449944913662119
-4782.991039276123,-804.0,-2672.0,-16456.0,-5330.0,-2905.0,-2058.0,-0.14906139181856018,0.3920479221530051,0.21657067871448016,0.881576014490965
-4783.006708621979,-2264.0,-800.0,-15624.0,-7262.0,-3215.0,-7681.0,0.5407180472808155,0.42396028968726707,-0.02690552935361293,0.7260563053946384
-4783.022302865982,224.0,-2056.0,-16552.0,-6347.0,-2592.0,-5153.0,0.8773601884447039,0.24105207184394134,-0.2888471478397401,0.297825995468603
-4783.03792142868,-1020.0,-352.0,-15496.0,-6056.0,-2673.0,-5716.0,0.8631324843529051,-0.007056472126356674,-0.4220169732572782,-0.27722589153734867
-4783.053542137146,-1752.0,408.0,-15700.0,-8228.0,-3246.0,-7850.0,0.38165134342096074,-0.289639178224593,-0.3288538630193412,-0.813822176694402
-4783.06915974617,-772.0,-2000.0,-16060.0,-6537.0,-3551.0,-3896.0,-0.13085602914041713,-0.5226387828245852,-0.06575825203557302,-0.8398816908436953
-4783.084760189056,-956.0,-928.0,-15984.0,-4468.0,-3660.0,701.0,-0.2712524261955726,-0.663510889839301,0.2991072594228291,-0.629849400815972
-4783.100338935852,-3268.0,2240.0,-14660.0,-3934.0,-4183.0,662.0,-0.31550905134575413,-0.6992381570307348,0.5827609548412573,-0.26815985490686295
-4783.115936994553,-4216.0,3856.0,-13684.0,-5755.0,-4748.0,-2456.0,-0.39798211198792666,-0.6407440469737019,0.5759470934059692,0.3151860568023399
-4783.1315269470215,-2832.0,3960.0,-13880.0,-6221.0,-5098.0,-1780.0,-0.35761314003794337,-0.3037843032244841,0.39176728331618643,0.7914204539368892
-4783.14711356163,-3112.0,4636.0,-13600.0,-7171.0,-4903.0,-1936.0,-0.19456297022972613,0.15182074138887994,-0.0012470137862343295,0.9690687065714868
-4783.162736654282,-2992.0,3588.0,-14724.0,-9366.0,-5843.0,-2986.0,0.12846842193818497,0.5701283918525388,-0.46314343862856566,0.6662939566164908
-4783.178322553635,-1944.0,1320.0,-15728.0,-9351.0,-6249.0,-520.0,0.264844789151814,0.6061059746712114,-0.7497167437834582,-0.020434999821886297
-4783.193997383118,-1752.0,508.0,-16264.0,-9057.0,-5561.0,389.0,0.2788551162079151,0.2649485767544925,-0.647012855490216,-0.6583437101323564
-4783.209597349167,-2344.0,196.0,-15632.0,-7676.0,-4356.0,-206.0,0.15720937001587934,-0.12704242734262738,-0.24359278989181776,-0.9485820936254408
-4783.2251925468445,-3416.0,1164.0,-16112.0,-7943.0,-4159.0,-3071.0,-0.21080551549301052,-0.39692102328137346,0.24855287913212656,-0.858042074836732
-4783.240796327591,-2564.0,536.0,-16920.0,-6170.0,-4209.0,-458.0,-0.3076541959504293,-0.509643638581114,0.6465563239255516,-0.4770504977041473
-4783.256393194199,-2164.0,-144.0,-16560.0,-5005.0,-3680.0,-44.0,-0.28505495046287554,-0.46680936180730787,0.8367539238003702,-0.025991651550942747
-4783.272004365921,512.0,-1204.0,-15852.0,-4406.0,-2838.0,1629.0,-0.22844702937627953,-0.22071564533959614,0.8872734793670518,0.33442836524936825
-4783.287579059601,520.0,-2264.0,-15052.0,-2672.0,-2036.0,4074.0,-0.21890648004401575,0.18838727966132782,0.8432896668865122,0.4532689307452904
-4783.303162574768,-1344.0,-1924.0,-14324.0,-2258.0,-1963.0,3589.0,-0.16590657701591585,0.5309085572733154,0.6783979029827758,0.47998687143025187
-4783.318785429001,-1088.0,-1848.0,-15492.0,-2427.0,-1814.0,-1694.0,0.11960365856778624,0.5185786636435266,0.6523317269866731,0.5396614238923135
-4783.334366798401,404.0,-5616.0,-16188.0,-102.0,-312.0,-2167.0,0.23960754600965123,0.4016846164588833,0.729247666150357,0.49943521522793133
-4783.349989652634,100.0,-5604.0,-16340.0,1740.0,-212.0,-8164.0,0.4427345510796334,-0.058355007630838486,0.8784625398578898,0.16995404211475987
-4783.365574359894,3388.0,-6532.0,-15440.0,2626.0,1132.0,-6306.0,0.3959329296166268,-0.3912792611321499,0.7951814762567113,-0.2404663695223742
-4783.381187915802,3460.0,-7804.0,-13840.0,4289.0,3142.0,-9659.0,0.08745447797876064,-0.610706492752535,0.34874038144149805,-0.7055277743245822
-4783.396784543991,9624.0,-14032.0,-15976.0,1897.0,5216.0,-15476.0,-0.5277717911641073,-0.4267489556297649,-0.3161123566817802,-0.6628840345591571
-4783.412374258041,1768.0,-18240.0,-24304.0,14943.0,6136.0,13359.0,0.4657585765970814,-0.5413568171058805,-0.4631613837162106,-0.524865008867362
-4783.427990913391,1528.0,6028.0,-20520.0,16617.0,8493.0,20629.0,0.967033365853425,-0.1184154147845607,0.03629738167084612,0.22250114370815524
-4783.443596124649,-9652.0,21684.0,-17768.0,15476.0,4879.0,13219.0,0.4104571592105302,0.544994014175769,0.42514246123168536,0.5947775488560979
-4783.4592299461365,-12624.0,16696.0,-13648.0,-2889.0,3498.0,-26746.0,0.702837201770579,-0.28493799444026013,0.6508507092307628,-0.03497944289833275
-4783.47484087944,2128.0,-6516.0,-25444.0,1321.0,2849.0,-16700.0,0.2922079923774293,-0.6395159823771386,0.2272569736282105,-0.6737863648162542
-4783.490486860275,-228.0,-4060.0,-25728.0,18701.0,4774.0,17053.0,0.9121968921889015,0.18538871116165703,0.08179752224307696,-0.356141855177993
-4783.506062507629,-15692.0,10184.0,-14720.0,6403.0,2868.0,-12964.0,0.23641613290063931,0.4246458368391887,0.19700056227723534,-0.8514541114011404
-4783.521641969681,-2256.0,-2860.0,-18696.0,2261.0,2122.0,-11940.0,-0.5247604322863703,0.28852286006004263,0.35076133299854134,-0.7199635651909624
-4783.537220001221,564.0,-4516.0,-17196.0,11811.0,4445.0,5503.0,-0.39182297547705797,0.125119842932923,-0.4690821511721549,-0.7815252499084396
-4783.552796363831,-2708.0,2580.0,-13704.0,7004.0,3818.0,-3288.0,-0.4282849608793951,0.22420584743048783,-0.8320392932321898,-0.2720557751274355
-4783.568375825882,252.0,1784.0,-14896.0,6820.0,4610.0,-4902.0,-0.26320753368505373,0.3334675968575252,-0.8211963881274746,0.38099560126580007
-4783.584107637405,-2276.0,-584.0,-16136.0,3890.0,2505.0,-11016.0,0.11732440671948276,0.6578269747228933,-0.2969569823295967,0.6821401656262053
-4783.599776268005,-1016.0,-5568.0,-20456.0,5522.0,3119.0,-1213.0,-0.04072518836231258,0.4881926291523366,0.1160399003491606,0.864027868416951
-4783.615369796753,-2196.0,-3032.0,-16480.0,5670.0,3494.0,523.0,-0.30855240806958595,0.1815584328458603,0.43966000060808846,0.8237299501671107
-4783.630956172943,-2644.0,-1408.0,-14016.0,4230.0,3326.0,-3165.0,-0.24200511404025088,-0.25712051859232876,0.6187178063579939,0.7017911653709594
-4783.6465673446655,-1792.0,-316.0,-13604.0,2688.0,2873.0,-8106.0,0.12554727046307385,-0.7291560981645097,0.4252396826740267,0.5212873292801896
-4783.6621680259705,-848.0,-2704.0,-14528.0,885.0,2802.0,-10673.0,0.4051733015616368,-0.8940271497178012,-0.13152239004101096,0.1387512601276388
-4783.677767276764,176.0,-3868.0,-16772.0,1101.0,2637.0,-6467.0,0.510094793863241,-0.691865531303582,-0.4506403529685897,-0.24093289552067204
-4783.69339966774,-692.0,-2788.0,-17612.0,897.0,3061.0,-5025.0,0.5136511249709408,-0.3462542725932339,-0.5650866183472525,-0.5449289993126479
-4783.708993673325,-72.0,-1748.0,-16868.0,741.0,3022.0,-4090.0,0.4475285352297737,0.029396308788349923,-0.5371465982974659,-0.7143721712960088
-4783.7245943546295,-1092.0,-1956.0,-16288.0,782.0,2979.0,-4224.0,0.2927178839729611,0.40366828457032505,-0.4175920317456594,-0.7595953208498427
-4783.740188598633,-1480.0,-1364.0,-16452.0,489.0,2826.0,-5594.0,0.006637670301695479,0.7079781389334525,-0.15861493672157712,-0.6881600089907153
-4783.771376132965,1568.0,-1728.0,-15820.0,923.0,2460.0,-4340.0,-0.2532688324764891,0.8380187891021753,0.05074139787973903,-0.4806295019543951
-4783.786974906921,776.0,-1236.0,-15408.0,1164.0,2199.0,-3174.0,-0.45384669491742663,0.8400985661775086,0.17493909603161462,-0.24011224312530172
-4783.802577495575,-648.0,-2996.0,-14844.0,736.0,1651.0,-5189.0,-0.5784300411797729,0.6911526513962598,0.4279184261445175,0.06791553941982378
-4783.818176031113,336.0,-3304.0,-15484.0,1198.0,2013.0,-1897.0,-0.6908966443424058,0.5300952308731259,0.4331951111601966,0.23238517316919202
-4783.833786487579,-1556.0,-1376.0,-17292.0,828.0,1025.0,-4423.0,-0.6289816829678369,0.27122388506065376,0.5500186222054575,0.47780661557869114
-4783.849385738373,-336.0,-2528.0,-18664.0,693.0,1344.0,-4588.0,-0.4777498228017642,-0.03956002822593189,0.5657604518582158,0.6708988165832713
-4783.864964723587,188.0,-3180.0,-16640.0,1126.0,1307.0,-2946.0,-0.35058972568461094,-0.2956349257034668,0.5436747634630817,0.7029257332905495
-4783.880564928055,476.0,-3480.0,-14520.0,1005.0,959.0,-2154.0,-0.23219316481937538,-0.4757650596620825,0.5080627512142707,0.679416060337466
-4783.896169662476,800.0,-3248.0,-14384.0,-109.0,1155.0,-2353.0,-0.14458688052082874,-0.6302231056032034,0.37104826830072707,0.6665108054158919
-4783.911823272705,1156.0,-2924.0,-15936.0,-42.0,1385.0,-805.0,-0.14345124843679474,-0.7294020957935616,0.30398138559001936,0.5958100697274734
-4783.92747426033,744.0,-2972.0,-16784.0,-1016.0,954.0,-1231.0,-0.1671487866902642,-0.7888115973345164,0.15882545257516195,0.569747332273558
-4783.943088531494,2284.0,-3480.0,-16064.0,-137.0,1691.0,3199.0,-0.342289463407545,-0.7882956377902139,0.33142217639627336,0.389342075396241
-4783.958673000336,808.0,-2416.0,-15324.0,-680.0,1797.0,3610.0,-0.5307314436316211,-0.6826122577700179,0.47378056574708843,0.16702280024949612
-4783.974249601364,-48.0,-940.0,-16848.0,-259.0,1122.0,3373.0,-0.6125186141298731,-0.5229550709633428,0.5911499146922117,-0.04336726250912702
-4783.989870071411,-860.0,-1512.0,-17984.0,-1262.0,599.0,24.0,-0.6955390579135163,-0.4488110097299551,0.5610236569344125,-0.006822962838470477
-4784.005499362946,636.0,-2712.0,-17268.0,-91.0,923.0,1720.0,-0.7324711952278479,-0.3535437094794747,0.5644769475348954,-0.1409204362421141
-4784.021076202393,96.0,-1828.0,-15908.0,207.0,589.0,1312.0,-0.7328844607838331,-0.29266840843116426,0.5604999151260112,-0.2511282839341156
-4784.036720752716,260.0,-1848.0,-15648.0,-668.0,187.0,-258.0,-0.7629588669843074,-0.25802163145766016,0.5556762258996559,-0.20625842276102066
-4784.052312612534,1048.0,-2540.0,-16716.0,-142.0,322.0,1900.0,-0.7369672609321074,-0.14860982495326056,0.5717544773192934,-0.3284679495885862
-4784.067928791046,436.0,-2392.0,-16312.0,-285.0,36.0,2144.0,-0.6689956925610054,-0.021917748249757264,0.5951608726518651,-0.4446885554078847
-4784.0835173130035,520.0,-2144.0,-16464.0,330.0,-41.0,3299.0,-0.5168414937456912,0.12351210415741119,0.5680203517760659,-0.6284683845966523
-4784.099122047424,-324.0,-1524.0,-16192.0,315.0,-128.0,1504.0,-0.4274271156287408,0.17532909980729003,0.5357389344164162,-0.7067882014694524
-4784.114711284637,-260.0,-2320.0,-15716.0,-697.0,-301.0,-1331.0,-0.48039451077291406,0.119567624056512,0.6051728340632958,-0.6234505098309984
-4784.13029384613,1368.0,-2496.0,-15672.0,-330.0,79.0,-273.0,-0.49549249898972,0.12324042603675789,0.6224605681035403,-0.5931625594990116
-4784.145888328552,108.0,-1924.0,-15884.0,-950.0,-211.0,-1587.0,-0.548613302501019,0.06638272497916246,0.6890213231905297,-0.468899130231693
-4784.161497831345,552.0,-3000.0,-16460.0,-1077.0,-217.0,-478.0,-0.5457116169353685,0.07993184387112913,0.7424130205864595,-0.38030597989097725
-4784.177063703537,772.0,-2504.0,-16112.0,-717.0,164.0,1102.0,-0.5111403640450687,0.18968769185707635,0.7459469936020696,-0.38251430108931
-4784.1927189826965,-84.0,-1468.0,-15128.0,-1268.0,243.0,-1188.0,-0.5391183902697941,0.17504683786686553,0.7880986141918597,-0.24002195760927292
-4784.208300828934,512.0,-2320.0,-15748.0,-1723.0,809.0,-800.0,-0.5756664564634321,0.2146373236632511,0.7858715778193354,-0.07031936695719518
-4784.223869800568,636.0,-3028.0,-15548.0,-2487.0,1668.0,-390.0,-0.6242999620367345,0.31248290883788993,0.700904930363623,0.14606939336188057
-4784.239451169968,592.0,-3036.0,-16624.0,-1922.0,2059.0,2264.0,-0.6928433955840636,0.505042424986361,0.47941417727367974,0.18724909823131647
-4784.255079746246,-116.0,-1136.0,-16436.0,-2708.0,1989.0,128.0,-0.6319429162897165,0.6158482095474426,0.29690206005938846,0.3650045206308393
-4784.270677804947,520.0,-1956.0,-16616.0,-1905.0,1704.0,2283.0,-0.6191544803231593,0.6955637682474061,0.018827178831659394,0.3639839435118916
-4784.286520719528,-436.0,-504.0,-16588.0,-441.0,-874.0,772.0,-0.6116536846126371,0.7442478590527625,0.005149819329659253,0.2682319402234486
-4784.302225828171,-172.0,-616.0,-16732.0,-544.0,-1204.0,-1375.0,-0.535988914041863,0.7901824020546667,0.143995920839519,0.2599862117284697
-4784.317825317383,1372.0,-1744.0,-16904.0,-250.0,-790.0,210.0,-0.5119188880408336,0.8203340384200403,0.16038100894471408,0.1981641981952847
-4784.333430051804,924.0,-1092.0,-15876.0,240.0,-496.0,-466.0,-0.5128248478889966,0.8102380566811098,0.21964911263434514,0.17966422630059362
-4784.349023103714,516.0,-1756.0,-16184.0,255.0,-383.0,549.0,-0.5308278439034263,0.8139386296096113,0.20161596878528837,0.12278724891794532
-4784.364707231522,104.0,-1296.0,-15956.0,-315.0,-190.0,-757.0,-0.4953942250914606,0.8152190370002357,0.26014379913530417,0.14942452017620886
-4784.380273342133,796.0,-2376.0,-16084.0,52.0,322.0,554.0,-0.5125606687091276,0.8202273382572248,0.2072098119105225,0.1468767112782887
-4784.395933151245,-164.0,-1304.0,-16068.0,-67.0,694.0,-157.0,-0.5170386814750885,0.810095884233823,0.18622024337074994,0.20429802046241474
-4784.411513805389,-72.0,-1788.0,-16484.0,-553.0,839.0,-1111.0,-0.4675504497586713,0.795450615767425,0.21524311849348082,0.3198832517448982
-4784.427084684372,416.0,-1904.0,-16256.0,-398.0,1061.0,-433.0,-0.4450757091369879,0.7698339672126024,0.18987683628364393,0.41618513080698516
-4784.442676305771,812.0,-1568.0,-16008.0,-555.0,1186.0,-255.0,-0.415206536496071,0.7393106913352143,0.1398827339703529,0.5113277368433711
-4784.458250761032,552.0,-1592.0,-16352.0,-397.0,1328.0,216.0,-0.4122345823019205,0.6921432207227526,0.0596969873163217,0.5894375970934084
-4784.473865032196,356.0,-1608.0,-16268.0,-737.0,1113.0,-754.0,-0.33166875270471907,0.6519186911175716,0.0270529133431516,0.6813706763065871
-4784.489537477493,860.0,-1904.0,-16100.0,-780.0,1199.0,-616.0,-0.25111958678959473,0.5965274177519823,-0.018822516511593546,0.7620627965416932
-4784.505175590515,924.0,-2004.0,-16068.0,-667.0,1193.0,-108.0,-0.2057519660900045,0.5284914425944236,-0.0831427985413331,0.8194206481443326
-4784.520778656006,576.0,-1696.0,-16028.0,-1356.0,1045.0,-919.0,-0.06890872883712787,0.47823187288430746,-0.15435157009130315,0.8618128890066382
-4784.536381006241,584.0,-1948.0,-16648.0,-1201.0,950.0,94.0,-0.012949804868589888,0.4093541852949085,-0.25217653773600895,0.8767373879052305
-4784.552020072937,-292.0,-2120.0,-17460.0,-419.0,-519.0,-282.0,0.012129854013195527,0.4550502277995161,-0.27320507536542427,0.8474320879078158
-4784.567617177963,1044.0,-940.0,-16132.0,-75.0,-483.0,-374.0,0.031199142466063732,0.49911593973047236,-0.26417513508758306,0.8246947254698593
-4784.5832352638245,988.0,-1296.0,-15708.0,-116.0,241.0,-512.0,0.07853860963496322,0.4928695789094957,-0.24939010644583048,0.829889052698685
-4784.598856925964,864.0,-1184.0,-15824.0,-814.0,151.0,-1652.0,0.2334298392174565,0.5060079340557453,-0.23337369285006204,0.7968708805829673
-4784.614434480667,816.0,-1720.0,-16508.0,-623.0,9.0,-798.0,0.31531711910918647,0.5072024612252274,-0.24047796543412675,0.7651739187037269
-4784.630020141602,788.0,-1668.0,-16568.0,-359.0,445.0,124.0,0.33174944228160824,0.4646412801082508,-0.2575022856408154,0.7795789640921336
-4784.645594120026,688.0,-1060.0,-16128.0,-415.0,660.0,-163.0,0.37352246176587445,0.410641128578453,-0.2595480301803612,0.7902465780411008
-4784.661160469055,864.0,-1092.0,-15924.0,-480.0,836.0,-893.0,0.4681046523528847,0.3554808161213591,-0.23205421160428655,0.7750240426541556
-4784.676737308502,936.0,-1060.0,-16008.0,-538.0,1048.0,-921.0,0.5634639258697124,0.2791535795866194,-0.1955902775331456,0.7525464281902978
-4784.6923542022705,600.0,-1540.0,-16276.0,-761.0,804.0,-1504.0,0.6853906036956681,0.21203942302046283,-0.1674024781227073,0.6762066354075608
-4784.707996606827,896.0,-1848.0,-16312.0,-680.0,722.0,-677.0,0.744334943455378,0.13810216872191222,-0.1512382587339843,0.6356258900018912
-4784.723592281342,968.0,-1764.0,-16304.0,-364.0,565.0,25.0,0.7534453361325162,0.0828030326509962,-0.13508299747639152,0.6381350695869575
-4784.739221572876,1100.0,-936.0,-15904.0,-173.0,527.0,-345.0,0.7788222103257979,0.04620876865291124,-0.1076966969041257,0.6161997532284165
-4784.754818439484,828.0,-1400.0,-16008.0,-436.0,298.0,-1033.0,0.834629287128516,0.010265346317537795,-0.10650097969407374,0.5403203837137079
-4784.770449399948,640.0,-2116.0,-16564.0,-257.0,48.0,-904.0,0.8749485511271207,-0.0023744836396983205,-0.11424842232378583,0.47053872604125035
-4784.786043643951,616.0,-1384.0,-16572.0,-410.0,-132.0,-1399.0,0.9234451743715641,-0.014260337649423638,-0.14062885293674565,0.3567480601512658
-4784.801657676697,1164.0,-1344.0,-16924.0,-275.0,-51.0,-730.0,0.9429618298449237,-0.025881402347081812,-0.15416800223612517,0.29391387778494515
-4784.817249536514,944.0,-1696.0,-16584.0,-43.0,-55.0,-174.0,0.9464082577435584,-0.025769535119724848,-0.16047558371272744,0.27909662801004065
-4784.832869052887,1088.0,-1064.0,-16160.0,-242.0,69.0,231.0,0.9407322866635298,-0.05072386485835816,-0.16039592963457092,0.29448769094700555
-4784.8484654426575,1000.0,-500.0,-15904.0,-144.0,70.0,-226.0,0.9465529464571725,-0.06125280099545981,-0.15961569635796788,0.27351132225123137
-4784.864060640335,1036.0,-888.0,-16352.0,-297.0,-59.0,-575.0,0.9562706748247859,-0.07636462195305026,-0.17467100265038857,0.22182173432110805
-4784.879644870758,1084.0,-1028.0,-16288.0,-21.0,-88.0,-99.0,0.9565765147704329,-0.07503566997667348,-0.1833605514927723,0.2137988020945618
-4784.895236730576,880.0,-772.0,-16380.0,-173.0,-113.0,-193.0,0.9568759548818085,-0.08438184568165974,-0.19752011017073437,0.19558608633163221
-4784.910838365555,1116.0,-1600.0,-16592.0,-424.0,-174.0,-682.0,0.9598499395579382,-0.1049396063309487,-0.22401464128235415,0.1322619107863868
-4784.9265031814575,84.0,-1756.0,-16644.0,909.0,-1027.0,1161.0,0.9233262765499961,-0.03934172526063753,-0.2856847706986926,0.25358435968464615
-4784.942144870758,560.0,144.0,-15936.0,-196.0,-1310.0,-1869.0,0.9131614703876649,0.02002201710602399,-0.3944859184769727,0.10057886434944134
-4784.957749843597,1952.0,-1628.0,-16000.0,320.0,-767.0,-465.0,0.8870757564353541,0.06800523165069608,-0.45072207724037644,0.07294861137060606
-4784.973371505737,952.0,-1328.0,-15740.0,269.0,29.0,245.0,0.8844617486813643,0.07898097993755314,-0.44828446407059935,0.10261802570963109
-4784.989013433456,316.0,-1020.0,-16400.0,-821.0,-41.0,-2095.0,0.8901261046141312,0.09612946246642294,-0.4363204279802822,-0.08977264871603526
-4785.004616260529,1248.0,-2368.0,-17120.0,51.0,28.0,487.0,0.8936186295851175,0.08170131474664316,-0.4385231873771878,-0.04967951448674188
-4785.02023267746,840.0,-1028.0,-16124.0,-122.0,561.0,-115.0,0.9141353564965243,0.07894639986957307,-0.3932138846761431,-0.05921872042270797
-4785.035817861557,536.0,-1008.0,-16144.0,-463.0,1016.0,-638.0,0.9428726488440986,0.06875705102817112,-0.3037800076622802,-0.11824272891103178
-4785.0514278411865,624.0,-1096.0,-16556.0,-760.0,529.0,-1711.0,0.9304095992506227,0.05626725895293342,-0.2390420575808985,-0.27208614058733266
-4785.06701874733,1132.0,-2004.0,-16416.0,-374.0,380.0,-807.0,0.9176950551724476,0.05155770890002587,-0.19497491073469705,-0.34228989548190786
-4785.082629919052,1176.0,-980.0,-15976.0,-263.0,93.0,-1201.0,0.8794619857846705,0.05341349584710092,-0.1735901065124266,-0.43995464418742125
-4785.098256111145,1020.0,-1760.0,-16460.0,-347.0,-805.0,-1511.0,0.8015612105172608,0.01853396718627836,-0.21286901629137633,-0.5584289567685251
-4785.11385011673,1140.0,-1496.0,-16328.0,-581.0,-1261.0,-913.0,0.7269193963035505,-0.06596570566217028,-0.2687848740661825,-0.6284834193734947
-4785.1294486522675,912.0,-1540.0,-16500.0,-545.0,-1197.0,-901.0,0.6400530027915131,-0.14380061704601166,-0.31723675675030233,-0.6848462428321433
-4785.14505982399,852.0,-1632.0,-16336.0,-851.0,-1374.0,-811.0,0.536154394426197,-0.24809328139973624,-0.3492246913609935,-0.7273446940795045
-4785.160700082779,924.0,-1788.0,-16112.0,-1106.0,-1493.0,-734.0,0.41380103048006706,-0.3668989649640073,-0.35954880113063664,-0.7515840048108373
-4785.1763072013855,1316.0,-2036.0,-16340.0,-1961.0,-1882.0,-763.0,0.23483380077890645,-0.5218162737847809,-0.3140834668974497,-0.7575700880095374
-4785.191950082779,1120.0,-2152.0,-16552.0,-1809.0,-2229.0,730.0,0.13514400661835368,-0.7033422104870232,-0.20043048412327422,-0.668485941106076
-4785.207547903061,676.0,-1988.0,-16720.0,-2098.0,-2926.0,1037.0,0.014894198901023403,-0.8716578884592365,-0.04650892647523261,-0.48767572021170297
-4785.223148822784,1444.0,-1192.0,-16512.0,-2371.0,-3067.0,1823.0,-0.0939467078192128,-0.9486256669688252,0.17709430280085184,-0.24478759767063973
-4785.238787412643,744.0,-1092.0,-16420.0,-2062.0,-3777.0,1711.0,-0.1572018204301467,-0.9141441000848336,0.3650639449873807,0.07972746078854082
-4785.2543733119965,740.0,-1332.0,-16280.0,-2971.0,-4223.0,1605.0,-0.24471706519185332,-0.7171556909619018,0.4797140857548349,0.4423524260736529
-4785.2699909210205,824.0,-1164.0,-16332.0,-2836.0,-4193.0,3096.0,-0.3250914122531888,-0.3243754545097306,0.5804922004940459,0.6724023671555694
-4785.285569667816,-252.0,-1140.0,-16372.0,-3476.0,-4549.0,3040.0,-0.3232279670472007,0.16978442898675544,0.5151791393190563,0.7754272263743719
-4785.301215648651,-112.0,-748.0,-16184.0,-3562.0,-4622.0,2922.0,-0.22620513171771292,0.6208581249612518,0.31410880170801736,0.6816906099864691
-4785.316786289215,-140.0,-1144.0,-16540.0,-3519.0,-4805.0,4505.0,-0.14389845395971712,0.9213897846794973,-0.03717137491829415,0.3590994131476079
-4785.332346916199,-212.0,-60.0,-16180.0,-3785.0,-4616.0,4252.0,0.010386308866141825,0.9264920195766726,-0.3703866876100082,-0.0657142594127166
-4785.347986459732,-1224.0,-1276.0,-16420.0,-4367.0,-5608.0,3907.0,0.16681340595624744,0.6237559486603751,-0.5439224376577004,-0.535957261277965
-4785.363585472107,-72.0,-180.0,-16256.0,-4670.0,-5044.0,5495.0,0.34783423676586894,0.04693618484917167,-0.5537792063451472,-0.7550741214642763
-4785.379184484482,-976.0,108.0,-16164.0,-5041.0,-5975.0,4525.0,0.2967293296627,-0.5642498295895993,-0.33126845897239166,-0.6955825204934993
-4785.39480137825,-1100.0,532.0,-16520.0,-4789.0,-6135.0,4829.0,0.13793042495616073,-0.9376470687570917,0.029851539516353342,-0.3176508427678893
-4785.41038608551,-1324.0,1176.0,-16524.0,-5705.0,-6481.0,2972.0,-0.17965891792614314,-0.9213977285954438,0.2761650758882036,0.20611101331182413
-4785.426023244858,-1632.0,148.0,-16544.0,-5503.0,-6322.0,4219.0,-0.4220460610679511,-0.47962611913738945,0.47631458317284353,0.6041194633804762
-4785.441624403,-2276.0,68.0,-16680.0,-6209.0,-6488.0,6455.0,-0.5414466549148742,0.2584980820570281,0.47370319535045846,0.6446856165365382
-4785.457207918167,-2936.0,1332.0,-17164.0,-6371.0,-6702.0,7981.0,-0.3896591717904586,0.8665720730031207,0.17251190958666135,0.25972718991551835
-4785.472791433334,-4376.0,1592.0,-18900.0,-6068.0,-6567.0,8599.0,-0.018027757790464668,0.9168257100138528,-0.26596248132390926,-0.2972702069408775
-4785.4883685112,-4600.0,2208.0,-19144.0,-6392.0,-6628.0,9801.0,0.3851908750754153,0.34221687168750825,-0.5668421694515023,-0.6428106699663327
-4785.503980875015,-3604.0,3916.0,-17624.0,-5963.0,-5688.0,9743.0,0.5534799510654076,-0.4403815630067409,-0.47756906067889365,-0.5212022784050863
-4785.519557237625,-4948.0,2684.0,-18484.0,-7871.0,-7003.0,9191.0,0.2389478898167868,-0.9649154134688323,-0.06640138061968212,-0.08621489113939236
-4785.535132646561,-2804.0,3240.0,-18620.0,-7608.0,-5845.0,13226.0,-0.19311070619012963,-0.7143488341267606,0.5641929472654852,0.3661971007427185
-4785.550710678101,-2492.0,3820.0,-17620.0,-9473.0,-5667.0,12602.0,-0.512222370946631,0.1392828101323862,0.6451712289049716,0.54952945953487
-4785.56630730629,-1772.0,1724.0,-17148.0,-10390.0,-5190.0,12461.0,-0.3857791698537914,0.8675352076527904,0.12709145928453605,0.28706246108935346
-4785.58195567131,596.0,-1000.0,-16444.0,-11206.0,-3834.0,6734.0,0.21665769568899346,0.9111303234756485,-0.3438975013482831,-0.06808439695189436
-4785.597564697266,2300.0,-6304.0,-17684.0,-9184.0,-2997.0,4903.0,0.643790276505048,0.41608894220682496,-0.5348052186407193,-0.3555101266706925
-4785.613173007965,2780.0,-8972.0,-19076.0,-3613.0,-1789.0,4226.0,0.7327823350239124,-0.0352958434546515,-0.603076208265479,-0.3131825983924709
-4785.6287753582,4944.0,-5676.0,-18636.0,-597.0,-1157.0,3656.0,0.7291076818815702,-0.2818607101769834,-0.615357367990898,-0.10144869609376159
-4785.644363164902,1572.0,-4340.0,-18448.0,4974.0,1853.0,10561.0,0.7268833286567853,-0.3593474428295699,-0.19625045544307967,0.5513581418561485
-4785.660010576248,-5904.0,-276.0,-15248.0,4330.0,1371.0,-5427.0,0.9761139338897104,-0.04936266967996434,-0.06054224176541649,0.20273024409406384
-4785.675597667694,1272.0,-4076.0,-16124.0,4348.0,4212.0,-3107.0,0.9218993077831966,0.22585425129413514,0.3109355703261571,-0.04909780633771642
-4785.69119477272,-2332.0,-3360.0,-16292.0,10341.0,3814.0,3092.0,0.44405272243026495,0.8192662831700133,0.36277140048404766,-0.004104625915274694
-4785.706820011139,-4188.0,-136.0,-16316.0,8690.0,4068.0,-4856.0,-0.22457932986037105,0.7318839419003671,0.6303380690269683,-0.12877864311755938
-4785.722423315048,472.0,-1516.0,-16744.0,9624.0,4622.0,-2186.0,-0.8101052275187355,0.34428528561128086,0.4140347624286629,-0.23188871891279494
-4785.738024234772,-1732.0,-2236.0,-16484.0,10746.0,5255.0,-3984.0,-0.9439777605817741,-0.3045891467908386,-0.03702605623682126,-0.12149284071004074
-4785.753616333008,-2288.0,-3100.0,-17408.0,11370.0,5776.0,-6550.0,-0.4322399447951389,-0.7235924155814718,-0.5041757130932094,0.18812096258370473
-4785.769194126129,-1988.0,-4224.0,-17804.0,12937.0,6285.0,-7656.0,0.4527820558861144,-0.5625297327317188,-0.5823325404151914,0.3734133393893611
-4785.784846544266,-836.0,-4288.0,-17172.0,13578.0,6661.0,-6984.0,0.9551984708547855,0.06328225965007869,-0.12452115320960513,0.26093240368649073
-4785.800486803055,-1028.0,-3260.0,-17152.0,14687.0,6738.0,-6895.0,0.6033451974660333,0.6605556851350115,0.44221539030119084,-0.0639242372754988
-4785.8160841465,-56.0,-1368.0,-17608.0,13669.0,7420.0,-8737.0,-0.28097818456488916,0.5861261828308801,0.6811079623698786,-0.3370449542643723
-4785.83167552948,2860.0,-1896.0,-16768.0,14343.0,8164.0,-9707.0,-0.9168703866592541,-0.05255060864987854,0.2854025602287224,-0.2741030941319848
-4785.84726691246,-1772.0,32.0,-16648.0,10199.0,7161.0,-17147.0,-0.6936338585680147,-0.5347577567060566,-0.2900423960520232,0.38572220623546527
-4785.862850666046,212.0,132.0,-16932.0,8965.0,8153.0,-14438.0,0.21673463778704147,-0.512487887406699,-0.6002868781861203,0.5744892739836841
-4785.8784375190735,-1720.0,-2252.0,-18308.0,11085.0,7864.0,-8574.0,0.902417788631709,-0.14405124184863433,-0.16225572091665613,0.37224246871191197
-4785.894063472748,-592.0,-48.0,-16816.0,10850.0,8603.0,-6999.0,0.8246774164517598,0.3148017551248071,0.4631599458088957,-0.07930875338253932
-4785.909657001495,-3972.0,2108.0,-15660.0,7490.0,7857.0,-14680.0,0.1061138602908674,0.16746100509595557,0.7337023803110615,-0.6499057451294803
-4785.925390481949,-3320.0,5072.0,-13940.0,6142.0,8249.0,-21186.0,-0.7496999063024156,-0.29063888239496694,0.3375622272237471,-0.4894188730342313
-4785.941012382507,-1664.0,1592.0,-15080.0,3638.0,8366.0,-19114.0,-0.8185633526850449,-0.34958878953875305,-0.40438697349701264,0.21026861757232057
-4785.956618070602,752.0,-776.0,-15408.0,5737.0,7749.0,-9108.0,-0.13254838425377602,-0.37936652294879813,-0.739144627181255,0.5405341683987573
-4785.9722719192505,468.0,776.0,-14984.0,5934.0,7850.0,-1543.0,0.4853639695180393,-0.5425330915552947,-0.4537932564233615,0.5139565566133262
-4785.988919496536,-1696.0,-276.0,-16304.0,4539.0,5941.0,-3653.0,0.889497989264458,-0.38217574260066245,-0.13891298370053876,0.2084183576884055
-4786.004599809647,20.0,216.0,-16524.0,4444.0,5820.0,-246.0,0.937476385588415,-0.11827586761317858,0.3247153461035192,0.0413375085038139
-4786.020267248154,-1284.0,440.0,-15544.0,3495.0,5295.0,-2288.0,0.7166652153039157,0.07206476731495741,0.6438759780368873,-0.25811114542435953
-4786.035920619965,-1204.0,728.0,-15372.0,3020.0,4196.0,-2044.0,0.3739615561160777,0.21649260933459802,0.7659344939346819,-0.476054677166144
-4786.0515196323395,-1668.0,1896.0,-14852.0,2050.0,3669.0,-2446.0,-0.01081195756888098,0.2507596086685871,0.7795823491176185,-0.5738066583599057
-4786.067118406296,-844.0,2616.0,-14512.0,850.0,3451.0,-1723.0,-0.3313213903774134,0.2889410321992621,0.7295161071215178,-0.5239708633505004
-4786.082736730576,-808.0,2248.0,-13616.0,-74.0,2914.0,-966.0,-0.5399626258865455,0.35054402796147865,0.6502484305216975,-0.403405782941095
-4786.098398923874,-832.0,1976.0,-14096.0,-1522.0,1595.0,-1593.0,-0.6224948753246334,0.3776216957329604,0.6592653663456526,-0.18780618159013063
-4786.114046096802,576.0,928.0,-15788.0,-2473.0,1079.0,-1080.0,-0.601480272859467,0.45324186833284175,0.6561685985990043,0.04728699994369093
-4786.129660844803,1556.0,-516.0,-17624.0,-1772.0,528.0,1549.0,-0.5555774608761082,0.6192983139941356,0.5480279123642281,0.08642158596197676
-4786.145344257355,1248.0,-308.0,-18664.0,-55.0,1479.0,5183.0,-0.5991964528224331,0.77715919499507,0.17730169004663782,-0.07450709540865377
-4786.160927057266,-872.0,20.0,-17772.0,232.0,980.0,2560.0,-0.5962489608819438,0.7887987210284313,-0.04768139672729226,-0.14145755107892904
-4786.176532268524,112.0,-216.0,-15964.0,-375.0,759.0,2288.0,-0.526962354348457,0.7906307788961239,-0.23478479134181668,-0.20515786681533613
-4786.192128419876,888.0,672.0,-14316.0,-271.0,1119.0,4968.0,-0.3619094938919891,0.6591707916652407,-0.5702823741114738,-0.3305955223895887
-4786.207783699036,0.0,500.0,-13408.0,-530.0,587.0,5927.0,-0.1161321140527207,0.3528389404559811,-0.810815815218654,-0.4523225928193905
-4786.223381757736,0.0,284.0,-13488.0,-1286.0,-120.0,8728.0,0.205670166213998,-0.20313748804424153,-0.8143281137790145,-0.503293817555605
-4786.238971233368,48.0,-208.0,-15772.0,-834.0,-724.0,15070.0,0.4841411463865667,-0.7981486604404355,-0.3164592394921826,-0.16858118504942596
-4786.254637002945,-1400.0,92.0,-16056.0,-388.0,-1199.0,18317.0,0.3670238743974783,-0.7085082269230223,0.48411486809430654,0.3590854529143326
-4786.270235538483,-2492.0,856.0,-15596.0,-361.0,-1219.0,20288.0,-0.11773090202695002,0.08597296141178344,0.8290442194447791,0.5398460584455588
-4786.285818576813,-2324.0,2544.0,-14688.0,-3292.0,-2460.0,13985.0,-0.3546317471199944,0.7709987493882885,0.367441960253029,0.3805044785830079
-4786.301425218582,-1360.0,1768.0,-17648.0,-4128.0,-1932.0,15249.0,-0.3044591860496148,0.8483933221566652,-0.4299005528469821,-0.05214297279444434
-4786.317026376724,-2844.0,-2960.0,-17368.0,-9396.0,-3292.0,-750.0,0.19943656861526377,0.837793048527165,-0.1841188280486988,-0.4737384511484183
-4786.332602739334,3836.0,-10800.0,-20720.0,-6109.0,-1718.0,7607.0,0.7057723813909154,0.4072573866373449,-0.3916262359738018,-0.4273823323350052
-4786.34817647934,1208.0,-5600.0,-17684.0,138.0,1055.0,18464.0,0.7507245756854719,-0.09259931171196249,-0.5204626582532418,0.39617748585237433
-4786.36378121376,-4316.0,2020.0,-13544.0,-3185.0,-456.0,9099.0,0.29788420212319416,-0.5345199242182807,-0.44906640277777193,0.6510705174060207
-4786.379357814789,908.0,2836.0,-15456.0,-7698.0,-1197.0,-1982.0,0.0035924998058073964,-0.48222776653342786,-0.82687654893872,0.2893417493976968
-4786.394974470139,7220.0,764.0,-21692.0,-5994.0,430.0,1750.0,-0.22967171889477897,-0.5451804787353514,-0.7937609654894972,-0.1413247211601425
-4786.410644292831,-204.0,0.0,-27548.0,-1829.0,-299.0,3741.0,-0.2734257877198375,-0.7248230296416288,-0.5518472044191847,-0.30876297913714856
-4786.426230430603,-5392.0,-2012.0,-23756.0,-3356.0,-1133.0,-722.0,-0.5337046699557381,-0.610944687626166,-0.4579393570251626,-0.3635896852444851
-4786.441815137863,-2548.0,-4352.0,-16704.0,-2329.0,318.0,3979.0,-0.48111548266626863,-0.6042848376725576,-0.17328362015813847,-0.6110159689261353
-4786.457395792007,-920.0,-1336.0,-13664.0,-2737.0,278.0,1068.0,-0.546379173540807,-0.4754544432882805,0.016698928652001004,-0.6892996567967892
-4786.47297668457,484.0,496.0,-15228.0,-2342.0,466.0,-2243.0,-0.7490780801630674,-0.3262599917432709,0.0406724454566687,-0.5751366792228333
-4786.488555192947,996.0,1076.0,-17040.0,-2698.0,377.0,-7813.0,-0.9885576730500729,-0.12892616453315,-0.057538519114372855,-0.05311393386599528
-4786.504174947739,2804.0,-924.0,-16536.0,-3163.0,-162.0,-8206.0,-0.8432448129603456,0.14604226146440918,-0.096106208325875,0.5083044756866267
-4786.519803524017,3852.0,-3768.0,-15768.0,-3083.0,-609.0,-3372.0,-0.6117472059816235,0.3975233722099114,-0.13462589898808366,0.6705344076497399
-4786.535432338715,2188.0,-2912.0,-15520.0,-2710.0,-421.0,142.0,-0.5162485706017841,0.5498303694798661,-0.26811925231127093,0.5994047419643038
-4786.55105471611,344.0,-744.0,-15660.0,-3571.0,-415.0,-2067.0,-0.23164522881154256,0.7343371759792302,-0.31700129446374514,0.5537143480640601
-4786.566679477692,-344.0,-928.0,-16980.0,-3428.0,-468.0,-3801.0,0.144917576916478,0.8499357661965569,-0.20956473318511276,0.4611840325136821
-4786.582268238068,660.0,-1040.0,-17344.0,-3177.0,-320.0,-3843.0,0.4851526733020767,0.8186413451803217,-0.051777880059507196,0.30293940431337896
-4786.597874879837,1032.0,-752.0,-16972.0,-2548.0,-200.0,-2719.0,0.7016919763943568,0.6927593835190199,0.06334273148517947,0.15394968391693895
-4786.6135149002075,1176.0,628.0,-16640.0,-2060.0,-151.0,-3940.0,0.8201817044924666,0.5100510001819897,0.24669377652147997,-0.0793229440625752
-4786.62913775444,1096.0,224.0,-15904.0,-1965.0,-322.0,-5117.0,0.7927122927861509,0.23202196950922152,0.419466432178,-0.3765912091467951
-4786.6447377204895,1448.0,-424.0,-16336.0,-2681.0,-605.0,-5214.0,0.6203942966943434,-0.14589798480716948,0.508266488531492,-0.5792148748903163
-4786.660319566727,2240.0,-1564.0,-16596.0,-2323.0,-582.0,-2510.0,0.4685837516715548,-0.3948157819160088,0.5383086189622519,-0.5785962294816781
-4786.675871133804,2024.0,-1740.0,-16884.0,-1092.0,-128.0,1417.0,0.5022338344301627,-0.37496118253749694,0.6295288554255281,-0.4591935401661076
-4786.691451311111,924.0,196.0,-15924.0,-1210.0,-23.0,233.0,0.47032649817246786,-0.4138396688946709,0.6808706209442451,-0.37940072627891896
-4786.707100868225,512.0,-32.0,-16028.0,-1562.0,-282.0,-1461.0,0.3754784452916181,-0.5642698137538558,0.6568515715667116,-0.3303960159231938
-4786.722680807114,1548.0,-2260.0,-17136.0,889.0,-1258.0,-523.0,0.47133384677835,-0.5955586308660474,0.5587725197133951,-0.3330579428496273
-4786.738259077072,-556.0,196.0,-16784.0,-5390.0,-1479.0,-6693.0,0.0545679608946767,-0.9443233370450934,0.24419386541114943,-0.21364720651433128
-4786.753857374191,3840.0,-3488.0,-18432.0,463.0,-44.0,6186.0,0.1838058475346659,-0.713359575571909,0.6552712100805216,-0.16719200815690358
-4786.769493103027,740.0,1172.0,-15324.0,-4.0,266.0,4027.0,0.21396685828660625,-0.4521054514405445,0.8586481287072004,-0.11199212204580998
-4786.785084962845,-640.0,448.0,-15472.0,-2500.0,-1728.0,-2393.0,0.20953752588237454,-0.658487837362511,0.7167206736681868,0.09380442009498767
-4786.800746679306,1556.0,-712.0,-16940.0,-1568.0,-444.0,1490.0,0.13229989605645145,-0.5797259750606697,0.7673249908917879,0.24005601366415666
-4786.816337823868,508.0,64.0,-16568.0,-385.0,-363.0,519.0,0.12583470983883643,-0.5407427992121521,0.779780236986987,0.2893192577491181
-4786.831945180893,-152.0,312.0,-16104.0,-1655.0,-645.0,-2703.0,0.15374247221136184,-0.6993288860861607,0.5807808710487002,0.38729309462955996
-4786.847537755966,1448.0,-96.0,-16060.0,-944.0,-266.0,-675.0,0.13160228499309465,-0.7333821212975629,0.5015092337579672,0.4396816930475725
-4786.863115787506,1276.0,912.0,-15712.0,-797.0,-407.0,-1172.0,0.14209739405407998,-0.7719777848562697,0.38814805026947286,0.4829075702072328
-4786.878678560257,708.0,1192.0,-16056.0,-1299.0,-692.0,-2323.0,0.17096727086958355,-0.8146437344040622,0.16376960823837017,0.5294386590579321
-4786.894238710403,1004.0,768.0,-16788.0,-1346.0,-596.0,-2214.0,0.18118351506005329,-0.8173095541128449,-0.06299551591269342,0.5433315669103349
-4786.909824848175,948.0,220.0,-16872.0,-426.0,-335.0,-605.0,0.17711726795594018,-0.8030114684128151,-0.13133050452657183,0.5536735080985132
-4786.92552614212,384.0,-52.0,-16520.0,-413.0,-15.0,-814.0,0.18666358359603688,-0.7970005569214635,-0.20793336392182432,0.5354535787480708
-4786.941135644913,536.0,-396.0,-16140.0,-405.0,-300.0,-1248.0,0.20984575098182334,-0.7618749999784922,-0.3164247500013175,0.5247729249773192
-4786.956736087799,1048.0,524.0,-16284.0,-46.0,177.0,-344.0,0.2272014544035224,-0.7610508440570918,-0.3380400764070817,0.5048861442143234
-4786.9723381996155,592.0,124.0,-16404.0,-37.0,73.0,-678.0,0.25620821292559554,-0.7438432555687422,-0.3826502510874846,0.484389665576231
-4786.987981081009,1360.0,148.0,-16208.0,205.0,300.0,833.0,0.2434448378900612,-0.777471855244215,-0.3123165323308514,0.48860056164584226
-4787.003619432449,1300.0,536.0,-15928.0,220.0,649.0,1686.0,0.20153013614860896,-0.8361026602259589,-0.17266265790581978,0.48010993777664684
-4787.019278526306,540.0,476.0,-16004.0,238.0,503.0,877.0,0.18884407274234793,-0.8628303770140037,-0.08952045720121825,0.46026920865341403
-4787.034869670868,1248.0,164.0,-16532.0,616.0,762.0,1338.0,0.18540314252494616,-0.8846747696491939,0.04800655675203304,0.4250548166964281
-4787.050460577011,388.0,-196.0,-16808.0,700.0,578.0,998.0,0.19852115218493105,-0.8846436358972914,0.1592755341021904,0.3906741530201993
-4787.0660672187805,300.0,-408.0,-16688.0,708.0,485.0,1515.0,0.19245175333114617,-0.8581428625929365,0.30528786908066724,0.3651745705998075
-4787.081661701202,412.0,-340.0,-16516.0,516.0,398.0,1412.0,0.173767094503253,-0.8171740805722527,0.4302512045322149,0.3419289690964617
-4787.097236394882,496.0,-32.0,-16376.0,557.0,431.0,941.0,0.16820471563806644,-0.7822546944684077,0.517847790593348,0.3026853686533981
-4787.112807512283,472.0,316.0,-16292.0,403.0,377.0,-136.0,0.18188630068677547,-0.7915545171843827,0.524158431368898,0.2561576834146788
-4787.128378629684,852.0,40.0,-16376.0,203.0,229.0,-781.0,0.20216912104209248,-0.8270442326305404,0.47715931978563136,0.21781750919368684
-4787.143965482712,1208.0,-152.0,-16408.0,173.0,168.0,-697.0,0.22024774602409686,-0.8545239935634067,0.43225502865095267,0.18556741363104626
-4787.159552812576,1176.0,-392.0,-16336.0,104.0,40.0,-292.0,0.23091372796210094,-0.8639538431055519,0.4128146360042377,0.17276192729441583
-4787.1751272678375,976.0,288.0,-16152.0,220.0,-241.0,-146.0,0.25801229734422254,-0.8608221915678477,0.40011532970420266,0.17978468193698177
-4787.190773010254,944.0,-480.0,-16256.0,-488.0,-195.0,-365.0,0.23328424277523763,-0.8802202046666767,0.3601225329233145,0.20273779778382234
-4787.206413984299,720.0,-312.0,-16464.0,-323.0,-182.0,-481.0,0.22216715120123157,-0.8975295453286729,0.3133482240754935,0.21655337138444417
-4787.222038507462,644.0,92.0,-16604.0,-417.0,-104.0,-923.0,0.20874930003655143,-0.9253376994048048,0.2302811521802596,0.2171277567355337
-4787.237626314163,280.0,80.0,-16196.0,-606.0,-225.0,-1910.0,0.19727832913739604,-0.9559039396039608,0.05957242314296312,0.20923681679680647
-4787.253213167191,1088.0,-120.0,-16532.0,-492.0,-214.0,-1356.0,0.1804548025326737,-0.9598645969194739,-0.06568436555441881,0.20440544010672304
-4787.2688002586365,944.0,44.0,-16600.0,-266.0,-165.0,-713.0,0.16936187646388745,-0.9549078074850383,-0.13245876444219254,0.20474938272726334
-4787.284395456314,748.0,20.0,-16304.0,-435.0,-290.0,-1131.0,0.14890317743995352,-0.9376373653893129,-0.23738356852596282,0.20570137619362944
-4787.300044298172,1032.0,-236.0,-16236.0,-1.0,-186.0,-301.0,0.1501433689827513,-0.9277152339466832,-0.26435223890010606,0.21660864997100518
-4787.315621376038,1016.0,404.0,-16440.0,-145.0,-70.0,-205.0,0.14046210776769014,-0.9234039436618122,-0.28456155794554044,0.21591728242750158
-4787.331238985062,660.0,76.0,-16844.0,-34.0,-192.0,-132.0,0.13525373310536107,-0.9168138604403688,-0.2981597660210125,0.22860342716544446
-4787.346811294556,696.0,160.0,-16572.0,135.0,-6.0,159.0,0.14255444790326105,-0.9191701646607855,-0.2828009803440804,0.2341538880669884
-4787.362407684326,564.0,80.0,-16144.0,191.0,-21.0,122.0,0.1546806037430711,-0.9192838088354278,-0.2693515151065041,0.24174563273932811
-4787.3780035972595,572.0,220.0,-15972.0,249.0,73.0,-426.0,0.1850228251964213,-0.9066839444780744,-0.29703752750443113,0.23549837841494556
-4787.3935561180115,908.0,-340.0,-16528.0,-70.0,-14.0,-518.0,0.18939991134293166,-0.8932580717858767,-0.339374063593279,0.22592683712399478
-4787.40918803215,1068.0,180.0,-16660.0,203.0,142.0,-54.0,0.21026231403113102,-0.8909749558555871,-0.33719447447816014,0.21966627806244238
-4787.424785614014,632.0,-196.0,-16140.0,249.0,-121.0,-344.0,0.23228470473797194,-0.8734135771455661,-0.36116491801036305,0.22967899599472974
-4787.44037437439,1204.0,-192.0,-16152.0,1.0,-38.0,720.0,0.21611017346599742,-0.893653200565784,-0.30648347959198713,0.24647155369375848
-4787.455999612808,612.0,-116.0,-16340.0,-80.0,-52.0,679.0,0.1933383189936956,-0.9106747711851905,-0.2558153534706568,0.26048082552114227
-4787.4715802669525,648.0,-68.0,-16492.0,-18.0,-248.0,314.0,0.1789528655359027,-0.9118994263042486,-0.2353463152221858,0.2846531576037949
-4787.48716378212,684.0,132.0,-16204.0,100.0,76.0,416.0,0.1778549214512637,-0.9202149748676192,-0.1984596655462775,0.28668063781185454
-4787.502814054489,784.0,192.0,-16272.0,48.0,174.0,222.0,0.1789591949222428,-0.9274841616242827,-0.17670237059969854,0.2766279246810257
-4787.518438339233,928.0,-176.0,-16528.0,183.0,101.0,840.0,0.17440390026734987,-0.937453705217988,-0.10245457386085904,0.28331411973212983
-4787.53401184082,876.0,-244.0,-16264.0,355.0,209.0,1187.0,0.17477573153194725,-0.9422936064776349,0.006552373046714765,0.2854702598630927
-4787.549585580826,632.0,-104.0,-16308.0,122.0,146.0,911.0,0.16134612039511487,-0.940561304393982,0.08644308962031987,0.28607595908609607
-4787.565164804459,856.0,-372.0,-16468.0,340.0,219.0,1291.0,0.15416533275347985,-0.9251844052484937,0.20257669674428808,0.28147743852424945
-4787.580738544464,764.0,92.0,-16412.0,391.0,312.0,1343.0,0.14594476591852362,-0.8969569794051124,0.3223196165127887,0.26510067372319646
-4787.596308469772,736.0,144.0,-16348.0,455.0,290.0,1361.0,0.14062034722508193,-0.8527453421330652,0.43953071561011664,0.244671309008469
-4787.6118767261505,1012.0,-160.0,-16344.0,500.0,329.0,1791.0,0.1251278446075343,-0.7745667300546369,0.5797426281321494,0.21974505301091166
-4787.62748003006,872.0,-208.0,-16536.0,556.0,358.0,1728.0,0.10988181360688186,-0.6791984577064646,0.7020660998521442,0.18362634213538473
-4787.6430876255035,672.0,-20.0,-16404.0,545.0,333.0,1499.0,0.09661775387708224,-0.5816578067623573,0.7948869256508895,0.14315718947167486
-4787.658676624298,704.0,84.0,-16236.0,499.0,339.0,1170.0,0.08307153998956236,-0.4972789089724748,0.8577626720202088,0.10027963115039464
-4787.674238204956,832.0,-56.0,-16268.0,264.0,229.0,819.0,0.06978800384533293,-0.4347678955026642,0.8946080280010786,0.0760459584428365
-4787.689833879471,784.0,-440.0,-16456.0,446.0,318.0,1411.0,0.0518537282570249,-0.32122564937214965,0.9448506109772997,0.03718327563718653
-4787.705440282822,724.0,-48.0,-16400.0,350.0,264.0,1274.0,0.03524174240024348,-0.213980325961671,0.9761806198794806,0.0064681578246636035
-4787.721032619476,888.0,-140.0,-16304.0,452.0,304.0,1202.0,0.016677941114534425,-0.10964196521845347,0.9932535806641001,-0.03387934829892003
-4787.736663579941,624.0,-384.0,-16448.0,396.0,327.0,905.0,-0.00546276348741157,-0.029541458609813928,0.9971251674327335,-0.06956192141199283
-4787.752230882645,696.0,-436.0,-16352.0,336.0,260.0,541.0,-0.02398141650671575,0.018909464526982,0.9945955435016925,-0.09923219568369394
-4787.767802000046,1080.0,-260.0,-16212.0,216.0,0.0,527.0,-0.019783890774185256,0.06410885447269667,0.9906715736446341,-0.11861064714644248
-4787.783376932144,768.0,-420.0,-16344.0,170.0,107.0,327.0,-0.026599827166735857,0.0931352021728407,0.9863889842705453,-0.13287232601503454
-4787.798947811127,540.0,-376.0,-16420.0,34.0,67.0,-32.0,-0.03298962779636312,0.0910750886359954,0.9861197995468605,-0.1348508569845329
-4787.814589977264,1020.0,-292.0,-16340.0,-64.0,89.0,-449.0,-0.045384332018266,0.053617882343604324,0.9894232972593344,-0.1269130566203092
-4787.830177307129,856.0,-428.0,-16460.0,33.0,40.0,-534.0,-0.05479446326199327,0.0078089752042809985,0.9903574854707303,-0.12699857351238747
-4787.845801115036,960.0,-372.0,-16432.0,246.0,32.0,-500.0,-0.06312461317509009,-0.03619033806197864,0.9867001785935676,-0.1453557711474732
-4787.86137342453,928.0,164.0,-16356.0,-30.0,122.0,250.0,-0.07045920263010914,-0.012958718300249274,0.9869555495963812,-0.14417460076465982
-4787.876936912537,648.0,344.0,-16152.0,-645.0,-139.0,-1311.0,-0.07499697486450534,-0.12265956138080816,0.9864171905205199,-0.07944313695118764
-4787.8924877643585,1100.0,-1480.0,-16420.0,-306.0,-202.0,-265.0,-0.062398793670315804,-0.14474997431747494,0.9862828181737707,-0.04899018328996713
-4787.908109903336,900.0,-304.0,-16276.0,-384.0,-81.0,-360.0,-0.06151551695418312,-0.1738072489960935,0.9827742698904434,-0.012712820756056701
-4787.9237844944,596.0,-40.0,-16188.0,-630.0,-291.0,-1295.0,-0.04684364048637374,-0.27952299200906,0.9575675660690959,0.052315644856907616
-4787.939428806305,976.0,-148.0,-16400.0,-489.0,-96.0,-895.0,-0.0463847886797635,-0.3504795248834562,0.9302235021176312,0.09847228099627632
-4787.955022096634,696.0,-276.0,-16544.0,-473.0,-222.0,-1200.0,-0.03222672509347952,-0.44121500639098615,0.8846524065912859,0.14724427268113865
-4787.97065448761,940.0,-328.0,-16292.0,-424.0,-184.0,-938.0,-0.022182178111707303,-0.5079849663285051,0.8401734763009667,0.18859415335263388
-4787.9862315654755,780.0,-48.0,-16156.0,-474.0,-192.0,-1143.0,-0.010242102275101543,-0.584269352261597,0.7775149058400954,0.23236823049906757
-4788.001855134964,664.0,-116.0,-16400.0,-469.0,-213.0,-1556.0,0.011725178291438503,-0.6782577031872302,0.6819915551548091,0.27334324019214756
-4788.017493486404,728.0,-288.0,-16588.0,-396.0,-232.0,-1565.0,0.03900945354449959,-0.758696854382029,0.57396476130502,0.30564979709635876
-4788.033095836639,816.0,-100.0,-16124.0,-343.0,-154.0,-1489.0,0.06311655666242834,-0.823066618562532,0.4616456997562425,0.32474742428491565
-4788.048734664917,712.0,-192.0,-16284.0,-346.0,-510.0,-1644.0,0.10412764150739662,-0.866745358928433,0.32718810393204023,0.36174281153256593
-4788.064339637756,916.0,-196.0,-16428.0,-147.0,-108.0,-1088.0,0.12975803857403803,-0.8917338251836392,0.23821264569578574,0.3622545677826399
-4788.079959630966,644.0,-284.0,-16420.0,-134.0,-151.0,-1130.0,0.15731060914020947,-0.9075526695894359,0.14364155702205778,0.3618958790443784
-4788.095545053482,784.0,-184.0,-16280.0,19.0,62.0,-713.0,0.18009228516314688,-0.9165275449388095,0.088466828929581,0.34600238203269423
-4788.111137866974,572.0,200.0,-16620.0,-336.0,-89.0,-1848.0,0.20679928077808246,-0.9211940868471704,-0.06993853436823795,0.32209333001150214
-4788.126713275909,704.0,-380.0,-16412.0,-182.0,-115.0,-1561.0,0.23300139624035146,-0.9033408802765924,-0.20074596669663292,0.29897601948349006
-4788.142283201218,836.0,-152.0,-16596.0,-213.0,-104.0,-1404.0,0.24893193388552742,-0.8737592687075382,-0.3166959905982662,0.27254592673283995
-4788.157873392105,740.0,-292.0,-16108.0,-287.0,-162.0,-1588.0,0.2575811608958287,-0.8241453721872865,-0.44375040641236574,0.2398372945617436
-4788.173515081406,1012.0,-440.0,-16364.0,-326.0,-184.0,-1091.0,0.24838337088409182,-0.7815136541590385,-0.5305537252660728,0.21460394692906998
-4788.189153671265,792.0,-236.0,-16516.0,-115.0,-2.0,-538.0,0.25001551705732716,-0.7582677522998185,-0.568852556872775,0.19730439830891905
-4788.204786300659,568.0,-244.0,-16596.0,23.0,42.0,-632.0,0.26386698698513394,-0.7260860175737264,-0.6084980431946919,0.1813930530410261
-4788.22038602829,648.0,-132.0,-16448.0,149.0,101.0,-308.0,0.2831649976817846,-0.707635082918774,-0.6231030398094388,0.17553568096159722
-4788.236003398895,1000.0,60.0,-16552.0,211.0,149.0,-291.0,0.30833113468850804,-0.688562481288422,-0.6338776609992997,0.17033124090925147
-4788.251602172852,532.0,-424.0,-16472.0,153.0,79.0,-158.0,0.3239131146442016,-0.6768248049128129,-0.638923822526998,0.16960196527079055
-4788.267231464386,828.0,-240.0,-16476.0,503.0,229.0,115.0,0.3639906772762938,-0.6716859383749799,-0.6175631151587372,0.18698819706255182
-4788.282824277878,564.0,-96.0,-16408.0,98.0,121.0,-367.0,0.3817531474941258,-0.6504729621887186,-0.633346784415,0.17326658798204972
-4788.298441648483,956.0,-712.0,-16440.0,337.0,221.0,310.0,0.4077480403358733,-0.6591736918073776,-0.60280789865286,0.18935209783102708
-4788.314060211182,940.0,-124.0,-16276.0,346.0,298.0,603.0,0.4321699577694112,-0.6821336271364365,-0.5507162086596309,0.21126878579391717
-4788.329635620117,672.0,-468.0,-16344.0,308.0,80.0,450.0,0.4452876213342759,-0.6929439519240154,-0.5147481844901746,0.23786954479810876
-4788.345205068588,1080.0,-472.0,-16352.0,547.0,293.0,1525.0,0.45496652724224235,-0.7388267463901129,-0.3958427167144789,0.30074747136399044
-4788.36078619957,760.0,-56.0,-16320.0,313.0,214.0,906.0,0.456868032635221,-0.7606851741463,-0.3196413373416878,0.33235385066590256
-4788.376354932785,704.0,-524.0,-16560.0,427.0,168.0,1154.0,0.4535679277245043,-0.7763545737286257,-0.22273397726347424,0.37674830611793986
-4788.391966581345,772.0,-384.0,-16164.0,597.0,510.0,1547.0,0.44777355652265477,-0.7907436876235622,-0.07729502071385211,0.41018135298351677
-4788.407567024231,680.0,-428.0,-16364.0,492.0,188.0,1459.0,0.42669580695897,-0.7811707521660922,0.047875764490370516,0.45322274375670707
-4788.423172950745,956.0,-404.0,-16328.0,668.0,270.0,1934.0,0.38820457397541935,-0.7470869241516145,0.21277147672307567,0.4958695747868833
-4788.438796043396,684.0,-172.0,-16156.0,706.0,336.0,1854.0,0.342374924800886,-0.6928843537118505,0.3699707103903741,0.5155699338616836
-4788.45442032814,704.0,-16.0,-16200.0,792.0,535.0,1608.0,0.29657142407810405,-0.6331665282400989,0.5121295406111354,0.49886758921590896
-4788.469997167587,516.0,-388.0,-16420.0,871.0,765.0,1466.0,0.24333275796873752,-0.5710018054645369,0.6424635790370825,0.4494292565759705
-4788.485592365265,824.0,-296.0,-16556.0,1128.0,665.0,1893.0,0.1841926562231522,-0.4579478622314966,0.7796842466520071,0.3852911839034916
-4788.50118970871,588.0,-468.0,-16480.0,934.0,506.0,1413.0,0.1378188390209065,-0.35961400239642344,0.8655503778461465,0.3201660199049044
-4788.516795396805,856.0,-756.0,-16472.0,835.0,447.0,1371.0,0.09087162842251459,-0.255847709452345,0.927608519041492,0.25656720779842235
-4788.532379150391,884.0,-712.0,-16436.0,850.0,495.0,1777.0,0.02941682526099453,-0.11457223466010796,0.9751018138980039,0.18757480099783153
-4788.547988414764,636.0,-544.0,-16252.0,599.0,352.0,772.0,-0.007226998535826668,-0.05288830928778462,0.9895159236380943,0.13419699735646884
-4788.563565015793,928.0,-960.0,-16268.0,556.0,477.0,1004.0,-0.05731155520870968,0.027715980462218362,0.9945523312028252,0.0825401148872653
-4788.579138755798,848.0,-416.0,-16196.0,440.0,483.0,622.0,-0.10435132255512053,0.07579583171968189,0.9907595981413072,0.04196679718294044
-4788.594713926315,784.0,-932.0,-16452.0,326.0,330.0,643.0,-0.13682034892944214,0.1269238664454796,0.9823813566488516,0.009868857791946767
-4788.610305786133,892.0,-856.0,-16336.0,230.0,410.0,924.0,-0.17428931683965168,0.20222851721684035,0.9635657470711579,-0.016368015488971866
-4788.625904560089,880.0,-712.0,-15904.0,255.0,317.0,827.0,-0.20328445034309156,0.26749724850250983,0.9408119155718793,-0.044649678725210314
-4788.641511440277,960.0,-436.0,-16384.0,124.0,391.0,584.0,-0.23523771563813803,0.31418006733054943,0.9180584311856234,-0.05588219181916488
-4788.657142400742,608.0,-636.0,-16448.0,36.0,229.0,-280.0,-0.255496188086816,0.2920088117334309,0.9204760176498922,-0.04665246697154644
-4788.672738313675,932.0,-704.0,-16400.0,195.0,322.0,-110.0,-0.28629896977828967,0.28000331648138793,0.914860980001449,-0.0515793556968456
-4788.688311576843,768.0,-432.0,-16180.0,0.0,237.0,-857.0,-0.30784339402270783,0.21204358274835006,0.9271903313259087,-0.024249809639980777
-4788.70396566391,1004.0,-644.0,-16304.0,-36.0,293.0,-645.0,-0.3313047660501084,0.16116235459137168,0.9296568316294829,0.0014222727162446756
-4788.719543218613,588.0,-688.0,-16304.0,-217.0,203.0,-1284.0,-0.34199954580724834,0.06285529083351549,0.9357626764762463,0.05859809208397551
-4788.735118150711,884.0,-1196.0,-16532.0,-206.0,118.0,-1364.0,-0.34075907740584377,-0.042652246146710746,0.9320108350410214,0.11584403493618578
-4788.750687122345,1084.0,-896.0,-16284.0,-165.0,222.0,-987.0,-0.3477883789452308,-0.11977949079758589,0.9165357644292998,0.15702964553522447
-4788.766258478165,788.0,-760.0,-16284.0,-423.0,16.0,-1505.0,-0.32955140399157157,-0.22545264185624245,0.8864452413559358,0.23405514838311348
-4788.7818303108215,1324.0,-516.0,-16388.0,-254.0,117.0,-467.0,-0.3334631685652784,-0.2563943795290699,0.8678659379525604,0.2643349222067158
-4788.797401666641,792.0,-344.0,-16364.0,-448.0,30.0,-1045.0,-0.31986490280066937,-0.3216472907461009,0.8293497301727507,0.3262031412699715
-4788.812997341156,1176.0,-980.0,-16460.0,-354.0,26.0,-1216.0,-0.29509178978694367,-0.39813315118386283,0.7798194267714029,0.3824820141636284
-4788.828588008881,932.0,-396.0,-16272.0,-287.0,97.0,-964.0,-0.27825124187455513,-0.4578727238906907,0.7315642857618878,0.42159519792080896
-4788.844179153442,528.0,-688.0,-16256.0,-518.0,-86.0,-1675.0,-0.2290172835133199,-0.5428252665271265,0.6403506495637022,0.49279088818207495
-4788.859853029251,1116.0,-860.0,-16500.0,-413.0,31.0,-1482.0,-0.18482129597167354,-0.6133326136107072,0.5470049547940515,0.5389339227285358
-4788.87544465065,808.0,-772.0,-16252.0,-280.0,28.0,-1399.0,-0.13422887186367916,-0.6718687775261846,0.4551190557570001,0.5687192636358741
-4788.891045331955,924.0,-544.0,-16152.0,-587.0,-126.0,-1874.0,-0.06955978609749235,-0.7227582254934799,0.31311599533630596,0.6121604014505853
-4788.906680345535,1340.0,-752.0,-16492.0,-400.0,2.0,-961.0,-0.043297984315499055,-0.7438236738080187,0.23025395036826626,0.6259670479959508
-4788.92235326767,836.0,-672.0,-16496.0,-327.0,-108.0,-787.0,-0.01928584758359001,-0.7505989042760198,0.16131848520771783,0.6404730184113208
-4788.9380235672,920.0,-464.0,-16404.0,-21.0,-101.0,-607.0,0.014677531947102418,-0.7525870437785359,0.12042215717583231,0.647221612474232
-4788.953603744507,804.0,-644.0,-16408.0,-236.0,-109.0,-543.0,0.03095274800328325,-0.7516168851150814,0.07121922918176574,0.6550128294893947
-4788.969188451767,980.0,-656.0,-16276.0,-269.0,-148.0,-892.0,0.0649945671844779,-0.7471182919785052,-0.0030428636530305166,0.6614988322048746
-4788.984772443771,772.0,-612.0,-16260.0,-339.0,-120.0,-782.0,0.08774231375773797,-0.740041376748908,-0.07408059608730419,0.6626855305190908
-4789.000353097916,976.0,-744.0,-16488.0,-351.0,-136.0,-663.0,0.10229264658012739,-0.7291835075215788,-0.13796799514703093,0.6624141145305328
-4789.016015291214,960.0,-712.0,-16236.0,-161.0,-11.0,-256.0,0.1066539033853917,-0.7268621134765756,-0.16366044085879358,0.6584160333580361
-4789.031582117081,804.0,-480.0,-16100.0,-171.0,44.0,-144.0,0.10466051052705203,-0.728990883670224,-0.18223202048960443,0.6514675431440917
-4789.047178268433,764.0,-324.0,-16348.0,-112.0,168.0,-124.0,0.10720287331375934,-0.7376399957754101,-0.19497121455458866,0.6374802005402488
-4789.062808275223,868.0,-476.0,-16500.0,-177.0,176.0,-471.0,0.12484034477986106,-0.740470122609361,-0.23330100398752412,0.6178102681054571
-4789.078436374664,932.0,-672.0,-16344.0,50.0,507.0,-102.0,0.14370901943243647,-0.7645823143676117,-0.23150728353040545,0.5840941533369486
-4789.094022512436,928.0,-388.0,-16020.0,-285.0,175.0,-725.0,0.16473293340667594,-0.7607644241907621,-0.2915716742284628,0.5559554931148185
-4789.109611988068,1120.0,-976.0,-16532.0,-129.0,79.0,130.0,0.15179579836788773,-0.7698115942911913,-0.28810390496035215,0.5489483444180393
-4789.1252110004425,1256.0,-508.0,-16396.0,-222.0,169.0,6.0,0.14074783447710984,-0.7809322871054041,-0.29608561185649124,0.531665421574409
-4789.140781164169,828.0,-552.0,-16200.0,-263.0,49.0,-81.0,0.12775607008471582,-0.7842708277002305,-0.31318606343201333,0.5201078205976751
-4789.156368017197,1000.0,-1256.0,-16172.0,-269.0,119.0,208.0,0.10306884963319267,-0.7981123654888501,-0.3097609995163934,0.506400619537227
-4789.171995639801,800.0,-508.0,-16348.0,-226.0,186.0,194.0,0.08370287524318941,-0.8133760457973576,-0.30448914195616184,0.48856892986545775
-4789.187578201294,888.0,-200.0,-16492.0,-228.0,229.0,-199.0,0.08200672723255993,-0.819211144586594,-0.3265445037964962,0.46425928565191554
-4789.203165054321,1004.0,-472.0,-16688.0,-104.0,225.0,348.0,0.06680568223820102,-0.8385402640732198,-0.30412263487262303,0.44709803098071976
-4789.218796014786,960.0,-740.0,-16588.0,74.0,156.0,727.0,0.047874018277594,-0.8617938655500776,-0.24666370630261192,0.4406545445893759
-4789.23436665535,904.0,-592.0,-16136.0,-65.0,154.0,462.0,0.028496002615338273,-0.8772602722013437,-0.2136268029355994,0.42891255719515314
-4789.249950408936,1064.0,-404.0,-16324.0,-7.0,179.0,513.0,0.012077851426297564,-0.8926700640416249,-0.17401449091909502,0.4155878237136092
-4789.2655420303345,836.0,-368.0,-16208.0,-33.0,188.0,190.0,0.005473749655382502,-0.9022877105785094,-0.16019873062364332,0.4002290495582195
-4789.28117442131,800.0,-600.0,-16528.0,-28.0,179.0,153.0,0.0004411360491483998,-0.9106207666383588,-0.14904186573793018,0.3854298211390894
-4789.296763658524,780.0,-800.0,-16416.0,136.0,195.0,757.0,-0.011626638990944389,-0.9249255442527312,-0.08413095030066248,0.3705395283314192
-4789.312382698059,984.0,-456.0,-16316.0,75.0,219.0,746.0,-0.0280000277028514,-0.9355053142806037,-0.021679215050104925,0.35153352192386955
-4789.327997922897,928.0,-280.0,-16296.0,-77.0,91.0,341.0,-0.04452243065313331,-0.9384016423213628,0.0035686465442648675,0.34264759683842555
-4789.343586683273,1072.0,-632.0,-16208.0,166.0,258.0,753.0,-0.053337733916818286,-0.944259252596511,0.06901693953012168,0.3174369419024706
-4789.35920882225,656.0,-584.0,-15888.0,-19.0,246.0,236.0,-0.06283047907863261,-0.9492426441559421,0.08675721258390146,0.2957429956554459
-4789.374796867371,1056.0,-684.0,-16424.0,-146.0,191.0,410.0,-0.08680270531064639,-0.9495468477141173,0.11581165740037733,0.2782332373335608
-4789.390371322632,856.0,-608.0,-16740.0,52.0,287.0,627.0,-0.10033535141640243,-0.9489340855954425,0.16656212943420334,0.24842297697602764
-4789.406002044678,532.0,-556.0,-16496.0,-38.0,156.0,96.0,-0.10769120590948826,-0.9505455161395456,0.17231221134816804,0.2348921619319584
-4789.421573877335,1180.0,-548.0,-16144.0,19.0,235.0,411.0,-0.1178471830984856,-0.9486276875568592,0.2044280716475759,0.2107764582649861
-4789.437159061432,1232.0,-500.0,-16104.0,-61.0,150.0,280.0,-0.130529714755957,-0.9454619775913549,0.22487383988144807,0.19620244298108386
-4789.452729463577,1040.0,-492.0,-16204.0,48.0,155.0,734.0,-0.14171005464610884,-0.9323245190727265,0.2839018547552983,0.17346177796421772
-4789.46830201149,816.0,-280.0,-16680.0,29.0,135.0,546.0,-0.15059164844180986,-0.9201544985095594,0.32672549747602786,0.1545584148186117
-4789.483924865723,648.0,-444.0,-16796.0,66.0,120.0,234.0,-0.15161372664906325,-0.9157747088619027,0.3447582519129394,0.13968431636520579
-4789.4994995594025,516.0,-696.0,-16500.0,110.0,94.0,250.0,-0.14841993990183538,-0.9106242287629635,0.3647432965269046,0.12528911791564482
-4789.515137195587,1008.0,-716.0,-15932.0,58.0,43.0,-245.0,-0.1422413080756534,-0.9194706406292127,0.3452941091593949,0.12293546875353742
-4789.530728340149,1280.0,-648.0,-16040.0,46.0,107.0,-278.0,-0.13853123451551858,-0.9292974495525465,0.3220699729867699,0.11613044311910693
-4789.546314954758,1272.0,-336.0,-16268.0,-39.0,169.0,-439.0,-0.14166350073548656,-0.9421301098480939,0.2838170681345488,0.10849046277205193
-4789.561944723129,812.0,-744.0,-16992.0,-20.0,12.0,-512.0,-0.13837684906683323,-0.9537797948802627,0.24116376899130304,0.11399994318598747
-4789.577531814575,824.0,-800.0,-17120.0,128.0,37.0,133.0,-0.12956879410593894,-0.9528185475126828,0.25304319350696114,0.10638555037951865
-4789.593138933182,736.0,-680.0,-16324.0,203.0,35.0,-119.0,-0.11209468608561474,-0.9579073034277037,0.24460053686954603,0.10009473889452128
-4789.608748912811,996.0,-284.0,-15952.0,114.0,176.0,-499.0,-0.10163827120387453,-0.9701706323280789,0.20195351179382864,0.08748362743372744
-4789.624294996262,1164.0,-764.0,-16044.0,-22.0,11.0,-959.0,-0.09581792327240843,-0.9835633021542514,0.1200877179741478,0.09487410725244955
-4789.639876842499,1372.0,-628.0,-16132.0,59.0,115.0,-720.0,-0.08562181183584147,-0.9905780968902871,0.057706859678580365,0.0899658693349948
-4789.655450582504,1260.0,-732.0,-16640.0,-71.0,-64.0,-553.0,-0.08678563527490282,-0.991185415721909,0.00981638546046797,0.09961608176699965
-4789.671047925949,1176.0,-1004.0,-16572.0,39.0,-75.0,29.0,-0.0833848891605615,-0.9908180253388158,0.01323222141158515,0.10560070662588057
-4789.686647415161,836.0,-772.0,-16172.0,-112.0,-50.0,94.0,-0.09366394931645866,-0.9893911029008485,0.020690011942757606,0.109106523658739
-4789.702228546143,988.0,-848.0,-16112.0,-143.0,-76.0,200.0,-0.1075405664337241,-0.9869401353452082,0.037210224390983274,0.11401576652668878
-4789.717844724655,988.0,-700.0,-16372.0,-222.0,-78.0,-206.0,-0.12409796835659598,-0.9844403424799635,0.01798793239709051,0.12309890590811616
-4789.733442783356,812.0,-1004.0,-16584.0,-238.0,-3.0,-392.0,-0.13998404554120006,-0.9817224099775458,-0.018198743833204405,0.12764945148606022
-4789.749038696289,1108.0,-788.0,-16632.0,-168.0,-228.0,-26.0,-0.15417266582941289,-0.97685820257588,-0.019505544621912094,0.1469638557614616
-4789.764701843262,996.0,-796.0,-16248.0,-101.0,-180.0,317.0,-0.16683639476951595,-0.9732756988330284,0.008640121304685553,0.15756071764634286
-4789.780294418335,1068.0,-468.0,-16040.0,-188.0,-110.0,366.0,-0.18740563079520184,-0.9681624078776826,0.038721790647647546,0.1613731837939003
-4789.795918941498,772.0,-464.0,-16136.0,-212.0,-85.0,-35.0,-0.20426301581319153,-0.9635078352185981,0.03416880973678808,0.1695929370122527
-4789.811504125595,712.0,-704.0,-16440.0,-85.0,36.0,33.0,-0.2117569867354164,-0.9624803440041224,0.03504695476936469,0.16601890535670039
-4789.827134132385,740.0,-844.0,-16332.0,-134.0,12.0,-506.0,-0.2152465310616228,-0.960814354124749,-0.009603093145701954,0.1743917669381622
-4789.842730998993,796.0,-648.0,-16132.0,-27.0,130.0,-356.0,-0.2116252987094513,-0.961548369477157,-0.04228171629328345,0.16985794820746666
-4789.858328342438,700.0,-488.0,-16404.0,-78.0,91.0,-706.0,-0.2067233379423622,-0.9570741960539093,-0.10415940776854427,0.17442838808816993
-4789.873975038528,1028.0,-376.0,-16376.0,-22.0,144.0,-1009.0,-0.19090585642131436,-0.9460480247742558,-0.19061824605503555,0.1794791717043387
-4789.889566898346,1092.0,-392.0,-16252.0,5.0,172.0,-385.0,-0.1812542689963845,-0.9418645647481508,-0.22505201788903934,0.17143401321334809
-4789.905154943466,1112.0,-272.0,-15944.0,-269.0,0.0,-807.0,-0.19054614438567774,-0.9193152169843383,-0.29461406430826653,0.1781972272302684
-4789.920887708664,1528.0,-1196.0,-16492.0,78.0,112.0,407.0,-0.18736842835307135,-0.932241494516935,-0.2624539497054281,0.1641243194695772
-4789.936506986618,808.0,-432.0,-16336.0,-130.0,12.0,229.0,-0.2006587725438495,-0.9353659601562715,-0.24583874179312779,0.15617263081508162
-4789.952100515366,792.0,-976.0,-16608.0,-66.0,-65.0,289.0,-0.2110487993954671,-0.9392779461967539,-0.22195612389166686,0.15476053479206797
-4789.967731952667,936.0,-632.0,-16324.0,20.0,77.0,542.0,-0.21473867968821814,-0.9501814826641342,-0.17849122322575525,0.13850390853446018
-4789.983437299728,672.0,-524.0,-16328.0,-131.0,-69.0,-106.0,-0.22510208124904893,-0.9452089284315249,-0.1875625577292646,0.14397715641285347
-4789.999116897583,1076.0,-580.0,-16376.0,-61.0,8.0,89.0,-0.23085082522518383,-0.9456135500923701,-0.1811505926201194,0.14038295184222238
-4790.014702320099,908.0,-636.0,-16432.0,-56.0,-75.0,82.0,-0.23738241114739014,-0.9448973561014691,-0.17356355464971615,0.1438550305260813
-4790.030306816101,1060.0,-676.0,-16268.0,47.0,38.0,494.0,-0.23864304844242276,-0.9530204769154441,-0.1329132713022405,0.1309027437516252
-4790.045902013779,680.0,-496.0,-16300.0,17.0,239.0,125.0,-0.2355445100073098,-0.9573730612390027,-0.127274440414346,0.10842888100728502
-4790.061516284943,860.0,-632.0,-16452.0,120.0,72.0,222.0,-0.22647631403834484,-0.9628153419915284,-0.10904981303162975,0.09901128563506134
-4790.077106714249,684.0,-260.0,-16344.0,249.0,92.0,-239.0,-0.20222915581793352,-0.9658622461377597,-0.12873920767759184,0.09818200664802842
-4790.092736721039,664.0,-896.0,-16588.0,110.0,87.0,-101.0,-0.19080444280056744,-0.9673737440080189,-0.13783833203535478,0.09371391696639486
-4790.108330488205,808.0,-716.0,-16236.0,-13.0,76.0,-5.0,-0.19065851796865102,-0.9677652800598974,-0.13963641407958058,0.08707102904859712
-4790.1240565776825,796.0,-884.0,-16264.0,-56.0,17.0,-33.0,-0.19463761444358654,-0.9666134341524665,-0.14313766647907553,0.08535968834649156
-4790.139697313309,888.0,-676.0,-16356.0,-14.0,100.0,-291.0,-0.1920443687585239,-0.9632061585810782,-0.16943308525099324,0.08151862438702212
-4790.155315160751,924.0,-404.0,-16440.0,-94.0,89.0,-426.0,-0.19516562266686902,-0.9553135196912471,-0.20725237073288294,0.0795796057402544
-4790.170883178711,1020.0,-880.0,-16540.0,-75.0,17.0,-165.0,-0.19964775640615554,-0.9511195971743487,-0.2218027770829689,0.07947209139802548
-4790.186465501785,968.0,-832.0,-16168.0,-17.0,41.0,210.0,-0.20139269975973306,-0.9550740691397641,-0.2051815762149791,0.07193763773043807
-4790.202039480209,872.0,-872.0,-16196.0,-53.0,16.0,101.0,-0.20584884674261417,-0.9560733941820128,-0.19737987587405603,0.06775766991244363
-4790.217629671097,544.0,-556.0,-16300.0,-54.0,61.0,-86.0,-0.20848101042116152,-0.9540024026865808,-0.2059720623929419,0.06317114432714133
-4790.233197689056,832.0,-552.0,-16552.0,-244.0,48.0,-49.0,-0.22730584623503705,-0.9487907710477068,-0.21223014296071188,0.055556200922557475
-4790.248803853989,792.0,-460.0,-16172.0,-27.0,55.0,-111.0,-0.22766475913809306,-0.9464842011536138,-0.22264117300479674,0.052605346650770574
-4790.264402151108,932.0,-928.0,-16332.0,-85.0,35.0,89.0,-0.23409222484594233,-0.946703397930484,-0.2163762082329958,0.046204362610728696
-4790.280060052872,884.0,-740.0,-16284.0,-72.0,41.0,240.0,-0.23986609474679338,-0.9497751070150853,-0.19764057508688967,0.03646513080641943
-4790.295662879944,780.0,-668.0,-16288.0,-222.0,-240.0,-12.0,-0.2619507247212535,-0.9438599041497927,-0.19425198068567,0.05269219255305436
-4790.311321020126,984.0,-940.0,-16376.0,-105.0,255.0,309.0,-0.26721616151887184,-0.9473380353177114,-0.17501038859005724,0.02274936810234306
-4790.326918125153,776.0,-480.0,-16180.0,-130.0,47.0,60.0,-0.27702786495902704,-0.9453251295528654,-0.17139984361797858,0.015429033664940058
-4790.342501878738,772.0,-572.0,-16176.0,-500.0,12.0,-69.0,-0.31738581497828966,-0.9314213710835211,-0.17789556453837546,0.008581495034852971
-4790.358078479767,908.0,-772.0,-16468.0,47.0,196.0,758.0,-0.31005273679158185,-0.9425325547650866,-0.12140437057507587,-0.02758010916075344
-4790.373641729355,660.0,-608.0,-16384.0,-133.0,72.0,64.0,-0.3197305277226722,-0.9394478969821929,-0.11776331651419861,-0.03663113131604504
-4790.389209747314,908.0,-732.0,-16356.0,-6.0,143.0,401.0,-0.3169400419957252,-0.9423993252139238,-0.08880156551818101,-0.059555046617472567
-4790.4047865867615,656.0,-560.0,-16288.0,234.0,143.0,103.0,-0.2956435916118167,-0.9487163932027427,-0.08547633963896972,-0.07229016094301952
-4790.420399427414,844.0,-576.0,-16448.0,-77.0,75.0,-122.0,-0.3018883402510274,-0.9453541999699067,-0.09701639213668133,-0.07587282963300722
-4790.43604516983,1004.0,-548.0,-16444.0,-9.0,90.0,-104.0,-0.3022253646449492,-0.9436756091025187,-0.10789953959563031,-0.08058450908995422
-4790.451602935791,960.0,-720.0,-16148.0,-54.0,17.0,118.0,-0.3053536061290569,-0.9432857820395658,-0.09824525796417652,-0.08555102520448156
-4790.467238903046,928.0,-860.0,-16292.0,-59.0,49.0,481.0,-0.3056154893010014,-0.9447239976225653,-0.059461836704427444,-0.10276201142000403
-4790.482833147049,956.0,-932.0,-16432.0,-14.0,-237.0,565.0,-0.30219534430629347,-0.9481571018607196,-0.0064203572782257235,-0.09815733840677374
-4790.498458862305,772.0,-556.0,-16232.0,36.0,64.0,473.0,-0.2945667815956159,-0.9480996471856826,0.0307027875965889,-0.11573594523994589
-4790.514050960541,684.0,-672.0,-16336.0,-40.0,36.0,101.0,-0.2966380017439356,-0.9464947933216443,0.03854861180899302,-0.12110948213902299
-4790.529651641846,860.0,-536.0,-16380.0,64.0,163.0,221.0,-0.28917697069239984,-0.9455033243846557,0.0519058074448857,-0.14037781289158813
-4790.545248031616,732.0,-660.0,-16288.0,-255.0,109.0,-206.0,-0.3128023810253948,-0.9383523700863798,0.035281732711626636,-0.14284501851651182
-4790.560873031616,860.0,-816.0,-16292.0,56.0,135.0,238.0,-0.3052809841848792,-0.9372987814615042,0.050388825258017314,-0.16042282024390353
-4790.576499462128,836.0,-736.0,-16268.0,9.0,167.0,-92.0,-0.3062378626217705,-0.9355896717347072,0.03830104672753553,-0.17153240935685427
-4790.592094182968,760.0,-576.0,-16344.0,-36.0,199.0,246.0,-0.3057610166041374,-0.9305850122551101,0.053600977592823104,-0.19403265419113033
-4790.607708930969,788.0,-824.0,-16152.0,-222.0,89.0,-404.0,-0.33049683375316896,-0.9243935566557806,0.022177089822301016,-0.189146958684035
-4790.62331032753,988.0,-984.0,-16416.0,-31.0,187.0,140.0,-0.33069932612404135,-0.92007431058212,0.028600471818499697,-0.20804622495902342
-4790.638886213303,704.0,-764.0,-16312.0,-188.0,47.0,-502.0,-0.3543674959789541,-0.9141747014264874,-0.009623873467505175,-0.19650871259280114
-4790.65446472168,928.0,-732.0,-16632.0,-146.0,84.0,-137.0,-0.3679533407890619,-0.9080789892307638,-0.020632669046496147,-0.1989401449879353
-4790.6700258255005,784.0,-664.0,-16208.0,-183.0,139.0,-159.0,-0.38457937975849255,-0.8993797501366682,-0.0345010066783671,-0.20499864937812853
-4790.685623884201,840.0,-724.0,-16296.0,-154.0,71.0,-218.0,-0.3999657066898467,-0.8921740127248347,-0.051217892098187216,-0.2035428505734764
-4790.701196432114,868.0,-732.0,-16376.0,-172.0,93.0,-294.0,-0.41769524993392004,-0.8829388759699327,-0.0742605112221744,-0.20108454927371455
-4790.716864109039,764.0,-908.0,-16400.0,-153.0,36.0,-307.0,-0.4341717097324786,-0.874501773459236,-0.09650096957789413,-0.1934661147466238
-4790.732465028763,860.0,-700.0,-16316.0,-129.0,118.0,-248.0,-0.4467821573149318,-0.8653909340090287,-0.11768505065346194,-0.19399604143561497
-4790.748104333878,772.0,-768.0,-16256.0,-214.0,97.0,-396.0,-0.46800582956817177,-0.8508178470794985,-0.14764303844054422,-0.18783255250690317
-4790.763727903366,844.0,-700.0,-16552.0,-233.0,61.0,-583.0,-0.49306278084014,-0.8317029283830141,-0.18933448442058812,-0.1712068517276612
-4790.779314756393,1092.0,-624.0,-16284.0,-134.0,89.0,-109.0,-0.5026043059585084,-0.8228618872890258,-0.19907042158466384,-0.17509481239949135
-4790.794885635376,820.0,-836.0,-16120.0,-98.0,111.0,-46.0,-0.5081026481633202,-0.8161687199348275,-0.20575747489373625,-0.1826586462632413
-4790.810469865799,764.0,-1024.0,-16156.0,-145.0,72.0,-166.0,-0.5194137997471272,-0.8056241821726985,-0.21845198961933895,-0.18291448811445735
-4790.82607793808,656.0,-644.0,-16448.0,-88.0,116.0,-481.0,-0.5302956270394774,-0.7900343930225145,-0.25591627197998373,-0.1707016916149971
-4790.841642856598,708.0,-552.0,-16460.0,-132.0,123.0,-844.0,-0.5474099356135889,-0.7612688242707993,-0.316983276871307,-0.14259642971971423
-4790.857212543488,848.0,-704.0,-16332.0,-121.0,149.0,-957.0,-0.5609407853746149,-0.7247151863445438,-0.3848444729886271,-0.10967253801662998
-4790.872768163681,864.0,-888.0,-16372.0,-115.0,90.0,-481.0,-0.5689824837659258,-0.7015664755485873,-0.41825137832717596,-0.09554683710782402
-4790.888336420059,976.0,-964.0,-16172.0,-350.0,79.0,-461.0,-0.5903437700308473,-0.6660094434102044,-0.44699509999413173,-0.09011678564747073
-4790.903951883316,960.0,-628.0,-16592.0,-155.0,62.0,-6.0,-0.5966572756271871,-0.6574020119539226,-0.4493761493455024,-0.09941713393317274
-4790.919620752335,780.0,-320.0,-16676.0,-217.0,10.0,-777.0,-0.6136797977630285,-0.6141974104923754,-0.4914836220623582,-0.06784169813952066
-4790.935242891312,1212.0,-788.0,-16636.0,-168.0,-32.0,-344.0,-0.6254873878521782,-0.5904692319670529,-0.5070522945858443,-0.054859678210210046
-4790.950830221176,1220.0,-764.0,-16216.0,-109.0,-24.0,416.0,-0.629475991464665,-0.6027791860538688,-0.48357292017736997,-0.08108304323928286
-4790.966440439224,796.0,-572.0,-16460.0,-178.0,-63.0,219.0,-0.6394948554469866,-0.6026661244562502,-0.4673130990985937,-0.09725399580782865
-4790.982041835785,880.0,-688.0,-16488.0,-131.0,-33.0,413.0,-0.6435156576081834,-0.6122119857463444,-0.44244798356074466,-0.1237895987741139
-4790.9976217746735,1008.0,-604.0,-16132.0,-28.0,-48.0,154.0,-0.6448901769811658,-0.6172219101765494,-0.431297802921698,-0.1309044629725378
-4791.013267040253,880.0,-764.0,-16332.0,20.0,-241.0,247.0,-0.6495235651842669,-0.6302932495597134,-0.4045940948116553,-0.13097013504350266
-4791.028871536255,816.0,-656.0,-16404.0,24.0,-90.0,127.0,-0.6496250508670849,-0.6372936943867468,-0.392856358173416,-0.13231750535567838
-4791.0444531440735,936.0,-656.0,-16392.0,61.0,-55.0,355.0,-0.6434492420481362,-0.6534167890864857,-0.3706184159853162,-0.14717867501822787
-4791.060067176819,1012.0,-740.0,-16496.0,43.0,-84.0,446.0,-0.6372374191573702,-0.6709976143471151,-0.34085028040285736,-0.16586669200122026
-4791.075635671616,896.0,-792.0,-16628.0,224.0,-254.0,642.0,-0.620893002063081,-0.7050080773925946,-0.29187748499759236,-0.17961910965087352
-4791.091228961945,644.0,-588.0,-16188.0,120.0,39.0,319.0,-0.6069980286106524,-0.7188990078825956,-0.27619496654664244,-0.1960967877924069
-4791.106806755066,672.0,-588.0,-16340.0,159.0,149.0,197.0,-0.589619085356017,-0.729475684705574,-0.27442559331370037,-0.21190836071682378
-4791.122423410416,576.0,-472.0,-16256.0,111.0,150.0,-195.0,-0.5821585441984786,-0.7277350672928073,-0.2965926854419148,-0.20862856993085763
-4791.13800907135,940.0,-956.0,-16476.0,83.0,160.0,-70.0,-0.5736892867172997,-0.7273140551117275,-0.31069935576369523,-0.21298069835258632
-4791.153584241867,900.0,-788.0,-16192.0,175.0,202.0,114.0,-0.5545556831458064,-0.735360913298927,-0.31679479189667287,-0.2266128445388728
-4791.169167280197,812.0,-912.0,-16216.0,57.0,146.0,44.0,-0.5456863512588964,-0.7365577660441716,-0.3221998360395788,-0.23642404485551008
-4791.1847448349,804.0,-1060.0,-16144.0,189.0,239.0,384.0,-0.5181697697896714,-0.7509160340216379,-0.31257942794113946,-0.26442257988553675
-4791.200310945511,760.0,-704.0,-16228.0,165.0,264.0,23.0,-0.4991927722818958,-0.7528108010402996,-0.3267593566847275,-0.27804819143011955
-4791.21594285965,524.0,-520.0,-16288.0,103.0,506.0,-615.0,-0.49147286517175975,-0.725877487143029,-0.3908141524377402,-0.2807500573698131
-4791.231515169144,860.0,-548.0,-16484.0,242.0,350.0,-257.0,-0.46981474768901516,-0.7184052464035229,-0.4277084522153402,-0.2832551582890564
-4791.247088193893,520.0,-472.0,-16392.0,165.0,226.0,-688.0,-0.4668190750735556,-0.6926064255964045,-0.48325704357660393,-0.2623717214252375
-4791.262659788132,1204.0,-936.0,-16456.0,179.0,134.0,-148.0,-0.4533592481385321,-0.6905475919440358,-0.5017102220707795,-0.25670268494358905
-4791.278221607208,1268.0,-1000.0,-16428.0,210.0,146.0,324.0,-0.42651937276241025,-0.7094518294527364,-0.4924327923963244,-0.26882944652192386
-4791.293783187866,916.0,-840.0,-16424.0,201.0,245.0,443.0,-0.392458367254959,-0.7295360083192739,-0.47838330723042466,-0.29138128611912123
-4791.309374332428,952.0,-724.0,-16428.0,155.0,253.0,435.0,-0.36034268021893173,-0.7459210497447577,-0.46288348763402015,-0.31542640541984024
-4791.324985980988,908.0,-1052.0,-16516.0,287.0,-15.0,733.0,-0.32109800770525976,-0.7832543111891048,-0.42167205022017007,-0.32496374492320246
-4791.340568065643,676.0,-528.0,-16256.0,367.0,58.0,561.0,-0.2772702940265259,-0.8112677394588552,-0.3947385091245848,-0.33037455770362095
-4791.356145620346,512.0,-796.0,-16292.0,196.0,-64.0,-225.0,-0.2717829579516005,-0.8099443861731619,-0.4146751359607443,-0.313318762109129
-4791.371772766113,860.0,-1272.0,-16316.0,459.0,77.0,477.0,-0.22291350399062987,-0.8346931704099773,-0.3947142005065268,-0.31272604772876494
-4791.387353897095,604.0,-828.0,-16012.0,255.0,47.0,-341.0,-0.2116811453197204,-0.8261618846173437,-0.42717069772097066,-0.3002879087313198
-4791.40292429924,676.0,-880.0,-16196.0,237.0,61.0,-676.0,-0.20942424775900012,-0.8022725953468246,-0.4823412925573242,-0.28257219378448567
-4791.418518781662,868.0,-944.0,-16440.0,295.0,120.0,-727.0,-0.2009558911107356,-0.772353653472242,-0.5414568460796724,-0.26440697348864306
-4791.434088945389,900.0,-524.0,-16488.0,210.0,37.0,-968.0,-0.20640614085890255,-0.7268217966035778,-0.609969239793261,-0.23888094839001606
-4791.449680805206,1048.0,-1172.0,-16604.0,211.0,7.0,-749.0,-0.20755563274504088,-0.6891027937686274,-0.6605349447270517,-0.21389620316992355
-4791.465287208557,936.0,-1052.0,-16444.0,194.0,-30.0,-83.0,-0.19889288814275968,-0.6883464528133633,-0.6685457848250607,-0.1991665472365671
-4791.480861186981,908.0,-1252.0,-16428.0,194.0,-131.0,103.0,-0.19279985746109754,-0.6998939776627491,-0.6633457825599061,-0.18151861544861336
-4791.496421337128,852.0,-548.0,-16308.0,374.0,33.0,103.0,-0.16606570295970524,-0.7112770135930129,-0.6631981393609062,-0.16332611604680938
-4791.512049436569,636.0,-364.0,-16388.0,308.0,0.0,-602.0,-0.15501050319228327,-0.6797717660591156,-0.7037723062541944,-0.13633279472892185
-4791.527661085129,932.0,-592.0,-16520.0,449.0,52.0,-574.0,-0.13147573141924856,-0.6487014825340665,-0.7423950761963896,-0.1036825416607576
-4791.5432114601135,848.0,-900.0,-16448.0,382.0,-59.0,-709.0,-0.11951605607287855,-0.6062151208342285,-0.783399189387683,-0.06711817696754993
-4791.5588047504425,796.0,-1380.0,-16572.0,455.0,-57.0,-184.0,-0.10003662854548938,-0.5981813973235387,-0.7944916793315266,-0.030897577870787955
-4791.574417352676,784.0,-1064.0,-16388.0,393.0,-127.0,-44.0,-0.08807385798684167,-0.5985275698282477,-0.7962385228409333,0.003458097583099168
-4791.590029001236,664.0,-1428.0,-16460.0,395.0,-165.0,144.0,-0.07856542265893203,-0.611055453395235,-0.7867410360523833,0.038435002661502723
-4791.605598449707,620.0,-1028.0,-16312.0,566.0,13.0,341.0,-0.048233443460817406,-0.6373401536031815,-0.7654964431264559,0.07406928579195111
-4791.621183872223,408.0,-948.0,-16336.0,453.0,-36.0,-562.0,-0.021508479845258815,-0.6002884722154194,-0.7921276766465022,0.10828148184541285
-4791.63675904274,800.0,-988.0,-16568.0,790.0,179.0,23.0,0.03212001689360303,-0.6035587530165233,-0.7818789270517954,0.15280863720427343
-4791.652332544327,404.0,-880.0,-16456.0,464.0,-56.0,-1261.0,0.0690661715602432,-0.5119877229557805,-0.8365776864423455,0.18230800869774869
-4791.667961597443,1204.0,-1728.0,-16632.0,1081.0,160.0,273.0,0.12408381896615843,-0.5254459994444416,-0.8024347543602487,0.2541813772356523
-4791.683531999588,576.0,-688.0,-16056.0,940.0,211.0,155.0,0.17776865468073758,-0.5289455109064509,-0.7695090330295875,0.31059748870649834
-4791.699098110199,640.0,-800.0,-15992.0,720.0,220.0,-370.0,0.23504620923525643,-0.49763093559070953,-0.7617375576378996,0.34186638435373956
-4791.714683055878,880.0,-992.0,-16236.0,698.0,317.0,-742.0,0.30709167792348313,-0.44161269964987004,-0.7634659756402812,0.35748094899970084
-4791.730280160904,928.0,-1580.0,-16556.0,750.0,137.0,-1072.0,0.3759237532383908,-0.3521339343230227,-0.7727880649527373,0.37078515438991677
-4791.745865821838,1368.0,-1680.0,-16228.0,773.0,259.0,-74.0,0.4182925995193585,-0.3293982611276481,-0.7398472934336421,0.4112834413787329
-4791.761436462402,808.0,-1372.0,-15912.0,783.0,228.0,-43.0,0.45573122038653624,-0.3055317540025843,-0.7030695334804498,0.4523854917575112
-4791.777022600174,896.0,-1500.0,-16072.0,907.0,205.0,297.0,0.4788690564303136,-0.29479660741212643,-0.6490543104624449,0.5123552372348328
-4791.79261469841,592.0,-1496.0,-16212.0,972.0,254.0,147.0,0.5095471028704119,-0.2728939722881591,-0.5891196640941154,0.5646491399292094
-4791.808237075806,500.0,-1344.0,-16460.0,992.0,250.0,-391.0,0.5625992456988128,-0.22010950883934574,-0.5362348766094213,0.5894794737438341
-4791.823870182037,544.0,-1728.0,-16768.0,1115.0,364.0,-499.0,0.6227649503065247,-0.15986618701564329,-0.46796974793740964,0.6063092725121304
-4791.839462280273,528.0,-1596.0,-16628.0,1287.0,343.0,-696.0,0.6855879809970604,-0.07907237787614883,-0.3879071334063268,0.6109375870102215
-4791.85506439209,636.0,-1648.0,-16300.0,1645.0,441.0,-743.0,0.7417246142017876,0.02064316687608565,-0.2756564794382576,0.6110907966024696
-4791.870666980743,672.0,-1788.0,-16148.0,2151.0,719.0,-225.0,0.7523731174066102,0.12449738400564128,-0.11213417445060064,0.6370722254971517
-4791.886264324188,32.0,-20.0,-16352.0,2153.0,837.0,-722.0,0.7605051323623574,0.22174152994411725,0.06862916446928095,0.6064261499414451
-4791.901858329773,932.0,-1072.0,-16864.0,1550.0,952.0,-1542.0,0.7894184450168206,0.2597430209066445,0.23860091336099618,0.5024158495716613
-4791.917553186417,1524.0,-1784.0,-16924.0,2531.0,1183.0,-837.0,0.7209700845503473,0.3537573592903614,0.4362856124366359,0.4058481641108716
-4791.933216810226,264.0,-1840.0,-17064.0,2696.0,978.0,-1670.0,0.6334106799751518,0.4085071547404495,0.6195686989996869,0.2191972678641633
-4791.948812484741,1324.0,-2412.0,-17300.0,2846.0,1029.0,-511.0,0.469279048441738,0.5009333291475802,0.7237267394443602,0.07115181695483468
-4791.9644141197205,1492.0,-2320.0,-17356.0,3234.0,1079.0,811.0,0.2432875739188143,0.6482919977298954,0.7197094464869852,-0.05046736265623517
-4791.980172872543,1108.0,-1944.0,-18084.0,4241.0,1301.0,2611.0,-0.06127886218780676,0.8282986677906922,0.5299380614095884,-0.1712654928891972
-4791.996353149414,-124.0,-1120.0,-17272.0,4784.0,1816.0,1570.0,-0.4236088026120871,0.8177500332091312,0.30379565614090837,-0.24402595117309497
-4792.012022733688,32.0,-652.0,-17792.0,5088.0,2541.0,790.0,-0.7483856367129792,0.6302530542089035,0.04041250115448805,-0.20264958961837568
-4792.0276708602905,-388.0,-1416.0,-20004.0,5882.0,2725.0,476.0,-0.9333130411153777,0.25770096823321775,-0.2329043774329146,-0.09095344538946172
-4792.043341398239,624.0,-1352.0,-21732.0,7440.0,3490.0,2182.0,-0.8129727430988435,-0.292866588399732,-0.5023206864924906,-0.03127951884470852
-4792.058950662613,-316.0,-492.0,-21088.0,7274.0,4400.0,-238.0,-0.348978373811543,-0.6315648701017986,-0.6749585712811428,0.15417793784866743
-4792.074594497681,948.0,-464.0,-20444.0,8749.0,5127.0,1529.0,0.30914837699707537,-0.7876448873348337,-0.4688015891514842,0.25351110915384784
-4792.090216875076,-196.0,-716.0,-20740.0,8401.0,5820.0,-402.0,0.8456328043840382,-0.5024709812606463,-0.1146331029841228,0.13887881350581013
-4792.105793476105,100.0,-560.0,-21072.0,8572.0,6335.0,-1011.0,0.9478090066995809,0.04615661600679199,0.30134186947607533,-0.09338485593831297
-4792.121451377869,-656.0,-596.0,-20268.0,8997.0,6242.0,-1277.0,0.531006469678617,0.5819575479568094,0.5402611102720221,-0.29576253018797327
-4792.137054443359,-1084.0,840.0,-18108.0,8633.0,5938.0,-2294.0,-0.18015796308843676,0.7498776694589464,0.5177306140636948,-0.3703803456500818
-4792.15273141861,-1132.0,4008.0,-16072.0,7696.0,5510.0,330.0,-0.7106700318220274,0.6336509401127962,0.12394296086480452,-0.27941498602672316
-4792.16833782196,-5712.0,6080.0,-15088.0,6419.0,3232.0,5355.0,-0.7639294234770513,0.2933953883540806,-0.41689982794422226,-0.3956330566303279
-4792.183945178986,-7644.0,10756.0,-12124.0,824.0,1431.0,-665.0,-0.7467863837649832,0.30832841069235933,-0.5177727050128814,-0.28134518678446685
-4792.19953751564,-5128.0,8832.0,-11080.0,-3248.0,-951.0,458.0,-0.6621601938528985,0.45609590666525845,-0.37245324559148707,-0.4634641102051541
-4792.215120315552,-4988.0,8256.0,-11232.0,-6073.0,-2180.0,4960.0,-0.2368366552885517,0.4546731164555768,-0.16186494689380665,-0.8431965932398983
-4792.230770587921,-7372.0,8068.0,-11456.0,-10093.0,-5505.0,1178.0,0.12155898171432046,0.1702525476669965,0.45601428219902407,-0.8650366803829669
-4792.246378660202,-4680.0,3296.0,-14676.0,-11435.0,-6891.0,8792.0,0.7162305711079391,-0.0705887905228078,0.6499753908874422,-0.2440552865717917
-4792.262008190155,-4840.0,3856.0,-15244.0,-12430.0,-7755.0,10560.0,0.6987765857352198,-0.22160509077089593,0.26536314064330596,0.6262466531332307
-4792.277601718903,-6292.0,4080.0,-16648.0,-15887.0,-10103.0,4944.0,0.18024149726777858,-0.2658068646934167,-0.569770373542563,0.756453194042892
-4792.293190956116,-3376.0,1812.0,-18672.0,-16677.0,-10797.0,6576.0,-0.5655516032184719,-0.06843177624524716,-0.810720801100306,0.13490833465807384
-4792.308798789978,-2800.0,1176.0,-19416.0,-16360.0,-11080.0,8150.0,-0.7290423167090444,0.13835580081725593,-0.1928078227523814,-0.6420125515231081
-4792.324449062347,-1772.0,72.0,-19792.0,-17471.0,-11289.0,7202.0,-0.14061721824410042,0.22923781741819815,0.6543667544424233,-0.7067396774478713
-4792.340072631836,-728.0,-2288.0,-20176.0,-17639.0,-12091.0,7836.0,0.6228862414023517,0.06630552935075426,0.7793170615672877,-0.016769752511467107
-4792.355655431747,-372.0,-3004.0,-20980.0,-17960.0,-12100.0,9476.0,0.6820027931964152,-0.12355655858006798,0.0406821912160971,0.7196880756424932
-4792.371285200119,-12.0,-3352.0,-20928.0,-18248.0,-11625.0,9744.0,-0.03715963687323422,-0.19360970495993535,-0.7358600139856302,0.6477997247219576
-4792.386880159378,632.0,-3496.0,-19516.0,-18333.0,-11310.0,7478.0,-0.6716515603213711,0.011205647292429021,-0.7226457253396312,-0.16291645292905013
-4792.402469158173,524.0,-2932.0,-18720.0,-19063.0,-11384.0,3934.0,-0.5956926227196023,0.32560383711807883,0.09585831312918604,-0.727972268905521
-4792.418054819107,1544.0,-2360.0,-19208.0,-19670.0,-10127.0,821.0,0.04602340982030394,0.32722910175404757,0.849728955599434,-0.4108085475372277
-4792.433680772781,1104.0,-2204.0,-19112.0,-19879.0,-9035.0,-1687.0,0.5669902205721591,-0.09344252136713115,0.7298487116048512,0.37028562373501106
-4792.449346542358,1744.0,-1356.0,-19244.0,-20039.0,-7755.0,-4515.0,0.48271154704098584,-0.5191636108008371,-0.1564111593369697,0.6877457792007162
-4792.464950561523,1436.0,-2532.0,-19000.0,-18319.0,-6951.0,-5591.0,-0.05226715102732824,-0.3909493734293783,-0.8833019711327807,0.2533857930737381
-4792.480553865433,1196.0,-2812.0,-18152.0,-16165.0,-6140.0,-4318.0,-0.5307319979555745,0.08186403126831159,-0.7355481254559559,-0.4130263694594018
-4792.496151447296,104.0,-1700.0,-16720.0,-14764.0,-5518.0,-4632.0,-0.5413999910627375,0.4944371102292087,0.04866444285310287,-0.6782696850864368
-4792.511816978455,-8.0,-1704.0,-16824.0,-13171.0,-4953.0,-4866.0,-0.14637105485515572,0.4898264980241894,0.7759163120783428,-0.36959355078882455
-4792.527460575104,-140.0,-1308.0,-15952.0,-11495.0,-4002.0,-5145.0,0.2948602224297147,0.10434001489220215,0.9287629092570338,0.1989222685106041
-4792.543086051941,-608.0,-1820.0,-15068.0,-9319.0,-3881.0,-6176.0,0.5574472322465771,-0.3956243004845736,0.5033279425068719,0.528578261394206
-4792.558667421341,-304.0,-3232.0,-14860.0,-6022.0,-2758.0,-2968.0,0.5132119124872516,-0.5845580631035852,-0.009233005234051659,0.6283471614928411
-4792.574240922928,-1488.0,-596.0,-13624.0,-6576.0,-2508.0,-6973.0,0.4220719029517563,-0.5568958435396953,-0.633771135422941,0.3317476090216934
-4792.589831352234,-772.0,-1976.0,-14108.0,-5937.0,-2058.0,-8322.0,0.19259590930962409,-0.18922744459350768,-0.9510553172835924,-0.15031158769840613
-4792.60541176796,1004.0,-3060.0,-14728.0,-2260.0,-664.0,1035.0,0.11083129804174058,-0.3140610068068123,-0.8933270484183249,-0.3017430893029334
-4792.621042251587,-1000.0,-232.0,-13924.0,-837.0,-40.0,1552.0,0.12405510518625329,-0.4390679751731773,-0.8196022194796105,-0.3465282757274651
-4792.636719226837,-964.0,-48.0,-14500.0,-193.0,479.0,408.0,0.1628728144964399,-0.4551617039479049,-0.7917636105900543,-0.3733773620650414
-4792.652319908142,-1644.0,240.0,-13776.0,1477.0,932.0,-1534.0,0.2310989758649794,-0.29191258400169634,-0.8699758237197714,-0.3232992001207478
-4792.66793513298,-1816.0,804.0,-13208.0,1873.0,1418.0,-3081.0,0.28355943709429043,0.01872307387191388,-0.9215836872327403,-0.2644371372671827
-4792.683533668518,-2244.0,356.0,-14144.0,4459.0,1410.0,1153.0,0.3835121913010562,0.0635114872646818,-0.9140935270255086,0.11540240014382787
-4792.69912314415,-4552.0,2328.0,-13488.0,2787.0,1436.0,-9327.0,0.43721895354860946,0.6725149943846386,-0.5965909242061821,0.025346363457150037
-4792.71470451355,928.0,-3164.0,-15724.0,3301.0,1585.0,-12109.0,0.23664351849807544,0.9569830324462635,0.12201904640655432,-0.11530252849283099
-4792.730318307877,3660.0,-7520.0,-16216.0,9124.0,4355.0,-5692.0,-0.4421664072237683,0.792991015227425,0.4184368938947637,0.023763078906254755
-4792.745989561081,1300.0,-2992.0,-14612.0,10062.0,5601.0,-5124.0,-0.8962079606693001,0.13872411984442948,0.38876750421365,0.16256302615863238
-4792.761584043503,832.0,-2460.0,-16860.0,10514.0,7092.0,-8967.0,-0.6749540193830976,-0.6461359735768336,0.05467693955744961,0.3520735827197907
-4792.777163267136,14552.0,-1952.0,-17400.0,8177.0,9871.0,-20623.0,0.15912524875376768,-0.6528000095605038,-0.6138368637104,0.41440995098698746
-4792.792747497559,-3956.0,1360.0,-32632.0,32767.0,16885.0,32767.0,0.39496065277047726,-0.5802397324969369,0.6047762793555683,0.37626265762607475
-4792.808335781097,-29044.0,32767.0,-3616.0,1691.0,7221.0,-32768.0,0.37942336119815456,-0.8033108739061032,-0.24216971417785488,-0.38997869477232167
-4792.824090719223,6600.0,3488.0,-25860.0,-11087.0,1651.0,-26929.0,-0.4678593098724988,-0.19938226738390818,-0.6208743146960997,-0.5965479552970822
-4792.839725494385,3980.0,-4012.0,-32768.0,18380.0,10599.0,25940.0,0.5748425457420653,-0.5835156283901598,-0.5044826954208361,-0.27306184107294534
-4792.855326890945,-31704.0,4068.0,-29612.0,10780.0,4393.0,-25920.0,0.26155472815183567,0.4500139500832438,-0.6960277909565434,-0.4945926436250843
-4792.87092924118,1576.0,-5036.0,-14444.0,14941.0,9582.0,5026.0,0.24988402892641054,0.47451831774147346,-0.6962610818391803,0.4770857827806662
-4792.886515617371,-3808.0,1596.0,-3316.0,12518.0,7690.0,-3095.0,0.1987144610913234,0.3733819416272393,0.07333910272461776,0.9031721124079317
-4792.902098417282,2804.0,-1764.0,-7276.0,3770.0,6335.0,-6022.0,0.3922645048971888,-0.07598500249952819,0.5204234842576613,0.7546616689789045
-4792.91771364212,7516.0,-3300.0,-13336.0,8297.0,7226.0,11743.0,-0.3795957993482298,0.15402791377506442,0.8075065592505913,0.4244002682168698
-4792.933380365372,-3800.0,-564.0,-16672.0,4267.0,2807.0,7233.0,-0.7141117498378916,0.33111109799295174,0.6136483034883558,-0.062012975700486764
-4792.948993682861,-3720.0,-5712.0,-24684.0,2762.0,4115.0,9338.0,-0.7082077036326847,0.5009028897021154,0.05336730367050442,-0.4946615757286287
-4792.964611291885,-1732.0,-920.0,-19512.0,4443.0,5596.0,9721.0,-0.3503497053786563,0.35359908724402445,-0.626134163200838,-0.6001489641031367
-4792.980268239975,-3068.0,4428.0,-13020.0,3584.0,4308.0,1277.0,-0.14169908202958098,0.35745239565326725,-0.8804792525057442,-0.277318302498483
-4792.9959192276,-5132.0,3616.0,-12840.0,842.0,3290.0,-12445.0,-0.14363301272588241,0.9183715163557078,-0.3675650712593585,0.0293126933581167
-4793.011503458023,1052.0,736.0,-16524.0,-852.0,2443.0,-14141.0,0.024628268817574333,0.8579335897447498,0.45684419705607665,0.2337451252516841
-4793.02717256546,2700.0,-2888.0,-18704.0,-562.0,1638.0,-5990.0,0.10841451965002791,0.5135132589713933,0.7882808518190161,0.32119110113002636
-4793.0427849292755,1692.0,-2620.0,-14960.0,-2073.0,2137.0,1049.0,0.023856776650709385,0.4880865411446343,0.6782333323858262,0.5488186671407256
-4793.058379411697,-32.0,-380.0,-13596.0,-2370.0,460.0,2435.0,-0.01826042876532965,0.5799766289730227,0.4427417981365551,0.6835739658363278
-4793.074012756348,1380.0,3552.0,-15728.0,-2215.0,71.0,587.0,0.055032001685727305,0.5904307272311832,0.2755056491424057,0.7566106478383317
-4793.089616060257,-368.0,4644.0,-18804.0,-1288.0,-354.0,-3542.0,0.3454341386043781,0.49627722537599517,0.35266612091592375,0.7141503893563808
-4793.105201482773,-1104.0,2504.0,-17440.0,-885.0,-18.0,-4371.0,0.6119458426172808,0.3134941494415393,0.4533259975021352,0.5672206307584784
-4793.120801687241,152.0,2152.0,-15948.0,-1450.0,-1928.0,-7402.0,0.905066397020412,0.03213371094015309,0.3981426345978986,0.14596124184573311
-4793.136436700821,2180.0,1584.0,-15852.0,-674.0,-837.0,-4822.0,0.9158754019117585,-0.1633738360867062,0.30971271709805714,-0.19636514640594324
-4793.152091264725,-64.0,-1404.0,-15596.0,-984.0,-275.0,-1771.0,0.8651400260112674,-0.2901776646118032,0.27525320641739526,-0.30259763830969716
-4793.1677069664,-1812.0,-4308.0,-16064.0,-738.0,344.0,2413.0,0.8802899627409625,-0.27241543399397117,0.3729058853128564,-0.10872264492011766
-4793.183324575424,-4332.0,-2856.0,-16328.0,-333.0,512.0,6080.0,0.8058343147358463,-0.08422415603978414,0.4942746049677988,0.31500787865944163
-4793.198907852173,-5944.0,84.0,-16344.0,-1310.0,1268.0,1115.0,0.6986622080165209,-0.1603973687209609,0.5464556282664408,0.4330473987138142
-4793.214487791061,-3584.0,328.0,-16032.0,-880.0,2204.0,-7.0,0.5692521927187365,-0.29155012455494095,0.6342353341865189,0.4343915363197396
-4793.230087518692,-1460.0,2144.0,-16500.0,-1387.0,2166.0,-3505.0,0.5111831411285991,-0.5952007217296579,0.5612514467886314,0.2634856932663733
-4793.245656967163,2408.0,1636.0,-17524.0,-1164.0,1641.0,-1026.0,0.3862423355370106,-0.721332853507067,0.5440376747555622,0.1857923064522016
-4793.261229753494,2160.0,1352.0,-16404.0,-612.0,994.0,-611.0,0.3081217008803996,-0.7820205535782631,0.5257610931214484,0.13069102565767882
-4793.276790380478,1888.0,1744.0,-15880.0,489.0,537.0,3151.0,0.27007974195947665,-0.6068013026445557,0.7322862517794698,0.1503527769838242
-4793.292371273041,-1532.0,3620.0,-15892.0,26.0,388.0,-1424.0,0.26286148748428234,-0.6965524097231726,0.661002291136512,0.0937792621994552
-4793.308011054993,-596.0,1272.0,-17304.0,-672.0,302.0,-2881.0,0.22055169468274655,-0.8524371668937137,0.4717477253647112,0.046496344845678696
-4793.323611497879,1192.0,1976.0,-15720.0,1452.0,2035.0,-332.0,0.24007650790720775,-0.8266907386328345,0.4806441007180912,-0.16711355856026863
-4793.339270114899,-3996.0,288.0,-15880.0,1550.0,675.0,-5531.0,0.21673036552391578,-0.9074578464096407,0.06537185724620267,-0.35394169848949575
-4793.3548464775085,-1356.0,-2304.0,-17752.0,1821.0,1127.0,684.0,0.36852433929538686,-0.8188665922605359,0.08306510585752594,-0.4321429203578302
-4793.370456695557,-1036.0,-2088.0,-16948.0,1772.0,1392.0,3979.0,0.5897703598844009,-0.632272373869574,0.3208021382525795,-0.38663749939152386
-4793.386044025421,-888.0,-52.0,-16380.0,2264.0,2296.0,4179.0,0.7186884669199773,-0.2920181149930674,0.5388903044355084,-0.3283436428766568
-4793.40164232254,-688.0,1792.0,-15660.0,2419.0,2721.0,856.0,0.6433269436300649,-0.02108128476456191,0.6296034824320522,-0.4350695093220246
-4793.417220830917,-1168.0,376.0,-16064.0,1808.0,2322.0,195.0,0.5096925227812906,0.17363631511503766,0.6700782767953857,-0.5109393949002577
-4793.432868242264,848.0,-308.0,-16456.0,1567.0,2472.0,2962.0,0.44482402960508705,0.4951206162439061,0.6254739500589035,-0.40714800239453386
-4793.448457479477,996.0,812.0,-16356.0,2271.0,3064.0,3542.0,0.27778271276452937,0.8062717884743598,0.4650651574426349,-0.23764883111935065
-4793.46405172348,-956.0,1180.0,-16372.0,1987.0,2859.0,649.0,0.03362168580126505,0.8981759462053945,0.42755776166386467,-0.09666391437817354
-4793.479620218277,-1420.0,1284.0,-16700.0,729.0,1820.0,-5011.0,-0.12094144277458826,0.659625316651895,0.7417895392778775,0.003986034295144391
-4793.495227813721,2260.0,444.0,-17544.0,132.0,895.0,-3959.0,-0.17420053362601662,0.37857762514025195,0.9051575393781647,0.08380325014248684
-4793.510810136795,3164.0,196.0,-16900.0,737.0,1077.0,-2283.0,-0.2598842228277823,0.17466452817255812,0.9451162276228083,0.09331564503066714
-4793.526420593262,-1040.0,-488.0,-15688.0,313.0,301.0,-2874.0,-0.2576261084382492,-0.06970332709557633,0.9545136668380527,0.13294319938283863
-4793.542025089264,688.0,332.0,-15712.0,-888.0,265.0,-3073.0,-0.23994152359092416,-0.29734978985712324,0.8855921513784978,0.26407898277900616
-4793.557611703873,928.0,676.0,-17540.0,-505.0,595.0,-2297.0,-0.24057233172397127,-0.4676786554092692,0.7846334528964224,0.32825595665472285
-4793.573194503784,380.0,964.0,-17516.0,463.0,1364.0,-1978.0,-0.252542907938906,-0.6375930323684789,0.6734637127392898,0.2759417191153597
-4793.588755607605,552.0,-80.0,-15140.0,510.0,1500.0,-2367.0,-0.24759208180944858,-0.7997965160048229,0.5056851112347384,0.20810156723898177
-4793.604357004166,1852.0,-1392.0,-15208.0,-148.0,1103.0,-176.0,-0.3017424350060869,-0.8205171959003105,0.46470687254750837,0.14053667405913267
-4793.619986772537,892.0,-2376.0,-15580.0,7.0,358.0,2414.0,-0.33753011010222683,-0.7113241647249043,0.6145027323243657,0.049776996882946005
-4793.635575771332,188.0,-300.0,-15904.0,680.0,617.0,3094.0,-0.3287480865052233,-0.5469165153106205,0.7617755145417224,-0.1118261433848806
-4793.651141405106,-1248.0,620.0,-16608.0,457.0,570.0,794.0,-0.33531886777998343,-0.4995521524078277,0.7755267980406555,-0.19122523226882213
-4793.666711568832,-388.0,1036.0,-16888.0,1357.0,1181.0,931.0,-0.33511862970469375,-0.4496672595194381,0.747448640595588,-0.3561114845282784
-4793.682280540466,-800.0,892.0,-16584.0,1556.0,1525.0,5.0,-0.3666406968947124,-0.43968968759889043,0.6433335161158964,-0.5083006640185582
-4793.697843551636,-1148.0,80.0,-16592.0,568.0,2288.0,-1545.0,-0.5260353041197419,-0.43042314757610295,0.4717881452986509,-0.5616393138002272
-4793.713416099548,-324.0,-488.0,-16692.0,-368.0,2273.0,-1700.0,-0.6952974925740013,-0.3612074730668572,0.3122467996885247,-0.5372080549519305
-4793.728992938995,368.0,-760.0,-16596.0,-772.0,1428.0,-2114.0,-0.8352589966398717,-0.2973095670070326,0.19028842914126623,-0.4215919159960199
-4793.744596719742,1380.0,-548.0,-16488.0,-1645.0,1090.0,-3261.0,-0.9640239310392146,-0.181908884905153,0.08250532410613555,-0.1753849750417768
-4793.760185241699,1724.0,-1188.0,-16216.0,-864.0,1230.0,-1244.0,-0.991348406988921,-0.09818382429212984,-0.02689031288128143,-0.08285640398332082
-4793.775812387466,1232.0,-424.0,-15416.0,-884.0,1148.0,-539.0,-0.9911484575439989,-0.012353045696038883,-0.12326874853946664,-0.047717428720512885
-4793.791429281235,1468.0,-120.0,-15536.0,-1092.0,548.0,-10.0,-0.9808618994260772,0.08397051347783148,-0.16551385477577912,-0.058856189120595925
-4793.807034492493,1372.0,-280.0,-16200.0,-353.0,938.0,1950.0,-0.9376198075287746,0.08940587765891062,-0.25392983944290803,-0.21998936840275374
-4793.822647809982,8.0,80.0,-16324.0,-134.0,672.0,1306.0,-0.8891724028151147,0.08374096273989715,-0.31423446267098687,-0.3218953117106042
-4793.838260889053,-272.0,-684.0,-16388.0,-373.0,293.0,205.0,-0.8716626454123027,0.11527558665904473,-0.3279494590267794,-0.3454922922979357
-4793.853846788406,508.0,184.0,-16476.0,170.0,807.0,1504.0,-0.7959371703441919,0.08280417954177016,-0.40535949951378286,-0.4419402277105246
-4793.869441747665,-432.0,120.0,-16660.0,-140.0,396.0,-470.0,-0.7977106698172987,0.12429765422212859,-0.42371892558704116,-0.4106945976195404
-4793.885020017624,620.0,172.0,-16492.0,-91.0,533.0,-874.0,-0.8049659956082238,0.1813994433620313,-0.44656840026889877,-0.3459778197279162
-4793.900611877441,944.0,4.0,-16604.0,-79.0,332.0,-1336.0,-0.8250091407173233,0.2473599524262148,-0.4434205842891839,-0.24809505657550548
-4793.916252851486,1548.0,668.0,-16316.0,-288.0,222.0,-1296.0,-0.8323714389372424,0.3209760148546578,-0.4225335693102405,-0.15999240086802566
-4793.931998491287,1780.0,-236.0,-16632.0,-149.0,34.0,-459.0,-0.8324396738456358,0.3490706249843873,-0.40990845342372695,-0.13103033233777975
-4793.947596311569,1272.0,-256.0,-16304.0,66.0,94.0,364.0,-0.8262933715044806,0.33233788155694965,-0.4285422199471768,-0.1521261398075392
-4793.9632267951965,524.0,660.0,-16240.0,-134.0,149.0,-80.0,-0.8175708151296383,0.34707137869914906,-0.43533052634576924,-0.14699235751441822
-4793.978800773621,460.0,88.0,-16448.0,-185.0,171.0,-864.0,-0.8138618326514867,0.3942435518839915,-0.41791172457381015,-0.08689493434488388
-4793.994411468506,764.0,-636.0,-16604.0,221.0,128.0,-605.0,-0.8198527500830134,0.4011213680559817,-0.4073800123015944,-0.03137900328835361
-4794.010010957718,580.0,344.0,-16372.0,45.0,147.0,-965.0,-0.8156937020763793,0.43123646070593596,-0.38304072938137845,0.04425719134480002
-4794.025573730469,620.0,-236.0,-16404.0,-25.0,-19.0,-1079.0,-0.8074545130314043,0.4672961331930152,-0.33984474647263485,0.11898353492405589
-4794.041145324707,968.0,200.0,-16292.0,-121.0,172.0,-830.0,-0.7864137819264924,0.49748734529158456,-0.3186306014481513,0.18037251645301294
-4794.056728601456,692.0,-28.0,-16524.0,-7.0,-122.0,-1751.0,-0.7529658543071693,0.5424784761978472,-0.2317804308449931,0.2916116544084717
-4794.072338104248,1300.0,84.0,-16420.0,-190.0,3.0,-1244.0,-0.7078052533495682,0.576829016895555,-0.17694010609669153,0.3673856386041141
-4794.087950229645,1260.0,-32.0,-16216.0,-153.0,238.0,-843.0,-0.6672094995674602,0.5901456325437151,-0.15370575192701114,0.42770802880127207
-4794.10352063179,992.0,-504.0,-16420.0,-5.0,-8.0,-93.0,-0.6633914984931699,0.5922185769205123,-0.1486855620609512,0.43252916723829044
-4794.119111776352,988.0,-96.0,-16268.0,26.0,175.0,421.0,-0.6776446219758983,0.5784447062162041,-0.17949979907016567,0.4171082716649972
-4794.134733200073,1096.0,-296.0,-16616.0,40.0,114.0,559.0,-0.6971832611577502,0.5627297104704009,-0.21280069273838192,0.38985463763485967
-4794.150319337845,1084.0,4.0,-16324.0,190.0,305.0,1333.0,-0.7406711863999477,0.5125896454778642,-0.288346844379828,0.3248294111098421
-4794.165938138962,684.0,148.0,-16264.0,148.0,188.0,841.0,-0.7640023477008063,0.47539046159708714,-0.3330767930795263,0.2817164738562925
-4794.181523799896,956.0,588.0,-16176.0,372.0,418.0,958.0,-0.7869818438697893,0.41077573827415237,-0.3898673070070217,0.24479859720129996
-4794.197130441666,364.0,504.0,-16472.0,266.0,336.0,-92.0,-0.7823713708645155,0.38837491766866505,-0.40385404278140224,0.2719593232572727
-4794.212722063065,752.0,-452.0,-16984.0,435.0,355.0,315.0,-0.7906602037996885,0.33881695279746515,-0.4279582054382497,0.2773288463585214
-4794.228293418884,900.0,-516.0,-16148.0,448.0,275.0,596.0,-0.8059572073810884,0.2785115462902468,-0.45283282532806995,0.26039725566697264
-4794.243923902512,908.0,-408.0,-16052.0,448.0,296.0,772.0,-0.8197706761579525,0.20922823677913494,-0.4808487260591444,0.23018272327245903
-4794.2594871521,840.0,112.0,-16104.0,381.0,413.0,810.0,-0.8224606921935458,0.13929113669178492,-0.5158783654403911,0.19500231051496345
-4794.275088787079,856.0,96.0,-16844.0,426.0,432.0,587.0,-0.8157929099393975,0.0748125552907598,-0.5455571444135154,0.17678351688674965
