programtime,ax,ay,az,gx,gy,gz,q0,q1,q2,q3
-4781.063953399658,-728.0,-448.0,16564.0,10.0,-525.0,113.0,0.9989162332796083,0.0006989541504331144,-0.045484497553803876,0.009850423130627142
-4781.079571485519,-848.0,-376.0,16400.0,-57.0,-846.0,32.0,0.9928538584261227,-0.0037161694322561944,-0.11863957265404523,0.012331167567466014
-4781.095205545425,-848.0,-444.0,16280.0,-125.0,-1067.0,-111.0,0.9776186131876479,-0.012218860974438755,-0.2100224837213379,0.0017615098830145999
-4781.110809326172,-676.0,-388.0,15936.0,-119.0,-1351.0,-134.0,0.9461755647360618,-0.019571728552733248,-0.32289613353021884,-0.01033610608924051
-4781.126440525055,-408.0,-520.0,15740.0,-66.0,-1574.0,-34.0,0.89338266969713,-0.025245757280131027,-0.4484208831922302,-0.012197079211086492
-4781.142034292221,164.0,-884.0,15380.0,138.0,-1696.0,194.0,0.8185465291149423,-0.02362495625290948,-0.5738299298001149,0.011943733985821254
-4781.157623052597,-224.0,-1352.0,15164.0,613.0,-1914.0,317.0,0.7125888028386861,0.006186460400899568,-0.698232546852546,0.06819264104317684
-4781.1732609272,-576.0,-1316.0,15412.0,968.0,-1938.0,458.0,0.5805885949546382,0.04910250356012163,-0.7984035647156835,0.15184721071529922
-4781.1888728141785,-1256.0,-880.0,16192.0,980.0,-1858.0,327.0,0.43521947934933175,0.0989121596139774,-0.8661398746978471,0.22494912076688212
-4781.204444885254,-504.0,76.0,16924.0,996.0,-1903.0,474.0,0.2685914273414903,0.13579807493102483,-0.9063837503384987,0.29645577263060113
-4781.220014810562,220.0,248.0,17168.0,759.0,-2128.0,490.0,0.07703285232828515,0.16653488485732446,-0.9237991071553214,0.3360465464883656
-4781.235572576523,748.0,-64.0,17052.0,324.0,-2319.0,373.0,-0.12300717015342537,0.2023708230347298,-0.9158810551595149,0.32415610263418726
-4781.251156806946,712.0,-700.0,16284.0,318.0,-2686.0,319.0,-0.3428608509836864,0.2426892390010329,-0.8596893956392393,0.29065875724168583
-4781.266779899597,272.0,-1220.0,15776.0,499.0,-3067.0,216.0,-0.5684847441441755,0.2792135075020024,-0.7331432565781586,0.24772137218603707
-4781.282397508621,-436.0,-1220.0,15984.0,643.0,-3204.0,252.0,-0.7640662631805639,0.2888385940674049,-0.5444476101928426,0.19066151106543883
-4781.298006296158,-12.0,-236.0,17228.0,271.0,-2982.0,127.0,-0.8850232016708725,0.3040498902918087,-0.332912042025506,0.11600503864998786
-4781.3135986328125,260.0,196.0,17900.0,-302.0,-2826.0,-130.0,-0.9296491850533547,0.3490217117535073,-0.11068955166822086,0.04103730748688976
-4781.32920384407,692.0,-24.0,17984.0,-527.0,-2735.0,-96.0,-0.9131340684687358,0.39088116250294613,0.10917631980886608,-0.03845284118334646
-4781.344804525375,552.0,-488.0,17384.0,-588.0,-2658.0,-82.0,-0.8446017534565708,0.4162344897228146,0.31692133621264135,-0.11383142921209435
-4781.360406637192,240.0,-564.0,16472.0,-735.0,-2510.0,-141.0,-0.7311311151914452,0.430350064176046,0.5013665113001675,-0.16993450505793595
-4781.376064300537,492.0,-368.0,15940.0,-796.0,-2591.0,-241.0,-0.5755186742021882,0.42040343188732837,0.6689039839225719,-0.21120291284549994
-4781.391674518585,260.0,-516.0,16044.0,-825.0,-2167.0,-450.0,-0.41830570128105987,0.3874414046545668,0.7927728940445236,-0.21545448870545184
-4781.407288789749,504.0,-336.0,16160.0,-660.0,-1836.0,-671.0,-0.27715763224378337,0.3253252196757776,0.8807267616129035,-0.2041262347440291
-4781.422876596451,588.0,-108.0,16416.0,-537.0,-1743.0,-715.0,-0.13867691424784065,0.24867145689930206,0.9391263480861723,-0.19228344262729719
-4781.438435792923,256.0,-188.0,16564.0,-348.0,-1904.0,-586.0,0.014878933858576263,0.17024930651612863,0.9657977573805692,-0.19500893004340278
-4781.454020738602,492.0,-12.0,16528.0,-223.0,-1906.0,-482.0,0.16819121448305005,0.09546094916566224,0.9600597371866813,-0.2021984757315141
-4781.469600439072,564.0,-356.0,16736.0,-65.0,-1743.0,-431.0,0.30351622978321136,0.02728393148631448,0.9278494294487886,-0.2150091198353981
-4781.4852039813995,644.0,-332.0,17252.0,108.0,-1439.0,-431.0,0.4082535018637646,-0.03150349568474118,0.8811105848164058,-0.23660250484748974
-4781.500791311264,860.0,-12.0,17548.0,225.0,-1394.0,-390.0,0.5039907986066138,-0.08160846774485361,0.8189954705680682,-0.26187736080309293
-4781.516385316849,960.0,-128.0,17564.0,123.0,-1135.0,-627.0,0.5680878306949834,-0.14602390601341567,0.7568395002425012,-0.28835257301008055
-4781.532047510147,952.0,-228.0,17192.0,119.0,-763.0,-739.0,0.5988895447798551,-0.20723867014354644,0.7034481489929909,-0.32178276589781357
-4781.547652721405,948.0,-152.0,16588.0,231.0,-668.0,-582.0,0.6258250019312552,-0.248846582041071,0.6493426150925578,-0.3532316715542072
-4781.5632791519165,972.0,-212.0,16196.0,237.0,-796.0,-314.0,0.6644992766927297,-0.27737431654513695,0.5898517721433129,-0.36548472840236523
-4781.578879594803,552.0,-204.0,16000.0,135.0,-1013.0,-48.0,0.7156320545047302,-0.30307490017346955,0.5234195350658449,-0.349354201007566
-4781.5944747924805,464.0,-336.0,15944.0,-1.0,-709.0,43.0,0.7479665717534968,-0.32210554763039373,0.47924676766375796,-0.32728666243659443
-4781.610066175461,404.0,-344.0,16564.0,-1.0,-643.0,133.0,0.7774559522847597,-0.3343436181632829,0.4401762976307718,-0.3000356883014888
-4781.625669956207,484.0,-156.0,16596.0,-14.0,-630.0,495.0,0.8123295761980217,-0.331865746850359,0.4110937486460077,-0.24695691026081687
-4781.641288995743,684.0,-224.0,16588.0,89.0,-691.0,235.0,0.8431303276678432,-0.3312299682021271,0.3660881911287513,-0.21306664461527544
-4781.6568775177,572.0,164.0,16664.0,193.0,-646.0,361.0,0.8742163476599077,-0.31667377585045636,0.3245247096082684,-0.1736295194558099
-4781.672502040863,872.0,160.0,16984.0,274.0,-491.0,331.0,0.8993501589574793,-0.29321588759478545,0.2914259447020691,-0.14235397289737073
-4781.688060283661,864.0,8.0,17392.0,299.0,-285.0,328.0,0.917446836594828,-0.2645104955053039,0.27327659659958875,-0.1168135332083891
-4781.70364689827,936.0,-48.0,17024.0,381.0,-113.0,325.0,0.9314055808046495,-0.22701779399146899,0.26739730630449315,-0.0971866546306707
-4781.719254255295,716.0,52.0,16724.0,383.0,43.0,289.0,0.9396988647824185,-0.1884521143986634,0.272933255898977,-0.08342231074293271
-4781.734854221344,616.0,156.0,16504.0,353.0,29.0,234.0,0.9459535811327177,-0.15346839643237672,0.2761869240794449,-0.07307569093889536
-4781.750437736511,680.0,204.0,16460.0,200.0,142.0,176.0,0.9460901809895396,-0.1316394557077218,0.28866317337484276,-0.06525331771887799
-4781.766028165817,684.0,120.0,16356.0,129.0,202.0,95.0,0.942874486735819,-0.11731092604081797,0.3053856857319025,-0.06297167493538068
-4781.781621456146,816.0,88.0,16608.0,116.0,294.0,56.0,0.9362591957998742,-0.10452949184302468,0.3291484488750843,-0.06444844620576845
-4781.7972066402435,960.0,-180.0,16584.0,115.0,160.0,41.0,0.9328917945078808,-0.09297524520362062,0.34165874080924136,-0.06586204026475444
-4781.812767744064,804.0,-508.0,16456.0,146.0,64.0,41.0,0.9324001019721723,-0.07943940593082306,0.3460871700270643,-0.06740253237303787
-4781.8283450603485,892.0,-124.0,16416.0,212.0,131.0,-38.0,0.9295581966815529,-0.06250138222655464,0.3549119899912608,-0.07779855758529484
-4781.843991518021,952.0,72.0,16724.0,210.0,121.0,-118.0,0.9259925185849143,-0.04824474789025536,0.3623203467707058,-0.09452124703858021
-4781.859589576721,988.0,164.0,16736.0,288.0,91.0,-156.0,0.9227286310595691,-0.029106780296822985,0.3662427931028803,-0.11657995223830944
-4781.875238895416,808.0,140.0,16580.0,354.0,86.0,-220.0,0.9181012274955506,-0.00673027683435383,0.36851480705664325,-0.1457452449478245
-4781.890836238861,788.0,-40.0,16176.0,381.0,76.0,-197.0,0.9128085749245559,0.018419146764716652,0.3691364196044025,-0.17372260733221637
-4781.90645980835,832.0,-292.0,16388.0,396.0,70.0,239.0,0.9128732727336684,0.05866313938741524,0.36778015715251444,-0.16720879166660546
-4781.922169923782,900.0,-432.0,16796.0,292.0,147.0,-16.0,0.9061521488518212,0.08348152579569823,0.37492817086467767,-0.17705362090089025
-4781.937797307968,1000.0,-288.0,17076.0,197.0,265.0,133.0,0.8977666830116694,0.1074043155815534,0.3914613511462747,-0.170989199739094
-4781.953395605087,1072.0,-272.0,16808.0,229.0,320.0,242.0,0.8876802059115172,0.13822049793859753,0.4103050693366938,-0.15674404632745467
-4781.96897315979,1084.0,-28.0,16840.0,343.0,375.0,289.0,0.8730380740158749,0.17997924931855688,0.43042263980787515,-0.14194485645559818
-4781.984721899033,980.0,-256.0,16448.0,340.0,375.0,123.0,0.8543600566396874,0.21485928148034353,0.452207828087279,-0.13932861514048905
-4782.0003089904785,988.0,-124.0,16632.0,24.0,281.0,75.0,0.8435667809879028,0.222878185183366,0.4711467637651509,-0.12938750935349957
-4782.01592707634,900.0,-152.0,16292.0,7.0,226.0,-40.0,0.8336269747908193,0.22418257549110393,0.4882308251644405,-0.12821427809152858
-4782.031508207321,920.0,-80.0,16540.0,237.0,173.0,-45.0,0.8209477438117577,0.24129746722531065,0.49872690469011177,-0.13817311163629
-4782.047093153,984.0,-28.0,16696.0,238.0,235.0,-146.0,0.8036470877432181,0.2546344538860259,0.515364959544861,-0.15398575170882983
-4782.062685966492,936.0,-56.0,16748.0,318.0,285.0,-111.0,0.7817977308663902,0.275510196913566,0.5330192079088689,-0.16963774169981635
-4782.078298091888,956.0,-132.0,16608.0,395.0,503.0,-48.0,0.7471269438964737,0.3071380094700799,0.5616480816086239,-0.1789385516539825
-4782.093929052353,856.0,-156.0,15888.0,509.0,210.0,-233.0,0.7186748022889475,0.33167986139373457,0.5727506169390416,-0.2131941108396818
-4782.109524726868,864.0,8.0,16208.0,559.0,176.0,183.0,0.6962019925628758,0.37857263996725216,0.567174393581532,-0.22427382612585048
-4782.125141859055,776.0,28.0,16600.0,574.0,134.0,371.0,0.6767153759213923,0.43358779931112074,0.5507113453395415,-0.2253329412101581
-4782.140728473663,716.0,-120.0,16848.0,468.0,112.0,316.0,0.65910222736665,0.4779616702421312,0.5354048622372769,-0.22467427345460672
-4782.1563222408295,820.0,16.0,16960.0,418.0,225.0,23.0,0.6311541719581334,0.507000952033263,0.5386569175165119,-0.23333060465532077
-4782.1719443798065,836.0,256.0,16772.0,508.0,353.0,178.0,0.5948579606704466,0.5496256339068221,0.5389659537565189,-0.23145489813535464
-4782.187549114227,876.0,664.0,16772.0,544.0,575.0,137.0,0.5432345357804592,0.5944287215347812,0.5498549759283174,-0.22183381076108313
-4782.20312166214,880.0,520.0,16512.0,575.0,679.0,124.0,0.48181683347313525,0.6387952374440939,0.5627153189875437,-0.20771291095502953
-4782.218699932098,896.0,988.0,16444.0,576.0,575.0,28.0,0.4209777451243775,0.6730940580021287,0.5734144412364912,-0.20228199567352578
-4782.234280586243,836.0,856.0,16376.0,532.0,471.0,-154.0,0.3627633258176447,0.6918371027664618,0.5891678070495657,-0.2065078395941314
-4782.249845504761,816.0,720.0,16168.0,340.0,326.0,-417.0,0.3175270415739856,0.6859811799636256,0.6175963376456437,-0.21721225179918457
-4782.265421867371,1184.0,476.0,16224.0,74.0,88.0,-567.0,0.29727129808690267,0.6582771181488012,0.6517383838132272,-0.23138299444851007
-4782.281056404114,1048.0,548.0,16332.0,-126.0,22.0,-585.0,0.2910934714393251,0.6213055972582984,0.6875149915306716,-0.23783835292377126
-4782.296720027924,1520.0,272.0,16576.0,-169.0,71.0,-474.0,0.2859191063764884,0.589443653112392,0.7178135734715744,-0.23569072564349514
-4782.312316894531,1728.0,120.0,16624.0,-119.0,116.0,-394.0,0.2765156003393489,0.5637661484651846,0.7428973637635948,-0.2319706005656786
-4782.327905416489,1692.0,-184.0,16460.0,-64.0,118.0,-190.0,0.2681484439113017,0.5521631603707594,0.7562214242381643,-0.22658643798896022
-4782.3434953689575,1704.0,-196.0,16396.0,-58.0,30.0,63.0,0.27023802544786507,0.5555290452880781,0.7549960865266312,-0.21986313645726746
-4782.359126091003,1768.0,-124.0,16172.0,-49.0,-198.0,404.0,0.2932257959152265,0.5767380511368421,0.7310884926933785,-0.21656746946871558
-4782.374710083008,1708.0,-56.0,16140.0,-143.0,-402.0,738.0,0.3391360134434635,0.6108743962320854,0.6844367570222563,-0.20824399643355257
-4782.390298128128,1628.0,148.0,15952.0,-279.0,-714.0,1075.0,0.4135264256409839,0.6495452815699411,0.6070048933247456,-0.19654994776552906
-4782.405877590179,1704.0,152.0,16052.0,-441.0,-979.0,1269.0,0.5069294074471236,0.6769515597606568,0.5019899638223312,-0.1810117063191675
-4782.421494483948,1720.0,312.0,15972.0,-731.0,-1128.0,1246.0,0.6115376566972018,0.672777450246099,0.38505785352305427,-0.15850125022179132
-4782.437059879303,1724.0,332.0,16116.0,-920.0,-1265.0,1493.0,0.716179296018864,0.6448850804581426,0.23831862522470287,-0.12006115869600324
-4782.452692270279,1720.0,176.0,16316.0,-978.0,-1424.0,1217.0,0.8001997776232698,0.5841699825548715,0.0894761098480609,-0.10207729003048976
-4782.468271017075,1684.0,192.0,16364.0,-939.0,-1282.0,1139.0,0.8559580272084016,0.5085450710308154,-0.04911168662673903,-0.07940912179618272
-4782.483901262283,1836.0,0.0,16656.0,-834.0,-1260.0,1221.0,0.8835205175646856,0.4259920641123597,-0.18897626861208858,-0.047013043477027686
-4782.499496459961,1660.0,176.0,17056.0,-889.0,-818.0,912.0,0.8991068467954759,0.33591497804563486,-0.27982654616562974,-0.021566400513571296
-4782.515096664429,1216.0,92.0,17044.0,-1127.0,-524.0,156.0,0.9142901200705694,0.24105819534773165,-0.3213579177973973,-0.051900014122926
-4782.5306804180145,888.0,44.0,16956.0,-1292.0,-205.0,-272.0,0.9282867789577292,0.14353215439231154,-0.3237662128468129,-0.11339142862940661
-4782.546264410019,652.0,104.0,16288.0,-1308.0,-56.0,-1079.0,0.922432982319224,0.06665694637954507,-0.29835944240736534,-0.2359150011240968
-4782.561865091324,388.0,176.0,15700.0,-1145.0,-193.0,-1647.0,0.8767712948595336,0.013127166453437023,-0.27623828068895895,-0.39343638150690696
-4782.5774974823,328.0,300.0,15304.0,-1024.0,-336.0,-2260.0,0.7740374496063305,-0.021778295574490607,-0.2578366921938894,-0.5778511682148885
-4782.593127012253,336.0,360.0,15528.0,-376.0,-408.0,-2325.0,0.6333065111911698,-0.015082518564341424,-0.2648744698496617,-0.7270054303363118
-4782.608739852905,980.0,-220.0,16584.0,-245.0,-386.0,-2345.0,0.4653120057744953,0.001058080355310284,-0.2677151456051828,-0.8436896458779576
-4782.624317646027,1664.0,-840.0,17688.0,-476.0,-619.0,-2081.0,0.2922541930996396,-0.015007342991725337,-0.25262741173160136,-0.9222481537600382
-4782.639921426773,2244.0,-1860.0,17804.0,-877.0,-992.0,-1628.0,0.13596727153132906,-0.08006104347111853,-0.2057677751076809,-0.9657964346164654
-4782.655498981476,2448.0,-2372.0,16848.0,-1071.0,-1519.0,-907.0,0.024389937730248508,-0.20127142914848037,-0.13733617763944286,-0.9695533595720404
-4782.671097755432,2244.0,-2556.0,15752.0,-1225.0,-2094.0,-177.0,-0.03636327161341836,-0.370551551603004,-0.040096656866654264,-0.9272332598598331
-4782.686669826508,2144.0,-2368.0,15472.0,-1269.0,-2373.0,464.0,-0.04682628192496423,-0.5447357573417075,0.08291707752140734,-0.8331836605753555
-4782.702250003815,2128.0,-2256.0,15952.0,-1292.0,-2023.0,982.0,-0.021642258265076392,-0.6625603600754694,0.22612868787130172,-0.7137304802482904
-4782.7178502082825,2332.0,-2532.0,16792.0,-1426.0,-1470.0,1475.0,0.016411639770677392,-0.7053257399183789,0.39360166023884324,-0.5893419989665213
-4782.733434438705,2320.0,-2376.0,17308.0,-1788.0,-1173.0,1910.0,0.04355317485330977,-0.681531867088206,0.5834846922418321,-0.43950318431487523
-4782.749022245407,2384.0,-2204.0,17200.0,-1702.0,-999.0,2090.0,0.07116568556507132,-0.6012161021984445,0.7461785765844247,-0.2769335218094862
-4782.7646560668945,2360.0,-1716.0,17148.0,-1653.0,-1055.0,1953.0,0.09754672101400966,-0.4955159305888628,0.8574109311506425,-0.0989701717461205
-4782.780279636383,2380.0,-1120.0,16680.0,-1564.0,-972.0,1781.0,0.11519691291046716,-0.37467446455649134,0.9170344118894546,0.07346158367314873
-4782.795909643173,2416.0,-816.0,16968.0,-1361.0,-536.0,936.0,0.10638240073900306,-0.30649198991006393,0.922983246432392,0.20699606696528702
-4782.811493635178,2296.0,-940.0,16820.0,-898.0,-31.0,146.0,0.08196558848201543,-0.3015534359974244,0.907506534656016,0.2806760714766639
-4782.827082633972,1752.0,-1008.0,16452.0,-479.0,180.0,-386.0,0.06446005960028997,-0.3394339412817464,0.8855001028869046,0.310675180871514
-4782.8426604270935,1576.0,-992.0,15880.0,-324.0,236.0,-376.0,0.04676511714863825,-0.3762826395867768,0.8658902627570341,0.32627971408936285
-4782.858244419098,1356.0,-1084.0,15744.0,-318.0,255.0,-283.0,0.025085096815359996,-0.40584701967743697,0.8477681688776799,0.34051147759582434
-4782.873824596405,1392.0,-1280.0,15612.0,-544.0,-190.0,-267.0,0.02776736551853229,-0.4204950096698182,0.8204456434313656,0.3863701158596927
-4782.889422893524,1608.0,-1476.0,15520.0,-699.0,-270.0,-420.0,0.035513145862620325,-0.4419097463580158,0.7785903514768552,0.4441302254202944
-4782.90499329567,2024.0,-1720.0,15216.0,-734.0,-347.0,-251.0,0.04040345788090016,-0.4465460931593754,0.7373202573592014,0.5052949488794896
-4782.920729637146,2192.0,-2092.0,15600.0,-659.0,-551.0,86.0,0.04625700760594165,-0.41782121861272975,0.7076170944244651,0.5679469748159548
-4782.936321020126,2264.0,-2360.0,16004.0,-530.0,-809.0,264.0,0.06357011718368688,-0.3621293054327762,0.6850343065523573,0.6289270269231225
-4782.951950550079,2332.0,-2460.0,16228.0,-375.0,-995.0,282.0,0.09529990907415399,-0.29134230555408663,0.6647150571362326,0.681315992136734
-4782.967554330826,2476.0,-2216.0,16544.0,-258.0,-1141.0,274.0,0.13789896453880326,-0.2085436389116144,0.6432337071851891,0.7237014744972033
-4782.983215808868,2644.0,-2100.0,16552.0,-288.0,-1271.0,246.0,0.18723950364702818,-0.11707943550686477,0.6100365488350296,0.7609790950747957
-4782.998885154724,2720.0,-1852.0,16264.0,-203.0,-1236.0,403.0,0.22276027958585395,-0.01668593179113731,0.5765462323605444,0.7859350351460068
-4783.014489173889,2856.0,-1916.0,16272.0,-135.0,-966.0,579.0,0.2303444251612082,0.0757532796068018,0.5465190295650533,0.8015733508227669
-4783.030093431473,3152.0,-2084.0,16480.0,-75.0,-566.0,814.0,0.20014470280583552,0.15211321820232473,0.5223804774601968,0.8148142754980134
-4783.045706987381,2948.0,-2656.0,16464.0,-127.0,-512.0,1056.0,0.14928398210132715,0.2332105708375128,0.48763269549967275,0.8279743212306377
-4783.061358451843,2876.0,-2760.0,16296.0,-63.0,-134.0,1231.0,0.0669060562422385,0.29272360651519685,0.4534600677151756,0.8391724714351604
-4783.076942443848,2696.0,-2684.0,15976.0,78.0,-140.0,1306.0,-0.02506337821319755,0.35275261640295363,0.4220488809504359,0.834752754282307
-4783.092538118362,3000.0,-2540.0,15492.0,277.0,-303.0,1437.0,-0.1261014156569226,0.42350614996041563,0.39514611009033734,0.8053573899800641
-4783.108108520508,2820.0,-2496.0,15148.0,528.0,-463.0,1559.0,-0.23667191309141114,0.498412712898591,0.3754368631276986,0.7447270204441033
-4783.12372303009,3216.0,-2452.0,15496.0,690.0,-678.0,2094.0,-0.3731694585401489,0.5850279772588705,0.3363381281378498,0.6366816194912289
-4783.139308452606,2852.0,-2804.0,15936.0,904.0,-570.0,2450.0,-0.5247436141093583,0.6418557409162685,0.2726285409067439,0.4881997808145111
-4783.15491771698,3048.0,-2860.0,16152.0,1008.0,-458.0,2612.0,-0.6617322044038817,0.657398007850345,0.18458607594559076,0.30962288270763483
-4783.170532464981,3084.0,-2944.0,16048.0,1144.0,-394.0,2775.0,-0.7697092591196542,0.6250956499357679,0.07636819359269376,0.10474246447474012
-4783.186160802841,3172.0,-2796.0,15648.0,1338.0,-314.0,2911.0,-0.8350009265792762,0.5365437650354536,-0.047301403768965904,-0.11250252448196754
-4783.201797485352,2880.0,-2516.0,15236.0,1535.0,-349.0,3205.0,-0.8372346380137238,0.38935661004047206,-0.17851020337651283,-0.33996131900305443
-4783.217389345169,2616.0,-2440.0,14992.0,1681.0,-579.0,3421.0,-0.7600810481682528,0.18563018771532144,-0.286411662272092,-0.5529797404415118
-4783.232988357544,3024.0,-2076.0,15152.0,1562.0,-581.0,3672.0,-0.5874370242826096,-0.035785497601547984,-0.3608292545207648,-0.7234911124163113
-4783.248593330383,3264.0,-1820.0,15832.0,1912.0,-491.0,3948.0,-0.3244232718990117,-0.2698469273584024,-0.41415677561583975,-0.8064777378558319
-4783.2641751766205,3712.0,-1980.0,16172.0,2045.0,138.0,4078.0,0.014675289772101936,-0.432368422776452,-0.4327207013705305,-0.7909456223162907
-4783.279779911041,3424.0,-2240.0,16412.0,2254.0,274.0,3984.0,0.3576053929153281,-0.5208047832086804,-0.40617438869949374,-0.6602296015095244
-4783.295362472534,2620.0,-2524.0,16340.0,2475.0,236.0,3775.0,0.6475351537785661,-0.5243583155400758,-0.34392702637397776,-0.43296741456430227
-4783.3109476566315,2352.0,-2108.0,15660.0,2551.0,135.0,3934.0,0.8487267012399111,-0.45628014661808614,-0.23371984820479544,-0.12979386333615248
-4783.32656621933,2772.0,-1804.0,15756.0,2594.0,269.0,4358.0,0.9205760680669994,-0.3197682559262045,-0.06357216652465356,0.21505009892482788
-4783.342169523239,2844.0,-1756.0,16144.0,2599.0,1078.0,4487.0,0.8304997070307247,-0.1414268881342414,0.17883884093487776,0.5082178085305695
-4783.357771396637,3264.0,-1572.0,16712.0,2710.0,1372.0,4461.0,0.5832807494440653,0.05782389256399759,0.4101007043471776,0.6987541606821858
-4783.373360872269,3656.0,-1408.0,16928.0,2886.0,1504.0,4270.0,0.23045573475424894,0.24076554362866684,0.5803859642782206,0.7430169848589678
-4783.388972759247,3488.0,-1100.0,16888.0,3244.0,2133.0,4016.0,-0.1853899580171936,0.33358502574080373,0.6733973464645404,0.6331568587975701
-4783.40456366539,2624.0,-500.0,17372.0,3355.0,3107.0,3431.0,-0.5864308314655539,0.27668197333199107,0.6339925274506999,0.42142548650551304
-4783.42015337944,1716.0,196.0,17376.0,3438.0,4533.0,2613.0,-0.8919925669000192,0.06888014890913421,0.4082049240386768,0.18158613843558719
-4783.435780763626,-60.0,1336.0,17112.0,3180.0,4719.0,1750.0,-0.9822870500613056,-0.16965627416354034,0.07138846896000417,-0.03510821012741247
-4783.451414108276,-1100.0,2212.0,16816.0,2758.0,4218.0,1275.0,-0.877742817279317,-0.3506098632209692,-0.2549882758297589,-0.2040128665454892
-4783.467012643814,-808.0,2740.0,17120.0,2270.0,4001.0,870.0,-0.6515757820443393,-0.4373892931606529,-0.5324830252641477,-0.31717729156935714
-4783.4826810359955,48.0,2612.0,17408.0,1989.0,3754.0,292.0,-0.36853450261706544,-0.43127244920889235,-0.7403619615989859,-0.36062523587716017
-4783.49826169014,360.0,1640.0,18072.0,1817.0,3771.0,-711.0,-0.07394069069229621,-0.30478460874450103,-0.8866754108262872,-0.3397732072551371
-4783.51383805275,348.0,-228.0,18736.0,2064.0,3964.0,-1396.0,0.22806738037319424,-0.08560013959813856,-0.935487074515902,-0.2559723022597698
-4783.52941608429,716.0,-992.0,19404.0,3037.0,3908.0,-1651.0,0.48510216408704926,0.17929267583521122,-0.8535008202695868,-0.06376814713517948
-4783.544999361038,900.0,-1288.0,18872.0,3551.0,3971.0,-1533.0,0.6453347594342099,0.419439029088263,-0.6130571348084571,0.17825515028725183
-4783.560573577881,12.0,-1396.0,17776.0,3632.0,3671.0,-1179.0,0.6600840083866215,0.5717786646118628,-0.27819838891778165,0.3999548936698689
-4783.576184988022,-892.0,-864.0,17220.0,3229.0,3158.0,-464.0,0.5502524103086511,0.6123793040976052,0.036916571871043254,0.5664371453071758
-4783.591936588287,-1588.0,532.0,17132.0,2214.0,3053.0,-109.0,0.4060782238871173,0.5388043551461718,0.28385974968331895,0.6813325072752111
-4783.6075665950775,-1452.0,1604.0,16736.0,1213.0,3129.0,-64.0,0.26425982262007847,0.37808797530545735,0.45091359416085447,0.7641290203095057
-4783.623145580292,-1332.0,1624.0,16340.0,706.0,2985.0,-17.0,0.12040951242733788,0.18787077655436304,0.5480074215378696,0.8061600254126267
-4783.63876748085,-1596.0,1716.0,16096.0,676.0,2920.0,-390.0,-0.00278577203752839,-0.028261715748047336,0.6115933125079771,0.7906624659060599
-4783.6543405056,-1772.0,2280.0,16988.0,751.0,3122.0,-447.0,-0.13157660352746406,-0.25767171939654904,0.6364297678941788,0.7150175053560328
-4783.6699731349945,-2196.0,2732.0,17148.0,633.0,3510.0,-878.0,-0.245252049635912,-0.507329816358948,0.5863676893983737,0.5819285372038328
-4783.685564756393,-2340.0,2628.0,16580.0,539.0,3578.0,-1337.0,-0.3190432860592136,-0.7288120506823645,0.45288841242112277,0.40241329786101765
-4783.701189756393,-2600.0,2260.0,15660.0,619.0,3579.0,-1612.0,-0.3444485024088869,-0.8838103375927372,0.2573267020409334,0.18443829528930114
-4783.716790676117,-2864.0,1912.0,15368.0,1016.0,2949.0,-1608.0,-0.2930375512685425,-0.9541770053492687,0.05826674423953154,-0.016739848415173564
-4783.732388973236,-2884.0,1824.0,14972.0,730.0,2516.0,-1367.0,-0.239252217486413,-0.945175287720709,-0.11719533104556401,-0.18885789973159656
-4783.748011112213,-2944.0,1688.0,15044.0,573.0,2103.0,-928.0,-0.18195870336934794,-0.8940437847470942,-0.24201555699617355,-0.33015937272031043
-4783.763575792313,-2720.0,1600.0,15512.0,470.0,1987.0,-598.0,-0.11854784172914322,-0.8175982690671697,-0.32818099439056203,-0.45801388031428897
-4783.779156923294,-2552.0,1400.0,16120.0,422.0,1972.0,-276.0,-0.04233748317838651,-0.7238327385713819,-0.37920991328491,-0.5748682855722902
-4783.794776201248,-2168.0,1212.0,16400.0,564.0,1927.0,-427.0,0.035082673478651225,-0.6053740261830285,-0.4346663624715226,-0.6658503193513655
-4783.8103721141815,-2084.0,1204.0,16844.0,806.0,1732.0,-157.0,0.13241820768212506,-0.48939182810274445,-0.4778172551595218,-0.7173923107563446
-4783.825993061066,-2440.0,1636.0,16964.0,757.0,1695.0,-113.0,0.22542687669661876,-0.36490996687432925,-0.5037907808059809,-0.7498121688219548
-4783.84158039093,-2668.0,2276.0,17228.0,374.0,1658.0,-318.0,0.2862021836540806,-0.23231062570487843,-0.5000079690718869,-0.7836530572395227
-4783.857177972794,-2764.0,2688.0,16412.0,160.0,1747.0,-612.0,0.3196583867494594,-0.08093417510970193,-0.4733919898201558,-0.8168036477968
-4783.872760295868,-2656.0,2804.0,15996.0,76.0,1451.0,-693.0,0.32752966544328105,0.0528399964470288,-0.43872166097327653,-0.8351380468059995
-4783.888369321823,-2848.0,2564.0,16192.0,69.0,1305.0,-556.0,0.3341037996324567,0.16996529463472293,-0.40059392771665103,-0.8360687500244426
-4783.903994560242,-2872.0,2280.0,16500.0,-77.0,1368.0,-480.0,0.34530163671387565,0.2820435678146946,-0.3449814179253518,-0.8259576422694388
-4783.919646501541,-2952.0,1852.0,16696.0,-187.0,1455.0,-545.0,0.35118693627572384,0.39395638023781254,-0.27151801669710995,-0.8048254921832798
-4783.935289382935,-2728.0,1624.0,16584.0,-39.0,1303.0,-536.0,0.3432024226111015,0.4931369579364792,-0.20870017283096953,-0.7716685011657204
-4783.95086979866,-3012.0,1356.0,15960.0,127.0,1088.0,-556.0,0.31832057855592333,0.5768991880389638,-0.1597287745190977,-0.7350823455222102
-4783.966450452805,-2628.0,1992.0,15868.0,252.0,890.0,-404.0,0.2910385828152001,0.644006810448528,-0.13027920523970507,-0.6953985189018916
-4783.98203420639,-2648.0,2212.0,16164.0,498.0,848.0,-559.0,0.23764891659196172,0.7109142208022282,-0.10699857002286355,-0.6532038495882354
-4783.997657299042,-2668.0,1996.0,16160.0,32.0,719.0,-535.0,0.21127009581187634,0.7551611287630321,-0.06050963764842644,-0.6176044041072245
-4784.013285398483,-2468.0,1872.0,16208.0,-136.0,764.0,-1020.0,0.1682711898031015,0.7941888178639446,0.02797956445932436,-0.5832375778658171
-4784.028870820999,-2324.0,1436.0,16488.0,-147.0,305.0,-1190.0,0.11648747386469582,0.7999249007373345,0.12172904127047761,-0.5759625527101201
-4784.044501781464,-2256.0,740.0,16616.0,44.0,227.0,-1224.0,0.04919647571034502,0.7940304950162993,0.20606706583875206,-0.5697645514933861
-4784.060091257095,-2272.0,540.0,16484.0,272.0,81.0,-1100.0,-0.025684572201433185,0.7755726617782662,0.26779769532045633,-0.5710619436051193
-4784.075707912445,-2540.0,776.0,16404.0,406.0,82.0,-832.0,-0.09624203434183762,0.7567532371600559,0.30268038817376364,-0.57135504853681
-4784.091304302216,-2428.0,884.0,16352.0,435.0,288.0,-664.0,-0.16526058477327635,0.7478309192443964,0.3215234989259552,-0.5568307597294595
-4784.106899499893,-2620.0,1052.0,16408.0,325.0,307.0,-451.0,-0.21669568074890508,0.7442074608313817,0.33019603763073885,-0.5386731977002714
-4784.122489690781,-2612.0,1144.0,16276.0,100.0,237.0,-365.0,-0.24701951121479288,0.7423209288480234,0.34442448684990157,-0.51895353600452
-4784.1380825042725,-2768.0,1036.0,16196.0,-126.0,37.0,-198.0,-0.24890833094507578,0.7405490190477417,0.3620498931526554,-0.5084797616835058
-4784.153660535812,-2556.0,1220.0,16212.0,-144.0,-33.0,-194.0,-0.24713678370465186,0.7358654190011527,0.3815767475356965,-0.5018213636329739
-4784.169263839722,-2316.0,1112.0,16184.0,-138.0,241.0,-305.0,-0.25951894819817295,0.7387153263634857,0.4017193133886797,-0.4749433391177635
-4784.184885263443,-2112.0,1140.0,15976.0,-48.0,-176.0,-494.0,-0.2704758019380864,0.7143841715597286,0.43905457021384586,-0.47300019066085447
-4784.200494289398,-2008.0,1240.0,15832.0,50.0,-291.0,-598.0,-0.2866764820290212,0.6770796148662347,0.4803027732747315,-0.4782144244673696
-4784.216077804565,-1860.0,1312.0,15988.0,179.0,-341.0,-559.0,-0.30579010977503684,0.6337729085399314,0.513461590831033,-0.49110233547181553
-4784.231652259827,-1892.0,1256.0,16320.0,171.0,-310.0,-548.0,-0.3243579403132246,0.590355796176384,0.543795268691359,-0.5005583544658937
-4784.247277259827,-1940.0,1132.0,16424.0,158.0,-201.0,-555.0,-0.34675486616304857,0.5499282616507147,0.5703204913717262,-0.5020702211360301
-4784.262872457504,-1920.0,852.0,16368.0,163.0,-228.0,-536.0,-0.36625189717077633,0.5075665958336278,0.5949219792649532,-0.5042851744798178
-4784.2784588336945,-2008.0,740.0,16448.0,319.0,-341.0,-655.0,-0.39059258122261953,0.44719741104301614,0.6192135013141981,-0.5138351397486228
-4784.29438328743,-2044.0,532.0,16200.0,468.0,-285.0,-820.0,-0.4286981946292431,0.3727143110728229,0.6375171240822806,-0.5204553936169715
-4784.310014486313,-2064.0,432.0,16224.0,534.0,-312.0,-926.0,-0.46862173720284517,0.28564009813638863,0.6519011429301311,-0.5232860609685781
-4784.325622081757,-1912.0,468.0,16020.0,656.0,-295.0,-813.0,-0.5031312244372381,0.19814601471761203,0.6512587080830108,-0.5324088870350128
-4784.34122300148,-1756.0,428.0,16028.0,623.0,-324.0,-554.0,-0.5197152352173776,0.12383092493344772,0.6440444745245093,-0.5475113616606706
-4784.356858253479,-1760.0,352.0,15960.0,604.0,-410.0,-189.0,-0.5111849173434209,0.06605225957526406,0.6343251298643737,-0.5761585796533341
-4784.372468709946,-1724.0,288.0,16096.0,475.0,-275.0,238.0,-0.4861269516762889,0.044140599905123264,0.6203585726965561,-0.6139115861228116
-4784.388102054596,-1656.0,492.0,16600.0,266.0,-553.0,438.0,-0.4328587638833602,0.02687799473004171,0.626393565987192,-0.6477205913189039
-4784.403714179993,-1596.0,792.0,16516.0,75.0,-482.0,495.0,-0.37805197920505085,0.02381588688510069,0.6379006085881785,-0.6705164562587943
-4784.419280052185,-1676.0,1084.0,16392.0,-66.0,-430.0,382.0,-0.33123689492414804,0.02207172414440139,0.6542001165468442,-0.6795713104188535
-4784.434875249863,-1772.0,948.0,16216.0,-119.0,-463.0,108.0,-0.2979281191158574,0.004215621341886757,0.6737042005786495,-0.6762719234889706
-4784.450450897217,-1912.0,796.0,15916.0,-78.0,-474.0,-114.0,-0.27653114648286087,-0.02840602840321695,0.6899268016984879,-0.6683746186633103
-4784.466035366058,-1944.0,764.0,16196.0,126.0,-552.0,-182.0,-0.25328287646634173,-0.0745003206435108,0.6944088234317223,-0.6693981421046231
-4784.481649160385,-1900.0,636.0,16588.0,231.0,-625.0,-212.0,-0.22589084648643512,-0.12871993708101234,0.6919612204420088,-0.673494003444654
-4784.497357845306,-1720.0,528.0,16740.0,302.0,-592.0,-311.0,-0.20462878499077508,-0.18785345545384,0.6808913210496611,-0.6776615294868807
-4784.512962579727,-1652.0,1056.0,16996.0,280.0,-410.0,-361.0,-0.19676502501051,-0.2381919484381571,0.664683002867546,-0.6802533545164107
-4784.5285675525665,-1664.0,1528.0,17012.0,237.0,-190.0,-447.0,-0.20715079552700352,-0.27913419817968915,0.64376987696464,-0.6817132775823307
-4784.544163942337,-1856.0,1128.0,16768.0,180.0,-122.0,-616.0,-0.23221386486322912,-0.3236959578321198,0.6191574582465662,-0.6767138906111504
-4784.55980348587,-1972.0,900.0,16464.0,167.0,-232.0,-670.0,-0.25404982236392254,-0.37618720308841946,0.5937763039614534,-0.6643580185737563
-4784.575427532196,-1984.0,532.0,16464.0,240.0,-359.0,-1022.0,-0.2855262286528193,-0.4531246295250473,0.5515960571210098,-0.6394486942966122
-4784.591053247452,-1960.0,312.0,16528.0,348.0,-288.0,-676.0,-0.2949233826868254,-0.5090798236801399,0.5112525460055249,-0.6264812572369796
-4784.606637001038,-1752.0,284.0,16508.0,337.0,-337.0,-488.0,-0.2911202009065894,-0.5569112024901277,0.478900125374927,-0.6129874477352584
-4784.622217655182,-1604.0,420.0,16328.0,357.0,-336.0,-484.0,-0.28514423470451644,-0.603040227584746,0.44394734182533946,-0.5982858907040418
-4784.637796640396,-1628.0,672.0,15876.0,301.0,-306.0,-70.0,-0.26095193730563127,-0.6287087510873515,0.43179786701191814,-0.591760082099645
-4784.653373003006,-1788.0,1004.0,16008.0,198.0,-317.0,128.0,-0.2314284214242913,-0.644325813796114,0.43551119835636526,-0.5844785090482272
-4784.6689331531525,-1788.0,1192.0,16212.0,121.0,-229.0,121.0,-0.20971560202751485,-0.6535938472037568,0.4405897245709362,-0.5785457144998448
-4784.684530258179,-1840.0,1220.0,16160.0,31.0,-133.0,137.0,-0.1959188966247595,-0.6554616398325066,0.44917089347428035,-0.574657579005911
-4784.700150489807,-1872.0,1220.0,16288.0,-14.0,-137.0,153.0,-0.18367525489619702,-0.6559377055529938,0.4608569751099416,-0.5688760635368706
-4784.7157871723175,-1884.0,1176.0,16200.0,-28.0,-231.0,180.0,-0.16702125361237222,-0.6594521470969401,0.4760635062009333,-0.5573062933384668
-4784.731413125992,-1876.0,1260.0,16304.0,-63.0,-319.0,105.0,-0.15224251010860124,-0.6693468265657793,0.48957099935753323,-0.5376962715792432
-4784.747014284134,-1696.0,1400.0,16312.0,-39.0,-378.0,237.0,-0.1271714980449313,-0.6758863726884006,0.5098512179676584,-0.516775344647962
-4784.762645244598,-1564.0,1376.0,16560.0,-28.0,-412.0,-133.0,-0.11642503371896866,-0.699544510827265,0.5074480203525112,-0.48946827837490847
-4784.778239965439,-1492.0,1204.0,16648.0,-256.0,-7.0,-165.0,-0.13876866191466491,-0.7042690967405648,0.508176022296354,-0.4759258641949374
-4784.793845176697,-1504.0,1156.0,16820.0,-27.0,-177.0,-194.0,-0.1406224629862179,-0.719679225499727,0.49935762944612194,-0.46144240507538137
-4784.809448719025,-1524.0,1016.0,16860.0,13.0,-128.0,-153.0,-0.1403907738228085,-0.7315226544507889,0.4906957089856468,-0.45208711310297073
-4784.825019836426,-1428.0,724.0,16384.0,126.0,-168.0,-111.0,-0.1295232236271234,-0.7442618529822538,0.48056956233387965,-0.44536605673859303
-4784.840656042099,-1452.0,752.0,16372.0,256.0,-292.0,-110.0,-0.10487328383351241,-0.7626219880830106,0.46646296177811025,-0.4356852108110686
-4784.856229305267,-1580.0,860.0,16164.0,350.0,-310.0,19.0,-0.06818710829254433,-0.7761693717246545,0.4568562960276146,-0.4291782257281755
-4784.871834516525,-1736.0,996.0,16080.0,375.0,-264.0,122.0,-0.027666938969796922,-0.7827308743021922,0.4522413020299702,-0.42666699384930706
-4784.887428998947,-1744.0,1124.0,16340.0,410.0,-225.0,145.0,0.014612426167108726,-0.785635573488845,0.44699878742112614,-0.4274988967405731
-4784.903018712997,-1852.0,1196.0,16076.0,406.0,-294.0,196.0,0.06117740084848108,-0.7875483404551498,0.4444104170472896,-0.42252138205257483
-4784.91867852211,-1864.0,1408.0,16168.0,404.0,-321.0,122.0,0.10580009886221965,-0.7916259433842265,0.4357023974660214,-0.41508809388386336
-4784.934287309647,-1916.0,1520.0,15948.0,386.0,-229.0,-170.0,0.13492148539905954,-0.8020961003544224,0.40748233380733156,-0.4152061972187681
-4784.949934959412,-2048.0,1412.0,15804.0,321.0,-267.0,-356.0,0.15383591138422892,-0.8196900235377956,0.3673429973539373,-0.41170608445372386
-4784.965534210205,-2088.0,1280.0,15532.0,337.0,-324.0,-377.0,0.17457437609878979,-0.8377203589510891,0.32344939651161914,-0.4038921580135545
-4784.981160879135,-2212.0,1628.0,15404.0,319.0,-420.0,-298.0,0.19900169269566784,-0.8548601640288774,0.2836038719519845,-0.3862399125862345
-4784.996800661087,-2256.0,1688.0,15660.0,201.0,-552.0,-308.0,0.21694779127388777,-0.8761122790062917,0.24383740058687597,-0.35482989235804036
-4785.012397289276,-2208.0,1704.0,15672.0,137.0,-666.0,-286.0,0.23229298264116702,-0.8983513740046357,0.2046784351745899,-0.31162720871922406
-4785.028012752533,-2144.0,1776.0,15928.0,211.0,-749.0,-175.0,0.25687266237355144,-0.9153392959704768,0.16961248784953684,-0.2596189756987843
-4785.043587684631,-2084.0,1736.0,16352.0,275.0,-700.0,-54.0,0.2874012723449154,-0.9238196247992931,0.14305719288250512,-0.20854843335492831
-4785.05921626091,-2180.0,1832.0,16524.0,351.0,-600.0,54.0,0.32362497640161164,-0.9235353155754661,0.12573548337103235,-0.16291096880024233
-4785.074800729752,-2408.0,2016.0,16492.0,156.0,-720.0,-231.0,0.3400932064690525,-0.9297753018977565,0.08436251611433557,-0.11286037732256862
-4785.090454816818,-2496.0,1952.0,16500.0,-102.0,-786.0,-46.0,0.3363907042726209,-0.938616942280045,0.05816153960244501,-0.04956576494821504
-4785.106042146683,-2540.0,1824.0,16424.0,-360.0,-1324.0,-122.0,0.310895659720604,-0.9486865771870275,0.010769218848842502,0.05675994148550572
-4785.121639966965,-2400.0,1656.0,16864.0,-392.0,-1535.0,-152.0,0.27800042094089444,-0.9427905804929055,-0.04498395435708347,0.17843242738060697
-4785.137252569199,-2444.0,1544.0,17196.0,-355.0,-1650.0,-18.0,0.2400289423433486,-0.9157257393800703,-0.09104786633411063,0.309099924151338
-4785.152886390686,-2368.0,1304.0,17520.0,-297.0,-1903.0,218.0,0.19257152919944495,-0.8600730539007347,-0.11979713456563973,0.4569892719151222
-4785.168503522873,-2368.0,2000.0,17776.0,-381.0,-1894.0,543.0,0.12067656805081325,-0.7845964479264839,-0.12415953383355749,0.5953402304421022
-4785.184101819992,-2456.0,2620.0,17920.0,-619.0,-1716.0,798.0,0.017943567074616515,-0.7000092013825924,-0.11795449249164731,0.7040965019664434
-4785.199747800827,-2736.0,2804.0,17500.0,-988.0,-1751.0,860.0,-0.11131977102506206,-0.5919880012736942,-0.12654592518154137,0.7881270479731374
-4785.215344905853,-2980.0,3020.0,17136.0,-1308.0,-2046.0,706.0,-0.24423127021590352,-0.43567908871664623,-0.1563376085498477,0.8521111256500957
-4785.230950832367,-2924.0,2652.0,16400.0,-1389.0,-2422.0,426.0,-0.3513100208260927,-0.22482270322205272,-0.18612116494679434,0.8896038069511322
-4785.246566772461,-3064.0,2328.0,16336.0,-1308.0,-2526.0,46.0,-0.4092037150338044,0.010474626809549895,-0.2029110883334061,0.8895334125411402
-4785.26215672493,-2812.0,2036.0,16220.0,-1308.0,-2659.0,-137.0,-0.4303353868373126,0.2574276786881431,-0.20243553013132765,0.8411672254797277
-4785.277772188187,-2732.0,1760.0,16000.0,-1232.0,-3044.0,-153.0,-0.4280106070754783,0.5091598557512264,-0.1682104358196361,0.7275083578926355
-4785.293409109116,-2816.0,1524.0,15932.0,-1226.0,-2986.0,143.0,-0.41051118680548593,0.7144875385270889,-0.13554029710097174,0.550106308506668
-4785.3089871406555,-2664.0,1452.0,16112.0,-1477.0,-3171.0,558.0,-0.3656942241930052,0.8722770625344167,-0.12193339217966617,0.30088653748508803
-4785.324569702148,-2644.0,1376.0,15732.0,-1803.0,-3305.0,1078.0,-0.2762616414516426,0.9511102485194235,-0.13802867183026918,-0.0041093036558897305
-4785.340134143829,-2480.0,1464.0,15460.0,-2007.0,-3486.0,1422.0,-0.14165346881809232,0.919419174977764,-0.1605341881471637,-0.32989611984826456
-4785.35577249527,-2280.0,1296.0,15348.0,-2142.0,-3631.0,1659.0,0.025236776260548696,0.760719898385844,-0.1739849132094059,-0.6248180465538119
-4785.371373414993,-2088.0,1216.0,15472.0,-1986.0,-3905.0,1790.0,0.18063321640147878,0.4769688804956615,-0.1784783640775534,-0.8414379369432852
-4785.386965513229,-1604.0,1124.0,15652.0,-1711.0,-4054.0,1740.0,0.2925405827312274,0.11548040040342757,-0.17477346651946005,-0.9330265376604832
-4785.402580499649,-1160.0,1148.0,16288.0,-1394.0,-4193.0,1565.0,0.34251035355202586,-0.26428048167958756,-0.17012226143547815,-0.8853817825531258
-4785.418169260025,-788.0,1244.0,16184.0,-1125.0,-4107.0,1348.0,0.33522433395605217,-0.5917487094629015,-0.16283676953133214,-0.7148022784388084
-4785.433809995651,-600.0,1412.0,16152.0,-847.0,-4548.0,1056.0,0.270487104041511,-0.8455711477854437,-0.1741607128827432,-0.42604484114728897
-4785.4494042396545,-904.0,1436.0,16380.0,-579.0,-4441.0,648.0,0.17147773035916317,-0.9619154388266167,-0.1949943603827721,-0.08538896858951628
-4785.464993476868,-1312.0,1408.0,16424.0,-306.0,-4285.0,205.0,0.06964513294721658,-0.9379976676010788,-0.22435186517772882,0.254904240103955
-4785.480571985245,-1140.0,1408.0,16428.0,-187.0,-4452.0,-174.0,-0.027008976880208802,-0.7796483535598865,-0.25143865663438525,0.5728852955951462
-4785.49614739418,-1052.0,1104.0,17096.0,-162.0,-4819.0,-130.0,-0.12655123449036187,-0.49338613175876134,-0.23685183632874768,0.8273186312810752
-4785.511761426926,164.0,760.0,17292.0,-226.0,-4932.0,200.0,-0.23203577754517593,-0.12735630739225368,-0.17445074362865304,0.9484232741523297
-4785.527335166931,1792.0,64.0,18708.0,-294.0,-4545.0,436.0,-0.31628979675870006,0.23064980089849751,-0.09442321934320717,0.91533911172892
-4785.542904615402,2600.0,92.0,19084.0,-228.0,-3739.0,304.0,-0.3485560250816063,0.5063978418938592,-0.014609323071257932,0.7885787790601217
-4785.558500289917,3840.0,164.0,18820.0,-426.0,-2948.0,-329.0,-0.30076731079233066,0.6990272549947588,0.058369847829827806,0.6461368913764056
-4785.574145317078,4696.0,40.0,18340.0,-1001.0,-2171.0,-797.0,-0.17942742494344,0.8239078851897598,0.10503475501940762,0.5272089681884374
-4785.589753866196,4756.0,-268.0,17832.0,-1699.0,-1507.0,-1648.0,0.03146967164496386,0.8787344917794693,0.1641195735297045,0.4471019104276609
-4785.605365991592,4160.0,-972.0,17588.0,-1959.0,-1063.0,-2056.0,0.2679828544531645,0.8558739772614208,0.23437008093345438,0.37514742426024605
-4785.620970249176,3620.0,-1324.0,17636.0,-1824.0,-1012.0,-2769.0,0.49356702540192626,0.7558064274122146,0.3424837447553216,0.26048631498919583
-4785.636566877365,3552.0,-2680.0,17636.0,-1856.0,-989.0,-2873.0,0.6789352256040676,0.5847927543228782,0.42703438898335344,0.12126839881448803
-4785.652157068253,3748.0,-3184.0,17664.0,-1847.0,-1181.0,-2498.0,0.8103454916217357,0.37901070621803806,0.4465264753601665,-0.017469275395909502
-4785.667791366577,4236.0,-2928.0,17612.0,-1716.0,-875.0,-2108.0,0.8714256893571414,0.168868603188369,0.4433062072049536,-0.12482094952049791
-4785.683377504349,4416.0,-2200.0,17336.0,-1664.0,-381.0,-1690.0,0.873376614499448,-0.026747825474691116,0.44745656300418574,-0.19047432189757
-4785.698984384537,4344.0,-1976.0,16812.0,-1547.0,-18.0,-1322.0,0.8355036398697341,-0.1936125182743724,0.4612954520248762,-0.2272759698539351
-4785.714624643326,3728.0,-1976.0,16532.0,-1824.0,139.0,-1032.0,0.765946653343751,-0.35942047558796314,0.481967920679011,-0.2277050052062552
-4785.73020029068,3584.0,-2168.0,16300.0,-1702.0,273.0,-871.0,0.6743419898449763,-0.4973698761762646,0.4995478490055576,-0.21985912207194402
-4785.745812892914,3480.0,-2068.0,16276.0,-1450.0,728.0,-758.0,0.5584135547230978,-0.5945407793436499,0.5307913267371136,-0.23012199169052458
-4785.761397123337,3384.0,-1744.0,16612.0,-1239.0,1110.0,-864.0,0.41982317291869375,-0.6638108428134448,0.5574809926080049,-0.2689211990985059
-4785.776976108551,3172.0,-1512.0,16152.0,-1190.0,1401.0,-903.0,0.2574683062396339,-0.707240837242162,0.5752794502105129,-0.3202717964238964
-4785.792678356171,2912.0,-1288.0,16044.0,-1192.0,1315.0,-1027.0,0.08776643710312151,-0.7371065801079488,0.5657394750990243,-0.3590400930181312
-4785.808280706406,2744.0,-1000.0,16032.0,-1191.0,1307.0,-1370.0,-0.09456043899787324,-0.7585781217875545,0.515178468553742,-0.3875676741685469
-4785.823865890503,3008.0,-552.0,15996.0,-1224.0,1409.0,-1908.0,-0.2956320458796699,-0.7660603842743725,0.40766967247427344,-0.3994478930212551
-4785.839449644089,3196.0,-600.0,16156.0,-1147.0,1733.0,-2246.0,-0.4950092626981346,-0.730296522276227,0.24416090845152102,-0.4025149316217045
-4785.855055809021,3204.0,-968.0,15936.0,-908.0,1835.0,-2588.0,-0.6563084675545683,-0.655013040359767,0.030533001670678305,-0.3732088533030893
-4785.870652914047,2920.0,-1160.0,15860.0,-584.0,2014.0,-2904.0,-0.7537604172249392,-0.5378717862581011,-0.22127915743122842,-0.30589983566345796
-4785.886225938797,2428.0,-1300.0,15792.0,-424.0,2062.0,-3204.0,-0.7771276699736046,-0.3725901797765315,-0.4703445532153196,-0.1898029076599446
-4785.901841163635,2220.0,-1984.0,15516.0,-261.0,2052.0,-3217.0,-0.7159345211585533,-0.17901479443945506,-0.6732207536080282,-0.046532587470624935
-4785.917521476746,2076.0,-1984.0,15584.0,-231.0,1908.0,-3035.0,-0.5914546407122928,0.02057610408044537,-0.800436192399337,0.09518368462091957
-4785.9331867694855,2244.0,-1716.0,16132.0,-257.0,1961.0,-2868.0,-0.4116170431077306,0.20852765007001303,-0.8597370526469551,0.21895165970015787
-4785.948800325394,2208.0,-1364.0,16144.0,-12.0,2192.0,-3085.0,-0.17849334322768798,0.37847458503327064,-0.8379941071111404,0.35023276739091547
-4785.964402675629,1948.0,-1432.0,15912.0,-248.0,2169.0,-3293.0,0.08415931112317589,0.5264737123143528,-0.7284380359130136,0.43025651468444703
-4785.980955123901,1612.0,-1692.0,15520.0,-234.0,1936.0,-3219.0,0.32200133757779753,0.623893937413791,-0.5462998005387988,0.45675816510238143
-4785.996779918671,1396.0,-2152.0,15368.0,-321.0,1683.0,-3043.0,0.5175951677385303,0.6627127740829806,-0.33098769037087733,0.42819875084347847
-4786.012397766113,1452.0,-2268.0,15604.0,-426.0,1456.0,-2962.0,0.6674874459959034,0.6477473511196029,-0.10538910358649164,0.351819577909814
-4786.028081655502,1624.0,-2176.0,15916.0,-457.0,1413.0,-2755.0,0.7630481007905173,0.5816259317580117,0.11448444592064978,0.2576085849284744
-4786.043712854385,1932.0,-2168.0,16688.0,-481.0,1282.0,-2684.0,0.8076368846596405,0.4775562346021184,0.31457945039234236,0.14388354569153877
-4786.0593185424805,2284.0,-2236.0,16676.0,-371.0,1745.0,-2872.0,0.7781833249498422,0.3361686301822277,0.5299766055185775,0.02337011883622007
-4786.07491517067,2068.0,-2208.0,16132.0,-172.0,1841.0,-2894.0,0.6744275855174098,0.17890975276208684,0.7083679551170884,-0.10655314365611285
-4786.090541601181,1904.0,-2252.0,15768.0,-14.0,1748.0,-2655.0,0.522230545826318,0.02904083604452631,0.8217509613280989,-0.226179672835837
-4786.106200695038,1576.0,-1964.0,15340.0,64.0,1568.0,-2268.0,0.354749599094645,-0.09701592707435414,0.872730398712565,-0.3210642972974407
-4786.121835708618,1364.0,-1944.0,15564.0,202.0,1785.0,-1902.0,0.16301624473010393,-0.1809784044126192,0.8834525173718962,-0.40023014708991683
-4786.137496948242,972.0,-1876.0,16324.0,398.0,2226.0,-1711.0,-0.06030233673981437,-0.22276819022242053,0.8485444686605472,-0.47614099415439454
-4786.153115987778,772.0,-1956.0,16772.0,568.0,2656.0,-1965.0,-0.3144854499451354,-0.2504001808627127,0.7415871996007868,-0.5370726920864524
-4786.168718338013,796.0,-2108.0,16608.0,625.0,2476.0,-2099.0,-0.537614050559737,-0.27605576582377667,0.5748897084289845,-0.5516032722334396
-4786.184317588806,852.0,-2048.0,15416.0,788.0,1978.0,-1889.0,-0.6879740507286541,-0.30328851254214795,0.3867189882845527,-0.5340001945544128
-4786.199974060059,988.0,-2252.0,15060.0,1050.0,1460.0,-1501.0,-0.7636813528966842,-0.3417348606851447,0.20597045316423018,-0.5075275841308693
-4786.2155792713165,1224.0,-2404.0,14920.0,1370.0,1150.0,-954.0,-0.7738009201148586,-0.3929388664374703,0.03948570290849461,-0.4952494952426065
-4786.23117184639,884.0,-2116.0,15092.0,1327.0,1126.0,-498.0,-0.7445420175179269,-0.43004963003593083,-0.1096352108555432,-0.49869291191769954
-4786.246807575226,984.0,-1892.0,15148.0,1851.0,1465.0,396.0,-0.6302880549726366,-0.4798212256363174,-0.2647666627672582,-0.549915605774888
-4786.262430906296,1068.0,-1916.0,15176.0,2172.0,1587.0,750.0,-0.45344719982942555,-0.5249819541708346,-0.4127599941660458,-0.5902616131664589
-4786.27801823616,1024.0,-1824.0,15208.0,2638.0,1531.0,908.0,-0.22225390793615404,-0.5618850548753745,-0.5468982530419614,-0.5794744915304345
-4786.293622970581,760.0,-2036.0,15404.0,3261.0,834.0,1112.0,0.032229611667140334,-0.6075957969252607,-0.6433536051543481,-0.46463398328732447
-4786.309210538864,436.0,-2292.0,15760.0,3561.0,462.0,1585.0,0.2945465459799196,-0.6317824658463669,-0.6644733447501937,-0.26938526726024487
-4786.324800252914,772.0,-1164.0,16320.0,3488.0,-178.0,2188.0,0.49691473515164725,-0.6334326926798226,-0.5931591951066258,-0.0009690686340614973
-4786.340387105942,568.0,-48.0,16748.0,3329.0,-443.0,2313.0,0.6201978478454103,-0.5735341904189928,-0.4566529340416652,0.27907214081575826
-4786.355973005295,452.0,40.0,16628.0,3185.0,-314.0,2169.0,0.6768634992752017,-0.4546307521477143,-0.27231504346640556,0.5108925519641307
-4786.371558904648,-128.0,448.0,16220.0,3412.0,-609.0,1781.0,0.6801432356791721,-0.2537744868849661,-0.0808164166208958,0.6829878443798952
-4786.387130975723,-544.0,748.0,16284.0,3610.0,-563.0,1003.0,0.6611226913492283,-0.012086160771544043,0.11704104294147274,0.7409939986046647
-4786.402793645859,-352.0,720.0,17008.0,3485.0,-280.0,1060.0,0.5708467074368286,0.20769662624319982,0.311620516113217,0.7306769477635493
-4786.4184217453,-204.0,112.0,18304.0,2439.0,-102.0,1913.0,0.3933245379578528,0.37417762887360395,0.41239223042668305,0.7315870133992775
-4786.434013843536,620.0,784.0,19576.0,806.0,5.0,2279.0,0.2165669161607706,0.473050154095439,0.38108694943591576,0.764261119974399
-4786.449590921402,1532.0,1392.0,18968.0,-328.0,-166.0,2171.0,0.08919505293565626,0.5401414480640295,0.26153725566672187,0.7949149152666707
-4786.465181350708,1080.0,888.0,17776.0,-714.0,-411.0,1783.0,0.008414029136299333,0.5949894729977115,0.122870736053267,0.7942414704341036
-4786.480760097504,932.0,220.0,16620.0,-765.0,-818.0,1139.0,-0.021835019753676403,0.6568646278740384,0.009951167949896865,0.7536266096792833
-4786.496371746063,1336.0,-712.0,15712.0,-73.0,-1159.0,1214.0,-0.09549386721707893,0.726418046254876,-0.0616008083686371,0.6777928030065722
-4786.512004613876,1488.0,-364.0,14984.0,363.0,-1246.0,1317.0,-0.20055614261345575,0.7798498614543042,-0.11179535581609182,0.582334290307266
-4786.527592420578,1192.0,-32.0,14984.0,526.0,-1236.0,2031.0,-0.344015777016086,0.7958039583243437,-0.19726064131467927,0.45764335947050105
-4786.543251752853,976.0,476.0,15252.0,514.0,-1116.0,2376.0,-0.4809724828244544,0.7634454139299371,-0.3001773622922344,0.30937052523196734
-4786.558842897415,640.0,1124.0,16056.0,374.0,-935.0,2530.0,-0.582560104244481,0.6874878508781058,-0.40803516835911996,0.14659973130878318
-4786.574465513229,256.0,1652.0,16968.0,241.0,-860.0,2567.0,-0.6427451803767184,0.5786798551027134,-0.5013189735025084,-0.02622108325743789
-4786.590058088303,528.0,1836.0,17564.0,42.0,-1046.0,2403.0,-0.6679662228945725,0.45689657410493734,-0.5498515146643482,-0.20671225765409207
-4786.605669260025,552.0,1672.0,17364.0,-29.0,-1080.0,1874.0,-0.6730235683300471,0.3430164917829773,-0.5512768969960447,-0.3542213230109127
-4786.621338605881,712.0,1476.0,16984.0,-227.0,-1095.0,1226.0,-0.6740554022379551,0.26069747327632553,-0.5111930464507274,-0.4651535352994671
-4786.63692855835,764.0,1428.0,16428.0,40.0,-1143.0,691.0,-0.6932816170075721,0.1797941803912964,-0.4580437749587939,-0.5265268772230776
-4786.652522087097,892.0,1356.0,15976.0,82.0,-1246.0,421.0,-0.7203481366620652,0.09998400507105842,-0.39026723886581827,-0.5646177848823852
-4786.668068885803,980.0,1240.0,15864.0,37.0,-1375.0,538.0,-0.7349624888533305,0.011388508476078765,-0.3075665797618548,-0.6042377353879868
-4786.683647155762,960.0,928.0,16068.0,8.0,-1518.0,634.0,-0.7347828704861793,-0.0853698145508833,-0.20883180813958405,-0.6396838312110057
-4786.699292182922,972.0,604.0,16492.0,49.0,-1398.0,752.0,-0.7111429447168695,-0.1784927019360523,-0.11492377691589149,-0.6702302537444678
-4786.714880466461,772.0,464.0,16916.0,54.0,-1206.0,832.0,-0.6683241092754181,-0.2583987977032506,-0.029839953403927862,-0.6969092648886117
-4786.730458974838,1104.0,324.0,17016.0,85.0,-1064.0,842.0,-0.6137148773766854,-0.32769975377257243,0.04577898345685622,-0.7168481047875989
-4786.746042728424,1160.0,748.0,16884.0,18.0,-874.0,840.0,-0.5541246474076807,-0.3776369800576222,0.11482164922497448,-0.7329066620638193
-4786.76164150238,1204.0,756.0,17144.0,-28.0,-788.0,861.0,-0.4896048411259992,-0.41569741610958266,0.18209310303593443,-0.7445299588415139
-4786.777277708054,1032.0,668.0,17100.0,6.0,-681.0,905.0,-0.41777986572190856,-0.4434831820318978,0.24237578483263944,-0.7550077019335689
-4786.792887687683,1000.0,740.0,17144.0,117.0,-630.0,1035.0,-0.32991692271729506,-0.46460317382285143,0.2959451742690363,-0.7666258336407359
-4786.808526754379,880.0,632.0,16644.0,118.0,-518.0,1044.0,-0.2406836966194539,-0.47309626602235577,0.34342083291872433,-0.7747989499055279
-4786.824110746384,784.0,508.0,16524.0,62.0,-286.0,943.0,-0.16519889665987678,-0.46363631258102844,0.38266589345623575,-0.7818679608373572
-4786.839726448059,708.0,596.0,16580.0,-26.0,111.0,882.0,-0.10946200888813012,-0.42483761506699863,0.4171802062482291,-0.7959219465180268
-4786.855312585831,556.0,716.0,16608.0,-17.0,397.0,797.0,-0.06898964948436172,-0.36686150294577563,0.4426767917078263,-0.8152854248688965
-4786.870874881744,740.0,848.0,16320.0,134.0,430.0,649.0,-0.035061143805684716,-0.31115727784337577,0.4501351323953821,-0.8362596649507431
-4786.88645529747,532.0,916.0,16264.0,96.0,328.0,462.0,-0.011614041395870753,-0.26893008795378,0.45395588541083537,-0.849391415035784
-4786.902007818222,640.0,1268.0,16088.0,111.0,187.0,216.0,-0.00041367631108604476,-0.24645353540741205,0.45028760815468466,-0.8581966870708777
-4786.917625665665,796.0,916.0,16336.0,-19.0,30.0,-88.0,-0.008601893709598987,-0.24758154194027837,0.4496361680161951,-0.8581705564319921
-4786.933323383331,1024.0,932.0,16500.0,-95.0,-8.0,-347.0,-0.036327340426471816,-0.2615272954204029,0.4488723287846961,-0.8536963339144851
-4786.9489278793335,1276.0,840.0,16712.0,-72.0,-171.0,-508.0,-0.06906509341905837,-0.2935453887908391,0.442527540391098,-0.8445297470107591
-4786.964529752731,1492.0,400.0,16828.0,-138.0,-99.0,-719.0,-0.12154736386281548,-0.32702331724071143,0.43381889027935616,-0.8307124404724353
-4786.980140209198,1320.0,-52.0,16836.0,-161.0,52.0,-846.0,-0.18894522404907396,-0.3524876963651901,0.4194616804182324,-0.8149257787559058
-4786.995779752731,1320.0,-36.0,16716.0,-108.0,212.0,-914.0,-0.2641808636880029,-0.36774067111258724,0.39405211871072465,-0.7998113513887596
-4787.0114488601685,1136.0,128.0,16540.0,-60.0,174.0,-968.0,-0.3384613462214198,-0.38596659327606275,0.36168785252349667,-0.778238782974606
-4787.02707362175,984.0,80.0,16028.0,-40.0,24.0,-981.0,-0.4057659043699014,-0.4124870146090058,0.3293127151887273,-0.7461646126994056
-4787.042651414871,912.0,288.0,15992.0,13.0,-144.0,-957.0,-0.4619008395221729,-0.44810511836270783,0.2979332146622981,-0.7050427057610371
-4787.058260202408,968.0,344.0,16180.0,-59.0,-390.0,-922.0,-0.5089285232552008,-0.49168658858666175,0.28005618665735627,-0.6486945268277139
-4787.073863267899,880.0,276.0,16212.0,-158.0,-766.0,-933.0,-0.546811848979185,-0.5476327541675419,0.2813258686709419,-0.5674071941695641
-4787.089433431625,780.0,224.0,16664.0,-265.0,-501.0,-903.0,-0.589435278572452,-0.5793469937834077,0.27395148413565484,-0.491806565133301
-4787.105015277863,1196.0,192.0,16788.0,-339.0,-447.0,-862.0,-0.6304465048534077,-0.599179261437595,0.26678493215060334,-0.41514722347453864
-4787.120587587357,1256.0,-20.0,16840.0,-303.0,-387.0,-518.0,-0.6548737161226107,-0.6072970478572308,0.2713971363493663,-0.35871200980315404
-4787.136158466339,1136.0,-132.0,16632.0,-213.0,-370.0,-831.0,-0.6812538898129523,-0.6242086838071697,0.2542768213985879,-0.2856570579801473
-4787.151733875275,980.0,-152.0,16448.0,-202.0,-377.0,-784.0,-0.7014129965573707,-0.6369555306736071,0.23825269029410662,-0.21340833107527493
-4787.16733622551,880.0,-240.0,16516.0,-16.0,-402.0,-812.0,-0.70696375635303,-0.6581882465082822,0.21730329752521912,-0.14060496522609942
-4787.1829171180725,804.0,208.0,16552.0,-346.0,-322.0,-806.0,-0.7283121019044839,-0.6537979179202329,0.19443598672184942,-0.06560801635579089
-4787.198596715927,820.0,268.0,16544.0,-348.0,-290.0,-827.0,-0.7455705658834446,-0.6450757695275737,0.16707420488198355,0.009380454130894864
-4787.2141926288605,888.0,284.0,16428.0,-246.0,-311.0,-860.0,-0.7517258118923325,-0.6390534397493247,0.1381906787739533,0.08615301027453316
-4787.229817390442,948.0,224.0,16404.0,-154.0,-275.0,-911.0,-0.7476137794491183,-0.6354981613693845,0.10387193709496213,0.162561817036096
-4787.245399951935,932.0,196.0,16432.0,-127.0,-382.0,-1268.0,-0.7284135919840959,-0.628930416039606,0.056267247319211025,0.26588374841684875
-4787.260994434357,1004.0,108.0,16604.0,-101.0,-310.0,-983.0,-0.7068416358430627,-0.6174887673621807,0.019583809769485767,0.3445272099778922
-4787.2765853405,1028.0,164.0,16628.0,-111.0,-311.0,-929.0,-0.6819323008058495,-0.6005147804829274,-0.01458145152110445,0.4172981150337486
-4787.292170524597,936.0,184.0,16816.0,-112.0,-300.0,-893.0,-0.6535135917990281,-0.579652254916125,-0.04743970434728119,0.48443030784213714
-4787.307821035385,768.0,-80.0,16424.0,-71.0,-276.0,-901.0,-0.6181374899608194,-0.558150774610329,-0.07999675116140387,0.5476990744108009
-4787.323438882828,708.0,-204.0,16180.0,-130.0,-325.0,-741.0,-0.5898869015497877,-0.5289123204556619,-0.10448465679035339,0.6011390497593717
-4787.339010477066,728.0,-84.0,16180.0,-206.0,-525.0,-588.0,-0.5719594214720255,-0.48400127454928044,-0.11508011706976048,0.6521976334511406
-4787.354616165161,828.0,-20.0,16440.0,-309.0,-571.0,-498.0,-0.5610357205867574,-0.4297847127560988,-0.12483588485520511,0.6963763513785297
-4787.370187997818,816.0,88.0,16584.0,-321.0,-633.0,-462.0,-0.5504508296358459,-0.3693437323419143,-0.13025993344410827,0.737306884053099
-4787.385774612427,1196.0,196.0,16656.0,-175.0,-517.0,-426.0,-0.5336370509694518,-0.32201536664887837,-0.1300913249319236,0.7711120856607502
-4787.401383399963,1228.0,104.0,16444.0,-124.0,-821.0,-566.0,-0.5064504127020005,-0.25335113527585057,-0.11555935863873924,0.8160681444336707
-4787.416982412338,1420.0,140.0,16392.0,-104.0,-944.0,-641.0,-0.4703018547357923,-0.17393358044449417,-0.0948165970472941,0.8599843533170842
-4787.43257522583,1384.0,60.0,16492.0,-163.0,-991.0,-748.0,-0.4223378288499182,-0.0858957775192397,-0.07712185452949914,0.8990577808353771
-4787.448160648346,1552.0,36.0,16756.0,-178.0,-883.0,-833.0,-0.36218958829132836,-0.00416771365759038,-0.06422380360647297,0.9298799037222729
-4787.4637813568115,1584.0,96.0,16884.0,-223.0,-730.0,-879.0,-0.29351457063067,0.06686215628617088,-0.058976309144346276,0.9517880246378222
-4787.479368209839,1524.0,252.0,16940.0,-209.0,-768.0,-911.0,-0.21935231174616596,0.13981952482822663,-0.0507576881632895,0.9642399705989895
-4787.494953155518,1548.0,-116.0,16924.0,-143.0,-391.0,-916.0,-0.1417117869375671,0.1785658959382642,-0.04379769680091143,0.972683788291787
-4787.510638952255,1484.0,-288.0,16648.0,-127.0,-307.0,-884.0,-0.06564378899841403,0.20858182656068952,-0.03678996807206091,0.9751056418890186
-4787.526215791702,1440.0,-408.0,16460.0,-159.0,-328.0,-790.0,0.0034158533771359353,0.23896581524323882,-0.03391482217111401,0.9704295213604859
-4787.541793107986,1480.0,-88.0,16264.0,-254.0,-503.0,-706.0,0.06681668170301146,0.28242681722207497,-0.04068201554226559,0.956093927170038
-4787.557363986969,1428.0,-24.0,16308.0,-305.0,-579.0,-674.0,0.12810223383881014,0.3299861781204775,-0.052678406907870075,0.933768668022544
-4787.572939157486,1604.0,-12.0,16420.0,-341.0,-580.0,-648.0,0.1874633653764924,0.374933180104622,-0.06802620345434342,0.9053480174728076
-4787.588520050049,1624.0,-200.0,16396.0,-280.0,-657.0,-625.0,0.24130954325031936,0.4242991500379621,-0.08013891621341467,0.8690901505146198
-4787.604081869125,1672.0,-488.0,16412.0,-266.0,-808.0,-755.0,0.30132913856250076,0.48269172043791453,-0.08891015021979792,0.8174988920247905
-4787.619663000107,1920.0,-760.0,16544.0,-162.0,-811.0,-7.0,0.3016091375629819,0.5347789394521788,-0.12117317287971821,0.779974663839268
-4787.63529419899,1900.0,-420.0,17008.0,-240.0,-773.0,-163.0,0.3149566347335133,0.5811446478111606,-0.14983847014755114,0.735269780027456
-4787.65087223053,1832.0,-272.0,16808.0,-336.0,-758.0,-265.0,0.33816519164287207,0.6220901350293181,-0.17825577762593017,0.6832810876962125
-4787.666450023651,1816.0,-316.0,16412.0,-351.0,-664.0,-340.0,0.3662742941798623,0.6548075648229706,-0.19978230092479426,0.6302041151173561
-4787.68202662468,1988.0,-100.0,16312.0,-235.0,-728.0,-347.0,0.3851218499863896,0.6914301552229811,-0.21554467647375414,0.571966776618371
-4787.697611093521,1700.0,-48.0,16100.0,-507.0,-742.0,-348.0,0.4177211234182373,0.7153605135664959,-0.24391205776152286,0.5042571831502498
-4787.713222980499,1788.0,-196.0,16188.0,-61.0,-804.0,-349.0,0.4186105879129903,0.7536642931472478,-0.2533541339631873,0.4388245568855092
-4787.728855371475,1712.0,-232.0,16476.0,-64.0,-671.0,-310.0,0.41904466021977443,0.7821792986674567,-0.2593690382273476,0.3812149255818822
-4787.744441270828,1608.0,-484.0,16700.0,-109.0,-633.0,-4.0,0.4117072000778694,0.798036116189942,-0.2854159434583699,0.33492279390970586
-4787.7600038051605,1580.0,-280.0,16768.0,-123.0,-547.0,-265.0,0.4138550596777887,0.8149674079809853,-0.2897719449715797,0.2838737983950544
-4787.775582790375,1588.0,-200.0,16484.0,-170.0,-563.0,-314.0,0.4188473206582435,0.829272489398743,-0.29148048609634497,0.22784465437850576
-4787.791152715683,1632.0,-112.0,16560.0,-91.0,-592.0,-298.0,0.41565937602365277,0.8438251950420749,-0.2928541843581436,0.17153060962918013
-4787.8067672252655,1592.0,-88.0,16424.0,-28.0,-614.0,-221.0,0.40474588129087186,0.8562276256225622,-0.29877956353208096,0.1174129341870152
-4787.822370290756,1640.0,-88.0,16512.0,-28.0,-274.0,-195.0,0.40158355635679294,0.8627269359912048,-0.2940376274953294,0.08930148260794088
-4787.8379962444305,1592.0,-8.0,16660.0,-29.0,-439.0,-210.0,0.3938469153733179,0.8697062715272931,-0.29356567299629177,0.04811241165490718
-4787.853576898575,1652.0,-240.0,16700.0,-38.0,-370.0,-211.0,0.38793088548737076,0.8747245611639944,-0.2902193799497302,0.01180176609816137
-4787.86915063858,1552.0,-172.0,16576.0,-111.0,-311.0,-241.0,0.388592549368006,0.8768071030415148,-0.28227817423158275,-0.02289469336122572
-4787.88471364975,1856.0,-108.0,16516.0,-121.0,-389.0,-177.0,0.387688137920443,0.8756018019635783,-0.28146849142613634,-0.06160260098574583
-4787.9002804756165,1968.0,-156.0,16288.0,-153.0,-446.0,-196.0,0.3870504784393175,0.8719481241564613,-0.28047587139862323,-0.10597962767960094
-4787.915940761566,1976.0,-140.0,16452.0,-203.0,-263.0,-190.0,0.39414949357191686,0.866795552933511,-0.27286511616186165,-0.13731815070726774
-4787.93158531189,2004.0,-152.0,16388.0,-224.0,-258.0,-354.0,0.4004061849668526,0.8636004606012726,-0.2520340872825607,-0.17420663115164925
-4787.947221755981,2120.0,-232.0,16496.0,-246.0,-467.0,-553.0,0.39944487951052793,0.8581240404834489,-0.2224279021497335,-0.23365090995424842
-4787.962816238403,2072.0,-200.0,16580.0,-187.0,-368.0,-615.0,0.39300883660864905,0.854217042696318,-0.18498587721992363,-0.2857228089317483
-4787.978439569473,2132.0,-4.0,16700.0,-69.0,-290.0,-619.0,0.3774192816163007,0.8530378197259099,-0.14678943440451844,-0.32914134642840503
-4787.994037389755,2116.0,-408.0,16648.0,25.0,-240.0,-552.0,0.35619102139770453,0.852817485177887,-0.1141499408476201,-0.36441745876811316
-4788.0096554756165,2040.0,-480.0,16680.0,69.0,-197.0,-378.0,0.3368841299286738,0.8518133953225081,-0.09426106263894427,-0.38992034394414177
-4788.02529168129,1864.0,-584.0,16400.0,64.0,-511.0,-189.0,0.32117157034185095,0.8368515015106093,-0.09729976362145498,-0.4325056564055521
-4788.04088807106,1892.0,-512.0,16296.0,-94.0,-330.0,-40.0,0.3236281879209998,0.8216710671185643,-0.10003246285744073,-0.4583829837787225
-4788.056536197662,1904.0,-320.0,16288.0,-229.0,-381.0,-29.0,0.3353634951972221,0.7995467264110555,-0.09947439989658331,-0.48822249245572663
-4788.0721225738525,2020.0,-216.0,16256.0,-276.0,-347.0,-71.0,0.34837322947204336,0.77663171862485,-0.09284006546007234,-0.5165849289888357
-4788.087740182877,2116.0,-184.0,16340.0,-219.0,-206.0,-84.0,0.3576852576846759,0.7610065451137972,-0.08350015600158191,-0.5347504265325282
-4788.10333776474,2132.0,-348.0,16552.0,-202.0,-139.0,-146.0,0.3632187819753951,0.7489633238404123,-0.06868735203651029,-0.5499164515019028
-4788.118908166885,2208.0,-316.0,16800.0,-98.0,-156.0,-238.0,0.35719897063851,0.7394554578728336,-0.05334853789673607,-0.5681271465976147
-4788.134481668472,2236.0,-400.0,16524.0,-24.0,-106.0,-325.0,0.342038845202352,0.7345482841626233,-0.03446860606797581,-0.5850300520504208
-4788.150068998337,2180.0,-516.0,16220.0,55.0,-180.0,-314.0,0.3218223686736724,0.7274824257292428,-0.022506314048944563,-0.6055519375778544
-4788.165653467178,2092.0,-240.0,16220.0,63.0,-246.0,-406.0,0.2956681636134285,0.7163278924069084,-0.0069605174516208955,-0.6319859482473842
-4788.181330680847,2012.0,-220.0,16260.0,-55.0,-261.0,-468.0,0.2728733284023564,0.6999227054059619,0.018577880095097823,-0.6597751249289346
-4788.196936130524,2064.0,-348.0,16288.0,-84.0,-85.0,-444.0,0.25240884809549957,0.6916470189028973,0.04847417962186898,-0.6749551307722796
-4788.212572097778,2104.0,-372.0,16420.0,-80.0,137.0,-404.0,0.23272599286114748,0.6956446989499749,0.08053145650318921,-0.674856836360918
-4788.228161811829,2204.0,-288.0,16612.0,-110.0,29.0,-397.0,0.21570799975846475,0.6917777362738259,0.11162301288633257,-0.6800396498956813
-4788.243791103363,2200.0,-372.0,16864.0,-97.0,-11.0,-418.0,0.19675093465375113,0.6846446656024113,0.1423000273559596,-0.6872419179514085
-4788.259420871735,2180.0,-656.0,16620.0,-140.0,-22.0,-469.0,0.1771179602394472,0.6743775189712752,0.17816965817875377,-0.6943340427857697
-4788.275012016296,2136.0,-700.0,16404.0,-99.0,-175.0,-348.0,0.16449418862021134,0.6563220853620801,0.2018039517771264,-0.7081370963473697
-4788.290643453598,2288.0,-540.0,16460.0,-115.0,-326.0,-328.0,0.15643293028513647,0.6280921642479432,0.22280270480064518,-0.7289635973532949
-4788.306265592575,2000.0,-440.0,16400.0,-102.0,-481.0,-314.0,0.15122001426559492,0.5891076522413865,0.23959482430133416,-0.7567555758130675
-4788.321836233139,1968.0,-432.0,16624.0,-131.0,-435.0,-401.0,0.14038361871167268,0.5493645568810633,0.2627160999794224,-0.7806864121091713
-4788.337411880493,2020.0,-444.0,16520.0,-192.0,-360.0,-363.0,0.13297039865489302,0.5134403753504414,0.28841493952408437,-0.7971917439994441
-4788.352988243103,1820.0,-536.0,16720.0,-152.0,-182.0,-298.0,0.12356967796963422,0.4911030767388189,0.31000033205477445,-0.8046415952646722
-4788.368557929993,2180.0,-760.0,16432.0,-110.0,128.0,-210.0,0.11004743297635462,0.492954584126419,0.3279518857799168,-0.7983313228838391
-4788.384117364883,2128.0,-540.0,16668.0,-31.0,333.0,-117.0,0.09365634795156096,0.5121426318015024,0.33811533922759907,-0.783974763980839
-4788.39976143837,2100.0,-612.0,16564.0,43.0,267.0,-170.0,0.07219513448147975,0.5254249668047748,0.3447574336883727,-0.7745055059404096
-4788.415370225906,1936.0,-628.0,16264.0,91.0,149.0,-182.0,0.051220767256626616,0.5303505875682357,0.34774556391139827,-0.7714776147417455
-4788.430964946747,1872.0,-580.0,16088.0,50.0,-15.0,-163.0,0.03837770506240677,0.5244428619480394,0.3517566631167958,-0.7744379163359899
-4788.446619749069,1724.0,-768.0,16024.0,17.0,-175.0,-60.0,0.03890650026544303,0.5106430774526296,0.3526583784367893,-0.7831743099752041
-4788.462208271027,1720.0,-632.0,16088.0,-27.0,-200.0,-38.0,0.043657458833427774,0.49550979909125753,0.3553941241575384,-0.7913653276502866
-4788.477792263031,1860.0,-696.0,16136.0,9.0,-180.0,-17.0,0.047667074051502924,0.4823998412608431,0.3547067298364572,-0.7995007060732394
-4788.493384361267,1992.0,-572.0,16540.0,94.0,-174.0,25.0,0.05082927836495252,0.4712252772884038,0.3462425366063499,-0.8096167169406555
-4788.508998155594,2224.0,-636.0,16720.0,104.0,-242.0,7.0,0.054340973641137165,0.4545444520876006,0.3373650827138356,-0.8225698758315934
-4788.524582386017,2176.0,-556.0,16764.0,93.0,-504.0,228.0,0.08176157859727928,0.42486435158608293,0.3187856441794705,-0.843315504471309
-4788.540149688721,2324.0,-572.0,16864.0,51.0,-211.0,-36.0,0.08307487895817652,0.40847030501632386,0.3147136754839557,-0.8527636699985144
-4788.555764913559,2200.0,-600.0,16456.0,48.0,-135.0,-34.0,0.08253283096990045,0.39764944773140226,0.3112548667080701,-0.8591761498560968
-4788.571340560913,2072.0,-600.0,16340.0,142.0,-171.0,-11.0,0.08140791045914562,0.38531977096841286,0.29960111007222917,-0.8689882629006066
-4788.586917638779,2008.0,-596.0,16244.0,181.0,-233.0,-15.0,0.08024703049410842,0.36825401015068876,0.28452482058825623,-0.8814732126242035
-4788.602490186691,1988.0,-588.0,16456.0,163.0,-302.0,93.0,0.0896178221990814,0.34812907628189366,0.2666443469264731,-0.8942458188012755
-4788.618090867996,2016.0,-572.0,16468.0,141.0,-361.0,204.0,0.109576707630888,0.3253814483312908,0.24632514943993727,-0.9063353567968089
-4788.633667707443,2016.0,-448.0,16616.0,61.0,-455.0,490.0,0.15612344030754702,0.2997972639154895,0.2227315720133838,-0.9144056642233624
-4788.64933013916,1748.0,-420.0,16504.0,3.0,-436.0,153.0,0.17659480201993652,0.2675912047705826,0.2122495495160318,-0.9231247758343446
-4788.664924144745,1764.0,-460.0,16456.0,8.0,-354.0,182.0,0.19751743832373914,0.24220410259769745,0.20164048965461928,-0.9282592025801399
-4788.680518865585,1952.0,-520.0,16636.0,49.0,-197.0,195.0,0.21568924113508592,0.23023038187704745,0.1899528656106043,-0.9297257828874274
-4788.696091175079,2116.0,-472.0,16408.0,130.0,-80.0,297.0,0.23841087141323825,0.2307861972898165,0.17171378680012983,-0.9275841541096127
-4788.711745023727,2228.0,-460.0,16392.0,206.0,24.0,371.0,0.2637673221991482,0.24217520063959583,0.14782597510614867,-0.9219140160660203
-4788.72732424736,2088.0,-540.0,16488.0,231.0,0.0,374.0,0.2887803060801218,0.2518884159517881,0.12112663233467069,-0.9156890846072326
-4788.742889881134,2268.0,-540.0,16480.0,221.0,57.0,317.0,0.3084932877706228,0.2649576221572134,0.09777638135709965,-0.9083331597547114
-4788.758468866348,2192.0,-696.0,16432.0,222.0,47.0,232.0,0.3212433159965771,0.2762700674689021,0.07597011732637637,-0.9026107261835902
-4788.774035215378,2136.0,-340.0,16304.0,193.0,41.0,492.0,0.35472478168333904,0.2876051923823139,0.04993071227052933,-0.8882344884919732
-4788.789603471756,2112.0,-360.0,16252.0,239.0,22.0,202.0,0.3641847685798196,0.29721622756221167,0.026954321297711,-0.8822162053439796
-4788.805200099945,2268.0,-324.0,16344.0,214.0,8.0,140.0,0.3693372819552232,0.30462501940476927,0.007064149012204292,-0.8779200803656931
-4788.820785284042,2048.0,-332.0,16428.0,213.0,68.0,42.0,0.36681493183342023,0.3164037833050372,-0.008196867621182569,-0.874796126566358
-4788.836375236511,2184.0,-304.0,16532.0,207.0,17.0,51.0,0.364979319017764,0.3239783258522136,-0.024869216390498303,-0.8724733022525382
-4788.852047204971,2076.0,-260.0,16380.0,196.0,16.0,50.0,0.3632618307413932,0.3310252709385982,-0.040689020384316064,-0.8699468466214495
-4788.867644071579,2044.0,-416.0,16128.0,165.0,-54.0,-94.0,0.351152129140631,0.3321896226196626,-0.052189474821993834,-0.8738526738195702
-4788.883241653442,1972.0,-464.0,16352.0,128.0,17.0,-135.0,0.3372149071148085,0.33773026296200387,-0.05748339952700266,-0.8768808554632641
-4788.898835897446,2000.0,-388.0,16512.0,115.0,104.0,-193.0,0.31953882938717254,0.3497157007001382,-0.05749382620366063,-0.8787993656951228
-4788.9144949913025,2076.0,-8.0,16568.0,122.0,206.0,-213.0,0.30043322621236584,0.3696025734803008,-0.05456376948904397,-0.8775856706461853
-4788.930171489716,2072.0,-244.0,16468.0,56.0,165.0,-253.0,0.27996910230495736,0.38454301027081145,-0.04632700814335561,-0.8784063884802434
-4788.9458091259,2040.0,-324.0,16528.0,58.0,154.0,-201.0,0.2632005740309947,0.39824986938778023,-0.040235936686473794,-0.8777833267733747
-4788.96138548851,2044.0,-400.0,16580.0,37.0,105.0,-215.0,0.24578711673424822,0.4075852898624579,-0.033161693026714706,-0.8788419805919624
-4788.97696352005,2092.0,-580.0,16456.0,54.0,43.0,-229.0,0.2264026446465069,0.41239505949803645,-0.028213387415010463,-0.8819728806313997
-4788.99255657196,2020.0,-688.0,16464.0,59.0,22.0,-155.0,0.21240268480373625,0.41537343441606034,-0.026723141964154783,-0.8841017380104709
-4789.00816988945,1884.0,-540.0,16584.0,79.0,202.0,-44.0,0.20660018191676469,0.4322321664538846,-0.027460850514912247,-0.8773469215786528
-4789.023788928986,1968.0,-744.0,16616.0,78.0,348.0,25.0,0.20632941235361874,0.4597977027518688,-0.028072778336355755,-0.8632648291563789
-4789.039366483688,1856.0,-384.0,16472.0,78.0,362.0,-26.0,0.20204756291423034,0.48809123043379926,-0.026363680325033546,-0.8486746664380641
-4789.054965496063,1888.0,-260.0,16456.0,27.0,297.0,-66.0,0.19664905575433733,0.5103541739629758,-0.020300241829289762,-0.8369322948549475
-4789.070623636246,1824.0,-156.0,16436.0,70.0,507.0,-126.0,0.18505674968530425,0.5480639177425103,-0.01108342156170137,-0.8156329439344191
-4789.086212873459,1916.0,-264.0,16276.0,180.0,195.0,-197.0,0.16256651647719778,0.5646494720423035,-0.011318449053118941,-0.8090828104426945
-4789.101797103882,1988.0,-440.0,16460.0,265.0,293.0,-196.0,0.1358733126991104,0.5887077992502799,-0.01620071283686309,-0.7966800530336123
-4789.117396354675,1992.0,-500.0,16148.0,320.0,318.0,-275.0,0.1006652467599704,0.6142113231012262,-0.020524218864243892,-0.7824255332675487
-4789.132989406586,1848.0,-640.0,16360.0,328.0,317.0,-235.0,0.06754122497898246,0.6383928093737631,-0.027506354084227462,-0.7662481349753525
-4789.148566961288,1720.0,-564.0,16336.0,313.0,411.0,-158.0,0.040479988336768837,0.6672445252884581,-0.03716495724729214,-0.7428087775259808
-4789.16414141655,1728.0,-368.0,16616.0,279.0,570.0,-189.0,0.01380543078013544,0.7045179675128287,-0.0421555677882716,-0.7082984904946618
-4789.179782152176,2020.0,-300.0,16432.0,239.0,496.0,-511.0,-0.030595746014724964,0.7356789509210362,-0.024848934354819302,-0.67618260252609
-4789.195362329483,1820.0,-324.0,16444.0,225.0,484.0,-240.0,-0.058092474562572785,0.7630877097136538,-0.02397373617353205,-0.6432322066385118
-4789.210962057114,1848.0,-348.0,16464.0,188.0,479.0,-208.0,-0.08120845602073798,0.7884661136255893,-0.023071919087487187,-0.6092569744241816
-4789.22656917572,1560.0,-496.0,16428.0,206.0,538.0,-128.0,-0.10099320738673032,0.8147306600901598,-0.028988473746156672,-0.5702402931753084
-4789.242154121399,1876.0,-648.0,16708.0,168.0,514.0,-31.0,-0.11307769502912694,0.8379221161116084,-0.03962820497553665,-0.5324749455029418
-4789.257740974426,1900.0,-760.0,16576.0,159.0,419.0,-13.0,-0.12379035530895628,0.8551704346352705,-0.05015946956754941,-0.5008427929709152
-4789.2733743190765,1876.0,-676.0,16540.0,68.0,366.0,71.0,-0.1241156245094914,0.8696082023582766,-0.06234792025469521,-0.47380335898317544
-4789.288964033127,1932.0,-364.0,16372.0,39.0,437.0,14.0,-0.12404965604077942,0.8864965891966989,-0.06970251638341425,-0.44031470494250274
-4789.30455493927,1920.0,-112.0,16508.0,89.0,439.0,-95.0,-0.13183271402134744,0.902233104322497,-0.07046553765618209,-0.40451226060674716
-4789.320170879364,1824.0,-100.0,16460.0,185.0,359.0,-510.0,-0.16196487315789684,0.9144178575747279,-0.04089267142634459,-0.3686938445851898
-4789.335787296295,1824.0,-300.0,16512.0,314.0,191.0,-346.0,-0.19732016300643374,0.9164462109658008,-0.02605163016319008,-0.3471489712549668
-4789.351407527924,1768.0,-464.0,16424.0,416.0,208.0,-246.0,-0.23736662189340352,0.9151528173271909,-0.022533454421213666,-0.32503023117991126
-4789.367007493973,1892.0,-576.0,16560.0,458.0,385.0,-116.0,-0.2761404102371074,0.9154937305539912,-0.03418643606789454,-0.2906010852343706
-4789.382570028305,1972.0,-608.0,16568.0,373.0,267.0,68.0,-0.30322730691233424,0.9122989943273146,-0.055468811479006175,-0.269605185864757
-4789.398177862167,1952.0,-560.0,16728.0,285.0,566.0,24.0,-0.3221775925270879,0.916530303678145,-0.07894319973812365,-0.2234765592365424
-4789.413776636124,1808.0,-380.0,16808.0,117.0,724.0,209.0,-0.3218139990742955,0.9238554432362924,-0.11804265186541153,-0.170272729299392
-4789.429356098175,1956.0,-32.0,16820.0,98.0,757.0,-21.0,-0.3215675771809033,0.9304865242684885,-0.13875825968097702,-0.1074023595227683
-4789.444934606552,1856.0,-404.0,16576.0,249.0,662.0,80.0,-0.3324361306529747,0.9269284877186098,-0.16584801863079662,-0.0527658261416259
-4789.460489988327,1748.0,-268.0,16212.0,361.0,524.0,300.0,-0.35206887927148184,0.9127839788640416,-0.20659612834717433,-0.013818535725953063
-4789.476085186005,1760.0,-420.0,16364.0,380.0,472.0,503.0,-0.37240616703981355,0.8904799987998764,-0.26101588878947185,0.015156658191320742
-4789.491685628891,1856.0,-280.0,16712.0,233.0,428.0,469.0,-0.3807821933740178,0.8701151924344219,-0.3105274241394159,0.03843425505223248
-4789.507318019867,1936.0,-220.0,16656.0,140.0,443.0,363.0,-0.380181349056144,0.8529838180314314,-0.3518771292834547,0.0637435007950404
-4789.522917509079,1772.0,-248.0,16600.0,209.0,322.0,295.0,-0.3872073979753626,0.8344265246331937,-0.38301099374605013,0.0842934434661598
-4789.538506031036,1648.0,-348.0,16332.0,233.0,294.0,363.0,-0.3966688892267853,0.8113845478517009,-0.41722690976781573,0.10114649570142291
-4789.5541298389435,1392.0,-404.0,16276.0,180.0,285.0,257.0,-0.4010945843462978,0.7927070538569462,-0.44338901450347157,0.11893209403332505
-4789.5697231292725,1416.0,-508.0,16572.0,91.0,371.0,626.0,-0.3987777698791845,0.7598586313951103,-0.4977155167779863,0.12597783496693377
-4789.585338592529,1412.0,-68.0,17088.0,-54.0,439.0,599.0,-0.38196464012791864,0.7293236358185609,-0.5521401802040814,0.13164827888183564
-4789.600908994675,1516.0,-228.0,16788.0,-133.0,441.0,471.0,-0.35712255050889524,0.704804835181104,-0.5973539789399284,0.1374112516062423
-4789.616523504257,1152.0,76.0,16392.0,-155.0,184.0,184.0,-0.3401336817381555,0.6975746428064028,-0.6160378132709944,0.13489295341513693
-4789.632080554962,1268.0,232.0,15944.0,-33.0,52.0,-51.0,-0.3347691733566852,0.7006528574603895,-0.6148335007783027,0.1378221325599397
-4789.647657394409,1036.0,224.0,16028.0,151.0,80.0,-105.0,-0.33844575319620324,0.7007901217038165,-0.6088230041252866,0.15389030870612355
-4789.663256645203,1172.0,160.0,16412.0,236.0,175.0,-256.0,-0.33999667632637204,0.7046479082675206,-0.5948003616650421,0.18462425416061445
-4789.678818225861,1248.0,-88.0,16652.0,161.0,279.0,-390.0,-0.3288584754117317,0.7149075438264147,-0.5759161094109113,0.2215399328585116
-4789.69441819191,1056.0,-356.0,16628.0,99.0,370.0,-547.0,-0.30538882074325646,0.7311480064507672,-0.5495335547131664,0.2649021197960169
-4789.710036039352,1276.0,-348.0,16588.0,55.0,384.0,-602.0,-0.2760642348783299,0.7481973955978114,-0.5190419601467156,0.30754615759061227
-4789.72563791275,1240.0,-308.0,16612.0,41.0,399.0,-609.0,-0.24386131316795792,0.7625223608903886,-0.48677478955775666,0.3494876440350204
-4789.741233825684,1228.0,-428.0,16656.0,123.0,398.0,-551.0,-0.21796702691405942,0.7697481333308405,-0.453972205887124,0.3922848744138766
-4789.756868124008,1096.0,-608.0,16800.0,204.0,404.0,-458.0,-0.19969883253056894,0.7689340110268833,-0.4232080948849144,0.43560965484699476
-4789.772496938705,1220.0,-524.0,16564.0,182.0,383.0,-475.0,-0.17945617316165455,0.7675206495199619,-0.39045339926840766,0.47566130542054325
-4789.7880859375,1272.0,-340.0,16328.0,155.0,351.0,-425.0,-0.16005636030831236,0.7640042909449979,-0.36056497166837875,0.5105607761552664
-4789.8037095069885,1300.0,-276.0,16132.0,118.0,237.0,-406.0,-0.14226659956329174,0.7638368255943618,-0.33121658007245247,0.5353588475029951
-4789.819326877594,1256.0,-488.0,16260.0,85.0,153.0,-7.0,-0.14318762479899075,0.755688657831156,-0.3286130319224935,0.5481290284052429
-4789.834926605225,1216.0,-676.0,16668.0,177.0,137.0,-130.0,-0.14469858493271132,0.7503987306514798,-0.31317371340264494,0.5638140560403906
-4789.8505256175995,1256.0,-624.0,16700.0,195.0,135.0,-67.0,-0.15047083660767432,0.7428869883868698,-0.30079524781570893,0.5787915589463617
-4789.866158485413,1460.0,-392.0,17080.0,167.0,212.0,-35.0,-0.15394308830642828,0.7306269000230163,-0.2927597787034804,0.597308605746582
-4789.881770133972,1364.0,-336.0,16448.0,140.0,300.0,-65.0,-0.15177133733813641,0.7143811437211913,-0.28519002462574233,0.6207186903196685
-4789.897356748581,1216.0,-312.0,16276.0,103.0,329.0,-113.0,-0.14382973720189873,0.6975736547004813,-0.2767480311275911,0.6450693995464738
-4789.912977695465,1224.0,-296.0,16192.0,82.0,206.0,-7.0,-0.1434446794599142,0.6848996359260054,-0.2742028064976822,0.6596581944854942
-4789.928704738617,1332.0,-360.0,16336.0,100.0,134.0,-230.0,-0.13295005081510178,0.6811371571643532,-0.25625387646524533,0.6728375791488314
-4789.944268465042,1340.0,-408.0,16616.0,148.0,62.0,28.0,-0.14201121088617324,0.6749896737772414,-0.2498828282875215,0.6795442063646523
-4789.959922075272,1444.0,-324.0,16812.0,151.0,166.0,75.0,-0.1517223076731861,0.6613964798107259,-0.24731057598299905,0.6916447909550539
-4789.97550702095,1464.0,-240.0,16856.0,116.0,196.0,5.0,-0.15447847657144112,0.6476888174848179,-0.24310139044258222,0.7053632468070392
-4789.991302251816,1492.0,-204.0,16792.0,57.0,275.0,-78.0,-0.14703386840156243,0.6313315931765586,-0.23876798621603748,0.7230430898351484
-4790.006877660751,1068.0,-328.0,16532.0,67.0,325.0,-134.0,-0.13544815091287601,0.6123395882069274,-0.23116778991670442,0.7438114546266947
-4790.022490024567,1124.0,-372.0,16160.0,120.0,273.0,-79.0,-0.1311940792847345,0.5944527047808988,-0.22225290682018817,0.7615889578698481
-4790.038092374802,952.0,-444.0,16256.0,160.0,208.0,-14.0,-0.13451272802768582,0.5787832832331012,-0.21316665563796602,0.7755489758697296
-4790.05367565155,960.0,-492.0,16332.0,199.0,74.0,5.0,-0.14352184446343944,0.5711110236600563,-0.2007315686930203,0.7829051769823815
-4790.069294452667,944.0,-384.0,16544.0,195.0,94.0,81.0,-0.15711830213517383,0.5605711862683925,-0.19253139117728812,0.7899401544871266
-4790.084884405136,836.0,-376.0,16612.0,167.0,147.0,63.0,-0.16715005354731513,0.546829568134232,-0.18602628939211172,0.7990197135667312
-4790.100520372391,1080.0,-324.0,16544.0,96.0,102.0,-24.0,-0.1684097604320311,0.5385132208906014,-0.17960554967426953,0.8058433532911095
-4790.116108894348,1068.0,-276.0,16560.0,160.0,124.0,-54.0,-0.17017997288093764,0.528042900573131,-0.16755257200556184,0.8149451561908193
-4790.131879806519,1040.0,-276.0,16420.0,213.0,98.0,-73.0,-0.1733517918812516,0.5186957391331769,-0.1504030635307356,0.8235792645138753
-4790.147500514984,1076.0,-316.0,16600.0,208.0,160.0,-38.0,-0.17790968381744202,0.5042423226958338,-0.1360628565326013,0.8340112250314603
-4790.163081645966,996.0,-400.0,16584.0,226.0,169.0,254.0,-0.2042501090384966,0.4849707459116498,-0.13329240508736143,0.8398323661979736
-4790.178665161133,888.0,-536.0,16440.0,180.0,138.0,148.0,-0.2210772706206656,0.4696088639665429,-0.12873681296658634,0.8449965611090828
-4790.194238901138,844.0,-476.0,16544.0,109.0,113.0,133.0,-0.23407417884450066,0.45741387254785676,-0.1282570751795142,0.8482522918716119
-4790.209830999374,900.0,-244.0,16468.0,20.0,50.0,126.0,-0.24365109979709557,0.4516693120847838,-0.13276154607759452,0.8479406500290044
-4790.225400924683,964.0,-124.0,16424.0,18.0,35.0,55.0,-0.24804777129644587,0.4478598325420815,-0.1342770007888181,0.8484477359327471
-4790.2409772872925,1008.0,-48.0,16468.0,46.0,44.0,11.0,-0.2501666499143542,0.44327769626284846,-0.13218526560797486,0.850557809218562
-4790.2565903663635,1056.0,-56.0,16528.0,77.0,98.0,-18.0,-0.250688968216247,0.4343078433841764,-0.1278378462248728,0.8556805615778852
-4790.2721791267395,1248.0,-172.0,16588.0,120.0,41.0,-107.0,-0.2467878763599938,0.4295704640658325,-0.11563645801305605,0.8609257633862426
-4790.287843465805,1232.0,-344.0,16544.0,209.0,252.0,-137.0,-0.24169435425848426,0.40711320325689043,-0.10011286760919916,0.8751114743805791
-4790.303443431854,1064.0,-472.0,16432.0,249.0,-140.0,-138.0,-0.24115879028136966,0.4133866056881124,-0.07315269101902855,0.8749872204234539
-4790.319100141525,1124.0,-448.0,16420.0,9.0,-252.0,-75.0,-0.2373296861707108,0.43259233981843154,-0.06439783294929002,0.8674049842512793
-4790.334696531296,1052.0,-352.0,16488.0,230.0,-224.0,-47.0,-0.2436445152143939,0.44466242476635487,-0.040519438908535876,0.8609708782980909
-4790.350282669067,1060.0,-364.0,16524.0,76.0,-182.0,-53.0,-0.24324536739368585,0.45663003708758054,-0.028855969272088083,0.8552707369647777
-4790.365847826004,1144.0,-336.0,16588.0,58.0,-126.0,-40.0,-0.24289806537462688,0.4646637805863137,-0.02024084330341582,0.8512804526775322
-4790.381417751312,1104.0,-508.0,16532.0,-1.0,-111.0,-79.0,-0.23719756834175215,0.47283673462298625,-0.014749794189931683,0.8484958335402633
-4790.396993637085,1124.0,-284.0,16512.0,71.0,-146.0,-141.0,-0.22986148309986829,0.48207763183851476,-0.0006416963713637851,0.8454374274266933
-4790.412594079971,1236.0,-336.0,16496.0,87.0,-178.0,-185.0,-0.21984755590126276,0.4931448205021575,0.01713020251502706,0.8415353791362131
-4790.428169488907,1224.0,-400.0,16700.0,124.0,-183.0,-196.0,-0.21047336740972822,0.5035567386781836,0.038166468349741973,0.8370632552183312
-4790.443824291229,1072.0,-348.0,16396.0,100.0,-168.0,-173.0,-0.20164493599336372,0.5131000230999889,0.05613290291597662,0.8324162319977
-4790.459426403046,1196.0,-348.0,16488.0,47.0,-196.0,-225.0,-0.18640432272387783,0.5250495900711747,0.07302751855150591,0.827190025308667
-4790.475030660629,1264.0,-376.0,16488.0,-249.0,-160.0,-239.0,-0.15665625061282404,0.5386599331677026,0.06854027314740897,0.8249888038637717
-4790.490660429001,1124.0,-324.0,16200.0,-18.0,-153.0,-295.0,-0.1336175414840448,0.5477593555216121,0.0831472865428197,0.8217010221405799
-4790.506251335144,1040.0,-312.0,16552.0,-54.0,-154.0,-331.0,-0.10614200889768469,0.556580604913069,0.09681814505888091,0.8182775513046436
-4790.521849870682,1112.0,-416.0,16432.0,55.0,-120.0,-509.0,-0.07138638143686864,0.5595930911888984,0.1264218112922298,0.8159516422365942
-4790.537446737289,1228.0,-540.0,16612.0,31.0,-112.0,-490.0,-0.036744276520841154,0.5612750696220704,0.15307279455498565,0.812520076017096
-4790.553039550781,1004.0,-368.0,16468.0,75.0,-156.0,-184.0,-0.025287381913394365,0.569354777822786,0.1678203674886761,0.8043829992872163
-4790.568696260452,1164.0,-284.0,16548.0,108.0,-240.0,-215.0,-0.012045301925370537,0.5824210842617685,0.18648926791570103,0.7911146214431499
-4790.584273338318,1188.0,-344.0,16544.0,115.0,-216.0,-185.0,-0.0016060675491341807,0.5938589065698459,0.2039411290170172,0.7782910994801102
-4790.599908828735,1172.0,-352.0,16504.0,140.0,-193.0,-134.0,0.003669796337983263,0.6042675923630311,0.22031330626294696,0.7657083364428731
-4790.615478992462,1120.0,-456.0,16532.0,112.0,-161.0,-26.0,0.0025907609029982718,0.6143536579977711,0.22903445571187925,0.7550536993879735
-4790.6310884952545,1172.0,-432.0,16520.0,98.0,-129.0,77.0,-0.00516527243442085,0.6242260986396655,0.2312570673286726,0.7462139549407545
-4790.646668434143,1144.0,-496.0,16528.0,45.0,-112.0,67.0,-0.009726442300218277,0.6326962185199776,0.23052301933457559,0.7392293480020745
-4790.662234306335,1176.0,-312.0,16500.0,59.0,-41.0,76.0,-0.017069387167479595,0.63668418309362,0.23011245701715727,0.7357921881521055
-4790.677806377411,1268.0,-260.0,16436.0,114.0,-243.0,55.0,-0.02205730200610362,0.6529322633693597,0.23462879033056136,0.7198209955451385
-4790.693403482437,1224.0,-164.0,16512.0,123.0,-1.0,-42.0,-0.02641337390651232,0.6517520700844038,0.24469617475548391,0.7173878692029876
-4790.7089829444885,1172.0,-308.0,16388.0,114.0,-83.0,-100.0,-0.024869584723739586,0.6543749920491307,0.2576435515363675,0.7104890385418313
-4790.724649190903,1180.0,-180.0,16492.0,159.0,-79.0,-95.0,-0.02628671015363847,0.6565929824889996,0.2730179152156132,0.7026064917055771
-4790.740247011185,1172.0,-164.0,16524.0,153.0,-51.0,-157.0,-0.0242143657091679,0.6554066162110551,0.29141762670713167,0.6963703029024574
-4790.755914211273,1204.0,-208.0,16428.0,139.0,-90.0,-208.0,-0.017236737306205493,0.655024787063384,0.31182847721594437,0.6880468181866629
-4790.771508216858,1180.0,-276.0,16488.0,84.0,-172.0,-204.0,-0.00511115795750883,0.6593929339854101,0.3286528482049844,0.67613766352807
-4790.787088632584,1148.0,-24.0,16416.0,74.0,-145.0,-187.0,0.0058208861649773885,0.6623152874215266,0.343723702651656,0.6657015799646496
-4790.802666425705,1184.0,-284.0,16452.0,95.0,-166.0,-234.0,0.01889646389499573,0.6646798654611503,0.3625171421103268,0.6530121911411556
-4790.818284273148,1244.0,-324.0,16576.0,159.0,-145.0,-170.0,0.023940670907398674,0.6675637271619012,0.38105078141183035,0.6392071780257539
-4790.83384847641,1264.0,-208.0,16516.0,182.0,-220.0,-159.0,0.029511361621856014,0.674588295422648,0.399805360362616,0.6198510990869573
-4790.849422454834,1204.0,-32.0,16328.0,129.0,-168.0,-175.0,0.03723707700589146,0.6776448477955593,0.41649649461572125,0.6049310128642829
-4790.864969968796,1244.0,-228.0,16520.0,72.0,-125.0,-191.0,0.04759893255745606,0.6773283651862815,0.43105534832565634,0.5942658613897631
-4790.880544900894,1416.0,-160.0,16584.0,68.0,-104.0,-156.0,0.0555777620691584,0.6769767616913719,0.4432661724878769,0.584917666702926
-4790.896119594574,1368.0,-164.0,16728.0,68.0,-112.0,-202.0,0.06619572578161932,0.6750060136206277,0.45799070757827925,0.5746560007832344
-4790.911766052246,1352.0,-252.0,16756.0,3.0,-238.0,-197.0,0.08538994418544409,0.6787888557225358,0.4681639939792405,0.5592644468588208
-4790.927438020706,1428.0,-120.0,16740.0,20.0,79.0,-212.0,0.0913159913496623,0.6662367500822525,0.4821570947837364,0.5615287334708471
-4790.943032741547,1404.0,-188.0,16560.0,2.0,141.0,-344.0,0.10208165875950524,0.644474021493066,0.5030794506296362,0.5666953651827815
-4790.958648681641,1384.0,-152.0,16332.0,88.0,112.0,-324.0,0.10819844697138593,0.6251424566512463,0.5263636511851799,0.5660665258395263
-4790.974233388901,1276.0,-220.0,16456.0,103.0,49.0,-348.0,0.11747305842330594,0.607347701313184,0.5505806442985153,0.5605263636780146
-4790.989830255508,1276.0,-444.0,16564.0,81.0,121.0,-308.0,0.12239081925905103,0.5871517872564463,0.5718152046053978,0.5597326485606734
-4791.005424022675,1512.0,-292.0,16616.0,107.0,121.0,-309.0,0.12591802688841325,0.5666550050573226,0.5938504686909425,0.55712509958138
-4791.0210502147675,1324.0,-4.0,16584.0,52.0,201.0,-326.0,0.12872102978806044,0.5402035271349606,0.6143155868670405,0.560559903572716
-4791.036655426025,1344.0,-276.0,16504.0,63.0,291.0,-287.0,0.12412088444010745,0.5109099802290942,0.633737392162243,0.5673992561887189
-4791.0522377491,1244.0,-480.0,16600.0,84.0,235.0,-250.0,0.11971161955086619,0.48608276225805724,0.6512305742384321,0.5703432436324355
-4791.067842006683,1220.0,-560.0,16540.0,66.0,5.0,-161.0,0.12463931135442012,0.47728185953004754,0.6612691562280372,0.565146150699176
-4791.083433151245,1216.0,-536.0,16472.0,80.0,184.0,-103.0,0.11575568191868152,0.4630066574914574,0.6713242151027345,0.5670531328181043
-4791.099012374878,1228.0,-460.0,16452.0,93.0,30.0,-44.0,0.11242252835508959,0.4598312498019495,0.6779243927599696,0.562436587114363
-4791.11460351944,1140.0,-336.0,16328.0,107.0,10.0,-59.0,0.11043706500440569,0.45684182513766214,0.6855509114198205,0.5559848463128793
-4791.130205631256,1160.0,-304.0,16380.0,103.0,-30.0,-72.0,0.1116228506918911,0.45492358310475145,0.6930351302352595,0.5479846539806996
-4791.145781517029,1180.0,-236.0,16504.0,84.0,31.0,-38.0,0.1082364825339813,0.4519154611131578,0.698787492144369,0.5438320702920494
-4791.161365747452,1236.0,-460.0,16456.0,123.0,45.0,-43.0,0.10268277098077905,0.4482590859263783,0.7066463854467403,0.5377461542058796
-4791.176936864853,1216.0,-448.0,16628.0,103.0,-28.0,247.0,0.08876942470368468,0.4655790059446732,0.7013223713708108,0.5324501008321525
-4791.192503929138,1088.0,-336.0,16560.0,95.0,-13.0,-41.0,0.08761412366617963,0.46436365448196665,0.7072270159588779,0.5258517943567951
-4791.208083152771,1284.0,-104.0,16540.0,108.0,45.0,-144.0,0.08706409524345697,0.4541488179865524,0.7182250056914304,0.5199245480263461
-4791.223718166351,1352.0,-116.0,16508.0,136.0,184.0,-116.0,0.07538897315442558,0.43942440147560324,0.7301652869206785,0.5177657307031551
-4791.239290714264,1308.0,-64.0,16628.0,132.0,202.0,-144.0,0.0639448681269777,0.4218349913107271,0.7427149275152808,0.5160821934460378
-4791.254863977432,1460.0,-240.0,16484.0,130.0,127.0,-128.0,0.056681876369200364,0.40844301168133684,0.753805976375021,0.5116033825936329
-4791.270433187485,1328.0,-316.0,16400.0,85.0,107.0,-110.0,0.051518389670910644,0.396780845895521,0.7619189875192235,0.509303713233894
-4791.285994768143,1040.0,-212.0,16540.0,15.0,62.0,-196.0,0.05558258029664408,0.3809746394645687,0.7694842091540585,0.5095713421248905
-4791.30154967308,1244.0,-172.0,16560.0,-15.0,96.0,-221.0,0.05945248893777092,0.3616882017595294,0.7764142513982438,0.5126674911604664
-4791.317188739777,1144.0,-232.0,16760.0,-130.0,-18.0,-299.0,0.07812937743834357,0.3413976416953456,0.7795796999598722,0.5192291806480342
-4791.332770824432,1140.0,-236.0,16612.0,-122.0,-88.0,-294.0,0.10104346202616897,0.32439492016509897,0.7818377964928601,0.5227693703039938
-4791.34835767746,1196.0,-296.0,16672.0,-48.0,-20.0,-301.0,0.11747106945227076,0.30421673068409344,0.7876642739122308,0.5227214556682552
-4791.363971233368,1176.0,-276.0,16784.0,36.0,142.0,-231.0,0.11727046352639534,0.28212763727862156,0.7966195942800791,0.5215830295139298
-4791.3795602321625,1084.0,-328.0,16488.0,74.0,165.0,-193.0,0.11274353734295149,0.2618678222656656,0.8061658046137818,0.5184697039564123
-4791.395135164261,1092.0,-308.0,16344.0,135.0,115.0,-135.0,0.10766570748020894,0.24843226081075545,0.8162895739233272,0.5102556601599983
-4791.410708427429,1004.0,-180.0,16256.0,113.0,-7.0,-102.0,0.11025884459137635,0.24250544858024986,0.8233481730839687,0.5011306022161864
-4791.426296949387,1056.0,-100.0,16260.0,125.0,-15.0,-100.0,0.11306588056304989,0.2371440811224235,0.8306606034312944,0.4908989237595262
-4791.44188284874,960.0,-244.0,16424.0,69.0,-61.0,-110.0,0.12077756794120642,0.23243512626511664,0.8351823832663603,0.483587714734203
-4791.457496166229,972.0,-292.0,16508.0,1.0,-84.0,-51.0,0.12904327222021142,0.23225588750864384,0.8352990746187676,0.4813319982645066
-4791.473053693771,1060.0,-484.0,16456.0,-54.0,28.0,-250.0,0.13858011131197767,0.21217971149142192,0.8381589367517815,0.48297507132697837
-4791.488634109497,1188.0,-44.0,16740.0,-2.0,201.0,-61.0,0.126476892269361,0.19917689795970175,0.8414489908172096,0.48610261765776847
-4791.504226207733,1116.0,-240.0,16696.0,-15.0,354.0,-80.0,0.10409141534057896,0.17801682789668585,0.8456415392542045,0.49230617843551017
-4791.519858837128,1164.0,-168.0,16524.0,10.0,399.0,-100.0,0.07873883176420644,0.1534737627076245,0.8506564997192858,0.4966180826531639
-4791.535434961319,1096.0,-360.0,16324.0,27.0,243.0,-78.0,0.06370421341066929,0.13729378237190282,0.8542825554070591,0.49728614101232455
-4791.550990581512,1132.0,-716.0,16292.0,-25.0,130.0,34.0,0.05283288780265984,0.13403398396346342,0.8534072711071448,0.5009387255251584
-4791.566612005234,1272.0,-328.0,16604.0,-72.0,9.0,91.0,0.04902415682601154,0.14007726306606527,0.8491452248038275,0.5068800445985975
-4791.582193136215,1244.0,-376.0,16476.0,-172.0,-77.0,168.0,0.04938999141340602,0.15515988233914796,0.8388989205588012,0.5193598374402507
-4791.597802877426,1248.0,-368.0,16584.0,-252.0,-124.0,112.0,0.05678685076954569,0.16783347041859584,0.8250837104204342,0.5365109976373057
-4791.61337852478,1280.0,-412.0,16492.0,-299.0,-301.0,72.0,0.07942011162790963,0.18549684931177549,0.8079082160464998,0.5536855418095882
-4791.628957986832,1188.0,-428.0,16608.0,-363.0,-290.0,5.0,0.10542718915846083,0.19717829244640914,0.7875640794443153,0.5742374504881171
-4791.644530057907,1172.0,-288.0,16416.0,-313.0,-197.0,36.0,0.12249836960675235,0.2065276622157199,0.7689710886702671,0.5924727326828312
-4791.660099744797,1224.0,-668.0,16784.0,-282.0,-78.0,21.0,0.13170005827990436,0.20887411613064197,0.7528563720776743,0.6101098108387991
-4791.675746679306,1008.0,-672.0,16760.0,-298.0,244.0,-93.0,0.1259892286464029,0.1862138731618358,0.7409673263693641,0.6327863217233671
-4791.691307783127,1016.0,-448.0,16528.0,-511.0,244.0,-127.0,0.1253799334022523,0.15868209055634036,0.7164852611500933,0.6676441694431239
-4791.7068610191345,1116.0,-452.0,16380.0,-195.0,-89.0,-51.0,0.13660586418644402,0.1585015988566527,0.7046288384307827,0.6780223308132599
-4791.722478151321,972.0,-280.0,16136.0,-137.0,-171.0,35.0,0.14693417164934053,0.16909390304933525,0.6937689130022512,0.68447227592134
-4791.738063812256,936.0,-564.0,16404.0,-94.0,-191.0,111.0,0.15323843671190432,0.18596344456033143,0.6838145139762456,0.6887185849654263
-4791.753638505936,840.0,-644.0,16444.0,-89.0,-204.0,149.0,0.15787612368379575,0.20585337231627648,0.6730316067072752,0.6926239781076157
-4791.769221305847,548.0,-456.0,16424.0,-75.0,-302.0,163.0,0.16705217676168302,0.23251870142790834,0.6609938135771559,0.693625116426871
-4791.784815311432,892.0,-344.0,16364.0,-93.0,-394.0,114.0,0.18466510323931334,0.2613903567294525,0.6467652380183438,0.6922922850541802
-4791.800406694412,976.0,-272.0,16264.0,-28.0,-484.0,14.0,0.21161463520959056,0.29068388010078167,0.6362797750762986,0.682546830513131
-4791.816063642502,932.0,-52.0,16560.0,24.0,-421.0,-41.0,0.23669563933491006,0.31368031806756547,0.6304427200539958,0.669419008624485
-4791.831653356552,908.0,-636.0,16832.0,-38.0,-328.0,-72.0,0.25990993208777746,0.32791592830058475,0.6230497200357153,0.6608532496192399
-4791.847270727158,904.0,-776.0,17016.0,-186.0,-192.0,-105.0,0.28167670993728755,0.328914185530818,0.6106815575682234,0.6629794302099821
-4791.86284160614,880.0,-640.0,16916.0,-10.0,-61.0,-220.0,0.2979237958156783,0.32036115150094663,0.6146992620018699,0.6563192529479247
-4791.87845659256,872.0,-368.0,16632.0,-211.0,50.0,-365.0,0.32186925434145613,0.2921774590243475,0.6135962718214127,0.6591905117298136
-4791.894053936005,880.0,-480.0,16212.0,-19.0,-243.0,-333.0,0.35434211695594964,0.2875603294039318,0.6136652411173144,0.6443335261715836
-4791.909646987915,784.0,-764.0,16224.0,38.0,-167.0,-130.0,0.3696273381608296,0.2910701046077535,0.6136873921321795,0.6340675120409305
-4791.925398349762,884.0,-976.0,16180.0,-29.0,-283.0,58.0,0.3822391594987781,0.308762686145966,0.6011800469694728,0.6301915420849267
-4791.941008090973,1012.0,-768.0,16444.0,-162.0,-220.0,182.0,0.38802756798108196,0.3248302134953715,0.5796782685294222,0.6386650482701939
-4791.956609487534,1196.0,-624.0,17016.0,-316.0,-230.0,161.0,0.39942527118252963,0.33481563101672157,0.5492213330354316,0.6532333987989443
-4791.972252845764,1204.0,-268.0,17144.0,-407.0,369.0,30.0,0.39151527402093367,0.30061501068044794,0.5372655780211398,0.6838801826603237
-4791.98840045929,1112.0,-276.0,17092.0,-451.0,553.0,-204.0,0.38882337145658735,0.24205343904721147,0.5333470474442821,0.7111732879102094
-4792.0041625499725,832.0,-188.0,16844.0,-538.0,455.0,-462.0,0.4066342125650571,0.17351329851164665,0.5235938615156579,0.728279630769889
-4792.019838094711,708.0,-68.0,16744.0,-689.0,409.0,-762.0,0.4447957261325234,0.08777620048168101,0.5033484887819508,0.7355898310092163
-4792.035469293594,604.0,88.0,16748.0,-799.0,527.0,-770.0,0.474531212957568,-0.010876110576427995,0.47549547515303436,0.7406793444242512
-4792.051121234894,468.0,112.0,17012.0,-928.0,653.0,-1433.0,0.5325098139558124,-0.1491111972574189,0.4354780881033392,0.7103224504934823
-4792.066774129868,608.0,-220.0,16668.0,-960.0,758.0,-1830.0,0.5938672556662941,-0.304653061535774,0.38022622674436835,0.6402626111526463
-4792.082391262054,744.0,-608.0,16132.0,-851.0,612.0,-2125.0,0.6558841313519349,-0.44398922535780616,0.30135273697701404,0.5309200522897547
-4792.0980088710785,860.0,-1236.0,15848.0,-641.0,284.0,-1990.0,0.7040485483520538,-0.5370344705553135,0.20718930526179338,0.4159113015822911
-4792.113585233688,1168.0,-1564.0,15460.0,-378.0,-41.0,-1644.0,0.7388848904479678,-0.5820908904512858,0.1125891735528411,0.32022334693150056
-4792.129250764847,1628.0,-1732.0,15432.0,-199.0,-225.0,-1391.0,0.7640994573423198,-0.5975705193214416,0.021618984234122285,0.24206220945814694
-4792.144889831543,1988.0,-2124.0,15392.0,-32.0,-385.0,-869.0,0.7789477460691415,-0.5910264092868763,-0.049925010733627144,0.20355757348355583
-4792.16050362587,2336.0,-2700.0,15736.0,-34.0,-560.0,-267.0,0.7784657890167499,-0.5812140793332548,-0.10224649236402594,0.2138384065470452
-4792.176115274429,2392.0,-2844.0,15996.0,-92.0,-514.0,429.0,0.7599975726436539,-0.5805346409536422,-0.11692425073055107,0.267790850888672
-4792.191732406616,2496.0,-2772.0,16416.0,-330.0,-1005.0,996.0,0.7042117573501787,-0.5842670337865516,-0.1397178386048811,0.378413477053365
-4792.207329750061,2540.0,-2080.0,16760.0,-534.0,-1210.0,1203.0,0.6151480108187771,-0.5845730289259505,-0.16833873758676626,0.5015270362260993
-4792.222939491272,2508.0,-1900.0,16384.0,-754.0,-1239.0,1145.0,0.5019537836803283,-0.5800045279731897,-0.20676686660712593,0.6073587156311092
-4792.238574743271,2628.0,-1504.0,16216.0,-785.0,-1318.0,845.0,0.38918617244955556,-0.5532089660474424,-0.2603073397671919,0.6890094715764887
-4792.254165172577,2660.0,-1076.0,15904.0,-647.0,-1263.0,673.0,0.2861593238686972,-0.5096148054082186,-0.30672211070980365,0.7512171046198806
-4792.269798755646,2704.0,-988.0,15964.0,-438.0,-1195.0,703.0,0.1871354296943686,-0.4572090086811427,-0.33130840495116326,0.8038501067628383
-4792.28538942337,2344.0,-1420.0,15904.0,-336.0,-1025.0,556.0,0.10452765493670038,-0.4044447810431101,-0.34742269103131135,0.8395212100935788
-4792.300978183746,2648.0,-1984.0,15728.0,-240.0,-1010.0,565.0,0.023932133469715372,-0.3477519544568939,-0.3523248272328266,0.8685407574054063
-4792.31657910347,2712.0,-2176.0,15652.0,-243.0,-1045.0,817.0,-0.07695925312788615,-0.29197877814006623,-0.34564287129461424,0.8884574677479201
-4792.332231760025,2732.0,-2524.0,15616.0,192.0,-1170.0,1217.0,-0.1995374416516377,-0.23648660824628562,-0.2886008342539024,0.9060730941636211
-4792.347856283188,3044.0,-2924.0,15744.0,285.0,-1371.0,1788.0,-0.3625211561077077,-0.1744567711194035,-0.20123411680570813,0.8931114581161468
-4792.363439321518,3012.0,-3004.0,15820.0,418.0,-1525.0,1716.0,-0.50629365474088,-0.09670435753045956,-0.09225193168725122,0.8519416549880129
-4792.3790764808655,3284.0,-2312.0,15924.0,554.0,-1783.0,1772.0,-0.6319544216436407,-0.0025194985487423456,0.04174402176458836,0.7738764098607941
-4792.394666671753,3284.0,-2120.0,16084.0,602.0,-1351.0,1867.0,-0.7372310008746688,0.06133013154224962,0.1539498407337002,0.6550026815612383
-4792.410245656967,3252.0,-2248.0,16048.0,568.0,-1151.0,2126.0,-0.8271960768948787,0.11657168020240204,0.24316472682413115,0.4929793194172111
-4792.425857782364,3108.0,-2212.0,16068.0,672.0,-1050.0,2292.0,-0.8877353152750228,0.1578265005820169,0.31619450054764264,0.2950217679274147
-4792.44150018692,2972.0,-2080.0,16112.0,797.0,-1027.0,2425.0,-0.9071315539179947,0.1841445021567973,0.37207282794117796,0.06902866737525942
-4792.457131624222,2652.0,-2028.0,15904.0,858.0,-864.0,2230.0,-0.8849093335397847,0.18916073402592568,0.39988662069747316,-0.14575451521000016
-4792.472734451294,2596.0,-1448.0,15684.0,922.0,-711.0,1794.0,-0.8381193310594933,0.16851023843216267,0.4062440550021098,-0.32268568952366944
-4792.488335847855,2568.0,-1024.0,15252.0,942.0,-790.0,1876.0,-0.7568558995886688,0.14108746677211692,0.40208758382808596,-0.49556941885970507
-4792.503995656967,2756.0,-920.0,15044.0,883.0,-782.0,1793.0,-0.6514874600115942,0.10983887710616502,0.38655266600996374,-0.6434877985822944
-4792.519633769989,3056.0,-1260.0,14960.0,791.0,-1683.0,1864.0,-0.48503507575721844,0.032270385078972036,0.40909001475310885,-0.7722337452878795
-4792.53528213501,3468.0,-1704.0,15492.0,678.0,-2136.0,1993.0,-0.2674028644020854,-0.0670567649218635,0.4333883390926217,-0.8580056211507665
-4792.550863981247,3844.0,-2208.0,15848.0,658.0,-2101.0,2196.0,-0.01897998613318488,-0.15123844058225133,0.43022016530083035,-0.8897624984146943
-4792.566433906555,4092.0,-2728.0,16480.0,1057.0,-1987.0,2461.0,0.25030145468440024,-0.20631013350108385,0.36840384038605134,-0.871242745155704
-4792.582026481628,4156.0,-3212.0,16856.0,1508.0,-1232.0,2738.0,0.5040491609716906,-0.17172938585721034,0.26473751116302346,-0.8039636257568173
-4792.597607135773,3780.0,-3476.0,16944.0,1885.0,-415.0,3215.0,0.7294084151577362,-0.04144184131689286,0.15408148459590212,-0.6652103680716858
-4792.6132044792175,3128.0,-3344.0,16736.0,2113.0,-191.0,3740.0,0.8957562124595263,0.12368295406081077,0.03043661698050011,-0.42590720475443683
-4792.628875732422,3264.0,-2544.0,16084.0,2079.0,30.0,4033.0,0.9513392441549592,0.2768357594512248,-0.08195053595063256,-0.10770197062792614
-4792.6445190906525,3392.0,-932.0,15836.0,1826.0,205.0,4023.0,0.8830908154982103,0.3744140424325478,-0.16729370750882522,0.22798585885965772
-4792.660109043121,3340.0,-344.0,15356.0,1618.0,356.0,4037.0,0.7057140058719721,0.4045243012005948,-0.22386580038811962,0.5368537371304136
-4792.675731897354,3104.0,-652.0,15612.0,1710.0,353.0,3816.0,0.44460005142275977,0.3930186291860464,-0.24100227076414832,0.7679746459839183
-4792.691323041916,2904.0,-1236.0,15896.0,2034.0,694.0,3487.0,0.14662661476286676,0.33134341848821536,-0.18573719038369435,0.9133530921697788
-4792.706912517548,3316.0,-1264.0,15992.0,2336.0,1229.0,2792.0,-0.11715764014101869,0.2064781093963096,-0.061065337205326586,0.9694905374931273
-4792.722505569458,3024.0,-1124.0,16020.0,2587.0,1716.0,2195.0,-0.32302580386117885,0.021683382790145655,0.09569047201033172,0.9412903348686075
-4792.73815202713,2812.0,-1104.0,15620.0,2683.0,1912.0,1719.0,-0.46167449754982975,-0.18689695204841955,0.2460782599413791,0.8314876292593572
-4792.753781795502,2448.0,-1376.0,15360.0,2804.0,1985.0,1418.0,-0.5341687152474707,-0.3931496479909102,0.37341815214081736,0.6485800039989111
-4792.769363164902,2232.0,-1356.0,16116.0,2985.0,2101.0,1373.0,-0.5472124662056304,-0.574066958618484,0.4652709347736328,0.39310126062701156
-4792.784942626953,1480.0,-1692.0,17584.0,3321.0,2929.0,1146.0,-0.5007372426242385,-0.730537879041758,0.46130123983575244,0.052704717627945756
-4792.800536394119,1340.0,-1336.0,19068.0,3109.0,3858.0,863.0,-0.42291505865810697,-0.7777424963762223,0.33144625368667435,-0.3261944870897734
-4792.816115856171,-24.0,-264.0,20704.0,3087.0,4858.0,689.0,-0.2983096748082141,-0.654366936162916,0.09899892502214608,-0.6877604696527965
-4792.831926822662,-3296.0,1636.0,22728.0,2452.0,4961.0,-201.0,-0.19197729543036451,-0.3799248577191235,-0.17006878012272952,-0.8887510509439148
-4792.847479581833,-4776.0,4412.0,24208.0,1315.0,4479.0,-1762.0,-0.20042242866748192,-0.025781030694744345,-0.3717863274507541,-0.9060580087742868
-4792.863110303879,-288.0,5780.0,21872.0,339.0,3737.0,-3005.0,-0.2914448803902319,0.33320950280293665,-0.4338532568751199,-0.7847309477999415
-4792.878706455231,3308.0,1924.0,17824.0,355.0,2528.0,-2919.0,-0.38458141535911744,0.5757039346914945,-0.41439574558040887,-0.5907099800968039
-4792.894289731979,4016.0,-2752.0,16168.0,1993.0,704.0,-1261.0,-0.5126634215974455,0.5774730317025477,-0.4667141956992542,-0.4311368383066638
-4792.90987610817,4568.0,-4004.0,19520.0,2658.0,978.0,228.0,-0.5807162898868622,0.47169930298625645,-0.6036536994863622,-0.27544612779769867
-4792.925555229187,4112.0,-4140.0,21892.0,2141.0,4045.0,370.0,-0.4148476165550296,0.40926000585139305,-0.8125379006636327,-0.01377906507226279
-4792.941179275513,2472.0,-2304.0,21504.0,1412.0,7038.0,644.0,0.02930846843321889,0.27162646761025266,-0.9243879163415227,0.2662086698314942
-4792.956786632538,752.0,812.0,19836.0,767.0,6201.0,623.0,0.4358498418906756,0.0694594524178321,-0.793990576600861,0.4180780597720001
-4792.972404956818,40.0,2492.0,17572.0,-210.0,3994.0,347.0,0.661871264570337,-0.10224277831991979,-0.6150416059991165,0.41616903573850167
-4792.988078594208,12.0,3196.0,15872.0,-94.0,2332.0,-131.0,0.7750980223551496,-0.1815706698920274,-0.4749688829837119,0.37504627417600295
-4793.003713130951,316.0,3776.0,15604.0,415.0,1886.0,-1148.0,0.8807514834396608,-0.1644095380208492,-0.3452371922291043,0.27938791908092986
-4793.019312620163,1412.0,4216.0,15476.0,893.0,1518.0,-2529.0,0.9666735848013497,-0.05446694627022319,-0.23453611505047298,0.0869962237590567
-4793.034960508347,1816.0,3040.0,16452.0,1471.0,1383.0,-2821.0,0.9794884046836944,0.11204045667649437,-0.11471779269580426,-0.12202142925288367
-4793.050563812256,616.0,668.0,18436.0,2271.0,1517.0,-2490.0,0.9003463600366823,0.3302938598028651,0.01460470539649942,-0.2829648400870745
-4793.066174983978,-1388.0,-1124.0,18776.0,3276.0,2143.0,-1419.0,0.7220533866223918,0.6002372879276958,0.13444065554111456,-0.31666988361070025
-4793.081798791885,-2924.0,-1692.0,17512.0,4340.0,2261.0,-173.0,0.4261649884459642,0.8589874810455804,0.15268843956248498,-0.23918643451039076
-4793.09738945961,-4292.0,-1012.0,14908.0,4985.0,1950.0,799.0,0.038990182731863395,0.990782381120051,0.05537315399159922,-0.11731944736334374
-4793.112991571426,-5580.0,360.0,12592.0,4768.0,1461.0,2029.0,-0.32551315187958574,0.9337965950501491,-0.14840219090312537,-0.006472770760515744
-4793.128628015518,-5968.0,1948.0,10896.0,3862.0,853.0,2685.0,-0.579369968418565,0.7288137156393413,-0.3633329097526291,0.03391466174585933
-4793.144251823425,-5020.0,3212.0,10148.0,2948.0,479.0,3125.0,-0.7120350139961961,0.44825421499755846,-0.5404389526479298,-0.0001898451161990767
-4793.159905195236,-4404.0,4532.0,11312.0,2381.0,939.0,3441.0,-0.7126246584499794,0.12908866038550718,-0.6868703669930847,-0.06092054559597119
-4793.175496578217,-3804.0,5280.0,13244.0,1662.0,1610.0,3443.0,-0.5797738809842513,-0.16194666686003786,-0.7846936934011556,-0.14795719501881763
-4793.191109895706,-2592.0,5388.0,14772.0,641.0,1775.0,3168.0,-0.3886737291199505,-0.3697858844383238,-0.7976427140912734,-0.27560339732896094
-4793.206688404083,-1584.0,5400.0,16060.0,-276.0,1836.0,2634.0,-0.19873538929681991,-0.48096842825997055,-0.7395198304464624,-0.4269473462086518
-4793.222261428833,-1112.0,5088.0,17188.0,-1386.0,1776.0,1932.0,-0.0680714552023876,-0.49894418098454785,-0.6171384799065142,-0.6046164717132382
-4793.237848520279,-1132.0,3348.0,17056.0,-1483.0,1458.0,856.0,-0.008797758012390683,-0.4506262974164912,-0.5006306506778808,-0.7390720473218434
-4793.253434181213,-888.0,1952.0,16036.0,-523.0,641.0,-119.0,-0.00902599037695557,-0.40250523105313235,-0.47072733680927864,-0.7850629559806168
-4793.268999576569,-512.0,1592.0,15204.0,742.0,93.0,-839.0,-0.03646720806936723,-0.36041244585170223,-0.5483998646334706,-0.7536780480290045
-4793.284564256668,-380.0,2268.0,14896.0,1465.0,-474.0,-1447.0,-0.10648763583724105,-0.3214936051561985,-0.6772852320318281,-0.6531362489780045
-4793.300153017044,-24.0,3448.0,14740.0,1349.0,-1195.0,-2204.0,-0.25714563178888966,-0.2637935782142704,-0.7811103530196692,-0.5041385608642647
-4793.315792560577,372.0,4372.0,14356.0,1013.0,-1957.0,-2392.0,-0.4546040742885392,-0.2015732724723734,-0.8049685363423852,-0.32361861343846804
-4793.331424236298,340.0,4652.0,14760.0,220.0,-1954.0,-2637.0,-0.6368615152871475,-0.07708871589438386,-0.7496767947093959,-0.16263284939445477
-4793.347036361694,-440.0,4772.0,15072.0,-105.0,-1506.0,-3200.0,-0.7468293043897081,0.11156301575038623,-0.6553534236263826,0.017651452139780567
-4793.36265206337,-324.0,4416.0,15708.0,-819.0,-1852.0,-3907.0,-0.7830904657225899,0.36524084825478864,-0.4646184445485398,0.19364438087844216
-4793.378238916397,-16.0,2308.0,15732.0,-1856.0,-2554.0,-4149.0,-0.6894372376019231,0.6402675041943532,-0.17204596823494098,0.29177731799210366
-4793.393823623657,-692.0,-12.0,15624.0,-2904.0,-2759.0,-3735.0,-0.4272429831659195,0.8492555545781085,0.11621446090973761,0.2876154297480828
-4793.409427881241,-984.0,-884.0,15544.0,-3570.0,-2369.0,-3316.0,-0.050051023854493705,0.9114301208879644,0.3261321053718157,0.24582082823677576
-4793.425032377243,-1356.0,-272.0,16064.0,-4000.0,-1803.0,-3258.0,0.35149181621946013,0.7895892718640731,0.45794756959953536,0.20805361901631766
-4793.44064950943,-1428.0,776.0,16268.0,-4149.0,-1824.0,-3466.0,0.6922652276305128,0.49841168611919506,0.5061899409559836,0.1269897217434274
-4793.456230640411,-1088.0,2276.0,16104.0,-4187.0,-2407.0,-3455.0,0.9048097826991216,0.10594526294155264,0.4124234740233348,-0.0013177506354256677
-4793.471827030182,-1344.0,2516.0,15844.0,-4179.0,-2993.0,-3232.0,0.9285305782402583,-0.30111266752695554,0.18217790616991214,-0.11820887120330408
-4793.48743391037,-1708.0,2308.0,16024.0,-4259.0,-3230.0,-2996.0,0.7382345162113699,-0.6411269011435213,-0.10095381089786191,-0.18377819176787166
-4793.503007888794,-1532.0,1416.0,16152.0,-4057.0,-3271.0,-2735.0,0.3901356889871816,-0.8279931200141407,-0.35554377244094115,-0.1892357346438822
-4793.518635034561,-1760.0,232.0,17132.0,-3345.0,-3439.0,-2300.0,0.003346760154607133,-0.8410519090682211,-0.5293463592412592,-0.11141327302970655
-4793.5342173576355,-2228.0,-148.0,18244.0,-2278.0,-2928.0,-1597.0,-0.29683162901962873,-0.7510799859972165,-0.5897165480692085,-0.0020570807742014705
-4793.549817323685,-1704.0,-20.0,19512.0,-782.0,-2282.0,-1135.0,-0.4537064719635204,-0.6552663474227626,-0.5891046455190924,0.13316218630478863
-4793.565398693085,-1200.0,240.0,19120.0,-229.0,-1885.0,-821.0,-0.5454441344005835,-0.5727597816054968,-0.5550579316330259,0.2575803202003005
-4793.580981731415,-912.0,804.0,17508.0,-76.0,-1765.0,-600.0,-0.613269484078965,-0.493817121609936,-0.4961298821041091,0.3659239407114008
-4793.596555233002,-872.0,1124.0,16308.0,-158.0,-1122.0,-483.0,-0.649585852358644,-0.4260666104692212,-0.4591970904143933,0.4308636629070944
-4793.612143039703,-940.0,1048.0,15060.0,-494.0,-1020.0,-285.0,-0.6946053791167998,-0.3463776836087922,-0.4282028365100045,0.46280470871048895
-4793.627781867981,-1252.0,748.0,14696.0,-934.0,-767.0,-123.0,-0.7424669469736747,-0.25264499490614406,-0.42064761534548784,0.4560360982472982
-4793.643349647522,-1276.0,416.0,14944.0,-1325.0,-376.0,47.0,-0.7818169816101406,-0.15233958027302294,-0.4446091601328427,0.40972863492098865
-4793.658915758133,-1512.0,208.0,16144.0,-1378.0,-353.0,178.0,-0.8139532612220755,-0.05211905039725185,-0.46362541569915333,0.34614327532024025
-4793.674483537674,-1036.0,32.0,17076.0,-1124.0,-467.0,24.0,-0.8340921105692652,0.040665929376181624,-0.4614964155763432,0.2994289426295779
-4793.690052032471,-352.0,-224.0,17732.0,-624.0,-527.0,-120.0,-0.8478673348093417,0.10441617004027062,-0.4376721308663279,0.28046631145353823
-4793.7056221961975,352.0,-252.0,18128.0,-77.0,-483.0,35.0,-0.8657734953365722,0.1204481848605128,-0.40355488734863104,0.2703182243829222
-4793.7211883068085,800.0,232.0,18144.0,274.0,-425.0,55.0,-0.8841382862000599,0.10766658061262677,-0.3649770963879524,0.27110720648227954
-4793.73678278923,824.0,220.0,17352.0,507.0,-420.0,98.0,-0.9031580722637684,0.07516769959570165,-0.32071662391752676,0.2753110251792105
-4793.7523765563965,388.0,32.0,16464.0,89.0,-340.0,170.0,-0.9168899700804392,0.07146681466103659,-0.29246945948700676,0.2620436842121453
-4793.768001794815,-76.0,-348.0,16092.0,-146.0,-304.0,374.0,-0.9314699157740518,0.08042300437608002,-0.2732875650776561,0.2262959194261615
-4793.783588171005,-340.0,-596.0,15756.0,-327.0,-341.0,528.0,-0.9460045638396343,0.10089015239516749,-0.2549769906152298,0.1728678009377802
-4793.799213171005,-368.0,-288.0,15452.0,-365.0,-362.0,389.0,-0.9552794034337615,0.12753028758753862,-0.23339283242013845,0.12924810597444616
-4793.8148102760315,-308.0,176.0,16056.0,-370.0,-481.0,225.0,-0.9620365212410735,0.15882538869457846,-0.1994090780846134,0.09744869050856599
-4793.830458641052,32.0,492.0,16244.0,-216.0,-511.0,71.0,-0.9674571007596944,0.17967339845167718,-0.15891994707156118,0.08055233392797409
-4793.846028804779,280.0,528.0,16796.0,-66.0,-480.0,72.0,-0.9727624201797476,0.1872331577000243,-0.11968452620399672,0.06597448545493118
-4793.861629962921,436.0,476.0,16976.0,35.0,-427.0,64.0,-0.9775250939016846,0.18567453837987452,-0.08405309503961045,0.05389558241809347
-4793.877217292786,408.0,208.0,17160.0,172.0,-396.0,-237.0,-0.981249904647214,0.17417300679848619,-0.04544146041351169,0.06890182877177661
-4793.892799854279,248.0,-84.0,16940.0,309.0,-383.0,81.0,-0.9870636165412086,0.1492578991391041,-0.011913381682972325,0.05731987248805396
-4793.908385038376,140.0,-272.0,16696.0,382.0,-506.0,170.0,-0.9918260900701059,0.1181992098998058,0.031355633758042054,0.036424964885902994
-4793.9240918159485,172.0,-372.0,16272.0,305.0,-562.0,326.0,-0.9925607505635283,0.09398383679760225,0.07738035556164471,0.0015733514293938544
-4793.939785242081,140.0,-220.0,16236.0,143.0,-573.0,409.0,-0.9880264477834182,0.08402913161201206,0.12323540330636518,-0.03944463072369793
-4793.955424070358,80.0,-8.0,16440.0,-112.0,-397.0,408.0,-0.9803321569040111,0.09640763567212371,0.1544092662840598,-0.0762378410611086
-4793.9710030555725,196.0,168.0,16548.0,-295.0,-160.0,329.0,-0.9727512955368529,0.12474096567819686,0.1669034943787338,-0.10167513008210553
-4793.986609220505,16.0,188.0,16688.0,-297.0,-159.0,178.0,-0.9651598270331014,0.15087311896820624,0.18076783430052798,-0.1141350092501687
-4794.002190828323,348.0,240.0,16860.0,-75.0,-12.0,191.0,-0.9619969473227544,0.15986262205529567,0.17977081366631906,-0.12918308699306183
-4794.017781496048,416.0,344.0,16800.0,149.0,-512.0,177.0,-0.9529774982079446,0.14397921198398123,0.2181479409824445,-0.15334715605748525
-4794.033361673355,440.0,292.0,16864.0,388.0,-215.0,-20.0,-0.9533840975185969,0.10819857422804353,0.23069102420172616,-0.16165853669518201
-4794.04892039299,464.0,160.0,17140.0,472.0,-204.0,-151.0,-0.9548913321351363,0.06280313942511073,0.24191739255898856,-0.16035674188818894
-4794.064526081085,420.0,-72.0,16912.0,392.0,-155.0,-362.0,-0.9577800271554916,0.020221164966191398,0.25076445178983964,-0.139160748014579
-4794.080130338669,504.0,-228.0,16816.0,319.0,38.0,-420.0,-0.9633209075567126,-0.015178983060942794,0.24391124066713551,-0.11085907366366508
-4794.095737218857,396.0,132.0,16752.0,248.0,245.0,-406.0,-0.9711427645530598,-0.04224452437916373,0.21984777591690585,-0.0822440662942213
-4794.111311912537,396.0,8.0,16600.0,237.0,350.0,-425.0,-0.9787556004025486,-0.06782523653937024,0.18637027006649698,-0.05199359964809223
-4794.126903057098,272.0,-136.0,16416.0,181.0,303.0,-297.0,-0.9832184970395635,-0.08656010721599713,0.15750083950133922,-0.03134039684481068
-4794.142525672913,304.0,-228.0,16400.0,110.0,325.0,-274.0,-0.9869295797322032,-0.09864108143743006,0.12688930924587521,-0.011791730219757561
-4794.158138990402,348.0,-32.0,16400.0,163.0,275.0,-306.0,-0.9881974668772656,-0.11549877569737614,0.10009001265415131,0.010382130641363105
-4794.1737179756165,400.0,152.0,16592.0,278.0,212.0,-373.0,-0.985978857377831,-0.14253943469113606,0.07802720878168073,0.03794676602265635
-4794.18933391571,432.0,208.0,16436.0,413.0,159.0,-438.0,-0.9790882502416238,-0.1810427878987221,0.06004380172638249,0.07074213074891458
-4794.204896211624,408.0,8.0,16440.0,421.0,61.0,-422.0,-0.9688955990121815,-0.21901689574556918,0.05061768971142941,0.10349283589252821
-4794.220503807068,604.0,-168.0,16644.0,304.0,62.0,-438.0,-0.9584262260676927,-0.24666167971910904,0.039663212816599555,0.13785504884788571
-4794.23610162735,596.0,-492.0,16692.0,229.0,46.0,-304.0,-0.9495451891908495,-0.26699305952271907,0.03198310793024264,0.1614178449191233
-4794.251703739166,680.0,-356.0,16816.0,126.0,-10.0,-126.0,-0.9447714176951997,-0.27733641806228637,0.03163428080695844,0.17172871571292178
-4794.267283201218,648.0,-352.0,16732.0,82.0,32.0,-50.0,-0.9421697688583337,-0.2844317842467782,0.029000454291616573,0.17485325393171317
-4794.282871246338,508.0,-364.0,16856.0,62.0,100.0,-8.0,-0.940793715408348,-0.2907907315964795,0.02150950642749816,0.17287358560227184
-4794.298457860947,484.0,-268.0,16364.0,91.0,88.0,9.0,-0.9388112203050974,-0.2992870512505986,0.01587711850209344,0.16973117183076847
-4794.314044237137,396.0,-56.0,16512.0,109.0,-8.0,-240.0,-0.932235878347054,-0.3080853518815921,0.011871614069638398,0.18941686265450033
-4794.32964348793,552.0,12.0,16496.0,109.0,-20.0,-14.0,-0.9290952878685239,-0.3163605328361465,0.014928519935995808,0.19098455072768267
-4794.345221757889,604.0,200.0,16596.0,149.0,-38.0,-42.0,-0.9242311268574144,-0.327573620487492,0.019336540455300536,0.19523945685186464
-4794.360804080963,520.0,-52.0,16732.0,148.0,37.0,-133.0,-0.9177435331862992,-0.3400598895509296,0.015066144460701241,0.20464381276849566
-4794.376391410828,452.0,-100.0,16880.0,144.0,35.0,-142.0,-0.9109255268378187,-0.35210020423354016,0.010616882952357968,0.21477293248991533
-4794.392050266266,560.0,-168.0,16600.0,184.0,130.0,-139.0,-0.9026401696222104,-0.3689524469497649,-0.0005377437273575082,0.2216179751415756
-4794.407630681992,496.0,-144.0,16484.0,194.0,170.0,-128.0,-0.8937244607347614,-0.38715938380275544,-0.01428670898367622,0.22618596279222555
-4794.423259496689,556.0,-160.0,16684.0,177.0,225.0,-92.0,-0.8854415495386554,-0.4049250580654103,-0.03142462733949507,0.2259235545441923
