programtime,ax,ay,az,gx,gy,gz,q0,q1,q2,q3
-5573.179917097092,4704.0,-2172.0,15808.0,-15.0,-146.0,37.0,0.9999087249225509,-0.0014472024977530212,-0.013039317489514358,0.0032285644018236075
-5573.195512056351,4592.0,-2144.0,15792.0,39.0,-149.0,33.0,0.9996329146318327,0.001813115162314546,-0.026318307366586028,0.006172138643417653
-5573.211112737656,4548.0,-2224.0,15652.0,97.0,-110.0,110.0,0.9991692871578277,0.009909730737900002,-0.03615658611690291,0.015976048247038525
-5573.226698637009,4500.0,-2268.0,15772.0,95.0,-109.0,218.0,0.9981702139684495,0.017456358132069087,-0.04596921871705871,0.035189919543637704
-5573.2422885894775,4568.0,-2228.0,15636.0,139.0,-118.0,254.0,0.9963251710274887,0.028688003718268604,-0.056441261935098117,0.057684798438404634
-5573.257919073105,4628.0,-2260.0,15988.0,117.0,-41.0,233.0,0.9943869191247141,0.037677028924885426,-0.06021750349223192,0.07841523345763557
-5573.27353644371,4704.0,-2168.0,15988.0,17.0,-21.0,184.0,0.992823372738912,0.038087487842577546,-0.06274890505436234,0.09441222763843454
-5573.28915977478,4720.0,-2196.0,16000.0,-104.0,62.0,107.0,0.9925190596677024,0.027740947484378164,-0.058812424265216615,0.10333177043415592
-5573.304766654968,4780.0,-2196.0,15956.0,-135.0,120.0,70.0,0.9926771209530667,0.014393459695011157,-0.050050392243494495,0.10899504617463643
-5573.320352077484,4888.0,-2236.0,16048.0,-87.0,176.0,68.0,0.9927345648538289,0.004711904145010926,-0.03599071005596166,0.11471944252599478
-5573.335932970047,4972.0,-2372.0,15696.0,-80.0,215.0,128.0,0.9918937926489152,-0.004913006403356063,-0.018511099852611665,0.12561809445648284
-5573.351509094238,4892.0,-2344.0,15940.0,-41.0,346.0,178.0,0.9899090198616006,-0.012641478016382459,0.010746609851245797,0.14072965503727772
-5573.367070913315,4892.0,-2256.0,15664.0,-80.0,614.0,246.0,0.9845799449823847,-0.026884820040234444,0.06264897528382495,0.16110445147721805
-5573.382655382156,4796.0,-2196.0,15948.0,-124.0,801.0,144.0,0.9754132070510665,-0.04791691808341065,0.1294122079369084,0.17182993018864734
-5573.398230791092,4736.0,-2212.0,15684.0,-110.0,911.0,53.0,0.9608496340615447,-0.07011782551911575,0.20456817965688145,0.1732146966632351
-5573.413840770721,4620.0,-2256.0,15812.0,-65.0,972.0,-123.0,0.9415938267352637,-0.09210689872122882,0.28302114044673465,0.15753227835027736
-5573.429441213608,4456.0,-2220.0,15732.0,-105.0,937.0,-349.0,0.9189728277006868,-0.12175271629879132,0.3541599022484921,0.12343411870714145
-5573.445028543472,4268.0,-2176.0,15764.0,-113.0,850.0,-589.0,0.8942724333248022,-0.15750946842955255,0.4129382793456655,0.07035310797269549
-5573.460658073425,4132.0,-1988.0,15784.0,-131.0,795.0,-745.0,0.8645468584310328,-0.19853176847645854,0.46163671000407186,0.0059510048948153435
-5573.476251602173,4460.0,-1920.0,15828.0,-200.0,805.0,-878.0,0.8246407194086768,-0.24801792846891155,0.5041008335070609,-0.06585697160222383
-5573.49189043045,4436.0,-1928.0,15784.0,-276.0,865.0,-946.0,0.7702453816973752,-0.30253438352284034,0.5437743047109868,-0.13965852747470314
-5573.507513284683,4480.0,-2156.0,15716.0,-314.0,869.0,-1058.0,0.7026460189531577,-0.3605444192818438,0.5736674363468441,-0.21726013497472726
-5573.5230848789215,4332.0,-2240.0,15936.0,-342.0,912.0,-1162.0,0.6188703260932,-0.4187340808067354,0.5942313456330232,-0.29757418725319773
-5573.538664102554,4428.0,-2168.0,15912.0,-306.0,965.0,-1236.0,0.5205624476026932,-0.46973731977396643,0.6032044484615262,-0.38013942430862085
-5573.5542323589325,4460.0,-2244.0,15772.0,-224.0,1114.0,-1285.0,0.4056181244414791,-0.5049525335773046,0.6017785791658093,-0.467289436661709
-5573.569819927216,4340.0,-2360.0,15628.0,-171.0,1090.0,-1306.0,0.28444241635191364,-0.529253553042414,0.5832455523958013,-0.546633162168544
-5573.585384845734,4220.0,-2468.0,15748.0,-160.0,990.0,-1311.0,0.16243939606428073,-0.5470397759105858,0.5491478068401925,-0.6105715457017091
-5573.600956916809,4128.0,-2512.0,15668.0,-233.0,903.0,-1273.0,0.03981444075726813,-0.5579132470227094,0.5087033278115077,-0.6544986962380146
-5573.616578578949,4076.0,-2504.0,15776.0,-202.0,836.0,-1288.0,-0.08000621360609879,-0.5628553847267354,0.45619781977856133,-0.6845994236762264
-5573.632177352905,4144.0,-2544.0,15764.0,-194.0,766.0,-1248.0,-0.19303644827639196,-0.5606916923381128,0.39775869571542893,-0.7001069745136236
-5573.647847890854,4048.0,-2780.0,16120.0,-155.0,715.0,-1200.0,-0.29658020003106167,-0.5518016392873994,0.333881854000931,-0.70432807937649
-5573.663460016251,4140.0,-2620.0,15756.0,-90.0,665.0,-1096.0,-0.38529083917806917,-0.5370284868401244,0.26767140425188657,-0.7010730296577447
-5573.679202079773,4200.0,-2560.0,15384.0,-17.0,663.0,-1068.0,-0.46418169517606894,-0.517574633403234,0.1951351052180299,-0.6917905343617583
-5573.694844007492,4180.0,-2584.0,15736.0,-12.0,625.0,-1019.0,-0.5340372871707626,-0.49384574755594557,0.12380837680888444,-0.6749755842726098
-5573.710485458374,4180.0,-2568.0,15564.0,-47.0,606.0,-901.0,-0.5930697310581253,-0.4634133948051202,0.05923747675703664,-0.6557493735912345
-5573.726068973541,4064.0,-2616.0,15652.0,-42.0,603.0,-718.0,-0.6368874208338167,-0.42879590619983043,0.0014261660859352743,-0.6407077727483961
-5573.741636991501,3984.0,-2668.0,15784.0,-72.0,428.0,-588.0,-0.6711944746229169,-0.3999100913255307,-0.0401830923996707,-0.6228605102082422
-5573.757211685181,3952.0,-2740.0,15804.0,251.0,219.0,-472.0,-0.6865001969063396,-0.40034217911001607,-0.08291910540767071,-0.6013052812269258
-5573.772780656815,4008.0,-2724.0,15740.0,10.0,113.0,-336.0,-0.7026788344633689,-0.39220082876926976,-0.10178088655622955,-0.5848603394330368
-5573.788357019424,4028.0,-2800.0,15692.0,33.0,49.0,-305.0,-0.7164709098517357,-0.38868645775067884,-0.11673363481715474,-0.5674200660884587
-5573.804006814957,4252.0,-2736.0,16044.0,19.0,93.0,-308.0,-0.7298968110660616,-0.3818001364696336,-0.1337453458845683,-0.5509913642168814
-5573.8195996284485,4312.0,-2628.0,15880.0,16.0,4.0,-252.0,-0.7413108375026923,-0.3794198105665342,-0.14298378087199481,-0.5348406192112388
-5573.835252046585,4272.0,-2640.0,16092.0,81.0,352.0,-3.0,-0.7340678244082935,-0.36783671254153616,-0.1694068196705786,-0.5451072477267296
-5573.850835561752,4292.0,-2704.0,15796.0,97.0,364.0,-276.0,-0.7381481675314021,-0.3521993641795759,-0.20587497910599464,-0.5373159067249373
-5573.866448640823,3848.0,-2720.0,15932.0,74.0,499.0,-252.0,-0.7378948407809358,-0.3284869786921538,-0.24877776375634839,-0.534525147246571
-5573.88202381134,4060.0,-2640.0,15808.0,110.0,296.0,-215.0,-0.7379990330555332,-0.3167860498436359,-0.27880722602247543,-0.5265648645240353
-5573.897620439529,4076.0,-2608.0,15888.0,145.0,318.0,-169.0,-0.7336652393731922,-0.30710321269718616,-0.31027233586077735,-0.52072450574756
-5573.913260936737,4016.0,-2600.0,16084.0,192.0,363.0,-211.0,-0.7277590992303441,-0.2968373159867605,-0.3474424479595012,-0.5114079063537478
-5573.92892241478,3944.0,-2804.0,15780.0,195.0,277.0,-196.0,-0.7227082138088585,-0.29065143388008435,-0.37842821586703246,-0.5000066670679053
-5573.944519042969,3980.0,-2608.0,15704.0,224.0,233.0,-219.0,-0.7185464376384487,-0.2871292825309817,-0.40805402622523346,-0.48449943627595204
-5573.9601085186005,4016.0,-2424.0,16116.0,236.0,215.0,-253.0,-0.7153003627531933,-0.2835738881943399,-0.43742236922549727,-0.46539543603332273
-5573.975727558136,4040.0,-2424.0,15888.0,174.0,275.0,-328.0,-0.7133189229003289,-0.27045667834486936,-0.4692443971955657,-0.44479095659820295
-5573.991322278976,4044.0,-2352.0,15940.0,112.0,311.0,-447.0,-0.7145334751623231,-0.24669849496423432,-0.502770317480414,-0.4192896055418962
-5574.006908655167,4072.0,-2340.0,15908.0,114.0,320.0,-497.0,-0.7153238360409995,-0.21993341813046213,-0.5367213754353035,-0.38970664137512057
-5574.022500991821,4088.0,-2328.0,15744.0,189.0,218.0,-584.0,-0.7202733127663927,-0.19660096123509815,-0.5669234608303199,-0.34806925534745903
-5574.038074970245,3976.0,-2412.0,15872.0,286.0,102.0,-596.0,-0.7272788731290303,-0.18164486037230257,-0.5911197595618419,-0.29773816560200167
-5574.05366230011,3952.0,-2456.0,15764.0,223.0,37.0,-532.0,-0.7348189367814927,-0.16714427732869283,-0.6068064539192349,-0.252764412419053
-5574.069276332855,3952.0,-2512.0,15928.0,130.0,-51.0,-370.0,-0.7434386305741286,-0.15688476001929816,-0.6113193034794279,-0.22130269731112262
-5574.08487868309,4048.0,-2476.0,15880.0,120.0,8.0,-382.0,-0.748386443067744,-0.1440145885656374,-0.6188925078165926,-0.1901304654209028
-5574.100484371185,4032.0,-2500.0,15624.0,124.0,251.0,-377.0,-0.7390028771708693,-0.12744590957392288,-0.6414347075968604,-0.16184499855164677
-5574.116081237793,4036.0,-2520.0,15828.0,117.0,-95.0,-387.0,-0.7480919617552088,-0.11456464439739876,-0.6407337490481423,-0.12920379964247522
-5574.131711959839,4016.0,-2484.0,15892.0,131.0,-171.0,-371.0,-0.7600936147007822,-0.10419758013578106,-0.6341979127722821,-0.0958830987204047
-5574.147307395935,3852.0,-2428.0,16104.0,97.0,-170.0,-352.0,-0.7711898693408148,-0.09248443051749487,-0.6264284363022561,-0.06557613689340046
-5574.162892580032,4112.0,-2484.0,15952.0,112.0,-146.0,-349.0,-0.7799027033747937,-0.0816988007714102,-0.6195716048568312,-0.03475781460812365
-5574.178488731384,4204.0,-2480.0,15992.0,75.0,-180.0,-344.0,-0.7897741523797515,-0.06867608215468851,-0.6095116997697723,-0.005989308515210048
-5574.194068670273,4076.0,-2432.0,15784.0,17.0,-216.0,-317.0,-0.8009784341938871,-0.053035308175412535,-0.5960658158036157,0.018065084373396382
-5574.209658622742,3916.0,-2468.0,15700.0,247.0,-363.0,-306.0,-0.8174451153641902,-0.05372172533404008,-0.5709526549218665,0.053949285741627905
-5574.225301265717,4080.0,-2280.0,15684.0,-55.0,-525.0,-289.0,-0.8414411938336276,-0.03284256518213756,-0.5342200583023045,0.07420924834263794
-5574.240884304047,4096.0,-2356.0,15868.0,-47.0,-558.0,-321.0,-0.8642390971982784,-0.01075499618191492,-0.49351153565054934,0.09706429369685037
-5574.256496429443,4200.0,-2320.0,16108.0,-80.0,-451.0,-317.0,-0.880108654489873,0.012776206838168644,-0.45973728518222484,0.11784376709920344
-5574.272073507309,4160.0,-2256.0,16012.0,-62.0,-382.0,-345.0,-0.8909982747875951,0.035308342922758654,-0.4300046790931061,0.14132010190915237
-5574.287653207779,4164.0,-2200.0,15864.0,-93.0,-361.0,-375.0,-0.8987655107106882,0.06103115842342861,-0.4012804218710692,0.1657400901454658
-5574.303216934204,4060.0,-2160.0,15616.0,-95.0,-406.0,-517.0,-0.9035647729233393,0.09233006371472394,-0.3672077166858369,0.2005102323394078
-5574.318818807602,3840.0,-2252.0,15876.0,-93.0,-462.0,-758.0,-0.9016982202165408,0.13165355707325724,-0.32506476539595736,0.2528647046670458
-5574.334423780441,4012.0,-2188.0,15824.0,-148.0,-490.0,-274.0,-0.906756117949507,0.1616705887031456,-0.28599889613867135,0.26431154858798633
-5574.350027561188,4024.0,-2256.0,16008.0,-168.0,-395.0,-463.0,-0.9022581053153562,0.19530643683850282,-0.2514379227232712,0.2908000655756425
-5574.365611076355,4080.0,-2280.0,16048.0,-133.0,-312.0,-462.0,-0.8940529182602608,0.2234979507726111,-0.2218302181430803,0.31860539805431526
-5574.381205320358,3892.0,-2252.0,15964.0,-143.0,-250.0,-544.0,-0.8797647899456535,0.25168862069478914,-0.19515109431932307,0.35296289177561635
-5574.3967871665955,3940.0,-2192.0,15840.0,-122.0,-300.0,-508.0,-0.8654038539017798,0.27844995350879703,-0.1642446610113011,0.3828387184862295
-5574.412393569946,3976.0,-2200.0,15952.0,-125.0,-378.0,-617.0,-0.8454861726541906,0.3085879511716148,-0.12439476099262811,0.4176751748426764
-5574.428050279617,4212.0,-2284.0,15920.0,-98.0,-378.0,-589.0,-0.8239647704714459,0.3351825267370785,-0.08385025708495997,0.44911453458875156
-5574.443641424179,4172.0,-2276.0,16076.0,-59.0,-224.0,-624.0,-0.7981277203065876,0.3519740428605261,-0.05155331724453842,0.4862598798088426
-5574.459256649017,4224.0,-2208.0,16204.0,-41.0,245.0,-627.0,-0.7678821862871955,0.34643042693233245,-0.050887364540109996,0.5364264939471585
-5574.474834442139,4076.0,-2544.0,16052.0,-13.0,111.0,-571.0,-0.739363001127901,0.34396887386187097,-0.041500533467167325,0.5773261401489458
-5574.490435838699,4016.0,-2280.0,15864.0,-38.0,62.0,-557.0,-0.709130518270649,0.3446661229714061,-0.030552168443368853,0.6143335712269585
-5574.5060069561005,3836.0,-2300.0,15844.0,-113.0,-117.0,-518.0,-0.6775626096330549,0.35867180106711444,-0.013688398951034,0.6419315203981448
-5574.521587610245,3892.0,-2244.0,15732.0,-125.0,-297.0,-493.0,-0.6455877665088344,0.38254752071194276,0.012347394852580577,0.66084897818763
-5574.537162065506,4156.0,-2188.0,15860.0,-107.0,-372.0,-487.0,-0.6126828397152184,0.4086708575727896,0.043362788388167255,0.6750759488179234
-5574.552738189697,4348.0,-2180.0,15832.0,-42.0,-322.0,-491.0,-0.5803340381439356,0.42724058023272926,0.07552003237552059,0.6891840214949521
-5574.568336248398,4540.0,-2196.0,15920.0,28.0,-191.0,-528.0,-0.5477646646040727,0.43309215516599925,0.10641215246599799,0.7078569849569976
-5574.58395409584,4564.0,-2368.0,15972.0,-9.0,-54.0,-468.0,-0.5176390009076673,0.43193847666264046,0.12596478979115197,0.7277443842796318
-5574.599537849426,4520.0,-2372.0,15892.0,-34.0,97.0,-473.0,-0.4870123019260961,0.4215341972936777,0.13705688393620383,0.7525578707649783
-5574.615121126175,4392.0,-2512.0,16080.0,24.0,139.0,-765.0,-0.4383672426919038,0.40111058454200194,0.1604083093527733,0.7881710688636419
-5574.630708217621,4412.0,-2768.0,16080.0,91.0,155.0,-536.0,-0.40642541799496446,0.3788152830611543,0.17915852144118372,0.8119233862390741
-5574.646286249161,4220.0,-2532.0,15952.0,129.0,124.0,-476.0,-0.37859291040029164,0.3574802930842775,0.19929776888535392,0.8301539902742959
-5574.6618683338165,4144.0,-2384.0,15944.0,131.0,178.0,-344.0,-0.36068865662626187,0.33389320718177434,0.21334001868299685,0.844337050950241
-5574.677444219589,3996.0,-2276.0,16104.0,182.0,183.0,-372.0,-0.34178459435354214,0.30735694205330716,0.23147068180531916,0.8574009124667442
-5574.693022489548,3844.0,-2208.0,15704.0,156.0,106.0,-326.0,-0.32360616127236097,0.287894631940765,0.2483936132420993,0.8664273461674629
-5574.708631515503,4052.0,-2196.0,15620.0,108.0,71.0,-313.0,-0.3041236769244172,0.27245627590946037,0.2620906221622794,0.8744054394993835
-5574.724234342575,4224.0,-2236.0,16112.0,122.0,56.0,-303.0,-0.2851287407902002,0.257806487924425,0.2767810783574517,0.8806983879982717
-5574.7398335933685,4392.0,-2220.0,16080.0,91.0,5.0,-394.0,-0.2569180169803383,0.24540590559575848,0.2921048628710726,0.8879435923169267
-5574.755442142487,4456.0,-2088.0,16180.0,86.0,531.0,-568.0,-0.2278104387027027,0.1873361130627496,0.29809980464159763,0.907823821692989
-5574.771048069,4396.0,-2380.0,16008.0,101.0,726.0,-772.0,-0.18644060928612802,0.10722955743646394,0.3027314139540788,0.9284909327647533
-5574.786643266678,4280.0,-2316.0,15856.0,59.0,710.0,-936.0,-0.1292767428619113,0.02390898885186752,0.3028650205458256,0.9439219582872693
-5574.802214860916,4072.0,-2220.0,15724.0,-14.0,604.0,-1280.0,-0.03950374907255302,-0.05899445559853771,0.29507243608476397,0.952833335626356
-5574.817821025848,3980.0,-2252.0,15856.0,-80.0,704.0,-1102.0,0.033355428426363236,-0.14457913116415003,0.27827269355477663,0.9489723906669164
-5574.833407402039,3896.0,-2288.0,15852.0,-63.0,275.0,-1108.0,0.11706241983052566,-0.19333433892140317,0.25838576024426463,0.939231080278032
-5574.848987579346,4152.0,-2100.0,15768.0,-41.0,108.0,-1091.0,0.20244919948123477,-0.22600372746458325,0.23645208623166794,0.923053112078722
-5574.864578008652,4112.0,-2164.0,15852.0,-68.0,56.0,-785.0,0.2625896146742814,-0.2471506937298641,0.21578999008745461,0.9074127556035982
-5574.880168199539,4080.0,-2556.0,15764.0,-123.0,-20.0,-925.0,0.3325005450249842,-0.2647482609077239,0.1848490181905753,0.8861052907969824
-5574.895845651627,4176.0,-2420.0,15684.0,-172.0,-124.0,-824.0,0.3932099060358491,-0.27249929626438923,0.14833194997734614,0.8655216553885925
-5574.911476612091,4156.0,-2532.0,15584.0,-205.0,-337.0,-782.0,0.45050193882014056,-0.26322635606301065,0.10221854268714166,0.8469422991703747
-5574.9271540641785,4488.0,-2480.0,15808.0,-182.0,-378.0,-770.0,0.5051829865121397,-0.24835828677279084,0.055890440855423315,0.8246117693502476
-5574.942784070969,4640.0,-2548.0,15880.0,-212.0,-327.0,-705.0,0.5516131970473697,-0.23678336171876918,0.010753734166935803,0.7997129970544465
-5574.958413600922,4764.0,-2432.0,15772.0,-173.0,-73.0,-594.0,0.5887557314309622,-0.23996138188056515,-0.017222331689941226,0.7716790882253606
-5574.974015712738,4744.0,-2376.0,15840.0,-187.0,-19.0,-663.0,0.6283927702713786,-0.24658152259848504,-0.044717323116245156,0.7364240897723217
-5574.989624738693,4620.0,-2380.0,15824.0,-184.0,239.0,-708.0,0.6694361957748957,-0.2683949544434982,-0.058641276994428795,0.6902032518383052
-5575.005213737488,4600.0,-2536.0,15836.0,-150.0,39.0,-775.0,0.7111946156387652,-0.27462009022714234,-0.08344527982872861,0.6417342986036905
-5575.020884037018,4296.0,-2716.0,15884.0,-123.0,58.0,-605.0,0.7415513892104271,-0.2804153124488887,-0.10115825567008217,0.601028948565761
-5575.036504030228,4080.0,-2708.0,15944.0,-30.0,34.0,-380.0,0.7607112335977249,-0.28035679136782704,-0.1098212546738674,0.5750285041926375
-5575.052083969116,3956.0,-2724.0,15928.0,-27.0,-39.0,-215.0,0.7704100999275517,-0.2778069808071332,-0.11904576253858067,0.5613552046307693
-5575.0677173137665,3940.0,-2724.0,16092.0,20.0,-113.0,-47.0,0.7720633200365397,-0.27014736801712896,-0.12682689615545276,0.5611181406969015
-5575.0832862854,3776.0,-2668.0,15976.0,113.0,-200.0,72.0,0.7689001994535773,-0.25320213988869017,-0.1330618815117912,0.571817886502844
-5575.098865032196,3772.0,-2568.0,15892.0,155.0,-328.0,190.0,0.7586278179877436,-0.228209055582904,-0.1430591173720885,0.5932440894453419
-5575.114490509033,3780.0,-2480.0,15988.0,176.0,-420.0,277.0,0.7418186333567564,-0.1977654786580672,-0.15606590646615867,0.6214799783538935
-5575.130083084106,3832.0,-2404.0,15896.0,235.0,-492.0,405.0,0.7160181644258286,-0.1608041012699138,-0.16786557378577135,0.6582409728698269
-5575.145670413971,3940.0,-2324.0,16068.0,277.0,-441.0,494.0,0.6837899950682678,-0.12485418209304291,-0.1721922387675998,0.6979917684089245
-5575.161324262619,3996.0,-2428.0,16024.0,300.0,-379.0,540.0,0.6472361635666155,-0.0914941129322033,-0.1702470356189664,0.7373805820153342
-5575.176901817322,4092.0,-2480.0,15920.0,318.0,-286.0,552.0,0.6089304265898171,-0.06290447046056617,-0.16116222386367457,0.7741275739621566
-5575.192517280579,4116.0,-2488.0,15916.0,369.0,-261.0,584.0,0.5667063030298266,-0.033492990995681225,-0.14652899302270886,0.8100934760039612
-5575.20811009407,4148.0,-2512.0,15956.0,348.0,-274.0,705.0,0.5130704461474441,-0.005589545568838937,-0.1330276438664604,0.8479570273532347
-5575.223751783371,4176.0,-2392.0,15872.0,275.0,-287.0,748.0,0.45332194179633295,0.01955066386166214,-0.1248062519504126,0.8823493571724642
-5575.239326238632,4172.0,-2416.0,16004.0,247.0,-173.0,782.0,0.38979561156749437,0.03436087880222783,-0.11365398432766148,0.9132149161380958
-5575.254899024963,4112.0,-2400.0,16044.0,285.0,-92.0,655.0,0.33519803066703346,0.045127791141963754,-0.09586140551841252,0.9361711134379357
-5575.270459890366,4296.0,-2364.0,16092.0,272.0,66.0,489.0,0.2943934846508973,0.043860937587482315,-0.07363806550980587,0.9518330366492973
-5575.286025285721,4212.0,-2320.0,15936.0,297.0,66.0,446.0,0.25635959343109466,0.04337918368269119,-0.0490850307126064,0.9643591991777802
-5575.301616668701,4124.0,-2244.0,15860.0,286.0,-242.0,339.0,0.2254908629792775,0.0688757504937019,-0.03189008323673479,0.9712842139651732
-5575.317224979401,4184.0,-2172.0,15748.0,255.0,35.0,393.0,0.19056964857828187,0.06995720133291307,-0.012210823121299404,0.9791016774682376
-5575.332873106003,4208.0,-2276.0,15932.0,208.0,115.0,256.0,0.16745213008533877,0.06344481798365753,0.00561943342195558,0.9838205939951244
-5575.348468780518,4152.0,-2404.0,15856.0,225.0,215.0,188.0,0.14986586330921944,0.04849177155500422,0.026730933610901654,0.9871546121526908
-5575.364073038101,4084.0,-2416.0,15980.0,154.0,174.0,134.0,0.13720997262230078,0.03597796668550504,0.04140596449751275,0.9890220196892457
-5575.379662513733,4104.0,-2356.0,15820.0,208.0,179.0,70.0,0.1298134283355271,0.02343843413418137,0.06098368964714231,0.989383698686276
-5575.395278215408,4072.0,-2560.0,15940.0,185.0,121.0,44.0,0.12495360433394646,0.015485517287434856,0.07794092635306316,0.9889752309929315
-5575.410855770111,4348.0,-2308.0,16100.0,148.0,68.0,26.0,0.12201903812758813,0.011587159185479737,0.09113964188841002,0.9882664912627975
-5575.42646074295,4152.0,-2260.0,15824.0,114.0,226.0,-64.0,0.1255782557858592,-0.007025822431488398,0.1031410396233247,0.9866826569056345
-5575.442044258118,4160.0,-2320.0,15880.0,106.0,148.0,-122.0,0.13477947303655297,-0.019522715374145568,0.11352779746744257,0.9841568962490689
-5575.457621335983,4188.0,-2420.0,15916.0,214.0,252.0,-182.0,0.14818956528484897,-0.040250549701028614,0.13422628199964287,0.978980618403656
-5575.473186969757,3848.0,-2340.0,16036.0,232.0,205.0,-187.0,0.1624942326901149,-0.056752890129585606,0.15570470108120962,0.9726925412819825
-5575.488770484924,4132.0,-2256.0,15704.0,205.0,34.0,-239.0,0.18326228580037507,-0.05977742153020807,0.172089999935029,0.9660365554164
-5575.504341840744,4164.0,-2256.0,15816.0,168.0,-51.0,-195.0,0.2012894570363525,-0.055534858062605774,0.18412091171200345,0.9604675548379119
-5575.519983053207,4260.0,-2216.0,15856.0,127.0,-73.0,-249.0,0.22387641586176088,-0.05100846850282782,0.19196160025739206,0.9541636288333931
-5575.535547018051,4168.0,-2356.0,15936.0,93.0,51.0,-104.0,0.23207658541018772,-0.05502921253123879,0.1999623255679578,0.9503301071869678
-5575.551137685776,4200.0,-2376.0,15940.0,35.0,24.0,-151.0,0.2443275465864373,-0.0587958515603142,0.2023481090573095,0.9465211780933805
-5575.566723823547,3996.0,-2440.0,15856.0,37.0,-39.0,-123.0,0.25535254509240546,-0.056813529676636505,0.2036672256701966,0.9434442017142922
-5575.58230471611,4180.0,-2424.0,15744.0,33.0,-174.0,-190.0,0.2741857011062775,-0.04497564405234042,0.20125225214652515,0.9393066186059202
-5575.597923755646,4180.0,-2376.0,15844.0,46.0,-195.0,-226.0,0.2962180984518167,-0.031714407162211536,0.19913399674635146,0.9335923552963378
-5575.613518476486,4368.0,-2356.0,15920.0,65.0,-93.0,-239.0,0.31740578702135247,-0.026476894284568123,0.20103946172090295,0.9263561276665521
-5575.62915968895,4292.0,-2324.0,15804.0,104.0,-44.0,-175.0,0.332515926254424,-0.02298709156963629,0.20751607766291813,0.919696596666384
-5575.644752979279,4132.0,-2320.0,16044.0,130.0,-68.0,-234.0,0.35269511498777684,-0.017881690697161234,0.21516912764634966,0.9104881369405529
-5575.660343408585,4124.0,-2380.0,15712.0,210.0,-142.0,-285.0,0.37813619511118096,-0.005384468223203611,0.22663803521130452,0.8975629373165714
-5575.67596244812,4268.0,-2360.0,15804.0,213.0,-248.0,-294.0,0.40588360474579954,0.015331304876188077,0.23454980867075137,0.883181656139813
-5575.691532373428,4376.0,-2560.0,15812.0,178.0,-211.0,-156.0,0.4218387717189024,0.034758333126093874,0.24063078040286295,0.8734647883433495
-5575.707103729248,4244.0,-2360.0,15888.0,146.0,-102.0,-10.0,0.42426013790898015,0.04774002914331263,0.24772330219423078,0.8696880995787137
-5575.722686290741,4288.0,-2484.0,15948.0,133.0,-247.0,42.0,0.4257381849331604,0.07233387591474465,0.24813955401051507,0.8671456452179362
-5575.738257408142,4296.0,-2432.0,15836.0,172.0,-128.0,-37.0,0.43015673923274633,0.08761303329127162,0.2563069445455772,0.8611596171836345
-5575.753835201263,4360.0,-2440.0,15676.0,255.0,-139.0,-29.0,0.4333656523362725,0.10695888340709707,0.2701114862502656,0.8531083129539511
-5575.7694256305695,4204.0,-2236.0,15400.0,335.0,-104.0,-65.0,0.4373305704838944,0.12577545964019185,0.2913177884413871,0.8414609034352987
-5575.784998416901,4104.0,-2188.0,15760.0,437.0,-69.0,77.0,0.4283202361977024,0.14934841295318455,0.31943078411567405,0.8319860581591226
-5575.800595521927,4420.0,-2340.0,15776.0,461.0,-49.0,205.0,0.4084068130843387,0.17566218670201392,0.3478199179314364,0.8254501655942228
-5575.816237211227,4212.0,-2356.0,15764.0,521.0,-86.0,277.0,0.38257141025450553,0.2085250940510546,0.3773077112622304,0.8171874278456168
-5575.831854104996,4240.0,-2468.0,15576.0,595.0,-187.0,423.0,0.34699380201993496,0.25507415547008555,0.4047225373018075,0.8066797037058511
-5575.847446680069,4004.0,-2436.0,15760.0,669.0,-8.0,531.0,0.2941899442523056,0.2937951439975036,0.43836299172115273,0.7968529209042231
-5575.863049507141,4196.0,-2520.0,15392.0,690.0,-425.0,756.0,0.23906303837566162,0.3682392156135756,0.45377210339339913,0.7754609093621843
-5575.878648519516,4080.0,-2488.0,15460.0,632.0,-708.0,788.0,0.1923413810731318,0.45786589280629725,0.45368734105988495,0.7399536565850487
-5575.894221782684,4332.0,-2356.0,15584.0,781.0,-826.0,897.0,0.13482265282621783,0.5553812189499573,0.45071587301934507,0.6857330061554352
-5575.909796476364,4580.0,-2296.0,15656.0,658.0,-1040.0,957.0,0.08575331486284757,0.6569244640474424,0.42744368013037487,0.6151329269699483
-5575.925528287888,4668.0,-2248.0,15828.0,552.0,-1095.0,1127.0,0.034066695138127226,0.7539338644050577,0.3802037035037538,0.5346665617257654
-5575.941191196442,5128.0,-2416.0,15380.0,466.0,-1098.0,1248.0,-0.018225400926054142,0.8384810612881624,0.3129783293899412,0.44571505466434824
-5575.956785440445,4864.0,-2600.0,15780.0,650.0,-916.0,1230.0,-0.0877370045981575,0.8972264661250801,0.24707474241306465,0.35530403624271056
-5575.972414255142,4848.0,-3048.0,15780.0,697.0,-794.0,1302.0,-0.16387627141040806,0.9346133793733788,0.17096192254145867,0.265357155181132
-5575.988099336624,4692.0,-2716.0,15840.0,765.0,-517.0,1349.0,-0.24736027028085733,0.9461695609867643,0.08514978649440134,0.1905926871856652
-5576.003758192062,4956.0,-2524.0,15912.0,712.0,-849.0,1428.0,-0.3197138433277176,0.9438362076557567,-0.002584513822651181,0.08336421169134797
-5576.019388914108,4956.0,-2240.0,15928.0,550.0,-944.0,1331.0,-0.3708226987345292,0.9246450851823486,-0.0809813114419124,-0.03104866741932493
-5576.03496670723,4900.0,-2264.0,15584.0,544.0,-991.0,1255.0,-0.4139277947181299,0.8858743312303944,-0.15003945565072235,-0.1462142666600021
-5576.0506155490875,4672.0,-2548.0,15380.0,636.0,-959.0,1182.0,-0.45595407419269346,0.8266120085913601,-0.2126966551830222,-0.2521479770959815
-5576.0662150383,4508.0,-2672.0,15648.0,819.0,-839.0,1069.0,-0.5023809079824346,0.7485083145856839,-0.2718417271446834,-0.33682458591058756
-5576.081797361374,4896.0,-2632.0,15864.0,871.0,-744.0,1005.0,-0.5426976825606011,0.6587272972360725,-0.3275606181098472,-0.40529201161990164
-5576.097380399704,4940.0,-2312.0,15780.0,851.0,-765.0,1030.0,-0.5720053751928322,0.5568208616344871,-0.37720286358790023,-0.46955125226137195
-5576.112962722778,4896.0,-1980.0,15720.0,574.0,-957.0,1010.0,-0.5850703329564422,0.4517159300178007,-0.3985312772763197,-0.5429716798276838
-5576.128567934036,4896.0,-2116.0,15112.0,401.0,-1113.0,956.0,-0.5891957185828514,0.34213392854734953,-0.3948163975010576,-0.6163706615379103
-5576.144143104553,4792.0,-2368.0,15340.0,457.0,-1258.0,856.0,-0.5945220466668513,0.21924942050836566,-0.3765196319439887,-0.6758004101763829
-5576.159775733948,4368.0,-2776.0,15456.0,570.0,-1321.0,766.0,-0.597701446856933,0.08561839245029257,-0.3525086418195145,-0.7149546340446488
-5576.175359487534,4760.0,-2748.0,15792.0,650.0,-1334.0,733.0,-0.5917648419815464,-0.05360172884558228,-0.3253444179550921,-0.7355897199966718
-5576.190953493118,4948.0,-2252.0,16252.0,561.0,-1200.0,812.0,-0.5659342853784457,-0.18104033345311965,-0.2926483976405413,-0.7491993710987714
-5576.206550359726,5020.0,-1736.0,16376.0,312.0,-1171.0,650.0,-0.5445227037408995,-0.2875192842495939,-0.24294234747715696,-0.7495376588921935
-5576.222150325775,5356.0,-1488.0,16316.0,10.0,-938.0,470.0,-0.5312054523514055,-0.35772905930909765,-0.18621704136061454,-0.7450999268721384
-5576.237757205963,4864.0,-1648.0,16060.0,-106.0,-774.0,284.0,-0.527259261213785,-0.4065536352114898,-0.1340323583252197,-0.7339939646089716
-5576.253363609314,4644.0,-1936.0,15824.0,-150.0,-638.0,135.0,-0.5305167373089754,-0.4411845639659917,-0.0899684404226673,-0.7182018182106545
-5576.268929243088,4420.0,-2244.0,15736.0,-75.0,-604.0,166.0,-0.5269723417405192,-0.47598062805966523,-0.050709811040643545,-0.7022614241268434
-5576.284482717514,4288.0,-2312.0,15736.0,-16.0,-743.0,239.0,-0.5151157978530658,-0.5204619924489442,-0.0055194668008694886,-0.6809879328626233
-5576.300088644028,4308.0,-2552.0,15572.0,19.0,-821.0,356.0,-0.4920254675876056,-0.5683876586918757,0.04636305993929092,-0.6577969864365688
-5576.3157081604,4556.0,-2520.0,15488.0,41.0,-859.0,415.0,-0.46112809475458555,-0.6155007267720607,0.10118154620609521,-0.6310958962617448
-5576.33132648468,4816.0,-2348.0,15360.0,-254.0,-843.0,533.0,-0.4362523459989238,-0.6442725850452683,0.17704988507639405,-0.6027023021060716
-5576.346910238266,4964.0,-2276.0,15776.0,-80.0,-700.0,261.0,-0.4153560179958479,-0.6724501584640684,0.22211574709001675,-0.5709244762583978
-5576.362493515015,4944.0,-2100.0,15884.0,-112.0,-531.0,436.0,-0.3892362149225653,-0.6850247523055607,0.2720307558203353,-0.5524812445769329
-5576.378069162369,5060.0,-2076.0,16096.0,-91.0,-462.0,343.0,-0.36673964564159645,-0.6950713318906981,0.3122060951106115,-0.5337651450536566
-5576.393647432327,5064.0,-2192.0,15944.0,-46.0,-461.0,258.0,-0.34462416107773786,-0.7072005719061516,0.34437206193499914,-0.5123567328099773
-5576.409217119217,5080.0,-2308.0,15744.0,39.0,-473.0,320.0,-0.3133404785272339,-0.7189325043433966,0.3761210938680135,-0.4934437368762369
-5576.424866199493,4960.0,-2364.0,15700.0,93.0,-464.0,369.0,-0.2760396862026397,-0.7282788171039688,0.4073837278175894,-0.47691776493252613
-5576.440426111221,4908.0,-2356.0,15692.0,109.0,-433.0,451.0,-0.23461550621046018,-0.7317100849475489,0.4412521154875691,-0.4635218294853064
-5576.456054925919,4856.0,-2184.0,15580.0,81.0,-481.0,439.0,-0.1928712936677807,-0.7346647813702417,0.47506376408943873,-0.44427777700702714
-5576.471629142761,4756.0,-2152.0,15624.0,125.0,-569.0,496.0,-0.1417380882071177,-0.736582609580834,0.5104450591515267,-0.4204785549850008
-5576.487251996994,4836.0,-2124.0,15696.0,177.0,-499.0,512.0,-0.08917108776066737,-0.7327254476965416,0.5419021523988938,-0.40187559347505514
-5576.502817630768,4960.0,-2160.0,15936.0,212.0,-395.0,544.0,-0.03778944338223779,-0.7211045869187047,0.5712322097405439,-0.39022287894048446
-5576.5184161663055,4948.0,-2064.0,15632.0,211.0,-316.0,422.0,0.005604499437579125,-0.7106230699911673,0.5909020087682815,-0.3818615691791891
-5576.53399515152,4964.0,-1860.0,15972.0,150.0,-240.0,262.0,0.03599352958955825,-0.7046132524952805,0.6016718007969649,-0.3744538347532913
-5576.5495817661285,4976.0,-1772.0,15856.0,63.0,-213.0,153.0,0.0560362593546293,-0.703126226518724,0.6081607818103354,-0.3641619292113364
-5576.565160751343,4972.0,-1912.0,15820.0,60.0,-196.0,-18.0,0.06953909123147263,-0.7098848916735251,0.6040679698547751,-0.35542881588286995
-5576.580739021301,4864.0,-2144.0,15760.0,100.0,-151.0,-75.0,0.08136115554846998,-0.7177929849729159,0.5952900048340617,-0.3518286560758685
-5576.596295595169,4848.0,-2300.0,15796.0,159.0,8.0,-87.0,0.08822952052667028,-0.7208277569589207,0.5849146269784657,-0.36124475864965505
-5576.611919403076,5084.0,-2552.0,15768.0,241.0,167.0,-77.0,0.09241229323561198,-0.7173621989686367,0.5735287131088855,-0.38459882837767884
-5576.627494335175,4840.0,-2216.0,15732.0,359.0,250.0,-50.0,0.10062955666611727,-0.7080264659768895,0.5599190085487314,-0.4184052098949809
-5576.643086433411,4944.0,-2016.0,16040.0,336.0,357.0,-92.0,0.10049718116479138,-0.6958419599160799,0.544546925053508,-0.4573542716678715
-5576.658660650253,4912.0,-1928.0,16000.0,289.0,494.0,-171.0,0.08762794056565637,-0.6807506784812011,0.5262016606690377,-0.5020076394725016
-5576.674225330353,4772.0,-1964.0,15792.0,213.0,490.0,-183.0,0.06967706938174655,-0.6652022238062502,0.5090784027959038,-0.5417474386209521
-5576.689797401428,4768.0,-2004.0,15828.0,167.0,424.0,-125.0,0.054575265843134345,-0.6490868151374568,0.49603036093886443,-0.5741617610044439
-5576.705372333527,4692.0,-2108.0,15636.0,220.0,325.0,-87.0,0.04857699405248812,-0.6350680909477698,0.4812729338580141,-0.6022500798210648
-5576.720934152603,4612.0,-2320.0,15820.0,240.0,227.0,12.0,0.05295377584748904,-0.6212895822321405,0.4700307722859694,-0.624712914655653
-5576.7365210056305,4688.0,-2248.0,15904.0,308.0,335.0,66.0,0.059463294370460724,-0.5983378714120035,0.4579312757572681,-0.6547937499244215
-5576.752099514008,4748.0,-2188.0,15640.0,301.0,434.0,83.0,0.06251067744371154,-0.5679563400078987,0.44675728202170933,-0.6884227930646512
-5576.767728567123,4764.0,-2180.0,15688.0,352.0,485.0,159.0,0.07049732911452353,-0.5298303264412098,0.43541551180769766,-0.7243778598550348
-5576.783308267593,4760.0,-2212.0,15656.0,354.0,459.0,232.0,0.08396614851172222,-0.48899433253333835,0.4258603763229635,-0.7566222099122166
-5576.798899412155,4736.0,-2120.0,15748.0,343.0,415.0,322.0,0.10428642966781146,-0.44633792103773196,0.4192565534485818,-0.7836649432131517
-5576.814473628998,4720.0,-2132.0,15920.0,300.0,409.0,323.0,0.1229282080071354,-0.40315704188802787,0.4143478111810932,-0.8066405312291757
-5576.830050945282,4812.0,-2240.0,15956.0,272.0,441.0,300.0,0.1374801153320693,-0.3577547134453332,0.4097842685910546,-0.8277606152211052
-5576.845626592636,4780.0,-2156.0,15880.0,320.0,497.0,307.0,0.15161307904295646,-0.30641854927857953,0.4013747169044748,-0.8497172962526875
-5576.861183643341,4628.0,-2116.0,15720.0,351.0,563.0,269.0,0.16090306595660048,-0.25002743008098105,0.38904407997847334,-0.871918110493508
-5576.876754283905,4592.0,-2088.0,15712.0,383.0,483.0,206.0,0.1682517030748856,-0.2005146789692873,0.3703710027904342,-0.8912410157876781
-5576.8922963142395,4512.0,-2076.0,15812.0,403.0,317.0,278.0,0.1864227272033024,-0.16070733089948336,0.34786228099447686,-0.9046610160930815
-5576.907897233963,4636.0,-1800.0,15720.0,428.0,282.0,236.0,0.20223049355026385,-0.12415607245835247,0.32132919462095877,-0.9167527724716076
-5576.923591136932,4844.0,-1936.0,15748.0,479.0,458.0,222.0,0.2119172407444219,-0.07272693586593841,0.29268678363363604,-0.9295893300597956
-5576.939211606979,4832.0,-1964.0,16020.0,544.0,570.0,320.0,0.22612013376084017,-0.00830883002105183,0.260144268825239,-0.9386829112373587
-5576.954802513123,4876.0,-2248.0,15908.0,597.0,695.0,403.0,0.24283457570924047,0.06913119174438621,0.22415132625370351,-0.941280208071337
-5576.970431089401,4616.0,-1948.0,15984.0,712.0,719.0,562.0,0.2692534756775593,0.15328203755572253,0.17641621099571175,-0.9342828818383844
-5576.986033439636,4648.0,-1948.0,15876.0,849.0,746.0,723.0,0.3032887946056642,0.2432761887636286,0.1141396671673505,-0.9142235719047135
-5577.001622200012,4880.0,-1848.0,15936.0,864.0,779.0,948.0,0.3498567053345737,0.33463265682662147,0.045237506050566055,-0.8738276939785777
-5577.017208337784,4852.0,-1864.0,15872.0,940.0,909.0,1136.0,0.4009392814487345,0.43200869921415663,-0.03154423687981608,-0.8072305355438029
-5577.032794475555,4884.0,-1764.0,15932.0,982.0,902.0,1402.0,0.45874307227503425,0.5185339592559011,-0.12033394807835278,-0.7114752755211795
-5577.048384428024,4956.0,-1628.0,15788.0,1046.0,1002.0,1613.0,0.5130705251767327,0.5949936005966668,-0.21436700343619833,-0.5803344202110287
-5577.064003944397,4968.0,-1344.0,15724.0,1064.0,1096.0,1846.0,0.5598105792715776,0.6494561878412088,-0.30837518440436834,-0.41197514616048997
-5577.079579114914,4976.0,-1176.0,15816.0,1004.0,1251.0,1987.0,0.5935529626282952,0.6734017235326061,-0.3864983203083165,-0.2117641322257834
-5577.095144987106,4824.0,-1116.0,15652.0,853.0,1373.0,1968.0,0.6112870189470163,0.6603809072525119,-0.4361480781049716,-0.0003029332584442518
-5577.110709428787,4760.0,-1112.0,15484.0,731.0,1351.0,2024.0,0.6060015848852482,0.6075196826287868,-0.4693207063873421,0.2083746359115522
-5577.126305818558,4304.0,-1028.0,15844.0,620.0,1191.0,1801.0,0.5782285087916674,0.5346009286486809,-0.48133723067089657,0.38492610859566906
-5577.141912698746,4176.0,-1340.0,15608.0,549.0,993.0,2166.0,0.5101370042165911,0.4281941271779313,-0.5024615218083911,0.5513097545674727
-5577.157516717911,4456.0,-1604.0,15524.0,545.0,275.0,2290.0,0.38357210405273584,0.3316695016714614,-0.5380887540926919,0.6732965731180696
-5577.173124790192,4532.0,-1672.0,15368.0,615.0,-42.0,2297.0,0.2240799278971076,0.24161749672407645,-0.5578292630587018,0.7617320293028275
-5577.188728809357,4500.0,-1564.0,15860.0,605.0,-225.0,2060.0,0.06234629652242088,0.16516164997964133,-0.5555237491886713,0.8125441112784603
-5577.204315423965,4400.0,-1284.0,15848.0,535.0,-125.0,1937.0,-0.08743508051893373,0.08175263076339799,-0.537778813855562,0.83454512246254
-5577.219925880432,4548.0,-1312.0,15616.0,426.0,-91.0,1831.0,-0.22508752620543357,-0.0007808771970280916,-0.5120811833182994,0.8289196930154644
-5577.235546827316,4716.0,-1180.0,15708.0,318.0,-80.0,1757.0,-0.35151052373543873,-0.07876176462466124,-0.4813841407922011,0.7990658578178655
-5577.251128435135,4716.0,-1312.0,15568.0,279.0,-146.0,1636.0,-0.4649567017312961,-0.14427517284045466,-0.44138488866528247,0.7537767043859525
-5577.266703367233,4600.0,-1376.0,15372.0,96.0,-291.0,1429.0,-0.5644352065812457,-0.1824901730244428,-0.401840514499912,0.6975918830000402
-5577.282274484634,4316.0,-1500.0,15300.0,-118.0,-393.0,1336.0,-0.6566249187244936,-0.1980125823026794,-0.3655072294370315,0.6293164534549706
-5577.297846317291,4224.0,-1516.0,15468.0,-308.0,-483.0,1151.0,-0.7360170096867583,-0.189224534081919,-0.3325906302143091,0.5584411426881905
-5577.313416481018,4584.0,-1764.0,15548.0,-420.0,-419.0,809.0,-0.7915822128487586,-0.16452815005531973,-0.31141081461600867,0.49935097144296275
-5577.329002380371,4184.0,-2096.0,15668.0,-585.0,-161.0,494.0,-0.8240362436496662,-0.13006568752308587,-0.3177574327907858,0.4506410988659423
-5577.344572067261,4004.0,-2456.0,16232.0,-782.0,249.0,-500.0,-0.8035901612166438,-0.06936300315782876,-0.37059726840258067,0.4605315312128815
-5577.3601496219635,3672.0,-2592.0,16216.0,-726.0,676.0,-1401.0,-0.7218199695523984,-0.0001890467208232076,-0.45044224730516413,0.5254309447105159
-5577.37576675415,3532.0,-2476.0,16316.0,-650.0,825.0,-2239.0,-0.5735637946895993,0.08896956980921959,-0.5200951066277492,0.626586042879268
-5577.391345024109,3672.0,-2220.0,15952.0,-535.0,1023.0,-2958.0,-0.34810803504631044,0.18706152460507802,-0.5564489782215217,0.7308852964623415
-5577.406930685043,3940.0,-2056.0,15628.0,-484.0,654.0,-3439.0,-0.08509605492504962,0.3125432369244923,-0.5264092572750306,0.7861098398723323
-5577.422523975372,4252.0,-2388.0,15252.0,-515.0,566.0,-3763.0,0.20213358492061595,0.42703660012968314,-0.4391307583781087,0.7641635512395814
-5577.438153743744,4496.0,-2892.0,15052.0,-477.0,303.0,-3595.0,0.4492363711512037,0.5109430879673421,-0.3159295385013745,0.6612959779067185
-5577.45378112793,4704.0,-3192.0,14808.0,-199.0,-75.0,-3673.0,0.6361151297434815,0.579468054770464,-0.15852357739684006,0.48419478582619613
-5577.469356536865,5224.0,-3476.0,14656.0,122.0,-579.0,-3105.0,0.7261108059777376,0.6300015948279554,-0.02745867857346966,0.27405676223657
-5577.484947681427,5632.0,-3964.0,15104.0,169.0,-808.0,-2155.0,0.7514310219727455,0.6519975604811894,0.042969668874521506,0.09167446700356147
-5577.500547885895,6072.0,-4364.0,16044.0,12.0,-683.0,-1036.0,0.7572646089734347,0.6504551749354283,0.05684635682589678,-0.015062174864709689
-5577.516120195389,6024.0,-4492.0,16420.0,-402.0,-475.0,-104.0,0.7812171219994384,0.6216895859494704,0.0317877398219022,-0.046812462164532685
-5577.531719446182,5688.0,-4124.0,16024.0,-869.0,-685.0,573.0,0.8278216147344877,0.5578011476085487,-0.042263895751979114,-0.042225786207450516
-5577.547314167023,5252.0,-3652.0,15440.0,-1254.0,-1369.0,849.0,0.873281256769162,0.45172771081838914,-0.1751801113124385,-0.05132105274653426
-5577.562895774841,5072.0,-3248.0,14848.0,-1488.0,-2063.0,998.0,0.8802636579004866,0.30503925265183707,-0.3551565781701836,-0.07714111681658577
-5577.578462123871,5208.0,-3024.0,14752.0,-1728.0,-2457.0,1200.0,0.8259849432094079,0.11387528086499538,-0.542942238113811,-0.09997509725544351
-5577.594035148621,5296.0,-3292.0,14520.0,-1754.0,-2609.0,1282.0,0.7009535129857272,-0.09224676123612399,-0.6983281034976794,-0.11177015495984632
-5577.609616518021,5292.0,-3648.0,14604.0,-1559.0,-2544.0,1438.0,0.5259462813748186,-0.28832968345329807,-0.7945595762757474,-0.09445412905863793
-5577.625217199326,5576.0,-4096.0,14772.0,-1196.0,-2311.0,1598.0,0.3370759815859592,-0.45716778814557135,-0.8218348194572018,-0.04432748185602705
-5577.640870094299,5488.0,-4584.0,14548.0,-836.0,-2073.0,1874.0,0.15731488950375894,-0.6049283387277151,-0.7799072783817211,0.03253256325227609
-5577.656500577927,5392.0,-4896.0,14564.0,-424.0,-2000.0,2058.0,-0.00680555451727358,-0.7223814551105034,-0.6784825542524571,0.1333421963041168
-5577.672087907791,5364.0,-4932.0,14136.0,-98.0,-2150.0,2576.0,-0.16340209816062726,-0.8155735254696641,-0.4950895193743648,0.25104968965395735
-5577.687704563141,5320.0,-4688.0,13956.0,210.0,-2483.0,3461.0,-0.3107649577885187,-0.856307087342149,-0.1955525885910015,0.36321136859088526
-5577.703300952911,5324.0,-4444.0,13648.0,588.0,-2891.0,4078.0,-0.4078492011499179,-0.7783601900917944,0.18892189745615412,0.43831833210944526
-5577.718885421753,5788.0,-4392.0,13500.0,914.0,-3350.0,4817.0,-0.42158509639086444,-0.5355486473678022,0.5952356298787905,0.4256150816482218
-5577.734493970871,6224.0,-4552.0,13656.0,1147.0,-3487.0,5151.0,-0.33111138836715137,-0.15801282721966312,0.8815164758748092,0.2971967322984616
-5577.750071525574,6360.0,-4480.0,14116.0,1151.0,-3457.0,5725.0,-0.17020073790617055,0.29164849727882713,0.9380105154770746,0.07816096023994411
-5577.765636444092,6428.0,-4340.0,14392.0,1235.0,-3307.0,5743.0,0.025764666681060547,0.66028361853168,0.7320111213342447,-0.16589588087866022
-5577.781203985214,6520.0,-4176.0,14480.0,1495.0,-3176.0,5605.0,0.1937133969872037,0.8450892664095287,0.3292254691583,-0.37404524069232536
-5577.796783447266,7032.0,-4172.0,14132.0,1959.0,-3235.0,5435.0,0.2767283272410936,0.8041056859820217,-0.1648382876685119,-0.4996637044975764
-5577.812349319458,7392.0,-4180.0,14272.0,2272.0,-3411.0,4864.0,0.24510811960784143,0.5596897035181181,-0.6012878772520249,-0.5149003147676869
-5577.827994585037,7384.0,-4156.0,14520.0,2359.0,-3675.0,4618.0,0.12642474521874095,0.17710719826582033,-0.8845350575458609,-0.41261065920689455
-5577.843586921692,7496.0,-4188.0,14712.0,2182.0,-3854.0,4621.0,-0.03352235602886916,-0.25706020976602145,-0.9402724376264058,-0.22064460845762718
-5577.859215974808,7448.0,-3976.0,15076.0,1980.0,-3952.0,4408.0,-0.20067513804702844,-0.615362322074616,-0.7621147656169945,0.015485011117072884
-5577.874809741974,8256.0,-4160.0,15144.0,1854.0,-3762.0,4193.0,-0.3170521923568848,-0.8185288718910221,-0.4160222019222452,0.23751614831474124
-5577.890432596207,8912.0,-4736.0,15920.0,1565.0,-3174.0,4139.0,-0.36697470502588614,-0.8546800953604766,2.167905061082146e-05,0.36722132290457943
-5577.906007528305,9320.0,-4628.0,16440.0,1957.0,-2080.0,3981.0,-0.3205332530935485,-0.7821246507562063,0.39206219160785605,0.3630794709872678
-5577.921673774719,9280.0,-4360.0,16820.0,2114.0,-1030.0,3863.0,-0.24503553106345757,-0.6291353876116148,0.6991273391979276,0.23530239301218067
-5577.93738079071,8564.0,-4336.0,16008.0,2190.0,-731.0,3751.0,-0.14677444098433673,-0.40324038110535126,0.9014176657693301,0.057451286832574444
-5577.95298910141,8324.0,-4596.0,15040.0,2114.0,-890.0,3475.0,-0.018613600021443032,-0.14324051603397386,0.9828337291877464,-0.11477608301153117
-5577.9685707092285,8624.0,-4884.0,14688.0,2025.0,-1206.0,3205.0,0.13437375543677002,0.10991950504216233,0.9489747708302404,-0.26326465882985095
-5577.984632968903,9032.0,-5032.0,14192.0,2054.0,-840.0,2889.0,0.23882806305499077,0.3373679664250416,0.8235459359454582,-0.38847921812543923
-5578.0008754730225,8948.0,-4696.0,14724.0,2177.0,86.0,2106.0,0.23195778922071916,0.5191843036309332,0.6665493196165335,-0.482032413227405
-5578.016573429108,8212.0,-3952.0,16164.0,2287.0,1906.0,1075.0,0.06037100289190867,0.6826269037811825,0.5399413128578658,-0.488711807626198
-5578.032231330872,7104.0,-2512.0,18820.0,1732.0,4033.0,-139.0,-0.2230520924240104,0.8004326219786522,0.4627469219026362,-0.3089023599898299
-5578.04790854454,6316.0,-1160.0,19400.0,947.0,4960.0,-1657.0,-0.48469571301479236,0.769954368110033,0.4140241078911849,0.028711929546276462
-5578.063505649567,6560.0,44.0,18692.0,511.0,4609.0,-2770.0,-0.6139156177936004,0.5758004650798967,0.3676312790896925,0.39548537429057123
-5578.079088687897,7040.0,364.0,16848.0,-5.0,3861.0,-3647.0,-0.5549772400840445,0.2954035548362869,0.3119027057936229,0.7123578489055893
-5578.094680070877,6228.0,-1424.0,15308.0,0.0,3689.0,-3571.0,-0.39553405394554914,-0.028556916793652645,0.20538473592805878,0.8947370702728267
-5578.110296010971,5680.0,-3096.0,15548.0,338.0,3236.0,-2975.0,-0.20574764020780573,-0.322957872931907,0.10495433843724138,0.9177966592352679
-5578.125965833664,5360.0,-4356.0,16492.0,347.0,3401.0,-2299.0,-0.04043292773729479,-0.5857881878169664,0.006378528324350682,0.8094298559758719
-5578.141571521759,5352.0,-4840.0,17060.0,226.0,3475.0,-1093.0,0.044245947798753335,-0.7933323075235533,-0.04368191173713975,0.6056055123013107
-5578.1571707725525,4412.0,-4332.0,17076.0,107.0,3422.0,-496.0,0.08707531646998991,-0.9303982222116087,-0.056648265567923545,0.35152241944899465
-5578.1727702617645,3764.0,-2972.0,16492.0,275.0,2952.0,-234.0,0.12701021106405838,-0.9850716191322214,-0.04334611656409246,0.10781199211822151
-5578.188369035721,3564.0,-1548.0,16068.0,528.0,2460.0,-91.0,0.17835122101169124,-0.9786623460818298,-0.018488955633870974,-0.10034447092299609
-5578.204005718231,3768.0,-496.0,16284.0,562.0,2233.0,-40.0,0.22514247840062884,-0.9316304943154273,0.007778089107042548,-0.28515782965063047
-5578.219591617584,3476.0,-148.0,16044.0,723.0,2200.0,55.0,0.27821666352622226,-0.8454675969014537,0.03674288599832658,-0.45434567352901234
-5578.2352204322815,2488.0,-636.0,15652.0,1052.0,2220.0,75.0,0.3439221558271057,-0.7152770737754184,0.053251508172111356,-0.6060202433416777
-5578.250798940659,1764.0,-1056.0,15564.0,1290.0,1796.0,428.0,0.4305581718522763,-0.5685436466108187,0.06440845016661,-0.6980181473979266
-5578.266378879547,1192.0,-1168.0,15644.0,1846.0,1463.0,918.0,0.5565295252642884,-0.3951805047020802,0.05122450323830317,-0.7290290162130065
-5578.2819793224335,1228.0,-984.0,15468.0,1851.0,972.0,1488.0,0.6935622121076411,-0.23080336198259085,0.031174735398425486,-0.6817106438267829
-5578.297561645508,1632.0,-768.0,15104.0,1340.0,548.0,1284.0,0.7843670664890854,-0.11172515266648006,0.010255224512054642,-0.6100660830100013
-5578.313179254532,1716.0,-172.0,15084.0,997.0,511.0,1299.0,0.8532760091872879,-0.014682086600393064,0.004580765215575364,-0.5212326784349902
-5578.328804016113,2296.0,444.0,15560.0,796.0,262.0,746.0,0.8838943130770665,0.05648503196082486,-0.011432656820541115,-0.46412237484571794
-5578.3443949222565,2876.0,1000.0,16092.0,797.0,366.0,-282.0,0.8661441406007272,0.13242842366977384,-0.01429561286850322,-0.4817184610953588
-5578.360015630722,3212.0,1244.0,15900.0,1021.0,359.0,-1673.0,0.7729239949193707,0.2231739450593155,-0.01075768540116425,-0.5938570202745367
-5578.375610113144,3164.0,408.0,15704.0,621.0,555.0,-2664.0,0.6056428806614136,0.28764767592937085,0.044988024742840464,-0.7405616741813702
-5578.391265153885,2756.0,-472.0,15896.0,523.0,733.0,-3108.0,0.3741704279062378,0.3370337609549729,0.12308413311292032,-0.8551345104910981
-5578.406864404678,2724.0,-740.0,15916.0,665.0,942.0,-3736.0,0.06214784921149923,0.3678702629322206,0.20257775227379424,-0.9054122645360295
-5578.422435045242,2648.0,-408.0,15628.0,852.0,799.0,-3969.0,-0.2755932347532058,0.34354142194394716,0.2510706337418504,-0.8619693714044955
-5578.438057184219,2764.0,-236.0,16008.0,905.0,1491.0,-3732.0,-0.5798921000729594,0.33120799676731144,0.24365443841233367,-0.7033199341639107
-5578.4536237716675,2256.0,-12.0,16212.0,633.0,2059.0,-3706.0,-0.8144235130245194,0.3245742250533043,0.19444930094783716,-0.4399492961975788
-5578.469211339951,2048.0,-12.0,16592.0,409.0,2384.0,-3895.0,-0.9433826124184325,0.297754737758183,0.11097630491282391,-0.09516103444701178
-5578.484770298004,2008.0,-36.0,16364.0,491.0,2655.0,-4382.0,-0.9288881066780679,0.21588335934541023,0.0019393960879593912,0.3009277308135443
-5578.50036740303,2096.0,-100.0,16368.0,376.0,2938.0,-4504.0,-0.740361448723631,0.0969889261772892,-0.12796363449046783,0.6527506274917034
-5578.515963554382,1680.0,4.0,16676.0,566.0,3111.0,-4362.0,-0.41803719618402296,-0.06172650920242033,-0.2348593251328974,0.8753718284628564
-5578.531568288803,1388.0,-276.0,16600.0,703.0,3003.0,-3947.0,-0.04687404616384684,-0.21605360309499866,-0.28562331097107,0.9324928893111314
-5578.547170639038,820.0,-552.0,16472.0,681.0,2640.0,-3544.0,0.2983314327534661,-0.32158050746225186,-0.2866010241523046,0.8517301135961055
-5578.562790632248,644.0,-844.0,16516.0,453.0,2268.0,-2624.0,0.5383791609752967,-0.3946059695760435,-0.25573713777293733,0.6993086043844962
-5578.578386068344,912.0,-992.0,16664.0,296.0,1925.0,-2140.0,0.7002587399532991,-0.4365450310703258,-0.21410041029782115,0.5227113422120577
-5578.593998193741,1204.0,-1060.0,16604.0,271.0,1707.0,-1664.0,0.8011221000326393,-0.45667779604536346,-0.1573231877520373,0.3534093745700315
-5578.60958480835,1224.0,-836.0,16124.0,409.0,1457.0,-1154.0,0.8613268657164564,-0.45080525373814123,-0.08757601880058749,0.21730415211908582
-5578.625184774399,1096.0,-1144.0,16088.0,524.0,1243.0,-461.0,0.8933999038380483,-0.42795375228097227,-0.0022868606910881606,0.13670028529224665
-5578.64080119133,1412.0,-1500.0,15784.0,566.0,519.0,298.0,0.9088404367122611,-0.38884426987130966,0.05589619246917283,0.14030256609329614
-5578.656410217285,1932.0,-1448.0,16080.0,506.0,314.0,838.0,0.9106563808543388,-0.3468464364213348,0.11490255814073458,0.19287277590114588
-5578.672047138214,2340.0,-1220.0,16244.0,465.0,320.0,1098.0,0.897937478133932,-0.3023033958666111,0.18023611135123258,0.26426480351150694
-5578.6876308918,2492.0,-1016.0,16684.0,344.0,480.0,1296.0,0.8630269926368412,-0.26381499014870774,0.2578383523156256,0.3451165673047441
-5578.703213691711,2488.0,-896.0,16540.0,145.0,549.0,1351.0,0.8068428887378103,-0.23695252602136313,0.3317829446951948,0.4275255909471453
-5578.718789577484,2616.0,-816.0,16600.0,41.0,667.0,1344.0,0.7320668146994769,-0.21805960269909777,0.40444427601791366,0.5029443469041271
-5578.734387636185,2500.0,-924.0,16328.0,-17.0,745.0,1323.0,0.6418459276782613,-0.20328465356202186,0.47218387387915894,0.5689916906225181
-5578.750001907349,2280.0,-1108.0,15896.0,-93.0,680.0,1433.0,0.5359526599253372,-0.18140486988613005,0.5258992874829035,0.6350409112218882
-5578.765575170517,2168.0,-1288.0,16000.0,29.0,611.0,1491.0,0.4216338536919028,-0.14400373293274718,0.5739055502100165,0.6871100623338937
-5578.78116440773,2268.0,-1216.0,16052.0,247.0,617.0,1513.0,0.30003015611032313,-0.09509866210167398,0.6238574674504611,0.7153600563333011
-5578.7967483997345,2408.0,-936.0,16364.0,426.0,683.0,1486.0,0.17175310015681042,-0.04514806328870374,0.6732758082066264,0.7177480136172569
-5578.8123342990875,2684.0,-1008.0,16380.0,297.0,567.0,1356.0,0.054189832928205874,0.0034676459361966407,0.6996527897404489,0.7124165995029044
-5578.827954292297,2720.0,-892.0,16228.0,9.0,284.0,1042.0,-0.027843637470178813,0.04928583347009178,0.6980400704258607,0.7138176927979908
-5578.843574047089,2836.0,-1072.0,16300.0,-241.0,191.0,703.0,-0.08208752894770417,0.08063676127366759,0.6779068150948143,0.7260865653422865
-5578.859166145325,3004.0,-1088.0,16460.0,-218.0,187.0,468.0,-0.12117346361881277,0.0979360888067591,0.6585829398153354,0.7362024352092601
-5578.87477350235,3304.0,-1148.0,16892.0,-199.0,335.0,1.0,-0.1387533514846129,0.07853122033685027,0.6417477432716262,0.7501601088367519
-5578.890356302261,3568.0,-1312.0,16496.0,-204.0,440.0,-27.0,-0.16013431863780955,0.05064533219600798,0.6225549793485277,0.7643411201875213
-5578.905982255936,3204.0,-1336.0,16464.0,-239.0,608.0,-224.0,-0.1768955480979598,0.0012628362373924217,0.5978762257961506,0.7818250372912794
-5578.921637535095,2952.0,-1240.0,16468.0,-303.0,652.0,-449.0,-0.17979900769281362,-0.061790055622550535,0.5654864209581334,0.802545583484703
-5578.937269926071,2776.0,-1168.0,16232.0,-356.0,653.0,-516.0,-0.17729372368385365,-0.1269763999597534,0.5257228799289864,0.8222283034016444
-5578.952893257141,2668.0,-1300.0,15780.0,-505.0,346.0,-1123.0,-0.11747962101793122,-0.19425338221126084,0.4686084351203125,0.8537390096973788
-5578.9685151577,2684.0,-1440.0,15508.0,-590.0,207.0,-1452.0,-0.027514674549011336,-0.2604588448750268,0.3940072356385512,0.8810008121876483
-5578.984132528305,2876.0,-1620.0,15712.0,-645.0,247.0,-1803.0,0.08674053001534014,-0.33506311360341035,0.29846277167282437,0.8894541945937529
-5578.999746084213,3032.0,-1632.0,16204.0,-540.0,407.0,-1921.0,0.20626037963943605,-0.41414889135553,0.20016890938361012,0.863637516146767
-5579.015331029892,2980.0,-1548.0,16876.0,-429.0,538.0,-1723.0,0.30726824504411576,-0.4860318904158519,0.11365224218255694,0.8102113273295924
-5579.0309426784515,2888.0,-2024.0,16860.0,-333.0,497.0,-1290.0,0.3766059792979409,-0.5386096267958698,0.048265597437324066,0.7521555945307268
-5579.046579122543,2944.0,-1908.0,16772.0,-281.0,318.0,-944.0,0.4223791694175469,-0.5702211992336776,-0.004138693171575415,0.7045753986660912
-5579.062168836594,2716.0,-2144.0,16452.0,-211.0,-12.0,-506.0,0.4425594515968683,-0.5762658865405725,-0.04272552833632239,0.6857355824516248
-5579.07780957222,2624.0,-2384.0,16320.0,-127.0,-143.0,-204.0,0.44779299846924425,-0.5715267461901021,-0.06611610318802727,0.6844466888008942
-5579.0933842659,2568.0,-2224.0,16224.0,-9.0,-22.0,81.0,0.44244409847134,-0.5708604010532773,-0.06348643054553081,0.6887169922208701
-5579.108956813812,2468.0,-2016.0,16272.0,55.0,142.0,474.0,0.41715956464368575,-0.5791988573328378,-0.03106063928867301,0.6996726505856896
-5579.124536752701,2368.0,-1708.0,16140.0,-17.0,123.0,826.0,0.36528896808913197,-0.5878595164778851,0.014085497646771288,0.7216555670365241
-5579.140111207962,2372.0,-1340.0,15960.0,-144.0,-19.0,1153.0,0.2838969980750923,-0.5866814220163191,0.06322553850254385,0.7557843176633953
-5579.155715942383,2304.0,-1344.0,15660.0,-268.0,-64.0,1277.0,0.18512810673930902,-0.5781645452147595,0.10861943403215801,0.7871817841529761
-5579.1712901592255,2520.0,-1088.0,15972.0,-318.0,-23.0,1258.0,0.08236075473861046,-0.5660349972349568,0.14889630555729472,0.8066293933247768
-5579.186867952347,2812.0,-1032.0,15932.0,-492.0,34.0,1201.0,-0.026768691815137757,-0.5526792173668711,0.17269173183807626,0.8148660537683571
-5579.2024664878845,2892.0,-1148.0,16084.0,-659.0,141.0,1014.0,-0.13207132934386207,-0.5426858518291267,0.173384775745702,0.8111639475034952
-5579.218049287796,2696.0,-1372.0,16088.0,-778.0,342.0,749.0,-0.22605079872077247,-0.5437994959735076,0.14906211475828146,0.7943321915423349
-5579.233661174774,2560.0,-1680.0,16180.0,-845.0,565.0,537.0,-0.3092226474871583,-0.5563719909391338,0.10424864135346257,0.7641752303990323
-5579.249294519424,2464.0,-1752.0,16344.0,-826.0,701.0,332.0,-0.3760676226966381,-0.5748613728020506,0.04609822845072635,0.7252465088183089
-5579.264870643616,2340.0,-1708.0,16552.0,-764.0,632.0,284.0,-0.4332234274769473,-0.5861305963276768,-0.008742501110511378,0.6846108052083467
-5579.280497789383,2168.0,-1740.0,16632.0,-689.0,486.0,150.0,-0.4757956075028733,-0.5874485953273071,-0.06045366649300374,0.6518190254483972
-5579.296078443527,2052.0,-2144.0,16388.0,-637.0,301.0,220.0,-0.5183717709545624,-0.5779372524064176,-0.09770721321060441,0.6226817323841843
-5579.311652898788,2204.0,-2420.0,16232.0,-561.0,56.0,11.0,-0.5461924155333874,-0.5548723260674557,-0.13000555798273197,0.6139129432353524
-5579.327265501022,2048.0,-2816.0,16464.0,-443.0,-82.0,333.0,-0.5857847318189828,-0.5323472013890808,-0.13352567513145827,0.5963502320127528
-5579.342875003815,2416.0,-2656.0,16568.0,-302.0,-269.0,438.0,-0.6249729777161221,-0.5071605814406105,-0.11495327660322459,0.5822221792027918
-5579.358459234238,2768.0,-2652.0,16508.0,-130.0,-532.0,584.0,-0.664194032496327,-0.47755415618803815,-0.0664900188164574,0.571285736301534
-5579.374034166336,2784.0,-2440.0,16492.0,99.0,-659.0,640.0,-0.693627171359547,-0.45248746068806084,0.0033466832837533416,0.5604687723529497
-5579.389603853226,2968.0,-2292.0,16504.0,173.0,-602.0,812.0,-0.7235285995307925,-0.4313458939050883,0.08001913425939017,0.5329578066081855
-5579.405191421509,3076.0,-1872.0,16580.0,186.0,-489.0,899.0,-0.7519252091186104,-0.41216050282292166,0.1527626523398683,0.49132043704163075
-5579.420789003372,3024.0,-1744.0,16536.0,90.0,-314.0,842.0,-0.7782877277793775,-0.3919510467612564,0.20684336925874136,0.4448127812062743
-5579.4363925457,2836.0,-1688.0,16364.0,140.0,-186.0,769.0,-0.798134585230137,-0.37922441973968257,0.2505486286937534,0.395468592927805
-5579.452010393143,2556.0,-1656.0,16256.0,250.0,-215.0,668.0,-0.8066158788393537,-0.3736330440781193,0.2955673867697856,0.3498701076902903
-5579.467606782913,2444.0,-1728.0,15928.0,330.0,-214.0,578.0,-0.8065915928689754,-0.37455021653706916,0.33884564751909907,0.307092436836999
-5579.4832174777985,2436.0,-1608.0,16236.0,361.0,-323.0,261.0,-0.7914320283613824,-0.38299143367833005,0.3792669765469038,0.2882871254735035
-5579.498862028122,2356.0,-1456.0,16400.0,415.0,-388.0,456.0,-0.7747374720352422,-0.38588304648433486,0.43079554282346794,0.25552167059536113
-5579.51442861557,2472.0,-1520.0,16300.0,342.0,-437.0,351.0,-0.7534919350234646,-0.3853119207925126,0.47892205945685223,0.23327727818068128
-5579.530020952225,2476.0,-920.0,16208.0,142.0,-490.0,144.0,-0.7304961612166443,-0.37814491281844503,0.5182386880448345,0.234116307784925
-5579.545639038086,2708.0,-1124.0,16068.0,-250.0,-471.0,-169.0,-0.7132486704904926,-0.35969915427258825,0.5368546126034873,0.2714405595807101
-5579.561208963394,2756.0,-1576.0,16072.0,-607.0,-466.0,-430.0,-0.6983407407150256,-0.32995655720898115,0.5363191151223575,0.34030969273113154
-5579.576784610748,2796.0,-2308.0,16464.0,-616.0,-291.0,-537.0,-0.6846508239327161,-0.30792496101343547,0.5187086422357081,0.4091171129922524
-5579.5923640728,3040.0,-2584.0,16664.0,-296.0,96.0,-574.0,-0.6754615053468301,-0.31903352749072933,0.48607809794447737,0.45353880300377303
-5579.607983827591,2688.0,-2612.0,17044.0,13.0,389.0,-578.0,-0.6675889705650556,-0.35895340107078444,0.44662767534847964,0.4753957739109789
-5579.623568058014,2548.0,-2804.0,16792.0,621.0,485.0,-431.0,-0.6472721495522651,-0.4306357828766913,0.4292178137649111,0.45974303177649106
-5579.639276027679,2064.0,-2260.0,16412.0,668.0,338.0,-284.0,-0.62201194968565,-0.4912777539873372,0.42513667327709154,0.43704246008860703
-5579.654877662659,1980.0,-1456.0,15932.0,647.0,79.0,-75.0,-0.5934630844535542,-0.5312353757310512,0.44152647326615513,0.413091898211419
-5579.670461893082,2028.0,-1112.0,15772.0,388.0,-98.0,105.0,-0.5751997553525207,-0.5433113236817789,0.46510496224166475,0.3970332745497956
-5579.6860563755035,2052.0,-968.0,15744.0,176.0,-110.0,207.0,-0.5694664889276378,-0.5396724180667868,0.48633307709530216,0.3846319504271461
-5579.701642274857,2156.0,-1024.0,16184.0,27.0,36.0,177.0,-0.5756833069148752,-0.5345619174662894,0.4936722635801551,0.37298791227861994
-5579.717228412628,2272.0,-1140.0,16868.0,-93.0,315.0,88.0,-0.5962906905826959,-0.5360367283199614,0.478655400629091,0.357758362117572
-5579.73287153244,2028.0,-1220.0,17128.0,-262.0,527.0,-151.0,-0.6250661330436939,-0.5443179502459496,0.4353072662513045,0.35145110941732244
-5579.748499155045,1536.0,-1204.0,16436.0,-246.0,482.0,-450.0,-0.6401501476318497,-0.5616319406397823,0.379305213994184,0.3618078307291586
-5579.764080047607,1276.0,-1224.0,15672.0,-142.0,195.0,-650.0,-0.6319769885062009,-0.5802162020386468,0.33139532535742205,0.3925956994437535
-5579.779671907425,1388.0,-1176.0,15860.0,-5.0,65.0,-689.0,-0.6094806637726936,-0.6008987069848067,0.29216012418031423,0.4267276956914415
-5579.795273542404,1064.0,-1256.0,15992.0,117.0,139.0,-508.0,-0.5874041683580424,-0.6244592791868155,0.2621417334708343,0.44304476433650064
-5579.810834646225,1196.0,-1448.0,16200.0,169.0,96.0,-297.0,-0.5687159764843713,-0.6432219554384733,0.24740950144015578,0.44901691808936156
-5579.826442956924,1096.0,-1416.0,16148.0,131.0,-57.0,-32.0,-0.558912631819072,-0.6480290679376115,0.2535222612152572,0.4510005101652235
-5579.8420605659485,1144.0,-1196.0,16524.0,62.0,-419.0,63.0,-0.5483114148338437,-0.6326224375160745,0.2797398757504411,0.4699883464823962
-5579.857654809952,1196.0,-1008.0,16628.0,-79.0,-718.0,212.0,-0.5427471954622236,-0.5928265988189283,0.3218383279744848,0.5004020345654684
-5579.873287439346,1124.0,-912.0,16340.0,-224.0,-902.0,186.0,-0.5353706566589118,-0.5356517394507225,0.36312150731113835,0.5427690530419983
-5579.888876438141,1492.0,-888.0,16504.0,-272.0,-969.0,224.0,-0.5259375216202455,-0.46792638789046564,0.40429381078095045,0.5839358983929247
-5579.904504537582,1344.0,-964.0,16428.0,-325.0,-1003.0,262.0,-0.5149336744463936,-0.3907684492119905,0.44240722725026127,0.6216262344032201
-5579.92015337944,1164.0,-1192.0,16364.0,-312.0,-1020.0,334.0,-0.501997169755479,-0.3069341469152085,0.4803308243125769,0.6504402895194321
-5579.935860157013,784.0,-1272.0,16284.0,-381.0,-1060.0,465.0,-0.49145814106812,-0.2092856723503523,0.5145734799330558,0.6707328355435671
-5579.951464653015,864.0,-1200.0,16296.0,-375.0,-1126.0,519.0,-0.47516022325303137,-0.10323132109558121,0.5467726738065221,0.6816199085718206
-5579.967068910599,800.0,-1008.0,16160.0,-339.0,-1235.0,565.0,-0.44961403396748184,0.011234431843272443,0.5784592632828334,0.680518837889833
-5579.982682228088,512.0,-1020.0,16240.0,-283.0,-1377.0,553.0,-0.4091832852988012,0.1309361619389373,0.6097218660092182,0.6660810811297806
-5579.998268127441,876.0,-564.0,16212.0,-266.0,-1488.0,529.0,-0.3543266925859791,0.2526348775051555,0.6350541240988256,0.6382276028613222
-5580.013852357864,892.0,-472.0,16092.0,-320.0,-1299.0,389.0,-0.2948198170963343,0.353827050328818,0.6439784534773956,0.6108841505226291
-5580.0294234752655,988.0,-492.0,15912.0,-249.0,-1624.0,298.0,-0.20956665487979426,0.458706523171376,0.6562789098913573,0.5612202198730305
-5580.045019865036,996.0,-408.0,16180.0,-284.0,-1661.0,496.0,-0.12590556149675858,0.5670331670350703,0.6452960125471058,0.4961997916738476
-5580.060651302338,956.0,-608.0,15880.0,-428.0,-1773.0,233.0,-0.01477590550446767,0.6532752109882176,0.6266564516552239,0.4246349760955954
-5580.076249361038,1056.0,-828.0,15788.0,-634.0,-1929.0,181.0,0.11832545342648787,0.7241071509993307,0.5860927353266755,0.3437487840565319
-5580.0918509960175,1108.0,-876.0,15140.0,-824.0,-2113.0,27.0,0.27243145575441036,0.7655092631587219,0.527577607708264,0.24786798457757378
-5580.107439279556,1176.0,-1032.0,15820.0,-829.0,-2114.0,-58.0,0.41833495847709906,0.7737817969058863,0.45437896696579705,0.14070304784245585
-5580.123054265976,1240.0,-1188.0,16080.0,-664.0,-2036.0,-128.0,0.5362493275464848,0.7562848953652112,0.3739952516211196,0.024441102946266655
-5580.13866353035,1464.0,-1284.0,16228.0,-538.0,-1837.0,-137.0,0.6234179873648449,0.7204577150781684,0.29180590194413125,-0.08449857634825983
-5580.154244184494,1272.0,-1384.0,16168.0,-440.0,-1787.0,-33.0,0.6876278387575204,0.6737732580783412,0.19731512422611508,-0.18510616903763985
-5580.169825553894,1048.0,-1296.0,16032.0,-316.0,-1870.0,123.0,0.7305117456036733,0.6181521243103271,0.08179153978101877,-0.27847923578959005
-5580.185425758362,700.0,-1204.0,16044.0,-274.0,-2047.0,391.0,0.7568677416760967,0.5444801749712532,-0.06215649173310451,-0.3561307782386003
-5580.201014041901,368.0,-1212.0,16208.0,-80.0,-2390.0,433.0,0.7446791269988429,0.4523135821381551,-0.23294229818804849,-0.4319760490356635
-5580.21665763855,760.0,-1376.0,16180.0,229.0,-2827.0,331.0,0.6702255925178673,0.34320713295151634,-0.4253183807381929,-0.5021063572904806
-5580.232247829437,1520.0,-1784.0,15932.0,646.0,-3050.0,155.0,0.5253828013469896,0.23296099361496944,-0.6142165330874062,-0.5407773460351343
-5580.247880935669,1820.0,-2056.0,15812.0,1044.0,-3306.0,307.0,0.32673725811075083,0.10358701759066646,-0.7858103764942935,-0.514795635318362
-5580.263476371765,2240.0,-2780.0,15720.0,1304.0,-3339.0,687.0,0.11132756285693068,-0.05375689245881935,-0.9011795217410522,-0.41544174062806377
-5580.279089450836,2936.0,-3228.0,15708.0,1283.0,-3155.0,876.0,-0.09468565972922414,-0.21474015978091773,-0.9313442768742025,-0.2784225701206287
-5580.294665336609,4284.0,-3464.0,16072.0,1245.0,-3238.0,842.0,-0.2999054701453113,-0.3553382438550655,-0.8774336717759293,-0.11790501713128361
-5580.310235738754,5428.0,-3564.0,16940.0,1470.0,-3296.0,463.0,-0.4784657085452441,-0.4414746928207832,-0.7547446099206573,0.08081605744409691
-5580.325801849365,6380.0,-3092.0,18080.0,1620.0,-2940.0,18.0,-0.585295516840543,-0.46980619468721835,-0.5947838004650878,0.2879991807352652
-5580.341406822205,7880.0,-2260.0,18780.0,1767.0,-1700.0,-205.0,-0.5827122027736372,-0.49535765360860856,-0.4613319829337375,0.44971111312985673
-5580.356990337372,8824.0,-940.0,18516.0,1075.0,-539.0,-398.0,-0.5390933790454498,-0.5096752257209681,-0.4063783134412349,0.533353690640926
-5580.372555971146,8968.0,-384.0,17440.0,325.0,324.0,-792.0,-0.4748216557978664,-0.5102553762534346,-0.4402614619894324,0.5659979604881683
-5580.38812828064,7944.0,-1304.0,16764.0,-604.0,540.0,-1875.0,-0.38235550118528505,-0.43293631540752747,-0.5670040478194824,0.5872621452733231
-5580.403774023056,7312.0,-2708.0,16564.0,-1337.0,845.0,-2318.0,-0.26443859654827456,-0.3077301360194896,-0.7297273738829371,0.5503383975763617
-5580.419367313385,7176.0,-4332.0,16596.0,-1679.0,1120.0,-3102.0,-0.08485336838049508,-0.11906693098519341,-0.8750022554513475,0.46151275689335614
-5580.434973478317,7220.0,-5528.0,17076.0,-1874.0,1165.0,-3081.0,0.10330187189299786,0.07903023816910792,-0.9409655379880751,0.3125168812034784
-5580.450628042221,7576.0,-6232.0,17672.0,-1843.0,885.0,-3080.0,0.2596019376640727,0.27719080906103016,-0.9154986427086632,0.1327942940481469
-5580.466201782227,8364.0,-6160.0,18036.0,-1968.0,714.0,-2875.0,0.37979343684857997,0.4336493868497848,-0.8142093898239506,-0.06905232895463649
-5580.481824159622,8544.0,-6268.0,17980.0,-2261.0,791.0,-2691.0,0.4821754966570667,0.529140215770657,-0.6414957324523195,-0.27568214980871697
-5580.497393131256,8440.0,-5924.0,17260.0,-2445.0,966.0,-2616.0,0.5578282173183076,0.5669366920143172,-0.4006672452591597,-0.45483648247230457
-5580.512981176376,8120.0,-5236.0,16252.0,-2540.0,1174.0,-2495.0,0.5945861190694635,0.5484044794546158,-0.11324736791091308,-0.5769704564232698
-5580.528551340103,7836.0,-4764.0,15508.0,-2526.0,1382.0,-2167.0,0.5915312520111681,0.48475710259233196,0.18070207123709728,-0.6184238763429257
-5580.544159650803,7468.0,-4396.0,15040.0,-2390.0,1627.0,-2010.0,0.5339087648129967,0.39890371610707026,0.457608509632886,-0.5885675050862041
-5580.559762954712,6840.0,-4380.0,14644.0,-2227.0,1776.0,-1427.0,0.45016196138716535,0.31721240153067753,0.6786759361587824,-0.4859315533222767
-5580.575331687927,6216.0,-4212.0,14360.0,-1881.0,1981.0,-1112.0,0.3270842431882752,0.2531372433836361,0.8396832377453367,-0.3519509825523934
-5580.590907096863,5740.0,-4140.0,14020.0,-1441.0,2155.0,-826.0,0.17085092823657663,0.21173932986854183,0.9376414369897753,-0.21634452187950096
-5580.606499910355,5132.0,-4280.0,13540.0,-1005.0,2293.0,-629.0,-0.009896991152981214,0.18394639778693017,0.9779222766643468,-0.09865998738572244
-5580.622131347656,4620.0,-4252.0,12896.0,-630.0,2135.0,-561.0,-0.18326227678155613,0.15196179450134437,0.9711969851917853,-0.009948209645898395
-5580.637766361237,3676.0,-3908.0,12612.0,-398.0,1709.0,-374.0,-0.3193569163994608,0.12656354365353295,0.9377154349495723,0.051793748879784954
-5580.653366565704,3476.0,-3528.0,12640.0,-220.0,1088.0,-157.0,-0.4034207887612979,0.1143838328391453,0.9037756294789165,0.08577655588928143
-5580.6689665317535,3780.0,-3540.0,12700.0,-91.0,597.0,-66.0,-0.4485718566916351,0.10776672232786283,0.8814479546738186,0.10108969356106688
-5580.6845552921295,3936.0,-3736.0,13184.0,102.0,225.0,75.0,-0.46747840121429,0.10753946790218027,0.8725614190677575,0.09238926991760718
-5580.700133323669,4160.0,-3784.0,13692.0,351.0,-34.0,56.0,-0.4685025965965647,0.09771678239480973,0.8757776664701693,0.06300973204788893
-5580.715767621994,4344.0,-3620.0,14152.0,645.0,-14.0,-65.0,-0.47191581614673483,0.06634699235441847,0.8789943531925916,0.01620080651145581
-5580.7313640117645,4732.0,-3328.0,14960.0,757.0,-41.0,-265.0,-0.4717163863137671,0.014856693795076224,0.8810748731310166,-0.031144782383625426
-5580.746938228607,4940.0,-3316.0,15388.0,841.0,-48.0,-341.0,-0.468663634455341,-0.04597838938679914,0.8783958249943046,-0.08161593031437807
-5580.762562990189,5264.0,-3640.0,15868.0,990.0,-26.0,-302.0,-0.46305229180319596,-0.1093645176080538,0.8676048024730133,-0.14451257408934642
-5580.778163194656,5656.0,-4344.0,16084.0,1392.0,-238.0,-58.0,-0.42930310318907633,-0.1717065111508586,0.852591807867793,-0.24352192668701902
-5580.7937688827515,5784.0,-4732.0,16396.0,1881.0,-401.0,132.0,-0.3634284286527699,-0.23753671059718398,0.8180510748913694,-0.37721151524671587
-5580.809369802475,5768.0,-4744.0,16480.0,2233.0,-51.0,305.0,-0.29779580151911955,-0.28282691497067003,0.7382356951976118,-0.5351024715901219
-5580.824948549271,5624.0,-4020.0,16128.0,2349.0,483.0,405.0,-0.2465678363122714,-0.2887578574915047,0.6122131787900881,-0.6935547747286703
-5580.84056019783,4740.0,-3036.0,15360.0,2191.0,828.0,278.0,-0.21430712498589966,-0.26531155442355736,0.458990372998696,-0.8203719112476681
-5580.8561470508575,4208.0,-2500.0,14796.0,1851.0,1012.0,81.0,-0.20280441971392363,-0.22042962416691136,0.3040866477517479,-0.9043298396012581
-5580.871770143509,3484.0,-2524.0,14032.0,1698.0,988.0,-45.0,-0.19705195461025354,-0.17105948783122896,0.1493107179824682,-0.953737641231988
-5580.8873608112335,2984.0,-3020.0,14064.0,1713.0,891.0,-92.0,-0.1880681938501366,-0.12549062300882227,-0.009920866167535222,-0.9740554575655798
-5580.902946233749,2856.0,-3584.0,14532.0,1758.0,566.0,-361.0,-0.19635758482287213,-0.10441545162270813,-0.17002719099052113,-0.9600165970798773
-5580.918656587601,3024.0,-3444.0,15316.0,1994.0,263.0,-514.0,-0.21386388535944104,-0.10715933549982806,-0.3404636259491033,-0.9093204246907621
-5580.934259414673,3440.0,-3040.0,16020.0,2136.0,223.0,-1433.0,-0.2936416992407626,-0.08462406508363692,-0.5144440636203467,-0.8012244538713871
-5580.949934720993,3804.0,-2536.0,16740.0,2226.0,407.0,-1812.0,-0.37389753285199623,-0.030880718063714008,-0.6725991290398204,-0.6378537667788243
-5580.965525388718,4328.0,-2244.0,17180.0,2105.0,821.0,-2272.0,-0.43006755078000763,0.0765751388375968,-0.7922364523085605,-0.42607458679394894
-5580.981124639511,3552.0,-1780.0,18456.0,1697.0,1384.0,-2761.0,-0.42863037362082235,0.24399715630818036,-0.8495244465692694,-0.18721539788268485
-5580.996706962585,4540.0,-232.0,19776.0,411.0,1603.0,-3211.0,-0.35386502170446543,0.47011586984583237,-0.8085573939571777,-0.0023571190831017364
-5581.012286424637,5828.0,1556.0,19488.0,-642.0,2036.0,-3163.0,-0.1750416230926181,0.6770424533421362,-0.7034972677536957,0.12674991447984604
-5581.027903079987,5168.0,1352.0,17776.0,-1578.0,1406.0,-3524.0,0.04099410186954479,0.849039734092427,-0.5027869128937845,0.15702335420856445
-5581.043509721756,4232.0,-792.0,15176.0,-2216.0,540.0,-3799.0,0.26210160231803725,0.9330691829543369,-0.23284299911453935,0.08042877374789374
-5581.05911564827,3152.0,-3460.0,13512.0,-1197.0,766.0,-3491.0,0.3796823225540886,0.9225925480705779,0.05758675034688623,0.036716350159793555
-5581.074710607529,2408.0,-5304.0,12368.0,320.0,474.0,-2477.0,0.35095937754265266,0.8973860266199337,0.26730522281387575,-0.008587921668566093
-5581.090302228928,2352.0,-5492.0,13104.0,1225.0,459.0,-920.0,0.24128094391824612,0.9050100636299313,0.3491310571354167,-0.029116932770714837
-5581.105917453766,3120.0,-3888.0,14664.0,1308.0,613.0,144.0,0.11869376164982111,0.9310595388550595,0.34458374245807105,-0.01737729800656702
-5581.121543169022,3932.0,-2012.0,15988.0,907.0,1007.0,1018.0,0.016056918992863232,0.9621313761951478,0.2679824149418662,0.04723151040579986
-5581.137162208557,4484.0,-260.0,16860.0,335.0,1604.0,1402.0,-0.05443146855220716,0.9717116183837393,0.1512012704427096,0.17306623514081237
-5581.152750015259,4980.0,528.0,17132.0,-145.0,1729.0,1381.0,-0.08426158749401731,0.9469111963070529,0.023219587738326813,0.3093865251212408
-5581.16832113266,5152.0,944.0,16992.0,-400.0,2030.0,1257.0,-0.08733917792776802,0.8781446325428992,-0.1041150841164016,0.45868717182240076
-5581.183914899826,4588.0,472.0,16260.0,-510.0,1709.0,439.0,-0.04966140054738203,0.7993471378063136,-0.16904532021958354,0.5744576383758728
-5581.199486732483,3852.0,-876.0,15776.0,40.0,1301.0,-27.0,-0.031702963427443054,0.7295547304213378,-0.1696845258665147,0.6617794036619935
-5581.215077161789,3364.0,-1464.0,15132.0,305.0,684.0,-192.0,-0.029844364507601136,0.6903679929975979,-0.14138858435913104,0.7088798321045162
-5581.230646133423,3244.0,-1764.0,15100.0,208.0,253.0,-159.0,-0.029414613097675707,0.6756755290787327,-0.11951803737384734,0.7268512906247001
-5581.246232032776,3328.0,-1764.0,14956.0,-93.0,-535.0,-46.0,-0.02657510771365979,0.7094207709500983,-0.12118283572159648,0.6937799750072409
-5581.261820554733,3668.0,-1784.0,15304.0,-327.0,-682.0,161.0,-0.02324881901065114,0.7479750544574061,-0.14902527519785433,0.6463623424026607
-5581.277421712875,4232.0,-1604.0,15632.0,-424.0,-593.0,20.0,-0.004406625552576746,0.780367546612183,-0.17268759369027073,0.6009875779341748
-5581.293005943298,4628.0,-1296.0,16316.0,-347.0,-433.0,209.0,0.0017348673915184509,0.7989222509963071,-0.20467323188191724,0.5655343448890956
-5581.308598041534,4816.0,-952.0,16708.0,-46.0,-318.0,83.0,-0.004832239749184225,0.8127240591556557,-0.21267349128697988,0.5424262523443788
-5581.324184179306,4620.0,-760.0,16688.0,199.0,-133.0,-33.0,-0.01985064483579881,0.8193061288701087,-0.2007907459688535,0.5366809996904597
-5581.339822292328,4512.0,-864.0,16624.0,250.0,59.0,-219.0,-0.02642646023004769,0.8195290055365559,-0.17342577509846663,0.5455248406951506
-5581.355443239212,4064.0,-980.0,16140.0,57.0,144.0,-374.0,-0.010511836377295792,0.8176264809608788,-0.14418374319329225,0.5573037655769767
-5581.371064424515,3564.0,-1064.0,15976.0,-166.0,187.0,-515.0,0.02870395508008587,0.8140797430286001,-0.11551925625579317,0.5684237472056892
-5581.386639356613,3268.0,-1280.0,15684.0,-385.0,118.0,-1021.0,0.10742188055262304,0.8137598808188342,-0.06148406360066928,0.5678689160989563
-5581.402212142944,3172.0,-1064.0,15484.0,-461.0,-124.0,-1058.0,0.1909822819443486,0.8170093033570613,-0.010291722597978132,0.5439812925618904
-5581.417783975601,3196.0,-1360.0,15448.0,-396.0,-380.0,-1201.0,0.27411878980860455,0.8240091217568876,0.04988370608360052,0.4933350506528743
-5581.433387041092,3376.0,-1516.0,15456.0,-510.0,-511.0,-1151.0,0.36010284842195633,0.8229712380275037,0.09778307109927051,0.4283488659308746
-5581.4489912986755,3760.0,-1876.0,15772.0,-225.0,-566.0,-980.0,0.4156807790365433,0.8244710164711733,0.14124378821555228,0.3570815386282004
-5581.46457028389,3888.0,-1972.0,16204.0,-337.0,-584.0,-895.0,0.4728269106647586,0.815469248426374,0.17311097705749678,0.2854421255602336
-5581.480158805847,4036.0,-1756.0,16156.0,-381.0,-652.0,-995.0,0.5315033002284751,0.7961851556193662,0.20628578183648769,0.2025823685065259
-5581.495761156082,4020.0,-1724.0,16088.0,-532.0,-783.0,-1093.0,0.5972366839408114,0.7595879084819428,0.23462275242626754,0.10623896030804092
-5581.5113661289215,4120.0,-1544.0,16004.0,-523.0,-882.0,-1167.0,0.6548864572933999,0.710041488474925,0.25876524136608176,-0.00231571992402606
-5581.526943445206,4204.0,-1808.0,15652.0,-364.0,-923.0,-1176.0,0.6919316937466402,0.6565180816445912,0.27643873529496366,-0.11745707850586341
-5581.542578935623,4340.0,-2004.0,16096.0,-283.0,-724.0,-1121.0,0.7092068464728415,0.6006255940585636,0.2977003648715112,-0.218286594717161
-5581.558178901672,4024.0,-2124.0,16024.0,-148.0,-513.0,-964.0,0.7087490286901262,0.5539850718869342,0.31777952981038027,-0.29965234003879326
-5581.5738027095795,3784.0,-2184.0,15900.0,-135.0,-476.0,-786.0,0.7056952132876843,0.5096017347195754,0.32872761210552787,-0.36638571881699616
-5581.589389801025,3548.0,-2080.0,15808.0,-193.0,-563.0,-665.0,0.7071095629304227,0.4591170440739418,0.32872960138789326,-0.4256106848100851
-5581.60497379303,3616.0,-2276.0,15808.0,-293.0,-514.0,-631.0,0.7082218495008238,0.40255347902763156,0.3321457306860868,-0.4754489688698336
-5581.620548725128,3652.0,-2160.0,15852.0,-401.0,-870.0,-628.0,0.71796322078399,0.32170257505358685,0.3153940125966023,-0.5306249934026717
-5581.636126279831,3784.0,-2252.0,15940.0,-369.0,-881.0,-615.0,0.7206204497569012,0.23950471841727897,0.29297581223551233,-0.5809551021317938
-5581.651782274246,3916.0,-2396.0,15964.0,-290.0,-826.0,-594.0,0.7146928381278622,0.16331510804887064,0.2668504530089035,-0.6255662701430361
-5581.667370080948,3916.0,-2544.0,16088.0,-209.0,-700.0,-561.0,0.7011181388963258,0.0984835730575428,0.2416270041631693,-0.6635892796056183
-5581.682947874069,3944.0,-2604.0,15916.0,-175.0,-658.0,-746.0,0.6707118206101433,0.03361032138501635,0.21685663197527724,-0.7085119626079449
-5581.698574066162,3932.0,-2728.0,15848.0,-154.0,-651.0,-424.0,0.6557054426009614,-0.02381295492566757,0.18882651625387403,-0.7306352458515883
-5581.714163064957,3936.0,-2524.0,16052.0,-143.0,-622.0,-401.0,0.6387021211713741,-0.07825160088385202,0.16089864583048827,-0.7483634899834549
-5581.729788064957,3940.0,-2524.0,15872.0,-112.0,-591.0,-384.0,0.6199398289169051,-0.12834618107279155,0.13209516425278797,-0.7627271687225632
-5581.7453825473785,3828.0,-2524.0,15908.0,-204.0,-623.0,-442.0,0.593985919472349,-0.1855338280104041,0.10644872952696591,-0.7755169850586696
-5581.760977745056,3920.0,-2584.0,15904.0,-214.0,-650.0,-437.0,0.5655590962525786,-0.24396483545989767,0.07967305834209282,-0.7837577887838877
-5581.776569843292,3868.0,-2620.0,15964.0,-219.0,-694.0,-478.0,0.5315154075843683,-0.3044741228372501,0.049893991059312,-0.7888583330859117
-5581.792150735855,3944.0,-2536.0,15868.0,-177.0,-663.0,-459.0,0.49685050589057955,-0.3591525398514137,0.018993599279404336,-0.7898026785855864
-5581.807775259018,3936.0,-2708.0,15968.0,-99.0,-652.0,-443.0,0.463233337335914,-0.4079046979851324,-0.016320140723249183,-0.7866144452964634
-5581.82336473465,3836.0,-2700.0,16124.0,-159.0,-543.0,-279.0,0.43704408217719565,-0.45031232209701183,-0.03721231609960827,-0.7777059382131477
-5581.838948249817,3876.0,-2680.0,15892.0,-149.0,-530.0,-241.0,0.4126044066921821,-0.49031172642718557,-0.056676663733481465,-0.7655976556222119
-5581.854557514191,3908.0,-2704.0,15800.0,-225.0,-664.0,-155.0,0.38863727949703203,-0.5407740164101975,-0.07200671788946704,-0.742522431135596
-5581.870158433914,3888.0,-2572.0,15692.0,-186.0,-748.0,-84.0,0.3689353587243634,-0.5935134396671035,-0.08905021165765993,-0.7097172379343586
-5581.885769605637,3928.0,-2692.0,15836.0,-174.0,-789.0,-78.0,0.34815121169983654,-0.6456278434428712,-0.10741575410794023,-0.6711313413428592
-5581.901366233826,4100.0,-3056.0,15928.0,-108.0,-618.0,51.0,0.33881551035430196,-0.6844355424587595,-0.11678385229372729,-0.6349122537847056
-5581.916974782944,4124.0,-2744.0,16088.0,-22.0,-449.0,76.0,0.33693456161317087,-0.7100706818959762,-0.12417584545534151,-0.605685634060917
-5581.932703256607,4036.0,-2772.0,16120.0,-1.0,-395.0,23.0,0.3336735493872522,-0.7306943799198269,-0.13420794610261785,-0.5802895077423074
-5581.9483478069305,4048.0,-2632.0,15900.0,-38.0,-450.0,20.0,0.32680190658003927,-0.7541482994404026,-0.14397790537844676,-0.5511181534568018
-5581.963983297348,4056.0,-2816.0,15760.0,-19.0,-479.0,44.0,0.3214302332142382,-0.7775154216424954,-0.15367254184071036,-0.5182056774757957
-5581.97958278656,4040.0,-2508.0,15964.0,-14.0,-450.0,33.0,0.3157551209187811,-0.7980105928267062,-0.16327917686939347,-0.48663919668558187
-5581.995198726654,4328.0,-2480.0,15864.0,18.0,-412.0,43.0,0.31282180607305593,-0.8150252534111321,-0.17227389147784083,-0.45628725630066913
-5582.010793685913,4176.0,-2464.0,16112.0,50.0,-317.0,168.0,0.31820718412180543,-0.8283345872636675,-0.17086746107023373,-0.4282642995434165
-5582.026425600052,3904.0,-2580.0,16088.0,62.0,-199.0,163.0,0.3257926645131359,-0.8361998617555202,-0.16686712452953434,-0.408392328160955
-5582.042004823685,3952.0,-2576.0,15876.0,82.0,-171.0,70.0,0.3317960224616721,-0.8407941228807921,-0.16950404997420246,-0.3927403970182797
-5582.057583808899,3864.0,-2448.0,15744.0,77.0,-250.0,-55.0,0.33183786549287014,-0.8460346400863391,-0.1833593075017848,-0.3748177999396246
-5582.0731472969055,3924.0,-2436.0,15860.0,30.0,-484.0,-132.0,0.32174452972835693,-0.8580123910963,-0.20789799175764118,-0.34216022465831386
-5582.088716506958,3984.0,-2304.0,16112.0,22.0,-552.0,-200.0,0.30706227990726837,-0.8690657575518466,-0.23871410133199011,-0.30570090469975014
-5582.104266881943,4228.0,-2244.0,15840.0,15.0,-484.0,-295.0,0.2899508343303278,-0.8743236112046112,-0.27412222113364754,-0.27630371774920137
-5582.1199197769165,4596.0,-2052.0,15964.0,9.0,-484.0,-288.0,0.2718423225738837,-0.8777845665778233,-0.30818945382399054,-0.24620167929380568
-5582.1355102062225,4280.0,-2508.0,15996.0,34.0,-78.0,-308.0,0.2656868968588438,-0.8699999516228963,-0.3342310537284518,-0.24657688402858163
-5582.151104688644,4152.0,-2420.0,16012.0,33.0,-36.0,-358.0,0.25936757073036204,-0.8591086072605703,-0.3627728637092266,-0.25111095862275795
-5582.166682004929,3860.0,-2476.0,15796.0,10.0,-109.0,-368.0,0.24851896091562373,-0.8491142925063567,-0.3928246391623867,-0.2508626062086353
-5582.182245969772,4168.0,-2464.0,15840.0,-15.0,-185.0,-348.0,0.23336309301825717,-0.8410344435237299,-0.4220407644569368,-0.2451210410394959
-5582.197815418243,4088.0,-2528.0,15812.0,-84.0,-181.0,-331.0,0.21338106780209362,-0.8339275158112046,-0.4479631811101104,-0.2415831257482642
-5582.213392496109,4064.0,-2540.0,15844.0,-121.0,-234.0,-402.0,0.1868349568223294,-0.8246517000603968,-0.47860022996968093,-0.23660957793306703
-5582.228963375092,4048.0,-2400.0,15796.0,-122.0,-336.0,-390.0,0.15584410160152634,-0.8164021349514065,-0.5090805854923933,-0.22368980199714247
-5582.244575023651,4124.0,-2432.0,15772.0,-143.0,-403.0,-406.0,0.11970401253782936,-0.8070943010730969,-0.5399794887463643,-0.20662015944938014
-5582.260173082352,4196.0,-2400.0,15620.0,-161.0,-422.0,-465.0,0.07999551075716546,-0.793192482741338,-0.5733202457116492,-0.18907749585412417
-5582.275803089142,4292.0,-2380.0,15912.0,-173.0,-376.0,-540.0,0.04025052214354788,-0.7722150905711146,-0.6093992202009909,-0.17520370937808744
-5582.291421413422,4320.0,-2424.0,15912.0,-143.0,-191.0,-567.0,0.011791222151547646,-0.7444003221182818,-0.6451682843105101,-0.17171782793351387
-5582.30700969696,4384.0,-2416.0,15628.0,-197.0,-208.0,-580.0,-0.021358661401161196,-0.7139166008050104,-0.6790305852134184,-0.16965953855558066
-5582.322629213333,4360.0,-2084.0,15876.0,-191.0,-186.0,-730.0,-0.054952884541396935,-0.6714995848678542,-0.7196889935208698,-0.1676789808169073
-5582.3382177352905,4496.0,-2412.0,15704.0,-204.0,-218.0,-823.0,-0.09236777692936157,-0.6201989691277843,-0.7616732070367501,-0.1633259261731379
-5582.353852272034,4424.0,-2372.0,15800.0,-186.0,-207.0,-746.0,-0.1265221090462402,-0.5706732643381552,-0.7958152938809366,-0.15812083770750682
-5582.369438648224,4096.0,-2408.0,15764.0,-94.0,-189.0,-614.0,-0.15256174299502961,-0.5287415180989198,-0.8216939274457767,-0.1482444306255809
-5582.3850128650665,4304.0,-2492.0,16028.0,-8.0,-112.0,-524.0,-0.16756282482049376,-0.4919613146960906,-0.8433574781951741,-0.13654643368813074
-5582.400629997253,4132.0,-2532.0,15744.0,112.0,-9.0,-544.0,-0.16970353797682164,-0.45312591766989263,-0.8669004493126039,-0.11983831989632036
-5582.416235923767,4020.0,-2268.0,15936.0,104.0,-35.0,-643.0,-0.17468693843305264,-0.4057168354669924,-0.8914565419169078,-0.10091361074247943
-5582.4318318367,3972.0,-1936.0,15696.0,24.0,-87.0,-598.0,-0.18562305080989644,-0.35981281263910553,-0.9102498778627849,-0.08674089415926062
-5582.44747543335,3960.0,-1700.0,15660.0,-108.0,-281.0,-575.0,-0.21536091768185214,-0.31399781891497086,-0.9214582847191303,-0.07706928294950002
-5582.463088989258,4096.0,-1812.0,15644.0,-235.0,-404.0,-530.0,-0.2573890396896516,-0.26915357332606415,-0.9250468734983718,-0.0748031954152832
-5582.478674411774,4280.0,-1960.0,15760.0,-213.0,-617.0,-542.0,-0.31491349446312206,-0.22401445317237986,-0.9200007257728707,-0.06515888544393558
-5582.494273662567,4364.0,-2100.0,15672.0,-257.0,-730.0,-546.0,-0.380402339714424,-0.17664604162925757,-0.9060449629595417,-0.056327267039587535
-5582.509860754013,4480.0,-2260.0,15384.0,-301.0,-776.0,-651.0,-0.4477580497089312,-0.1184688197113089,-0.8850587647059267,-0.046355697538520174
-5582.525443077087,4860.0,-2332.0,15680.0,-292.0,-748.0,-597.0,-0.5090942925340574,-0.06370835202253296,-0.8575213624237429,-0.03770093074114753
-5582.541035890579,4748.0,-2536.0,15800.0,-303.0,-730.0,-613.0,-0.5653494737022591,-0.006723915477324176,-0.8243153490280037,-0.02896492537661921
-5582.5566964149475,4836.0,-2808.0,15640.0,-221.0,-643.0,-599.0,-0.611419541452794,0.0455271627438065,-0.789855839963917,-0.014871915043097754
-5582.572284698486,5112.0,-2996.0,16068.0,-21.0,-261.0,-441.0,-0.6293492219714086,0.0766486342649741,-0.7733086289501312,0.006189350577012703
-5582.587849140167,4748.0,-3088.0,16044.0,207.0,-394.0,-265.0,-0.6565951419461145,0.0833020018898246,-0.7489425410867372,0.03207282657406697
-5582.603439092636,4588.0,-2980.0,15628.0,348.0,-319.0,-128.0,-0.6790857998071438,0.07256093974864906,-0.7280109637923484,0.05981156344070057
-5582.619005680084,4548.0,-2732.0,15688.0,395.0,-316.0,123.0,-0.7016721473936401,0.04294499612843972,-0.7071781611927811,0.075570981279345
-5582.634610414505,4572.0,-2608.0,15748.0,414.0,-284.0,297.0,-0.721867109584466,0.0011386978403750377,-0.6871798912635401,0.08179472177608012
-5582.650224208832,4564.0,-2424.0,15840.0,308.0,-2.0,318.0,-0.7238399980613063,-0.03728480038995524,-0.6842759024789773,0.08019968923300583
-5582.6657972335815,4564.0,-2328.0,15736.0,283.0,-172.0,314.0,-0.7348990629257711,-0.07263882510492435,-0.6697732039812203,0.07778704022477076
-5582.681379556656,4580.0,-2216.0,15732.0,228.0,-159.0,233.0,-0.7440509903700597,-0.09973261227511841,-0.6561154431437026,0.07716252358792268
-5582.696977138519,4520.0,-2312.0,15748.0,225.0,-189.0,146.0,-0.7536841758994195,-0.12135508915118369,-0.6406841784301622,0.08220029711131809
-5582.712563037872,4644.0,-2312.0,15772.0,229.0,-168.0,56.0,-0.7609066376914473,-0.13826904763737802,-0.6270853857933163,0.09309499506953553
-5582.728122711182,4744.0,-2504.0,15668.0,267.0,-120.0,-8.0,-0.7640323719591537,-0.15450049933564575,-0.6167291401679785,0.10967815630822426
-5582.743740797043,4632.0,-2512.0,15912.0,237.0,28.0,9.0,-0.7593459229610258,-0.17097939900896822,-0.6159606867823173,0.12145882732702523
-5582.759357213974,4676.0,-2512.0,15824.0,231.0,199.0,250.0,-0.747503531837245,-0.20167938742517313,-0.6224949128297681,0.11429776060672106
-5582.774936437607,4544.0,-2488.0,15792.0,239.0,232.0,39.0,-0.7308618864653528,-0.2215685948076395,-0.6341899503216822,0.12062904964500062
-5582.79052734375,4456.0,-2396.0,15768.0,502.0,225.0,-20.0,-0.7077644184562276,-0.25452048509404396,-0.6428104724675412,0.14520174627347543
-5582.8061356544495,4596.0,-2332.0,15672.0,280.0,4.0,-44.0,-0.7006362710773144,-0.26927495287759423,-0.6402038652066482,0.16352011001131736
-5582.821717500687,4416.0,-2252.0,15804.0,204.0,174.0,-72.0,-0.6849783765867404,-0.2800845177139823,-0.6493518257242521,0.1752127077985499
-5582.837296009064,4416.0,-2280.0,15644.0,86.0,139.0,-30.0,-0.6745541543622308,-0.28557815674898535,-0.6569330604612128,0.178495835507645
-5582.852910280228,4424.0,-2328.0,15720.0,-24.0,37.0,-81.0,-0.6718316709285621,-0.28004401513566024,-0.6614068661328634,0.18099312958324917
-5582.868523597717,4392.0,-2448.0,15628.0,-70.0,-56.0,-115.0,-0.6749879021212715,-0.2683489967408123,-0.6619095950294867,0.185083321631165
-5582.884097576141,4504.0,-2480.0,15388.0,-64.0,-194.0,-115.0,-0.6857769367583545,-0.2547015745627348,-0.6539907426603708,0.19269979097063908
-5582.899711370468,4688.0,-2668.0,15824.0,-62.0,-191.0,-95.0,-0.6964132742736849,-0.24226201434015474,-0.6455073043377944,0.19909291265590048
-5582.915335655212,4656.0,-2692.0,15812.0,4.0,-178.0,-103.0,-0.7045390898873358,-0.23352216622989092,-0.6366045385626412,0.209348346498057
-5582.930990457535,4696.0,-2672.0,15700.0,44.0,-66.0,-18.0,-0.707048726564222,-0.23396645244557115,-0.6320013383666504,0.2142804370368629
-5582.946645975113,4780.0,-2532.0,15800.0,39.0,-23.0,-65.0,-0.7063747551229078,-0.23230229255162957,-0.6310723228962104,0.2209481239447174
-5582.962297677994,4688.0,-2464.0,15732.0,-4.0,-1.0,-147.0,-0.7037042102356429,-0.22387032120490502,-0.6339233046916791,0.22983408700413277
-5582.97794508934,4780.0,-2372.0,15588.0,246.0,-73.0,-183.0,-0.6990854775888384,-0.22725556990786125,-0.6277481912080479,0.25605977701556937
-5582.993572473526,4668.0,-2464.0,15868.0,-33.0,-113.0,-122.0,-0.7032119655787772,-0.21595503615999034,-0.6238460531891831,0.263955404840001
-5583.009165525436,4848.0,-2596.0,15712.0,-65.0,-22.0,-87.0,-0.7036816108643537,-0.20665759148241197,-0.6255066769861422,0.2662071138414426
-5583.024751186371,4524.0,-2664.0,15832.0,27.0,-95.0,-86.0,-0.7064206894237688,-0.20134617311132413,-0.620454816703091,0.2747095712883074
-5583.0403299331665,4528.0,-2580.0,15656.0,95.0,-147.0,-128.0,-0.7095990299894198,-0.19665720455961097,-0.6111493595255211,0.29033019285706274
-5583.055963516235,4688.0,-2456.0,15748.0,81.0,-158.0,-219.0,-0.7109545357409772,-0.18587509922109402,-0.6027797545097373,0.31088689768476996
-5583.0715436935425,4676.0,-2376.0,15812.0,56.0,-71.0,-225.0,-0.7075999088449408,-0.17548867346254088,-0.6002589114787383,0.32893059097528365
-5583.087110996246,4668.0,-2340.0,15784.0,32.0,28.0,-195.0,-0.7000197728654467,-0.16796929018592086,-0.6038521916809074,0.3422296973583838
-5583.102672100067,4568.0,-2380.0,15940.0,61.0,140.0,-152.0,-0.6871656939107172,-0.16778115786558015,-0.6125926733868762,0.3526797537288008
-5583.1182560920715,4464.0,-2428.0,15788.0,199.0,122.0,-73.0,-0.6754060377541784,-0.17947383862128904,-0.6146037228087241,0.36589354917161054
-5583.133857727051,4444.0,-2512.0,15604.0,322.0,58.0,50.0,-0.6686449330072624,-0.20285099451614413,-0.6065952718406652,0.3792197301935574
-5583.149445056915,4580.0,-2516.0,15688.0,765.0,131.0,308.0,-0.6566923480524934,-0.2673770976231352,-0.5818161303612112,0.3984402566601888
-5583.16504573822,4804.0,-2348.0,15784.0,610.0,233.0,556.0,-0.6482228156446378,-0.3376748736782983,-0.5593180874164821,0.3910832878720999
-5583.180703878403,4716.0,-1992.0,15864.0,538.0,308.0,791.0,-0.6419452332332956,-0.41558821768857956,-0.5329306854452506,0.36218453219089136
-5583.196290969849,4568.0,-1904.0,15688.0,340.0,491.0,930.0,-0.6333149624463912,-0.49108224454530547,-0.5134997315241263,0.30670574360210645
-5583.211903333664,4472.0,-1904.0,15372.0,133.0,118.0,998.0,-0.6465988429686202,-0.5441405578428178,-0.4717745032928931,0.25149514433661063
-5583.2274849414825,4456.0,-2128.0,15428.0,43.0,-103.0,999.0,-0.6682450276023619,-0.5831425987214278,-0.4159090236225737,0.20102979060441722
-5583.2430963516235,4484.0,-2212.0,15352.0,124.0,-432.0,1204.0,-0.6944737920502323,-0.6225322231353094,-0.3251481013819435,0.15632816598840168
-5583.258704423904,4812.0,-2216.0,15640.0,231.0,-489.0,1452.0,-0.7092456458240676,-0.6649419449947582,-0.2114648681765749,0.10052578372364511
-5583.274277925491,5056.0,-2012.0,15620.0,284.0,-299.0,1507.0,-0.7050706218854295,-0.7011420807582329,-0.10199303615275818,0.02954016452986469
-5583.289856433868,5064.0,-1876.0,15652.0,227.0,-155.0,1492.0,-0.6904695879866631,-0.7216057523442886,-0.0005051948359084781,-0.05036497818264749
-5583.305424451828,5012.0,-1808.0,15492.0,110.0,-316.0,1199.0,-0.6744046569469356,-0.7253141062843957,0.09306597005234488,-0.10215934187028698
-5583.321011066437,4880.0,-1868.0,15316.0,-16.0,-672.0,972.0,-0.6578891699716142,-0.7185596150881742,0.19330431566039094,-0.11613509868021585
-5583.336629390717,4856.0,-2020.0,15312.0,-51.0,-965.0,793.0,-0.6330988026997655,-0.7077394676357891,0.2972235073646092,-0.09974436646053554
-5583.352272033691,5024.0,-2220.0,15468.0,65.0,-1062.0,621.0,-0.5927969794876179,-0.700346254638664,0.3914546556985052,-0.06978622540241793
-5583.367871522903,5240.0,-2624.0,15616.0,358.0,-905.0,710.0,-0.5328127573006288,-0.6962159089898857,0.47687372800400885,-0.06313019298756355
-5583.383473873138,5216.0,-2624.0,16016.0,623.0,-626.0,862.0,-0.46155446838711645,-0.6887202023630569,0.5517409736957974,-0.090630312335828
-5583.3990960121155,5004.0,-2668.0,15972.0,722.0,-271.0,1120.0,-0.393545469810119,-0.6613257294496669,0.6199176640414412,-0.15320682938172678
-5583.414682149887,4772.0,-2460.0,15628.0,645.0,32.0,1118.0,-0.340995752114891,-0.6186032447874076,0.6704711472096905,-0.22698097571693573
-5583.430266857147,4828.0,-2396.0,15520.0,386.0,225.0,900.0,-0.31433983414442923,-0.5707352588215274,0.702006148960928,-0.2874701720683803
-5583.445859670639,4016.0,-2120.0,15512.0,112.0,311.0,262.0,-0.3210806982765755,-0.5495450866027716,0.7032084677437421,-0.31686784923446804
-5583.461514949799,4004.0,-2148.0,15476.0,-31.0,630.0,-585.0,-0.37641720545416946,-0.5655336561671038,0.6564602611670476,-0.32793550690468565
-5583.477113008499,4260.0,-2520.0,15892.0,-59.0,1063.0,-1282.0,-0.47203381147990037,-0.6002645283186334,0.5540592611771062,-0.3314889318907125
-5583.492716550827,4312.0,-2332.0,16360.0,-90.0,1445.0,-2492.0,-0.6001130836615943,-0.6547965834309396,0.35542612164440784,-0.29116660728551147
-5583.508286476135,4680.0,-2512.0,16380.0,56.0,1723.0,-3165.0,-0.6972010083952861,-0.6792155264242508,0.0789971463717758,-0.2152590844121113
-5583.523908615112,5076.0,-2504.0,16068.0,133.0,1763.0,-3516.0,-0.7259874812577203,-0.6415213047928431,-0.22625876118648083,-0.10099289846478471
-5583.5394678115845,5296.0,-2632.0,15552.0,-53.0,866.0,-3611.0,-0.7075353185632633,-0.5318784351945643,-0.4592997311875625,0.07445038677935664
-5583.555088043213,5440.0,-2952.0,14932.0,-312.0,37.0,-3292.0,-0.6718008161802415,-0.36586071184361657,-0.5922121471739096,0.253208166630761
-5583.57068157196,6124.0,-3560.0,15156.0,-574.0,-531.0,-2620.0,-0.6417171277977274,-0.1799050577503658,-0.639399043741399,0.3834086083403154
-5583.586272478104,6564.0,-3872.0,15744.0,-894.0,-612.0,-1834.0,-0.6179972062346831,-0.006800839286124954,-0.6525559728816583,0.4384106567222143
-5583.601854562759,6728.0,-4164.0,15968.0,-1101.0,-442.0,-1074.0,-0.5969812522328446,0.12947982638156721,-0.6649145670306513,0.4298103972604031
-5583.617495059967,6572.0,-4276.0,15372.0,-1115.0,-7.0,-518.0,-0.5621758356147872,0.2167006587554021,-0.6964209580993382,0.3898679307993802
-5583.6330909729,6328.0,-4224.0,14808.0,-1016.0,-317.0,-142.0,-0.5550158005562942,0.2847511126284608,-0.7095525902696661,0.3277337129916865
-5583.648718357086,5512.0,-4004.0,14028.0,-773.0,-572.0,208.0,-0.575122476706446,0.32449661134505803,-0.7064415558658841,0.25470848858726103
-5583.664350032806,5220.0,-3616.0,13640.0,-676.0,-1069.0,493.0,-0.6285249838508159,0.34935849393099166,-0.676953914686166,0.1569661899412614
-5583.679963827133,5156.0,-3256.0,13804.0,-653.0,-1512.0,835.0,-0.7004342733414658,0.3520106507356394,-0.6203186199197058,0.026175184396598498
-5583.695533752441,5228.0,-3008.0,13572.0,-533.0,-1920.0,1113.0,-0.7754079713912662,0.3223659816690322,-0.5278673367817759,-0.12719562305503282
-5583.711116552353,5460.0,-3020.0,13708.0,-354.0,-2146.0,1337.0,-0.8292270983114739,0.2546131616245284,-0.4062037598019562,-0.2873204880899541
-5583.726675748825,5616.0,-3160.0,13748.0,-142.0,-2315.0,1524.0,-0.8455503562809334,0.14844814198833214,-0.26120346161460506,-0.44133943374000256
-5583.742243766785,5532.0,-3300.0,13592.0,113.0,-2458.0,1714.0,-0.8097917002505878,0.006079953591347118,-0.10264146333283844,-0.5776375735480533
-5583.7578561306,5388.0,-3368.0,13464.0,355.0,-2747.0,1871.0,-0.7106334147655625,-0.16728729760537478,0.07000559011980767,-0.6797899140399952
-5583.773422002792,5708.0,-3316.0,13204.0,615.0,-3056.0,2210.0,-0.5234949091585226,-0.35387556691869243,0.2424442153906458,-0.7361697940330739
-5583.789023637772,5924.0,-3356.0,13104.0,779.0,-3544.0,2580.0,-0.24111557406002493,-0.5241978825490924,0.4045361713035686,-0.7095282559446116
-5583.804687023163,6296.0,-3476.0,13176.0,934.0,-3665.0,2985.0,0.10682871732821514,-0.6133115016179924,0.5165350798374523,-0.5879014700053136
-5583.820280075073,6464.0,-3964.0,13632.0,1091.0,-3521.0,3408.0,0.456956328436718,-0.5771397107105776,0.5588115094647893,-0.3818774215795286
-5583.83590054512,6616.0,-4208.0,13676.0,1532.0,-3179.0,3674.0,0.7417021201228796,-0.4045600441662223,0.517130534702429,-0.1370589134198486
-5583.851490974426,6612.0,-4028.0,14328.0,1802.0,-2865.0,3634.0,0.8975163455018156,-0.1450582817199711,0.402124828328318,0.10825029747504589
-5583.867103815079,6820.0,-3840.0,14380.0,2620.0,-2351.0,3619.0,0.8959512183680451,0.1916499586619794,0.26382403927715686,0.30156024928554853
-5583.882699251175,6508.0,-3432.0,14816.0,2749.0,-2300.0,3224.0,0.7540996189811634,0.4989340358868584,0.09415775280804747,0.41657281485024195
-5583.898281097412,6772.0,-3480.0,15132.0,2514.0,-2481.0,2947.0,0.5177391064125527,0.7226400507848836,-0.09855610501198972,0.44724072808457216
-5583.913870573044,6988.0,-3560.0,15812.0,2315.0,-2634.0,2737.0,0.22581893069263678,0.8450000991699093,-0.27957137780615826,0.3960056661908311
-5583.929525136948,7752.0,-3372.0,16492.0,2549.0,-2494.0,2845.0,-0.11278027485559546,0.8472811917274167,-0.41851464427528623,0.30698645617615744
-5583.945166349411,8320.0,-3932.0,16864.0,2369.0,-2227.0,3318.0,-0.4246985835961539,0.7065141634476563,-0.5360936761024252,0.18185824254695498
-5583.960793972015,8716.0,-4584.0,16868.0,2257.0,-2082.0,3801.0,-0.6638525429618585,0.4396690617677505,-0.6047393440559222,0.016770303460364372
-5583.976692199707,9032.0,-5064.0,16504.0,1844.0,-1942.0,4076.0,-0.7758079066344962,0.11084747530753426,-0.5942419078039051,-0.18086316438380018
-5583.993615865707,9468.0,-5224.0,16092.0,1432.0,-1843.0,4389.0,-0.7486191303103509,-0.22281223438103787,-0.4902183314788292,-0.3867946398615373
-5584.009346485138,9604.0,-5180.0,16284.0,1407.0,-1781.0,4496.0,-0.5911254951388832,-0.519273946450522,-0.3055200932280679,-0.5362673681741446
-5584.024973392487,9620.0,-5024.0,16600.0,1614.0,-809.0,4482.0,-0.30384064338972805,-0.7001479730058142,-0.12534514148042838,-0.6338472014828314
-5584.040568351746,9420.0,-4592.0,16632.0,1940.0,-36.0,4220.0,0.04432331921156902,-0.7410703227296073,0.02433446612730528,-0.6695207643544777
-5584.05624628067,9276.0,-3900.0,15748.0,2235.0,355.0,4023.0,0.39261766987799124,-0.6520660343700294,0.14408814241025902,-0.6323763589329389
-5584.071929931641,8964.0,-3788.0,15052.0,2268.0,393.0,4108.0,0.6877270408583277,-0.463236883091747,0.24613669565576618,-0.501856388289869
-5584.087532043457,8564.0,-4472.0,14904.0,2003.0,691.0,3948.0,0.8631923656149365,-0.21217230022928008,0.33464817161600346,-0.3128777016560493
-5584.103148460388,8424.0,-4516.0,15616.0,1719.0,1312.0,3519.0,0.8964253625741043,0.05262599523082139,0.4247410371636877,-0.11509615679494316
-5584.118728160858,8132.0,-3876.0,15944.0,1500.0,1968.0,3323.0,0.7994184147043186,0.29426016144823536,0.5155510527522082,0.09245684194359176
-5584.134339809418,7268.0,-2980.0,16828.0,1160.0,2921.0,2806.0,0.5777994785931485,0.44850451191560087,0.6162192996225841,0.2920021234537283
-5584.149986743927,6432.0,-2608.0,19096.0,626.0,4703.0,1825.0,0.23203776569748508,0.4189545469239233,0.7293014286123238,0.48862561243339747
-5584.16561627388,5164.0,-2000.0,21652.0,-467.0,6073.0,924.0,-0.15580671540127777,0.18430529225157247,0.7032900879760583,0.668684438908635
-5584.181216239929,6236.0,-540.0,20728.0,-1375.0,5531.0,-152.0,-0.4157601997939944,-0.11563844890451809,0.4925026848359374,0.75578588954254
-5584.196810007095,6836.0,88.0,17388.0,-2013.0,3559.0,-1698.0,-0.4450613276248264,-0.32669561423671045,0.19891068293135078,0.8097066941226982
-5584.212420225143,6340.0,-1136.0,13804.0,-1951.0,1829.0,-2158.0,-0.36399013198697316,-0.39981335312712857,-0.06858766554921138,0.8384248318196793
-5584.2280626297,5220.0,-3560.0,12412.0,-1242.0,1581.0,-1621.0,-0.2724301578728028,-0.45473249772263213,-0.2597674615908141,0.8071685266999705
-5584.243665933609,4860.0,-5364.0,13016.0,317.0,2665.0,-653.0,-0.14913119866329805,-0.6173917408542726,-0.31762306396338047,0.704061725382578
-5584.259302616119,3972.0,-5556.0,14996.0,1225.0,3591.0,314.0,-0.002681859690891496,-0.8186441842295409,-0.25827324498023413,0.5129419442618507
-5584.274898052216,3676.0,-4324.0,16296.0,1493.0,4890.0,548.0,0.17311433452951047,-0.9581811100226538,-0.13995766146725536,0.17981168085743782
-5584.290486097336,2640.0,-1596.0,16484.0,1444.0,5412.0,292.0,0.31925833315658764,-0.9204552977117172,-0.009954572004463716,-0.22524890259603778
-5584.306070566177,2240.0,144.0,15404.0,1016.0,4545.0,-287.0,0.36974646500716013,-0.7431903078524157,0.06822568249968221,-0.5534446441843964
-5584.321655035019,2116.0,736.0,14584.0,107.0,3332.0,-872.0,0.30141218216346743,-0.5591006451671916,0.10917333126821369,-0.7646164716751056
-5584.337228059769,2424.0,764.0,15204.0,-326.0,2167.0,-1311.0,0.1731237133417935,-0.42494376033855813,0.12093889116185756,-0.8802413106828234
-5584.352802038193,2800.0,-12.0,16036.0,-408.0,2120.0,-1560.0,0.01535025102199477,-0.2770920199579474,0.12309062630728466,-0.9528027497779729
-5584.3684277534485,2532.0,-1552.0,16240.0,-319.0,2467.0,-1419.0,-0.13277886939680805,-0.08474245819351103,0.11496670356536434,-0.9808012768610879
-5584.384070396423,1876.0,-2764.0,16108.0,-127.0,2634.0,-1006.0,-0.23908591020918366,0.1285220426771696,0.08516014662902956,-0.9586802185878543
-5584.399648427963,1032.0,-2848.0,15688.0,90.0,2342.0,-685.0,-0.30795549707385994,0.31023788654264217,0.03567112768998344,-0.8986898442871553
-5584.415262937546,780.0,-2440.0,15436.0,296.0,1863.0,-281.0,-0.3392083168949989,0.441224588085993,-0.029564588890528574,-0.8302918256259914
-5584.430854558945,276.0,-1716.0,15432.0,432.0,1330.0,211.0,-0.3346428434152002,0.5201362750782367,-0.10752113759573194,-0.7784032551761629
-5584.446449279785,-32.0,-1152.0,15860.0,519.0,1065.0,858.0,-0.2876346482379355,0.5645444673762624,-0.21109059384573542,-0.7443094885044432
-5584.462059736252,-352.0,-612.0,16868.0,1074.0,946.0,1397.0,-0.228949291012389,0.5646339024086469,-0.3678504262604416,-0.7024648334939754
-5584.477654218674,-212.0,-160.0,16840.0,1172.0,616.0,1718.0,-0.1588032654861752,0.5145847902658204,-0.527277687069247,-0.657238356471162
-5584.493284702301,-296.0,124.0,16560.0,1035.0,291.0,1950.0,-0.07857978322405797,0.41927043810620507,-0.6657628982259836,-0.6122068937413473
-5584.508880376816,-176.0,308.0,16344.0,793.0,74.0,1990.0,0.0029824884465380484,0.29694193095062094,-0.7680944260370047,-0.5673160909906109
-5584.524498701096,40.0,292.0,15956.0,761.0,41.0,1872.0,0.07751730019253525,0.1709906300006843,-0.841249870208708,-0.5070028880555427
-5584.540092229843,408.0,236.0,15848.0,395.0,17.0,1791.0,0.15023820398313048,0.04234152723577925,-0.8741714187757822,-0.459847809313909
-5584.555727720261,536.0,-72.0,15956.0,420.0,-31.0,1672.0,0.2110875064971154,-0.08008699094902796,-0.8875798741917158,-0.4015346876813737
-5584.571291208267,964.0,-328.0,16248.0,623.0,-150.0,1599.0,0.2570188167002137,-0.1955579521356376,-0.8909508168722962,-0.319225715024848
-5584.586864709854,1348.0,-600.0,16368.0,832.0,-524.0,1375.0,0.2659546007852036,-0.2952348698083124,-0.8927264895184202,-0.21247102598370912
-5584.6024305820465,1768.0,-840.0,16312.0,888.0,-867.0,1231.0,0.2413670304395667,-0.382205159694644,-0.8873115062619276,-0.09132066236491117
-5584.618008613586,2180.0,-876.0,16560.0,955.0,-1027.0,901.0,0.19882113275263638,-0.4354708329824243,-0.8772537727638753,0.0355123776182193
-5584.633589506149,2580.0,-696.0,16800.0,913.0,-1049.0,596.0,0.15009012606931763,-0.45803238148568426,-0.862476886492837,0.1543143280213181
-5584.649194717407,3252.0,-736.0,16768.0,820.0,-1000.0,185.0,0.10445793141396974,-0.44485561897543907,-0.8516089492541515,0.25681552986712747
-5584.664786338806,2948.0,-344.0,16548.0,744.0,-630.0,-167.0,0.08995523808138535,-0.40999609118759,-0.8440072543767084,0.3338607717479081
-5584.680374383926,2892.0,-452.0,16056.0,638.0,-755.0,-264.0,0.06462916508171133,-0.36207479433079426,-0.8374385376507445,0.4042543877171116
-5584.696004390717,2776.0,-960.0,15408.0,524.0,-935.0,-672.0,0.0363593063043989,-0.27530376973968623,-0.8403252338583889,0.46555272156118344
-5584.711574316025,2652.0,-1444.0,15592.0,357.0,-1107.0,-797.0,-0.0038238523495400063,-0.16941733317784663,-0.8420894381518907,0.5120239481949536
-5584.727164745331,2796.0,-1776.0,15600.0,138.0,-1089.0,-1565.0,-0.011704772598116158,-0.005648019600170151,-0.8469405901556606,0.5315286774199525
-5584.74279499054,3068.0,-1344.0,15936.0,-150.0,-993.0,-2112.0,0.012558419338287014,0.1927610775100851,-0.8366156493831546,0.51260092499729
-5584.758428812027,3360.0,-532.0,16264.0,-361.0,-674.0,-2754.0,0.08990658385860796,0.41105150653411227,-0.7831089174348158,0.45792345276146595
-5584.774008512497,3568.0,-192.0,16268.0,-574.0,-453.0,-3361.0,0.20488298857019502,0.6267597111209526,-0.6598640114736339,0.3602425736528776
-5584.789605379105,3496.0,-300.0,16080.0,-662.0,-418.0,-3993.0,0.32287425415885185,0.8085564186181853,-0.4425738657668015,0.2147489400507675
-5584.805290460587,3284.0,-704.0,15960.0,-760.0,-461.0,-4378.0,0.41070936271204006,0.8989550610771903,-0.1498065293780636,0.027488566715527907
-5584.820871353149,2896.0,-1144.0,15724.0,-921.0,-864.0,-4762.0,0.44386779815408556,0.8545759603256693,0.17518327288823995,-0.2049198055227179
-5584.836489915848,3028.0,-1548.0,15256.0,-1236.0,-1356.0,-5057.0,0.42217391227563117,0.6381876357896206,0.4724830567494862,-0.43731623615388915
-5584.852097034454,3484.0,-1564.0,15300.0,-1499.0,-1737.0,-5192.0,0.33974406186448186,0.27098988075321234,0.6764078120360625,-0.5946519391827203
-5584.867748498917,3868.0,-1744.0,15600.0,-1639.0,-1823.0,-5229.0,0.19175881614445037,-0.16166636154394604,0.7420653553000373,-0.621636189776183
-5584.883336544037,4088.0,-1716.0,16192.0,-1634.0,-1452.0,-5189.0,-0.016887747874023203,-0.5420096126697758,0.6579335669681604,-0.5225550738456725
-5584.89891576767,4184.0,-1740.0,16460.0,-1641.0,-909.0,-5050.0,-0.24677441555634355,-0.7882585562806655,0.44807527422431326,-0.34202249181296923
-5584.91453909874,4164.0,-1752.0,16004.0,-1813.0,-788.0,-4931.0,-0.4426848901425585,-0.875963830793769,0.16317156157647444,-0.1004614188296735
-5584.930207014084,4136.0,-1612.0,15812.0,-1804.0,-909.0,-4901.0,-0.5542622720363172,-0.8022627426085748,-0.14578600268592257,0.1670756326942009
-5584.945817232132,4420.0,-1668.0,15272.0,-2274.0,-1170.0,-4815.0,-0.5943714444699365,-0.55426890573874,-0.41492806092241086,0.40907611808692657
-5584.961431980133,4688.0,-1708.0,15376.0,-2512.0,-1390.0,-4686.0,-0.5400591772306225,-0.18437221784342042,-0.5943184157629029,0.5666820899424606
-5584.977040052414,5096.0,-2132.0,15948.0,-2661.0,-1152.0,-4377.0,-0.38742901301247035,0.2047230346771503,-0.6745000297901207,0.5941691247127265
-5584.992699384689,5288.0,-2836.0,16716.0,-2382.0,-369.0,-3948.0,-0.15007492579304674,0.4978291289595785,-0.6629072766862798,0.538699932730587
-5585.008265972137,5300.0,-3688.0,17340.0,-1882.0,232.0,-3666.0,0.1105649443339505,0.6808487387544375,-0.5598465349430202,0.4591211662875233
-5585.0239062309265,5112.0,-4136.0,17196.0,-1253.0,340.0,-3491.0,0.3248429202622534,0.7852359252871326,-0.3797062724613401,0.3656566223213611
-5585.039484739304,4672.0,-4080.0,16868.0,-729.0,62.0,-3568.0,0.46772567845688334,0.8393986081044102,-0.14927515023062277,0.23315144423325354
-5585.055097579956,4412.0,-3496.0,16728.0,167.0,-164.0,-3028.0,0.4978437251517628,0.8592847180282932,0.06697970021100567,0.09641119462851155
-5585.07072019577,4564.0,-3224.0,16732.0,681.0,80.0,-2719.0,0.45578779556922006,0.8472642015864802,0.2720934065962353,-0.01913207273221933
-5585.086307525635,3912.0,-2668.0,16620.0,1050.0,394.0,-2366.0,0.35570543187003656,0.8125287153210476,0.44940791920892625,-0.10631676570128598
-5585.101937532425,3804.0,-2376.0,16036.0,1376.0,399.0,-2161.0,0.2169505376075795,0.7550721077126967,0.587440786605406,-0.1941955164737586
-5585.117548942566,3584.0,-1892.0,15168.0,1395.0,164.0,-1979.0,0.08125484682037515,0.6679548417063609,0.6821980877120063,-0.2860764730475224
-5585.133166313171,3448.0,-1532.0,14532.0,1247.0,-243.0,-1851.0,-0.022783617064793697,0.5500216925815592,0.7431180937820113,-0.3804373051856925
-5585.148731946945,3768.0,-1396.0,14156.0,1274.0,-597.0,-1555.0,-0.09530969446898477,0.4197867600446639,0.763942463923904,-0.4807151443893848
-5585.164334535599,4284.0,-1776.0,14696.0,771.0,-644.0,-1122.0,-0.12665083305903502,0.3088289751318851,0.7713869735258118,-0.5417991949782968
-5585.179960012436,4700.0,-1980.0,15312.0,582.0,-275.0,-891.0,-0.16525278976264163,0.2282995359209022,0.76734304707887,-0.5759821919761757
-5585.195556879044,4628.0,-2444.0,15424.0,630.0,89.0,-600.0,-0.21336990190083632,0.1829201592898572,0.7441048393714844,-0.6060705308065539
-5585.2111287117,4796.0,-2844.0,15432.0,797.0,117.0,-267.0,-0.24720477874238778,0.15644672253148711,0.7020126292446986,-0.6493015391611422
-5585.2267191410065,4792.0,-3020.0,15624.0,960.0,-144.0,310.0,-0.23306491907507595,0.14593646470952384,0.6438278677102792,-0.7140510965780036
-5585.242310523987,5112.0,-3280.0,16084.0,1004.0,-376.0,912.0,-0.1666911767941015,0.15211697662842547,0.5728508039239399,-0.7879825083363973
-5585.257938146591,4768.0,-3260.0,16284.0,932.0,-464.0,1516.0,-0.05099633276091511,0.18005232279554817,0.48896988432482913,-0.8519911896987133
-5585.273532152176,4724.0,-3108.0,16116.0,949.0,-193.0,1977.0,0.08769984930667199,0.24131502797879492,0.3810696780247103,-0.8881788638519407
-5585.289155006409,4212.0,-2868.0,15676.0,967.0,-78.0,2175.0,0.23352325387892633,0.3082547600697263,0.2541344174536468,-0.8864883477280734
-5585.304759025574,3960.0,-2484.0,15116.0,965.0,-72.0,2124.0,0.36598535904415874,0.3618270583204259,0.1183314068757197,-0.8491958401801778
-5585.3203337192535,3768.0,-2116.0,14976.0,996.0,-496.0,2010.0,0.4791244823578494,0.3700453699654888,-0.03418119530460462,-0.7951967055137839
-5585.335926771164,3716.0,-1812.0,15176.0,948.0,-614.0,1687.0,0.5551683418864449,0.3562563242661016,-0.1773753805863469,-0.7303475323086334
-5585.35150885582,4080.0,-1492.0,15708.0,779.0,-788.0,1429.0,0.6024576885275593,0.3174970203736831,-0.30581610611835813,-0.6653697354302106
-5585.367089509964,4592.0,-1448.0,16228.0,764.0,-841.0,1153.0,0.6197363593953021,0.2751298361229358,-0.4220823901211923,-0.6017282393805403
-5585.382677078247,4900.0,-1436.0,16708.0,499.0,-668.0,1018.0,0.6325541200182575,0.22788530744762994,-0.5054387077345452,-0.5408098414609891
-5585.398258447647,5044.0,-1448.0,16852.0,-95.0,-450.0,411.0,0.6331793566498706,0.18288266557195343,-0.5330794549351217,-0.530531928984323
-5585.413858175278,5128.0,-1436.0,16536.0,-355.0,-280.0,-65.0,0.622417520921823,0.15309459800509417,-0.5305220905088988,-0.5547114431785758
-5585.4295036792755,5124.0,-1552.0,16324.0,-482.0,-200.0,-595.0,0.5894861602546335,0.14433204799514934,-0.5087444373964102,-0.6106172485346156
-5585.445108413696,4732.0,-1708.0,15940.0,-467.0,-70.0,-770.0,0.5496136220436387,0.15019394823190124,-0.4761281638647818,-0.6698273030814261
-5585.460729122162,4548.0,-1856.0,15676.0,-381.0,124.0,-1423.0,0.4727378641150795,0.19655995274637197,-0.4255671108994206,-0.7461740620853667
-5585.476324558258,4368.0,-1984.0,16072.0,-387.0,392.0,-1607.0,0.385144143543276,0.26280708939644687,-0.3526116732839792,-0.8113331192063817
-5585.4919419288635,4604.0,-2272.0,15768.0,-446.0,739.0,-1558.0,0.304199133267563,0.3438062502282119,-0.25722638404769393,-0.8503497733127399
-5585.507540464401,4080.0,-2456.0,15816.0,-465.0,908.0,-1576.0,0.2186936395054734,0.4283467531403535,-0.1492159358594194,-0.8639599270797024
-5585.523121595383,3816.0,-2520.0,15840.0,-475.0,820.0,-1297.0,0.14790226761953584,0.49300555815864106,-0.04870615480494915,-0.8559778906851521
-5585.538706541061,3660.0,-2520.0,15696.0,-433.0,630.0,-1546.0,0.05311137009461111,0.5348588021105969,0.05769482042371434,-0.8412945690231015
-5585.554285764694,3792.0,-2440.0,15840.0,-396.0,308.0,-1423.0,-0.034166763151139035,0.5436168708819729,0.15332519066341907,-0.8245027082407265
-5585.56987452507,4016.0,-2372.0,15924.0,-405.0,175.0,-1298.0,-0.10995154287932819,0.5360680431508071,0.24181033026953283,-0.8012923782901342
-5585.585482120514,4176.0,-2276.0,15952.0,-365.0,157.0,-1153.0,-0.17587981908864955,0.5231143184034023,0.3179652889160892,-0.7709187857116958
-5585.601066350937,4256.0,-2364.0,15972.0,-334.0,157.0,-1025.0,-0.2329646648033718,0.5079311172444163,0.38307175648753405,-0.7355198668081285
-5585.616711854935,4312.0,-2384.0,15856.0,-277.0,54.0,-944.0,-0.2821187247322985,0.4835543494666266,0.4399439545753317,-0.7021634660817577
-5585.632343053818,4384.0,-2396.0,15656.0,-279.0,12.0,-818.0,-0.3201013081755565,0.45832734386284363,0.48983162959022997,-0.6689814444548577
-5585.6479642391205,4400.0,-2456.0,15736.0,-197.0,56.0,-692.0,-0.35439808499398995,0.43654067530107943,0.5263527200953861,-0.637798596900666
-5585.663563251495,4348.0,-2412.0,16036.0,-133.0,147.0,-648.0,-0.391556197087988,0.41823592929579456,0.5528697549169285,-0.6050599028742291
-5585.679169893265,4312.0,-2508.0,15652.0,-64.0,270.0,-615.0,-0.4340645410147084,0.4042088474308914,0.5684184259362088,-0.5701786342441142
-5585.6948001384735,4300.0,-2288.0,15756.0,-19.0,303.0,-273.0,-0.46181173897850686,0.4061163706685089,0.5670817311500956,-0.5479212730059826
-5585.710407495499,4188.0,-2276.0,15844.0,244.0,357.0,-473.0,-0.5100482724596743,0.38924161898077686,0.5568396709461343,-0.5275142677451734
-5585.726035833359,4092.0,-2204.0,15804.0,-75.0,291.0,-439.0,-0.5413717207205979,0.3841355028844533,0.5615653509630044,-0.49396450482349913
-5585.74161863327,4124.0,-2096.0,15816.0,-10.0,208.0,-345.0,-0.5658571379069424,0.3763411646977899,0.5633023858584156,-0.4699611146891743
-5585.757193565369,4152.0,-2152.0,15816.0,70.0,96.0,-308.0,-0.585370158279059,0.36143627544614476,0.5654842317324925,-0.4548990879853253
-5585.772842645645,4196.0,-2200.0,16100.0,108.0,97.0,-212.0,-0.6019346112089475,0.34912708288087596,0.562693317465361,-0.44627484167007375
-5585.788425207138,4184.0,-2252.0,15916.0,92.0,101.0,-120.0,-0.6144003511318644,0.3421997329658629,0.5572920902842274,-0.44140353124297776
-5585.804061889648,4224.0,-2524.0,15964.0,91.0,64.0,-54.0,-0.6223814165296115,0.337046757403986,0.5518333094769751,-0.4410451838913355
-5585.819626569748,4260.0,-2272.0,16112.0,90.0,2.0,-32.0,-0.6264415112326399,0.3305875987658658,0.5490798892170387,-0.44361486427326785
-5585.835299015045,4204.0,-2220.0,15844.0,86.0,-28.0,14.0,-0.6271251391686589,0.32536675365623824,0.5467551384395773,-0.4493432474487734
-5585.850894212723,4296.0,-2280.0,15744.0,97.0,-68.0,52.0,-0.6246617683726513,0.31975491993994104,0.5450557512465543,-0.4587686719260683
-5585.866502523422,4320.0,-2188.0,15820.0,68.0,-43.0,106.0,-0.620333548545442,0.31925006855420246,0.541575586977569,-0.46900060326939713
-5585.882128477097,4448.0,-2244.0,15728.0,84.0,82.0,60.0,-0.6241591084968258,0.3207740496588897,0.5318823846264378,-0.47395204954718556
-5585.89771938324,4460.0,-2252.0,15780.0,140.0,107.0,11.0,-0.6326220327720461,0.3179424656715397,0.5197829704261231,-0.47804562107508314
-5585.913388252258,4436.0,-2304.0,15676.0,215.0,129.0,-19.0,-0.6451840398253403,0.31040755226364536,0.5039825555608056,-0.4831007037282656
-5585.92908000946,4460.0,-2312.0,15984.0,13.0,142.0,253.0,-0.6410157276559771,0.32657619443096,0.4883119061545221,-0.4939618491709732
-5585.944741725922,4484.0,-2152.0,15956.0,297.0,179.0,-34.0,-0.658376986648678,0.3159592174043607,0.4661333905573666,-0.4994288523865277
-5585.960337400436,4492.0,-2080.0,16120.0,294.0,188.0,-1.0,-0.6739692352826736,0.30694604261461345,0.44221985395060776,-0.5059557269046562
-5585.976002931595,4496.0,-2048.0,15776.0,271.0,182.0,3.0,-0.6879475183691057,0.2988945149137185,0.41917647245370754,-0.5115480093456997
-5585.991600751877,4328.0,-2132.0,15592.0,232.0,162.0,94.0,-0.6955986886759645,0.2953861100207124,0.39638203564552144,-0.5213164030956849
-5586.007219791412,4264.0,-2212.0,15764.0,210.0,101.0,45.0,-0.7024120736430284,0.28856695417558365,0.37933111400289715,-0.5286343705318909
-5586.022800683975,4172.0,-2052.0,15852.0,217.0,-77.0,56.0,-0.702695626075743,0.2733384134820894,0.37242654741598763,-0.541113144904946
-5586.038417100906,4280.0,-2228.0,15740.0,222.0,-123.0,58.0,-0.7011742150067778,0.25555979571421383,0.36788047070594193,-0.5547142239904372
-5586.0540163517,4408.0,-2044.0,15820.0,204.0,-151.0,-23.0,-0.7019157982130746,0.2347909895473748,0.3675358184350499,-0.5631206137352324
-5586.069628000259,4432.0,-1936.0,15820.0,203.0,-141.0,-60.0,-0.7044266399650286,0.2132709750459224,0.36719600821634507,-0.5687404431377494
-5586.085225582123,4456.0,-2012.0,15872.0,139.0,-115.0,-134.0,-0.7099416402522623,0.1945108946719212,0.3696403161056476,-0.5670224122547303
-5586.100797653198,4388.0,-2112.0,15924.0,160.0,-81.0,-119.0,-0.7159042700410436,0.17655114631765112,0.3685350876372648,-0.5661207097882196
-5586.1164021492,4268.0,-2152.0,15868.0,188.0,-125.0,-129.0,-0.7210635681884519,0.1542784767877295,0.36877703794650984,-0.565923120675233
-5586.132033109665,4232.0,-2088.0,15724.0,160.0,-180.0,-202.0,-0.7272222575337428,0.1286160594297411,0.3745981261886537,-0.5606085454755764
-5586.147639751434,4440.0,-2040.0,15740.0,139.0,-175.0,-1.0,-0.72306695579183,0.11103721764824546,0.37865004993966767,-0.5669824101500497
-5586.163216352463,4552.0,-1796.0,16044.0,94.0,-13.0,-367.0,-0.7413976691973596,0.09215082503364541,0.37796776265200466,-0.5467888915753305
-5586.178825378418,4592.0,-2008.0,15968.0,97.0,127.0,-380.0,-0.7640997906495319,0.07923132864831754,0.3677259595168769,-0.5240720610635106
-5586.194447517395,4452.0,-1832.0,16004.0,127.0,181.0,-572.0,-0.7959006079085333,0.06048726751632621,0.35307323458400924,-0.4880807349400512
-5586.210022687912,4608.0,-1880.0,16016.0,239.0,124.0,-678.0,-0.8282741780882551,0.028119776045644616,0.336939675589857,-0.44681407668153256
-5586.225615739822,4756.0,-1900.0,15884.0,255.0,17.0,-585.0,-0.8509770619638578,-0.0069077573457917195,0.32644342154497763,-0.4113696821957353
-5586.241207122803,4764.0,-1960.0,16036.0,224.0,96.0,-426.0,-0.8681551666303723,-0.03221009621981411,0.3104662621034825,-0.3858494738236565
-5586.256795406342,4612.0,-1976.0,16096.0,212.0,201.0,-236.0,-0.8805524608631874,-0.047825291374013465,0.2870152400274613,-0.3741154329411636
-5586.272397279739,4480.0,-2132.0,15972.0,167.0,326.0,-126.0,-0.8916880481990056,-0.05304109772436842,0.25557786897902723,-0.36980943679060047
-5586.288052082062,4332.0,-2248.0,16008.0,125.0,336.0,-121.0,-0.902068903224019,-0.05444689749506627,0.22446428467720636,-0.3645860859848157
-5586.303637981415,4216.0,-2172.0,15936.0,156.0,342.0,-30.0,-0.9085306775028313,-0.056214234684346935,0.19209803366874834,-0.3667564768558284
-5586.3192183971405,4116.0,-2100.0,15680.0,148.0,316.0,-40.0,-0.9139807103793752,-0.05822889121659756,0.1618494661558819,-0.36749613275129067
-5586.334800720215,4000.0,-1804.0,15716.0,155.0,227.0,-32.0,-0.9171762804813748,-0.0634528439550341,0.13844729476683162,-0.36823057136543486
-5586.350422382355,3996.0,-1864.0,15544.0,118.0,153.0,7.0,-0.9180196619102426,-0.06756355478541233,0.12242810573023614,-0.37106121508218587
-5586.366033554077,4016.0,-1884.0,15756.0,120.0,-32.0,45.0,-0.9154515018676361,-0.07740853309371208,0.12142692743155693,-0.3757818090689068
-5586.38161945343,4104.0,-1912.0,15804.0,132.0,-174.0,11.0,-0.912191271636627,-0.09320984023956311,0.13111969718165745,-0.37686421247374846
-5586.397213935852,4224.0,-2016.0,15884.0,195.0,-239.0,31.0,-0.9065303180955533,-0.11587815554898279,0.14397268116128392,-0.3795351136843232
-5586.412799358368,4500.0,-2112.0,15896.0,285.0,-315.0,18.0,-0.8984972234958449,-0.14821677028622196,0.15954908364379178,-0.3811543234499713
