programtime,ax,ay,az,gx,gy,gz,q0,q1,q2,q3
-278.5822196006775,7208.0,7892.0,12732.0,47.0,-56.0,-211.0,0.9998080382157223,0.004344355083698358,-0.005108488038786154,-0.018409688973281976
-278.59004640579224,7276.0,7916.0,12816.0,49.0,-37.0,-203.0,0.999271687275216,0.00888825586720141,-0.008564310183702215,-0.0361074301059998
-278.597838640213,7268.0,7860.0,12776.0,29.0,-7.0,-204.0,0.9984347214178395,0.011779452520556994,-0.009339020632560055,-0.05387146052616179
-278.6056182384491,7272.0,7848.0,12776.0,54.0,-52.0,-197.0,0.9972349722594714,0.016625988031503836,-0.014156662381673655,-0.0710322147679394
-278.61340260505676,7252.0,7872.0,12668.0,35.0,27.0,-199.0,0.9958191617991862,0.020306285046871257,-0.011974710981418574,-0.08825224120708267
-278.62116956710815,7264.0,7956.0,12548.0,74.0,254.0,-186.0,0.9941215103978057,0.02909454510449015,0.009607242028929474,-0.10384426276952256
-278.6289529800415,7312.0,7720.0,12728.0,17.0,36.0,-283.0,0.9911740922244828,0.030845196364921102,0.01302588649682264,-0.1282685426952133
-278.63676738739014,7272.0,7916.0,12716.0,9.0,66.0,-251.0,0.9880121895304705,0.03226079689013561,0.019036453500440954,-0.14976237097930983
-278.6445541381836,7300.0,7960.0,12736.0,247.0,65.0,-210.0,0.9840529120448365,0.05421844311769111,0.021720672148225616,-0.16801321115733847
-278.65232706069946,7300.0,7996.0,12732.0,2.0,89.0,-227.0,0.9803276860889596,0.05541715866460364,0.030116216494536614,-0.18702828640893496
-278.6601405143738,7332.0,7996.0,12660.0,-10.0,98.0,-235.0,0.9760488041555861,0.05568540538262516,0.03949980726915142,-0.20656145032295575
-278.6679136753082,7384.0,8016.0,12756.0,-26.0,101.0,-3.0,0.9757431487485368,0.05542497676934261,0.04828911006469399,-0.20620752040012605
-278.6756954193115,7400.0,8012.0,12744.0,-3.0,150.0,-503.0,0.9650782574956625,0.05583443095895439,0.06318689722553474,-0.24801993719786974
-278.68351340293884,7432.0,7888.0,12604.0,13.0,178.0,-265.0,0.957948089008572,0.05942282107818016,0.07885480484962107,-0.2694184604886304
-278.69129729270935,7392.0,7832.0,12628.0,13.0,213.0,-299.0,0.9489272990079836,0.0635401869509036,0.09755066210553663,-0.29322942240237204
-278.6990792751312,7356.0,7844.0,12676.0,24.0,233.0,-304.0,0.9385424820573173,0.06896401078683,0.1175447407942012,-0.31712017990268027
-278.70684790611267,7388.0,7800.0,12580.0,18.0,251.0,-362.0,0.9252021330831205,0.07370343289097106,0.13937380245034584,-0.34517207318823173
-278.71462321281433,7364.0,7904.0,12600.0,26.0,318.0,-351.0,0.9098689321058476,0.08111915136510442,0.16607813766907611,-0.3714515605819162
-278.7223963737488,7292.0,7916.0,12628.0,6.0,412.0,-347.0,0.891686564141567,0.08988623930733984,0.20053534282202126,-0.3957285832383669
-278.73019337654114,7332.0,7996.0,12796.0,25.0,434.0,-348.0,0.8709232942775994,0.10066179245384861,0.2356086572770537,-0.41934279490738363
-278.7379665374756,7316.0,7988.0,12656.0,11.0,421.0,-343.0,0.8487468231647518,0.10976813607909122,0.2696396330998391,-0.4414456418759254
-278.7457230091095,7272.0,8152.0,12600.0,11.0,500.0,-357.0,0.8220300392643194,0.1213036062830213,0.3089674224874239,-0.4626998827440013
-278.75350689888,7256.0,8192.0,12676.0,-14.0,521.0,-331.0,0.7937069895290207,0.13224478599621925,0.349664962729242,-0.47986971689110647
-278.76128005981445,7148.0,8200.0,12656.0,-32.0,531.0,-376.0,0.7609940320711782,0.14058296946989718,0.39127396415062365,-0.4980252973744738
-278.7690625190735,7040.0,8364.0,13048.0,-90.0,512.0,-407.0,0.7258187334305175,0.1427369336783488,0.4332652729776006,-0.5148733215044912
-278.77683544158936,6956.0,8344.0,12748.0,-118.0,451.0,-390.0,0.6918334624755067,0.14059258193020233,0.471152833389917,-0.528786529418067
-278.7846369743347,7152.0,8304.0,12768.0,-161.0,329.0,-374.0,0.6624209371777423,0.13054374866495932,0.5023507314142949,-0.540185685038566
-278.79240679740906,6908.0,8412.0,12824.0,-191.0,509.0,-424.0,0.6212552391161065,0.12468938836742915,0.5444832937552028,-0.5495747693633974
-278.8003001213074,6824.0,8332.0,12840.0,-219.0,185.0,-400.0,0.5951937991371145,0.10258632116553587,0.5687162924125925,-0.5583745758206803
-278.8081555366516,6792.0,8436.0,12844.0,-233.0,33.0,-458.0,0.5728197112470321,0.06928696998206202,0.5851724817327139,-0.5697807129241461
-278.8159511089325,6808.0,8156.0,13032.0,-216.0,-10.0,-500.0,0.5492203379496685,0.03241489456300174,0.5976441503465038,-0.583204736391541
-278.8237421512604,6804.0,8012.0,12712.0,-212.0,-120.0,-545.0,0.5276838617187367,-0.01227176766190362,0.603291598497186,-0.5978615165594483
-278.83152866363525,6812.0,7892.0,12548.0,-207.0,-115.0,-547.0,0.5043459680647987,-0.056537025512135554,0.6072766914230057,-0.6112722219251819
-278.8393189907074,6808.0,7896.0,12640.0,-148.0,-119.0,-554.0,0.4797853853602102,-0.09864028648645595,0.6062973548205273,-0.6264819194631687
-278.84711027145386,7156.0,7840.0,12696.0,-155.0,-118.0,-493.0,0.4572855896951275,-0.13753135641528727,0.6048287843326107,-0.6373046030764937
-278.8548791408539,6896.0,7796.0,12788.0,-145.0,-37.0,-490.0,0.4298428999957006,-0.17107720953967626,0.6048211699530772,-0.6481967464250299
-278.86268973350525,6804.0,7772.0,12828.0,-96.0,-47.0,-407.0,0.4076131286793833,-0.19869275298120026,0.6018968949207738,-0.6573377024982573
-278.8704719543457,6928.0,7876.0,12588.0,-96.0,-25.0,-395.0,0.38437255725065583,-0.22415658808299507,0.5991787511578813,-0.6655797363295124
-278.878258228302,6972.0,7848.0,12996.0,-93.0,-31.0,-403.0,0.3605370417630329,-0.2499938518435171,0.5951585743853289,-0.673277347675403
-278.8861198425293,6976.0,7908.0,12604.0,-113.0,-65.0,-397.0,0.33789684087864275,-0.2778132244613743,0.5905909741219098,-0.6781208141064105
-278.89389729499817,6668.0,7860.0,12716.0,-112.0,-129.0,-297.0,0.32410722579039575,-0.30392856498341164,0.585845545662682,-0.677766132382529
-278.90168356895447,7152.0,7836.0,12664.0,-145.0,-130.0,-271.0,0.3107381783069949,-0.32944368153829195,0.5832039527029247,-0.6743751143011071
-278.90945315361023,6936.0,7860.0,12660.0,-171.0,-113.0,-276.0,0.29518519001263716,-0.35462572158640626,0.5819037411560347,-0.669697198153863
-278.9172213077545,6992.0,7764.0,12772.0,-201.0,-176.0,-239.0,0.28378078476286106,-0.3820468318775481,0.5813364264793267,-0.659967153500801
-278.92498564720154,7052.0,7748.0,12756.0,-156.0,-138.0,-284.0,0.26907757525365444,-0.4080795260128365,0.5770649759907349,-0.6542662855669433
-278.93276286125183,7108.0,7756.0,12904.0,-144.0,-124.0,-188.0,0.25936791283711097,-0.42789549351667766,0.5754295533170845,-0.646927014112056
-278.940527677536,7416.0,7688.0,12844.0,-120.0,-112.0,-216.0,0.24822120582021812,-0.4476602046885699,0.5713503290255262,-0.64151802440911
-278.94829654693604,7148.0,7704.0,12892.0,-101.0,-62.0,-177.0,0.23738976864278,-0.46206505733782005,0.5685588163746708,-0.6378736966310476
-278.95609402656555,7172.0,7664.0,12944.0,-72.0,-38.0,-148.0,0.22807983791759592,-0.4729627392144818,0.5656615851730784,-0.6358559631785311
-278.9638650417328,7156.0,7640.0,13060.0,17.0,39.0,-79.0,0.2224365010247885,-0.4743404683646131,0.5621284048581949,-0.6399490444832854
-278.9716544151306,7092.0,7708.0,13008.0,31.0,72.0,-22.0,0.21892368569192064,-0.4707784444773531,0.5607815801382148,-0.6449527854317989
-278.9794442653656,7080.0,7748.0,13012.0,60.0,72.0,-36.0,0.21580011362731563,-0.46731686617142404,0.5571892046198712,-0.6516022159302656
-278.98725175857544,7032.0,7868.0,12876.0,120.0,34.0,-248.0,0.2048439664811035,-0.4750390439442383,0.5406363142973931,-0.6633922156520702
-278.995019197464,6952.0,7820.0,12912.0,91.0,-252.0,235.0,0.23397303926063676,-0.4766773392585831,0.5402500910528591,-0.6528132736501882
-279.0028238296509,7152.0,7832.0,12856.0,69.0,-46.0,-21.0,0.2377811021333798,-0.47885888278226835,0.5343959380711875,-0.6546566269593308
-279.0105938911438,6936.0,7892.0,12820.0,25.0,-102.0,-10.0,0.2429748636841319,-0.48460610198337517,0.5303156391255368,-0.6518323898342498
-279.01836824417114,6680.0,7688.0,12760.0,246.0,-127.0,9.0,0.2596706655546284,-0.4860443760930298,0.5137609562835747,-0.6575573661037801
-279.0261754989624,6996.0,7916.0,12896.0,-48.0,-135.0,-55.0,0.26048335923669214,-0.4972912905734038,0.5109791983325216,-0.6509608672969985
-279.03395557403564,7016.0,8160.0,12792.0,-97.0,-169.0,-113.0,0.2573143900652968,-0.514029506354392,0.50754988331082,-0.6418380537281638
-279.0417306423187,7036.0,7880.0,12808.0,-81.0,-154.0,-199.0,0.24926084697114742,-0.5331387803710608,0.4994737358367745,-0.6357342670022909
-279.049546957016,7068.0,7892.0,12780.0,-103.0,-156.0,-216.0,0.23917946523703637,-0.5532687679720963,0.49149916717257014,-0.6285820729739546
-279.05731558799744,7044.0,7860.0,12956.0,-149.0,-156.0,-7.0,0.23822096488375413,-0.5651247974044494,0.4959044502500504,-0.6147873709426931
-279.06509804725647,6988.0,7804.0,12636.0,-112.0,-153.0,-505.0,0.21195217142517647,-0.5968490465106162,0.47321179136541786,-0.6123055554380125
-279.07289934158325,6992.0,7780.0,12888.0,-69.0,-208.0,-318.0,0.19980416805915902,-0.6220076472578079,0.45614151640980677,-0.6042513534832636
-279.08066987991333,6972.0,7816.0,12968.0,-85.0,-241.0,-346.0,0.18636679270300155,-0.6495012672790245,0.43724673923197754,-0.5934903633687246
-279.08845615386963,7024.0,7788.0,12972.0,-79.0,-254.0,-344.0,0.17359682429428383,-0.6765663112565978,0.41732613496117876,-0.581344189053218
-279.0962646007538,7056.0,7800.0,12952.0,-122.0,-2.0,-372.0,0.14745900606692944,-0.6916398122748201,0.4012084407345535,-0.5821700771162609
-279.1040451526642,7124.0,7772.0,12992.0,-152.0,-163.0,-406.0,0.12321174210377896,-0.7154881265408022,0.38193708478419297,-0.5718563374252636
-279.11181020736694,7212.0,7896.0,13292.0,-152.0,-100.0,-433.0,0.0953086824328175,-0.7359039448169448,0.36103198630848266,-0.5648163807096345
-279.11961793899536,7112.0,7836.0,12816.0,-87.0,-91.0,-399.0,0.07281283541176913,-0.7531561079346207,0.3386389672537495,-0.5592654270893082
-279.12739515304565,7120.0,7816.0,12992.0,-134.0,-27.0,-404.0,0.04499060833799203,-0.766702864937539,0.3181619133044128,-0.5558017263201172
-279.13516998291016,7064.0,7800.0,13020.0,-100.0,24.0,-323.0,0.021891131853144036,-0.7745253191156365,0.3012944834184851,-0.5557453937340353
-279.1429841518402,7000.0,7844.0,12864.0,-100.0,36.0,-305.0,-0.0006759135654980982,-0.7806412611812907,0.2854164738518724,-0.5560001806979018
-279.150762796402,7160.0,7832.0,12960.0,-79.0,63.0,-7.0,-0.008034319551998239,-0.7776805382915922,0.28869632211612933,-0.5583931085431266
-279.15853786468506,6892.0,7844.0,12948.0,-72.0,20.0,-494.0,-0.0375363003071587,-0.7883106657235489,0.2583473331450936,-0.557148073605719
-279.16630363464355,6852.0,7808.0,12820.0,-49.0,6.0,-232.0,-0.05238571916323635,-0.7928722055280092,0.24463244007802773,-0.5556657011102728
-279.1741168498993,6820.0,7940.0,13048.0,-39.0,-11.0,-185.0,-0.06388630286053397,-0.7970191261840307,0.23367872338426826,-0.5532389240112764
-279.18188428878784,6852.0,7916.0,12896.0,-250.0,-40.0,-150.0,-0.08775202793601895,-0.8003009989344116,0.23540279357778346,-0.5444294421442273
-279.18968892097473,6828.0,8068.0,13060.0,-30.0,-56.0,-85.0,-0.09280865868877496,-0.8043937895686873,0.2312523831085914,-0.5393139340702352
-279.19745993614197,6772.0,8028.0,12880.0,14.0,-58.0,-105.0,-0.09566933063961708,-0.8092613740681514,0.223621871159566,-0.5347304614059215
-279.2052421569824,6724.0,8140.0,12824.0,17.0,-119.0,-6.0,-0.09249785085866345,-0.8149801650109053,0.22333126258162303,-0.5266636738745365
-279.213011264801,6420.0,8080.0,12888.0,-28.0,-110.0,-2.0,-0.09250840625241383,-0.8197615729363575,0.2253009650831733,-0.5183364095277679
-279.22078704833984,6908.0,8060.0,12876.0,-58.0,-166.0,-246.0,-0.10456432315536689,-0.8313041666849676,0.2115369297777593,-0.5032413060505575
-279.2285568714142,6684.0,7976.0,12936.0,-96.0,-176.0,-40.0,-0.1100960091538227,-0.8387168616381762,0.2143767052239209,-0.4883395571009437
-279.2363359928131,6628.0,8148.0,12968.0,-93.0,-249.0,-17.0,-0.11301593417693945,-0.8484817223389172,0.21938527480213338,-0.46816264981189065
-279.2441236972809,6680.0,7904.0,12992.0,-79.0,-268.0,-79.0,-0.1170008013607618,-0.8598491276992486,0.21929465855705127,-0.4459597995381727
-279.25190234184265,6684.0,7812.0,12996.0,-83.0,-338.0,-87.0,-0.12016276724968138,-0.873357263209208,0.21930259594016308,-0.4179884825931529
-279.2596673965454,6768.0,7760.0,12948.0,-92.0,-335.0,-57.0,-0.12285932282820128,-0.8852523500297947,0.22168944556585204,-0.38998417055776347
-279.2674751281738,6816.0,7836.0,12912.0,-33.0,-351.0,-93.0,-0.12179536123148571,-0.8981593884632902,0.21924908181864827,-0.36111693815081547
-279.2752425670624,6824.0,7760.0,12956.0,-61.0,-360.0,-109.0,-0.12312852101310907,-0.9104117528651897,0.21630724429650983,-0.3304557211229773
-279.2830114364624,6724.0,7800.0,12976.0,-25.0,-327.0,-93.0,-0.12164185454392819,-0.9208973348081441,0.21303461330984938,-0.302931694443308
-279.2908091545105,6776.0,7816.0,12984.0,-17.0,-348.0,-78.0,-0.11861322329371561,-0.9308937041365624,0.21078652856988445,-0.27374596660451933
-279.29858922958374,6756.0,7840.0,12984.0,-7.0,-324.0,-14.0,-0.11357976884647841,-0.9384238301715099,0.21306807702305675,-0.24710796350727066
-279.30637669563293,6748.0,7792.0,12848.0,22.0,-330.0,-33.0,-0.10637631910753302,-0.9459576346472559,0.21305724267841958,-0.2201246090921459
-279.31417083740234,6832.0,7872.0,12816.0,3.0,-281.0,233.0,-0.0964448093879405,-0.9465552567332224,0.2347171361547437,-0.1990964858759258
-279.3219337463379,6804.0,8176.0,12800.0,8.0,-299.0,71.0,-0.08846057089439373,-0.9500094444745111,0.24286227851772813,-0.17514193238469764
-279.3297007083893,6864.0,7820.0,12884.0,1.0,-308.0,129.0,-0.07990759603873493,-0.9515763037567492,0.25580458269161,-0.15060321941420943
-279.3374493122101,6832.0,7812.0,12868.0,53.0,-5.0,99.0,-0.0741529068207894,-0.9497453584021792,0.26334464658439294,-0.15210094581850736
-279.34522008895874,6820.0,7792.0,12932.0,71.0,-266.0,100.0,-0.06086770123257891,-0.9511190738522276,0.27231672168841553,-0.13233001696522348
-279.353000164032,6836.0,7852.0,13000.0,73.0,-234.0,68.0,-0.04850857775097019,-0.952352674797105,0.27828643983232576,-0.11501286057144677
-279.360778093338,6808.0,7780.0,12944.0,93.0,-246.0,75.0,-0.03409815030856749,-0.9531184528026523,0.2845420483095051,-0.09715119050451157
-279.3685441017151,6740.0,7852.0,12916.0,87.0,-207.0,63.0,-0.021237274659122625,-0.9533676890989334,0.28959666833921305,-0.08229700622768878
-279.37631726264954,6800.0,7920.0,12964.0,78.0,-208.0,90.0,-0.008895300790434813,-0.9525213219222783,0.2968425566926152,-0.06714537544369445
-279.3841292858124,6860.0,7876.0,12916.0,120.0,-212.0,57.0,0.006854236370043791,-0.952152765568098,0.300967975623989,-0.05269163229208254
-279.3919348716736,6900.0,7876.0,12800.0,144.0,-209.0,50.0,0.02448562170484372,-0.9514727133509343,0.3042560899244445,-0.03909426840633316
-279.39971232414246,6844.0,7904.0,12964.0,133.0,-191.0,94.0,0.04086721649154002,-0.9491178148148424,0.3111246816397206,-0.026583391279417827
-279.4074833393097,6836.0,8172.0,12856.0,156.0,-168.0,89.0,0.05850007570501293,-0.946318906191466,0.3174626622484058,-0.01660502951667688
-279.41526436805725,6812.0,7980.0,13092.0,120.0,-177.0,80.0,0.07337594845704293,-0.9435618625623042,0.3229283938767988,-0.004922817702890619
-279.4230306148529,6716.0,7984.0,12936.0,110.0,-143.0,96.0,0.08645331429145107,-0.9400670021267101,0.3298195728515748,0.004348025359679675
-279.43081617355347,6756.0,8028.0,12960.0,93.0,-182.0,46.0,0.09925129287242392,-0.9378193982520767,0.3322006959446601,0.016930881227755174
-279.43859362602234,6800.0,7936.0,12972.0,78.0,-178.0,107.0,0.11058253736443073,-0.9336073219104938,0.3394703933602948,0.030145031712818352
-279.4463737010956,6696.0,7984.0,12816.0,47.0,-211.0,105.0,0.12032681938546126,-0.9292872807041758,0.34603975152433747,0.04693715823302285
-279.4541711807251,6668.0,7944.0,13240.0,61.0,-7.0,140.0,0.12486885456284733,-0.9243108272711796,0.3575432840223759,0.04711755299168968
-279.46194195747375,6704.0,7932.0,12988.0,37.0,-226.0,117.0,0.1343597500715435,-0.9190994128662147,0.36458268069482025,0.06544612874013621
-279.46970677375793,6752.0,7908.0,13152.0,33.0,-221.0,150.0,0.14311334505379641,-0.912428468686926,0.37411368648702564,0.08385588578169038
-279.4774720668793,6716.0,7900.0,12968.0,61.0,-254.0,134.0,0.15520498630028784,-0.9051377089113964,0.38193855020748585,0.10373082473189715
-279.48523354530334,6684.0,7884.0,13056.0,80.0,-260.0,146.0,0.16878348435964582,-0.8965094062215111,0.39053915608444906,0.12354022635812548
-279.49300479888916,6684.0,7808.0,13008.0,107.0,-226.0,136.0,0.18331326365646258,-0.8875874971711956,0.3988888228400776,0.13954350305996452
-279.5007781982422,6668.0,7840.0,12992.0,147.0,-195.0,196.0,0.1990078101693527,-0.8757091787900366,0.41259717993916745,0.1526200929783648
-279.5085425376892,6792.0,7812.0,13020.0,176.0,-195.0,178.0,0.21700985803583908,-0.8633118794194989,0.4250046882358649,0.16422647577651023
-279.51630878448486,6788.0,7688.0,12856.0,185.0,-163.0,217.0,0.23377424692095436,-0.8490700056060152,0.44074779987609297,0.17369831306355665
-279.52411556243896,6856.0,7856.0,12920.0,158.0,-166.0,194.0,0.2488287975669378,-0.8355754843817084,0.45398563205315584,0.18383385240744382
-279.5318763256073,6832.0,7956.0,12924.0,196.0,-141.0,244.0,0.2646647055932081,-0.8190143401488019,0.47166092908508755,0.19158306871557013
-279.5396463871002,7164.0,7984.0,12928.0,188.0,-66.0,490.0,0.2723259813287335,-0.7925426749323926,0.5077786215684654,0.1996886070420134
-279.547411441803,7004.0,7976.0,12828.0,184.0,7.0,266.0,0.27998559184289046,-0.7761835805229795,0.5293516097855148,0.19731698078066665
-279.5551726818085,6940.0,7972.0,12892.0,141.0,43.0,199.0,0.28404793953400737,-0.7640963033570571,0.546194055657277,0.19273209594465673
-279.56297516822815,7032.0,8012.0,12924.0,146.0,103.0,165.0,0.2860249238337686,-0.7541643756519614,0.5620902997777705,0.18297631633386413
-279.57075452804565,7024.0,8096.0,12952.0,116.0,236.0,151.0,0.2795620463929162,-0.7473594260485625,0.5795805281887758,0.16548523153861103
-279.5785312652588,7060.0,8092.0,12964.0,64.0,293.0,167.0,0.2663700111204135,-0.7412422314160307,0.5982888600660841,0.14716457271340866
-279.5862991809845,6944.0,7980.0,13200.0,13.0,331.0,84.0,0.2487218675906986,-0.7404708343941608,0.6113222690275217,0.12698605980520983
-279.59412360191345,6896.0,7904.0,13048.0,-36.0,368.0,15.0,0.2264564659446285,-0.7441399762554549,0.6195660034839191,0.10540935488544045
-279.6018981933594,6840.0,7680.0,13112.0,-103.0,391.0,-46.0,0.19889784616373532,-0.7517860764856589,0.6229723870145536,0.08463301371873529
-279.60968136787415,6708.0,7864.0,13132.0,-153.0,391.0,-124.0,0.16836319528790356,-0.7635169190800638,0.620046013488392,0.06510522181889239
-279.61745858192444,6648.0,7824.0,13092.0,-149.0,339.0,-192.0,0.14105240482122097,-0.7775113131064627,0.6109845806601751,0.04773069537650016
-279.62523913383484,6556.0,7868.0,13060.0,-189.0,304.0,-201.0,0.11274233650018574,-0.7913190330366564,0.5999168378484341,0.034686325552664446
-279.63300609588623,6564.0,7800.0,12968.0,-172.0,218.0,-281.0,0.09020361808186227,-0.8079092869919366,0.5817880535464175,0.025856373059523124
-279.6407849788666,6564.0,7780.0,12800.0,-160.0,169.0,-259.0,0.07084619596151018,-0.8223265535915798,0.5642333611106248,0.020014244571929986
-279.6485548019409,6592.0,7824.0,13016.0,-132.0,114.0,-286.0,0.05618661020261468,-0.8370728213286804,0.5439467993428413,0.01655403610789361
-279.6563377380371,6720.0,7708.0,13084.0,-53.0,76.0,-290.0,0.049060318255947075,-0.8509141825761987,0.5228690914156654,0.01208521019517032
-279.66414642333984,6848.0,7656.0,13036.0,-48.0,55.0,-221.0,0.04316106719774177,-0.8610890807626786,0.5065347445203814,0.009234168252160238
-279.6719355583191,6856.0,7636.0,13112.0,4.0,16.0,-161.0,0.04283170263853446,-0.8681211826014192,0.4944478482826044,0.007237602952626624
-279.67970299720764,6856.0,7668.0,13052.0,78.0,-20.0,-114.0,0.04962608296292307,-0.8726748787613845,0.4857481986938748,0.004949276130489344
-279.6875123977661,6972.0,7572.0,13304.0,124.0,-18.0,-49.0,0.05980664241213344,-0.8741500030193303,0.4819587486877747,0.0008380381892166192
-279.6953167915344,6944.0,7488.0,12952.0,116.0,-66.0,29.0,0.07138293467386403,-0.8722606746331423,0.48380213998118793,0.0011320227494956076
-279.7030813694,6940.0,7484.0,12864.0,195.0,-55.0,87.0,0.08848534591951634,-0.8672089632442894,0.49001353427923766,-0.0023861788362311777
-279.71085262298584,6968.0,7428.0,12864.0,199.0,-96.0,139.0,0.10761709453243709,-0.8595273165278239,0.4996246061701356,-0.0025702171526080946
-279.71862959861755,6940.0,7412.0,12788.0,208.0,-72.0,213.0,0.1263290033340816,-0.8480012828145385,0.5147006358619589,-0.0042500240951911725
-279.7263927459717,7092.0,7492.0,12748.0,194.0,-61.0,278.0,0.14343361065796678,-0.8330225348242856,0.5342949998734791,-0.005395268180549873
-279.7341859340668,7124.0,7472.0,12636.0,220.0,-63.0,5.0,0.16230675526891586,-0.8299042203593479,0.5336609618061132,-0.011021799671252592
-279.7419505119324,7180.0,7564.0,12952.0,205.0,-65.0,275.0,0.1803377252949704,-0.8138789217150094,0.5522101515125909,-0.01197306100756592
-279.7497184276581,7224.0,7608.0,12732.0,172.0,-99.0,239.0,0.1974797900680163,-0.7994655728674269,0.5672448690204969,-0.00947569967698972
-279.7574770450592,7264.0,7880.0,12820.0,180.0,-113.0,178.0,0.21569593706154158,-0.7874170470928142,0.577403059603234,-0.007440661502877842
-279.7652430534363,7380.0,7700.0,12888.0,163.0,-177.0,230.0,0.23584978183120042,-0.7725492633048564,0.5895267799508137,0.0008318041378060123
-279.7730026245117,7404.0,7796.0,12872.0,122.0,-208.0,501.0,0.2544270339871248,-0.7433692649237011,0.6183146741707846,0.018867539542478832
-279.7807729244232,7484.0,7856.0,12932.0,113.0,-216.0,156.0,0.2730587783244171,-0.7318533779670252,0.6236305911262231,0.030239420460533177
-279.7885572910309,7552.0,7872.0,12980.0,94.0,-184.0,157.0,0.2885800599157384,-0.7203974100329698,0.629364666114645,0.0406108074682028
-279.79638171195984,7600.0,7820.0,12816.0,24.0,-146.0,96.0,0.2977246788846985,-0.7139176140095431,0.6317372054522978,0.0508896771186978
-279.8042085170746,7684.0,7796.0,12808.0,46.0,-112.0,106.0,0.30625799511571516,-0.7063096983206218,0.635577311030751,0.058087280783788206
-279.8119888305664,7640.0,7800.0,12856.0,33.0,-58.0,133.0,0.31080294384910484,-0.6976948170094618,0.6423435157092638,0.0633899064451635
-279.81977343559265,7644.0,7860.0,12924.0,42.0,20.0,35.0,0.3120355049846581,-0.6946932842470493,0.6452453553873216,0.06077430215236294
-279.8275475502014,7576.0,7748.0,12940.0,26.0,21.0,7.0,0.3123853488588528,-0.6936979107591246,0.646380125228944,0.058235179537569834
-279.8353328704834,7540.0,7716.0,12968.0,-21.0,79.0,28.0,0.30649979608966316,-0.693071351709221,0.6501077735183565,0.05540631054269385
-279.843111038208,7460.0,7800.0,12832.0,0.0,82.0,-18.0,0.3019183944175002,-0.6944699353341015,0.6511986819910676,0.04997067742690891
-279.8508954048157,7348.0,7708.0,12908.0,245.0,105.0,-32.0,0.310849932785314,-0.6900998444747005,0.6529189207593737,0.028834126617163423
-279.8586766719818,7208.0,7756.0,12848.0,-69.0,116.0,-253.0,0.30061921326917224,-0.7064628919977342,0.6404534173597618,0.018912721534052695
-279.86647510528564,7260.0,7708.0,12844.0,-61.0,93.0,49.0,0.29155357737298465,-0.7054390264830533,0.645780758750986,0.01787464860235736
-279.8742616176605,7164.0,7744.0,12936.0,-64.0,82.0,54.0,0.28288254421304465,-0.7041159196436239,0.6510615026185838,0.017808921696736275
-279.88209772109985,7128.0,7600.0,12972.0,-96.0,47.0,34.0,0.27423553982618865,-0.7045947284275427,0.6541337529785406,0.021217223724274367
-279.8898799419403,7108.0,7564.0,12960.0,-78.0,27.0,-5.0,0.26788795561063333,-0.7067804383165504,0.6543138125560374,0.02389330345940134
-279.89766001701355,7140.0,7560.0,12872.0,-44.0,-41.0,22.0,0.26745301695977686,-0.7064577761173217,0.6546134640408598,0.029453471423705743
-279.9054310321808,7232.0,7580.0,12808.0,-77.0,-84.0,7.0,0.2674606486213715,-0.7076058483520898,0.6528569348864904,0.03919932891735882
-279.91321063041687,7228.0,7620.0,12920.0,-70.0,-105.0,-30.0,0.2691938406259893,-0.7105460576354139,0.6482748410654658,0.04897659225942153
-279.92097449302673,7232.0,7476.0,12876.0,-112.0,-138.0,-11.0,0.27005903505458206,-0.713124881802553,0.6437967013814074,0.06361468250256337
-279.9287750720978,7336.0,7744.0,12848.0,-87.0,-85.0,62.0,0.26904384832896827,-0.7111688551692407,0.6451279640821298,0.07526072729423319
-279.9365408420563,7476.0,7716.0,12996.0,-120.0,-68.0,125.0,0.26455454663245703,-0.7064069208248723,0.6504214486531912,0.08917450980354198
-279.94432044029236,7532.0,7816.0,13284.0,-136.0,-43.0,73.0,0.2580026950698734,-0.7049975471053238,0.6528124742242468,0.10123705551514237
-279.95211601257324,7480.0,7844.0,12808.0,-188.0,41.0,227.0,0.2419922570101266,-0.6964206643994018,0.6658257667009204,0.11451661076792363
-279.95988869667053,7720.0,7828.0,13068.0,-239.0,29.0,274.0,0.22290594410336925,-0.6854830343601296,0.6803679949119652,0.13238331158906452
-279.9676516056061,7768.0,7864.0,13120.0,-304.0,67.0,242.0,0.1977991416977611,-0.6773938651572474,0.6922362177279435,0.1510697516270714
-279.97541642189026,7796.0,7860.0,13112.0,-291.0,56.0,251.0,0.17377020941880025,-0.6675997148792849,0.7038104342515887,0.16960367817424735
-279.9831838607788,7844.0,7728.0,13272.0,-346.0,70.0,262.0,0.14528841081690477,-0.6572958451781152,0.7144989181614704,0.1906429792569714
-279.99099707603455,7860.0,7552.0,12848.0,-377.0,80.0,235.0,0.1146301242371214,-0.648238057044619,0.7221692348595548,0.21241222243261965
-279.99878215789795,7796.0,7352.0,12796.0,-371.0,110.0,248.0,0.0819952414365003,-0.6378300888377312,0.7298426501023175,0.23190356669669485
-280.0065653324127,7788.0,7240.0,12804.0,-311.0,132.0,177.0,0.05260985030754949,-0.6310867614610015,0.733944580095154,0.2455342267551112
-280.01437401771545,7720.0,7228.0,12724.0,-271.0,179.0,154.0,0.022847962341817823,-0.6259760904865677,0.7370826218186776,0.2536555013574194
-280.02217531204224,7792.0,7416.0,12772.0,-210.0,492.0,110.0,-0.022751392557258613,-0.6294772626681396,0.7385879958691522,0.24026760555372595
-280.02996468544006,7748.0,7176.0,12844.0,-172.0,4.0,131.0,-0.035265120375421566,-0.6206440277849493,0.7420395380020828,0.25086786582070947
-280.0377388000488,7752.0,7140.0,12640.0,-149.0,348.0,139.0,-0.06894680981000222,-0.6183984616222788,0.7447742011812492,0.2411245929702206
-280.0455551147461,7632.0,7220.0,12656.0,-116.0,417.0,21.0,-0.10275885384428815,-0.6246439988025824,0.7404243506279286,0.2259032397150114
-280.05332922935486,7576.0,7192.0,12728.0,-114.0,512.0,290.0,-0.1476594275487141,-0.6141114788001596,0.748367855098387,0.20250762582507084
-280.0611164569855,7480.0,7328.0,12756.0,-112.0,599.0,319.0,-0.19815780348217327,-0.6013107010519959,0.7543999282942095,0.17331957162758427
-280.0689160823822,7400.0,7328.0,12788.0,-93.0,619.0,297.0,-0.24793031021049236,-0.5884090644063814,0.7564783115414635,0.14158353848774965
-280.0767321586609,7300.0,7284.0,12752.0,-101.0,609.0,309.0,-0.29670674380138395,-0.5722814889948442,0.7565282608689917,0.110109018900191
-280.0845100879669,6948.0,7404.0,12804.0,-129.0,543.0,208.0,-0.340646584884586,-0.5596416012309025,0.7505741081975408,0.08602145361272708
-280.092307806015,7036.0,7400.0,12820.0,-101.0,527.0,133.0,-0.3807671090675179,-0.5512124284905,0.7397476903192597,0.06288578533572796
-280.100120306015,6884.0,7464.0,12836.0,-60.0,420.0,72.0,-0.41098684410622505,-0.5464602905125844,0.7283694882854407,0.04414581972636742
-280.1079137325287,6876.0,7504.0,12952.0,-59.0,339.0,-40.0,-0.43511132580523204,-0.5479127236266076,0.7137016097381291,0.03316313768763879
-280.11568212509155,6864.0,7608.0,12848.0,-16.0,245.0,-95.0,-0.4508585260206827,-0.5537547044193033,0.6995736013526864,0.02605941554180142
-280.12353110313416,7120.0,7672.0,12836.0,-33.0,146.0,-169.0,-0.4610106343933205,-0.5629645793488439,0.6854006664379122,0.02767677404093975
-280.1313133239746,6872.0,7652.0,12940.0,-84.0,128.0,-189.0,-0.47234888437992206,-0.5710358297852373,0.6705572128225807,0.03402406292818046
-280.1390793323517,7140.0,7572.0,12876.0,-73.0,55.0,-229.0,-0.4785334352781926,-0.5814182613823041,0.656455393165755,0.0449985937071886
-280.14684557914734,7028.0,7600.0,12956.0,-94.0,41.0,-504.0,-0.48330462555242537,-0.6058798252640987,0.6281113687744931,0.06929924006659603
-280.1546127796173,6984.0,7564.0,12912.0,-111.0,5.0,-269.0,-0.48778301964509435,-0.615728221130448,0.6127580865024821,0.08645236188366605
-280.16237449645996,7012.0,7500.0,12864.0,-58.0,35.0,-286.0,-0.4905717824849075,-0.6285609231738373,0.5952182279989489,0.0998286188736742
-280.1701807975769,7132.0,7456.0,12992.0,-83.0,29.0,-282.0,-0.4941301861135217,-0.6396424780771983,0.5775469512787884,0.11459659017289359
-280.17794370651245,7152.0,7668.0,12956.0,-92.0,61.0,-270.0,-0.49959959425720657,-0.6496259558708147,0.55869920096838,0.127442401555599
-280.1857097148895,7080.0,7328.0,12900.0,-65.0,60.0,-301.0,-0.5027947741489156,-0.6618271811771211,0.5380525205731731,0.1402914197253054
-280.19351267814636,7152.0,7320.0,13120.0,-65.0,109.0,-288.0,-0.5080707004751144,-0.6735153871345348,0.515606435702105,0.14963686068050056
-280.2012927532196,7136.0,7492.0,13100.0,-95.0,101.0,-347.0,-0.5135168580223697,-0.6858047210154837,0.48919438619464295,0.16328249653699783
-280.20906472206116,7088.0,7524.0,12892.0,-96.0,122.0,-358.0,-0.5191914971188804,-0.6980492605870819,0.4606318087501359,0.17602771338872192
-280.21684551239014,7160.0,7520.0,12928.0,-137.0,73.0,-402.0,-0.5240491000472552,-0.7085474964624106,0.4303966648447836,0.19517094273225968
-280.22464060783386,7136.0,7588.0,13124.0,-138.0,66.0,-402.0,-0.5279654287080171,-0.717875485153565,0.39986420301222464,0.21451320018612363
-280.23240303993225,7136.0,7588.0,13256.0,-159.0,65.0,-463.0,-0.53115703555558,-0.7271664018647491,0.3645280772427601,0.23710864277916735
-280.24018931388855,7080.0,7528.0,13072.0,-236.0,66.0,-454.0,-0.5384170625554564,-0.7312075279331345,0.32742961784426594,0.2612134437608942
-280.2479615211487,7044.0,7548.0,13164.0,-209.0,58.0,-533.0,-0.5407027161716284,-0.7369210215318923,0.2855610346298786,0.28817160902859495
-280.2557485103607,7040.0,7456.0,13056.0,-228.0,28.0,-522.0,-0.5423873478605882,-0.7388673224233377,0.2446352131096991,0.31629836743571216
-280.26352190971375,7004.0,7352.0,13000.0,-210.0,34.0,-608.0,-0.5391420241597524,-0.7415809745308659,0.19772273921806685,0.34682741298069364
-280.2713122367859,6960.0,7444.0,12816.0,-173.0,-30.0,-588.0,-0.5313825311138242,-0.7415217179646828,0.15564296137709946,0.3788844361906915
-280.2790868282318,6976.0,7436.0,13260.0,-141.0,-15.0,-592.0,-0.5201134150523615,-0.7413893356921373,0.1132360167238727,0.40865816145166084
-280.28686809539795,6880.0,7436.0,13008.0,-115.0,-51.0,-595.0,-0.5052353611564624,-0.7390990150139168,0.07288798660593555,0.43949654976016567
-280.29465675354004,6908.0,7516.0,12916.0,-87.0,-119.0,-613.0,-0.4859568903338055,-0.733400025848766,0.03525171410825138,0.4740544477953532
-280.30244493484497,6900.0,7488.0,13004.0,-55.0,-93.0,-765.0,-0.4566142464570492,-0.727836371088372,-0.011966380820749894,0.5114826024249738
-280.31021523475647,6932.0,7516.0,12924.0,-11.0,-105.0,-518.0,-0.4339442108101765,-0.7213226039563819,-0.04107309337938229,0.5382370517961083
-280.3180422782898,7012.0,7448.0,12900.0,8.0,-81.0,-475.0,-0.4111570128476372,-0.7154088166901311,-0.06740940371265867,0.5608886770824832
-280.325825214386,7028.0,7428.0,12956.0,-10.0,-84.0,-450.0,-0.3900347116978138,-0.7076513707171947,-0.09284252384344807,0.5817926838309823
-280.33359813690186,7044.0,7436.0,12996.0,-3.0,-95.0,-413.0,-0.36986115822823,-0.6988285256376257,-0.11512255207362745,0.6013220546373379
-280.34139943122864,7092.0,7436.0,12884.0,14.0,-124.0,-384.0,-0.3499744693097774,-0.6884160413398762,-0.13365350973952006,0.6210780661008578
-280.3491704463959,7396.0,7208.0,12888.0,38.0,-105.0,-368.0,-0.3288692611478497,-0.6791400714126039,-0.15034298494046716,0.6387571990615377
-280.35692405700684,7128.0,7180.0,12872.0,40.0,-111.0,-270.0,-0.3128822144819051,-0.6702649651811694,-0.16080653282659532,0.6534453728597932
-280.3646893501282,7296.0,7188.0,12852.0,62.0,-93.0,-269.0,-0.2952034072563107,-0.6625943103932947,-0.17034032038059563,0.6669392051988957
-280.372465133667,7308.0,7404.0,12924.0,98.0,-91.0,-184.0,-0.2802008725356569,-0.6568868851902762,-0.17282351170182225,0.678320812667814
-280.3802571296692,7324.0,7332.0,12984.0,148.0,-49.0,-108.0,-0.2660993591370276,-0.6558153568383361,-0.1689568987621954,0.6859671385442092
-280.3880126476288,7340.0,7396.0,12944.0,208.0,-11.0,-24.0,-0.25295015277725297,-0.6594520248671304,-0.1575198574755285,0.6901642859562463
-280.39582204818726,7240.0,7340.0,13024.0,265.0,-24.0,-239.0,-0.2235920364019588,-0.6601769139020317,-0.15463535294453284,0.7001863689248271
-280.4036145210266,7328.0,7492.0,12876.0,282.0,-69.0,53.0,-0.21151176904954244,-0.6618858910047692,-0.1328829914131854,0.7067615930675909
-280.41138219833374,7304.0,7480.0,12884.0,350.0,-247.0,94.0,-0.19987719163374632,-0.6536427427818686,-0.1011538072238867,0.7228887745409495
-280.419153213501,7368.0,7568.0,13032.0,366.0,9.0,172.0,-0.1897204261735572,-0.6616183903679619,-0.06828782087703666,0.722221599607279
-280.42691922187805,7292.0,7448.0,12996.0,373.0,20.0,179.0,-0.1792976063079734,-0.6695989356783044,-0.034675558365921025,0.7199216897432141
-280.4346902370453,7228.0,7700.0,12932.0,385.0,91.0,191.0,-0.16847111778387955,-0.6813328824670509,-0.000675083527763678,0.7123219286277943
-280.44246459007263,7184.0,7732.0,12912.0,358.0,116.0,214.0,-0.1604382151225691,-0.6932407962079584,0.03264480839795666,0.7018625891767568
-280.4502477645874,7104.0,7740.0,12952.0,346.0,147.0,173.0,-0.15049489359136378,-0.7060530450431927,0.062269137422554924,0.6891755502865801
-280.45804381370544,7060.0,7844.0,12904.0,325.0,150.0,176.0,-0.1418570009958391,-0.7178711961941531,0.09069513134042842,0.6755086454623542
-280.46583366394043,6944.0,7800.0,12992.0,313.0,102.0,109.0,-0.12949339249936415,-0.726484741485334,0.11471382593728567,0.6650504641204479
-280.47360157966614,6928.0,7776.0,12912.0,312.0,32.0,51.0,-0.11301902311584856,-0.7309986522844502,0.13569066128034088,0.6591325475301312
-280.4813964366913,6900.0,7824.0,12900.0,352.0,-10.0,38.0,-0.09265374933560787,-0.7330183995021579,0.1584324613682045,0.6549797431296343
-280.48916697502136,6880.0,7812.0,12840.0,349.0,-58.0,252.0,-0.08393799318650683,-0.7284389484777649,0.19487800137363284,0.651424344203568
-280.4969685077667,6840.0,7800.0,12816.0,327.0,-108.0,-26.0,-0.05987249220930149,-0.7247290645980385,0.21254878159255705,0.6526914148715445
-280.50477051734924,6828.0,7780.0,12828.0,356.0,-160.0,-54.0,-0.03135409403693042,-0.717973312588377,0.23014799989529877,0.6561731031840526
-280.51255345344543,6876.0,7696.0,12856.0,357.0,-173.0,-81.0,-0.0009267128147934097,-0.7101467786167481,0.24586952188145147,0.6597263616329125
-280.5203266143799,6816.0,7768.0,13012.0,376.0,-167.0,-48.0,0.028652904836568103,-0.7010522032372629,0.26441529917801593,0.6616565339669866
-280.5281355381012,6912.0,7732.0,12920.0,345.0,-161.0,-30.0,0.05512919179951248,-0.6911182518930407,0.28197123449903877,0.6631806368003577
-280.5359082221985,6880.0,7652.0,13256.0,337.0,-183.0,-38.0,0.0820682409100736,-0.6793712700636529,0.2981594721560487,0.6654475264133541
-280.5436978340149,6884.0,7576.0,13172.0,292.0,-232.0,18.0,0.10427622050281304,-0.6628977162537063,0.31437800091722695,0.6714607659145524
-280.55149817466736,6960.0,7556.0,13048.0,276.0,-187.0,26.0,0.12375855856636137,-0.6483472583602117,0.330233221922565,0.6747411880840055
-280.55926418304443,6960.0,7572.0,13096.0,273.0,-207.0,234.0,0.1312660170122541,-0.6259582131723711,0.3570990735592729,0.6807538467044456
-280.5670237541199,6984.0,7476.0,13204.0,310.0,-199.0,76.0,0.14976987878909948,-0.6077889373297625,0.37719923538776534,0.6825557324423711
-280.57483100891113,7016.0,7492.0,13160.0,320.0,-160.0,27.0,0.17028415596222057,-0.5927952677668288,0.39541870922174305,0.6806181904260998
-280.58259892463684,7076.0,7436.0,13072.0,406.0,-116.0,83.0,0.19019487563182122,-0.5764986936642211,0.42181700676599476,0.673457926146704
-280.59036207199097,7076.0,7564.0,13172.0,408.0,-66.0,114.0,0.20627620881798517,-0.5611562090670132,0.45012841042151197,0.6632784097440687
-280.59815645217896,7072.0,7596.0,12964.0,493.0,13.0,138.0,0.22166976391884904,-0.546966704874656,0.4851796819266282,0.645205870841469
-280.60592460632324,7032.0,7548.0,13104.0,256.0,59.0,184.0,0.2209133608236867,-0.5372400474311368,0.5093181628967566,0.6349530906998142
-280.6136944293976,7008.0,7712.0,13076.0,549.0,156.0,256.0,0.2251676790999951,-0.5230492084816533,0.5539286038975318,0.6073566856300907
-280.6214544773102,7080.0,7620.0,12984.0,520.0,200.0,303.0,0.22280273194924244,-0.5079209464875076,0.5983373028464272,0.5782453863003588
-280.6292164325714,7040.0,7432.0,13076.0,766.0,501.0,341.0,0.21258517749742106,-0.4986198010763462,0.6594627701877283,0.5208595693844
-280.63698291778564,7132.0,7932.0,12968.0,747.0,268.0,418.0,0.2099911984404573,-0.4713764220446626,0.7143989750458568,0.4725908058472381
-280.6447775363922,7080.0,7488.0,12988.0,752.0,303.0,492.0,0.20102510053194025,-0.4378610735082773,0.7685826212825079,0.42088875433398254
-280.65255403518677,7076.0,7760.0,12980.0,463.0,288.0,498.0,0.18069755510360666,-0.4060199813192363,0.8079956312564778,0.38683229986591333
-280.66033697128296,7008.0,7816.0,12984.0,415.0,269.0,479.0,0.15993788048656635,-0.3740596717832509,0.8417011208584138,0.3550189565031158
-280.66813707351685,6996.0,7844.0,12884.0,372.0,274.0,474.0,0.13700054092224037,-0.34192693694635307,0.8710703012571418,0.32488975337072484
-280.67592120170593,7000.0,7832.0,12852.0,348.0,13.0,443.0,0.13363790262208386,-0.30405216545331554,0.8932286997886203,0.30304402574518885
-280.6836895942688,6876.0,7840.0,12948.0,326.0,259.0,367.0,0.11222120491963503,-0.278132451526118,0.9135338006110456,0.27478125066240505
-280.69150710105896,6860.0,7848.0,13048.0,283.0,218.0,302.0,0.09434959685418247,-0.2562703489192965,0.9290068057983569,0.24973989793096546
-280.6993103027344,6828.0,7832.0,13088.0,508.0,213.0,268.0,0.0824436174470242,-0.23464211843129615,0.946472234226628,0.20575819798583336
-280.7070987224579,6876.0,7784.0,13052.0,509.0,182.0,223.0,0.07369416210541546,-0.2155280973713942,0.9602376437643618,0.16143257791695576
-280.71487045288086,6844.0,7780.0,13096.0,208.0,124.0,138.0,0.06521301180843682,-0.2042980635791979,0.9662734431998611,0.14256646616700427
-280.72264766693115,6848.0,7464.0,13048.0,222.0,133.0,131.0,0.0562682761381373,-0.19356793786547802,0.9718155964496716,0.12222839697925252
-280.7304036617279,6900.0,7692.0,13044.0,217.0,97.0,96.0,0.050631085875480375,-0.1853383701741909,0.9759833252527426,0.10267779951305717
-280.73820996284485,6888.0,7672.0,13068.0,503.0,142.0,53.0,0.04610937757060104,-0.17967707059884125,0.9809460713961585,0.0577484252037551
-280.7459831237793,6660.0,7632.0,13004.0,271.0,132.0,44.0,0.0387839257300792,-0.17541781149531213,0.9831868473886626,0.032680600317343426
-280.7537577152252,6952.0,7660.0,12996.0,274.0,99.0,25.0,0.0343610089285256,-0.17256809955036742,0.9843674152888109,0.007769414431869348
-280.7615463733673,7144.0,7752.0,12992.0,280.0,151.0,15.0,0.025542923791461284,-0.17047458444465668,0.9848576289120394,-0.018477712963477323
-280.7693221569061,6936.0,7772.0,12892.0,284.0,113.0,13.0,0.020027216425091733,-0.1684816478535586,0.9844961984462314,-0.04449809191112354
-280.77708411216736,6920.0,7788.0,12916.0,267.0,112.0,-38.0,0.01413508061976475,-0.1707917761870964,0.9827790321267801,-0.0691067485465698
-280.7848505973816,6852.0,7848.0,13044.0,500.0,128.0,2.0,0.010568099852732714,-0.16906259796027057,0.9789601710501882,-0.11376790731051016
-280.79263734817505,6820.0,7836.0,13084.0,199.0,105.0,-37.0,0.00412190869718923,-0.17096926602054358,0.976343025464225,-0.13231332726695536
-280.8005211353302,6768.0,7844.0,12992.0,167.0,85.0,-50.0,-0.0012502481271667164,-0.17416987954210628,0.9735602278741561,-0.14779638913562818
-280.80831241607666,6852.0,7852.0,12964.0,151.0,73.0,-83.0,-0.006272609139070441,-0.1802812160185318,0.970213341005145,-0.16169542498506917
-280.8161292076111,6884.0,7804.0,13220.0,103.0,27.0,-104.0,-0.008450305771726776,-0.18875631773216237,0.9670262708263835,-0.17076251456387337
-280.82389783859253,6860.0,7468.0,13256.0,100.0,28.0,-128.0,-0.011118194579476536,-0.19920523167039647,0.9633052081610471,-0.17954591990417987
-280.83168268203735,6868.0,7652.0,13180.0,79.0,239.0,-163.0,-0.03243207891713362,-0.20917944002036426,0.9586699428624329,-0.19011591932823285
-280.83946323394775,6900.0,7656.0,12992.0,66.0,-252.0,-104.0,-0.011910698086604334,-0.22219511460992622,0.9561003866647313,-0.19068171630789046
-280.84724259376526,7132.0,7640.0,13040.0,90.0,13.0,-130.0,-0.013461294745830002,-0.23290932122323063,0.9519736358650936,-0.19828827057820145
-280.85501432418823,6824.0,7636.0,12944.0,85.0,-14.0,-135.0,-0.012953290649719078,-0.24445588553767056,0.9476787221955815,-0.20488672915805753
-280.8631000518799,6844.0,7432.0,12836.0,69.0,-7.0,-120.0,-0.01309582377010351,-0.2545774461600466,0.9438193112365185,-0.210294866897494
-280.871071100235,6856.0,7624.0,13308.0,37.0,-22.0,-100.0,-0.012344207775503584,-0.263260456317454,0.9408966586735341,-0.21273229743247818
-280.8788890838623,6864.0,7708.0,12976.0,74.0,-44.0,-138.0,-0.009640533819018433,-0.2754742589111735,0.9363002541080668,-0.21763002307171112
-280.8866813182831,6812.0,7932.0,12824.0,55.0,-9.0,-136.0,-0.010214630751351416,-0.28679406741500585,0.9319117381296601,-0.22177767369671458
-280.8944523334503,6856.0,7704.0,13004.0,72.0,-54.0,-153.0,-0.007029881631453618,-0.30032467645243927,0.9266195461217991,-0.22612360828320524
-280.90225481987,6824.0,7680.0,12988.0,97.0,-53.0,-129.0,-0.0027951846837023144,-0.3118411759341725,0.921249013739617,-0.23248123067972487
-280.9100797176361,6828.0,7748.0,13076.0,99.0,-126.0,-144.0,0.007060200349141927,-0.3259558841447972,0.91518355607613,-0.23694297594624467
-280.91787242889404,6900.0,7744.0,12996.0,80.0,-135.0,-201.0,0.01591204269844735,-0.3446822248240767,0.9074960247500685,-0.23956614086784106
-280.92564511299133,6876.0,7820.0,12996.0,116.0,-188.0,-178.0,0.030516352674486585,-0.36245339697178375,0.8991720773751998,-0.24328144711800084
-280.9334342479706,6980.0,7804.0,13012.0,94.0,-170.0,-159.0,0.04340115997955976,-0.37821357411844064,0.8914725074005756,-0.24565748556458478
-280.9412112236023,6940.0,7764.0,12984.0,110.0,-154.0,-175.0,0.05520624807931779,-0.39462854873105924,0.8825232134154658,-0.24974658452572107
-280.948992729187,6960.0,7732.0,12924.0,87.0,-169.0,-202.0,0.06675641222686202,-0.4133451103326012,0.8725914921757236,-0.2515422210549778
-280.9567632675171,6940.0,7444.0,13004.0,70.0,-147.0,-195.0,0.07613789970828362,-0.4309228909676341,0.8629426879753328,-0.2526626199856547
-280.96453857421875,6888.0,7716.0,12936.0,23.0,-155.0,-269.0,0.08267531032029873,-0.45429497724863055,0.8509651780263088,-0.25027811030284136
-280.97231698036194,6892.0,7756.0,12916.0,17.0,-164.0,-207.0,0.09094536662676475,-0.4730161284931057,0.8409697927741624,-0.2464842593674076
-280.9801151752472,6848.0,7820.0,13000.0,-30.0,-109.0,-206.0,0.09321766835935603,-0.49062897444091896,0.8320618601994764,-0.24138503794991942
-280.98789262771606,6888.0,7884.0,13060.0,-71.0,-94.0,-236.0,0.09196819668792125,-0.5102034243871446,0.8224603114235395,-0.23407979980061797
-280.99566745758057,6840.0,7824.0,12960.0,-86.0,-151.0,-254.0,0.09371554248375005,-0.5320330096336403,0.8113930806768567,-0.22315811073511757
-281.00350618362427,6800.0,7748.0,13036.0,-77.0,-139.0,-300.0,0.09406010179745458,-0.5563843275248016,0.797466078798252,-0.2136282530489994
-281.01128125190735,6848.0,7920.0,12916.0,-48.0,-207.0,-311.0,0.10024456337311091,-0.5819831824741095,0.7811281188967718,-0.20269549748386728
-281.0190646648407,6772.0,7608.0,12808.0,-14.0,-287.0,-335.0,0.11305259730619723,-0.6095833018629263,0.7612743169541883,-0.1899703205191515
-281.0268371105194,6852.0,7576.0,12840.0,43.0,-312.0,-360.0,0.12995386883666457,-0.6377094311790032,0.7376771180185203,-0.17964170704940663
-281.03460121154785,6900.0,7640.0,12772.0,70.0,-363.0,-311.0,0.15217820077825348,-0.6620545770419786,0.71450844555677,-0.16734160706085252
-281.04237389564514,7032.0,7568.0,12684.0,132.0,-384.0,-351.0,0.17840233298630243,-0.6870578510551576,0.6864356337353504,-0.15789312089784407
-281.05013632774353,7048.0,7576.0,13048.0,178.0,-317.0,-299.0,0.20375315253800466,-0.7059835039074652,0.6605500894887683,-0.1540958283593137
-281.05790066719055,7064.0,7616.0,12824.0,224.0,-286.0,-200.0,0.23118383469233098,-0.7169168032937178,0.6396998060412854,-0.1528675566718048
-281.06567668914795,7116.0,7568.0,12776.0,215.0,-216.0,-86.0,0.25543664459141685,-0.7199945933417802,0.6268436854716867,-0.15305848602007044
-281.07344603538513,7112.0,7588.0,12904.0,235.0,-170.0,-102.0,0.2780315744066858,-0.7223533193811443,0.6132740674888224,-0.15747712137862224
-281.08121967315674,7084.0,7664.0,12832.0,254.0,-120.0,250.0,0.3037346518468775,-0.7040807279172201,0.6222909424234401,-0.15738352143969916
-281.0889937877655,7160.0,7728.0,12956.0,241.0,-85.0,-236.0,0.31976828930811796,-0.7113551607361223,0.6019342478316314,-0.17145622687558848
-281.09676361083984,7064.0,7724.0,13052.0,235.0,-63.0,-7.0,0.3374875447734701,-0.7059501995965884,0.5960777351027658,-0.18007722378765398
-281.1045548915863,7068.0,7688.0,12996.0,213.0,-83.0,-51.0,0.3540568945951113,-0.7034890282419154,0.5870053945714407,-0.18754084695590717
-281.1123254299164,6840.0,7816.0,12896.0,184.0,-72.0,-68.0,0.36787438902333897,-0.7023498367552374,0.5774813503511893,-0.19464950733860972
-281.12012910842896,6776.0,7888.0,12956.0,183.0,-125.0,-133.0,0.3830438548758242,-0.70512246608746,0.5620442507398075,-0.2004643940228183
-281.127881526947,6788.0,7916.0,12844.0,148.0,-226.0,-247.0,0.39872387332688447,-0.7158810140820966,0.5364020788502214,-0.20200607991136416
-281.13566875457764,6824.0,7932.0,12884.0,113.0,-290.0,-14.0,0.418973614587344,-0.7174500959483409,0.523227716982468,-0.1896291809945046
-281.1434712409973,6856.0,7864.0,12840.0,176.0,-422.0,-306.0,0.4437085464059441,-0.7311285160174129,0.4851354094784485,-0.1822565592308756
-281.1512370109558,6972.0,7788.0,12744.0,177.0,-443.0,-329.0,0.4679516623620114,-0.7442956548638494,0.44357181953891417,-0.17403810144436935
-281.1590049266815,7136.0,7700.0,12812.0,211.0,-390.0,-376.0,0.4904412701738035,-0.7551788778782331,0.3994642779320401,-0.17204799787592032
-281.16677594184875,7164.0,7916.0,12828.0,220.0,-318.0,-504.0,0.5077096138382459,-0.7669189633063245,0.3487551667526078,-0.1801002093300636
-281.17454171180725,7300.0,7644.0,12964.0,267.0,-304.0,-185.0,0.53156052077456,-0.7649023455208063,0.31842500391939205,-0.17599241872757707
-281.18231225013733,7344.0,7608.0,12872.0,285.0,-216.0,-123.0,0.554437014636439,-0.757979843804612,0.2956129587884586,-0.17515459395431793
-281.1901206970215,7364.0,7904.0,12896.0,265.0,-197.0,-5.0,0.5767767619393991,-0.7479583831684793,0.28153959818248087,-0.1691812004625312
-281.19789814949036,7360.0,7596.0,13016.0,302.0,-118.0,54.0,0.5999888228402703,-0.732835504374234,0.27450906049484664,-0.16616350893485948
-281.20569682121277,7304.0,7600.0,13064.0,325.0,-42.0,62.0,0.6224692296689703,-0.7145978586010859,0.27140152067262846,-0.16799753919223304
-281.2134704589844,7252.0,7476.0,13016.0,316.0,21.0,173.0,0.6439532877745282,-0.6926357265551962,0.2785133956964432,-0.16736248648179103
-281.22125148773193,7420.0,7808.0,13040.0,310.0,39.0,192.0,0.664267963397008,-0.6695843877332635,0.2875862226906649,-0.16643012055147166
-281.22901153564453,7096.0,7912.0,13028.0,266.0,-34.0,191.0,0.6832210477850308,-0.6495414616224305,0.29273916120412175,-0.16002710081242033
-281.2367959022522,7016.0,7908.0,13052.0,224.0,-43.0,186.0,0.6994512396010977,-0.6317671885249639,0.2974367900242496,-0.15221543569500717
-281.24456310272217,7012.0,7760.0,12956.0,182.0,-111.0,59.0,0.7130873029537881,-0.6204241999142899,0.2913804975621533,-0.14723354294194535
-281.2523458003998,6928.0,7736.0,12868.0,191.0,-134.0,53.0,0.7274306974824026,-0.6087139458480172,0.28333061339374616,-0.14154743376100462
-281.2601144313812,6916.0,7672.0,13052.0,157.0,-159.0,19.0,0.7398698731178643,-0.6000565333258862,0.27218633834500294,-0.1357914757406162
-281.26789355278015,7108.0,7656.0,12800.0,190.0,-173.0,41.0,0.7542962167617094,-0.5886387520360066,0.2607722919816851,-0.12860578803103623
-281.2756655216217,6936.0,7704.0,12968.0,230.0,-211.0,-28.0,0.7703895036979621,-0.5762066082393296,0.24269650077339158,-0.12483735709188448
-281.2834882736206,6968.0,7684.0,12656.0,258.0,-2.0,-23.0,0.7830344425527425,-0.5591377714771546,0.23845741085437328,-0.13175764680771215
-281.291259765625,7076.0,7640.0,12796.0,283.0,-276.0,-40.0,0.801726729507964,-0.543383162207937,0.21417485573284006,-0.12687837244063266
-281.29903841018677,7112.0,7524.0,12796.0,283.0,-510.0,-20.0,0.8234734475700595,-0.5288126173527253,0.17408733724055978,-0.10928081207665012
-281.3068480491638,7232.0,7596.0,12756.0,347.0,-316.0,30.0,0.8439483872088784,-0.5058870663480866,0.14923062585020966,-0.09777328948958529
-281.31462836265564,7292.0,7424.0,12832.0,377.0,-240.0,106.0,0.8640147836284326,-0.47826900111705034,0.13280946024785878,-0.08425475363849727
-281.3223919868469,7356.0,7688.0,12836.0,420.0,-216.0,191.0,0.8846655173647701,-0.4453854860921612,0.12118124468057447,-0.06567950290493493
-281.33018732070923,7348.0,7824.0,12932.0,399.0,-232.0,22.0,0.90210607066584,-0.41517712627327563,0.10164220441873728,-0.05917307975931782
-281.33795380592346,7380.0,7880.0,12884.0,436.0,-212.0,271.0,0.9201873673450532,-0.37891933641181796,0.0922933437368247,-0.034018879665319426
-281.34572100639343,7408.0,7856.0,12904.0,400.0,-120.0,299.0,0.9344136831094652,-0.3442064972862729,0.09114158856480775,-0.00928261157230326
-281.3535008430481,7316.0,7884.0,12904.0,386.0,-32.0,300.0,0.945723275130641,-0.3098803937806073,0.09701398612001931,0.013035141873197088
-281.3612804412842,7256.0,7920.0,12960.0,366.0,14.0,338.0,0.9542942531684365,-0.27635064371457785,0.10748962829137455,0.03740026601532306
-281.3690402507782,7204.0,7920.0,12948.0,318.0,-28.0,264.0,0.9608115667938245,-0.246915638756853,0.11234502639081094,0.05702977728993182
-281.3768026828766,7160.0,7988.0,12976.0,509.0,-47.0,227.0,0.9700226625100408,-0.2013044360550117,0.11553992719749115,0.0719936348902036
-281.3845548629761,7132.0,7976.0,12928.0,253.0,-74.0,200.0,0.9736134909237196,-0.1770951377120021,0.1141660275956619,0.08763675389425225
-281.39233016967773,7408.0,7864.0,12816.0,276.0,-61.0,151.0,0.9770070364492872,-0.15137587633913707,0.11320815421356943,0.09862306327982409
-281.40015864372253,7132.0,7952.0,12992.0,249.0,-136.0,174.0,0.9797795600897634,-0.12695779095051332,0.10583069695682618,0.11275458540080623
-281.40794014930725,7120.0,7856.0,12924.0,224.0,-106.0,190.0,0.981050862201299,-0.10471973865586826,0.10085477241938569,0.1280675485443848
-281.41571617126465,7152.0,7784.0,12860.0,510.0,-93.0,122.0,0.9841372159118673,-0.05862709750516467,0.09941013487320195,0.13473837159417726
-281.42349457740784,7420.0,7712.0,12916.0,0.0,-68.0,185.0,0.9824377893852886,-0.05597203433255094,0.09429364224633481,0.15096963400745006
-281.4312744140625,7136.0,7812.0,12948.0,249.0,-67.0,177.0,0.9815322541401927,-0.03202086025800579,0.0924591201659617,0.16437886022522888
-281.43904185295105,7112.0,7732.0,12912.0,187.0,-47.0,110.0,0.9806914777277463,-0.01418923722115075,0.09119868062335389,0.17241140249940223
-281.44685411453247,7136.0,7812.0,12916.0,200.0,-59.0,88.0,0.979907476230863,0.004762531674311687,0.08903869915820503,0.1784117887672405
-281.45462465286255,7008.0,7844.0,12896.0,170.0,-42.0,85.0,0.9787078660137873,0.020858043764184344,0.08783130579822536,0.1843407625427671
-281.46239280700684,7004.0,7820.0,12916.0,140.0,-49.0,39.0,0.9781191752540197,0.03414237760882691,0.08559996466642686,0.186520302114057
-281.47019362449646,6968.0,7776.0,12984.0,129.0,-30.0,-251.0,0.9817474730917624,0.04399240544112035,0.0856361759076659,0.16402137884237766
-281.4779679775238,6936.0,7820.0,12808.0,147.0,-75.0,-31.0,0.9820825151483487,0.0576542266683831,0.08119316331920785,0.15999248050263062
-281.4857437610626,6948.0,7864.0,12744.0,135.0,-106.0,-65.0,0.9829323370895783,0.07046243192039953,0.07407483165572032,0.15294438762720028
-281.4935553073883,7024.0,7784.0,12840.0,123.0,-118.0,-89.0,0.9839813021997043,0.08222114488621679,0.06588925024041407,0.14380224948772616
-281.501357793808,7124.0,7788.0,12872.0,132.0,-147.0,-100.0,0.984939386854343,0.09502121502630144,0.05538108120937603,0.13341030230831755
-281.5091464519501,6996.0,7812.0,12932.0,84.0,-151.0,-83.0,0.9857858704894906,0.10379301648758582,0.043810534664176656,0.12463492417506267
-281.5169177055359,7104.0,7712.0,12992.0,140.0,-146.0,-67.0,0.9856149466533379,0.11735019485476483,0.03311751796288368,0.11702708534807084
-281.52468752861023,7112.0,7456.0,12852.0,130.0,-165.0,-26.0,0.9848344863806375,0.13030848568912073,0.02025074613893295,0.11274147539220247
-281.5324559211731,7408.0,7656.0,12776.0,181.0,-150.0,-8.0,0.982883811957665,0.1474789808078852,0.00896237173441526,0.1100410755324159
-281.54025506973267,7228.0,7684.0,12596.0,151.0,-140.0,58.0,0.9802876036174152,0.1619709463200632,-0.002609675270034485,0.11311417390050493
-281.5480201244354,7196.0,7676.0,12808.0,157.0,-111.0,16.0,0.9777083525713584,0.17663854267467607,-0.011051501071929794,0.11297374419759733
-281.55578899383545,7296.0,7664.0,12872.0,158.0,-101.0,71.0,0.9742850231798318,0.19117295208753418,-0.019480544245226203,0.11765247295965237
-281.56355381011963,7312.0,7624.0,12860.0,169.0,-124.0,124.0,0.9697173602795001,0.20669994677024228,-0.030632427380737803,0.12643190883041128
-281.5713131427765,7236.0,7612.0,12800.0,235.0,-79.0,128.0,0.963520270013542,0.2271809037910826,-0.037307568751496135,0.13647590094793408
-281.5790915489197,7292.0,7604.0,12948.0,224.0,-87.0,142.0,0.9567713601853282,0.24662132667347222,-0.04505186215445638,0.14743410485823605
-281.5868592262268,7220.0,7680.0,12976.0,246.0,-71.0,158.0,0.9487875116854452,0.267443636232558,-0.05149864959680387,0.16007513297871773
-281.59461975097656,7232.0,7756.0,12980.0,239.0,-64.0,200.0,0.939717202648495,0.28716793875903757,-0.058412258862826846,0.1762219112650728
-281.60241746902466,7248.0,7844.0,13072.0,261.0,-24.0,237.0,0.9289245503803795,0.30759922978863274,-0.06258876744541,0.196378562281411
-281.6102125644684,7412.0,7904.0,12932.0,212.0,26.0,217.0,0.9192965399854758,0.32301724605346166,-0.06296267261831122,0.2158458528198517
-281.6180078983307,7188.0,7948.0,12892.0,198.0,13.0,172.0,0.9102827897734287,0.3375610249207052,-0.06332729345011975,0.2311437885842257
-281.6257872581482,7180.0,7948.0,12920.0,169.0,19.0,164.0,0.9018991759880588,0.34951773611653963,-0.06351573240300867,0.2457254163275323
-281.6335599422455,7104.0,7940.0,12832.0,129.0,28.0,92.0,0.896061095292059,0.358390523316891,-0.06161546701511042,0.25462576563488293
-281.64137387275696,7008.0,7680.0,12856.0,111.0,44.0,63.0,0.8913830495686675,0.3655630645134227,-0.057916069825577884,0.2616211643984032
-281.6491458415985,6932.0,7972.0,12960.0,54.0,-38.0,-253.0,0.8950397638543451,0.3716407680027834,-0.0517846151972182,0.24105043934151096
-281.6569287776947,6916.0,7888.0,12804.0,22.0,-91.0,16.0,0.8935729596965881,0.3750190924542207,-0.059180184783645576,0.23955323358883296
-281.6647295951843,6948.0,7952.0,12940.0,9.0,-69.0,-59.0,0.8941606031788512,0.37727254112528424,-0.06265596227043327,0.2328443167175655
-281.6725161075592,7040.0,7824.0,12892.0,-17.0,-163.0,-111.0,0.8959859789644797,0.37962188999786867,-0.07226788015944455,0.21880059330534019
-281.68028807640076,7068.0,7816.0,12896.0,-14.0,-198.0,-144.0,0.8977860813005877,0.3829322749335389,-0.08342700358957413,0.20095511963924723
-281.68809700012207,7028.0,7760.0,12880.0,-8.0,-152.0,-115.0,0.898888299860093,0.3855466704192357,-0.09179963666472171,0.18688610438311787
-281.69586968421936,7136.0,7896.0,12824.0,252.0,-154.0,-116.0,0.8907810209218233,0.4083930887475621,-0.09600541590871618,0.1746631556593843
-281.7036566734314,7156.0,7684.0,12944.0,35.0,-72.0,-88.0,0.8902923289564357,0.4127076875885048,-0.09806163473124731,0.16563770525007332
-281.71146178245544,7176.0,7640.0,12948.0,26.0,-24.0,-77.0,0.8903101883579544,0.415503242646103,-0.09690367723531937,0.1591053147914
-281.71924591064453,7368.0,7716.0,12892.0,34.0,-10.0,-77.0,0.890106436012743,0.4187091247329504,-0.09455314510973943,0.15314341051418445
-281.72701501846313,7112.0,7704.0,12964.0,49.0,33.0,-32.0,0.8890739542504308,0.4221146389642984,-0.09029238943338369,0.1523614775983521
-281.7348372936249,7040.0,7780.0,12924.0,75.0,83.0,-256.0,0.8901819316191725,0.4285073573605781,-0.07353093598698514,0.13620122892063333
-281.7426006793976,6936.0,7820.0,12884.0,38.0,96.0,-52.0,0.8900235211955463,0.4304251032504345,-0.06381795265174826,0.13608685142170396
-281.75036668777466,6832.0,7760.0,12904.0,40.0,60.0,-62.0,0.8896346596885678,0.4329485116615323,-0.056500641783911065,0.13384108490622798
-281.75812554359436,6808.0,7836.0,12932.0,23.0,251.0,-96.0,0.8909527474837439,0.43195871499805083,-0.03325981245192061,0.136046518382735
-281.76590037345886,6804.0,7788.0,12948.0,-28.0,-37.0,-101.0,0.8931264630827349,0.4303087161890532,-0.032835195942623865,0.12681237960255562
-281.77367305755615,6748.0,7816.0,12992.0,-12.0,-139.0,-145.0,0.8947145751639977,0.43107629517586094,-0.0385280985433063,0.1103387617711859
-281.781450510025,6912.0,7828.0,12968.0,-24.0,-146.0,-228.0,0.8971399713523396,0.4310700177607949,-0.041748532244529325,0.08703775988074702
-281.78921461105347,6904.0,7820.0,12916.0,-36.0,-173.0,-203.0,0.8992290615548367,0.4300029041203763,-0.04809664313180239,0.06458568125136126
-281.7970321178436,6956.0,7820.0,12880.0,-67.0,-192.0,-183.0,0.901783416826773,0.42628873704716325,-0.05683887249237235,0.04282434327296635
-281.8048505783081,6940.0,7752.0,12952.0,-24.0,-198.0,-182.0,0.9021978030695438,0.42573578767079207,-0.06589909448132751,0.021106221342534925
-281.8126347064972,7040.0,7624.0,12904.0,-31.0,-125.0,-221.0,0.9028897487412507,0.42449952619725395,-0.06774370835708966,-0.0010216918799565754
-281.82041001319885,7036.0,7700.0,13040.0,-43.0,-134.0,-177.0,0.9035767821155041,0.4218716205749661,-0.07190092442314702,-0.020089590397505262
-281.82818269729614,7000.0,7640.0,12920.0,243.0,-106.0,-192.0,0.8933462643579693,0.44168474312014816,-0.07376194906629993,-0.03749952696355379
-281.83595967292786,7048.0,7676.0,12956.0,2.0,-62.0,-132.0,0.8924530797834341,0.4422592932547484,-0.07366642460269454,-0.050074702207097595
-281.8437464237213,7120.0,7628.0,12872.0,-15.0,-17.0,-159.0,0.8922284479143264,0.4418051535239998,-0.0689420132149113,-0.06311578143302993
-281.8515410423279,7056.0,7652.0,12864.0,-13.0,46.0,-118.0,0.8923902712283837,0.44154106290324835,-0.06089915104470069,-0.07051515432328284
-281.85931611061096,7076.0,7932.0,12964.0,30.0,245.0,-149.0,0.89142821748623,0.44585506775009265,-0.03642035838647275,-0.0724054495592961
-281.86710810661316,7000.0,7464.0,12828.0,26.0,-45.0,-153.0,0.8893070600708992,0.44786216164386616,-0.0343073911866641,-0.0858803818441845
-281.87489581108093,6988.0,7744.0,12832.0,-5.0,-78.0,-166.0,0.8880000724715658,0.44715843213726186,-0.03401291586876617,-0.1017267389290742
-281.8826804161072,6928.0,7748.0,12936.0,255.0,-103.0,-181.0,0.8758676845674528,0.46618328325871455,-0.03736138644291029,-0.11888259899429293
-281.8904564380646,6976.0,7804.0,12796.0,-243.0,-181.0,-204.0,0.8826930519236486,0.44599401804747585,-0.040524295971874603,-0.14247839621348507
-281.89825916290283,7148.0,7704.0,12880.0,-243.0,-189.0,-212.0,0.8884645622782394,0.4252730360921079,-0.04396973199905971,-0.1668539151973006
-281.9061324596405,7000.0,7900.0,12780.0,13.0,-9.0,-255.0,0.8841054452326016,0.4268547108700415,-0.035582148860144575,-0.18677935699806597
-281.9139461517334,7004.0,7640.0,12848.0,-27.0,-224.0,-259.0,0.8798892290793321,0.4215663488826297,-0.04295499698200228,-0.2150154093878476
-281.9217371940613,7104.0,7564.0,12744.0,48.0,-234.0,-5.0,0.8770502520417697,0.42061737335775135,-0.06182705969944581,-0.22369911781680205
-281.9295518398285,6912.0,7596.0,12604.0,114.0,-21.0,-181.0,0.8691612637988156,0.4296579203974952,-0.05919590299232569,-0.2375891706712845
-281.9373366832733,7388.0,7528.0,12576.0,109.0,-180.0,-124.0,0.8614723061442644,0.43456174411179554,-0.07063469248593023,-0.25304603636179546
-281.9451298713684,6912.0,7632.0,12688.0,151.0,-214.0,-85.0,0.8524024037209733,0.4414022945507255,-0.08698611048098662,-0.2664724621409334
-281.9529356956482,7124.0,7592.0,12676.0,200.0,-211.0,-11.0,0.8426709332563883,0.45112457919410576,-0.10704105940048575,-0.27374171018346877
-281.9607398509979,7092.0,7556.0,12568.0,211.0,-6.0,3.0,0.8343464660227766,0.46620066645414004,-0.11276929273760715,-0.2716725967934178
-281.96850848197937,7108.0,7676.0,12552.0,246.0,-294.0,16.0,0.8214722323151878,0.47652702949049625,-0.14072078490154613,-0.27982677212296647
-281.9762771129608,7176.0,7736.0,12712.0,288.0,-345.0,105.0,0.8072808904509874,0.48686903062532627,-0.17682809551722523,-0.28282138456341455
-281.9840474128723,7260.0,7728.0,12580.0,315.0,-381.0,142.0,0.7908430126543404,0.49676907118055136,-0.2173534402622969,-0.2838050409354334
-281.9918053150177,7632.0,7724.0,12656.0,371.0,-408.0,190.0,0.7708490416468798,0.5078140963756795,-0.26266829100522776,-0.2809305384158722
-281.999609708786,7468.0,7924.0,12768.0,362.0,-418.0,4.0,0.7445827625113416,0.5210367681107212,-0.29952785148640876,-0.2905172322456099
-282.0074186325073,7552.0,7800.0,12660.0,418.0,-346.0,316.0,0.7235864870664085,0.5301964984686822,-0.34647780981583703,-0.2743490405517463
-282.0151937007904,7560.0,7848.0,12568.0,456.0,-259.0,409.0,0.7033955946686783,0.5393571209354275,-0.39201358574071854,-0.2462800887031824
-282.0229961872101,7548.0,7888.0,12728.0,471.0,-192.0,382.0,0.6819491263521557,0.550087477338129,-0.43121732569769056,-0.21540838971924145
-282.0307676792145,7544.0,7896.0,12776.0,445.0,-146.0,438.0,0.6624206377455819,0.5563489158818588,-0.46853144738554436,-0.17931275832082802
-282.03854632377625,7528.0,7876.0,12740.0,438.0,-162.0,418.0,0.6402447869320247,0.5610956394323546,-0.5042495333926165,-0.1448816906641131
-282.04631066322327,7516.0,7932.0,13040.0,401.0,-130.0,437.0,0.6196728071100402,0.5617444226881301,-0.5371794366096401,-0.10902783401907772
-282.0541081428528,7320.0,7948.0,12876.0,391.0,-70.0,458.0,0.6008678717521575,0.5598875250150755,-0.5662917785795217,-0.06926313263033707
-282.06188797950745,7380.0,8008.0,12868.0,351.0,-75.0,408.0,0.5819494145325312,0.5569797372328301,-0.5915592524172254,-0.03414823739031201
-282.069669008255,7304.0,8064.0,12856.0,356.0,-76.0,379.0,0.5613855596743563,0.5546241829690387,-0.6141972177487774,-0.00021625146665166123
-282.07745122909546,7220.0,8040.0,12792.0,324.0,-65.0,310.0,0.5419246648922245,0.5533965427670968,-0.631837932860752,0.02916762988532093
-282.08522510528564,7208.0,7964.0,12788.0,293.0,-49.0,290.0,0.5241120189383837,0.5509812645090574,-0.6469302084966544,0.05663517545489519
-282.0930116176605,7200.0,8000.0,12684.0,312.0,-31.0,227.0,0.5060694162658201,0.5522363145337829,-0.6572852825417475,0.08309546428375127
-282.1007812023163,7204.0,8016.0,13044.0,295.0,-25.0,259.0,0.4883706425826099,0.550231372792774,-0.6682797604701065,0.11018944415888941
-282.108580827713,6912.0,7692.0,12720.0,509.0,-235.0,181.0,0.44800322327798736,0.5628613872954829,-0.6811376797506765,0.1361309364112469
-282.1163592338562,7144.0,7884.0,12772.0,503.0,51.0,161.0,0.42407164497097216,0.5717173532058696,-0.6802923863898158,0.17465616792698305
-282.1241431236267,7120.0,7848.0,12660.0,504.0,115.0,130.0,0.4034451832927615,0.5802530325293745,-0.6740555324444835,0.21491286955256728
-282.13191866874695,7112.0,7816.0,12740.0,248.0,68.0,77.0,0.39344553647196234,0.5830017857876526,-0.6706694513332434,0.23560987807616238
-282.1397075653076,7000.0,7812.0,12776.0,197.0,55.0,114.0,0.3843270878576359,0.5818233634147805,-0.6703354025619473,0.2538202344094996
-282.147479057312,6972.0,7884.0,12780.0,224.0,-17.0,44.0,0.37101829746486875,0.5870074928339853,-0.6679887326978918,0.26750454069359886
-282.15526247024536,7052.0,7832.0,12648.0,224.0,-61.0,33.0,0.3552492021803441,0.5936234332887539,-0.6662305303959567,0.2784710113620871
-282.16303062438965,7068.0,7832.0,12724.0,218.0,-90.0,28.0,0.3380744220489875,0.600800464465842,-0.6649772389300191,0.2873147381511779
-282.17086243629456,7096.0,7764.0,12712.0,209.0,-117.0,29.0,0.31963082941089754,0.6080719696937934,-0.6645105762513345,0.29412634464279397
-282.17863297462463,7140.0,7740.0,13016.0,243.0,-124.0,43.0,0.298453094277409,0.6153509663574259,-0.6637720850694858,0.3027797182800217
-282.1864001750946,7184.0,7696.0,12736.0,219.0,-84.0,-227.0,0.2878075086247353,0.6361603701687931,-0.6476674828447092,0.3049486072628063
-282.1941936016083,7240.0,7740.0,12796.0,0.0,-23.0,65.0,0.28487305358503473,0.6330737458424501,-0.6517961579380118,0.30533054901760665
-282.2019648551941,7256.0,7768.0,12744.0,233.0,-17.0,87.0,0.26874845499422645,0.6342094533422106,-0.6506161500586657,0.31976751322238844
-282.209774017334,7228.0,7752.0,12592.0,235.0,-249.0,131.0,0.2379185020761494,0.6388973852316453,-0.6567693215934113,0.32227158690728264
-282.21754693984985,7120.0,7752.0,12860.0,205.0,11.0,157.0,0.22273734304790693,0.6336755423049354,-0.6593194902309708,0.3378478842586971
-282.22531747817993,7092.0,7676.0,12580.0,223.0,-2.0,159.0,0.20563248669045558,0.6287336192647749,-0.6613447055457186,0.35359934512151403
-282.2330815792084,7204.0,7612.0,12668.0,243.0,-34.0,168.0,0.1851761920193437,0.6242312267637611,-0.6634081083815557,0.3686934162360796
-282.24084544181824,7148.0,7572.0,12648.0,244.0,28.0,172.0,0.16799713017151402,0.617098599601401,-0.6642038648555503,0.3870394147048528
-282.2486083507538,7112.0,7464.0,12300.0,378.0,65.0,186.0,0.1451061255015257,0.6092376316742045,-0.6599972695026669,0.4149425559555995
-282.25637912750244,7120.0,7604.0,12628.0,445.0,82.0,163.0,0.12023783547213196,0.6019813766345679,-0.6508880560475969,0.4466609716560282
-282.2641463279724,7016.0,7792.0,12628.0,443.0,246.0,179.0,0.10392304099590689,0.5862229651667783,-0.6396849678627432,0.48615406873919553
-282.27191066741943,7116.0,7788.0,12808.0,408.0,-131.0,169.0,0.06858091389147497,0.5855735563962025,-0.6316412650895205,0.5034178985052319
-282.27969312667847,7180.0,7744.0,12628.0,354.0,-227.0,157.0,0.031121107101417474,0.5885611722003917,-0.6249332904329213,0.51194297121805
-282.28747940063477,7224.0,7776.0,12700.0,349.0,-249.0,173.0,-0.008048333166603099,0.5907199230975717,-0.6183424900636131,0.5183027703676382
-282.2952537536621,7288.0,7748.0,12604.0,347.0,-330.0,213.0,-0.05327142438362693,0.593291266337349,-0.6126983586861562,0.5193922890217518
-282.303040266037,7276.0,7764.0,12608.0,358.0,-300.0,189.0,-0.0962769600707891,0.5945469528725363,-0.6042215857675307,0.5216904667349024
-282.31087470054626,7312.0,7732.0,12580.0,403.0,-369.0,169.0,-0.14412208867487677,0.5983069010685067,-0.5907484390169473,0.5217987710687246
-282.31866431236267,7396.0,7796.0,12592.0,454.0,-349.0,156.0,-0.19263566065824428,0.5996435366305073,-0.5730018203081835,0.524393025452787
-282.32644391059875,7212.0,7812.0,12756.0,436.0,-327.0,107.0,-0.2364010409867374,0.6012198195087598,-0.5524394655355519,0.5267446377221463
-282.334223985672,7488.0,7928.0,12488.0,507.0,-323.0,126.0,-0.2839427902006905,0.5986692714243022,-0.5282545743589993,0.5309601680108732
-282.34203147888184,7548.0,7836.0,12700.0,461.0,-316.0,28.0,-0.323497334475947,0.599874315021188,-0.4998564635397555,0.534456543249633
-282.34981966018677,7460.0,7804.0,12548.0,456.0,-272.0,75.0,-0.3623315454286928,0.5957498051466816,-0.47423854257162634,0.537490302791116
-282.3575932979584,7480.0,7700.0,12600.0,462.0,-223.0,240.0,-0.40634537714880403,0.5809379595394636,-0.4573553748831006,0.5368617910612186
-282.3654053211212,7636.0,7552.0,12608.0,455.0,-162.0,-77.0,-0.431882502899205,0.5749183232652931,-0.4259098139962651,0.5491331856708433
-282.37318229675293,7260.0,7488.0,12660.0,429.0,-91.0,-149.0,-0.4492883996146567,0.5681514209871187,-0.3940249666332626,0.5657633979603797
-282.3809640407562,7248.0,7540.0,12756.0,416.0,24.0,-279.0,-0.45488295961806013,0.5596722385722448,-0.3601403477431798,0.5917325479877441
-282.3887746334076,7156.0,7736.0,12760.0,488.0,42.0,-226.0,-0.46521548892752085,0.5445800954038801,-0.32509115201319305,0.6175134099228643
-282.39654755592346,7280.0,8116.0,12904.0,551.0,10.0,-229.0,-0.4781306341213864,0.5273932625728889,-0.2844040905015208,0.6421539975842301
-282.40431809425354,7340.0,8552.0,13168.0,495.0,-129.0,-175.0,-0.49375912433910996,0.5176672593807663,-0.2428137968251263,0.6551824141172047
-282.412122964859,7508.0,8736.0,13168.0,428.0,-241.0,-135.0,-0.5099777207969811,0.5152797626888465,-0.20150640072777956,0.6586384903114741
-282.4199004173279,7588.0,8656.0,13024.0,373.0,-361.0,-11.0,-0.5319206188002856,0.5190051530334283,-0.16318021027077106,0.6488962362318462
-282.42767357826233,7692.0,8400.0,12816.0,337.0,-414.0,42.0,-0.5548536317171272,0.525540264225374,-0.12648350098268415,0.632413473945173
-282.4354717731476,7428.0,8164.0,12548.0,301.0,-316.0,150.0,-0.5799601446388045,0.5262179021630308,-0.10121509037198972,0.6135930700021519
-282.4432418346405,7928.0,7996.0,12600.0,261.0,-270.0,158.0,-0.6024170903063201,0.5256268308551999,-0.08062607023209259,0.5952390450826592
-282.45101046562195,7484.0,7876.0,12568.0,224.0,-209.0,171.0,-0.6227659642325709,0.5231388819004178,-0.06567052873719327,0.5780792728448534
-282.4587879180908,7444.0,7820.0,12696.0,205.0,-121.0,133.0,-0.6393625942304025,0.517066124323756,-0.054667507639389365,0.5664534930462314
-282.46653628349304,7480.0,7780.0,12632.0,189.0,-10.0,171.0,-0.6562470255884926,0.5059414525813956,-0.0523294512208686,0.5573371659067845
-282.47428703308105,7444.0,7808.0,12680.0,142.0,79.0,77.0,-0.6658375569048369,0.49341755562662115,-0.053198507155549565,0.557108052760745
-282.48208475112915,7224.0,7700.0,12792.0,93.0,116.0,39.0,-0.6711592631300857,0.48200854062380755,-0.05694856347521704,0.5603301450024769
-282.48985266685486,7112.0,7700.0,12828.0,87.0,109.0,-49.0,-0.671844199582934,0.47164372661961695,-0.05686523903442736,0.5682815422100953
-282.4976305961609,7100.0,7852.0,12696.0,66.0,79.0,-144.0,-0.6669631500426078,0.4643711661953504,-0.05213689547859819,0.580345862931292
-282.5053894519806,7000.0,7972.0,12824.0,2.0,33.0,-238.0,-0.6547085403926522,0.4634181551972581,-0.0441452716435651,0.5955262677346892
-282.5132038593292,7012.0,8120.0,12816.0,-44.0,16.0,-319.0,-0.6360436273951547,0.4659979412036036,-0.0342732144728531,0.6141007813166454
-282.52098631858826,7016.0,8228.0,12968.0,-108.0,-47.0,-458.0,-0.6067302367017522,0.47532867359092423,-0.01865202835093836,0.6368619738785825
-282.5287742614746,7012.0,8300.0,12952.0,-161.0,-79.0,-470.0,-0.5734984231174515,0.4883902797964193,-0.003761279226049091,0.6576932005584029
-282.5365557670593,6976.0,8240.0,12924.0,-235.0,-165.0,-603.0,-0.5280137941000463,0.5088084586547511,0.016832689991716727,0.6797293918826026
-282.5443391799927,7016.0,7960.0,12928.0,-336.0,-238.0,-610.0,-0.4755554058606322,0.5362611103745218,0.035023871984046696,0.6964512946702441
-282.55215215682983,7024.0,8128.0,12968.0,-332.0,-280.0,-701.0,-0.4154477229373356,0.5633133379095195,0.05924948442388652,0.7117378530294156
-282.559942483902,6956.0,7968.0,12556.0,-375.0,-333.0,-735.0,-0.34854444722891037,0.5918682231975163,0.08402816945887702,0.7219058397133928
-282.567720413208,6972.0,7836.0,12704.0,-398.0,-394.0,-742.0,-0.2773900367481758,0.6211744254364396,0.10900598199704965,0.7247860350375231
-282.5755088329315,7112.0,7712.0,12700.0,-408.0,-481.0,-746.0,-0.20271997504407915,0.6518786554497451,0.1348763852893599,0.7181693330812982
-282.5832839012146,6964.0,7588.0,12700.0,-392.0,-550.0,-816.0,-0.12222247430316575,0.6806486495065495,0.16581593051166102,0.7030534545030516
-282.59107065200806,6964.0,7580.0,12556.0,-387.0,-577.0,-524.0,-0.05850708809958797,0.7104310013849856,0.17887692420146908,0.6781355018736709
-282.5988492965698,7008.0,7532.0,12672.0,-327.0,-604.0,-774.0,0.016995948230757032,0.7326696552531189,0.2097739648235316,0.6472257702666273
-282.60664463043213,7112.0,7572.0,12724.0,-320.0,-652.0,-738.0,0.09077312828624567,0.75234322961664,0.23696916784873856,0.6079354550609868
-282.6144530773163,6912.0,7584.0,12696.0,-283.0,-642.0,-725.0,0.16054177644193898,0.7661111238769539,0.2634530668939818,0.5638196213621979
-282.6222274303436,7168.0,7660.0,12644.0,-323.0,-658.0,-712.0,0.23145069049277675,0.7744322007915352,0.28480277582334607,0.5153374846941694
-282.63004207611084,7148.0,7820.0,12680.0,-298.0,-694.0,-634.0,0.296331182387026,0.7809017386520476,0.29910353028748266,0.4614297163001982
-282.6378164291382,7216.0,7760.0,12684.0,-276.0,-646.0,-630.0,0.3562416739746518,0.7806182142207848,0.3131264195965703,0.40703675350160157
-282.64559984207153,7284.0,7792.0,12648.0,-281.0,-662.0,-585.0,0.4129842917525998,0.7768065292744228,0.32132627721863866,0.3503783874770804
-282.65340304374695,7388.0,7852.0,12632.0,-286.0,-670.0,-553.0,0.46666813696638226,0.7689698116319801,0.3248403618027847,0.29220714926715763
-282.6611762046814,7460.0,7796.0,12628.0,-228.0,-705.0,-470.0,0.5125242797180777,0.7620492965810003,0.32085763379240373,0.23162493630222153
-282.66895365715027,7576.0,7820.0,12672.0,-227.0,-677.0,-388.0,0.5531192413978193,0.7527693598386095,0.31094504059716027,0.1752443363184711
-282.6767590045929,7632.0,7820.0,12788.0,-217.0,-698.0,-316.0,0.5898179451440237,0.7425473353138271,0.2939105060890345,0.11981177243870408
-282.6845326423645,7444.0,7760.0,12692.0,-136.0,-661.0,-505.0,0.6192895677146486,0.7274820250408578,0.2903304588377982,0.054392639513909276
-282.692302942276,7716.0,7736.0,12896.0,-146.0,-606.0,-201.0,0.6439144392491061,0.7161496598676038,0.26912131993408595,0.00880765320389738
-282.7001140117645,7756.0,7764.0,12724.0,-170.0,-566.0,-167.0,0.6671048358205395,0.7020410781382983,0.24717436106357085,-0.031848043332080585
-282.7078857421875,7740.0,7876.0,12792.0,-85.0,-494.0,-184.0,0.681821555630501,0.6909365394767774,0.22957720371312318,-0.07085458509315062
-282.71566891670227,7724.0,7848.0,12708.0,-110.0,-402.0,-207.0,0.6947628131460608,0.6771319422108842,0.21853805552625905,-0.10506228911407384
-282.7235040664673,7644.0,7904.0,12760.0,-113.0,-312.0,-135.0,0.7059170595352229,0.6644491481164335,0.20842688057092174,-0.12940892581257743
-282.7312910556793,7536.0,7952.0,12664.0,-163.0,-330.0,-194.0,0.7188179036835656,0.6466498958484017,0.20094437011984084,-0.15737246792357223
-282.7390823364258,7424.0,7908.0,12692.0,-222.0,-312.0,-222.0,0.7333346140753519,0.6239994472146666,0.196686447424608,-0.18482282076148462
-282.7468605041504,7212.0,7916.0,12724.0,-255.0,-291.0,-294.0,0.7469172217924718,0.5973179428418474,0.1978851878483038,-0.21486598469567117
-282.7546465396881,7356.0,7896.0,12700.0,-293.0,-346.0,-394.0,0.7598495756210515,0.5640660045180278,0.2009546007008656,-0.2531312178154481
-282.7624189853668,7272.0,7904.0,12664.0,-318.0,-372.0,-447.0,0.7709791722680086,0.5259547661302247,0.2048261367607407,-0.2949728014809286
-282.77020621299744,7180.0,7872.0,12544.0,-326.0,-268.0,-552.0,0.7752150155220261,0.4862752410888286,0.21995945825942306,-0.3379288480366947
-282.77798867225647,7192.0,7836.0,12776.0,-358.0,-563.0,-614.0,0.7807788433713476,0.43222772340839705,0.2176283155690519,-0.39522336611525394
-282.7857782840729,7224.0,7772.0,12556.0,-367.0,-637.0,-677.0,0.7805149368094288,0.370898702451415,0.21141748582729042,-0.45665439078552356
-282.79359316825867,7360.0,7812.0,12644.0,-403.0,-682.0,-683.0,0.7757996577022516,0.30232702618683926,0.20206748595230886,-0.5156568543779915
-282.80142164230347,7360.0,7728.0,12664.0,-357.0,-660.0,-689.0,0.7629344944296756,0.23530052285791542,0.190627043186783,-0.5711619311176047
-282.80925703048706,7456.0,7684.0,12732.0,-371.0,-602.0,-636.0,0.7463805575047348,0.16936037865759798,0.18120557922819752,-0.6175740146544785
-282.8170585632324,7560.0,7636.0,12692.0,-324.0,-562.0,-635.0,0.7236332378309758,0.10753214273114105,0.17062540189208109,-0.6600596545881846
-282.8248426914215,7564.0,7704.0,12744.0,-281.0,-554.0,-628.0,0.6963316995773282,0.0483392517998369,0.15695414327984447,-0.6986779499930361
-282.83262300491333,7500.0,7528.0,12760.0,-303.0,-523.0,-526.0,0.6711012630780003,-0.009172180866462933,0.1452031710517698,-0.7269491075101312
-282.8404064178467,7540.0,7588.0,12720.0,-251.0,-490.0,-484.0,0.6451094116875915,-0.06097401742493442,0.1314596025825703,-0.7502228929058257
-282.84818148612976,7512.0,7920.0,12768.0,-237.0,-411.0,-481.0,0.6160134847636153,-0.10654209615808129,0.12075446451593792,-0.7710995575378695
-282.8559648990631,7524.0,7664.0,12768.0,-7.0,-361.0,-431.0,0.590036157110538,-0.13555976545970624,0.09738017490522712,-0.7899354307955588
-282.86375665664673,7576.0,7636.0,12764.0,-242.0,-327.0,-374.0,0.5635036402811712,-0.1735009027933674,0.09237998583010745,-0.8023883239041955
-282.8715283870697,7472.0,7636.0,12812.0,-194.0,-338.0,-427.0,0.5326930590611788,-0.20982865674101306,0.08246559389444705,-0.8157263422631035
-282.87929701805115,7644.0,7460.0,12544.0,-196.0,-321.0,-382.0,0.5036386222856724,-0.2442105669148739,0.07411720738091833,-0.8253580899944943
-282.8870675563812,7424.0,7788.0,12684.0,-162.0,-372.0,-460.0,0.4687497731015966,-0.28061561388047107,0.059255283031937674,-0.835474319710961
-282.8948566913605,7456.0,7796.0,12388.0,-149.0,-362.0,-414.0,0.43620042843450785,-0.3147623934485251,0.04483364059783107,-0.8418098161549628
-282.902631521225,7520.0,7804.0,12616.0,-86.0,-383.0,-413.0,0.4044401722178341,-0.34725022146936657,0.024925894218159616,-0.8457092470721305
-282.9104218482971,7496.0,7848.0,12676.0,-137.0,-379.0,-430.0,0.3688268684589178,-0.38036536581943364,0.008363749937266825,-0.8480677904948539
-282.918199300766,7524.0,7840.0,12620.0,-97.0,-386.0,-417.0,0.3345346060888383,-0.4117029421845523,-0.010947523912692811,-0.847624584616179
-282.9259672164917,7556.0,7812.0,12568.0,-129.0,-340.0,-385.0,0.3007016792992616,-0.43963529908821,-0.02535481770606248,-0.8459647965969483
-282.93374848365784,7600.0,7764.0,12704.0,-136.0,-321.0,-399.0,0.2649581245923178,-0.46536709683738725,-0.03920156074118327,-0.8436195202987654
-282.94156551361084,7704.0,7776.0,12616.0,-108.0,-208.0,-367.0,0.2325948413519664,-0.48141366953683856,-0.0511074136032682,-0.8435215177067587
-282.94937467575073,7656.0,7728.0,12632.0,-91.0,-134.0,-321.0,0.20436460973199294,-0.4912849962199498,-0.06074903693622823,-0.8445020504945947
-282.9571580886841,7616.0,7720.0,12564.0,-74.0,-120.0,-326.0,0.1763643748734619,-0.4993107552426694,-0.0715328652190566,-0.8452617500916745
-282.9649510383606,7632.0,7708.0,12608.0,-72.0,-88.0,-302.0,0.15025948852065374,-0.5046511001913717,-0.08084743145656524,-0.8462937114335811
-282.97276067733765,7572.0,7668.0,12668.0,-255.0,-123.0,-262.0,0.1186617754068778,-0.5147638511726239,-0.07525419960277137,-0.845738946735553
-282.9805510044098,7616.0,7648.0,12756.0,-2.0,-57.0,-289.0,0.09675342995230496,-0.5167465900439199,-0.08877902371173642,-0.8460082862592047
-282.9883248806,7536.0,7636.0,12704.0,34.0,-31.0,-271.0,0.07793434460408542,-0.5163191110911672,-0.10386134669124195,-0.846494910862812
-282.9961407184601,7532.0,7680.0,12680.0,50.0,-13.0,-219.0,0.06379779914438055,-0.5146698464480549,-0.11759839133508089,-0.8468857114964627
-283.00391149520874,7460.0,7600.0,12604.0,89.0,-8.0,-195.0,0.053212426878155,-0.5124850972068619,-0.1330558828487443,-0.8466543537984976
-283.01170206069946,7448.0,7740.0,12604.0,102.0,5.0,-150.0,0.04666470184653959,-0.509643640206668,-0.1473509959141296,-0.8463884744026139
-283.0195105075836,7444.0,7832.0,12596.0,147.0,-9.0,-163.0,0.0409616349020136,-0.5073250201969349,-0.16554922097090796,-0.8447111481354198
-283.0272927284241,7324.0,7912.0,12640.0,196.0,5.0,-153.0,0.03834871095912297,-0.5037285744202163,-0.18678211468151026,-0.8425552452601868
-283.03505659103394,7184.0,7944.0,12656.0,140.0,6.0,-119.0,0.03577485464325009,-0.5006151055300776,-0.202317502663545,-0.840935374452966
-283.04283452033997,7372.0,7704.0,12572.0,156.0,251.0,-149.0,0.03600630130105412,-0.4786708514779864,-0.21944012276928176,-0.8493667021557647
-283.0506100654602,7332.0,7684.0,12636.0,113.0,-10.0,-99.0,0.03313036393727799,-0.4769133571130144,-0.23199133153813006,-0.8471340217956916
-283.0583710670471,7304.0,7720.0,12560.0,54.0,14.0,-111.0,0.027391525723608923,-0.4732409858214705,-0.24056643696411895,-0.8470067668346246
-283.0661358833313,7328.0,7996.0,12696.0,91.0,-44.0,-120.0,0.02129125774437962,-0.47350709187388396,-0.2523449800177458,-0.8435992694097376
-283.07390570640564,7380.0,7872.0,12644.0,73.0,-7.0,-109.0,0.01607052693374807,-0.47125304958361225,-0.26221922102550466,-0.8419640025244516
-283.0816798210144,7432.0,7836.0,12700.0,93.0,-22.0,-113.0,0.01103451191572877,-0.4699147757139593,-0.2736970020785251,-0.8391354444699073
-283.0894465446472,7416.0,7852.0,12616.0,96.0,-40.0,-119.0,0.005250290544730218,-0.46966892606129235,-0.2855983608212465,-0.8353544820241556
-283.09720754623413,7384.0,7896.0,12552.0,117.0,-73.0,-116.0,-0.00027801460999398597,-0.47179702522500916,-0.2988500255390591,-0.8295156128319783
-283.1049749851227,7504.0,7784.0,12600.0,77.0,-30.0,-96.0,-0.0048804211517790245,-0.4712544517707038,-0.3083134090897182,-0.826340283993919
-283.11278796195984,7476.0,7760.0,12652.0,81.0,12.0,-99.0,-0.008402610651095644,-0.46755063934745006,-0.3181593574154749,-0.8246820108799566
-283.1205852031708,7672.0,7832.0,12728.0,78.0,250.0,-98.0,-0.005362239931148257,-0.4465807058540008,-0.32779503923796816,-0.8325186675341535
-283.1283528804779,7468.0,7848.0,12652.0,68.0,54.0,-160.0,-0.012822449456972121,-0.4378796283177461,-0.33888274040052047,-0.8326196635636642
-283.1361286640167,7492.0,7808.0,12600.0,38.0,17.0,-150.0,-0.02179218884367204,-0.43204095150132965,-0.347278815669503,-0.8320235218540488
-283.14389657974243,7496.0,7816.0,12652.0,79.0,26.0,-143.0,-0.02842888999977325,-0.4257613088409324,-0.35832587921628695,-0.8303744157856213
-283.15167927742004,7508.0,7824.0,12664.0,13.0,251.0,-189.0,-0.03379835434460379,-0.4013816772360183,-0.3666700757372772,-0.8386319073238371
-283.15948486328125,7504.0,7752.0,12724.0,72.0,16.0,-115.0,-0.03918807708993112,-0.396568945194709,-0.37586586715769715,-0.8366135405472122
-283.1672523021698,7540.0,7788.0,12740.0,72.0,6.0,-153.0,-0.04767180991272849,-0.3911776323706542,-0.3862668550211324,-0.8339696488389835
-283.1750228404999,7504.0,7744.0,12620.0,108.0,41.0,-132.0,-0.05220538199280757,-0.384019608408079,-0.3986203653404379,-0.8312071599697314
-283.182817697525,7448.0,7772.0,12704.0,98.0,76.0,-111.0,-0.05432098915452098,-0.374932140288069,-0.4096087050857808,-0.8298769963279088
-283.19057393074036,7436.0,7832.0,12652.0,78.0,114.0,-80.0,-0.05347552609298553,-0.3640389781267579,-0.41822443874780973,-0.8304843823622355
-283.19836688041687,7376.0,7800.0,12508.0,124.0,65.0,-125.0,-0.056205460241669995,-0.35519464103861825,-0.43127241417927126,-0.8274550247502593
-283.2061312198639,7448.0,7756.0,12676.0,121.0,59.0,-142.0,-0.06046419735253705,-0.3460430413504563,-0.4444748846741856,-0.8240390593080581
-283.21388244628906,7476.0,7844.0,12604.0,148.0,61.0,-158.0,-0.06495920371900898,-0.33616542588673864,-0.4599576935569882,-0.8192753068586381
-283.2216501235962,7388.0,7920.0,12560.0,100.0,87.0,-196.0,-0.07251012074779141,-0.32250667640044167,-0.4730816898719259,-0.8166550316836384
-283.22941040992737,7528.0,7972.0,12616.0,98.0,112.0,-234.0,-0.08175393367356734,-0.3053402739495768,-0.4870449365850871,-0.8141688038607988
-283.23717308044434,7508.0,7680.0,12548.0,88.0,128.0,-250.0,-0.0916678904216031,-0.2861165147128394,-0.5005299526884568,-0.8119138527799127
-283.24494194984436,7556.0,8028.0,12680.0,124.0,170.0,-361.0,-0.10661808838445125,-0.25909879403588415,-0.5191667106917,-0.8074443167599589
-283.25274324417114,7424.0,7952.0,12604.0,92.0,217.0,-309.0,-0.11637138250694833,-0.23052803095557048,-0.5341687819815707,-0.8049709563912815
-283.2605195045471,7440.0,8060.0,12328.0,131.0,267.0,-371.0,-0.12719414243598243,-0.19565675385134318,-0.552893228580207,-0.7999057210649795
-283.268301486969,7168.0,8084.0,12628.0,108.0,232.0,-363.0,-0.13934383354954968,-0.16305513623888157,-0.5686057473592979,-0.7941560442808513
-283.27610325813293,7200.0,8060.0,12564.0,117.0,1.0,-378.0,-0.1636807730527234,-0.1456182754066941,-0.5815917144547527,-0.783425171971149
-283.2838795185089,7524.0,8020.0,12624.0,97.0,239.0,-454.0,-0.18111826267493192,-0.10757007927314127,-0.5966292143690252,-0.774376157647034
-283.2916486263275,7596.0,8012.0,12764.0,81.0,265.0,-400.0,-0.1933653482272868,-0.07012572805261236,-0.6093485633879091,-0.765758808416281
-283.2994558811188,7652.0,8040.0,12428.0,95.0,302.0,-447.0,-0.20630646083374402,-0.027831410423087417,-0.6226811100134384,-0.7542753423283495
-283.3072259426117,7712.0,8096.0,12736.0,131.0,417.0,-490.0,-0.2151774871259081,0.023756913806965974,-0.6388314551444405,-0.738260543438822
-283.3150222301483,7772.0,8180.0,12516.0,131.0,260.0,-468.0,-0.2307887571482701,0.06396565284250366,-0.6503243255590839,-0.7209183146629803
-283.32282853126526,7464.0,8376.0,12584.0,130.0,630.0,-426.0,-0.22200752244259667,0.12478324626017166,-0.667209587739791,-0.699980833637444
-283.3306097984314,7556.0,8392.0,12528.0,90.0,709.0,-392.0,-0.20507944959422184,0.18860694009965195,-0.680379430537728,-0.6778301203115233
-283.3383753299713,7496.0,8488.0,12316.0,36.0,718.0,-331.0,-0.1821294418672903,0.24940602893570757,-0.6882101085999772,-0.6565000727771765
-283.34619188308716,7260.0,8456.0,12560.0,15.0,666.0,-300.0,-0.15926474289483095,0.30464145936870923,-0.6916703010875983,-0.6351539321280611
-283.35396552085876,7108.0,8368.0,12476.0,-57.0,537.0,-293.0,-0.14131697452287842,0.35230136617924307,-0.6871552449914637,-0.6194601919257288
-283.36174869537354,7008.0,8240.0,12604.0,-149.0,429.0,-330.0,-0.1286403007306248,0.39657053309243995,-0.6733995586979996,-0.610505134831847
-283.3695571422577,6988.0,8132.0,12588.0,-116.0,261.0,-349.0,-0.12772987321132992,0.4318803205528059,-0.6575303311128302,-0.6040019303572424
-283.3773295879364,6924.0,7688.0,12436.0,-134.0,193.0,-327.0,-0.12871093893902402,0.4619538194004479,-0.6398716364331679,-0.6004968374830237
-283.3850965499878,6868.0,7792.0,12792.0,-133.0,78.0,-367.0,-0.1380961930354367,0.48766275880590226,-0.6185844911206914,-0.6003896255665074
-283.3928940296173,6872.0,7688.0,12608.0,-151.0,-31.0,-457.0,-0.15710658597915153,0.5120031100497618,-0.5903049292293822,-0.6039125983690367
-283.4006643295288,6840.0,7684.0,12664.0,-49.0,-129.0,-374.0,-0.18112657106132343,0.5247491808571979,-0.5688810109153899,-0.6067996851228181
-283.4084315299988,6896.0,7748.0,12672.0,-77.0,-195.0,-391.0,-0.20779808073678085,0.5345724179999096,-0.5433917917466625,-0.6130070539709896
-283.41626739501953,6656.0,7780.0,12792.0,12.0,-263.0,-353.0,-0.2395110458421534,0.5365451206914327,-0.5223958563534244,-0.617945273990008
-283.4240369796753,6984.0,7900.0,12780.0,-24.0,-316.0,-332.0,-0.27045822215327137,0.5346245103264933,-0.49853689497977316,-0.6264901813849724
-283.43178510665894,6928.0,8036.0,12784.0,-40.0,-352.0,-330.0,-0.30166175096273984,0.5301136774302715,-0.4722089401951261,-0.6363948411224309
-283.4395658969879,6988.0,8088.0,12768.0,-16.0,-414.0,-312.0,-0.3349545484708266,0.519765133353362,-0.44551600788038814,-0.6474296435375729
-283.44733691215515,7088.0,8188.0,12528.0,-78.0,-368.0,-262.0,-0.36022873515170184,0.5109206720187403,-0.4181180491653372,-0.6590695124469775
-283.45510268211365,7240.0,8204.0,12540.0,-103.0,-416.0,-268.0,-0.38584829176008967,0.499406385056219,-0.3867737460213927,-0.6723990092939458
-283.46287536621094,7336.0,7936.0,12392.0,-118.0,-418.0,-291.0,-0.41146110691312154,0.48803840293396394,-0.3527059165550105,-0.6841906248894268
-283.4706463813782,7500.0,8264.0,12316.0,-138.0,-366.0,-307.0,-0.43477219493615066,0.48000070051872484,-0.31793283532588335,-0.6924530151812324
-283.47840785980225,7628.0,8252.0,12536.0,-152.0,-509.0,-332.0,-0.461908147695103,0.46337945675652104,-0.27509759537644557,-0.7044442172145412
-283.48621368408203,7800.0,8268.0,12344.0,-164.0,-146.0,-392.0,-0.48252319540939625,0.4699100059504631,-0.24307767752112688,-0.6980466996487245
-283.49403071403503,7852.0,8316.0,12344.0,-125.0,-23.0,-482.0,-0.5067907503206388,0.48338663172259594,-0.21451494756700545,-0.6807964724729796
-283.50180077552795,7936.0,8192.0,12460.0,-204.0,76.0,-763.0,-0.5408347954917758,0.5098417181485561,-0.17314038945399282,-0.6462055028862079
-283.50957894325256,7968.0,8444.0,12428.0,-199.0,283.0,-505.0,-0.5554342283409915,0.5419166386044099,-0.1525814797247151,-0.6119951526245619
-283.51739597320557,8016.0,8392.0,12368.0,-299.0,389.0,-561.0,-0.5649316748713925,0.5833060030614864,-0.12865652676448933,-0.5692572420622637
-283.5251696109772,7960.0,8364.0,12460.0,-321.0,499.0,-572.0,-0.5699867615049726,0.6286212736292056,-0.1079061988684549,-0.5179832413270052
-283.53294253349304,7980.0,8260.0,12428.0,-335.0,565.0,-628.0,-0.5729352652973578,0.6745417962463038,-0.08613411877966744,-0.45751443745253134
-283.5407567024231,8176.0,8216.0,12712.0,-349.0,589.0,-713.0,-0.5743581666878725,0.7181386176682969,-0.059440684634282856,-0.38840240367770823
-283.548531293869,7892.0,8160.0,12444.0,-315.0,676.0,-703.0,-0.5727116492399464,0.7574155793509495,-0.03841937430107333,-0.3112024399962829
-283.5563123226166,7768.0,8204.0,12520.0,-229.0,642.0,-674.0,-0.5717878176556165,0.785771753370557,-0.01964902122002095,-0.2350220397126258
-283.5641152858734,7904.0,8144.0,12356.0,-183.0,636.0,-561.0,-0.5680836695036171,0.8065669353514043,-0.00911474434493512,-0.16324106308363395
-283.57189679145813,7588.0,8224.0,12380.0,-114.0,670.0,-518.0,-0.5653881587982991,0.8198666167762553,-0.004212269141839846,-0.09020652623398856
-283.57966566085815,7576.0,8232.0,12176.0,-79.0,713.0,-440.0,-0.5614735696768047,0.827279636508186,-0.007246139895332673,-0.017416286340295132
-283.58748722076416,7432.0,8364.0,12188.0,-111.0,750.0,-302.0,-0.5520890019010044,0.8319108007704467,-0.021945035318824736,0.05138646676200327
-283.5952603816986,7364.0,8328.0,12128.0,-170.0,851.0,-241.0,-0.5354209713861297,0.8341419931763949,-0.04604623621560673,0.12414210707902944
-283.60302662849426,7300.0,8340.0,12152.0,-222.0,846.0,-51.0,-0.5138370871912543,0.8330907129978202,-0.08399994031898741,0.1867493554741153
-283.61082100868225,7236.0,8228.0,12176.0,-221.0,896.0,98.0,-0.4912119511557947,0.8249450575286947,-0.13444157040141996,0.24515696043289417
-283.6186192035675,7112.0,8132.0,12220.0,-6.0,867.0,186.0,-0.48316189619545935,0.8020353323584101,-0.18454805379321934,0.29872382488626187
-283.6263816356659,6992.0,8000.0,12320.0,-301.0,871.0,340.0,-0.45527172788443104,0.7836348008082327,-0.25196762325344874,0.33934712255060373
-283.63417744636536,7040.0,7872.0,12068.0,-234.0,838.0,555.0,-0.4355225048660554,0.7528293467726002,-0.32878942807284556,0.3680565641048502
-283.64194416999817,6968.0,7840.0,12380.0,-193.0,864.0,722.0,-0.41916955735928546,0.7081519095248662,-0.4131880982533787,0.3899914751392172
-283.6497092247009,6984.0,7644.0,12476.0,-124.0,850.0,839.0,-0.4071863110974923,0.6499142053549366,-0.49760164397728684,0.405220233507384
-283.6574785709381,6884.0,7472.0,12488.0,-53.0,800.0,993.0,-0.40207586677958485,0.5767871338320869,-0.580609234089779,0.41054173586724657
-283.66524171829224,6716.0,7644.0,12704.0,241.0,795.0,1104.0,-0.4105171874585773,0.48039421318900977,-0.6507024518391512,0.4210503032965643
-283.67300033569336,6648.0,7832.0,12896.0,60.0,720.0,1172.0,-0.412262362509017,0.38245114519072054,-0.718236613119843,0.4097646075186671
-283.68076491355896,6472.0,7964.0,13004.0,105.0,580.0,1194.0,-0.4193113404676722,0.2811678405504781,-0.7699955202591029,0.39016604667282134
-283.68852138519287,6264.0,8064.0,13132.0,83.0,403.0,1183.0,-0.4320066670910168,0.18378685021511262,-0.8061192738542238,0.36022819100905756
-283.696293592453,6200.0,7940.0,13136.0,-19.0,301.0,1060.0,-0.4418485252205841,0.09997780576748316,-0.8312068990214928,0.322287775339661
-283.7041177749634,6072.0,8416.0,13128.0,-166.0,132.0,978.0,-0.4566382972998788,0.031572574044276255,-0.846254440796254,0.2726500677423454
-283.71189403533936,5968.0,8568.0,13136.0,-243.0,-44.0,919.0,-0.47948557780516027,-0.02550983923213875,-0.8498633017626916,0.2171985200138763
-283.7197160720825,6080.0,8636.0,13132.0,-389.0,-234.0,525.0,-0.5067861453998483,-0.043677690695486625,-0.8446979970750845,0.16656937264579497
-283.72749304771423,6084.0,8408.0,13308.0,-567.0,-423.0,608.0,-0.547221100410741,-0.05710700367368368,-0.8291330204323891,0.09912765419061952
-283.73527240753174,6276.0,8212.0,13084.0,-638.0,-539.0,414.0,-0.5910980201995976,-0.05178477322346811,-0.8041431582346112,0.03571062646853526
-283.7430377006531,6648.0,8008.0,13188.0,-752.0,-564.0,498.0,-0.6329756653156321,-0.046014063132881255,-0.7717622984821864,-0.040093238254457465
-283.7508487701416,6632.0,7868.0,13608.0,-779.0,-609.0,195.0,-0.673909108108209,-0.018205586316798562,-0.7317112230637375,-0.10056717495400402
-283.75861644744873,6744.0,7920.0,13596.0,-699.0,-619.0,97.0,-0.7113847242739572,0.01120053953838158,-0.6866270031835437,-0.14949809524840377
-283.76639556884766,6868.0,7452.0,13616.0,-628.0,-652.0,98.0,-0.7462817497964587,0.03564715794601252,-0.6359409828131564,-0.19331812235210877
-283.77419543266296,6964.0,7216.0,13536.0,-764.0,-590.0,69.0,-0.772805241572256,0.07130753689906558,-0.5826452744438289,-0.24127117098424972
-283.78198170661926,7092.0,7132.0,13476.0,-351.0,-526.0,39.0,-0.7954008947409106,0.08171289297392985,-0.5390692225080508,-0.2646975502564305
-283.78975224494934,7108.0,7160.0,13356.0,-243.0,-354.0,56.0,-0.8085199678037595,0.08760684782455337,-0.5087822614559964,-0.28242009897416204
-283.7975664138794,7100.0,7240.0,13384.0,-117.0,-157.0,151.0,-0.8107529251274214,0.08515607184943942,-0.49572005434003685,-0.29948249623244083
-283.8054268360138,7120.0,7416.0,13212.0,-143.0,30.0,256.0,-0.8014995854278892,0.08483578574713053,-0.4957050624923805,-0.3235394798707163
-283.81321263313293,7036.0,7572.0,13120.0,-199.0,249.0,386.0,-0.7776717888700541,0.08888013110297593,-0.5097415396344408,-0.3570580819164827
-283.8209903240204,6904.0,7792.0,13172.0,-312.0,477.0,400.0,-0.7402541173199031,0.1068070836291778,-0.5343865340698125,-0.3937602327335937
-283.82876467704773,6816.0,8068.0,13144.0,-469.0,671.0,453.0,-0.6867788349087698,0.13846106471579844,-0.5638565657903625,-0.43729754023344247
-283.8365375995636,6772.0,7968.0,13288.0,-690.0,821.0,432.0,-0.6184446932178854,0.18882761281225108,-0.588868203178535,-0.484875791678184
-283.8443069458008,6712.0,8384.0,13256.0,-916.0,978.0,392.0,-0.5325751473368442,0.2575036194290939,-0.6048039480690668,-0.5331676873368495
-283.8521213531494,6876.0,8232.0,13160.0,-1176.0,1061.0,258.0,-0.4338997572668619,0.34446483390935245,-0.5992864309727981,-0.5778674177486095
-283.8599021434784,6460.0,8380.0,13628.0,-1475.0,1078.0,153.0,-0.32134942597178634,0.44099283815464885,-0.5631058770171331,-0.6206219738235801
-283.8676927089691,6356.0,8292.0,13836.0,-1724.0,1055.0,-111.0,-0.20593254337741512,0.5434478892975659,-0.48745111205372005,-0.6516499002944152
-283.87550020217896,6372.0,8420.0,14132.0,-2011.0,968.0,-294.0,-0.08441960410630124,0.6349332682133473,-0.36943724832618574,-0.673237844233098
-283.8832805156708,6360.0,8176.0,14116.0,-2216.0,893.0,-633.0,0.029373322131586527,0.7077795861023816,-0.20597301892722425,-0.6751002747130983
-283.89104890823364,6232.0,7944.0,14276.0,-2393.0,818.0,-944.0,0.13272399075252786,0.7463006353294968,-0.00443549106226903,-0.6522269776730713
-283.89884781837463,6240.0,7772.0,14292.0,-2432.0,633.0,-1325.0,0.20968286558120017,0.7324250742584365,0.2209474549205099,-0.608907898325625
-283.9066205024719,6304.0,7540.0,13780.0,-2542.0,472.0,-1542.0,0.27197482889046504,0.6588339117629404,0.44803235264651886,-0.5396615422124962
-283.9144172668457,6548.0,7308.0,13588.0,-2633.0,307.0,-2230.0,0.29329002057627734,0.5011375432119024,0.6772818511970913,-0.4518090533100757
-283.922208070755,6796.0,7196.0,13428.0,-2676.0,280.0,-2596.0,0.2770767098176621,0.2758605473532372,0.8589441080195721,-0.33067276057917616
-283.9300289154053,7004.0,7192.0,13500.0,-2666.0,356.0,-2839.0,0.22018070660503442,0.008311457951073247,0.9585511545155909,-0.18064069387173806
-283.93780541419983,7148.0,7068.0,13524.0,-2732.0,437.0,-2864.0,0.13264668493105422,-0.2616022101919331,0.9559960156378494,-0.006384252818790666
-283.94558906555176,7308.0,7020.0,13456.0,-2676.0,524.0,-2846.0,0.024768352192573725,-0.5009761391378796,0.8496732760901744,0.1626799331274713
-283.95337653160095,7672.0,6984.0,13160.0,-2697.0,591.0,-2840.0,-0.09142372086804762,-0.6859835349186626,0.6506493268522814,0.31260797582565075
-283.96115350723267,7796.0,6772.0,12960.0,-2629.0,550.0,-2728.0,-0.19511307833081534,-0.7918718158970541,0.38995682850295504,0.42755535987295473
-283.9689292907715,7788.0,6548.0,13032.0,-2518.0,556.0,-2589.0,-0.2777621324881895,-0.8172492230584832,0.1024684001311935,0.4944210069773259
-283.9767336845398,7780.0,6428.0,12676.0,-2407.0,543.0,-2547.0,-0.32908760569596973,-0.7690501282525669,-0.18747552123494027,0.5148943357133497
-283.9845070838928,7816.0,6280.0,12668.0,-2249.0,549.0,-1900.0,-0.37322250725104866,-0.675291642061793,-0.417796264224336,0.4797212105409943
-283.9922924041748,7732.0,6188.0,12748.0,-2065.0,480.0,-1479.0,-0.4053890388734905,-0.5600713423758821,-0.5921592756854961,0.41391691295492333
-284.0000891685486,8164.0,6140.0,12780.0,-1958.0,762.0,-1031.0,-0.41594604280590797,-0.4556024559760785,-0.7252596498240904,0.30563660107995677
-284.0078778266907,8380.0,5996.0,12848.0,-1826.0,457.0,-710.0,-0.43409968792143105,-0.3511710948938429,-0.8064400412260208,0.1946555495354539
-284.01568269729614,8548.0,6252.0,12924.0,-1736.0,448.0,-347.0,-0.44431601649429203,-0.2652306487349191,-0.8527616478931739,0.07094753230956366
-284.02349972724915,8472.0,6284.0,13024.0,-1734.0,367.0,-131.0,-0.4509742249864864,-0.18825766621999945,-0.8703319672759202,-0.06085693259492857
-284.03127574920654,8244.0,6348.0,13148.0,-1655.0,221.0,28.0,-0.45643988455676493,-0.12277888552060674,-0.8606525751482691,-0.18938089118698806
-284.0390570163727,7956.0,6432.0,12984.0,-1556.0,84.0,156.0,-0.4599734461797477,-0.07048311243113814,-0.8288526595791007,-0.310579826099825
-284.04683685302734,7732.0,6608.0,12772.0,-1482.0,-171.0,78.0,-0.4753418919526155,-0.02111450809283549,-0.7747107118753082,-0.41644636654503164
-284.0546090602875,7560.0,6396.0,12368.0,-1344.0,-474.0,-91.0,-0.5092512570865599,0.02334346992386095,-0.7008535504124977,-0.49892137701432354
-284.0623745918274,7232.0,6380.0,11776.0,-1146.0,-536.0,-358.0,-0.55168498298077,0.07229546596288104,-0.6222104901891854,-0.5507006001932913
-284.0701792240143,7376.0,6404.0,11932.0,-1028.0,-1067.0,-601.0,-0.6259781321464175,0.10205987681699526,-0.5125431638490735,-0.5788217901998542
-284.07794761657715,7080.0,6348.0,11592.0,-909.0,-1025.0,-794.0,-0.6972359123063242,0.13404732186487106,-0.3996135063700652,-0.5798296677627363
-284.0857136249542,7236.0,6648.0,11560.0,-735.0,-1426.0,-949.0,-0.7762101781585223,0.13771031913903195,-0.2609643101212941,-0.5571635811578659
-284.09348368644714,7368.0,6368.0,11616.0,-623.0,-1524.0,-1100.0,-0.8444242589085942,0.12871640260516712,-0.11239155581326478,-0.5076887795184464
-284.10125279426575,7620.0,6200.0,11700.0,-753.0,-1561.0,-1163.0,-0.8882099059442183,0.12413027921840368,0.048414001108000024,-0.4396941223855947
-284.1090135574341,7928.0,6268.0,11536.0,-393.0,-1519.0,-1128.0,-0.9080173989993784,0.08995966379786882,0.19084915740272948,-0.36192300441177594
-284.11681294441223,8060.0,6224.0,11988.0,-327.0,-1437.0,-1111.0,-0.9049740440121894,0.05100466936417667,0.31966656631903734,-0.2761046717190264
-284.1245856285095,8152.0,6248.0,12060.0,-170.0,-1335.0,-970.0,-0.8812137109310464,0.004858724309348512,0.4289757624674023,-0.19854113850970687
-284.13236117362976,8152.0,6240.0,12076.0,-14.0,-1228.0,-884.0,-0.8433141560015127,-0.04824269624711418,0.5193896592451408,-0.12933776871231997
-284.14014744758606,8064.0,6236.0,12116.0,243.0,-1201.0,-1005.0,-0.7917623524208423,-0.12419787365007014,0.5949844497884106,-0.060669349591020556
-284.14791774749756,7872.0,6032.0,11900.0,504.0,-1161.0,-555.0,-0.7238249526905975,-0.1926573689621205,0.661584390203369,-0.03559031731081255
-284.1556990146637,7924.0,6156.0,12248.0,702.0,-1334.0,-384.0,-0.6305274069939739,-0.2609501120690699,0.730405137356557,-0.02913011094631598
-284.16350507736206,7636.0,5948.0,11972.0,975.0,-1528.0,-233.0,-0.5052381259445129,-0.32919049940915734,0.7965619435119128,-0.043094330710088107
-284.1712853908539,7524.0,5844.0,11604.0,1252.0,-1679.0,-48.0,-0.3470659514114139,-0.3876307890888326,0.850370527879558,-0.07847013466982805
-284.1790518760681,7352.0,5688.0,11448.0,1566.0,-1892.0,129.0,-0.14944785297363075,-0.4286950732964188,0.8812302304914895,-0.13160225773468517
-284.1868350505829,7268.0,5636.0,11744.0,1810.0,-2056.0,426.0,0.07898604600879282,-0.43073529601529276,0.8778628534453882,-0.19386882122516677
-284.1946077346802,7476.0,5484.0,11336.0,1963.0,-2222.0,726.0,0.32401468815832757,-0.3857231320992982,0.8277397257096137,-0.2471418493564828
-284.20239305496216,7572.0,5304.0,11316.0,2079.0,-2317.0,1048.0,0.5614234040061291,-0.2895204233592871,0.7234722142579786,-0.27851326914293967
-284.21019649505615,7424.0,5180.0,11252.0,2106.0,-2289.0,1419.0,0.7605936831259245,-0.14596980191070003,0.5710073558155263,-0.2722878361654317
-284.2179992198944,7664.0,5152.0,11360.0,2136.0,-2236.0,1686.0,0.8979068610995637,0.025585503713280455,0.37577394404181325,-0.22782140761861425
-284.2257764339447,7744.0,5124.0,11280.0,2129.0,-2169.0,1880.0,0.9562670737014167,0.20143349578934872,0.1517997889410005,-0.14810352664970164
-284.2335584163666,7852.0,5168.0,11444.0,2172.0,-2176.0,1988.0,0.9264483762238104,0.36281062216739235,-0.08870744991696829,-0.0468278438965881
-284.2413284778595,7740.0,5444.0,11424.0,2215.0,-2186.0,2034.0,0.806340068422442,0.49179061018741616,-0.3225778738173761,0.062459627852249885
-284.2491047382355,8128.0,5716.0,11388.0,2286.0,-2148.0,1952.0,0.6064709262587562,0.5798766466199433,-0.518765300718269,0.16376401643321944
-284.2568995952606,8192.0,6004.0,11444.0,2332.0,-2126.0,2000.0,0.34578521573755155,0.6114141732172376,-0.6647145777071429,0.2544795149909544
-284.2646701335907,8372.0,6212.0,11428.0,2369.0,-2075.0,1975.0,0.05248943542186407,0.584416560441749,-0.7420177834723265,0.3242094262376482
-284.2724356651306,8644.0,6384.0,11060.0,2372.0,-2293.0,1937.0,-0.2578001368066496,0.5071957838720662,-0.7438154433891679,0.3507564859851465
-284.280202627182,8780.0,6436.0,11548.0,2326.0,-1932.0,1934.0,-0.5204782009539682,0.37067441098781684,-0.6820288007681077,0.3557241041781856
-284.28796553611755,8848.0,6608.0,11700.0,2229.0,-1811.0,1837.0,-0.7260215551368047,0.20727879769252197,-0.565407806815554,0.3320274288306665
-284.29574179649353,8840.0,6640.0,11820.0,2275.0,-1777.0,1828.0,-0.8700417608738737,0.02333496326014375,-0.402292054432652,0.2839787259030032
-284.3035171031952,8764.0,6596.0,11880.0,1911.0,-1759.0,1795.0,-0.9450092314547524,-0.13618888646638203,-0.21670181264792593,0.20359387039753565
-284.3112778663635,8776.0,6612.0,11796.0,2036.0,-1822.0,1678.0,-0.948643004828464,-0.2922672701105282,-0.009642997689755795,0.12067851841863973
-284.31907987594604,8944.0,6560.0,11980.0,1653.0,-1942.0,1485.0,-0.8945427519674816,-0.3968741855577656,0.20017961813083676,0.04703473424286949
-284.32685136795044,9080.0,6520.0,12076.0,1560.0,-1806.0,1517.0,-0.7914996185759452,-0.47040655505618806,0.38860049173219696,-0.03515230546916491
-284.33461356163025,9148.0,6512.0,12092.0,1446.0,-2099.0,1266.0,-0.6378056045159696,-0.5179279042617102,0.5639730263747532,-0.08300073708584235
-284.3423807621002,9168.0,6552.0,12228.0,1313.0,-2005.0,865.0,-0.46232202972939107,-0.5494890727754549,0.6883171708346885,-0.1026624179600184
-284.3501989841461,9264.0,6564.0,12340.0,1204.0,-2031.0,729.0,-0.2699258491140117,-0.5595891336141454,0.7765665421609875,-0.10461569249962989
-284.3579797744751,9244.0,6576.0,12420.0,1172.0,-1937.0,568.0,-0.07474679847417048,-0.554986801109542,0.8223426940462005,-0.10077231892189475
-284.3657648563385,9712.0,6904.0,12284.0,1142.0,-2041.0,469.0,0.1283919270656179,-0.5352548461762083,0.8305255329237428,-0.08511816416602049
-284.3735673427582,9880.0,6760.0,12336.0,1089.0,-1666.0,306.0,0.29772776754823327,-0.5055032137660482,0.8057126464996601,-0.08155862047298143
-284.3813772201538,10024.0,6668.0,12496.0,1116.0,-1410.0,240.0,0.44232956232289394,-0.4638824270025573,0.7622147685612742,-0.09047816753525265
-284.3891487121582,10232.0,6948.0,12572.0,1143.0,-1199.0,210.0,0.5641023515868122,-0.4109017125164179,0.7079023379548411,-0.10873177779919374
-284.3969280719757,9984.0,7192.0,12984.0,1265.0,-972.0,190.0,0.6648743459904098,-0.342726357002466,0.6484687186674389,-0.14131195692315954
-284.4046914577484,10392.0,7252.0,12732.0,1358.0,-772.0,207.0,0.7447946787044413,-0.2592484063061296,0.5875130463735264,-0.18138238818082247
-284.41246914863586,10248.0,7492.0,12752.0,1389.0,-644.0,114.0,0.8039374240862405,-0.17171876851759799,0.521475683417618,-0.22860532429606328
-284.4202835559845,10512.0,7664.0,12608.0,1424.0,-366.0,34.0,0.8358339261928998,-0.07686561827005098,0.46394445104403814,-0.283247013926663
-284.42809772491455,11088.0,7904.0,12940.0,1355.0,-133.0,98.0,0.8468215371411756,0.022559269283163246,0.4182664630520773,-0.3277766457348226
-284.435866355896,10900.0,7848.0,12756.0,1398.0,91.0,172.0,0.8394025480967239,0.13379935712846006,0.3815702966627481,-0.36318755896291427
-284.4436445236206,10880.0,7888.0,12792.0,1366.0,292.0,380.0,0.8193444843938963,0.2537899853888474,0.35220752702024516,-0.3744530906801438
-284.45138692855835,10836.0,7964.0,12848.0,1314.0,486.0,560.0,0.7869029074526525,0.3775926596869176,0.3285670505186116,-0.36090343709449774
-284.4591643810272,10876.0,7996.0,12932.0,1260.0,745.0,708.0,0.739013481360711,0.502844542501442,0.3133872186393763,-0.3206164244656117
-284.466970205307,10868.0,8024.0,12952.0,1198.0,992.0,713.0,0.6719066696714107,0.6204762713271531,0.3089828021450981,-0.2609219269237256
-284.4747483730316,10864.0,7808.0,12880.0,1246.0,1221.0,1022.0,0.5858175963808132,0.737501929074661,0.29223879261770386,-0.16584672583776486
-284.48250937461853,10860.0,7756.0,12876.0,1208.0,1293.0,840.0,0.4803486548594243,0.8273914484718132,0.28261600029926404,-0.06940286121841703
-284.49026107788086,10824.0,7708.0,12992.0,1267.0,1882.0,962.0,0.34052798250511773,0.8951559250082874,0.2779632830088482,0.07397956712832444
-284.4980547428131,10616.0,7512.0,13024.0,1342.0,2128.0,1191.0,0.17140997395678964,0.9233162704156522,0.24952764120660514,0.2363083618658699
-284.50582361221313,10448.0,7348.0,12940.0,1438.0,2235.0,1402.0,-0.021330570649286684,0.8988261371026474,0.19308504091734624,0.3929055217108246
-284.5135962963104,10280.0,7116.0,13036.0,1502.0,2272.0,1609.0,-0.2242360884194103,0.8146750947033797,0.11001161474566896,0.5233737778504499
-284.5214247703552,10120.0,7124.0,12808.0,1458.0,2283.0,1746.0,-0.4135339090530797,0.6724117973225306,0.007513702170737525,0.6138368066224543
-284.52918696403503,10048.0,7288.0,13056.0,1474.0,2224.0,1870.0,-0.5787293290419905,0.48203737333963864,-0.0995034520356003,0.6502394923744852
-284.53695487976074,10204.0,7220.0,12872.0,1434.0,2254.0,1982.0,-0.7029340662219931,0.2538661988130943,-0.20664560859975784,0.6314532794207666
-284.5447459220886,10040.0,7236.0,13028.0,1395.0,2286.0,1985.0,-0.7701088739822173,0.0061692274065635495,-0.3012547684525725,0.5622631299770904
-284.55249547958374,10068.0,7464.0,12704.0,1372.0,2348.0,1996.0,-0.774282105824098,-0.2434437742168278,-0.37659360456320046,0.4465418305128451
-284.560275554657,10492.0,7436.0,12704.0,1353.0,2452.0,1942.0,-0.7099893194375023,-0.47376816576347003,-0.4295236906029288,0.29490386671698426
-284.56805658340454,10368.0,7224.0,12548.0,1293.0,2598.0,1714.0,-0.578808385237704,-0.6571872955134268,-0.46648364530275355,0.12441350593615016
-284.57584261894226,10612.0,7064.0,12648.0,1221.0,2781.0,1540.0,-0.3952303667028779,-0.7781366503306716,-0.4843735805922526,-0.06065101048054766
-284.5836532115936,10440.0,6964.0,13056.0,1206.0,2820.0,1409.0,-0.17905457342477935,-0.8291412996501762,-0.47223087740592584,-0.23971266836468255
-284.5914673805237,10140.0,7012.0,13500.0,1179.0,3486.0,1345.0,0.07389740250334427,-0.7853707176091625,-0.4295775225687471,-0.439539715985968
-284.5992410182953,9720.0,7472.0,14828.0,1073.0,4196.0,1562.0,0.33841400185636455,-0.62719382479595,-0.31228886101836406,-0.6281556628489792
-284.60702419281006,9100.0,8812.0,16096.0,976.0,4791.0,1955.0,0.5720758360378256,-0.3532745330114809,-0.10653249275484014,-0.7325142798161569
-284.61482977867126,8228.0,10232.0,16956.0,720.0,4678.0,2384.0,0.7171460293556673,-0.036481562165678244,0.14008597223319516,-0.681723249262362
-284.62264227867126,8172.0,10972.0,16944.0,397.0,4048.0,2427.0,0.7516965434935816,0.23931466615758804,0.3486501331664527,-0.5060868321787269
-284.6304135322571,8112.0,10692.0,16312.0,230.0,2366.0,1958.0,0.7353941880596747,0.40415865827454117,0.4371049819003343,-0.32371345648224603
-284.63822388648987,8620.0,9876.0,14996.0,-279.0,1222.0,869.0,0.716952817411637,0.44995526928612073,0.48832153883536317,-0.21227573567563768
-284.6460237503052,8976.0,8940.0,14304.0,-385.0,139.0,485.0,0.7341071143789526,0.44841303203565236,0.4842393896780314,-0.15976454801691095
-284.6538052558899,9396.0,8128.0,13520.0,-453.0,65.0,-178.0,0.7460198552974225,0.412382552097325,0.5011061263352586,-0.14929051000308538
-284.66157579421997,9752.0,7596.0,13040.0,-308.0,567.0,-434.0,0.7250805391125846,0.3798594638400543,0.5562667143206497,-0.14329110952972157
-284.6693916320801,10356.0,6688.0,12788.0,-10.0,1198.0,-522.0,0.6565496926907549,0.3664984986872638,0.6452453185829925,-0.13520292280268728
-284.6771631240845,10592.0,6444.0,12868.0,291.0,1837.0,-456.0,0.5311016142928379,0.3740005539998996,0.7511968559525293,-0.1172942646097613
-284.6849422454834,10580.0,6512.0,13172.0,600.0,2433.0,-178.0,0.3420731307282406,0.405441189989476,0.8435881296811968,-0.08344148940831433
-284.692754983902,10300.0,6708.0,13544.0,722.0,3056.0,56.0,0.08863190211105568,0.4372635047797932,0.8945837415282638,-0.02578648307079705
-284.7005100250244,10088.0,6992.0,13588.0,763.0,3574.0,352.0,-0.20837775437140965,0.4558607111585918,0.8637954143884109,0.05125627363225795
-284.70828104019165,9584.0,7352.0,13740.0,731.0,3845.0,762.0,-0.5013467566038496,0.45595964937106587,0.7241639221782182,0.12782347829594773
-284.7160496711731,9104.0,7848.0,13744.0,626.0,4021.0,684.0,-0.7414902478455005,0.40159803742640937,0.4966647606512729,0.20551239430381832
-284.72383546829224,8632.0,7952.0,13756.0,521.0,4006.0,814.0,-0.8921076217798452,0.3115916735566238,0.20527757662767987,0.2547856680944953
-284.73163509368896,8196.0,8224.0,13860.0,430.0,3920.0,744.0,-0.9349216155813498,0.19254472258028887,-0.10431890701116914,0.27922333026671226
-284.73940443992615,7444.0,8236.0,13756.0,431.0,3940.0,718.0,-0.8715867161522636,0.05153980302663205,-0.40299552041728093,0.2743626349459676
-284.74717926979065,7284.0,8260.0,13808.0,399.0,3970.0,633.0,-0.7063908451686242,-0.0907629001124325,-0.6584204044174808,0.24342686965875132
-284.7549765110016,6972.0,8388.0,13576.0,426.0,4076.0,556.0,-0.45210553589991154,-0.22163710624773522,-0.8429814647101742,0.18936691289101562
-284.76274847984314,6620.0,8428.0,13732.0,494.0,4161.0,480.0,-0.13544927983939112,-0.32399858136642573,-0.9287851162963865,0.11847624069762541
-284.77050852775574,6128.0,8112.0,13728.0,566.0,4272.0,421.0,0.20819147624374434,-0.3825953211263492,-0.8994321219299466,0.03604146934115998
-284.7782714366913,5448.0,7988.0,13820.0,703.0,4297.0,432.0,0.5303543661525775,-0.3897726515030665,-0.7517151998538588,-0.04154256554234197
-284.7860748767853,5136.0,7748.0,13376.0,729.0,4273.0,339.0,0.7823728573685169,-0.33910104392339213,-0.5094903312487977,-0.115424418677671
-284.7938656806946,4608.0,7804.0,13128.0,852.0,4303.0,199.0,0.9346959245172063,-0.22994254853654497,-0.20379703841583227,-0.17870847824426056
-284.8016846179962,4472.0,7980.0,13284.0,861.0,4354.0,133.0,0.9618069072146938,-0.08752960174792469,0.1311135654054496,-0.22377505450480026
-284.8094696998596,4016.0,8028.0,13016.0,850.0,4472.0,127.0,0.8546657659224003,0.06768694181642079,0.45598166654786537,-0.23884226225701471
-284.81725692749023,3704.0,7988.0,12816.0,785.0,4546.0,121.0,0.623100604196208,0.20956224829471476,0.7215549441309544,-0.2172274470230685
-284.8250720500946,3132.0,8180.0,12784.0,691.0,4547.0,29.0,0.30133310370979227,0.3110959753235882,0.8864245040600404,-0.16330723605523542
-284.83286905288696,2876.0,7964.0,12500.0,552.0,4497.0,-32.0,-0.05769798164657046,0.3601206796861866,0.927781435088623,-0.07877593338809935
-284.8406481742859,2796.0,8244.0,12484.0,325.0,4378.0,-88.0,-0.39507314274903155,0.35618922453883695,0.8462246541888211,0.030826658006268434
-284.8484330177307,2316.0,8156.0,12464.0,129.0,4248.0,-215.0,-0.6677584403879162,0.30408601721550976,0.6624914287393843,0.15078284475216577
-284.85621094703674,1964.0,8240.0,12488.0,-104.0,3956.0,-404.0,-0.8393337712329239,0.22163494662588593,0.4167680116010152,0.26963159200693565
-284.8639943599701,1960.0,8180.0,12604.0,-257.0,3679.0,-696.0,-0.9045288325255226,0.12197466004696428,0.14688169759970288,0.3812814450595149
-284.87177205085754,2276.0,8156.0,12708.0,-368.0,3302.0,-1020.0,-0.8698537463814138,0.026566174522261475,-0.11015703519250818,0.48011886640192386
-284.87956070899963,2128.0,8396.0,12884.0,-496.0,3017.0,-1369.0,-0.7509714975951451,-0.047261089913431385,-0.3422399824329798,0.5627432750412689
-284.8873348236084,2280.0,7912.0,13156.0,-596.0,2673.0,-1645.0,-0.5711166106429174,-0.08710035947088986,-0.5329688878943284,0.6182099230556488
-284.8951151371002,2404.0,7888.0,13112.0,-612.0,2377.0,-1848.0,-0.3530828880486509,-0.09553831190902848,-0.6745788799049698,0.6412084215845527
-284.9028949737549,2508.0,7436.0,13476.0,-572.0,2171.0,-2058.0,-0.11101865584596775,-0.07561628560262705,-0.7640559094997456,0.6310115708640636
-284.9106652736664,2916.0,7168.0,13704.0,-530.0,2116.0,-2297.0,0.147596865646047,-0.032599310313706886,-0.7988858254259327,0.5821802883575324
-284.91842770576477,3092.0,7236.0,14084.0,-461.0,2004.0,-2365.0,0.3918698919280832,0.023696694821036247,-0.7747013038221383,0.49569581833127274
-284.9262192249298,3164.0,7280.0,14124.0,-362.0,2000.0,-2437.0,0.6104052649992155,0.08635588674769565,-0.6908139616896003,0.3777884905869634
-284.934002161026,3320.0,7244.0,14192.0,-244.0,2036.0,-2428.0,0.7855063029488912,0.14710804008613698,-0.5511326419788596,0.23998309006049282
-284.94178318977356,3460.0,7424.0,14244.0,-168.0,2128.0,-2373.0,0.9053346750158219,0.19768234265670562,-0.3642144154331041,0.09294448454037024
-284.9495759010315,3352.0,7636.0,14092.0,-162.0,2179.0,-2311.0,0.9598766399341855,0.2319364122267719,-0.14763326324346787,-0.055197430883292764
-284.95738101005554,3252.0,7816.0,14064.0,-107.0,2207.0,-2204.0,0.9453675221869731,0.25285328423065034,0.0797629915159451,-0.18969272477421004
-284.9651563167572,2876.0,7988.0,13892.0,-172.0,2170.0,-2116.0,0.8691540845443473,0.25119845216686953,0.297777144825625,-0.3046297539117694
-284.97292971611023,3056.0,8208.0,13876.0,-200.0,2233.0,-2030.0,0.7364455091242437,0.23462191213468472,0.499670414036252,-0.39106271590863556
-284.98069190979004,2864.0,8172.0,13804.0,-200.0,2174.0,-1903.0,0.5631788389164163,0.20650157595944413,0.6641945556323018,-0.4461303473105505
-284.9884603023529,2828.0,8240.0,13992.0,-322.0,2097.0,-1868.0,0.36384217163521454,0.15927250945030597,0.7897394850571756,-0.4675068850988191
-284.99624705314636,2756.0,8196.0,14020.0,-338.0,2012.0,-1806.0,0.1519510761962421,0.10327231369599693,0.868290544698087,-0.4607789379459294
-285.0040304660797,2860.0,8064.0,13956.0,-385.0,1912.0,-1779.0,-0.05948556138392099,0.03920215301132235,0.9015311394458431,-0.4268093998444701
-285.01181840896606,3028.0,8008.0,14144.0,-366.0,1832.0,-1680.0,-0.25887379664087584,-0.022333867965270614,0.8902245238945276,-0.37414683322354875
-285.01962327957153,2748.0,7784.0,14068.0,-388.0,1699.0,-1645.0,-0.4360046212217256,-0.08410752711435544,0.8430111409947045,-0.30357554301164297
-285.0274705886841,2972.0,7700.0,14220.0,-411.0,1610.0,-1645.0,-0.5890264929291992,-0.14391007511382706,0.7647186536371657,-0.21804371508397338
-285.03525280952454,2972.0,7552.0,14000.0,-398.0,1533.0,-1592.0,-0.7131771507490354,-0.19681742394868362,0.6607963065127599,-0.1264495732645488
-285.0430374145508,2928.0,7568.0,13984.0,-388.0,1469.0,-1569.0,-0.8074423287481101,-0.24259749787592158,0.5368614264183222,-0.03103463539749388
-285.05085015296936,2908.0,7532.0,13936.0,-392.0,1472.0,-1792.0,-0.8714817468676719,-0.2889286122358825,0.38795179396513174,0.0808283828067468
-285.058632850647,2820.0,7584.0,14040.0,-375.0,1414.0,-1501.0,-0.9033055607583571,-0.3159079353505567,0.23576010588433538,0.1692879581038928
-285.06638622283936,2788.0,7700.0,13980.0,-394.0,1490.0,-1431.0,-0.9085736609441197,-0.33061032890780734,0.07162459288421001,0.24507270503310372
-285.07420206069946,2760.0,7680.0,14316.0,-387.0,1502.0,-1424.0,-0.8839827294514105,-0.3351111153821795,-0.09511667346536128,0.31181387526508436
-285.08197498321533,2616.0,7760.0,13920.0,-342.0,1479.0,-1422.0,-0.8295771540851823,-0.33165427103714124,-0.2557022076470295,0.3693556158056726
-285.089763879776,2312.0,7836.0,14016.0,-411.0,1434.0,-1379.0,-0.753399984783633,-0.31243548606774113,-0.40615346894137316,0.4120823821040214
-285.0975651741028,2488.0,7844.0,14080.0,-417.0,1423.0,-1259.0,-0.65973166090924,-0.2874411182855207,-0.5411538694079034,0.4350680736822213
-285.10537981987,2332.0,7844.0,13864.0,-491.0,1034.0,-1273.0,-0.5686688505052376,-0.23568908971598795,-0.6440130316687872,0.45421757616221586
-285.1131498813629,2372.0,7828.0,13880.0,-594.0,1190.0,-1028.0,-0.46831966117907137,-0.1935349013072011,-0.7397773522320935,0.4426628582268957
-285.1209316253662,2348.0,7888.0,14300.0,-634.0,1089.0,-1524.0,-0.34479862425782437,-0.10967093435176392,-0.8223261530704081,0.43916499501297496
-285.12872767448425,2432.0,7756.0,14348.0,-619.0,1096.0,-1025.0,-0.23050529054093838,-0.058898504601859386,-0.8800348418883989,0.41101940860592356
-285.1365280151367,2412.0,7768.0,14104.0,-666.0,1059.0,-1286.0,-0.1051809959552625,0.015110710787645565,-0.9206136651132725,0.37573807914032153
-285.1443066596985,2388.0,7928.0,14444.0,-674.0,961.0,-1025.0,0.006494337618305928,0.07149470714038454,-0.9415124518900201,0.32924251451757064
-285.15212225914,2368.0,7552.0,14520.0,-699.0,827.0,-1284.0,0.11452309166462549,0.15124844534773763,-0.9430295305653441,0.2733197280424062
-285.1598970890045,2308.0,7440.0,14716.0,-644.0,748.0,-1295.0,0.21339155867627138,0.2312530760114791,-0.9245144504711766,0.21507926071780792
-285.1676781177521,2320.0,7332.0,14616.0,-570.0,704.0,-1405.0,0.30491745328397035,0.3174533787812757,-0.8843520899802922,0.15546729537320186
-285.175484418869,2404.0,7268.0,14548.0,-496.0,691.0,-1490.0,0.38796947680117827,0.40538203838246817,-0.8221971334521312,0.09558745613621862
-285.1832666397095,2496.0,7168.0,14388.0,-419.0,690.0,-1440.0,0.4596684768407196,0.48378438552828223,-0.7436391442404906,0.04072324730698644
-285.19103240966797,2452.0,7264.0,14432.0,-327.0,731.0,-1472.0,0.5207130308224885,0.5576658637485628,-0.6463684922381235,-0.008631117137558299
-285.1988480091095,2400.0,7404.0,14484.0,-241.0,757.0,-1352.0,0.5689328352898733,0.6177684281278865,-0.5408531355610168,-0.04642718913786297
-285.20662093162537,2540.0,7332.0,14480.0,-135.0,836.0,-1206.0,0.6059093829105687,0.6658457155859765,-0.43014291655190573,-0.06708482747203856
-285.21440172195435,2412.0,7556.0,14372.0,-121.0,817.0,-1160.0,0.6320744931712733,0.7023030472730204,-0.3163074654114293,-0.0848637272237393
-285.22221541404724,2060.0,7588.0,14364.0,-82.0,915.0,-1011.0,0.6503853169919335,0.7272252694731844,-0.2017626506150683,-0.08622168925356548
-285.23002409935,2240.0,7656.0,14092.0,-125.0,940.0,-854.0,0.6644589157016855,0.7375752986913572,-0.09264878957458295,-0.07676737520106082
-285.23780608177185,2200.0,7748.0,14344.0,-148.0,878.0,-750.0,0.6727202751924958,0.7370330480767748,0.007515952101489051,-0.06460052516504472
-285.2455720901489,2100.0,7744.0,14104.0,-169.0,830.0,-664.0,0.6764484905532033,0.7280375355060791,0.0994672111423761,-0.04985038044072954
