programtime,ax,ay,az,gx,gy,gz,q0,q1,q2,q3
-9915.458173036575,-180.0,-4592.0,-19036.0,14768.0,12413.0,-10309.0,0.46409845820967904,0.597954372691183,0.5027353630067,-0.4175168787599061
-9915.473786354065,-2380.0,-1540.0,-19036.0,15143.0,13193.0,-7895.0,-0.5593175972807157,0.6310642736521402,0.42084875992129644,-0.33437707631464597
-9915.489377737045,-1708.0,-1600.0,-19332.0,13486.0,13998.0,-10118.0,-0.9783752905674667,0.0045821977126901245,-0.045691295920849244,0.20167572919967391
-9915.504992961884,-728.0,-920.0,-19776.0,13860.0,15725.0,-8009.0,-0.35484863144343476,-0.6473788531274336,-0.5191185681415507,0.4306959269563579
-9915.520574092865,-3320.0,2800.0,-19736.0,13729.0,13846.0,1960.0,0.4918349456232695,-0.8488964520996677,-0.1621452321905188,0.10574556044692841
-9915.536116600037,-4572.0,1744.0,-18984.0,10220.0,12920.0,-3560.0,0.8234225840424159,-0.2694851623995349,0.12539673733946527,-0.4833514803949853
-9915.551747560501,-3608.0,248.0,-19252.0,8439.0,13378.0,-8331.0,0.2827988076245074,0.4370438823969255,0.28875059467055175,-0.803517624786776
-9915.56736111641,-3200.0,1996.0,-19900.0,10271.0,13409.0,-2294.0,-0.3389998225377736,0.8776212425300524,-0.00720359250201629,-0.33883356273313586
-9915.58293581009,-6112.0,4184.0,-17960.0,8201.0,11280.0,-3185.0,-0.6589111979626943,0.6068776927337063,-0.2122862080468366,0.39047415424669984
-9915.598536729813,-4144.0,4116.0,-17172.0,4298.0,10380.0,-8710.0,-0.24932341033163744,0.10515600047050162,-0.12647860701713257,0.9543496291153759
-9915.614169836044,-2196.0,2216.0,-18448.0,3965.0,10579.0,-4122.0,0.12029844288750548,-0.5633586369237965,0.007665383352463147,0.817371746967231
-9915.629791259766,-3412.0,3352.0,-18296.0,7028.0,10583.0,1678.0,0.2259289797879945,-0.8288607072599955,0.4682899113177188,0.2065201757951485
-9915.645385026932,-5608.0,4188.0,-16492.0,3533.0,8938.0,-5993.0,0.15924832451007234,-0.8287308083705033,0.1954379370773088,-0.499649108024094
-9915.660976171494,-3032.0,2756.0,-17300.0,1664.0,8416.0,-5973.0,-0.09198793989036583,-0.399462556124034,-0.14195321303406355,-0.9010089735839957
-9915.676575660706,-3512.0,2720.0,-16656.0,3241.0,8194.0,-3959.0,-0.14437611512466933,0.20463714923297802,-0.45935388955735645,-0.8522166266178078
-9915.692149162292,-3780.0,2928.0,-15996.0,1577.0,7179.0,-7458.0,-0.32433375413767124,0.7512408216903025,-0.3942825192064982,-0.4183134456376237
-9915.70778799057,-3460.0,2292.0,-16464.0,1617.0,7140.0,-5194.0,-0.29445148933032717,0.9012698299043198,-0.2479613277261866,0.19881195660135062
-9915.72337269783,-3080.0,2208.0,-16288.0,1857.0,5813.0,-2487.0,-0.23524793078655862,0.6992926565626854,-0.14699254572383388,0.6588181714553502
-9915.738956928253,-3420.0,2760.0,-15732.0,1416.0,4776.0,-271.0,-0.22441038807777175,0.3661449957692462,-0.13491326107859858,0.8929592553868627
-9915.754571437836,-3404.0,3064.0,-15044.0,792.0,3502.0,2207.0,-0.3570904982468283,0.048788435128851004,-0.19934082568950567,0.9112460150107302
-9915.770164966583,-3068.0,3040.0,-14456.0,-373.0,2149.0,3922.0,-0.5866158176873456,-0.16655494883790106,-0.2913721388262424,0.7370506143898342
-9915.78577709198,-3816.0,4260.0,-14824.0,285.0,1959.0,6820.0,-0.8255450619845507,-0.4086614364792667,-0.2332029914709315,0.31158874456025387
-9915.801386594772,-5940.0,5764.0,-13884.0,-1897.0,-582.0,5630.0,-0.9383402307115437,-0.32904486368548275,-0.03744963460139511,-0.09922002811242787
-9915.816996574402,-5996.0,6080.0,-15404.0,-3464.0,-1951.0,8307.0,-0.7578679585394762,-0.0699408032510836,0.3045453646317765,-0.572709841316786
-9915.832590341568,-7976.0,7964.0,-15864.0,-3499.0,-3181.0,10781.0,-0.10860318090131377,0.20152754631419073,0.5270748456337669,-0.818403387257677
-9915.848179578781,-5328.0,7832.0,-15416.0,-10385.0,-7164.0,2979.0,0.4082565257352326,-0.04935503219490341,0.850613501465124,-0.327639071413772
-9915.863823890686,2600.0,-3392.0,-19092.0,-11130.0,-6675.0,-684.0,0.5528837060442235,-0.45471999976928135,0.6138960302307392,0.3326875312775768
-9915.87944483757,7996.0,-7992.0,-21080.0,-7068.0,-3276.0,2437.0,0.30706986021614896,-0.4644747284590948,0.28296411756582784,0.7809626340228304
-9915.895076751709,5708.0,-6336.0,-18864.0,2424.0,392.0,20858.0,-0.49141139315046084,0.04245688890328155,0.6246690018922061,0.6053931725263941
-9915.910693883896,-3084.0,972.0,-15072.0,7501.0,-2383.0,24484.0,-0.6848213965984377,0.4807977832262631,0.4202877101728791,-0.35101479610311964
-9915.926408529282,-5448.0,4784.0,-14204.0,-5809.0,-4024.0,-2412.0,-0.3075663263310616,0.5164072641820517,0.7875121719278383,-0.136202318162073
-9915.94204545021,-472.0,1848.0,-22436.0,-7730.0,-3492.0,-7892.0,0.13166287018463005,0.09847712995172442,0.9343544583106115,0.3161469432499708
-9915.957663297653,-4428.0,-3272.0,-23760.0,-4447.0,-2896.0,-3917.0,0.44556357536337027,-0.16653416205267163,0.7039322735072328,0.5274645272373899
-9915.973445653915,-1768.0,-3832.0,-18860.0,-4172.0,-4393.0,-2964.0,0.681866605515038,-0.2660872650849847,0.25702089272868606,0.63102754325302
-9915.98958325386,904.0,-3672.0,-15920.0,-520.0,-1795.0,7973.0,0.220445568696075,-0.015970824755731288,0.24965966049666496,0.9427718376784362
-9916.005306243896,-240.0,2148.0,-14052.0,421.0,-1136.0,7634.0,-0.31692694602515326,0.2088295056038639,0.2266569287008805,0.8969805935159909
-9916.020933628082,-968.0,4940.0,-14452.0,-4882.0,-1297.0,-4238.0,0.11224439703605707,0.3134604506201067,-0.03647248738206062,0.9422385573172098
-9916.036537885666,208.0,-704.0,-17184.0,-3613.0,-1658.0,-672.0,0.24622828187162443,0.39320188018649205,-0.3126660829089117,0.8288569449686436
-9916.052154302597,944.0,1480.0,-17208.0,-1750.0,-457.0,1986.0,0.14616336912728503,0.3258674598548402,-0.5036971667612171,0.7865976305137447
-9916.067813158035,-1220.0,2052.0,-15912.0,-2684.0,-378.0,-2018.0,0.3302942951016488,0.38981455867937914,-0.6095985844187846,0.6060856823416307
-9916.083450555801,-752.0,1352.0,-15756.0,-3020.0,-37.0,-3965.0,0.5874819952129289,0.4729614620060467,-0.5829176847502263,0.3022901479757069
-9916.099127531052,-616.0,516.0,-16412.0,-3306.0,-80.0,-4126.0,0.752272463430718,0.4681760586811387,-0.4577218421110763,-0.07340322946653809
-9916.114798784256,280.0,252.0,-16828.0,-2525.0,497.0,-935.0,0.8453393136420676,0.333750528946248,-0.36076343354958046,-0.20943202776264944
-9916.130449771881,-628.0,720.0,-16460.0,-1645.0,874.0,-1275.0,0.8804285756576482,0.26366799753979236,-0.22497572626652548,-0.32359022363113843
-9916.146048784256,-1120.0,808.0,-16048.0,-2347.0,808.0,-3492.0,0.7976930514856904,0.16390587533768097,-0.015402292515216746,-0.5801581069213048
-9916.161641836166,-784.0,1024.0,-15880.0,-2085.0,805.0,-3442.0,0.6160030768811019,0.06070042797932863,0.18396558250346112,-0.7635524420564075
-9916.17726635933,-620.0,748.0,-16664.0,-1002.0,1397.0,-5465.0,0.20992398118523722,0.011030701258226564,0.31757713844327656,-0.9246377706384656
-9916.19289779663,-508.0,1068.0,-16168.0,-574.0,1723.0,-6443.0,-0.3084103480507609,-0.0336572044066913,0.34708075434068797,-0.885034010517694
-9916.20857667923,-272.0,2444.0,-16292.0,426.0,1413.0,-8635.0,-0.8078511088466312,-0.15697905745667654,0.1994688464936105,-0.5319270069603445
-9916.22418832779,1312.0,4344.0,-15392.0,-2482.0,1568.0,-9022.0,-0.9920212829512945,-0.051260433239508164,0.06215625918841835,0.09696773483725404
-9916.239837169647,-172.0,292.0,-15736.0,-2465.0,1482.0,-9958.0,-0.6873634673172524,0.07071030842771024,-0.09739349264620509,0.7162723111148692
-9916.25545167923,412.0,-792.0,-16592.0,-476.0,2028.0,-5630.0,-0.2792505702121495,0.018221449791225953,-0.1898216312039109,0.9410923685434822
-9916.271089792252,-284.0,204.0,-16564.0,-396.0,2078.0,-5013.0,0.15131923207095405,-0.05395664223766867,-0.2396833770530509,0.9574669965739487
-9916.286702871323,-584.0,-360.0,-16824.0,950.0,2283.0,-3030.0,0.43222440711648585,-0.15983193923010688,-0.13697839755837604,0.8768538827519016
-9916.302315711975,-360.0,1452.0,-16364.0,1047.0,2681.0,-2582.0,0.6409068987784778,-0.2794223066708015,0.0076598595013391705,0.7149145740473769
-9916.317920207977,32.0,2800.0,-16060.0,1081.0,2650.0,-3138.0,0.8074882568693883,-0.3625736487094359,0.13773967884608646,0.4444444230170295
-9916.333542108536,196.0,2660.0,-15892.0,887.0,2489.0,-4566.0,0.8925439984051098,-0.41034058518847355,0.18459482543825398,0.030175577535838112
-9916.349201440811,1276.0,2324.0,-16136.0,1142.0,2522.0,-4307.0,0.8253563387441454,-0.36307860804921277,0.20992355004459362,-0.37801182733954325
-9916.364841938019,984.0,1240.0,-16272.0,1834.0,2480.0,-2922.0,0.6952849976740672,-0.19031311946080512,0.22090890662132923,-0.6569314603106161
-9916.380465745926,584.0,1460.0,-16316.0,1279.0,2554.0,-4201.0,0.3897938895600922,-0.04341840560564042,0.213017088974092,-0.8948738936416027
-9916.39610004425,1168.0,40.0,-16688.0,1686.0,2607.0,-3197.0,0.09135540264152997,0.14723836056077977,0.14746583082703996,-0.9737704474495356
-9916.411761283875,1016.0,500.0,-16084.0,2910.0,3189.0,-1493.0,-0.10585768929410792,0.39240557349328203,-0.05106985210185601,-0.9122520954840362
-9916.427385091782,-200.0,1140.0,-16244.0,1950.0,3298.0,-5298.0,-0.503452266270722,0.5739524076592595,-0.04813036217734677,-0.6440480708500651
-9916.442992210388,1240.0,360.0,-16532.0,3190.0,3606.0,-1426.0,-0.6668840027705935,0.5886748951995847,-0.28800057824854747,-0.35465935986370284
-9916.458652496338,184.0,1200.0,-16220.0,3773.0,3994.0,-1686.0,-0.7260925394962832,0.47848271821755717,-0.49226792668952934,0.03893842328303027
-9916.47424864769,368.0,1988.0,-15988.0,3800.0,4530.0,-4393.0,-0.5678077924402535,0.3458759061449932,-0.4905338617864051,0.5633300088166989
-9916.489841222763,1092.0,-384.0,-16180.0,3865.0,4631.0,-2637.0,-0.30908994271981144,0.0344733945057177,-0.3907480673418751,0.8663665161173453
-9916.505494356155,1168.0,-632.0,-16452.0,4646.0,4946.0,-1738.0,-0.0195883526547575,-0.3459692186527152,-0.14332349436356764,0.927027492660557
-9916.521103143692,1112.0,-1668.0,-16888.0,4974.0,5414.0,-1421.0,0.2622399806490559,-0.6486859481202795,0.17306356147799948,0.6931707848351858
-9916.536726236343,1000.0,-1144.0,-18152.0,5778.0,6392.0,-835.0,0.4334060616724266,-0.7307772265701282,0.4959590851166694,0.17929979565605886
-9916.55232667923,424.0,-864.0,-17508.0,7520.0,7487.0,-898.0,0.44148304968285107,-0.441324351633348,0.6149965206326427,-0.48177257405115714
-9916.56796336174,604.0,780.0,-18836.0,7182.0,6730.0,-341.0,0.2596864968420575,0.07576966113131597,0.42426573342931045,-0.8641877511557515
-9916.583556890488,2240.0,-3000.0,-21244.0,6311.0,7053.0,-19.0,-0.034441063181886854,0.5782823937152255,0.08372994236601149,-0.8107974981691018
-9916.599122285843,2364.0,-2896.0,-22296.0,8818.0,9153.0,2978.0,-0.2214038629903654,0.805719138876417,-0.47358110865266845,-0.2784204235118141
-9916.614796876907,604.0,728.0,-22472.0,9656.0,9877.0,1049.0,-0.2972911248475387,0.5199898022195552,-0.6200341754066369,0.5067407759420638
-9916.630424261093,1876.0,2212.0,-26140.0,9630.0,10606.0,6232.0,-0.2578069659799186,-0.31702196328415505,-0.4449779020680408,0.7968860080079296
-9916.646038293839,-1280.0,3680.0,-25740.0,9008.0,13219.0,-2145.0,0.37854837166486277,-0.7848906520213784,-0.10158397936763174,0.4799255044433177
-9916.661612033844,-2248.0,128.0,-29856.0,5856.0,10764.0,-4905.0,0.7082188668586812,-0.6548877324296964,0.10703639161393193,-0.24102137956779857
-9916.677216768265,2204.0,2016.0,-26460.0,6095.0,15001.0,1779.0,0.5487300002997789,0.030905366796800355,0.5798169324891104,-0.6014587017186452
-9916.69285607338,-5316.0,1936.0,-23460.0,3288.0,14108.0,-3565.0,-0.21999660332543744,0.4559343359172531,0.6655682568794665,-0.5484015602561613
-9916.70848274231,-4568.0,1280.0,-19668.0,719.0,12583.0,-5110.0,-0.7885852275755304,0.48175615806707506,0.38211527204587153,0.005679954525316864
-9916.724090337753,-1204.0,3520.0,-15504.0,3225.0,8999.0,-4201.0,-0.9033277352273278,0.0853254227878728,-0.04348022847034178,0.4181244368932584
-9916.739712715149,628.0,3624.0,-11832.0,2384.0,7790.0,-11568.0,-0.29539181056561703,-0.21599484699486013,-0.3047761093803761,0.8793187291724173
-9916.755316972733,196.0,6024.0,-11152.0,6002.0,8973.0,2701.0,-0.1082322635185638,-0.8115733366171731,-0.017662063295823528,0.5738663153957122
-9916.770910978317,-13668.0,7888.0,-7276.0,2365.0,437.0,-3920.0,0.23761332093490495,-0.7887586176747874,-0.16780426486387734,0.5415177572818255
-9916.786481380463,-5612.0,2900.0,-10076.0,-3408.0,-3886.0,-758.0,-0.016624680466854273,-0.604981739503872,-0.4199611212366996,0.6762790633428322
-9916.802059412003,-7768.0,4028.0,-8588.0,-2510.0,-8304.0,9407.0,-0.6729528854846867,-0.3043542819726233,-0.0396099801787348,0.673003665987789
-9916.817684412003,-9968.0,5048.0,-7480.0,-5714.0,-13093.0,6325.0,-0.7343102985033424,0.460174732565056,0.332188929230641,0.37239510780515306
-9916.833347797394,-6488.0,4192.0,-9496.0,-6088.0,-15881.0,11052.0,-0.19100845259333557,0.8296937604248924,0.34835189087954593,-0.39214154978852467
-9916.848939418793,-6536.0,4332.0,-11384.0,-6915.0,-18884.0,12454.0,0.5712006214549433,0.2953149112234273,-0.000891336871046579,-0.7658447354243341
-9916.864560127258,-3788.0,2612.0,-13184.0,-9209.0,-20591.0,12322.0,0.6639655688006091,-0.6273485049435452,-0.29702607690686067,-0.27813501474949504
-9916.880162477493,-2128.0,2912.0,-15216.0,-11995.0,-27114.0,22082.0,-0.04731490163108787,-0.7558305824618077,-0.10897675692464412,0.6438986699390457
-9916.895794153214,-2484.0,7540.0,-17608.0,-22317.0,-32768.0,31743.0,-0.7955903384385898,0.19269581299777339,0.19062761363925204,0.5418168047915285
-9916.911484241486,-2684.0,8884.0,-18512.0,-32768.0,-32768.0,32767.0,-0.24711813468496327,0.9029028034107146,0.07235481125722637,-0.3441859038235413
-9916.927178144455,1672.0,-800.0,-20512.0,-32768.0,-32437.0,14431.0,0.6861684599106763,0.16766994018671844,0.1428653426787422,-0.6932886337182217
-9916.942825555801,1820.0,8264.0,-22080.0,-32768.0,-26638.0,18146.0,0.627925269207446,-0.7691987568761828,0.06404830864767459,0.09970427709112442
-9916.958468437195,2484.0,-4756.0,-29736.0,-32768.0,-20470.0,8331.0,-0.42599853060467646,-0.651654788905186,-0.21817084254771849,0.5884494638298285
-9916.97408080101,2488.0,-13808.0,-30640.0,-21855.0,-14979.0,-4389.0,-0.6783752110220054,0.3977664679099902,-0.4055685720144399,0.4659431762258445
-9916.98968076706,1388.0,3096.0,-25140.0,-22918.0,-12511.0,-8236.0,0.003638677731575841,0.9863339673457908,-0.12009491854518785,-0.11273542222346396
-9917.0053024292,1232.0,-3376.0,-27088.0,-20742.0,-14760.0,944.0,0.6742663629890161,0.3383324850868344,-0.0008047635000474437,-0.6564261981611037
-9917.02089381218,6400.0,-4004.0,-23752.0,-14286.0,-11614.0,8494.0,0.7783117047486257,-0.5747269114484951,-0.05740753936125162,-0.24621990563853285
-9917.036467075348,-1548.0,-2192.0,-20892.0,-11593.0,-13395.0,5903.0,0.13411439688107124,-0.8784957641114851,-0.2207190168747502,0.40192242606907136
-9917.05207824707,2640.0,-1348.0,-20064.0,-11339.0,-10374.0,4979.0,-0.642045901308789,-0.43009204203800266,-0.20724045816714334,0.5998743939249601
-9917.067671775818,1392.0,-996.0,-18536.0,-8593.0,-9314.0,4064.0,-0.8781569986163412,0.3035941973926054,0.011216012156852374,0.3695200267400622
-9917.083305597305,1972.0,20.0,-17804.0,-6511.0,-7134.0,2103.0,-0.5802341132325848,0.7835652938651945,0.2213028980023675,0.01946359234317497
-9917.09889125824,2184.0,-272.0,-16888.0,-3515.0,-4745.0,661.0,-0.22112067502955474,0.8721659909029295,0.36435704001008773,-0.2401584451604243
-9917.11450457573,2488.0,496.0,-16024.0,-1618.0,-1727.0,659.0,-0.028431968045964078,0.8684950068787037,0.3730145831786327,-0.32522018227020405
-9917.130135536194,3716.0,80.0,-16896.0,3372.0,842.0,7638.0,-0.07636391920767213,0.9139121765560976,-0.24498822536682666,-0.31450573097696227
-9917.145724058151,1396.0,-2904.0,-16720.0,13849.0,2717.0,3480.0,-0.6359587213336568,0.5087923233310742,-0.5699967267832924,0.1085845658248011
-9917.161357402802,-2760.0,8.0,-17060.0,17414.0,7487.0,-11617.0,-0.42447644505430915,0.022629378080610024,-0.13969515261492335,0.8943114240451332
-9917.176946640015,-1488.0,3740.0,-15348.0,15594.0,11158.0,-21484.0,0.5019038848359509,-0.43043891002491425,0.26112866836532755,0.7032969882495553
-9917.192553043365,-500.0,4888.0,-13404.0,10697.0,10901.0,-20384.0,0.7820702629216068,-0.4495082294403612,0.2583304352817433,-0.3457945079469389
-9917.208134174347,1104.0,152.0,-14112.0,4433.0,11516.0,-27919.0,-0.05142121528604108,-0.150812150599708,-0.0648631631876392,-0.9850910231604445
-9917.223770141602,10092.0,-9796.0,-18416.0,3551.0,14181.0,-32768.0,-0.8340210065961765,0.37650790270654017,-0.26312932042215176,-0.3056365823817555
-9917.239347696304,596.0,4156.0,-23144.0,32767.0,27730.0,32767.0,-0.08297471448200845,-0.4194908496999546,-0.87846763295877,-0.21316013139997692
-9917.254931688309,-12220.0,16416.0,-8996.0,30178.0,18505.0,-8563.0,0.6846104116236932,0.1088991593561093,-0.5664025018121653,0.44568796632721647
-9917.270506858826,-18104.0,20420.0,-11804.0,10961.0,8585.0,-3762.0,0.7160494565381289,0.3831570595883226,0.2542961146305517,0.5251640977474433
-9917.28609085083,-9052.0,16360.0,-23244.0,-8234.0,4622.0,-27294.0,0.7890930742505216,-0.3498645153525331,0.39779065081535575,-0.31094941580728797
-9917.301696538925,-6896.0,-15724.0,-32768.0,-4735.0,11502.0,-27714.0,-0.17888467243042624,-0.46801978835732216,0.1667286822801721,-0.8492109856687817
-9917.317391872406,-1672.0,-9116.0,-18700.0,25017.0,14463.0,32767.0,0.776572422132245,0.17502352409214308,-0.14575810804240286,-0.587415196550042
-9917.332974672318,1256.0,15240.0,-468.0,15126.0,11232.0,18572.0,0.6519879455174898,0.6120046264514769,-0.17640051077011834,0.41139386954828655
-9917.34857749939,-4888.0,9928.0,-6748.0,-1797.0,12175.0,-19860.0,0.725802449712772,0.16668477514716756,0.6660567096418241,-0.042372742018711856
-9917.364167690277,-3464.0,9164.0,-8972.0,-8928.0,-8444.0,12905.0,0.7539948034888684,0.1732264718720169,-0.01261441643927531,0.6335024090344509
-9917.379788160324,4708.0,756.0,-15684.0,-18128.0,-7650.0,19703.0,-0.026509368647355345,-0.23519976211804738,-0.6911472079970982,0.6828571315812323
-9917.395385980606,-1052.0,-6656.0,-24940.0,-9210.0,6470.0,-6408.0,0.36873432110525584,-0.14113567863905843,-0.9187374461987043,0.00610127908074793
-9917.411016702652,1680.0,-2984.0,-20308.0,12214.0,7613.0,17983.0,0.49874430352461385,-0.5318514154080487,-0.19862622467585325,0.6549319159280762
-9917.426656246185,-3584.0,7944.0,-13708.0,9470.0,9933.0,6147.0,0.4599784894819819,-0.48132035133121753,0.6426781029987143,0.3790980935513152
-9917.44225525856,-3324.0,7260.0,-13336.0,2106.0,7092.0,-13711.0,0.3578943188187884,-0.8297571992721672,0.2496426759966598,-0.34798445530579536
-9917.45785331726,2060.0,2080.0,-16628.0,94.0,10370.0,-13378.0,-0.15008499891334615,-0.45045306112685496,-0.2231376501173687,-0.8513378424120035
-9917.473429441452,-2036.0,-1536.0,-18464.0,3638.0,7228.0,-8220.0,-0.3361962707077089,0.14006776235734641,-0.6423328232298999,-0.6743601661663751
-9917.48901128769,908.0,2152.0,-16512.0,2485.0,8551.0,-8840.0,-0.2746845319078929,0.7187487903770079,-0.6282115215985838,-0.11532071970345142
-9917.504620552063,-1104.0,1032.0,-16728.0,3269.0,8895.0,-8703.0,-0.0527807944094969,0.8027599748004117,-0.2184876367129293,0.552316723631961
-9917.52024769783,-1072.0,3284.0,-15844.0,1999.0,6777.0,-15156.0,0.37704633152194206,0.42738836480851716,0.5135182668671672,0.6414625781024863
-9917.535886764526,1244.0,3168.0,-15744.0,-4642.0,7353.0,-23452.0,0.6386816982866622,-0.49471071652908466,0.5708409644509049,0.14658645411396418
-9917.551477193832,5484.0,4200.0,-16128.0,-4205.0,11953.0,-11891.0,0.007431514387842042,-0.8116431274459546,0.36881916696135175,-0.4529377753572643
-9917.56709742546,2948.0,2608.0,-16792.0,-3082.0,15476.0,-10347.0,-0.5803637149689232,-0.2777753679092595,-0.12051679592509444,-0.7559725558711077
-9917.582684993744,-8384.0,-2588.0,-16828.0,-860.0,6513.0,-18119.0,-0.883072353648157,0.1972569664807787,-0.4257537923973829,-0.002572091824126963
-9917.598269701004,5068.0,5240.0,-15752.0,-5848.0,10408.0,-23238.0,-0.16092985088679493,0.6080066610787318,-0.33205442945028196,0.7029717910840334
-9917.613895654678,1556.0,1844.0,-16916.0,-4108.0,7656.0,-17954.0,0.6876407313898264,0.35693505085745364,0.12999373821386725,0.6187481087067952
-9917.629531383514,3636.0,4108.0,-15804.0,-2910.0,6716.0,-17351.0,0.8519919909829313,-0.19589913051207067,0.47639375951015195,-0.09371320005921711
-9917.645144224167,3500.0,3948.0,-16316.0,-1830.0,4818.0,-16966.0,0.2612981603732921,-0.5416603380091606,0.3038159946439125,-0.7389338204547586
-9917.660727500916,1868.0,5748.0,-15096.0,-993.0,5050.0,-10741.0,-0.42453658355778384,-0.36305966109572535,-0.01712481453708329,-0.829254552253536
-9917.676313877106,3608.0,4212.0,-16848.0,714.0,5112.0,-4571.0,-0.6212782076447615,-0.011196559322512406,-0.3453699132312845,-0.703283476842493
-9917.691866397858,2840.0,5792.0,-14536.0,2431.0,4782.0,-4234.0,-0.6308255179891937,0.2387003880344201,-0.6511819500946465,-0.34791286046482384
-9917.707445383072,2808.0,3348.0,-16440.0,475.0,4295.0,-5800.0,-0.484115493295477,0.5687356418151893,-0.6607909920893041,0.07434530014718543
-9917.723024845123,2248.0,2616.0,-16148.0,1778.0,4672.0,-3827.0,-0.24348692337036196,0.5995436384630561,-0.5756260830301589,0.4999161492305206
-9917.73866057396,1888.0,4916.0,-14304.0,1241.0,5338.0,-8684.0,0.2523054049786461,0.578405176423934,-0.13450143988029684,0.7640018306095124
-9917.754259824753,3176.0,2164.0,-16808.0,694.0,4033.0,-5580.0,0.5449771065720175,0.3343624359721637,0.24156204815922244,0.729965404394122
-9917.769837141037,4160.0,2960.0,-16020.0,2253.0,3102.0,-2277.0,0.5207563372130677,0.1828329840467365,0.5583614308840111,0.6193685895314319
-9917.785441160202,5684.0,5220.0,-14636.0,-1208.0,6387.0,-3673.0,0.35791429771718686,-0.3318443435828103,0.7055859781692181,0.5137364251566111
-9917.80103635788,1536.0,880.0,-17156.0,438.0,4239.0,-4126.0,0.26142378546184986,-0.6769570867740032,0.6556391704610176,0.2086240283822549
-9917.816717863083,3084.0,3268.0,-15912.0,-322.0,3592.0,-5722.0,0.12122492253029864,-0.9275683169314815,0.33907164021471997,-0.09975950272791755
-9917.83231139183,3136.0,1448.0,-16576.0,727.0,2915.0,-4897.0,0.0454678245781598,-0.9291905418822685,-0.02935320103612913,-0.3656172908843327
-9917.847936868668,3880.0,3372.0,-16156.0,131.0,3801.0,-5517.0,-0.09526290594442673,-0.6849102749458258,-0.4021563996459221,-0.6000775985224627
-9917.863524198532,2828.0,3596.0,-15408.0,1078.0,3084.0,-3099.0,-0.07898660205706279,-0.39445362575297443,-0.6232023864207978,-0.6706610465691549
-9917.879117488861,3180.0,3024.0,-15776.0,892.0,2197.0,-4519.0,-0.17651082876762172,-0.024132090472353672,-0.7730842024963869,-0.6087712093945695
-9917.894712209702,4204.0,2692.0,-16352.0,1308.0,2025.0,-1563.0,-0.11642992476576781,0.1636067095495936,-0.85088488677715,-0.48546042749500085
-9917.91033411026,3636.0,3704.0,-15716.0,379.0,1928.0,-3247.0,-0.11018849192899341,0.45803312527170975,-0.7977139724916289,-0.37645261387307316
-9917.926058769226,4276.0,3104.0,-16552.0,-50.0,2654.0,-1110.0,0.03907948044204282,0.6042096396960225,-0.7539062605696157,-0.25500756024228266
-9917.941678285599,4272.0,3624.0,-15324.0,-192.0,2808.0,395.0,0.23574402110782225,0.6211912174934834,-0.7385396435237271,-0.11447891842922374
-9917.957355737686,3648.0,2936.0,-16072.0,3.0,2459.0,1900.0,0.39844476484793484,0.5051442974970131,-0.7634794914124584,0.056303412543971955
-9917.972960233688,3792.0,3620.0,-15608.0,176.0,2136.0,2106.0,0.5053167052611524,0.3487887908771811,-0.755770309560619,0.2276239133507147
-9917.988558530807,4720.0,4048.0,-15808.0,-260.0,2971.0,1838.0,0.6431343751332242,0.15036319020575165,-0.656091285626507,0.3651209545864265
-9918.00415635109,4212.0,2892.0,-16032.0,847.0,2774.0,4028.0,0.6078336241204089,-0.11103128789252802,-0.483163878058131,0.6202926772398685
-9918.019817352295,3608.0,3016.0,-15828.0,1915.0,1570.0,5418.0,0.3542562098704068,-0.28648423874593576,-0.2165187368515006,0.8634517677963527
-9918.035455465317,4572.0,3884.0,-15412.0,1706.0,1684.0,3301.0,0.16953543507033994,-0.3986761937275667,0.04376055243062709,0.9002222186001502
-9918.0510866642,4356.0,3084.0,-15836.0,2811.0,1065.0,4381.0,-0.07347216472183138,-0.38489161785109527,0.3927357946012664,0.8319969225652017
-9918.066692352295,4244.0,2560.0,-15884.0,4526.0,954.0,6618.0,-0.35530735851263945,-0.20963148395940745,0.7664991818640382,0.49222995248309265
-9918.082270860672,3628.0,2944.0,-16356.0,4885.0,34.0,5718.0,-0.4294373700692818,0.0166192435400374,0.9028818955084721,-0.01056544817619979
-9918.097844839096,4344.0,2380.0,-15724.0,4158.0,-639.0,4054.0,-0.33953787762210963,0.1599951220714381,0.8172033612340591,-0.43737198922767645
-9918.113448143005,5216.0,3104.0,-16128.0,3699.0,567.0,4674.0,-0.22438688844696536,0.3592865569743346,0.5266359420563638,-0.737033431266875
-9918.129032373428,5384.0,3540.0,-14712.0,2296.0,879.0,3182.0,-0.12465349120265104,0.48804265994993057,0.24739492424983256,-0.8276905343517025
-9918.14460515976,5656.0,3760.0,-15888.0,-689.0,2296.0,-1317.0,-0.23343154363627555,0.6158391356152474,0.3194077770483241,-0.6813446598024371
-9918.160182237625,4600.0,1412.0,-16180.0,253.0,2200.0,31.0,-0.30089384144771375,0.7290353392606594,0.2533127720269055,-0.5601812294391684
-9918.175800561905,4100.0,1432.0,-15216.0,-371.0,1553.0,-938.0,-0.3528011545977707,0.7839430557709527,0.2867084442319211,-0.4228036170955639
-9918.191441297531,4824.0,1548.0,-15724.0,-835.0,1129.0,-1982.0,-0.3882872213534261,0.7843992273656135,0.40933939057681074,-0.2576667405081011
-9918.207060337067,4792.0,1776.0,-14968.0,-181.0,508.0,-1038.0,-0.41504746052115365,0.7610110789054043,0.464937324034433,-0.18008616831360097
-9918.222673654556,5272.0,2244.0,-15440.0,-2231.0,922.0,-2662.0,-0.33004604829272144,0.7140362458977186,0.6139827539048857,0.06516919101863947
-9918.238276720047,4724.0,2720.0,-14740.0,-1479.0,27.0,-2875.0,-0.21431310036075985,0.5797937146107038,0.7545411362506679,0.22040149095963904
-9918.253876209259,4956.0,2152.0,-16000.0,-1034.0,-556.0,-2273.0,-0.07945976687093852,0.4491378929776033,0.839455230782502,0.29542547969386707
-9918.26948595047,4388.0,2868.0,-15688.0,-338.0,-992.0,-2104.0,0.05945715028084989,0.3164146075043255,0.9013874201115785,0.28956409014751244
-9918.285085201263,3864.0,2020.0,-15868.0,-610.0,-1907.0,-4064.0,0.3057863823837941,0.03890704827609062,0.9191848150744085,0.24511263875961084
-9918.300718545914,4736.0,2904.0,-15208.0,414.0,-1766.0,-2343.0,0.4801160566386007,-0.09698130305700865,0.8607166084930646,0.13874479766593487
-9918.316346406937,4432.0,3372.0,-15280.0,-936.0,-2054.0,-5407.0,0.61588309591602,-0.4607623774661662,0.6390508826622823,-0.00011421551147019353
-9918.331964492798,5028.0,3812.0,-15772.0,-1501.0,-1555.0,-5362.0,0.5731407650143472,-0.7505164697160149,0.30355081472406975,-0.12685265091488065
-9918.347553491592,4900.0,2680.0,-16132.0,-1681.0,-1156.0,-4456.0,0.408267767605973,-0.8877820693956261,-0.025291602883524986,-0.2109994360590495
-9918.363126516342,3588.0,2060.0,-15424.0,-1499.0,-2815.0,-6028.0,0.15005545489476788,-0.8419562584069994,-0.4855315468149933,-0.18125158325667165
-9918.378731966019,5212.0,3076.0,-15572.0,-1774.0,-2584.0,-4581.0,-0.14627992434923875,-0.6406907238431396,-0.7450820825927313,-0.1138870945850008
-9918.394331216812,4664.0,2560.0,-15588.0,-1531.0,-2964.0,-3990.0,-0.42252180690042124,-0.35627658262033857,-0.8333870973118876,0.0028749615723564752
-9918.40999674797,4324.0,2604.0,-16604.0,-1209.0,-2578.0,-1536.0,-0.6226583163345022,-0.19192841454057327,-0.7569597248747802,0.04972001316293013
-9918.425607204437,4540.0,3220.0,-16092.0,-2292.0,-2448.0,-2361.0,-0.764837442329657,0.09333902045946187,-0.6342460314432266,0.06358840828967464
-9918.44120144844,3572.0,1736.0,-16184.0,-736.0,-3393.0,-677.0,-0.9008230319116494,0.189962842943506,-0.38851485603301733,0.03857706728055099
-9918.456794500351,4480.0,3404.0,-15624.0,-1121.0,-4220.0,-173.0,-0.9574328970153247,0.27870653174963367,-0.054078120903709954,-0.05215816055476371
-9918.472388267517,4184.0,2888.0,-16076.0,-702.0,-4749.0,2976.0,-0.8513169874049982,0.27085642355639794,0.24545362330298318,-0.3763624630344429
-9918.488008975983,3944.0,2824.0,-16440.0,-1555.0,-4266.0,1430.0,-0.6243443732530588,0.25580088188739364,0.5355240679847476,-0.5079113948534177
-9918.503613710403,2896.0,2324.0,-15912.0,-409.0,-6297.0,2676.0,-0.17351253384715618,0.10648563875602128,0.7184947396700907,-0.6650710626715541
-9918.519225597382,4264.0,4264.0,-16260.0,-1784.0,-5628.0,4114.0,0.36816989568487685,0.05485411499738064,0.736107315834552,-0.5653211242772483
-9918.534828424454,3312.0,3948.0,-16528.0,401.0,-5022.0,4111.0,0.7754788534736295,0.07313088631629062,0.46574586982204647,-0.41995857655907465
-9918.550451040268,3036.0,4756.0,-15576.0,-1379.0,-6361.0,5833.0,0.9991359605324208,-0.012817491894540347,0.03878930133499589,-0.00764423798905088
-9918.566041707993,3032.0,3004.0,-16148.0,-420.0,-6601.0,3312.0,0.8596034689466199,-0.03558784239128788,-0.4477503203602444,0.24358783275477616
-9918.581632614136,3972.0,4472.0,-16080.0,-92.0,-6173.0,7280.0,0.35592787591933545,-0.15030917379019262,-0.6841295600125334,0.6186188200621746
-9918.59722995758,2004.0,3720.0,-16360.0,-213.0,-7348.0,4630.0,-0.26743644997609217,-0.029214880244165794,-0.6879639924709072,0.674039895748014
-9918.612849235535,2240.0,3472.0,-16380.0,249.0,-8950.0,6440.0,-0.8523143488048285,0.07551030521987917,-0.32295596492471684,0.4044229090278476
-9918.628435611725,2612.0,4092.0,-16140.0,850.0,-8488.0,8894.0,-0.9608500504335977,0.04166533717695284,0.19036759507355586,-0.1969552208132455
-9918.644039154053,2028.0,3112.0,-15600.0,1776.0,-9154.0,10822.0,-0.39366934403185194,-0.053119378609202114,0.5558302167293661,-0.7302434863497856
-9918.659634828568,1916.0,3496.0,-15952.0,2045.0,-9019.0,10622.0,0.46087306481942947,-0.11548428012940525,0.49532143959800423,-0.727266162172763
-9918.675266981125,1680.0,2984.0,-16064.0,1095.0,-10164.0,9563.0,0.9616561243515224,-0.19208442944852336,0.07199099540019076,-0.18203946561648246
-9918.690840959549,1688.0,3088.0,-16320.0,1270.0,-10319.0,13091.0,0.7099172451645436,-0.09469058893248065,-0.33626221693842095,0.6115381581269183
-9918.706440448761,964.0,3320.0,-16384.0,1033.0,-10556.0,12473.0,-0.1473888334606746,0.09554926784133298,-0.47723910192383673,0.8610398996452002
-9918.72205710411,384.0,3020.0,-15728.0,398.0,-11198.0,11981.0,-0.8689138201491133,0.2479321009865025,-0.23104302447460368,0.3607458486191084
-9918.737661838531,616.0,2984.0,-15876.0,-287.0,-11406.0,11749.0,-0.8384242739784465,0.22478375985819657,0.21236282326016026,-0.44879731439114157
-9918.75326371193,-112.0,1924.0,-16300.0,-526.0,-12298.0,13906.0,-0.029114488924552526,0.02075830612107003,0.45169472920024384,-0.8914557256949807
-9918.76888179779,-1584.0,2188.0,-16520.0,-495.0,-12630.0,14216.0,0.8130126985932635,-0.20646074914817486,0.2563555217452802,-0.4802771673294274
-9918.78451514244,-824.0,3504.0,-15880.0,-2100.0,-11570.0,12604.0,0.8648503729793982,-0.3092130751162931,-0.1379450209694433,0.37066464320765935
-9918.800103187561,-1052.0,1352.0,-16708.0,-1423.0,-11977.0,16900.0,0.06546597842962067,-0.11254850892305254,-0.305369762643532,0.9432901710876049
-9918.815727233887,-1904.0,2600.0,-16596.0,-1463.0,-12102.0,18432.0,-0.8234366159079497,0.17674451416363224,-0.14461361468067738,0.5194231596146962
-9918.831325769424,-3084.0,584.0,-17856.0,-5087.0,-12804.0,18187.0,-0.776836493246606,0.400920720929179,0.11852138170795051,-0.47089310928063255
-9918.846908807755,-2296.0,2804.0,-18080.0,-2322.0,-13067.0,21594.0,0.13474565756079152,0.10092689260334933,0.1418282136421489,-0.9754702086342867
-9918.862483024597,-4188.0,3772.0,-17516.0,-4716.0,-13063.0,22015.0,0.891300885602334,-0.31981997013417224,0.07891264800990962,-0.31156173066013193
-9918.878067970276,-3192.0,6164.0,-17308.0,-5342.0,-12114.0,22274.0,0.578774066856155,-0.36863651714617135,-0.038939640813931094,0.7263686406601056
-9918.893649339676,-3788.0,5804.0,-18316.0,-5891.0,-11896.0,25829.0,-0.4729554019468659,-5.6528160753542576e-05,-0.06686130008455601,0.8785458161785579
-9918.909222126007,-4572.0,5484.0,-18028.0,-5950.0,-13368.0,32724.0,-0.931736128488221,0.32860254627474894,0.008794070052535734,-0.15430754285984885
-9918.924907684326,-3664.0,4048.0,-15520.0,-4885.0,-12803.0,32767.0,-0.10452226525117171,0.17771097584815382,0.05398020092122195,-0.977026121983627
-9918.94058585167,-1244.0,5208.0,-14724.0,-4879.0,-11607.0,27710.0,0.8415937892405867,-0.2243156995970223,0.051421394189598374,-0.48862889911011953
-9918.956192970276,-1940.0,2384.0,-14464.0,-8543.0,-9403.0,9059.0,0.6526789924538032,-0.7175367774445993,-0.05765283595231513,0.23627792180092327
-9918.971845388412,4552.0,1108.0,-17584.0,-9340.0,-6134.0,3128.0,-0.019498632622608283,-0.8002463064562235,-0.2837231170756493,0.5279458733297363
-9918.987550497055,8328.0,-4436.0,-17492.0,-11462.0,-6263.0,1820.0,-0.6945299437409663,-0.3524355684397972,-0.44219910365448833,0.4448339915888335
-9919.0031645298,13288.0,-16504.0,-28332.0,-20445.0,2947.0,-16860.0,-0.2190714067202331,0.5618529332354956,-0.7632855027969794,0.23178490328804965
-9919.018834114075,1904.0,-14084.0,-24540.0,12253.0,2040.0,13510.0,-0.5068621384313583,-0.3248961018340848,-0.6445677120786054,0.4712385385169156
-9919.034481048584,-6224.0,-764.0,-12216.0,5288.0,6227.0,-18819.0,0.3741604528120125,0.11875145496063846,-0.6028769601790498,0.6945800302207873
-9919.050094604492,4712.0,-2348.0,-14372.0,5145.0,8896.0,-15318.0,0.9062480869185264,0.2920964432452747,0.08332686230526938,0.29402501053197805
-9919.065682411194,1652.0,-2212.0,-18220.0,8244.0,8479.0,-12528.0,0.5293046431565612,0.35206091552015656,0.7115188137642259,-0.2993838408390862
-9919.081344604492,-488.0,-3304.0,-19876.0,9025.0,12747.0,-23066.0,-0.4345498589559289,-0.12560626798568067,0.674607054640776,-0.5833479299294623
-9919.096933841705,-836.0,-1680.0,-19424.0,12341.0,13932.0,-19343.0,-0.8261372582549625,-0.40172882888908057,-0.27239547442014844,-0.2862025228361966
-9919.112513065338,-3064.0,136.0,-17068.0,11096.0,12096.0,-17491.0,-0.2527220677522327,-0.20861756110377092,-0.8771191717270214,0.35110145009534566
-9919.1281042099,-4864.0,-712.0,-19956.0,7068.0,12004.0,-25595.0,0.5778878364133273,0.4489453437619136,-0.5092123806796397,0.45298617882071696
-9919.143732070923,-1620.0,-332.0,-17732.0,9196.0,13523.0,-20640.0,0.652130796771795,0.5169400773399773,0.5366072075505365,0.13982519496263132
-9919.159317970276,-1160.0,-288.0,-18340.0,14846.0,15661.0,-12065.0,-0.2539596313271167,0.2547607821106008,0.9054778218286972,-0.22519183762061198
-9919.174926757812,-3972.0,4000.0,-16544.0,17587.0,14002.0,-2628.0,-0.8144245177777935,-0.03049077286899645,0.1391338602327102,-0.5625164766911318
-9919.190521001816,-5920.0,4736.0,-15968.0,10713.0,12775.0,-15995.0,-0.76691200224621,-0.1595525066014301,-0.5942672117004463,0.18230595038474962
-9919.206171751022,-2604.0,4736.0,-16452.0,4223.0,14082.0,-23811.0,0.15200442959326607,0.21541656005292523,-0.6825804447718673,0.6815968716580424
-9919.221797704697,-2920.0,4524.0,-16656.0,3560.0,14952.0,-19792.0,0.895377553724062,0.2296832787031062,0.04135722133301686,0.3792548061856534
-9919.237403392792,-872.0,4536.0,-16768.0,4568.0,14141.0,-14450.0,0.5955693203456723,0.03229708634268373,0.7679022632961846,-0.23362405034876904
-9919.252992868423,-512.0,4232.0,-16800.0,5565.0,15035.0,-10647.0,-0.32993001770480684,-0.04367026219611258,0.7499927990206177,-0.5716204099174977
-9919.268577814102,-1760.0,5336.0,-16436.0,5020.0,13655.0,-9426.0,-0.9235448057402755,-0.06838593124422984,0.038946967208278824,-0.3753285093665193
-9919.28416275978,-928.0,5832.0,-15936.0,2536.0,12637.0,-10846.0,-0.7348985167800586,0.05846676378948851,-0.6340983746005414,0.23329178917271323
-9919.299771785736,-244.0,4620.0,-15968.0,2743.0,11172.0,-5196.0,-0.01659892786412499,-0.03859071309593318,-0.8525221525389348,0.521000203346304
-9919.315363407135,180.0,5452.0,-15556.0,3140.0,10557.0,-515.0,0.5785466356173206,-0.3493849651932403,-0.5238087816704107,0.5184961877948164
-9919.330948352814,-1716.0,6152.0,-14932.0,1977.0,9113.0,-367.0,0.8311755858804085,-0.5003692808301189,0.011204239360568406,0.24218214892568052
-9919.346529483795,-1876.0,6148.0,-14680.0,1110.0,7899.0,2211.0,0.668739677130774,-0.4740802659469892,0.5709072184867688,0.045826777656310456
-9919.362151145935,-1884.0,6144.0,-14152.0,33.0,6489.0,3089.0,0.28309612449012395,-0.2916066162658706,0.9129278241127686,-0.03721496485779966
-9919.377781629562,-2352.0,6764.0,-13656.0,-481.0,5391.0,6052.0,-0.11358335219814952,0.16011481009622666,0.980478368450249,0.011146241178889144
-9919.393385410309,-3944.0,5704.0,-13644.0,-980.0,3893.0,7099.0,-0.3582262970616321,0.6302180515305361,0.6858106889024399,0.06451997059613897
-9919.408982753754,-5144.0,5396.0,-13348.0,-1047.0,2728.0,9180.0,-0.39446004964904036,0.916311027908383,0.06869648497980019,-0.007494152105425433
-9919.424592018127,-6864.0,5412.0,-13600.0,-44.0,1130.0,11435.0,-0.275354793516173,0.6970330492588906,-0.6246719998192657,-0.2193389125766749
-9919.440183639526,-8020.0,4964.0,-13916.0,828.0,-1103.0,14151.0,-0.07196466137153465,-0.07242391548146825,-0.9254573667365846,-0.36483493025339586
-9919.455817461014,-9564.0,5336.0,-13392.0,1949.0,-4546.0,17694.0,0.07214999801049723,-0.8776590512152442,-0.44834734415700955,-0.15327630800093808
-9919.4714448452,-8404.0,7800.0,-13196.0,1354.0,-6298.0,19975.0,0.09411436534305845,-0.831347865371417,0.490649047469513,0.24344758202890657
-9919.487077713013,-11644.0,10464.0,-16728.0,2932.0,-6236.0,28188.0,-0.00927052698874921,0.19552089419167337,0.9353729418396226,0.29455576201821126
-9919.502647638321,-13984.0,7132.0,-15740.0,-3728.0,-13460.0,8807.0,0.5284831615033277,0.7202834819379255,0.3991398261596621,0.2063604924108795
-9919.51822757721,2552.0,4704.0,-22140.0,-17267.0,-12548.0,-14133.0,0.9418973186611597,-0.13980046365164162,0.16259319569640146,-0.2585512022306906
-9919.533812999725,9212.0,-2820.0,-25596.0,-18864.0,-7679.0,-7340.0,0.3063863376106398,-0.9205783164605706,-0.061983788049351396,-0.23413881653244453
-9919.549397945404,3600.0,-4084.0,-19968.0,630.0,-5213.0,27294.0,0.33780250834530207,-0.44140196843638135,0.7540765037729072,0.3498891168266575
-9919.564972400665,1496.0,3604.0,-16296.0,9233.0,-5472.0,32767.0,0.0166495965560807,0.6793512870758779,0.6739630489985134,0.28979031776009195
-9919.58054637909,-2252.0,7068.0,-16172.0,-1591.0,-4971.0,13408.0,0.04017256029197599,0.9913987532471769,-0.10485818340011495,0.06722677170263994
-9919.596148252487,-4904.0,3804.0,-17188.0,-9438.0,-6761.0,-2667.0,0.5618936427786451,0.7086720758625359,0.03246642533544742,-0.4254472403525098
-9919.611772298813,-916.0,204.0,-18488.0,-6347.0,-6254.0,-206.0,0.7612811215350342,0.13019337083500154,-0.02036058332939217,-0.6348906888838952
-9919.627379179,152.0,2556.0,-20160.0,-544.0,-4790.0,10210.0,0.9435633669397544,-0.1347483198853126,-0.30242090980622893,-0.008523858831101612
-9919.642981052399,-2668.0,4536.0,-19872.0,-1783.0,-3937.0,5101.0,0.7102582551597689,-0.3620189465245009,-0.4884985910268657,0.35474585254722596
-9919.658637046814,-5500.0,832.0,-18576.0,-5859.0,-4394.0,-5569.0,0.3976655945661158,-0.2743969132839253,-0.87195854646766,-0.0790993180794712
-9919.67422246933,-484.0,-168.0,-17248.0,-3827.0,-4040.0,1518.0,0.007851538863254978,-0.4917969393204485,-0.8480428206474144,-0.1972244867172819
-9919.68982720375,1252.0,1404.0,-16076.0,-1797.0,-2216.0,5637.0,-0.11930527268378305,-0.8305094216843686,-0.5050985385176125,-0.20222714652270524
-9919.705426692963,-532.0,4016.0,-15120.0,-2774.0,-1432.0,1110.0,-0.34956441970621227,-0.8414120618596365,-0.34666689251156796,-0.22282846377639323
-9919.721028327942,-952.0,4048.0,-15356.0,-4481.0,-1589.0,-5333.0,-0.704474323798828,-0.4874719639805457,-0.5114787163122142,-0.06690690697336861
-9919.73663520813,-400.0,2420.0,-16016.0,-5043.0,-1785.0,-6920.0,-0.8258647383313519,0.0960440520727234,-0.5301175289173587,0.16642830161031172
-9919.75219631195,388.0,1940.0,-16888.0,-4121.0,-953.0,-7599.0,-0.5774105765159642,0.6041639014100268,-0.3647238038175886,0.41056004833561954
-9919.767807006836,196.0,2920.0,-16664.0,-4561.0,-984.0,-13645.0,0.0751764606108801,0.8110438653709959,0.14978150833583248,0.5604657420170635
-9919.783419132233,736.0,3248.0,-15656.0,-6104.0,534.0,-12465.0,0.706321002750541,0.370467263456391,0.46904347172099653,0.37929259077461297
-9919.79900932312,-456.0,1464.0,-17028.0,-4786.0,-1156.0,-10271.0,0.8853067784567744,-0.21739726304411622,0.40545881775424275,-0.06762754723296494
-9919.814638853073,-120.0,3180.0,-16276.0,-4976.0,-342.0,-11758.0,0.4898076915644884,-0.6811502054018875,0.12394935161436418,-0.5298673241478586
-9919.830236434937,-696.0,2192.0,-16792.0,-4196.0,2000.0,-18215.0,-0.32461729522783694,-0.5024001199057115,-0.35353703161569866,-0.7191865532906262
-9919.845823764801,-124.0,4360.0,-15708.0,-2378.0,2017.0,-17146.0,-0.7926306244162307,0.12104629275589618,-0.556740723354088,-0.2170812179963001
-9919.86140871048,-1912.0,3316.0,-15624.0,-3017.0,1166.0,-10707.0,-0.6489129227628704,0.6240381294480359,-0.3345000861249521,0.2785643983870604
-9919.877008676529,-1652.0,3180.0,-16384.0,-3746.0,-810.0,-15436.0,-0.05441093448323911,0.7637928595228687,0.2693727769412366,0.5840361504166561
-9919.89260172844,32.0,3368.0,-16588.0,-2495.0,339.0,-10243.0,0.46060969562135046,0.3809271387983415,0.6058321966118041,0.525071969138548
-9919.90818619728,-772.0,3700.0,-15684.0,-1891.0,-9.0,-3790.0,0.6542194504669929,0.09858024628622278,0.6050272845440617,0.44296820498773104
-9919.924014806747,-2192.0,4600.0,-15452.0,-3500.0,2460.0,-18917.0,0.653956345533434,-0.6079031061610117,0.39331752854105906,-0.2193085347146867
-9919.939627885818,-492.0,4600.0,-15348.0,353.0,385.0,-3459.0,0.5672177648779841,-0.6688257900870094,0.21534404187687636,-0.4296079763568661
-9919.95527935028,-1268.0,4372.0,-15836.0,-1124.0,1937.0,-7571.0,0.1491701617832747,-0.6540906718865724,-0.07286774857465078,-0.7379728633237035
-9919.97086596489,-2868.0,2876.0,-16592.0,-1277.0,-371.0,-10185.0,-0.4334465061402881,-0.46914998002791164,-0.42957239131051234,-0.6383494209117413
-9919.986481666565,-300.0,4288.0,-16200.0,-2022.0,-1296.0,-5731.0,-0.7770746252843411,-0.2199607624039037,-0.44194783641537083,-0.39045409413869236
-9920.00202870369,136.0,4252.0,-15540.0,-670.0,557.0,-5268.0,-0.8591314687095324,0.04300402099119758,-0.5060134942993948,-0.06319902877819267
-9920.017628669739,-1328.0,5464.0,-14608.0,-109.0,-175.0,-470.0,-0.8680210474925573,0.07080967522384182,-0.4903126678193085,-0.03345054230547442
-9920.033264875412,-3468.0,2896.0,-15804.0,-299.0,-1267.0,-4464.0,-0.864818496151425,0.260149308883895,-0.33931891293888755,0.26319950821304894
-9920.048903942108,-1672.0,3800.0,-16020.0,372.0,-127.0,-4512.0,-0.7191593320461306,0.34290030177987624,-0.2037014377342399,0.5689771194303307
-9920.064543247223,-1604.0,4436.0,-16204.0,-4.0,-23.0,-635.0,-0.6867743867715135,0.3552603501943543,-0.18334063255346794,0.6070562063839646
-9920.080134630203,-1916.0,2104.0,-16896.0,506.0,-443.0,-383.0,-0.6876162452622296,0.35397419840748384,-0.11800845058220404,0.6228644890378967
-9920.095754861832,-1196.0,3624.0,-15416.0,761.0,-64.0,178.0,-0.7197013181610556,0.3095105019686467,-0.0781952202468667,0.6165377274254183
-9920.111350536346,-912.0,3768.0,-15504.0,291.0,-62.0,1403.0,-0.7971826812941316,0.2830779617967809,-0.09582777331179955,0.5245795250024363
-9920.126981019974,3828.0,-136.0,-15144.0,4341.0,5311.0,6709.0,-0.8949071732409439,-0.2437134224614386,-0.3314921792659953,0.17279425360675907
-9920.142633914948,344.0,3116.0,-15356.0,6101.0,8503.0,5275.0,-0.418428988131785,-0.6998551731161602,-0.5532941707330701,-0.17025122374410206
-9920.15821313858,-4920.0,3880.0,-14420.0,4534.0,3489.0,-1562.0,0.003471693236094231,-0.6555650948842462,-0.7491080221285864,-0.09518153653982081
-9920.173843622208,-2880.0,5908.0,-13924.0,1515.0,-966.0,-3465.0,-0.0019806523032432077,-0.41324374386921997,-0.908956272738758,0.05499253966010859
-9920.189422607422,528.0,3480.0,-15748.0,-111.0,880.0,-850.0,0.06746033476944743,-0.34803291648294726,-0.9349441639101526,0.014198684710704174
-9920.205002784729,632.0,1848.0,-16532.0,351.0,1872.0,2625.0,0.21879639514886592,-0.5412175775959943,-0.8119176984957082,0.001149800164077747
-9920.22057557106,-1632.0,1996.0,-16316.0,594.0,129.0,548.0,0.2549750630966588,-0.5673152021909702,-0.7815935860646787,0.04746203519055286
-9920.236180305481,-516.0,2904.0,-16180.0,-343.0,-715.0,-744.0,0.19114508583302553,-0.5189331673196581,-0.8320793786785827,0.04261257555389882
-9920.251772880554,436.0,2796.0,-16024.0,-151.0,-176.0,2212.0,0.16003388451162354,-0.6689563487579576,-0.7219884395878966,0.07496167264660225
-9920.267377376556,-636.0,3080.0,-15512.0,295.0,357.0,3553.0,0.1681989195220305,-0.8504801295082451,-0.4845564579344463,0.11660922715327277
-9920.282975196838,-1700.0,3004.0,-15860.0,67.0,302.0,1799.0,0.16525809230181698,-0.9171433716203108,-0.34162529106851,0.12177832041890069
-9920.298639059067,-1708.0,2200.0,-16044.0,-8.0,67.0,389.0,0.16208514762258552,-0.9290825103193304,-0.30943005470788315,0.12160236503609861
-9920.314239501953,-1244.0,2332.0,-15816.0,-364.0,279.0,-8.0,0.13978308879456683,-0.9362818794507297,-0.30974912850996555,0.08883922380669569
-9920.32985329628,-1104.0,2300.0,-15688.0,-269.0,1380.0,371.0,0.150716739710646,-0.9526959678460345,-0.2625822962527284,-0.026559271743503025
-9920.345447301865,-1384.0,2012.0,-15720.0,342.0,2091.0,1164.0,0.22451826556632748,-0.9492125343930693,-0.13611289155285805,-0.17337933478732195
-9920.361049890518,-1868.0,2456.0,-16688.0,476.0,2282.0,-1512.0,0.2603928436449467,-0.8625347539449324,-0.21757735384862034,-0.37535244811761326
-9920.376666784286,-1708.0,3088.0,-17396.0,1022.0,2197.0,-2966.0,0.26717025510780923,-0.6745162740019671,-0.40257984941226443,-0.558191110408729
-9920.3922560215,-672.0,3444.0,-16876.0,4.0,1479.0,-3940.0,0.11948180485014212,-0.4356617784879672,-0.5635572630513386,-0.6916112523206503
-9920.407866716385,324.0,3852.0,-15784.0,704.0,878.0,-1364.0,0.10577503381543142,-0.30475627468657535,-0.6413555051449455,-0.6961310015225414
-9920.439064741135,440.0,2840.0,-16472.0,618.0,959.0,1591.0,0.2685865089872349,-0.32521137710149717,-0.6189831719177287,-0.6625395688383187
-9920.454683065414,4.0,3132.0,-16384.0,568.0,949.0,1915.0,0.43848413155981997,-0.35402240630878695,-0.5650401915132899,-0.6026021773742534
-9920.470287561417,-544.0,2580.0,-16160.0,915.0,594.0,1320.0,0.5590979372634696,-0.34908463382600646,-0.5438411952623503,-0.5194094428386093
-9920.485902786255,-320.0,2876.0,-15876.0,829.0,254.0,1077.0,0.6404041256091719,-0.3458275216683977,-0.5325897475206016,-0.43201162252350067
-9920.501511335373,236.0,2304.0,-16124.0,607.0,820.0,2374.0,0.766913716974057,-0.3818586329298236,-0.4275133406275925,-0.28854753292904545
-9920.517147541046,-700.0,2804.0,-15624.0,743.0,673.0,1434.0,0.8429644200691951,-0.3646131591812276,-0.3495784665718865,-0.18510301553064606
-9920.532738685608,20.0,2692.0,-15988.0,977.0,844.0,2104.0,0.9127218949140801,-0.3357738010968732,-0.23125538432688197,-0.026751528203715437
-9920.54834651947,-428.0,2552.0,-16536.0,212.0,1126.0,847.0,0.9363180757703852,-0.3310370682178066,-0.11653919165993015,0.011896943248282112
-9920.563956737518,-532.0,2572.0,-16344.0,234.0,324.0,-1378.0,0.9403554507586549,-0.2962084208817055,-0.1287382537760309,-0.1068581285721944
-9920.57956457138,584.0,2564.0,-16340.0,-746.0,126.0,-1251.0,0.903375582163708,-0.3396911264391065,-0.1427988039918286,-0.21938777939396698
-9920.595158815384,496.0,2232.0,-15936.0,-1248.0,9.0,-177.0,0.857784951684911,-0.43333307677562044,-0.12286304528711331,-0.24765317146740914
-9920.610790252686,184.0,2332.0,-16236.0,-778.0,-804.0,-284.0,0.8093373470579553,-0.5036101107861957,-0.1761894166297725,-0.24557525208938863
-9920.626412391663,544.0,2888.0,-16640.0,-946.0,-1073.0,901.0,0.7621214049172265,-0.6009939187010342,-0.19016728441342476,-0.14769454218145944
-9920.642022371292,-48.0,2988.0,-16680.0,-603.0,-1239.0,882.0,0.7138357211112298,-0.6651754677967348,-0.21643740339615988,-0.03368992012655385
-9920.65762090683,-628.0,2780.0,-16512.0,-568.0,-1614.0,529.0,0.6438677833589341,-0.7069127622778291,-0.28126054198020584,0.08124734830247113
-9920.673215150833,-596.0,2628.0,-16036.0,-29.0,-1067.0,863.0,0.6051921122226285,-0.7172217722096866,-0.2862112638446499,0.19343874798074492
-9920.688803434372,-940.0,3136.0,-15500.0,349.0,-422.0,219.0,0.6117546038578583,-0.6964121122423447,-0.2885876573851318,0.23975745783151958
-9920.704379320145,-1040.0,2856.0,-15972.0,-102.0,-455.0,-58.0,0.5945755378721352,-0.6904952024304104,-0.3183398483669932,0.26144989219031484
-9920.720004320145,-1248.0,2560.0,-16188.0,434.0,-553.0,-287.0,0.6103495894307478,-0.6461725405133985,-0.3537295881534812,0.2912212303952901
-9920.735629320145,-408.0,3216.0,-15964.0,0.0,-292.0,-481.0,0.612606106510458,-0.6233434970671727,-0.3960331996544732,0.2816280307455302
-9920.7512216568,-72.0,2696.0,-16304.0,157.0,-334.0,-459.0,0.6198516628950267,-0.5902818614392571,-0.43454908816198934,0.2802112239715953
-9920.766812324524,-76.0,2396.0,-16160.0,147.0,-622.0,197.0,0.5977861640637885,-0.5737891469159658,-0.4538170561614533,0.32782281261727636
-9920.782429218292,-48.0,2684.0,-16084.0,-193.0,-715.0,767.0,0.5353378513559026,-0.5913901554241303,-0.4563986078342269,0.39417176426026274
-9920.798026561737,-260.0,2436.0,-15944.0,-507.0,-574.0,1507.0,0.42961360016040634,-0.6485001151718544,-0.4184725510528204,0.46878617641164594
-9920.813631534576,-616.0,2540.0,-16264.0,-42.0,-464.0,1825.0,0.3310016733809907,-0.6886807202810429,-0.32997158374845326,0.5543243740362724
-9920.829248189926,-864.0,2680.0,-16220.0,-447.0,-332.0,887.0,0.2504645417860419,-0.7083173834086236,-0.30666028896011366,0.5843915338571981
-9920.844882249832,-888.0,2744.0,-16148.0,-384.0,-383.0,-110.0,0.22169464175996162,-0.6936275304769118,-0.34106978316955566,0.5944777016744154
-9920.86051607132,-580.0,2628.0,-15888.0,-189.0,-269.0,309.0,0.1859514745411782,-0.6921871247250567,-0.33717859231978736,0.6104175868715339
-9920.876105070114,-180.0,2800.0,-15948.0,-431.0,-451.0,1580.0,0.06169671376133539,-0.7140396883519133,-0.2691365566809978,0.6433555415376869
-9920.891730546951,84.0,2768.0,-16212.0,339.0,106.0,3083.0,-0.08479006800952023,-0.763278944346561,-0.055465234571034805,0.6380748429754306
-9920.907337903976,-448.0,3156.0,-15912.0,265.0,344.0,3917.0,-0.26817339753236713,-0.7598598655179905,0.205837446707367,0.5552719686459243
-9920.923006534576,-1516.0,3480.0,-16112.0,-51.0,166.0,802.0,-0.312509582358963,-0.7505650749369477,0.25208578157351313,0.5248262454824375
-9920.938669204712,-840.0,2804.0,-15956.0,-383.0,142.0,1010.0,-0.38512439783642244,-0.7213392224704743,0.29557046970132606,0.49395042439232906
-9920.95426440239,-600.0,3020.0,-16172.0,151.0,301.0,1404.0,-0.44027159123717136,-0.6978350971712814,0.37744018938697244,0.42038792387622614
-9920.969851493835,-816.0,2340.0,-16176.0,-35.0,796.0,1113.0,-0.5056633970984742,-0.6843411354279068,0.4105230617982307,0.32779956517341524
-9920.985434055328,-976.0,2640.0,-16196.0,390.0,356.0,844.0,-0.5170896604186916,-0.6791080893250154,0.4547449954016806,0.2542390120704033
-9921.00102353096,148.0,2936.0,-16332.0,288.0,636.0,1807.0,-0.5572009621735933,-0.6257846485245482,0.5320704435802376,0.12174442283800425
-9921.01664686203,-352.0,2344.0,-16344.0,850.0,439.0,2712.0,-0.5428738570128604,-0.5295876786048296,0.6478656767721654,-0.07137878468054926
-9921.032298088074,-488.0,2488.0,-16504.0,1133.0,191.0,2745.0,-0.4684128098612213,-0.41330792693678997,0.7343823941203391,-0.2654213561400199
-9921.047928094864,-452.0,3300.0,-16068.0,815.0,236.0,1684.0,-0.4094303652851173,-0.328932688813469,0.7565673051598372,-0.3895843618211837
-9921.063532114029,176.0,4048.0,-15880.0,904.0,368.0,-1033.0,-0.4393936017903282,-0.4138738532656634,0.677990915748507,-0.41948780012207193
-9921.079127550125,-1688.0,2736.0,-15972.0,122.0,185.0,-3659.0,-0.5521555244852718,-0.5985189900476627,0.5090067878656308,-0.2789469219034916
-9921.094733476639,-1060.0,1716.0,-16264.0,218.0,-152.0,-3993.0,-0.5957104208610554,-0.7460608562649863,0.28565334926324737,-0.08321332394147404
-9921.110330820084,736.0,2160.0,-16596.0,477.0,919.0,271.0,-0.5828024313455844,-0.7543320789478254,0.25103330504028243,-0.1682460116866956
-9921.126044273376,-928.0,2072.0,-16572.0,564.0,586.0,168.0,-0.554350714229329,-0.7689095147060055,0.22346141436304412,-0.22702079226114028
-9921.14163684845,-460.0,2572.0,-16080.0,167.0,664.0,-146.0,-0.5577220755225599,-0.7654545185804342,0.17793546348632047,-0.2671412309874913
-9921.157222032547,-24.0,2652.0,-15972.0,302.0,713.0,204.0,-0.5423278822145706,-0.7587204440414611,0.14948135450332115,-0.3284495100042613
-9921.172847509384,-656.0,2524.0,-16104.0,-27.0,617.0,-859.0,-0.5741509621146031,-0.7479976228387462,0.06392153423200143,-0.32674801666098546
-9921.18845653534,-352.0,2448.0,-16148.0,-283.0,448.0,-1524.0,-0.6321467368134573,-0.7226413090743549,-0.04944831939401378,-0.27519975520430195
-9921.204053640366,140.0,2324.0,-16188.0,-245.0,406.0,-910.0,-0.664830677715455,-0.6929082457026144,-0.12287916448712195,-0.2505574663439123
-9921.219652891159,68.0,2388.0,-16332.0,-352.0,271.0,-122.0,-0.6851167232554111,-0.6649517549382608,-0.13821736624808878,-0.26334425907495573
-9921.235301733017,-136.0,2536.0,-16176.0,-552.0,150.0,-23.0,-0.7147818379651397,-0.6276864912344984,-0.1357242331084711,-0.27690345859887366
-9921.250897884369,-200.0,2484.0,-16144.0,-362.0,88.0,-47.0,-0.7341240413190461,-0.6023501375440433,-0.13503101478686977,-0.2828477130960961
-9921.26648569107,-548.0,2616.0,-16128.0,-512.0,31.0,-389.0,-0.7688866838284635,-0.563568450054986,-0.14467091193702936,-0.2650928078488689
-9921.282093763351,-812.0,2404.0,-16176.0,-72.0,115.0,-1665.0,-0.8008510953152909,-0.5297119714981549,-0.23025200217045005,-0.1581985015110313
-9921.297696113586,-268.0,2596.0,-15900.0,190.0,360.0,-1771.0,-0.7991083145387774,-0.49647672560320444,-0.3357996699331505,-0.04664058578214873
-9921.313361644745,-368.0,2916.0,-16116.0,86.0,370.0,-1427.0,-0.7836695875172073,-0.4556102415193338,-0.42042575780347,0.03903162305980411
-9921.328979969025,-600.0,2852.0,-16080.0,-20.0,9.0,-1198.0,-0.7756280740598831,-0.40830218286590114,-0.4663530036106863,0.1191859648632665
-9921.344591379166,-476.0,2440.0,-15968.0,-13.0,-179.0,-1209.0,-0.7662650105816798,-0.35454198525197517,-0.4948204794306541,0.20564680252283044
-9921.360189199448,-284.0,2816.0,-16384.0,195.0,-226.0,-1241.0,-0.7429490570649102,-0.3082187020897244,-0.5116310578756513,0.302095334133992
-9921.375825881958,-112.0,2884.0,-16204.0,-188.0,147.0,-1275.0,-0.7031752354204753,-0.24161152155411256,-0.5570545064976471,0.3699442359793276
-9921.391449451447,-304.0,2428.0,-16056.0,90.0,194.0,-427.0,-0.6773106434123477,-0.23257762894901218,-0.5747770188068996,0.39596630852164705
-9921.407068490982,-356.0,2716.0,-16064.0,7.0,345.0,-377.0,-0.6460330911988552,-0.2259135418895424,-0.6021948606769276,0.411054335144722
-9921.422686100006,-480.0,2380.0,-16380.0,142.0,247.0,-39.0,-0.6284925718737826,-0.24077553270149532,-0.6118195663652687,0.4155731562124824
-9921.4383020401,-272.0,2676.0,-16300.0,163.0,300.0,26.0,-0.6095573663185025,-0.26199224674614846,-0.6217469216039504,0.416209857268863
-9921.453919172287,-240.0,2392.0,-16228.0,232.0,313.0,593.0,-0.607475955399169,-0.31739237726080566,-0.6154354838102585,0.3891968752904299
-9921.469527721405,-128.0,2648.0,-16052.0,70.0,489.0,520.0,-0.5955907565007978,-0.36506130367558537,-0.6235389715749493,0.35100006589279154
-9921.500751495361,-128.0,2380.0,-16272.0,172.0,375.0,1107.0,-0.6002377441637672,-0.4435090341186686,-0.5994863257033998,0.2891894403863239
-9921.516356229782,-140.0,2632.0,-16292.0,189.0,577.0,1513.0,-0.5947152480388981,-0.5418106095977352,-0.5608752309579195,0.1953817094184178
-9921.532018184662,-96.0,2564.0,-16060.0,-131.0,1003.0,1266.0,-0.5675101662734003,-0.6081717501134923,-0.5499427981802176,0.07498167956202204
-9921.578885316849,180.0,3084.0,-15904.0,-9.0,845.0,305.0,-0.5275451780433367,-0.6261170158406221,-0.5739895838486763,0.014474986400059505
-9921.594481229782,-584.0,1836.0,-16348.0,381.0,424.0,309.0,-0.48481980956339704,-0.6587394504939393,-0.5753236113529565,-0.003851082659008797
-9921.610073804855,-72.0,2796.0,-16048.0,11.0,482.0,276.0,-0.45906791061926694,-0.6722357248799703,-0.5792538705836415,-0.04267009548420728
-9921.625650644302,-176.0,2244.0,-16420.0,257.0,454.0,872.0,-0.4158669443687914,-0.7221964608166116,-0.5451849899038916,-0.09088610096609165
-9921.641237020493,-72.0,2648.0,-16264.0,395.0,574.0,1136.0,-0.3519839008170787,-0.7808633617803993,-0.4942884830115144,-0.14845416584515905
-9921.656869411469,-464.0,2516.0,-16188.0,308.0,765.0,760.0,-0.28650561893916127,-0.8094227942481347,-0.46781577383946077,-0.20951771336766883
-9921.672512292862,-144.0,2484.0,-16128.0,261.0,747.0,215.0,-0.2328112250685726,-0.80909318033996,-0.47492394741904154,-0.25615308543399423
-9921.688105583191,-52.0,2192.0,-16292.0,338.0,541.0,174.0,-0.1821449491220123,-0.8098216520984518,-0.48044905741644045,-0.28316216648685205
-9921.703734636307,-64.0,2440.0,-16332.0,134.0,519.0,234.0,-0.14481493523346065,-0.8079770424269445,-0.4749257615382036,-0.31724951453342487
-9921.719311237335,-248.0,2376.0,-16108.0,293.0,469.0,218.0,-0.09847310766538296,-0.8067362870363814,-0.4730331007529207,-0.3401753898175939
-9921.734915494919,60.0,2488.0,-16264.0,494.0,422.0,457.0,-0.03259978569583927,-0.8154520087167425,-0.45812862310993097,-0.3522689883310957
-9921.750522851944,-100.0,2300.0,-16236.0,169.0,270.0,-155.0,-0.014569250119066407,-0.801145325700821,-0.4749726457662074,-0.3638061157162459
-9921.766158103943,-240.0,2356.0,-16320.0,126.0,282.0,-756.0,-0.018076841850753145,-0.7591830715841555,-0.5309206569224819,-0.37608183638903653
-9921.781775951385,-128.0,2276.0,-16360.0,164.0,319.0,-636.0,-0.013317419507465417,-0.7181397453740942,-0.577858939997752,-0.3875267705802633
-9921.797379732132,8.0,2332.0,-15900.0,109.0,314.0,-815.0,-0.0182010167193809,-0.6646789093687285,-0.6312224693177189,-0.3992854425836482
-9921.812965154648,36.0,2276.0,-16184.0,247.0,260.0,-721.0,-0.014668113786012746,-0.6148615878954471,-0.6804858687251307,-0.39833284654175083
-9921.828552007675,-16.0,2772.0,-16276.0,511.0,441.0,-908.0,0.007299377834123529,-0.5436925430614297,-0.7440212677009349,-0.3883007737712149
-9921.844150543213,56.0,2344.0,-16280.0,36.0,317.0,-1404.0,-0.01788982348315301,-0.4383873127716316,-0.8054321667779982,-0.3984664891002858
-9921.859773874283,212.0,2240.0,-16212.0,97.0,284.0,-1087.0,-0.03187012850745949,-0.35062452629240165,-0.8468601137272267,-0.39859087326362036
-9921.875351428986,176.0,2428.0,-16284.0,97.0,403.0,-746.0,-0.024992021870801358,-0.28101345111526,-0.8718889493165479,-0.4002705325086858
-9921.89096903801,172.0,2384.0,-16248.0,-44.0,459.0,-534.0,-0.009775735872672374,-0.22386899697600332,-0.8829061859975548,-0.41263031142701717
-9921.906639814377,20.0,2220.0,-16300.0,160.0,398.0,-335.0,0.011931874433920013,-0.1836845740152646,-0.8946733007564199,-0.40703475595449695
-9921.922330379486,-32.0,2364.0,-16328.0,-242.0,514.0,-916.0,0.015552972063742156,-0.09377295834552846,-0.8964085475057705,-0.43291621972583444
-9921.93807721138,-92.0,1792.0,-16432.0,166.0,290.0,-819.0,0.008611357917672141,-0.018482483993087065,-0.9064298443419931,-0.4218639349202648
-9921.953690290451,84.0,2444.0,-16296.0,-157.0,462.0,-934.0,0.010467278192289469,0.07197792595620006,-0.898162314106548,-0.43360589454141385
-9921.969339132309,84.0,2004.0,-16240.0,139.0,352.0,-809.0,0.0065499736107401015,0.14838857248678047,-0.895441323273351,-0.4196698297179629
-9921.985965490341,208.0,2592.0,-15904.0,163.0,552.0,-456.0,0.030820880159181423,0.2039228295243969,-0.8934880334181299,-0.39892942619413274
-9922.001735448837,60.0,2252.0,-16124.0,160.0,422.0,-801.0,0.03287451689367047,0.28061711501804004,-0.8809619303425669,-0.3795778947529191
-9922.017396450043,496.0,2124.0,-16260.0,87.0,364.0,-944.0,0.02735362044701646,0.3640926315542701,-0.8564461507550117,-0.36494975812192376
-9922.033041238785,196.0,1620.0,-16268.0,134.0,218.0,-412.0,0.02624288111333235,0.40182402663959427,-0.8464546224413568,-0.3483724084276399
-9922.0487241745,220.0,2240.0,-16556.0,161.0,371.0,65.0,0.0499549535840232,0.4084431697888417,-0.8523348857694437,-0.32280632299515255
-9922.064329385757,208.0,2596.0,-16412.0,22.0,821.0,446.0,0.12237815396877805,0.3972056389016108,-0.8625005605243471,-0.2886936974565682
-9922.079972743988,-84.0,2232.0,-16176.0,326.0,987.0,143.0,0.1880564381833972,0.4130999112953251,-0.86160996416339,-0.22718166519314525
-9922.09558224678,-156.0,2984.0,-16060.0,302.0,1034.0,-744.0,0.23838453074367436,0.4913489757388585,-0.8185659850848872,-0.17804136486923686
-9922.111183404922,108.0,2044.0,-16252.0,359.0,826.0,-1258.0,0.25982489083097443,0.5961581809296737,-0.7463292940544937,-0.14170050900196401
-9922.126812696457,668.0,2064.0,-16324.0,604.0,937.0,43.0,0.28831630895824556,0.6157864680306393,-0.7314029471299718,-0.05225381047000633
-9922.142466783524,652.0,2184.0,-16280.0,440.0,1320.0,903.0,0.3490945033731301,0.5693894588138779,-0.7410787769642715,0.06878167081022854
-9922.158044576645,548.0,2116.0,-16456.0,742.0,1660.0,1701.0,0.3997697413618352,0.46136647666518454,-0.7531132488282555,0.2452459225764932
-9922.173642396927,312.0,2336.0,-16176.0,591.0,1700.0,1194.0,0.4539610346985955,0.360897334342477,-0.7167643179337712,0.38719685636225215
-9922.189230203629,80.0,1804.0,-16280.0,619.0,1075.0,365.0,0.48612511701858724,0.324325739204505,-0.6607514512001503,0.4710654999360614
-9922.204862117767,156.0,2096.0,-16044.0,517.0,1196.0,-501.0,0.5568033312292723,0.3237220237082648,-0.5705685360914089,0.5095347361276931
-9922.22050523758,372.0,2368.0,-16460.0,216.0,1068.0,-992.0,0.6425781380432875,0.33353741748407595,-0.4773238380332143,0.49800409766599013
-9922.236106872559,292.0,1688.0,-16264.0,557.0,1277.0,-439.0,0.6929160827536082,0.3251179800120947,-0.365984411817327,0.5293590573901378
-9922.251758813858,772.0,2044.0,-16380.0,556.0,1378.0,-396.0,0.7327877464026479,0.3052219418901455,-0.24375160642523366,0.5571775653021713
-9922.267347574234,800.0,2036.0,-16380.0,794.0,1172.0,180.0,0.722165982729296,0.2931851846488268,-0.13411673041702998,0.6119897413464619
-9922.282946586609,676.0,1892.0,-16348.0,635.0,1149.0,506.0,0.6871269858927538,0.26423686681020137,-0.04053016992794697,0.6755684190382784
-9922.298562526703,472.0,2084.0,-16468.0,564.0,1054.0,-553.0,0.7057574813964039,0.2366358943020335,0.06821749128586907,0.6642711832253029
-9922.314185380936,664.0,1956.0,-16140.0,602.0,1072.0,-1212.0,0.7486925556730223,0.20237452640850367,0.19209165336052977,0.6013358502949496
-9922.329800128937,548.0,2036.0,-15628.0,469.0,930.0,-2106.0,0.8182276504686289,0.14611486511386249,0.3084350978003378,0.4626248465508972
-9922.34539604187,696.0,1700.0,-16172.0,334.0,565.0,-2738.0,0.8829246381583338,0.07150158729872717,0.3859494072127909,0.25763280346033807
-9922.36098241806,796.0,1580.0,-16388.0,184.0,519.0,-2865.0,0.8998690847406059,-0.021693347569190453,0.4343791209604444,0.03286043628708929
-9922.376567363739,952.0,1996.0,-16604.0,190.0,596.0,-2865.0,0.8580513710668426,-0.11339941869985884,0.46171597471946835,-0.1941823244728956
-9922.392141580582,524.0,1944.0,-16404.0,396.0,585.0,-2123.0,0.7874006015871061,-0.15645679884644487,0.4692243868593828,-0.3678994937362962
-9922.407763242722,988.0,2524.0,-16248.0,-37.0,1004.0,-2753.0,0.6367464352370682,-0.23208954873238333,0.48642519055971156,-0.5514335432044675
-9922.423383951187,724.0,1024.0,-16504.0,276.0,347.0,-2222.0,0.5106552878547164,-0.2889079104919232,0.4391665061048765,-0.680364737590686
-9922.438991308212,748.0,1944.0,-16340.0,63.0,199.0,-3262.0,0.2989001853515906,-0.3841434615410539,0.34837677640269427,-0.8010780872145417
-9922.454636573792,1128.0,1496.0,-16528.0,-8.0,-84.0,-2823.0,0.10074030818253957,-0.46243617609188387,0.2449394780618898,-0.8461730469800915
-9922.47024846077,1484.0,1780.0,-16612.0,75.0,-100.0,-2011.0,-0.041994380352398976,-0.5046653010107975,0.15507971122061592,-0.8482332751915769
-9922.48583817482,1372.0,2004.0,-16364.0,-106.0,-57.0,-401.0,-0.07554059470507832,-0.5138550029809017,0.14541856335592468,-0.8420808131614207
-9922.501452207565,948.0,1872.0,-16232.0,-496.0,-116.0,-492.0,-0.1322193243649132,-0.5246246348688115,0.16030183299480166,-0.8255848624410204
-9922.517054080963,648.0,1672.0,-16324.0,-231.0,-339.0,-559.0,-0.17799042814231672,-0.5534549152346914,0.15502821244345147,-0.7987323191400632
-9922.53274178505,532.0,2536.0,-16332.0,-150.0,-129.0,-1012.0,-0.25299372550149063,-0.5717612103558554,0.1181609231039498,-0.7714410472878056
-9922.548305511475,456.0,1496.0,-16448.0,16.0,-338.0,-893.0,-0.3077135803017351,-0.6022480101537532,0.07974265687145642,-0.7322914689103058
-9922.563941717148,820.0,1656.0,-16484.0,-46.0,-146.0,-435.0,-0.33657740300155675,-0.6131317691852745,0.06370163627790403,-0.7118477273546504
-9922.57953953743,828.0,1932.0,-16212.0,104.0,76.0,383.0,-0.30738475196724696,-0.6092178701577737,0.07545648244242319,-0.7271000757776583
-9922.595128774643,908.0,1808.0,-16260.0,505.0,288.0,1243.0,-0.20206230205597855,-0.5923374130850974,0.10105735267905437,-0.7733657780229188
-9922.610711336136,772.0,2004.0,-16112.0,491.0,538.0,1285.0,-0.0939034898459805,-0.5490849432731943,0.12384637647523039,-0.8211881238177852
-9922.62630033493,1104.0,1612.0,-16108.0,332.0,568.0,2358.0,0.08297262780817884,-0.47517784803057694,0.20382169080778764,-0.8519262140184971
-9922.641873121262,1176.0,1660.0,-16164.0,434.0,646.0,2363.0,0.2590867560725456,-0.3735599306672339,0.2680576125871752,-0.8493951656100714
-9922.657448530197,1408.0,1860.0,-16332.0,737.0,688.0,3693.0,0.5128524006277103,-0.20845632054117233,0.3315055721192873,-0.76395839759158
-9922.673026800156,872.0,1544.0,-16280.0,293.0,668.0,3779.0,0.7116640199968562,-0.03949154870147543,0.38948079783181344,-0.5833347652449381
-9922.688620567322,812.0,1616.0,-15964.0,620.0,559.0,4304.0,0.853471406482852,0.16227788265407211,0.3808444776861619,-0.31655952194405407
-9922.704181432724,600.0,1756.0,-16212.0,170.0,727.0,3324.0,0.8804924821039507,0.2929720407832249,0.36756599038208265,-0.06160856265305341
-9922.719778299332,620.0,1468.0,-16332.0,244.0,443.0,2463.0,0.8528279439289479,0.38416422573550524,0.32967875241170114,0.12811817172917744
-9922.735346794128,820.0,1312.0,-16128.0,-152.0,217.0,1534.0,0.8267670512223764,0.41101458631381727,0.29020006666260817,0.25160916946597106
-9922.750932216644,952.0,1324.0,-16308.0,-121.0,-253.0,1254.0,0.8047762467672293,0.4371044053611818,0.2230578142510681,0.33394631747428444
-9922.766531705856,1180.0,1640.0,-16448.0,-247.0,149.0,1491.0,0.7610425296318438,0.4408510567226147,0.16809029599227934,0.445208115684503
-9922.782149553299,788.0,1344.0,-16800.0,80.0,164.0,2315.0,0.6522239978463923,0.4645797565856235,0.09126833263151433,0.5919793897280335
-9922.797770500183,748.0,2024.0,-16616.0,-128.0,-94.0,-203.0,0.668368403642089,0.4606997285215957,0.08757713750625716,0.5773817473208379
-9922.81336927414,728.0,1060.0,-16492.0,-156.0,-704.0,-412.0,0.6988241787516162,0.48293970663680086,0.05512736672226046,0.5247618320571337
-9922.828957557678,1176.0,1448.0,-16152.0,-422.0,-736.0,-727.0,0.7497557034787777,0.48539529097364215,0.021483427608888904,0.4492173849483456
-9922.84457206726,1344.0,1440.0,-16252.0,-277.0,-545.0,382.0,0.7459211453174017,0.4886728071762318,-0.04112843392228957,0.4506761413897755
-9922.86016869545,960.0,1864.0,-16000.0,-173.0,-307.0,592.0,0.7274649474636697,0.4867666913430132,-0.09300971085407028,0.47455466713277433
-9922.875781297684,720.0,1816.0,-16228.0,-490.0,-215.0,324.0,0.7318998501187426,0.461532969692129,-0.14054348041288223,0.4812041743343051
-9922.891354560852,476.0,1656.0,-16236.0,-316.0,-81.0,-84.0,0.7467147743897344,0.44587188824607527,-0.1556019211135161,0.4684051100551214
-9922.906920194626,356.0,1908.0,-16156.0,-13.0,22.0,-555.0,0.7691772900651552,0.4514122255353272,-0.1330200729603958,0.4323181227694229
-9922.924758911133,716.0,1824.0,-16220.0,-121.0,136.0,-1297.0,0.8189934303997447,0.45056565411050936,-0.0769308723698851,0.3468746072782436
-9922.940455675125,864.0,1260.0,-16332.0,128.0,103.0,-748.0,0.8352908661406387,0.4608767897107879,-0.036254365664485276,0.29760271271976946
-9922.95609331131,1308.0,1980.0,-16156.0,144.0,714.0,493.0,0.8164141085456148,0.4502374837018071,-0.0003279961683595184,0.3615993695459766
-9922.971722841263,1168.0,1820.0,-16528.0,189.0,975.0,950.0,0.7733663053898087,0.4301228077632155,0.037497589277267825,0.46421208378067713
-9922.987347841263,848.0,1704.0,-16352.0,187.0,608.0,586.0,0.7384002241640513,0.4191350620179889,0.0639533516715392,0.5244052607970593
-9923.002959251404,776.0,1424.0,-16224.0,-44.0,195.0,-36.0,0.7403411483541464,0.40740736401970873,0.07585360316641054,0.5293018559223546
-9923.0185983181,1280.0,1732.0,-16308.0,-130.0,181.0,136.0,0.7371829409442494,0.3917442993063494,0.076733431552175,0.5451694195605551
-9923.034242153168,1336.0,1664.0,-16596.0,-196.0,445.0,845.0,0.6980812596348162,0.3626146456421371,0.06695509731187871,0.6137672104767838
-9923.049844503403,956.0,1760.0,-16408.0,-208.0,333.0,1030.0,0.6444925164872852,0.3368747369693845,0.043365397331877116,0.6850286491074242
-9923.065493106842,788.0,1692.0,-15876.0,-150.0,210.0,380.0,0.6248213827176198,0.3173751988965794,0.03506227098549503,0.7124899016670609
-9923.081106901169,824.0,1648.0,-16336.0,-389.0,64.0,-642.0,0.6738011337386468,0.2899062424998346,0.032125239511959364,0.6789067474391758
-9923.09673500061,1008.0,1540.0,-16332.0,-305.0,-3.0,-751.0,0.7241468542740042,0.2696847704268073,0.03283660077876737,0.6338794961932439
-9923.112339735031,1004.0,1768.0,-16188.0,-511.0,80.0,-959.0,0.7853919853363583,0.22950164010698212,0.032093897098926745,0.5739846760381518
-9923.127964019775,892.0,1508.0,-16416.0,-365.0,-249.0,-891.0,0.8348327062659519,0.21397641484797025,0.014577378471525243,0.5070068505201623
-9923.143606185913,960.0,1976.0,-16204.0,-433.0,136.0,-1051.0,0.8847915001864828,0.17453132861671197,0.02485279207020811,0.43135270400839454
-9923.159222364426,756.0,1476.0,-16344.0,-360.0,23.0,-1652.0,0.9421635892978344,0.14108284345895225,0.03786237426315312,0.3016452268777268
-9923.174819946289,732.0,1792.0,-16572.0,-397.0,-62.0,-2165.0,0.9861692873414662,0.10138895559903695,0.048142028096167376,0.1219539319487047
-9923.190486907959,740.0,1552.0,-16144.0,-488.0,-203.0,-2733.0,0.9915707950353616,0.0489691127247418,0.04832048670531936,-0.10979305531978621
-9923.2061419487,944.0,1740.0,-16216.0,-393.0,-294.0,-2602.0,0.9446690858035842,0.0014615829306951372,0.036839035536277466,-0.32594641823943105
-9923.221746444702,1268.0,1784.0,-16304.0,-378.0,17.0,-1972.0,0.875252993338235,-0.03472728881629926,0.048376623688167926,-0.4799853282595856
-9923.237392902374,1024.0,1708.0,-16368.0,-173.0,101.0,-1524.0,0.8032459093361479,-0.0498519427534753,0.05806260077136295,-0.5907110353888055
-9923.252983570099,780.0,1868.0,-16344.0,-169.0,38.0,-1465.0,0.7208095923984951,-0.06689563984597847,0.06263110008221245,-0.6870486519733551
-9923.268601179123,780.0,1640.0,-16308.0,-236.0,240.0,-1630.0,0.6139097046179679,-0.07577946923923665,0.08157913297931965,-0.7814839676410781
-9923.284173727036,936.0,1796.0,-16144.0,-169.0,206.0,-1600.0,0.49721018771527614,-0.08166918370969105,0.09273268776688534,-0.8587856672557256
-9923.299943685532,952.0,1752.0,-16156.0,-203.0,311.0,-1186.0,0.40196737753181766,-0.07662004405567358,0.11244710978270328,-0.9054872962944409
-9923.315518140793,932.0,1760.0,-16204.0,-479.0,413.0,-1426.0,0.2794132329044941,-0.07436759868621463,0.15400325514278923,-0.944817814686477
-9923.331171512604,992.0,1404.0,-16240.0,-124.0,136.0,-943.0,0.1983005746214459,-0.07878842170824749,0.16110062199979705,-0.9635952761926587
-9923.346812486649,1076.0,2048.0,-16236.0,-533.0,286.0,-936.0,0.1113454184542449,-0.07699104128237853,0.20369314978038433,-0.9696306915955424
-9923.362435102463,972.0,1708.0,-16628.0,-301.0,168.0,-750.0,0.04273701797915325,-0.07900555130182937,0.2254366774092727,-0.9701082283108472
-9923.378026723862,1088.0,1904.0,-16228.0,-459.0,118.0,-346.0,0.00792479505183181,-0.07760888020817407,0.2622689434164043,-0.9618362961832241
-9923.39361000061,988.0,2040.0,-16108.0,-407.0,75.0,-504.0,-0.03881022840679404,-0.08314588976246907,0.29286995197217014,-0.9517393122165537
-9923.409210443497,1028.0,1640.0,-16132.0,-362.0,32.0,147.0,-0.030041077698440128,-0.07559710424823217,0.32398423731345644,-0.9425586588920691
-9923.424854040146,832.0,1652.0,-16148.0,-479.0,11.0,201.0,-0.01697226899416455,-0.06779332166025198,0.36459262853584057,-0.9285409106984925
-9923.440487384796,748.0,2144.0,-16416.0,-396.0,95.0,182.0,-0.007595776027169154,-0.05376634525428353,0.397603164351669,-0.9159493479456612
-9923.45609164238,824.0,2016.0,-16256.0,-339.0,221.0,167.0,-0.0035155354528205573,-0.030129468385554595,0.42531592212644564,-0.9045364683256366
-9923.471706151962,860.0,1996.0,-16208.0,-188.0,143.0,-67.0,-0.014615016458285808,-0.021312403478150995,0.4401252734963253,-0.8975644413532063
-9923.487307548523,872.0,2032.0,-16348.0,-204.0,85.0,-320.0,-0.04330985667486933,-0.02670880595768184,0.45542701445283107,-0.8888178275134325
-9923.502910375595,900.0,2164.0,-16328.0,-59.0,136.0,-115.0,-0.05777183013708933,-0.020548482962841324,0.459446569698362,-0.8860863530621299
-9923.518548965454,1008.0,1952.0,-16236.0,8.0,183.0,322.0,-0.04017938143824923,0.006428194027041098,0.45853168049521453,-0.8877460186399174
-9923.534174203873,1060.0,2028.0,-16156.0,56.0,343.0,596.0,-0.007755040111208681,0.05652997337412701,0.45212842188600605,-0.8901258964809774
-9923.549832344055,836.0,1728.0,-16584.0,93.0,494.0,726.0,0.028599848309647707,0.12314409222200737,0.4399753930104287,-0.8890664962604324
-9923.56542134285,796.0,1900.0,-16176.0,77.0,215.0,270.0,0.04043973824247052,0.1503874949775654,0.43171160917416757,-0.8884668341753134
-9923.581011533737,896.0,1700.0,-16192.0,-113.0,142.0,16.0,0.03779921738826341,0.16167169624040653,0.4409830012542695,-0.8820246450096286
-9923.59659743309,1024.0,1952.0,-16380.0,-9.0,201.0,497.0,0.06836336244040758,0.19612080736280108,0.4351214097584597,-0.876089286753933
-9923.612182855606,1120.0,1916.0,-16296.0,-63.0,296.0,651.0,0.10775032716145948,0.2427361198131281,0.4299782922134154,-0.8628949596329206
-9923.627831220627,1060.0,1952.0,-16272.0,-59.0,237.0,566.0,0.14250680847933817,0.2810050588196574,0.42428750823601386,-0.8489452731534989
-9923.643462896347,908.0,1936.0,-16184.0,3.0,146.0,619.0,0.18258653643668343,0.3144610602545144,0.4102945069063391,-0.8363221962247244
-9923.659110546112,888.0,1920.0,-16244.0,-95.0,175.0,381.0,0.20656346275762383,0.3393059863923642,0.40948080513301977,-0.8212968121693268
-9923.67472577095,888.0,1928.0,-16268.0,60.0,215.0,576.0,0.23801156990774028,0.3760255188301543,0.3916290710467043,-0.8053458713432767
-9923.69033741951,772.0,1668.0,-16348.0,-172.0,510.0,121.0,0.2344167891784403,0.4121536882929308,0.41004307940940776,-0.7791295009215441
-9923.706003904343,888.0,1864.0,-16312.0,-37.0,92.0,-253.0,0.21515213138752615,0.40868695210722145,0.42359298273588325,-0.7792647307004418
-9923.721582174301,1052.0,1740.0,-16240.0,-211.0,57.0,-344.0,0.19701179917552308,0.39582890646783986,0.45117306181995237,-0.7752088080498741
-9923.737215995789,1100.0,1792.0,-16264.0,-90.0,-91.0,-510.0,0.16898586395283577,0.36784140757180983,0.47300434652920015,-0.7825620517404275
-9923.752850294113,984.0,1840.0,-16340.0,-169.0,-114.0,-248.0,0.16208474490339836,0.3473612220829224,0.49083167538379807,-0.7824020598788021
-9923.768427371979,980.0,1948.0,-16252.0,-250.0,-152.0,-426.0,0.14690709436004742,0.31503937795783643,0.5183435866221695,-0.7813375852794316
-9923.784070014954,768.0,1888.0,-16264.0,-203.0,-133.0,-618.0,0.11614213057764852,0.27509554163770755,0.5467699090717872,-0.7822251050749843
-9923.799665927887,852.0,1824.0,-16292.0,-281.0,-166.0,-790.0,0.07664192690835897,0.22272126503206383,0.5818457434285346,-0.778445106604433
-9923.815293312073,828.0,1720.0,-16216.0,-321.0,-326.0,-1339.0,0.00838644917430806,0.12954357082943738,0.6230027630060154,-0.7713725999890558
-9923.830864667892,896.0,1860.0,-16248.0,-281.0,-340.0,-1035.0,-0.03944380912275509,0.04998038292905834,0.6504874337201484,-0.7568436072375376
-9923.846499681473,972.0,1912.0,-16268.0,-325.0,-197.0,-1108.0,-0.09950782282933951,-0.02467837969833432,0.6741917390195075,-0.7314059541794022
-9923.862153291702,1052.0,1908.0,-16356.0,-291.0,-140.0,-722.0,-0.13764214830290353,-0.07342112954713921,0.6910157537844432,-0.705805358982419
-9923.87779545784,872.0,1976.0,-16256.0,-249.0,-103.0,-680.0,-0.17453020266862565,-0.11758646204934803,0.7020293248957851,-0.6803436332365682
-9923.893402338028,808.0,1896.0,-16220.0,-110.0,-167.0,-691.0,-0.20601055255765702,-0.16788817510127457,0.7028479462270755,-0.6598317796078288
-9923.909013032913,924.0,1952.0,-16248.0,-221.0,-63.0,-657.0,-0.24272117713575378,-0.2075333504751233,0.7059872530232282,-0.6321379099366848
-9923.924749612808,1012.0,1976.0,-16264.0,-131.0,-37.0,-199.0,-0.2536762848113408,-0.2190991942002017,0.7104378428522523,-0.6188068818852746
-9923.940418481827,972.0,1892.0,-16352.0,-197.0,12.0,-10.0,-0.25862207942756266,-0.21476657240683597,0.7207105071723822,-0.6062724670150462
-9923.956109046936,844.0,1976.0,-16220.0,-130.0,64.0,114.0,-0.25894863251256,-0.20133588067790426,0.7283847443984186,-0.6015522695486886
-9923.971715211868,808.0,1828.0,-16368.0,-161.0,-9.0,91.0,-0.2563206665744165,-0.19243943707691938,0.7387403501746793,-0.5928992106320914
-9923.987299442291,896.0,1888.0,-16344.0,-95.0,-55.0,272.0,-0.240144667114979,-0.1756435202899106,0.7494051790290279,-0.5914995944891884
-9924.0029129982,1020.0,2120.0,-16220.0,-121.0,34.0,472.0,-0.2195941882633831,-0.1404297389456494,0.761678055465966,-0.5932153240790289
-9924.018525600433,836.0,1824.0,-16276.0,-29.0,57.0,639.0,-0.19029594505913855,-0.0943588382247511,0.7689126825500026,-0.6030399236838996
-9924.034160614014,760.0,1936.0,-16144.0,-103.0,-253.0,349.0,-0.1556295083058296,-0.08252630637132594,0.7810239951999803,-0.5991413721510581
-9924.049832582474,836.0,1872.0,-16364.0,-134.0,-38.0,435.0,-0.1311127887266838,-0.05304079622291163,0.7912482310952716,-0.5949137310206878
-9924.065487146378,860.0,1796.0,-16292.0,-139.0,13.0,607.0,-0.10095558053777572,-0.00887766078699545,0.8001405332858553,-0.591188874125908
-9924.08109498024,884.0,1916.0,-16028.0,-67.0,-19.0,804.0,-0.05803197340807674,0.04674118476569819,0.8025951581887117,-0.5918518089531366
-9924.096730709076,708.0,1880.0,-16336.0,-164.0,25.0,763.0,-0.019645834796158234,0.10207019314337344,0.8061493379925597,-0.5825109112291323
-9924.112324476242,1012.0,1968.0,-16264.0,-186.0,-76.0,37.0,-0.01076419531067293,0.10112623535841664,0.8154619445967607,-0.5698064877974076
-9924.127952337265,856.0,1908.0,-16300.0,-145.0,-73.0,142.0,0.0027653909371336154,0.10773375870935925,0.8215250761356608,-0.559894935793864
-9924.143572330475,940.0,1856.0,-16192.0,-100.0,-17.0,358.0,0.022392112020332203,0.13249143829273277,0.8227882349122017,-0.5522355770759936
-9924.15917634964,772.0,1920.0,-16380.0,-121.0,119.0,524.0,0.04043557497726718,0.1754370859214712,0.822020411966767,-0.5402492345849522
-9924.174815177917,520.0,2060.0,-16312.0,-138.0,85.0,549.0,0.06223777284205915,0.2181067019031215,0.8195686311460497,-0.5261779024797538
-9924.190443992615,608.0,1812.0,-16124.0,-69.0,218.0,715.0,0.0805875584418572,0.2783298038654837,0.8087420777515815,-0.5118343651794364
-9924.206041574478,644.0,1916.0,-16332.0,-51.0,177.0,65.0,0.07218887541925606,0.29048030191495766,0.8107245154494327,-0.503125948957496
-9924.221620082855,776.0,1960.0,-16304.0,-85.0,198.0,-39.0,0.05857553886836571,0.29588224010669595,0.8166953743498905,-0.49196673846025024
-9924.237218379974,964.0,2024.0,-16160.0,-44.0,205.0,-245.0,0.034535312567669424,0.2869377641857026,0.825780703045812,-0.48431421840281336
-9924.252893447876,864.0,1872.0,-16492.0,-60.0,236.0,320.0,0.032513827887836765,0.31964635499020344,0.8206564463510756,-0.47253788821636417
-9924.268515348434,796.0,1908.0,-16168.0,-36.0,182.0,464.0,0.039562404542531245,0.3599945909436005,0.8090862907377104,-0.4628369959050985
-9924.284111261368,772.0,1924.0,-16304.0,-176.0,269.0,220.0,0.03494397906974349,0.3856246209493571,0.8098756422962998,-0.4406518059189068
-9924.299755096436,780.0,1928.0,-16124.0,-56.0,162.0,-149.0,0.01962771035422439,0.3811412563020791,0.8175033172705753,-0.4313170782409716
-9924.315378189087,888.0,1988.0,-15908.0,-186.0,76.0,-324.0,0.008181511505444493,0.3604273417171607,0.8350722472970245,-0.41554727289020293
-9924.330983638763,816.0,1928.0,-16292.0,-171.0,38.0,-412.0,-0.004151672424771978,0.33145789846302237,0.8537290499187419,-0.4015783043036522
-9924.346642255783,908.0,2092.0,-16260.0,-204.0,107.0,-300.0,-0.01672671783142385,0.31280411869519975,0.8691611475827614,-0.38266525811801205
-9924.362244606018,864.0,1812.0,-16356.0,-220.0,102.0,-290.0,-0.02812051223808813,0.29441218985404455,0.8839075584219681,-0.36226803256888224
-9924.37784409523,824.0,2064.0,-16364.0,-263.0,46.0,-656.0,-0.045547486188367986,0.24547321513655276,0.9073392215584036,-0.33823640279283107
-9924.393492937088,788.0,1852.0,-16360.0,-213.0,238.0,-717.0,-0.08077726361865506,0.19613376609357824,0.9259724259119786,-0.31238061068337325
-9924.409081697464,804.0,2108.0,-16196.0,-286.0,39.0,-835.0,-0.10144081490953684,0.13135957843706364,0.9450775888210271,-0.28157196829862063
-9924.424732923508,988.0,2044.0,-16612.0,-242.0,-48.0,-915.0,-0.11672402792214223,0.056663426866459296,0.9587546667664973,-0.25289176798552115
-9924.440355539322,908.0,2000.0,-16316.0,-236.0,5.0,-880.0,-0.13488382116820682,-0.014415107485076248,0.965299834065199,-0.22314746204462224
-9924.455980062485,908.0,1952.0,-16428.0,-16.0,78.0,-806.0,-0.1566701970581427,-0.08042270774787562,0.9613630096580539,-0.21158402844607868
-9924.471544265747,832.0,1884.0,-16280.0,-191.0,119.0,-678.0,-0.18002982449159677,-0.13226317993749795,0.9567252443763257,-0.18647391318735684
-9924.487137317657,836.0,2024.0,-16300.0,-178.0,31.0,-694.0,-0.19542218115094484,-0.18657072078542333,0.9493411076749193,-0.1604774081868592
-9924.502726078033,532.0,2172.0,-15932.0,-159.0,200.0,-415.0,-0.2200063524338434,-0.2152814118993929,0.9406245662526687,-0.14309627507848807
-9924.51833486557,820.0,2068.0,-16352.0,-159.0,0.0,-161.0,-0.2247471430125834,-0.22544051626456757,0.9394757077769681,-0.12669131710978238
-9924.534010410309,784.0,1856.0,-16300.0,-58.0,13.0,-59.0,-0.22736918095327283,-0.22902961594288462,0.9387508928851905,-0.12081163719174692
-9924.54965353012,760.0,1916.0,-16140.0,-137.0,334.0,25.0,-0.2568449295205996,-0.2206738126314043,0.9336833664284929,-0.11648657370287159
-9924.565245389938,552.0,1996.0,-16372.0,-144.0,308.0,59.0,-0.283736842849744,-0.20945606708487732,0.9290481320564039,-0.11176371635509283
-9924.580866336823,912.0,1912.0,-16328.0,-97.0,321.0,365.0,-0.3074302958548968,-0.17421322739627026,0.9279492677798741,-0.11851801980096333
-9924.596457004547,944.0,1980.0,-16152.0,-176.0,362.0,375.0,-0.334899461316849,-0.1352685264133976,0.9248023827942803,-0.11952125061951707
-9924.612093925476,976.0,1952.0,-16288.0,-107.0,250.0,580.0,-0.34948199876139135,-0.08263691642565034,0.9241334119238184,-0.13042587761424218
-9924.62772846222,976.0,1900.0,-16284.0,-83.0,505.0,764.0,-0.38063137829894267,-0.012737460629206812,0.9123852505283153,-0.15003554768570634
-9924.643349409103,892.0,1976.0,-16476.0,-161.0,186.0,656.0,-0.38605522879163273,0.047163793696409724,0.9074867351016911,-0.15876007842425643
-9924.658939361572,912.0,1876.0,-16352.0,-87.0,215.0,649.0,-0.3927703623049234,0.10426661342665329,0.8972985350877202,-0.17238113222979887
-9924.674549341202,1036.0,2224.0,-15968.0,-319.0,313.0,371.0,-0.40802880419198556,0.1487590071742091,0.8869981862706615,-0.15689955476915501
-9924.690179109573,1032.0,2864.0,-15840.0,992.0,-959.0,-9328.0,-0.36611396057197343,-0.48008673854489753,0.7943860042630932,0.06654447819724597
-9924.70581626892,3556.0,6052.0,-13980.0,-3512.0,3197.0,13442.0,-0.5091720846255944,0.34161438498561564,0.773856679793096,-0.1587111821786091
-9924.721390247345,-5328.0,808.0,-14892.0,1229.0,1210.0,-7528.0,-0.6066488268425159,-0.16965096894552606,0.7692631620384953,0.10691088418387816
-9924.736974954605,880.0,2196.0,-15992.0,-668.0,1033.0,-8783.0,-0.47741209223037734,-0.580141338896565,0.45750438237449403,0.47560851674843585
-9924.752606153488,2752.0,1044.0,-17916.0,298.0,1788.0,-1223.0,-0.47424587611548175,-0.7030523652654376,0.3277128293214569,0.41642829176252955
-9924.768188238144,2516.0,2104.0,-17036.0,1493.0,1747.0,2275.0,-0.49573058667453984,-0.734695919075305,0.43244785632946625,0.16571645508355157
-9924.783793926239,952.0,2700.0,-15936.0,742.0,996.0,-581.0,-0.473697602652879,-0.7975646219252966,0.36035883227021825,0.09819759212383188
-9924.799377679825,1660.0,2544.0,-16192.0,567.0,794.0,1107.0,-0.46457453967304896,-0.7866273960993285,0.4061588556899184,-0.020562605336407223
-9924.81496477127,1028.0,1960.0,-16156.0,777.0,1515.0,1108.0,-0.45555576359372796,-0.764359420454283,0.4130338748710802,-0.19397587692367618
-9924.830642223358,600.0,1888.0,-16368.0,807.0,1770.0,-282.0,-0.4632911989504264,-0.7656314015607781,0.3058074818336358,-0.32504092968997794
-9924.84626030922,1184.0,1076.0,-16404.0,1038.0,1956.0,-302.0,-0.4460944278628612,-0.7463111985670268,0.17390489784651517,-0.46235964662603013
-9924.861845970154,1804.0,2120.0,-16156.0,1575.0,2778.0,1633.0,-0.30505275726571884,-0.6403614285509266,0.10365041126350126,-0.6972350022436523
-9924.877448558807,1240.0,1972.0,-16520.0,2503.0,3099.0,1894.0,-0.0727149378489992,-0.4681079591018202,-0.023596613140086268,-0.8803582658710384
-9924.89304637909,1044.0,2644.0,-15884.0,2248.0,4009.0,551.0,0.06461729845441723,-0.16301946700321898,-0.1848010682511808,-0.9670045621876154
-9924.908704996109,1056.0,1992.0,-15996.0,2879.0,4400.0,603.0,0.2064503349542605,0.19481671009196785,-0.358250821418592,-0.8894273762478417
-9924.92440032959,1096.0,2668.0,-16216.0,3335.0,5515.0,834.0,0.33650201661411433,0.5714246055318989,-0.462893551114996,-0.5881920378103536
-9924.94009900093,908.0,2724.0,-15888.0,3564.0,5456.0,-2534.0,0.21254720905135369,0.9035992879037635,-0.3067809509437195,-0.21027947822447846
-9924.955798149109,1956.0,1552.0,-16180.0,3148.0,4099.0,-753.0,0.05466083427615857,0.9621042542576355,-0.20853168043307582,0.16697944601462572
-9924.971421003342,2336.0,916.0,-16480.0,3631.0,5635.0,-1065.0,-0.11372764220153635,0.7888713482019205,-0.03384741986462206,0.6029945037509645
-9924.987030029297,2880.0,608.0,-16840.0,4307.0,7234.0,30.0,-0.31463442270899544,0.29467382404193876,0.09586059377959602,0.8972085956071203
-9925.002657175064,1992.0,-116.0,-17512.0,4891.0,8146.0,432.0,-0.4173764650238513,-0.36438879067212476,0.18787532309578991,0.810999727896596
-9925.018246889114,2060.0,192.0,-18048.0,5829.0,9186.0,699.0,-0.3129770598184114,-0.880590810095736,0.20879452213313257,0.28811461734794813
-9925.033828496933,1732.0,1208.0,-19876.0,6046.0,10156.0,1852.0,-0.055183996725112386,-0.8765904916016767,0.15616110875599945,-0.451837962826355
-9925.04951286316,1904.0,544.0,-23436.0,6935.0,10666.0,2320.0,0.2795552862043281,-0.3037693704401172,0.005867009887775514,-0.9107900909279852
-9925.065155744553,2476.0,696.0,-26640.0,6119.0,12385.0,1236.0,0.3399431294624407,0.5288686474651088,-0.09274823159178511,-0.772097395408316
-9925.080762147903,-416.0,760.0,-31516.0,10759.0,11218.0,1711.0,0.029196569329854018,0.9398694784885993,-0.3332621671446642,-0.06876955500057663
-9925.096368789673,1524.0,6552.0,-32768.0,10711.0,18302.0,9765.0,-0.11375498985770958,0.34937522824245965,-0.5074958315750469,0.7793874088711937
-9925.112013101578,-2168.0,4208.0,-32768.0,9376.0,21032.0,10138.0,-0.06535418339390082,-0.672786883413101,-0.1607762612840407,0.7191923484212888
-9925.127614736557,-9168.0,-444.0,-32768.0,9654.0,18330.0,3541.0,0.2567390563986437,-0.9229170873393794,0.26249369841638637,-0.11578499517734431
-9925.143278121948,-9908.0,5896.0,-26776.0,4462.0,17554.0,153.0,0.11513152305884888,-0.34330215102400935,0.33314964608899783,-0.870574338475017
-9925.158878564835,-10176.0,4664.0,-19804.0,4819.0,12754.0,-4233.0,-0.27100986780008923,0.34495881434197323,-0.019715189892602673,-0.8984255001113096
-9925.174469709396,-2924.0,7588.0,-11780.0,1591.0,9350.0,-19909.0,-0.8593078574211721,0.49561001310314295,0.10767417066631695,-0.06608323582768717
-9925.190066099167,1348.0,8548.0,-10220.0,4777.0,10434.0,-14244.0,-0.6614394032679342,0.03381885643945926,-0.0457604166500855,0.7478370043142403
-9925.205649137497,844.0,4336.0,-6892.0,10613.0,5978.0,11463.0,-0.8007823945242406,-0.5735326260612637,0.15160139720444543,0.08261295194431927
-9925.221224784851,-13416.0,11060.0,-4116.0,6243.0,-2029.0,18564.0,-0.29940798539308267,-0.37714539989157797,0.6375151263195371,-0.601407240842062
-9925.236850261688,-18924.0,7988.0,-3384.0,-3884.0,-9555.0,-12391.0,-0.31626182424530874,-0.8496190678717771,0.39574871238603054,0.1466589740811003
-9925.252472877502,-8980.0,6688.0,-6852.0,-9054.0,-15469.0,-4262.0,-0.21052669050125986,-0.28984764423473597,0.20630925598326852,0.9105511224603433
-9925.268105506897,-5692.0,4256.0,-7080.0,-5850.0,-19680.0,17609.0,-0.5474872609463927,0.6624807022921657,0.21401199423406253,0.46430150173766904
-9925.28374004364,-9696.0,4804.0,-8064.0,-6043.0,-23341.0,26593.0,-0.25529443544077274,0.7278896457084935,-0.13779871424847756,-0.621299387779199
-9925.299322366714,-5792.0,5988.0,-11532.0,-7092.0,-29629.0,32767.0,0.40086245281558514,-0.27649217033903073,-0.2914577720775071,-0.8233551729111206
-9925.314933776855,-4148.0,5828.0,-11092.0,-10526.0,-32768.0,32767.0,0.3909387785084161,-0.8984381340733154,0.025530253477237152,0.1983027908492342
-9925.330533981323,-5924.0,5164.0,-13804.0,-17601.0,-32768.0,32767.0,-0.33409507191707843,-0.19343781872999538,0.2639967457309267,0.8838936652387459
-9925.346188306808,6064.0,16612.0,18012.0,-32768.0,-32768.0,32767.0,-0.5263983114112503,0.800437056439553,-0.14939001058550988,0.24472016908916527
-9925.361825704575,2516.0,6820.0,-18256.0,-32768.0,-22044.0,1665.0,0.40088295457036266,0.767000186005571,0.013134263691817468,-0.5008303730003102
-9925.37742638588,-7316.0,13436.0,-30524.0,-32768.0,-27733.0,14267.0,0.7979629463823317,-0.3867248370400581,-0.1178482567567744,-0.44700204137851307
-9925.393012046814,2316.0,-3344.0,-32768.0,-32768.0,-20942.0,-12427.0,-0.2724103097028449,-0.9073827206817551,-0.19385525044581173,-0.25469464707835465
-9925.408602952957,668.0,-17464.0,-32768.0,-23445.0,-15103.0,-6855.0,-0.9400945592965513,-0.2111615257844112,0.053186959383242624,0.2623055031084703
-9925.424198627472,-568.0,-1004.0,-30984.0,-23558.0,-23783.0,-1813.0,-0.39535134833148144,0.7301205335387966,0.4631100490150523,0.31008128027789517
-9925.4398291111,4412.0,-2576.0,-32024.0,-27032.0,-14974.0,-3656.0,0.7018807008358829,0.6635557974784413,0.16630531725040193,0.19849364443508694
-9925.455429553986,1384.0,-6680.0,-30104.0,-20404.0,-18717.0,9012.0,0.7319765497864399,-0.04798487908541079,-0.679500763222927,-0.013656307017555016
-9925.471015930176,10076.0,-6368.0,-23440.0,-12201.0,-17912.0,14975.0,-0.14499862276426675,-0.6926996682494848,-0.6966694438901393,0.11744894615671807
-9925.486667394638,9428.0,-5640.0,-19212.0,-15481.0,-4788.0,-1775.0,-0.7784385196112651,-0.19540495364243332,-0.518787960647577,-0.294464645016254
-9925.502279281616,5096.0,-11300.0,-20364.0,-11396.0,496.0,-4198.0,-0.7258132599592326,0.5362257114588055,-0.2273181469804264,-0.3660376457295543
-9925.517886400223,2136.0,-9208.0,-19984.0,-1441.0,-981.0,-73.0,-0.6722964068949642,0.5910553412479244,-0.11442358140401722,-0.4307880788474753
-9925.533515453339,1456.0,-4224.0,-18476.0,1644.0,2073.0,-6236.0,-0.8355761087067286,0.5466750351778661,0.020489831649012313,0.05038987270072282
-9925.549195051193,2636.0,-6152.0,-21212.0,4386.0,10417.0,-24657.0,-0.3716185687383195,0.05342112453334918,0.17766490701606227,0.9096598285279224
-9925.56480550766,6352.0,-7240.0,-21632.0,8063.0,14165.0,-29852.0,0.5558732694460414,-0.5731655185851041,0.15889170990986937,0.5807233602519835
-9925.58041524887,8496.0,-10020.0,-18656.0,1680.0,5543.0,-32768.0,0.723963136574526,-0.3995327601736687,-0.3666680578456876,-0.426386545032621
-9925.596081018448,11252.0,-9560.0,-32768.0,17704.0,32767.0,-32768.0,0.26342996483676384,0.6722012234368231,-0.02204453107670416,-0.6915664881164701
-9925.611675977707,-1680.0,-728.0,-17664.0,32767.0,17345.0,6916.0,-0.3511754664706366,0.7148872108848099,-0.5832874627848316,0.15933550520992476
-9925.627295017242,-3648.0,1944.0,-31864.0,32767.0,32767.0,13559.0,-0.21147590754485038,-0.33138500088880835,-0.4567390141281916,0.7980296953667916
-9925.642889738083,-19048.0,12428.0,-29512.0,32767.0,21135.0,27083.0,-0.07218509421441445,-0.8183108327332623,0.5204681072803525,0.2329584566154618
-9925.65850353241,-15040.0,31020.0,-19948.0,32767.0,32767.0,-32768.0,0.2860984786986275,-0.6291777067499474,-0.26916154144984095,-0.6706975014263535
-9925.674097776413,-23796.0,28560.0,-14448.0,1884.0,9821.0,-31488.0,-0.40075365052812095,0.2400232386555018,-0.6105503645948066,-0.6395417177845848
-9925.689704418182,-18288.0,6296.0,-10472.0,-12599.0,-4378.0,-27196.0,-0.6680142635603533,0.6671405898688612,0.2884058446846753,-0.1596948520806654
-9925.705354690552,-36.0,8708.0,-6540.0,-24278.0,-17161.0,18612.0,0.4462528471092184,0.7178500190691238,0.16879700554349286,-0.5070082025854464
-9925.720961093903,3812.0,-3256.0,-11148.0,-18804.0,921.0,9475.0,0.9695663882352584,0.07928173399716215,0.21168254075519977,0.09405279048631444
-9925.736568927765,-3516.0,-5508.0,-12748.0,-6020.0,-31.0,25076.0,0.3272727627790259,0.0135087040753777,-0.005502652770050167,0.9448173233327593
-9925.752182245255,-2428.0,1712.0,-23456.0,-7558.0,805.0,20856.0,-0.6344319155447555,-0.12793239401379228,-0.2889837203545061,0.7054203402725077
-9925.76782464981,-7960.0,-6896.0,-22272.0,1284.0,392.0,17670.0,-0.9219855991653672,-0.3631905821389179,-0.018835721408762465,-0.13296755836024163
-9925.783456087112,2768.0,2824.0,-15896.0,5264.0,2151.0,12984.0,-0.37772586266649083,-0.4924815475207989,0.09968577645228843,-0.77771964357182
-9925.799082279205,-16.0,348.0,-15420.0,9016.0,10398.0,10838.0,0.3585513718843217,0.005489174457083291,-0.21303516274116535,-0.9088601664279801
-9925.81466794014,-6060.0,3476.0,-14300.0,10649.0,4361.0,6282.0,0.6137419218113053,0.3737681914233267,-0.6082887335872988,-0.33705045480203905
-9925.8302693367,-28.0,4936.0,-16156.0,687.0,6708.0,-8064.0,0.5232399330604725,0.7635048959111652,-0.004722848300818941,-0.3784943078495108
-9925.8458609581,-2932.0,336.0,-17280.0,362.0,4229.0,-3939.0,0.33069458418465425,0.8224422664622598,0.3916851064372322,-0.2466020837758954
-9925.86152768135,3184.0,1516.0,-17984.0,2878.0,7518.0,-1597.0,-0.136097634879797,0.823304466222972,0.5376113854197508,0.12091810428752471
-9925.877118110657,1156.0,1772.0,-16868.0,7289.0,4542.0,7634.0,-0.673122460185278,0.7394104007639507,0.008580563403001317,0.01023654081707459
-9925.89273571968,896.0,4956.0,-15444.0,5063.0,4454.0,612.0,-0.8640199132623138,0.37768514007728404,-0.24799962211976279,0.22208041759561103
-9925.908321619034,-2116.0,4664.0,-15236.0,-2155.0,3486.0,-15481.0,-0.24285782196681885,0.47008833756749474,-0.024770188684973844,0.8481883463860328
-9925.924089193344,-2544.0,3408.0,-16572.0,-4222.0,2058.0,-15801.0,0.6304136022690285,0.2520821174494839,0.1526056609933511,0.7181537498120817
-9925.939748048782,616.0,2432.0,-15428.0,-6117.0,4313.0,-22509.0,0.9214002680796705,-0.28458677009236144,0.2183076467643972,-0.14957836620079784
-9925.95542216301,-1848.0,-1164.0,-16908.0,-5235.0,2123.0,-22240.0,0.20576031479786472,-0.49221608034545716,-0.04233919431554027,-0.8447445860899901
-9925.971037626266,480.0,2292.0,-16816.0,-7045.0,2340.0,-22543.0,-0.7609224332380033,-0.15791724379218947,-0.19537775168535557,-0.5982363486571256
-9925.986684799194,504.0,2052.0,-16980.0,-8311.0,1292.0,-19305.0,-0.8896870041604742,0.37778850340064346,-0.05428302067188436,0.2505718160388321
-9926.002294301987,1172.0,1000.0,-16952.0,-6174.0,33.0,-13567.0,-0.23718289191109596,0.5612826153117514,0.15566523775576993,0.777479540108889
-9926.017903804779,1404.0,1012.0,-16864.0,-4831.0,-436.0,-10272.0,0.49879153547224425,0.39171479233751405,0.24155628247368782,0.7344501943649487
-9926.033534765244,-112.0,304.0,-17576.0,-3552.0,-988.0,-9731.0,0.9362628927234121,0.07073866475076719,0.2248342378244401,0.2604945345307079
-9926.049154996872,-604.0,1500.0,-16876.0,-1114.0,1168.0,-18071.0,0.7107454309277866,-0.2142783548142526,0.21723104106840158,-0.6338267853836019
-9926.064755439758,-996.0,1740.0,-16336.0,2161.0,186.0,-14505.0,-0.03371796653019205,-0.2124859117599969,-0.09959389710867343,-0.9714905515213715
-9926.0803399086,-2736.0,4064.0,-15976.0,9067.0,-4445.0,-9563.0,-0.45460876582852977,-0.33891804009398857,-0.6566734721603894,-0.4972377530835013
-9926.095945358276,-2236.0,7652.0,-14784.0,9443.0,-7728.0,-12198.0,-0.6347346087940317,-0.19361951085182602,-0.62007108838817,0.4184917045315205
-9926.111542701721,-1348.0,8872.0,-15080.0,3180.0,-6681.0,-17965.0,-0.14546690771194762,0.4299225593536005,-0.22230624995554804,0.8628939117587253
-9926.127220153809,-888.0,7060.0,-15644.0,-4586.0,-3838.0,-19055.0,0.6902985082088244,0.5708186436328144,0.09754174543853412,0.4337506813166635
-9926.142836809158,-1376.0,2844.0,-15880.0,-9849.0,-2952.0,-16084.0,0.9340272883195658,-0.024385892877390555,0.17921338934377662,-0.3080274565406257
-9926.158497571945,-1740.0,-1736.0,-16744.0,-8185.0,-1859.0,-10332.0,0.4357352015867711,-0.5892017582088717,0.1474599301004015,-0.6642527314482757
-9926.17413020134,-2524.0,-2648.0,-17548.0,-1297.0,-1343.0,-7281.0,-0.029935836014012552,-0.6775393342812981,-0.16947311238524512,-0.7150686403431878
-9926.18972659111,-3248.0,644.0,-16740.0,4493.0,-3755.0,-6895.0,-0.19628097293897542,-0.6450008851798545,-0.6653902634509158,-0.32047376660821114
-9926.205309391022,-2972.0,4120.0,-16132.0,4872.0,-6150.0,-10433.0,-0.3765735651996526,-0.19439398956550022,-0.8467377820820854,0.32161849326234676
-9926.220914363861,-1488.0,6568.0,-15032.0,2258.0,-5559.0,-6698.0,-0.44133516780504417,0.30078194397927216,-0.5620884637150362,0.6315140938989515
-9926.236552476883,-108.0,5632.0,-14744.0,-2440.0,-2115.0,-933.0,-0.412125279950002,0.5346520837291845,-0.5669038995922376,0.4721439098593648
-9926.252165079117,-516.0,3808.0,-14960.0,-3400.0,2354.0,5402.0,-0.3090513487200809,0.25175518804322405,-0.8975308205196659,0.18853385734375394
-9926.26778292656,-3560.0,3316.0,-14964.0,-5276.0,9968.0,-7808.0,0.4591644141485837,0.5395136239279847,-0.6934608778274148,0.13116821756245892
-9926.283379077911,-3056.0,5380.0,-14688.0,538.0,7522.0,15568.0,0.39248208123945694,-0.25795732720610576,-0.6179962767415142,0.6304731835536325
-9926.298971414566,-5364.0,4212.0,-14200.0,301.0,6869.0,4273.0,0.43650985390284525,-0.6993083644001209,-0.22059457609176325,0.5213108400221884
-9926.314596891403,-6816.0,4944.0,-13736.0,155.0,487.0,9719.0,0.009866712441980887,-0.6880973931844867,0.30348286963878596,0.6590316937098768
-9926.330176353455,-3768.0,4468.0,-14524.0,-4807.0,285.0,-1697.0,-0.1724344884400984,-0.6885271813662539,-0.06803385022418856,0.7011191503160614
-9926.345820188522,-832.0,896.0,-17628.0,-11362.0,2327.0,2434.0,-0.688304195512148,-0.46895184652553734,-0.45321483052357725,0.31767564822338606
-9926.361451148987,-520.0,-4360.0,-19932.0,-7395.0,5512.0,4679.0,-0.6699119513959363,-0.26929076568119203,-0.5924099857845061,-0.35742253655656264
-9926.377056837082,-2176.0,-3804.0,-17712.0,2537.0,4618.0,8587.0,-0.07775070250598451,-0.5388661613955469,-0.5556953307151195,-0.6283158344209292
-9926.392668247223,-2964.0,1008.0,-16148.0,9297.0,3075.0,9924.0,0.6684030750957671,-0.5807838657557052,-0.3935452020376287,-0.24708218153793127
-9926.408286094666,-3504.0,5868.0,-14628.0,9525.0,1481.0,5362.0,0.9492506223007076,-0.12788436474436024,-0.17356175663492454,0.22900908704558026
-9926.423922538757,-2312.0,8436.0,-14440.0,4878.0,374.0,-1531.0,0.9492279000274287,0.2667241125318992,-0.05680155082135994,0.15683821418224989
-9926.43952512741,-572.0,7956.0,-14116.0,-3499.0,-196.0,-3685.0,0.9872807791432802,-0.001682231280608362,-0.0321261063337813,-0.15569761245435546
-9926.455130338669,1180.0,3420.0,-16940.0,-8117.0,2038.0,195.0,0.8031203717646739,-0.5440192796327171,0.20477331532744644,-0.13079977513083782
-9926.470731973648,1312.0,156.0,-18384.0,-4738.0,3942.0,5797.0,0.4614917403762531,-0.5853967542024848,0.651893164462731,0.1391808746216922
-9926.486329317093,-8.0,100.0,-18192.0,1142.0,3594.0,12254.0,0.11079208562937563,0.07593165503810242,0.957324526854403,0.25590867083407165
-9926.501953125,-1196.0,2084.0,-17164.0,5838.0,2516.0,14971.0,-0.2721299780806753,0.7641770278385456,0.5833711622014394,-0.04070420451746982
-9926.517541408539,-1600.0,4444.0,-15356.0,4649.0,-120.0,13362.0,-0.3325143938984203,0.8394206657040303,-0.20228324301115866,-0.37932652614371354
-9926.533158540726,-956.0,3472.0,-15464.0,1940.0,1186.0,8260.0,-0.14417765844832037,0.5419675460329538,-0.725663235859715,-0.39861867740107826
-9926.548713207245,-172.0,3956.0,-15656.0,1197.0,3385.0,8702.0,0.2444951603540674,0.07236125183006281,-0.9438367716688827,-0.21013832168999144
-9926.56437420845,-236.0,4396.0,-15588.0,-5.0,3865.0,9327.0,0.5504902982164415,-0.4690148392087789,-0.6905731195537997,0.009709723027453593
-9926.579992771149,-1972.0,1292.0,-15676.0,-1578.0,2552.0,2296.0,0.6054413800654674,-0.6510075007879669,-0.4515775302419639,-0.07554934415860672
-9926.595601320267,-3968.0,992.0,-15664.0,-248.0,-1818.0,-1884.0,0.494170911033736,-0.586749145645013,-0.6365602172924658,-0.07944583395939335
-9926.611222743988,1356.0,3812.0,-15756.0,-2058.0,-340.0,-1415.0,0.3513903242390232,-0.5853042159378922,-0.6929528796236047,-0.23186228985731502
-9926.62681555748,588.0,2592.0,-16884.0,-3156.0,691.0,-1094.0,0.20085059776874165,-0.576986790193387,-0.636310043759459,-0.4710146595692188
-9926.642432451248,-1692.0,2320.0,-16676.0,-2871.0,-555.0,-3176.0,-0.09847841382025471,-0.4434219658441661,-0.6439068272585368,-0.6156808913943868
-9926.658034086227,-892.0,3788.0,-16524.0,-2959.0,-826.0,-6520.0,-0.5161002965674114,-0.08135796274985674,-0.6182125694077253,-0.587226178577319
-9926.673645496368,-220.0,3884.0,-16244.0,-3239.0,-917.0,-8664.0,-0.8018500156465621,0.3765849842916691,-0.36714530519569333,-0.283592360416166
-9926.689261198044,-760.0,3096.0,-15864.0,-2686.0,248.0,-10857.0,-0.6970609342110984,0.6573726988769361,0.02757978162952644,0.284967619938251
-9926.704886198044,-1636.0,3168.0,-15700.0,-497.0,-1221.0,-10110.0,-0.3092656205389547,0.5183695494942866,0.5001787099184661,0.6208615338817862
-9926.720532178879,-2460.0,3324.0,-15516.0,772.0,-2434.0,-12829.0,0.30131990069330217,0.04581985359554867,0.7829231141922772,0.542345144466259
-9926.736130714417,-2232.0,3664.0,-15656.0,594.0,-3038.0,-15754.0,0.727338536793739,-0.506060906452747,0.46149066819726337,0.04367350480337301
-9926.751790523529,-1388.0,3260.0,-16068.0,619.0,-1940.0,-15240.0,0.5322617265982181,-0.6413963057944909,-0.19849183079547358,-0.5156638696082215
-9926.767422437668,-1468.0,2964.0,-16100.0,1562.0,-875.0,-13264.0,0.0048426415451261464,-0.24625770900827265,-0.6841396032463841,-0.6865032358603582
-9926.783024787903,-1424.0,3916.0,-15996.0,1591.0,-405.0,-11774.0,-0.4792105634798118,0.30050621528606425,-0.7167874111081928,-0.4077610301397395
-9926.798654794693,-1392.0,4292.0,-16136.0,246.0,-583.0,-11081.0,-0.6581435910076007,0.6914923712799125,-0.2950877233019044,0.04010672803660732
-9926.814252138138,-1220.0,2936.0,-15796.0,-373.0,-956.0,-10123.0,-0.46703943731118974,0.7306710976952648,0.27615175347813015,0.4144081563384075
-9926.829844474792,-776.0,2612.0,-15728.0,528.0,-255.0,-7527.0,-0.18548787426344424,0.44853802981344343,0.6560821359237525,0.5778962841496992
-9926.845415353775,-824.0,3456.0,-16176.0,2192.0,1456.0,-5478.0,-0.06913787454273938,0.023036355556691385,0.8460238359657889,0.5281410319262364
-9926.861039876938,-1872.0,4340.0,-15988.0,1450.0,1846.0,-3414.0,-0.04787295552969916,-0.303607662124904,0.8545743124101242,0.418608781795921
-9926.876646995544,-2304.0,3928.0,-16256.0,1726.0,1895.0,-1782.0,-0.07553420012872483,-0.49492115082088567,0.8322404439285286,0.23816692165514797
-9926.892278194427,-2788.0,5268.0,-15092.0,2027.0,-896.0,-1647.0,0.10843444656502339,-0.592347152358404,0.7866127001000227,0.13640851121678108
-9926.907880783081,-1008.0,3892.0,-16404.0,-2158.0,-352.0,-4017.0,0.06365984598684431,-0.8213280758845342,0.5108198718035644,0.24582651269407504
-9926.923552036285,444.0,1576.0,-16752.0,-2468.0,651.0,-981.0,-0.11803281660840172,-0.8684081673596326,0.38054885542029515,0.29515771666157614
-9926.939157962799,372.0,624.0,-17024.0,-417.0,2909.0,4325.0,-0.3252635686586879,-0.7236836145257644,0.6073752297319954,0.039761379230931
-9926.954822301865,-1768.0,1924.0,-16276.0,1247.0,2708.0,5386.0,-0.3598073954038415,-0.42559112863943344,0.7708668706441523,-0.3085046145188246
-9926.970444440842,-3104.0,2496.0,-15640.0,-671.0,804.0,1918.0,-0.38014546600701116,-0.24943631512073372,0.820282216811425,-0.3469986082914983
-9926.986061811447,-2320.0,1400.0,-15760.0,-1015.0,-427.0,27.0,-0.36894351582216933,-0.2257662522454996,0.8619390129744694,-0.2645211133206494
-9927.001675128937,-1192.0,1528.0,-15764.0,988.0,-301.0,1144.0,-0.2975247336075189,-0.17692869921327917,0.8637297824288385,-0.3662596500188126
-9927.017351388931,-1232.0,3356.0,-15872.0,1397.0,-199.0,801.0,-0.23288053807104045,-0.15766380716427644,0.8285101952320516,-0.48423097308490726
-9927.032953739166,-1084.0,4304.0,-15716.0,-29.0,-149.0,-574.0,-0.2463418662567075,-0.20464969005097094,0.8239199741029106,-0.4675361649813448
-9927.048563241959,-596.0,3528.0,-15724.0,-1611.0,231.0,81.0,-0.2854421022578925,-0.15327938962757964,0.8774383825381784,-0.35373735994771155
-9927.064195871353,-472.0,2096.0,-16868.0,-611.0,1614.0,1594.0,-0.3603473938410607,0.033098516329538516,0.8596993897977432,-0.3605151912889752
-9927.079884052277,-1872.0,3420.0,-16288.0,650.0,1560.0,2003.0,-0.40560984009360107,0.20669104135545238,0.7648488155586879,-0.45581329552911737
-9927.095485687256,-2608.0,3376.0,-16092.0,-2213.0,222.0,-1723.0,-0.4359058853152372,0.1737386411395421,0.8509722740910818,-0.23589644433686946
-9927.111114263535,-1820.0,1136.0,-16824.0,-1704.0,-758.0,-1132.0,-0.37016214026359673,0.13646708632359242,0.9157176333375381,-0.07627542369938388
-9927.126736402512,-1004.0,1424.0,-16456.0,624.0,-533.0,285.0,-0.33185569308508334,0.13515693115879096,0.9228572630564533,-0.14120508117879085
-9927.142320394516,-1132.0,3200.0,-15944.0,948.0,-1203.0,657.0,-0.23531982735758908,0.14426913368056218,0.9286050302577102,-0.24799938245796438
-9927.157989501953,-1024.0,4192.0,-15684.0,-170.0,-1205.0,-360.0,-0.1422619987283209,0.09194395585193255,0.9558086063364346,-0.2402867885534358
-9927.17357802391,-412.0,3584.0,-15396.0,-980.0,-870.0,414.0,-0.052636127563612224,0.11953988623381484,0.9768950805508961,-0.16916162469594428
-9927.18915104866,-60.0,2620.0,-15128.0,-942.0,247.0,2592.0,-0.024807840983902475,0.33874071210589396,0.9357293583755869,-0.09513079870221756
-9927.204741716385,-828.0,2304.0,-15416.0,-982.0,1251.0,3411.0,-0.0660055120482365,0.5983540500160462,0.7983820872551521,0.014203730451953844
-9927.22033047676,-1840.0,2784.0,-15908.0,-486.0,1569.0,3460.0,-0.1459826139132743,0.7969721199847449,0.5767307220944224,0.10443270845149645
-9927.235953330994,-2504.0,4004.0,-15752.0,405.0,258.0,2577.0,-0.20503386182676825,0.8960710059321619,0.38792330815179366,0.06733034104097413
-9927.251537799835,-1944.0,4836.0,-15856.0,-1035.0,-821.0,1016.0,-0.1008984809551897,0.9439067002042397,0.3138000589762297,0.019727159881582086
-9927.267154455185,-824.0,2948.0,-16608.0,-2625.0,-649.0,-355.0,0.13039371052698565,0.9323338667533219,0.33487406605449416,0.040129802440753384
-9927.282776594162,-196.0,1648.0,-16984.0,-1122.0,751.0,2650.0,0.1840536776266064,0.9625590159318238,0.11993636772582655,0.15880696551856832
-9927.298375368118,-1228.0,3000.0,-16772.0,184.0,1146.0,5348.0,0.07431261051893116,0.9075401527299559,-0.27820506518578575,0.3056966614239067
-9927.31399345398,-2440.0,3992.0,-16484.0,-179.0,1191.0,4097.0,0.007614118605284631,0.7264561863215061,-0.5620165326375818,0.3953996100087958
-9927.32959985733,-2972.0,3608.0,-16128.0,-642.0,337.0,1600.0,0.009538977302325833,0.6286787314464677,-0.6775405259351105,0.3815899582725674
-9927.345176935196,-2408.0,2568.0,-15460.0,-195.0,-410.0,37.0,-0.005239611281879356,0.6395536217081078,-0.6859453341486701,0.3470197544713077
-9927.36077618599,-1572.0,2252.0,-15608.0,1102.0,-912.0,-118.0,-0.11684395320664949,0.6685922609898821,-0.6406462031650504,0.35903247974756347
-9927.37635588646,-804.0,3296.0,-15384.0,1698.0,-479.0,569.0,-0.25708874322189335,0.6264441312701425,-0.6079543544749287,0.41456559358050515
-9927.391992330551,-548.0,4112.0,-16068.0,1761.0,141.0,965.0,-0.3749226367186302,0.5227629500659343,-0.5912409094973599,0.48640117336520283
-9927.407573223114,-612.0,4544.0,-15568.0,497.0,610.0,296.0,-0.37753007501230207,0.4642154716225072,-0.6021448027604399,0.5285798661281849
-9927.423132896423,-1040.0,3664.0,-15988.0,-1199.0,657.0,-849.0,-0.2526447323343602,0.5130938930605131,-0.6385901909788377,0.5148862632789089
-9927.438720941544,-1224.0,2904.0,-16448.0,-951.0,416.0,-328.0,-0.17125348113065533,0.5313555600988583,-0.6729114941257375,0.48530777350680104
-9927.454321146011,-1312.0,2628.0,-16996.0,-106.0,182.0,196.0,-0.16381298477210549,0.5136590154303907,-0.6891255821840764,0.48417523053807
-9927.469944238663,-1916.0,2892.0,-16060.0,-47.0,-860.0,-779.0,-0.1795169240788567,0.5945606836219444,-0.640745236461585,0.4513499855013398
-9927.48553776741,-1488.0,2992.0,-16016.0,-372.0,-1632.0,-2018.0,-0.16755149090711385,0.7580142563144264,-0.5119902831713713,0.367704820551743
-9927.501167058945,-708.0,2764.0,-16352.0,-487.0,-1378.0,-792.0,-0.16957167964714817,0.8360779716271123,-0.45041274011483634,0.2633390103341762
-9927.516762018204,-532.0,2656.0,-16336.0,-5.0,-586.0,598.0,-0.20525090769223214,0.8240037565285876,-0.4842367687453236,0.21072405157783736
-9927.532354593277,-1084.0,3440.0,-16132.0,618.0,-474.0,1565.0,-0.29488566961526563,0.7469604051987312,-0.5703813418775999,0.17250426011786443
-9927.547976016998,-1488.0,3768.0,-15752.0,-351.0,-616.0,1250.0,-0.3187511337975915,0.6976453508568331,-0.6363846133480708,0.08187370166556848
-9927.563561201096,-1476.0,2608.0,-15740.0,-428.0,-755.0,694.0,-0.33772089845839576,0.6733002788369394,-0.6576917095119593,-0.007276297258233433
-9927.579125881195,-1432.0,2468.0,-15924.0,442.0,-163.0,1652.0,-0.3675913742349392,0.5591636245835175,-0.7420435154944077,-0.03980004577123625
-9927.59470629692,-2116.0,3512.0,-15932.0,342.0,352.0,1295.0,-0.35411159115286006,0.46222154496220486,-0.8119173513130804,-0.04179041780951766
-9927.610292196274,-2412.0,3604.0,-15608.0,-216.0,237.0,-124.0,-0.32861318600221384,0.4783402474492495,-0.8131961587661053,-0.04377201187650031
-9927.625868558884,-2224.0,3956.0,-15676.0,-217.0,-127.0,-1078.0,-0.3308523027747269,0.5579956620792698,-0.7602995506193555,-0.03349907726168189
-9927.641445875168,-1480.0,3652.0,-16216.0,-1093.0,-279.0,-1523.0,-0.29626486029273613,0.6805701455740931,-0.6659370652289182,-0.07469427463519995
-9927.657038927078,-724.0,2308.0,-16196.0,-999.0,53.0,-1008.0,-0.23828205746687683,0.7595546408609146,-0.5964401538781454,-0.10274994636404092
-9927.672700166702,-760.0,2604.0,-16324.0,628.0,280.0,1077.0,-0.25378947971287846,0.6887292714294617,-0.6751697146916175,-0.07340808556657209
-9927.688265323639,-1576.0,3940.0,-15788.0,-92.0,419.0,641.0,-0.21865678527168292,0.6542214131861717,-0.720829005972877,-0.06774287365838193
-9927.703885555267,-1748.0,3144.0,-15936.0,-531.0,225.0,-245.0,-0.17505598045919193,0.6800895191656956,-0.707002105484908,-0.0835564029045706
-9927.719471216202,-1656.0,2956.0,-16096.0,79.0,522.0,-44.0,-0.14737851239066815,0.6846810728564835,-0.7122369756996279,-0.047009499081103176
-9927.73509144783,-1984.0,3084.0,-16100.0,424.0,321.0,-331.0,-0.15358893388265407,0.7000835689474615,-0.697342348711786,0.00266168587636389
-9927.750674247742,-2012.0,3672.0,-16128.0,724.0,-115.0,-1320.0,-0.2025060331325941,0.7641634030550153,-0.609777257584896,0.05672121391968353
-9927.766300201416,-1760.0,3664.0,-16120.0,-372.0,-225.0,-1839.0,-0.17790314278040897,0.8581598344161006,-0.47858938180407173,0.05351984686245489
-9927.781880617142,-820.0,2812.0,-16140.0,-582.0,-326.0,-1518.0,-0.1391044321939027,0.9225471368935968,-0.3588545345512398,0.027931347719936942
-9927.797504901886,-460.0,2196.0,-16192.0,313.0,233.0,391.0,-0.15747204663751413,0.904931601489443,-0.3919700226865089,0.05158345150028544
-9927.813081741333,-1060.0,3264.0,-16048.0,77.0,519.0,643.0,-0.14802374012381708,0.8772899208929192,-0.44839258708434293,0.08599683079778124
-9927.828712463379,-1960.0,3172.0,-15808.0,-971.0,-57.0,-343.0,-0.07280541243461573,0.9000645231853854,-0.4269798702777029,0.04765937893978635
-9927.844289779663,-1556.0,2348.0,-15636.0,-378.0,-175.0,-387.0,-0.04774236492288723,0.9164990693559676,-0.3965665557455929,0.022024743478474582
-9927.859889268875,-1288.0,3328.0,-15860.0,289.0,282.0,-148.0,-0.060519428573387886,0.9192504969342205,-0.38509107551324595,0.054961679481171415
-9927.875507354736,-1812.0,4176.0,-15848.0,-662.0,246.0,-1135.0,0.006483333609522714,0.9532572045006629,-0.2965040250440452,0.05782760228099883
-9927.891105651855,-1472.0,3660.0,-15904.0,-924.0,332.0,-1279.0,0.09761380956815731,0.9745546325783943,-0.1926661366096011,0.059954750483284226
-9927.906698703766,-1216.0,3260.0,-16088.0,-1199.0,524.0,-337.0,0.20870001456014012,0.9606444582294353,-0.16464867175414155,0.08060610203494907
-9927.92233133316,-1000.0,2484.0,-16268.0,-1015.0,1028.0,284.0,0.3038367580431328,0.9233685407216776,-0.17542534598444182,0.1558836439579122
-9927.937997102737,-1684.0,3144.0,-16028.0,-590.0,401.0,-141.0,0.3585076336906871,0.9027403687376815,-0.16111899879834177,0.17485071193186255
-9927.953600168228,-1784.0,3236.0,-16336.0,-1167.0,-261.0,-859.0,0.45591507172807333,0.8752356710347777,-0.11843249683981931,0.1098986406275095
-9927.969234466553,-1076.0,2592.0,-16328.0,-1103.0,-804.0,-705.0,0.5335767269269163,0.8390106774685315,-0.10620052372153459,0.008854848221535835
-9927.985534191132,-844.0,2700.0,-16176.0,-638.0,-665.0,43.0,0.5719744058284947,0.8069949709822855,-0.14035905544855568,-0.043631770993512925
-9928.001270771027,-1208.0,3192.0,-15928.0,-411.0,-302.0,615.0,0.5978492172672017,0.7761106561197452,-0.19671242030621824,-0.03915081822443389
-9928.0168902874,-1860.0,3748.0,-15852.0,-886.0,-700.0,-143.0,0.6419437958135918,0.7265849979112158,-0.21945816135410973,-0.10872221135476162
-9928.032523155212,-1748.0,3596.0,-15684.0,-1040.0,-1147.0,-615.0,0.6727787236886567,0.6624824612969695,-0.23244300412936203,-0.23335815232617996
-9928.048109054565,-1552.0,3024.0,-16052.0,-1182.0,-1597.0,-1069.0,0.673811868301128,0.571523766529569,-0.23586643013770744,-0.40460496482679487
-9928.063786268234,-1180.0,2588.0,-16264.0,-418.0,-1393.0,-588.0,0.639100067223568,0.5054028460158213,-0.2712506882766194,-0.5123886527074919
-9928.079377174377,-1312.0,3376.0,-16012.0,-63.0,-1223.0,-145.0,0.6028223691604816,0.4482939135177472,-0.32846627305277976,-0.5724925028413067
-9928.094991207123,-1544.0,3612.0,-15760.0,-760.0,-1220.0,170.0,0.6011786478797662,0.3400315667412319,-0.35862972289563305,-0.6279709299073967
-9928.110650777817,-1512.0,3556.0,-15832.0,-935.0,-1259.0,461.0,0.6085202332229859,0.2057023361156893,-0.38343416085583937,-0.6636022294745317
-9928.126251459122,-1692.0,3812.0,-15816.0,-691.0,-586.0,1003.0,0.6547598616295474,0.10100066643793378,-0.3900753678035871,-0.639476032710254
-9928.14183974266,-2008.0,4036.0,-15972.0,-1113.0,-230.0,1214.0,0.7168839266191506,-0.016427262397732064,-0.3484291014974088,-0.6036594586643472
-9928.157431840897,-2240.0,3756.0,-16072.0,-1041.0,-143.0,1273.0,0.7700693719907398,-0.1263900492743323,-0.29793748026213895,-0.5497744770551529
-9928.173038482666,-2056.0,3544.0,-15968.0,-677.0,-135.0,1967.0,0.8395976730424467,-0.22580046742192422,-0.24906084472193787,-0.4266832454645297
-9928.188663482666,-2004.0,3808.0,-15976.0,-244.0,252.0,2424.0,0.9098901174980227,-0.2807534671841692,-0.17018465964104432,-0.25360332483302295
-9928.204265832901,-2112.0,4200.0,-15776.0,-38.0,334.0,2599.0,0.9469100748928759,-0.3072526553785014,-0.07734209105505149,-0.05454646441759709
-9928.21993303299,-1888.0,4012.0,-15708.0,-362.0,230.0,2061.0,0.9328479366194748,-0.3444981461057287,-0.0013598758979836156,0.10542250809028546
-9928.235519170761,-1528.0,3576.0,-15880.0,-108.0,160.0,2559.0,0.8840520428685273,-0.3467597936217117,0.08556081090514417,0.30147799034865785
-9928.251109361649,-1328.0,3552.0,-15808.0,341.0,465.0,3034.0,0.7830003129314714,-0.2995886938990609,0.2147218955343486,0.5010505284052786
-9928.266730070114,-1436.0,3772.0,-15676.0,260.0,464.0,3654.0,0.5912532179037097,-0.2225362803662221,0.3365292903876652,0.6983160265599303
-9928.282309293747,-1444.0,4124.0,-15612.0,411.0,573.0,3670.0,0.34097354714650674,-0.12222767925459345,0.43987474591156905,0.8217710401806563
-9928.297890663147,-1580.0,4056.0,-15720.0,135.0,536.0,3300.0,0.081721343369653,-0.028829866707198462,0.4808956872328027,0.8724848416015002
-9928.31352519989,-1664.0,3852.0,-15584.0,207.0,835.0,2984.0,-0.17371724289693102,0.033064058646810786,0.49262712271826314,0.8520842713654643
-9928.32915520668,-1624.0,4012.0,-15712.0,381.0,836.0,2766.0,-0.403515303985139,0.08141100006662406,0.48514170367401727,0.7714824533806358
-9928.344744205475,-1656.0,4280.0,-15848.0,153.0,849.0,2753.0,-0.6068524676132184,0.13129575574035102,0.43277975794099643,0.6536001745661105
-9928.360355138779,-1636.0,4172.0,-16044.0,-368.0,983.0,2120.0,-0.7448734380295648,0.17117285992076087,0.3288173042228585,0.5547455216476971
-9928.375965833664,-1484.0,3968.0,-15928.0,-222.0,975.0,2126.0,-0.8545985898012578,0.19538251129463802,0.218697119995354,0.428553957274507
-9928.391559123993,-1424.0,4020.0,-16128.0,-101.0,880.0,1520.0,-0.915727447500369,0.19679614213481528,0.12224032100411486,0.3282861926065784
-9928.407131433487,-1432.0,3760.0,-15816.0,-368.0,665.0,542.0,-0.9288978200504241,0.21239295677396922,0.04933596964871101,0.299339329051834
-9928.422786474228,-1344.0,3228.0,-16324.0,-175.0,698.0,188.0,-0.9315518682141928,0.20899688694614416,-0.015171228001392192,0.2971552656682994
-9928.438331365585,-1476.0,3336.0,-16368.0,302.0,683.0,285.0,-0.9412122335935222,0.1662358346566667,-0.06797972460191962,0.2861187439734444
-9928.453951835632,-1644.0,3788.0,-15944.0,223.0,48.0,-432.0,-0.9325047510047639,0.1492783669737959,-0.06029862021433265,0.3232876968080101
-9928.46955871582,-1436.0,3400.0,-15848.0,-126.0,-365.0,-1740.0,-0.8731736087568536,0.1770010132251938,-0.011602837753286863,0.45398663465333317
-9928.485170125961,-1208.0,3080.0,-16028.0,100.0,-661.0,-1922.0,-0.7868643237834401,0.19476224670667994,0.07130585594148331,0.5812294539362648
-9928.500744342804,-1108.0,3360.0,-16088.0,257.0,-806.0,-1221.0,-0.7181850278713765,0.2088523345069559,0.1593444432242692,0.6443603933560258
-9928.516311645508,-1256.0,4092.0,-15692.0,655.0,-887.0,-1346.0,-0.6347136254757781,0.19681214933655275,0.27345288870910206,0.6954330371542379
-9928.531947612762,-1216.0,4264.0,-15572.0,397.0,-622.0,-1744.0,-0.5137606039545533,0.16871855022068385,0.3573978902913248,0.7614793763792905
-9928.547552347183,-1216.0,4340.0,-15848.0,27.0,-118.0,-1904.0,-0.378633743075012,0.11442048207766596,0.38747703160690605,0.8327100286793842
-9928.56317782402,-1460.0,4124.0,-15996.0,-241.0,59.0,-1851.0,-0.2404597399314218,0.05478836306823911,0.3817594082480803,0.8907508646970215
-9928.578816890717,-1640.0,3784.0,-16060.0,-136.0,140.0,-1751.0,-0.10705268552908659,-0.011460341374741233,0.3725445398508164,0.9217477686026305
-9928.594423770905,-1656.0,3516.0,-16020.0,62.0,-42.0,-1620.0,0.024464055638993797,-0.06077223075196591,0.37288381235419216,0.9255624821887096
-9928.610035657883,-1464.0,3184.0,-15964.0,421.0,-70.0,-1415.0,0.14208425793640686,-0.09950321653437502,0.3962400885362543,0.9016124254815676
-9928.625613212585,-1752.0,2836.0,-15956.0,773.0,54.0,-1279.0,0.24545358855613425,-0.13730664890488387,0.4431398748648364,0.8511912072714357
