programtime,ax,ay,az,gx,gy,gz,q0,q1,q2,q3
-8409.222046852112,3320.0,104.0,16196.0,-24.0,-281.0,-122.0,0.9996325530459707,-0.002083297038618988,-0.024842582512605103,-0.010642596410069127
-8409.23763537407,3088.0,152.0,16036.0,-95.0,-350.0,-154.0,0.9981057365574794,-0.010328707341045962,-0.05560889731195185,-0.024205515806600235
-8409.253220796585,3040.0,236.0,16032.0,-90.0,-479.0,-185.0,0.9942533079099946,-0.018141249182562727,-0.09750836640447681,-0.04029110657775525
-8409.268778324127,3080.0,192.0,15976.0,-125.0,-571.0,-209.0,0.9870274429413014,-0.02884837848604386,-0.1466925636288831,-0.05853110041224362
-8409.284362316132,3188.0,28.0,16056.0,-168.0,-676.0,-215.0,0.9749435953440776,-0.04379627773001981,-0.2039172682643992,-0.07736032353954847
-8409.299971103668,3372.0,-180.0,16168.0,-175.0,-762.0,-237.0,0.9567661899892352,-0.05938011671539181,-0.2675211892984964,-0.09749293671167766
-8409.315551757812,3528.0,-336.0,16336.0,-155.0,-837.0,-199.0,0.9321153533678712,-0.07452042950100976,-0.3358894782648521,-0.11307489550664643
-8409.331110239029,3612.0,-300.0,16888.0,-64.0,-725.0,-190.0,0.9067240315470313,-0.08108276119870074,-0.3943888650391872,-0.12543739308752605
-8409.34668302536,3728.0,-360.0,16580.0,50.0,-273.0,-201.0,0.8951853879666047,-0.07311917652677044,-0.4175534247805747,-0.13764390523789738
-8409.362255334854,3684.0,-320.0,16408.0,58.0,-307.0,-237.0,0.8811126373523193,-0.06356775334905534,-0.4432733397315172,-0.1520144970568962
-8409.377863168716,3572.0,-84.0,16208.0,12.0,-267.0,-305.0,0.8663697472565032,-0.05432617648839164,-0.46515858981991953,-0.17343475402467326
-8409.39350605011,3504.0,32.0,16336.0,-53.0,-345.0,-341.0,0.8462944032315668,-0.04964755373326797,-0.4914160212971515,-0.19957754753404985
-8409.409128665924,3564.0,72.0,16412.0,-107.0,-264.0,-279.0,0.8292572769997661,-0.05013968376195281,-0.5097614574886152,-0.22352099926912314
-8409.424732923508,3456.0,104.0,16600.0,-133.0,-107.0,-641.0,0.8101618697533737,-0.0332651010203067,-0.5166645859784237,-0.2749343256990122
-8409.440310001373,3196.0,12.0,16368.0,-170.0,-187.0,-844.0,0.7787916685716599,-0.011676746403903126,-0.5265209456151823,-0.3407680800563384
-8409.455931663513,3324.0,-36.0,16604.0,-181.0,-201.0,-1179.0,0.73035023118123,0.024078870602767477,-0.5328607369091339,-0.4266944842210567
-8409.47156214714,3268.0,16.0,16632.0,-279.0,-205.0,-1490.0,0.6601529402659448,0.06733273289359847,-0.5275494505664919,-0.530429991371434
-8409.487160682678,3252.0,0.0,16164.0,-248.0,-206.0,-1715.0,0.5662880493934819,0.12102996693198644,-0.5117847833781151,-0.6346226656220085
-8409.502774000168,3292.0,-212.0,15696.0,-189.0,-359.0,-1876.0,0.44225528683292675,0.17311635997105132,-0.49222140377341406,-0.72949234186935
-8409.518357276917,3292.0,-556.0,15304.0,-86.0,-501.0,-2075.0,0.2850667558349868,0.22310443240130573,-0.4665401710452921,-0.8070326051415996
-8409.533934116364,3100.0,-1020.0,15164.0,83.0,-864.0,-2182.0,0.09268396010223512,0.247902637815096,-0.4420619792095329,-0.8570502740454816
-8409.549536705017,2972.0,-916.0,15148.0,84.0,-1262.0,-2427.0,-0.1355529696812523,0.24092828886922563,-0.39478692997365383,-0.8761975986928506
-8409.565136671066,3024.0,-832.0,15148.0,239.0,-1609.0,-2537.0,-0.37722252256253797,0.19568342516755094,-0.3293121609745677,-0.8431872071020239
-8409.580716609955,3320.0,-528.0,15192.0,370.0,-1940.0,-2406.0,-0.5948304819731576,0.1058974261875018,-0.24258687698539746,-0.7590217651404441
-8409.596323251724,2968.0,-732.0,15400.0,457.0,-2355.0,-2155.0,-0.7620794494929638,-0.027282389217655984,-0.12554982691131,-0.6346084027663185
-8409.611958742142,2904.0,-708.0,15904.0,508.0,-2670.0,-1871.0,-0.8588321206854048,-0.1810996480980835,0.018984108224031616,-0.47880049036388705
-8409.627542734146,2912.0,-720.0,16228.0,512.0,-2711.0,-1444.0,-0.8749079246864754,-0.3231603398739124,0.1718660231248366,-0.3171207784876851
-8409.6431453228,2940.0,-632.0,16668.0,590.0,-2533.0,-896.0,-0.8218317474774622,-0.43907368559056537,0.31470520044633404,-0.18101799433230628
-8409.658769130707,2600.0,-696.0,16872.0,811.0,-1604.0,-158.0,-0.7401864700401412,-0.520383053011988,0.4058319201329453,-0.1289415383367378
-8409.674382686615,2568.0,-696.0,16896.0,963.0,-796.0,738.0,-0.6548215411374604,-0.5608381861358543,0.4760874880971636,-0.17323389365692585
-8409.690008163452,2568.0,-836.0,16692.0,939.0,-215.0,1709.0,-0.565935745733873,-0.538817034667869,0.5497914210391924,-0.29516491696012037
-8409.705598831177,2916.0,-1088.0,16292.0,793.0,-333.0,2551.0,-0.4351609668756703,-0.45177011909408665,0.6480880322602383,-0.4318803015218439
-8409.721169948578,3324.0,-1156.0,16068.0,741.0,-1197.0,2970.0,-0.2175486147520723,-0.34313283767311814,0.752337320192989,-0.5185759467760529
-8409.736746311188,4008.0,-1184.0,15924.0,536.0,-2023.0,3111.0,0.06856632907709584,-0.22862563139228978,0.816976751376955,-0.5249552046574311
-8409.752336025238,4916.0,-544.0,15400.0,464.0,-1849.0,3366.0,0.34479760895523504,-0.06682285603758358,0.8070056967977326,-0.47475374680537197
-8409.76796412468,6600.0,840.0,16024.0,-169.0,-519.0,3430.0,0.5000708776243472,0.14182427055381888,0.7831450106119411,-0.34131933140025217
-8409.783529996872,6828.0,1988.0,16380.0,-411.0,299.0,3557.0,0.5636802912171469,0.3587191281938957,0.7293230420567736,-0.1472175828025211
-8409.79910326004,6920.0,1924.0,17788.0,115.0,-52.0,1849.0,0.5796840960518947,0.47523473141531747,0.6587694658094735,-0.06435129958446607
-8409.814683437347,7300.0,1860.0,18608.0,834.0,-504.0,827.0,0.5752195156848579,0.5586805845726137,0.5905550082502523,-0.09079259566409958
-8409.83028268814,6356.0,1332.0,17540.0,1571.0,-1069.0,133.0,0.5473285709093585,0.627312047206946,0.5108752617618512,-0.21428368536850775
-8409.845866918564,5404.0,992.0,16116.0,2200.0,-1438.0,-237.0,0.4742093178501037,0.6771872171482037,0.40338546667121455,-0.3922029590322556
-8409.861495494843,5216.0,988.0,14696.0,2373.0,-1296.0,-359.0,0.35735528178638987,0.6988238307850523,0.2817949701029906,-0.55184603915488
-8409.8771443367,5444.0,700.0,14776.0,2100.0,-584.0,-291.0,0.22553192669025712,0.7159071530511995,0.1769014635739842,-0.6366460322965105
-8409.892735004425,5332.0,-52.0,15216.0,1844.0,-89.0,-343.0,0.09141625464219122,0.7321235263111421,0.09284434859611719,-0.6685941500960766
-8409.90831542015,5220.0,172.0,15584.0,1608.0,466.0,-23.0,-0.016283708036713716,0.7637779411540373,0.0041289993314127405,-0.6452604503792216
-8409.924045085907,4696.0,628.0,15532.0,1205.0,773.0,366.0,-0.0756605226281931,0.7990531052811448,-0.08851627512709992,-0.5898766729527553
-8409.939648151398,4572.0,1436.0,15592.0,627.0,676.0,749.0,-0.07520317036214122,0.8194872721648667,-0.17656521912827342,-0.5400090900359487
-8409.955253839493,4740.0,1996.0,15276.0,-131.0,371.0,948.0,-0.015359995514482479,0.8198964699064935,-0.2396813726431097,-0.5196986518941341
-8409.9708340168,4772.0,2224.0,15052.0,-947.0,12.0,529.0,0.07634429072350869,0.8069886947078077,-0.2335512728090139,-0.537023834533443
-8409.98754310608,4820.0,2140.0,15160.0,-1303.0,-840.0,420.0,0.1690744771990929,0.7430399756945876,-0.20564049126882972,-0.6140174297447547
-8410.003541707993,5376.0,1516.0,15260.0,-1400.0,-1385.0,-207.0,0.22069281692318368,0.6422507587449494,-0.1356028460243035,-0.7214017685036237
-8410.019338846207,5668.0,676.0,15612.0,-1247.0,-1345.0,-909.0,0.21409265428730956,0.5356808486925974,-0.031524885178667555,-0.8162208924909145
-8410.035143375397,5588.0,1004.0,15656.0,-1175.0,-946.0,-1061.0,0.1884503506059374,0.4433645742599652,0.08303679376645542,-0.8723641501854407
-8410.050936222076,5476.0,1404.0,15692.0,-1349.0,-384.0,-1175.0,0.15207047792162287,0.3784293741989857,0.22204457085606313,-0.8856421326028928
-8410.066732168198,5420.0,1736.0,15768.0,-1835.0,366.0,-1304.0,0.1027843454369746,0.350052473088311,0.4038160787358833,-0.8389464935097023
-8410.082629919052,5280.0,872.0,15352.0,-2250.0,1015.0,-1036.0,0.058314714056188446,0.3579195106290541,0.593284449387186,-0.7186839222849964
-8410.098348379135,4440.0,152.0,15124.0,-2581.0,143.0,-1166.0,0.05667516304340172,0.28470722541557225,0.7690928697369828,-0.5694083590973202
-8410.114010572433,4712.0,-312.0,15164.0,-2674.0,30.0,-1240.0,0.05759050751681124,0.18370195432971728,0.9035109349987187,-0.38289021371293847
-8410.129633903503,4664.0,-156.0,15720.0,-2679.0,-29.0,-1326.0,0.05660781429231034,0.06257148360941417,0.9813024658231094,-0.1729908534271363
-8410.145246505737,4940.0,188.0,16580.0,-2661.0,-117.0,-1385.0,0.05826777608660889,-0.06867361328453321,0.9948778980912837,0.045899553351163934
-8410.16089105606,5080.0,256.0,16936.0,-2430.0,-148.0,-1374.0,0.06027563713434826,-0.1940736897981902,0.9483223779407837,0.24369431259859461
-8410.176513910294,5592.0,304.0,17196.0,-2183.0,-9.0,-1483.0,0.05415021774912601,-0.3197517929063756,0.854321116883718,0.4061551108842988
-8410.192140102386,5760.0,312.0,17084.0,-1866.0,132.0,-1563.0,0.046576094194357175,-0.4399443699099693,0.7288155878105179,0.5225968405937099
-8410.207799196243,6056.0,332.0,16744.0,-1439.0,337.0,-1764.0,0.049338891167105804,-0.5621285902054215,0.5850738115396074,0.5824652409737269
-8410.223445653915,6044.0,212.0,16600.0,-1149.0,744.0,-1759.0,0.04356386733300863,-0.6819098445765098,0.43535026988485087,0.5861495507494822
-8410.239089488983,5244.0,368.0,17016.0,-1065.0,2303.0,-1743.0,-0.01755553046112068,-0.8401912023460938,0.2760498506810257,0.4664408073801407
-8410.254711389542,3660.0,-320.0,18224.0,-934.0,4629.0,-1003.0,-0.14447217169159754,-0.968880107303511,0.14500610513208334,0.1391846211069087
-8410.270324230194,2548.0,-2560.0,17984.0,-157.0,4633.0,70.0,-0.20139388211292242,-0.9476369167013342,0.08397262811222402,-0.23318099425167818
-8410.28598356247,1212.0,-4040.0,17096.0,455.0,2824.0,1692.0,-0.14408482626120575,-0.8506492134213495,0.15849957308083748,-0.4801180728530326
-8410.301577806473,1624.0,-4384.0,14352.0,598.0,1268.0,2380.0,-0.016983661126134985,-0.7505251715686043,0.286023924873637,-0.5954946150021422
-8410.317196130753,2296.0,-3216.0,13020.0,521.0,-381.0,1981.0,0.12756180465556646,-0.7099174460962324,0.3829933482043215,-0.5771146341520558
-8410.332805871964,3152.0,460.0,13336.0,503.0,-1775.0,1743.0,0.298651565829914,-0.7180062756852321,0.4353079029796211,-0.4536311937107584
-8410.348414421082,4280.0,3036.0,14664.0,-244.0,-1646.0,1287.0,0.3903650673606409,-0.7284384685826426,0.4747483685796959,-0.302665654153909
-8410.364072799683,5468.0,4056.0,15564.0,-743.0,-432.0,846.0,0.3812996580988512,-0.7260839999285774,0.5304927372026036,-0.2144529122131626
-8410.379772424698,4760.0,2960.0,17148.0,-988.0,160.0,407.0,0.3175171797352573,-0.7338586967797146,0.5775274119364896,-0.16460966616723166
-8410.395375967026,3912.0,160.0,17592.0,-654.0,46.0,-160.0,0.27057321599362055,-0.7580677402229455,0.5769335087728719,-0.13882061257309236
-8410.41097164154,3696.0,-1356.0,17444.0,-34.0,134.0,-646.0,0.2533625442171093,-0.788461666346935,0.5368541808685352,-0.1610068643667771
-8410.426597833633,3640.0,-2408.0,16832.0,540.0,618.0,-937.0,0.2469803930570612,-0.8069725036924819,0.4756197914606017,-0.24815696182182842
-8410.4421916008,3360.0,-2564.0,16828.0,1008.0,792.0,-867.0,0.26396348955308224,-0.7968145044858246,0.4060739583043896,-0.3612670231435116
-8410.457807302475,3252.0,-1980.0,16840.0,1137.0,837.0,-587.0,0.2923130815635182,-0.7582585865925794,0.3455806537716124,-0.46922381647168004
-8410.473395347595,3300.0,-276.0,16188.0,930.0,674.0,-189.0,0.32416016722862606,-0.7089117528272667,0.31053856129708485,-0.5439945906286369
-8410.489010334015,3564.0,408.0,15816.0,565.0,637.0,58.0,0.3436894583328178,-0.659200527018863,0.3044281539208768,-0.5955297813789622
-8410.504633426666,3132.0,380.0,15300.0,254.0,446.0,262.0,0.35965303399569565,-0.6205610874114349,0.3192170941880976,-0.6193981584623378
-8410.520239591599,3044.0,-396.0,14888.0,-64.0,136.0,294.0,0.36817984222969924,-0.6066811722172143,0.34266362291451263,-0.615599870519773
-8410.53591799736,3196.0,-1448.0,15060.0,-27.0,-408.0,451.0,0.40266685663584423,-0.6150255079093964,0.3543169500548999,-0.577981423656151
-8410.551524162292,3440.0,-2132.0,15372.0,239.0,-896.0,582.0,0.4704827688669684,-0.6308690711640239,0.3403911168305257,-0.5145717314726687
-8410.567138671875,4136.0,-2016.0,16476.0,630.0,-907.0,671.0,0.5587803171888451,-0.6217694277681622,0.30976025123166034,-0.45300764074360195
-8410.58279633522,4748.0,-1492.0,17200.0,877.0,-523.0,550.0,0.6390655789834102,-0.5817349786987016,0.27792273906507914,-0.41945029673083284
-8410.598417043686,4876.0,-832.0,17084.0,867.0,45.0,362.0,0.6929886895676399,-0.5210800928121141,0.26608393272346015,-0.42123812001368144
-8410.614005804062,4660.0,-152.0,16988.0,639.0,617.0,379.0,0.7191777112253739,-0.4492259323344153,0.29599061346116345,-0.4397374650149702
-8410.62959432602,3944.0,-208.0,16108.0,292.0,786.0,475.0,0.7260638550468231,-0.386970567463256,0.3513787825903708,-0.44678631296965726
-8410.64519238472,3304.0,-716.0,15548.0,212.0,598.0,663.0,0.7384536396267898,-0.3287250113265348,0.4019695060897001,-0.4301704374132645
-8410.66080904007,3168.0,-1160.0,14984.0,233.0,169.0,777.0,0.7664621202772722,-0.27929146130823324,0.42513491033483014,-0.3921637487516862
-8410.676433563232,3136.0,-1264.0,15292.0,312.0,-411.0,684.0,0.8105479959572772,-0.24635283173765762,0.40233244672302,-0.3470602697779556
-8410.692085027695,3428.0,-824.0,15784.0,288.0,-851.0,618.0,0.8615290946161533,-0.22895394366302466,0.34493637133608385,-0.29388196702165104
-8410.70771741867,3964.0,-440.0,15672.0,266.0,-1149.0,452.0,0.907601384112909,-0.22338583320315325,0.2589586111968156,-0.24351372603506657
-8410.723319292068,4276.0,-80.0,16280.0,291.0,-1160.0,315.0,0.9407813034116888,-0.21650208540426488,0.1658261997668663,-0.2013927944030964
-8410.738921642303,4680.0,-144.0,16220.0,303.0,-962.0,281.0,0.961408548218405,-0.20347498127858862,0.0862145168944646,-0.16388591300935776
-8410.754576921463,4724.0,-364.0,16216.0,301.0,-755.0,287.0,0.9738224203834779,-0.1861546025032585,0.023344876797292236,-0.12834085184631572
-8410.7701690197,4572.0,-508.0,16324.0,173.0,-466.0,239.0,0.979156600682157,-0.1757660872320337,-0.014524646662082712,-0.10073563698634953
-8410.785821199417,4304.0,-604.0,16148.0,161.0,-172.0,139.0,0.9823817262065495,-0.1634046156818595,-0.02869547758562956,-0.0860328144107632
-8410.80141043663,4344.0,-612.0,16312.0,178.0,-133.0,33.0,0.9846724557441154,-0.14894357055036841,-0.0411486177925733,-0.08088732251917652
-8410.816999197006,4040.0,-436.0,15880.0,195.0,-224.0,-38.0,0.9858196186982568,-0.13331935089010652,-0.062424530399468464,-0.08055313819007716
-8410.832583665848,3952.0,-444.0,15648.0,185.0,-495.0,57.0,0.9846325183033956,-0.12078163763882706,-0.10569062751683002,-0.06884831997874054
-8410.848157167435,4112.0,-404.0,15732.0,275.0,-687.0,192.0,0.9801888707446426,-0.10250810436764894,-0.1640545229314426,-0.042520344695576334
-8410.863822937012,4320.0,-448.0,15828.0,298.0,-727.0,305.0,0.9710045330703497,-0.08356646854702214,-0.22390749147814032,-0.00568131599001053
-8410.87943983078,4604.0,-420.0,16020.0,298.0,-589.0,313.0,0.9599497445215502,-0.06440504109186278,-0.270915157006191,0.03087808898356219
-8410.895080327988,4848.0,-360.0,16292.0,290.0,-316.0,323.0,0.9522766449881868,-0.04672677134734905,-0.29421947116220365,0.06648836769336765
-8410.910682439804,4620.0,-252.0,16152.0,265.0,32.0,173.0,0.9528898719581333,-0.029237250798030797,-0.2889455396481418,0.08750171542792416
-8410.926347970963,4496.0,-68.0,16440.0,193.0,207.0,53.0,0.9579723861584645,-0.016031638082232104,-0.26976817693671734,0.09621343279656092
-8410.942015886307,4100.0,-92.0,16264.0,188.0,330.0,-29.0,0.9657848460516626,-0.002352028341218064,-0.24022752545222195,0.09769767200271792
-8410.957628011703,4284.0,-196.0,16032.0,196.0,322.0,10.0,0.9720274070387318,0.011232326990467056,-0.2110077810862669,0.10252936709542741
-8410.973220825195,3964.0,-340.0,15860.0,241.0,99.0,155.0,0.9719479856268789,0.027898256275885398,-0.20023781113576858,0.12018161059069703
-8410.988870382309,3976.0,-416.0,15704.0,323.0,-57.0,302.0,0.9663278605159145,0.050484908984581287,-0.20198294000933745,0.15121055485890633
-8411.004516839981,3984.0,-268.0,15784.0,397.0,-185.0,349.0,0.9556364898783587,0.08002803695838763,-0.2133629859376655,0.18662971024282343
-8411.020101547241,4348.0,-436.0,16028.0,353.0,-221.0,381.0,0.9417744845255926,0.10565987546195123,-0.22820445371079692,0.22320290840505622
-8411.035697221756,3884.0,-296.0,16164.0,245.0,-215.0,231.0,0.9302404623909446,0.12513448028634133,-0.24286221565041793,0.24497344383324232
-8411.051294088364,4320.0,-8.0,16244.0,176.0,-102.0,144.0,0.9229338550756216,0.13834825772049855,-0.24867536889210393,0.2592555103509471
-8411.06687951088,4404.0,32.0,16196.0,114.0,59.0,249.0,0.9170018865288263,0.14057335963961942,-0.2440646832572313,0.28245194467156876
-8411.082494735718,4264.0,-112.0,16128.0,101.0,50.0,-77.0,0.9187322167882911,0.14887131243924237,-0.23640359002144326,0.27907308862171465
-8411.098100662231,4168.0,-416.0,16132.0,196.0,45.0,-11.0,0.917309743475821,0.16348735289047,-0.2276564765059411,0.28282017020377176
-8411.11369895935,4160.0,-468.0,16040.0,286.0,62.0,-255.0,0.9202972694679132,0.1895889516688467,-0.2117084145533106,0.26886523096587683
-8411.12933421135,4232.0,-408.0,16092.0,313.0,130.0,-98.0,0.9194528336471103,0.21314235283647848,-0.19208215959328648,0.2688517585800929
-8411.144933223724,4308.0,-216.0,16208.0,281.0,157.0,-187.0,0.9208281617666176,0.2347587268529699,-0.16922818704757828,0.2613917699019508
-8411.160528421402,4116.0,-64.0,16148.0,170.0,193.0,-243.0,0.9253660436868456,0.2472206882103078,-0.14472686439149815,0.24826145741049174
-8411.176093578339,4300.0,-124.0,15888.0,131.0,303.0,-3.0,0.9261101627330043,0.2508902950694014,-0.11728411750291726,0.25616100816517473
-8411.191772937775,4224.0,-384.0,16116.0,188.0,440.0,-497.0,0.935977426350401,0.2605831842343259,-0.06652690670364292,0.22719338049605187
-8411.207365989685,4120.0,-456.0,16020.0,236.0,442.0,-153.0,0.9352976697844931,0.27142807887573883,-0.022308342970191485,0.2259367272655053
-8411.222949028015,3944.0,-548.0,16356.0,208.0,382.0,-47.0,0.9314291547335134,0.28050057392650807,0.013976699990496926,0.2314385654913375
-8411.238578557968,3932.0,-516.0,16036.0,119.0,299.0,-48.0,0.9288137196840163,0.28371679193897587,0.04171527789426146,0.23466932413249528
-8411.254163742065,3932.0,-264.0,15896.0,52.0,264.0,-13.0,0.9266423794782053,0.2821681950929761,0.0643359920661961,0.2399497663216203
-8411.269769191742,4068.0,-192.0,16104.0,29.0,146.0,-53.0,0.9261970560987572,0.2809127437193225,0.07788275062179587,0.2391261609394943
-8411.285374641418,4040.0,-240.0,15948.0,69.0,75.0,-149.0,0.9270586984142121,0.28366562190322114,0.08885441590004038,0.22847511334906567
-8411.300976514816,3848.0,-288.0,16036.0,130.0,-28.0,-196.0,0.9278395928746992,0.2929509907421602,0.09384240497008675,0.2109194394709253
-8411.316563129425,4044.0,-488.0,15900.0,53.0,-118.0,-175.0,0.9305768494624316,0.29772221760877116,0.0895503113806971,0.19331050183140722
-8411.332170248032,4300.0,-568.0,15820.0,-47.0,-302.0,-332.0,0.939102111560934,0.29596930285700557,0.07262942662574022,0.15879030894909527
-8411.347794771194,4292.0,-164.0,15684.0,-230.0,-132.0,-415.0,0.9508220285950761,0.2758472634071978,0.06911248004202176,0.12275676075697636
-8411.363488912582,4420.0,196.0,15816.0,-508.0,225.0,-484.0,0.9649511370473975,0.22767597167534337,0.0936203847452005,0.09092952541822522
-8411.379143238068,4468.0,140.0,15568.0,-743.0,340.0,-539.0,0.9777100896015485,0.15723577468836514,0.1263877047413369,0.05818968929027289
-8411.394777059555,4248.0,-64.0,15940.0,-818.0,169.0,-506.0,0.9861152554935795,0.08055389927883105,0.14281760032096893,0.026285076229073293
-8411.41038942337,4228.0,36.0,16468.0,-909.0,165.0,-300.0,0.9876418158052542,-0.0018705346779540365,0.15618297814663237,0.01292370342308045
-8411.426017999649,4116.0,-728.0,16492.0,-826.0,436.0,-271.0,0.9784101825815367,-0.07699981581265841,0.19179151674772396,0.0007463840755398552
-8411.441621780396,4004.0,-1040.0,16332.0,-595.0,92.0,-223.0,0.9714271338591981,-0.13130280119832408,0.19750615999310744,-0.008956269555690668
-8411.457223653793,4120.0,-1252.0,16064.0,-418.0,-142.0,-179.0,0.968173993111164,-0.16971898499096133,0.1833035295834029,-0.015310167833435287
-8411.472860574722,4120.0,-764.0,15708.0,-494.0,203.0,-311.0,0.9558811652724127,-0.21574115902731822,0.195965645137245,-0.036666280216937165
-8411.48852777481,4396.0,168.0,15252.0,-900.0,626.0,-464.0,0.9218781622658403,-0.29504035063272604,0.24081454706998887,-0.07141568003842827
-8411.504131555557,4112.0,448.0,14968.0,-1458.0,940.0,-491.0,0.8511582027024873,-0.4116296390611213,0.3089180865584837,-0.10324906786856504
-8411.51977467537,3824.0,328.0,15216.0,-1936.0,1054.0,-261.0,0.7372401917786562,-0.5428153942138519,0.38796163048985616,-0.10636785556869659
-8411.535374403,3480.0,-16.0,15316.0,-2262.0,908.0,7.0,0.5863650229996298,-0.6647791638643515,0.4574205701032397,-0.07078944229815781
-8411.55097746849,3596.0,-980.0,15476.0,-2311.0,221.0,332.0,0.43652263659185764,-0.7528069139578636,0.4920360512822512,0.02510502496913608
-8411.566634178162,3900.0,-1656.0,15596.0,-2156.0,-388.0,394.0,0.3050065779549796,-0.8021779164029125,0.48924798420109067,0.15529967094248576
-8411.582262039185,4164.0,-1664.0,15764.0,-2336.0,-369.0,395.0,0.14865622737852358,-0.8246286664688925,0.4653201928492801,0.2852472727757957
-8411.597855091095,4404.0,-928.0,16208.0,-2471.0,-142.0,424.0,-0.03320449759619869,-0.8165388969348044,0.4224330424523075,0.39206123982914165
-8411.61348247528,4384.0,-84.0,16676.0,-2438.0,399.0,559.0,-0.23516364323928254,-0.7835637499518072,0.36876736709204794,0.44128963235939284
-8411.629114866257,4236.0,-936.0,17776.0,-2039.0,674.0,539.0,-0.4095530398336913,-0.7366399289409228,0.3075483148105151,0.44163554738053834
-8411.644694805145,3844.0,-2580.0,18672.0,-630.0,175.0,888.0,-0.48680771286821634,-0.6937521450804535,0.3325514694305457,0.41368554732776286
-8411.660307884216,3672.0,-4264.0,18388.0,1132.0,-929.0,421.0,-0.40301301914185084,-0.6899495180173576,0.43455956602608,0.41558170383813986
-8411.67594575882,3788.0,-3764.0,17568.0,2298.0,-1122.0,-157.0,-0.2111974275431016,-0.7182629944745961,0.5347209003491336,0.39187686343719585
-8411.69156074524,4140.0,-1208.0,16652.0,2416.0,-728.0,-766.0,0.0004191136390826849,-0.7539208941922787,0.567906300657643,0.330281006595025
-8411.707173347473,4012.0,56.0,15548.0,1863.0,166.0,-1245.0,0.14786652811479498,-0.8050135073775689,0.5295965694355964,0.2227469785316716
-8411.7228038311,3900.0,512.0,14828.0,1086.0,616.0,-1123.0,0.21525242812255532,-0.8458464468241739,0.47467212516179635,0.11356299651139878
-8411.738424062729,3512.0,128.0,14612.0,622.0,328.0,-437.0,0.2512908040741524,-0.8532878837472865,0.4535457973655948,0.05521710722095477
-8411.754017829895,3460.0,-616.0,14960.0,328.0,-123.0,286.0,0.27903183956014893,-0.8335208855500243,0.47335502529175166,0.05761237622792091
-8411.76959848404,3628.0,-1124.0,15428.0,250.0,-284.0,825.0,0.30389730289787525,-0.7894312775136574,0.5260641732276728,0.08775632752592175
-8411.785200357437,3616.0,-1484.0,16076.0,-278.0,-242.0,1152.0,0.2854869244628511,-0.7379400869807837,0.5935912689910298,0.1469389307336717
-8411.800792455673,3908.0,-1464.0,16688.0,-407.0,-66.0,1213.0,0.24563924102472254,-0.6801356469220781,0.6607352429504911,0.2012605370603985
-8411.816374778748,3980.0,-1584.0,17148.0,-309.0,194.0,1123.0,0.19537178284304915,-0.6220952462940542,0.722305256579846,0.23043976940665256
-8411.831976890564,3828.0,-1464.0,16936.0,-27.0,355.0,1161.0,0.14736433051443434,-0.5533861381097718,0.7864517985195565,0.2313895089353449
-8411.847579717636,3556.0,-1512.0,16452.0,302.0,560.0,1136.0,0.09993241936247355,-0.47972992026264727,0.8491612053746785,0.1969719839260908
-8411.863199234009,3164.0,-1440.0,15920.0,555.0,463.0,926.0,0.07255713484383898,-0.41204425694071645,0.8968171967601375,0.14378424148951355
-8411.878809213638,3024.0,-1428.0,15696.0,659.0,-80.0,701.0,0.09339517272677417,-0.35074172539501275,0.9265112260833741,0.09916920751800191
-8411.894445419312,3208.0,-1280.0,15376.0,589.0,-540.0,596.0,0.14938236128677307,-0.29195658328461044,0.941895830908895,0.07265333667221745
-8411.91004538536,3596.0,-1152.0,15684.0,439.0,-680.0,412.0,0.2132092075494592,-0.2472672258812117,0.9433508062682344,0.05907629925963052
-8411.925724506378,3956.0,-1092.0,15788.0,264.0,-584.0,348.0,0.26468674268973963,-0.2102584439871168,0.9394478046938083,0.056303971728434286
-8411.941375255585,4080.0,-868.0,15892.0,208.0,-469.0,353.0,0.3048063829015952,-0.17394072463400753,0.9347243890875386,0.05592861254465563
-8411.956987380981,4216.0,-800.0,16224.0,242.0,-336.0,377.0,0.3336892555109324,-0.13493728535221672,0.9315665677456271,0.05125563029527525
-8411.972564697266,4340.0,-788.0,16416.0,303.0,-116.0,393.0,0.3446276574680881,-0.09353978044785963,0.9332364848609918,0.039392264546784926
-8411.988132715225,3920.0,-1136.0,16376.0,287.0,13.0,347.0,0.3444915295499423,-0.05663807702835535,0.9367095680045088,0.026322984399149894
-8412.003803491592,3656.0,-1252.0,16200.0,267.0,-91.0,375.0,0.35213524503402566,-0.017722352474321836,0.9356410755507204,0.016200776829951937
-8412.019451141357,3780.0,-1336.0,15972.0,218.0,-116.0,427.0,0.36104830479635014,0.023994586247094704,0.9321651348497114,0.011685153192482055
-8412.035076856613,3668.0,-1248.0,15940.0,163.0,-80.0,480.0,0.3664011278383672,0.06820188378578237,0.9278578008442417,0.01336480375204224
-8412.050679683685,3764.0,-1188.0,15964.0,147.0,-105.0,408.0,0.37331331765085707,0.1059899217310053,0.9215264118295874,0.013869955171212865
-8412.066302061081,3876.0,-1044.0,15932.0,112.0,-218.0,501.0,0.3887889797393377,0.15002583732315178,0.908828250945586,0.019146478838658484
-8412.081996202469,4000.0,-924.0,15652.0,120.0,-341.0,131.0,0.4138625987634385,0.1649652514590603,0.8952161765111213,0.009602732352352877
-8412.097600221634,4196.0,-812.0,16060.0,124.0,-380.0,-51.0,0.44159004673015034,0.16567158873313165,0.88175759102459,-0.007396349506059813
-8412.113194942474,4196.0,-884.0,16224.0,141.0,-271.0,-205.0,0.4600931437946208,0.1550671602928743,0.8737076311070455,-0.030057447948909265
-8412.128788232803,4168.0,-992.0,16236.0,149.0,-116.0,-297.0,0.46597994260231235,0.13802326435012208,0.8722374403781186,-0.05490099446376179
-8412.144382238388,4084.0,-1068.0,16164.0,183.0,-3.0,-336.0,0.4621923163123358,0.11979516062090682,0.8747687927877184,-0.08250419018672157
-8412.160025119781,3856.0,-1268.0,16064.0,178.0,116.0,-249.0,0.4495530379323248,0.10874550297781718,0.8803813994128709,-0.10490506773151771
-8412.175630569458,3728.0,-1500.0,16064.0,187.0,58.0,-234.0,0.44107604130864647,0.09858781804626032,0.8828235270649358,-0.12788662157159786
-8412.191301584244,3588.0,-1440.0,15972.0,244.0,-86.0,-169.0,0.4436092445138702,0.09395524874996203,0.8778925724878541,-0.15390867611939135
-8412.206897735596,3728.0,-1524.0,15980.0,269.0,-266.0,-65.0,0.4607085877001257,0.09575312536224571,0.8639925331891616,-0.17915311550763838
-8412.222481489182,3768.0,-1036.0,15972.0,213.0,-511.0,-233.0,0.493201809480097,0.07863619649232213,0.8408637923497662,-0.20860586387239502
-8412.238078594208,3900.0,-792.0,15988.0,164.0,-311.0,14.0,0.5149760191802207,0.08101206006861221,0.8239568040631332,-0.22210792608729693
-8412.2536714077,4012.0,-716.0,15988.0,110.0,-216.0,22.0,0.5301041475094471,0.08332054843100903,0.8117242979490608,-0.23054488309555443
-8412.269290208817,4056.0,-856.0,15924.0,44.0,-216.0,14.0,0.5453348095086488,0.08197270453212667,0.8005381425267918,-0.2345828288890911
-8412.284908771515,3984.0,-1076.0,16084.0,51.0,-245.0,-23.0,0.5615518460537129,0.07774233486538756,0.7877466160179809,-0.24097909144895735
-8412.300529956818,4060.0,-1128.0,16180.0,59.0,-245.0,-9.0,0.5777386142840402,0.07482748607249416,0.7743053700937509,-0.24712372354188766
-8412.316119670868,3852.0,-1280.0,16184.0,83.0,-113.0,-96.0,0.5827714586073033,0.07006169924542202,0.7672901048774615,-0.2583305639847795
-8412.331760406494,4104.0,-1120.0,16172.0,107.0,-3.0,-44.0,0.581368689183684,0.07246909260408341,0.7648847528302182,-0.2677872154189626
-8412.347342967987,4052.0,-1088.0,16280.0,128.0,126.0,-48.0,0.5710219082190162,0.07867741110682638,0.7684195225241085,-0.27798432099537895
-8412.362946033478,3956.0,-996.0,16092.0,91.0,193.0,-125.0,0.5543605071885751,0.0794758326700354,0.7764411818711806,-0.2889759699101547
-8412.378615617752,3808.0,-1024.0,16060.0,122.0,167.0,-131.0,0.5388371381316236,0.08067745423564264,0.7821093630852555,-0.3024080539974975
-8412.394268035889,3652.0,-1252.0,16364.0,142.0,167.0,-155.0,0.5222677286472562,0.08114243556728899,0.7870266074095361,-0.31818460678241534
-8412.409811019897,3448.0,-1300.0,16176.0,194.0,266.0,-137.0,0.4986373382058535,0.08790227696084263,0.7942876251938034,-0.33576950891358326
-8412.42540717125,3828.0,-1496.0,15996.0,5.0,363.0,-143.0,0.46902654109935515,0.08877332142770764,0.8105105707450061,-0.3394201170491703
-8412.441011428833,3484.0,-1676.0,16160.0,387.0,389.0,-156.0,0.4334013902542605,0.10495783773104518,0.8151141954377251,-0.3697782249138092
-8412.456637859344,3452.0,-1744.0,16380.0,602.0,593.0,-229.0,0.3772488917439338,0.13018128723473213,0.8177767548070942,-0.4147014413153874
-8412.472238779068,3440.0,-1568.0,16636.0,577.0,599.0,-426.0,0.3115153677698732,0.13997043343135576,0.8186842466173138,-0.46165198770164595
-8412.487894296646,3572.0,-1156.0,15932.0,487.0,611.0,-721.0,0.231875341573813,0.12574715666240818,0.8209034865988247,-0.5064967366639593
-8412.503502607346,3784.0,-632.0,15336.0,287.0,691.0,-1070.0,0.1310646770511018,0.08486088247574118,0.8285296585910968,-0.537735330706333
-8412.519110441208,3504.0,-188.0,14440.0,91.0,700.0,-1426.0,0.012701508812915032,0.015456521482881147,0.8347622798518363,-0.5502469479734433
-8412.534710407257,3564.0,-208.0,14024.0,23.0,430.0,-1656.0,-0.09714966388977052,-0.08362416991588432,0.8271336415243666,-0.5471918128687826
-8412.55031299591,3528.0,-380.0,13932.0,4.0,-190.0,-1911.0,-0.17231603127232245,-0.22754712777463326,0.8033290596676023,-0.5226776366955416
-8412.565971136093,3680.0,-184.0,14120.0,-388.0,-290.0,-1686.0,-0.233934632643443,-0.349100816265061,0.7827186982750548,-0.4590802185932751
-8412.581567049026,4316.0,-532.0,14900.0,-899.0,-801.0,-1161.0,-0.2505309157120872,-0.4375188524099786,0.7912838991227711,-0.34594985915213616
-8412.597188472748,4864.0,-1596.0,14660.0,-1031.0,-1568.0,-776.0,-0.20194516240566637,-0.5079941660928337,0.8143519221385882,-0.19491286644493835
-8412.612809181213,5952.0,-2504.0,15144.0,-1070.0,-2766.0,-1082.0,-0.06866535390114198,-0.5910759829893149,0.8033865484164868,0.02200693823070921
-8412.628430843353,6960.0,-2024.0,15496.0,-846.0,-3638.0,-1582.0,0.13746625517848224,-0.6503992182891276,0.6993976007659498,0.262539295304396
-8412.64406633377,8240.0,-1036.0,16724.0,-514.0,-3590.0,-2016.0,0.35133157401026516,-0.6556819984291156,0.4983861851093114,0.44526222895239836
-8412.65964770317,9364.0,-348.0,18280.0,-141.0,-2879.0,-2341.0,0.5322714663562155,-0.6182388419148431,0.25739969575402194,0.5178930556365231
-8412.675292015076,9684.0,-496.0,18268.0,4.0,-1127.0,-2573.0,0.654798416509462,-0.606846171415706,0.06439066392928824,0.445904250230412
-8412.690935134888,7700.0,-328.0,17036.0,511.0,-198.0,-3263.0,0.7782607844267754,-0.5650429435418378,-0.09601577627483378,0.2565493989143939
-8412.706576108932,6424.0,-604.0,15116.0,954.0,-384.0,-3288.0,0.8578593391839099,-0.4442520081693711,-0.2518027525511921,0.057557633899160195
-8412.722185373306,5612.0,-1116.0,14972.0,1249.0,-1098.0,-3517.0,0.8521164497366915,-0.2534900490348757,-0.43943839316019084,-0.128585573627924
-8412.737806797028,5412.0,-1128.0,14692.0,1406.0,-1552.0,-3705.0,0.7332685657845792,-0.02259733223719872,-0.6116408246161542,-0.2961453573346352
-8412.75339770317,5468.0,-684.0,14440.0,1343.0,-1540.0,-4152.0,0.5067263371706544,0.22736585042800733,-0.6981860706121076,-0.45174041227234296
-8412.768973588943,5492.0,-168.0,13896.0,1182.0,-1482.0,-4656.0,0.19179948422994686,0.46236966915930183,-0.6573741705157734,-0.56328185380797
-8412.78459572792,5396.0,324.0,13944.0,891.0,-1975.0,-4693.0,-0.1715452697744334,0.591963511653774,-0.4965944957037317,-0.6111835470014757
-8412.800190448761,5620.0,408.0,14568.0,645.0,-2457.0,-4403.0,-0.49934526080117486,0.5868423936897494,-0.24373755821288484,-0.5889501831227429
-8412.815848588943,5912.0,48.0,15292.0,484.0,-2484.0,-3972.0,-0.7225565201493522,0.48318974385076763,0.03993839606772413,-0.4927927263532062
-8412.831454753876,6528.0,-404.0,15816.0,571.0,-2222.0,-3484.0,-0.8351741433516288,0.3187757340801962,0.284246365531567,-0.34651145048987875
-8412.847084522247,6932.0,-904.0,16376.0,686.0,-1627.0,-3318.0,-0.8687638867761852,0.13017941202909433,0.4507242088564382,-0.15858851556160286
-8412.862673282623,7200.0,-1068.0,16156.0,872.0,-1014.0,-2785.0,-0.847177534781852,-0.05759585804749361,0.5281383397648686,0.0065449039049682075
-8412.878273487091,6972.0,-720.0,16024.0,1088.0,-425.0,-2316.0,-0.8006563377882714,-0.23849890716125546,0.5348336778029126,0.12657265553890693
-8412.893871068954,6992.0,-60.0,15876.0,1104.0,-211.0,-2446.0,-0.721291840856602,-0.4160867708876533,0.49720002122122114,0.24372529270389048
-8412.909484386444,6724.0,244.0,16152.0,715.0,309.0,-2489.0,-0.6395479406652943,-0.5612341210867487,0.3924518646253006,0.3492509511381328
-8412.925190210342,6780.0,464.0,16116.0,331.0,1059.0,-2399.0,-0.5715778498421651,-0.6763086531690702,0.2200887298605865,0.40922648766520403
-8412.940857887268,6204.0,692.0,15516.0,-20.0,1895.0,-2551.0,-0.49929202269015294,-0.7631077024664202,-0.02483401407249328,0.40958196036867206
-8412.956461668015,5320.0,892.0,15000.0,-208.0,2178.0,-2643.0,-0.39661362610410594,-0.791392344789453,-0.29048999252687935,0.3633336654356949
-8412.972093820572,4388.0,1012.0,14596.0,-349.0,2046.0,-2898.0,-0.2644837348279921,-0.7358840979346013,-0.5467269605220275,0.2993536020440705
-8412.98777103424,4132.0,688.0,14692.0,-309.0,899.0,-2966.0,-0.15821098078330142,-0.5892815172377622,-0.7392435301102096,0.28501856464402897
-8413.003411054611,4592.0,416.0,15248.0,-287.0,220.0,-2890.0,-0.08420223494978614,-0.3918183361180482,-0.8703894258091428,0.28602556275755436
-8413.018996238708,5516.0,704.0,15552.0,-397.0,-392.0,-2449.0,-0.06486589112975202,-0.1885472035378519,-0.9388748862903362,0.28063555743937196
-8413.034631490707,6628.0,176.0,16360.0,-520.0,417.0,-1983.0,0.009200908701193075,-0.03274149024811238,-0.970552780450517,0.23847565589631137
-8413.050244808197,6900.0,-164.0,16344.0,-1171.0,1622.0,-1617.0,0.17267424136877396,0.06786930853472078,-0.9739840052633216,0.13012501995371728
-8413.065843105316,6656.0,-192.0,16624.0,-1042.0,2386.0,-1537.0,0.3860095404717287,0.15058556028120654,-0.9095778645447935,0.031444109619027466
-8413.08144068718,5996.0,412.0,16592.0,-1447.0,2769.0,-1715.0,0.6012449560980576,0.2199865787349029,-0.7616371114778148,-0.1000965452095519
-8413.09708738327,5648.0,892.0,16232.0,-1452.0,3284.0,-1849.0,0.7840869907961531,0.2785581955787261,-0.5102061916029532,-0.2174915276284756
-8413.112719774246,5876.0,984.0,15720.0,-1328.0,3506.0,-1956.0,0.8775873759631589,0.3200999692450982,-0.18513594865740887,-0.30512470852768614
-8413.128315210342,5948.0,672.0,15448.0,-1132.0,3790.0,-1728.0,0.8651782276520461,0.33875600470618095,0.1718045935089587,-0.32740523105410535
-8413.143939256668,6132.0,260.0,15104.0,-945.0,3733.0,-1237.0,0.7561933297448621,0.33510710458826115,0.48766195501404824,-0.27939343967911406
-8413.159510850906,5272.0,452.0,14884.0,-1032.0,3201.0,-579.0,0.6096451690462091,0.3070208495113058,0.7101310221845696,-0.17258301525664002
-8413.175090312958,5284.0,204.0,15372.0,-923.0,2863.0,-137.0,0.4399823754232991,0.2829138868845356,0.8511174173832987,-0.04443403820877504
-8413.190705776215,5172.0,-796.0,16188.0,-563.0,3204.0,383.0,0.20899668079687855,0.2905276808204492,0.9296341541560122,0.08771769216990666
-8413.206295013428,4844.0,-1648.0,17604.0,752.0,3968.0,1037.0,-0.13157356953543958,0.33642690941481307,0.9222884441158767,0.13743855453116252
-8413.22188425064,3692.0,-2100.0,18708.0,2177.0,3943.0,2087.0,-0.49367680389161966,0.39650877425770337,0.7724039489656126,0.04955950825357644
-8413.237510442734,3164.0,-1936.0,18956.0,3208.0,3555.0,2713.0,-0.771765788508646,0.3837778289644014,0.4859388434415548,-0.1447604438984713
-8413.253128051758,2628.0,-1340.0,19456.0,3757.0,3293.0,3093.0,-0.8882527607198335,0.2699363917903222,0.10045011486922709,-0.35784235618995
-8413.268728494644,3068.0,-676.0,19296.0,4101.0,2881.0,3554.0,-0.7924197579952786,0.06421036174307808,-0.2949871373539876,-0.530028815612158
-8413.284335136414,3212.0,-564.0,18792.0,4292.0,1933.0,3522.0,-0.5372695512220163,-0.20817462950774274,-0.5754271210153072,-0.5804208657164576
-8413.299984455109,3208.0,668.0,17912.0,4166.0,1268.0,3265.0,-0.21002387165015182,-0.45461060898744754,-0.7104296061298631,-0.49447845480598057
-8413.315579414368,3412.0,2704.0,16868.0,3454.0,575.0,2208.0,0.05454133375195328,-0.592538731661989,-0.7358333938274209,-0.32322176740030856
-8413.331219673157,3596.0,4112.0,16548.0,2472.0,1061.0,979.0,0.2698930268241832,-0.5953950018778993,-0.7275046361785851,-0.20832558688063613
-8413.346827983856,3752.0,4708.0,16264.0,1541.0,2460.0,-561.0,0.4803057311765122,-0.46350690449978144,-0.7036480577574661,-0.24361273549256837
-8413.36244392395,3184.0,3472.0,16376.0,1021.0,3395.0,-1410.0,0.6643396546683832,-0.24842486049812684,-0.6072123120772923,-0.3580937307232959
-8413.378067731857,2216.0,576.0,15984.0,955.0,3576.0,-1770.0,0.7713498224057093,0.011866941454966197,-0.4405313487135566,-0.4591413268001476
-8413.393700122833,1388.0,-572.0,16576.0,1255.0,3069.0,-1700.0,0.7797928947579652,0.2707347616940726,-0.2683782189391282,-0.49658721459025534
-8413.409333705902,1256.0,-1200.0,16600.0,1517.0,2540.0,-1255.0,0.7213136817621194,0.4942339649943465,-0.12656614327157478,-0.46842328264733163
-8413.42493224144,1732.0,-1060.0,16008.0,1899.0,2517.0,-905.0,0.6059643550126478,0.698499095574484,-0.0064068233982415195,-0.38061156912221855
-8413.440539836884,1892.0,-688.0,15464.0,2264.0,2440.0,-555.0,0.4325746112972899,0.8629056684973845,0.07796325928132647,-0.24938873899659805
-8413.456131219864,1996.0,312.0,15148.0,2498.0,2493.0,-320.0,0.21070028746867572,0.9642298346044667,0.13548378199378194,-0.08666233170138972
-8413.471772909164,1664.0,1096.0,15212.0,2387.0,2693.0,-428.0,-0.02409201680537739,0.9757825487099385,0.19352895085959979,0.0990683478138605
-8413.487411737442,1708.0,2112.0,15284.0,2067.0,2955.0,-734.0,-0.2320487916304341,0.8887372641652146,0.2548826760158165,0.3022155771200443
-8413.503054618835,1684.0,2168.0,15816.0,1644.0,2911.0,-1259.0,-0.37343186540380585,0.7165502687995672,0.32167652663797974,0.4935874455397207
-8413.518660783768,2016.0,1292.0,16144.0,1180.0,2820.0,-1215.0,-0.45569725602088684,0.5020805415157562,0.3427051182368594,0.6502371433719697
-8413.534256458282,1948.0,488.0,16640.0,1014.0,3426.0,-1273.0,-0.503525821251258,0.21746132627156667,0.30347523839688934,0.7791502413459219
-8413.549859285355,1400.0,4.0,17000.0,652.0,3727.0,-809.0,-0.5302079305892233,-0.08168061717075918,0.18868685818561806,0.8225600869644344
-8413.565504074097,876.0,32.0,17156.0,896.0,3756.0,-763.0,-0.5021444798333087,-0.3832283092934947,0.06951960679849321,0.772110101345377
-8413.581132411957,564.0,148.0,17056.0,1329.0,3785.0,-782.0,-0.4031572725227302,-0.6603678097916529,-0.03108369171265497,0.6327814579398807
-8413.596740722656,180.0,492.0,16952.0,1776.0,4089.0,-874.0,-0.2244769938623955,-0.8796481096327343,-0.11830108125076613,0.4022861377439678
-8413.61233997345,-444.0,960.0,16948.0,1181.0,3825.0,-1199.0,-0.04906322047532991,-0.9626676837713437,-0.2290824682074432,0.13559112721299807
-8413.627958059311,-944.0,1608.0,17164.0,485.0,3859.0,-1683.0,0.08325612349495842,-0.9160918327275214,-0.35761695306541813,-0.16110334196015264
-8413.643553495407,-1472.0,1820.0,17484.0,-371.0,3781.0,-2348.0,0.1291367455987669,-0.7381841776442967,-0.47766661418327927,-0.45852200220540673
-8413.65911769867,-1516.0,2100.0,17508.0,-789.0,4006.0,-3038.0,0.11308177887501616,-0.42038837407792534,-0.54527377701044,-0.7163537075574811
-8413.674707174301,-1700.0,2168.0,17524.0,-1578.0,4505.0,-3590.0,0.04000165400522739,0.01480704660506728,-0.4732991770760734,-0.8798684606387442
-8413.690296411514,-1764.0,2068.0,17532.0,-1813.0,4950.0,-4530.0,-0.08641136962920093,0.4922740641048379,-0.26564107148427896,-0.8243992613710882
-8413.705974340439,-2012.0,1888.0,17164.0,-2531.0,5047.0,-5102.0,-0.18974212200985566,0.8269414548560043,0.08140951451440412,-0.5230088415336408
-8413.721587896347,-1708.0,1580.0,17208.0,-2763.0,4703.0,-5193.0,-0.21794847193740907,0.8777943010355113,0.42158308015620477,-0.06514088712731556
-8413.737187623978,-308.0,636.0,15704.0,-2114.0,4393.0,-4572.0,-0.21045984268868598,0.6691642488602919,0.6049281655855344,0.3768126552333602
-8413.75279712677,-600.0,-388.0,14948.0,-1219.0,3625.0,-3982.0,-0.17991837928231183,0.32611252720619144,0.6583297971509807,0.6541268031343507
-8413.768399238586,-1280.0,-1516.0,14020.0,-103.0,3585.0,-3595.0,-0.16250198020872067,-0.0764352180985352,0.6384713137387615,0.7484017272796569
-8413.78405380249,-1660.0,-1552.0,13388.0,968.0,3704.0,-2647.0,-0.17562233562250898,-0.4443937748516418,0.5849491348395778,0.6553666742778678
-8413.799680948257,-2704.0,-1836.0,14012.0,1205.0,3166.0,-1967.0,-0.16844132522784533,-0.7043636844430683,0.5005173462719104,0.4743223651423126
-8413.815286397934,-3164.0,-2044.0,14684.0,949.0,2526.0,-1164.0,-0.1668650189505666,-0.8463449355344522,0.41754734850749775,0.28550048563911296
-8413.830874204636,-2680.0,-1088.0,15796.0,128.0,1028.0,-448.0,-0.18284344012630288,-0.8858584399466887,0.3708565227438129,0.21044842673768271
-8413.846473455429,-1708.0,-392.0,16512.0,-790.0,719.0,806.0,-0.2801381347298736,-0.8545415059623058,0.4044379263035144,0.16646742571762982
-8413.86206126213,-1128.0,-72.0,16624.0,-1961.0,1323.0,1138.0,-0.4773356341178035,-0.7657640154702864,0.4176411465631716,0.10645204417753981
-8413.877629995346,-1076.0,-12.0,17072.0,-2349.0,2491.0,1255.0,-0.7021773025866345,-0.6148292928324998,0.3581687861377172,-0.025438102206744
-8413.89326262474,-1536.0,-424.0,17356.0,-2154.0,3137.0,1256.0,-0.861927663870842,-0.4119870285106776,0.22466638008263873,-0.19202189524545896
-8413.908901453018,-2048.0,-852.0,17464.0,-1685.0,3582.0,1105.0,-0.9170640470060658,-0.1913851172399681,0.021692158553274835,-0.34913424473288135
-8413.924615621567,-2208.0,-1076.0,17004.0,-1081.0,3485.0,760.0,-0.8735012219164725,0.0029070839157094115,-0.20129678995089614,-0.4432457180041352
-8413.940263271332,-2468.0,-784.0,16384.0,-770.0,2873.0,271.0,-0.7861693703967234,0.1626633840971599,-0.3777139091601911,-0.4613139357866903
-8413.95594716072,-2556.0,-420.0,15916.0,-779.0,2303.0,-25.0,-0.6850547805772939,0.3028699337392904,-0.49285808320091234,-0.44278737636531196
-8413.971569776535,-2012.0,368.0,16080.0,-959.0,1480.0,-288.0,-0.6000145449853711,0.42459959210862563,-0.5301480906115598,-0.42265912294437
-8413.987188577652,-1668.0,740.0,16100.0,-1122.0,1169.0,-270.0,-0.5091797663502563,0.5334639876110184,-0.5344270468641973,-0.4129647334115381
-8414.002845525742,-1460.0,768.0,16620.0,-1200.0,1380.0,-1014.0,-0.4186399130212488,0.6726838500793465,-0.4970235618800846,-0.35384267691167814
-8414.018491744995,-1816.0,492.0,16800.0,-1159.0,1544.0,-1441.0,-0.3211501930170694,0.8075507236727189,-0.42373767035410836,-0.25528566145328324
-8414.034099578857,-2220.0,-112.0,16832.0,-1251.0,1661.0,-1545.0,-0.2009362531952694,0.913697699604774,-0.3252873964772329,-0.13772888434113637
-8414.049690246582,-2340.0,-488.0,16652.0,-797.0,1662.0,-2104.0,-0.11221154193508368,0.9786479299737038,-0.17198564181635187,0.0088169169074715
-8414.065341472626,-2128.0,-140.0,16472.0,-782.0,1756.0,-2190.0,-0.01683965818355824,0.9864233365544948,-0.0026116224434276436,0.16333587003830918
-8414.080936908722,-2132.0,304.0,16500.0,-1107.0,1821.0,-2070.0,0.10494094700655991,0.9317282529727516,0.15214153710579156,0.3126064825636177
-8414.09655880928,-1996.0,640.0,16124.0,-1533.0,2030.0,-1826.0,0.24357987477905935,0.8083546890984482,0.26760149885858686,0.4643500608633608
-8414.112151622772,-2228.0,752.0,15660.0,-1887.0,2186.0,-1700.0,0.37874583139352364,0.6141110985565499,0.3431559548336226,0.6013843567086868
-8414.127781629562,-2808.0,232.0,15456.0,-1959.0,1979.0,-1580.0,0.48874751343745265,0.3833248829351524,0.3759880628067886,0.6876197196548811
-8414.14340353012,-3012.0,-268.0,15124.0,-1881.0,1622.0,-1790.0,0.5854024061163777,0.14184616629956315,0.37877748077389767,0.7026459336521145
-8414.159015893936,-3108.0,-1124.0,15352.0,-1566.0,1201.0,-1436.0,0.6388798426822704,-0.05813661428160047,0.3537464369774327,0.68067329830097
-8414.17465209961,-3060.0,-1692.0,15456.0,-1096.0,1064.0,-1100.0,0.6570871031467546,-0.21360692014162053,0.3376061118661685,0.6392423138188097
-8414.190255880356,-3196.0,-1360.0,15484.0,-705.0,1076.0,-792.0,0.650887077017418,-0.33444503806258075,0.34204122553096505,0.5894915856263907
-8414.205881118774,-3212.0,-584.0,15544.0,-595.0,1521.0,-575.0,0.6108586534522598,-0.45835280379114235,0.3766378055581807,0.5243170569260632
-8414.221516370773,-3592.0,384.0,14788.0,-796.0,1861.0,-352.0,0.5256520804097302,-0.5880520445734685,0.4186006981932789,0.45017567538238396
-8414.237152338028,-4188.0,892.0,14900.0,-778.0,1817.0,-111.0,0.41758228046207224,-0.6889197229713608,0.4588624592271327,0.37477979915836784
-8414.252772331238,-4384.0,524.0,15220.0,-1343.0,1178.0,-15.0,0.28673015121723067,-0.7676859416816757,0.45148107936733267,0.35299992960420146
-8414.268374443054,-3892.0,-472.0,15612.0,-1315.0,752.0,233.0,0.1604164173425897,-0.8073632622374856,0.44144387845200794,0.3571532416393025
-8414.284004688263,-3276.0,-1432.0,15772.0,-977.0,43.0,296.0,0.08039469878553604,-0.8077457930944804,0.4307183068610337,0.3944175025022548
-8414.299632787704,-2780.0,-1660.0,15788.0,-352.0,-4.0,310.0,0.04504177614090152,-0.7977281048281089,0.4400400000343285,0.4098364399845563
-8414.31526017189,-2752.0,-1132.0,15900.0,291.0,436.0,505.0,0.030449731680520287,-0.7911644435653263,0.4863321188881942,0.36961156261171163
-8414.33083820343,-3104.0,-468.0,16372.0,812.0,837.0,160.0,0.04560923617767765,-0.8049647616303945,0.5230381896764228,0.2763739898192688
-8414.346455812454,-3600.0,268.0,16576.0,1097.0,983.0,-152.0,0.08082355397536457,-0.8243857148046766,0.5382513632285413,0.15537443911850712
-8414.362068414688,-3776.0,456.0,16908.0,1120.0,588.0,-372.0,0.13795217277376576,-0.8364110493408891,0.5273355346107483,0.05747163216984784
-8414.377678871155,-3524.0,72.0,17128.0,1024.0,39.0,-643.0,0.21299592154563504,-0.8491463637262985,0.48330439290286353,-0.00023275765303295827
-8414.393327713013,-3308.0,-372.0,16892.0,876.0,-85.0,-1012.0,0.2796292631890378,-0.8696052299261622,0.40392839673228653,-0.049356555458285455
-8414.40893626213,-3168.0,-564.0,16532.0,607.0,228.0,-582.0,0.31430644695174836,-0.8717923451653552,0.36165015232503134,-0.1019741714305133
-8414.42453956604,-3316.0,-384.0,15992.0,278.0,398.0,-508.0,0.31783728971880304,-0.874994243143691,0.33081152507121936,-0.1546876420715595
-8414.440128326416,-3308.0,96.0,15416.0,-48.0,231.0,-536.0,0.29992807269521665,-0.8875055563334702,0.2965400969881934,-0.18558289135796685
-8414.455738306046,-3488.0,744.0,15020.0,-427.0,21.0,-963.0,0.2496998376860006,-0.9193762543935572,0.22843648042512477,-0.20053445670966258
-8414.471335411072,-3696.0,796.0,14916.0,-619.0,-24.0,-1369.0,0.1750768747798365,-0.9524189466053851,0.1277856214902469,-0.21428269413269274
-8414.486933231354,-3724.0,744.0,15084.0,-577.0,-295.0,-1909.0,0.09328011950055072,-0.9730906451333402,-0.024271663941702035,-0.209294772962546
-8414.502631664276,-3608.0,-448.0,15924.0,-282.0,-906.0,-2349.0,0.023927691200564895,-0.9636752741601217,-0.22070088465536633,-0.14848754519677168
-8414.51821923256,-3276.0,-1444.0,16424.0,7.0,-1209.0,-2662.0,-0.03224095479153805,-0.8992203339912747,-0.43336328639258487,-0.05059223040911497
-8414.533809185028,-3088.0,-1916.0,16592.0,761.0,-1188.0,-2788.0,-0.02871435723303901,-0.7728997176840597,-0.6292434324067675,0.07651284118070567
-8414.549395799637,-2960.0,-2100.0,16648.0,1160.0,-1184.0,-2677.0,0.0023032790603722464,-0.5986457248865891,-0.7705642229525071,0.2187436154180948
-8414.564977407455,-2892.0,-1760.0,16408.0,1397.0,-1017.0,-2373.0,0.050571585911123235,-0.4061890984367548,-0.8409163784620677,0.35399516302318423
-8414.580564975739,-3048.0,-1392.0,16364.0,1778.0,-756.0,-2022.0,0.11715794874782834,-0.22007593521471905,-0.8364078837327739,0.4881213474272875
-8414.596239089966,-3280.0,-1160.0,16512.0,1553.0,-557.0,-1791.0,0.17864757650096444,-0.04860380521640284,-0.7925719042276068,0.5809926765096469
-8414.611912727356,-3372.0,-1288.0,16308.0,1572.0,-517.0,-1484.0,0.22070024737129176,0.10287235757090564,-0.713810060340739,0.6566459294128038
-8414.627507686615,-3484.0,-1352.0,16412.0,1556.0,-553.0,-1341.0,0.24495666632707,0.24389809489013525,-0.6126593636363773,0.7107450000383824
-8414.643079519272,-3356.0,-1188.0,15928.0,1645.0,-575.0,-1209.0,0.24995576126129856,0.3729961210071835,-0.4887451162163103,0.748013517592152
-8414.65866947174,-3560.0,-732.0,15364.0,1638.0,-628.0,-1186.0,0.24316765235684648,0.49190687960346197,-0.3508429213488124,0.7588190556288605
-8414.674241542816,-3804.0,-212.0,15324.0,1619.0,-785.0,-1295.0,0.23112328221354334,0.6065634032036881,-0.20086569919660335,0.7337001003128312
-8414.689851522446,-4032.0,96.0,15500.0,1566.0,-1069.0,-1578.0,0.22539451233351523,0.717735750266189,-0.03768357049500118,0.6577481699818829
-8414.705519199371,-3648.0,196.0,15772.0,1496.0,-1474.0,-2043.0,0.23654609648204214,0.8123004809501911,0.142633985960279,0.5136822159042297
-8414.72115945816,-3504.0,-72.0,16156.0,1434.0,-1674.0,-2064.0,0.24010227520130442,0.8617973045256138,0.30820081659267073,0.32352520768427717
-8414.73675942421,-3316.0,-332.0,16380.0,1424.0,-2022.0,-2443.0,0.2453670278111626,0.8449558118838656,0.46871968040353523,0.07839999253317186
-8414.752356290817,-3316.0,-436.0,16116.0,1615.0,-2285.0,-2714.0,0.22565232892641326,0.7423235602824634,0.5973740012038782,-0.20293117302504937
-8414.767983436584,-2780.0,-300.0,15572.0,1726.0,-2413.0,-2748.0,0.18010632404830706,0.5565897752976626,0.6575511842578111,-0.47475885895163017
-8414.783580303192,-2800.0,-156.0,15172.0,1656.0,-2378.0,-2723.0,0.1165103161274767,0.309612120575281,0.6459670546129717,-0.6879623866051073
-8414.799252986908,-2920.0,-24.0,15576.0,1369.0,-2353.0,-2630.0,0.05154214401914885,0.03218613513646567,0.5799484130914218,-0.8123837136769966
-8414.814846754074,-3112.0,-224.0,15436.0,1101.0,-2384.0,-2460.0,-0.005037223705071842,-0.24464046045590696,0.47501876911497926,-0.8452708681090086
-8414.830474853516,-3352.0,-604.0,15820.0,1080.0,-2524.0,-2337.0,-0.047434459499519493,-0.5037837498146462,0.3304331578478979,-0.7967219299538256
-8414.846067667007,-3096.0,-1468.0,15908.0,1311.0,-2870.0,-2209.0,-0.05745783349281611,-0.7321474832403326,0.14592146639971854,-0.6628465778737299
-8414.86165189743,-3216.0,-2056.0,16196.0,1648.0,-3138.0,-1922.0,-0.02204020051336002,-0.8927313557275943,-0.05333223960548721,-0.44687876239620655
-8414.877285957336,-2916.0,-2688.0,15928.0,1930.0,-3252.0,-1553.0,0.049590680942051366,-0.9569548150371523,-0.2292284712747322,-0.1709753031813736
-8414.892874240875,-2576.0,-2376.0,15620.0,1923.0,-3438.0,-893.0,0.1208346589893777,-0.9261845339959818,-0.3276390183361066,0.1422458007721816
-8414.908531665802,-2340.0,-1936.0,15404.0,1780.0,-3708.0,-252.0,0.15229441941219005,-0.8037182980071231,-0.3434678623421623,0.4613817668726651
-8414.924252033234,-2184.0,-1376.0,15504.0,1786.0,-3863.0,866.0,0.11867611964768443,-0.6080560170921735,-0.24508196899302867,0.7457336569968337
-8414.939965963364,-1992.0,-1176.0,16092.0,1181.0,-3946.0,1606.0,-0.0070749349369221845,-0.34814637000930654,-0.11548265662253247,0.9302729741126436
-8414.95557975769,-1476.0,-912.0,16628.0,915.0,-3766.0,2017.0,-0.16911103988833054,-0.058876516819533695,0.02101976970513962,0.9836123124669748
-8414.971196174622,-1028.0,-348.0,17352.0,794.0,-3334.0,2148.0,-0.32370892509802973,0.20721440314571485,0.14066116568871542,0.9124084389175362
-8414.986829996109,-972.0,204.0,17448.0,504.0,-2861.0,2124.0,-0.44544158566556435,0.4261481885946611,0.21283166655804606,0.7580779622356538
-8415.00250840187,-384.0,616.0,17232.0,229.0,-2658.0,1895.0,-0.5096662135286193,0.60402472921536,0.25074629831552503,0.5590355723608049
-8415.018156528473,-500.0,816.0,16644.0,-63.0,-2963.0,1606.0,-0.49880465104970617,0.7545007125627138,0.2827958200458885,0.3192947212186749
-8415.033788204193,-600.0,956.0,15988.0,-213.0,-3412.0,1516.0,-0.4210184611317365,0.852010835349458,0.30949058876657565,0.0321957652231097
-8415.049376487732,-536.0,1184.0,15496.0,-508.0,-3705.0,1272.0,-0.27111265267783047,0.8654362717008279,0.3305211429150903,-0.26129248605473426
-8415.064972162247,-516.0,1088.0,15436.0,-284.0,-3490.0,1372.0,-0.11183092266190932,0.7905981352683601,0.3001698523239739,-0.5218682716956279
-8415.080569505692,-568.0,184.0,15540.0,-202.0,-3150.0,1636.0,0.05650383158567751,0.6607815898158285,0.21698046177086266,-0.7163061404080707
-8415.096154689789,-712.0,-584.0,15436.0,113.0,-2989.0,1827.0,0.21117270647460867,0.4866554251388015,0.08582678820234149,-0.8433305091421937
-8415.111805200577,-500.0,-1400.0,14964.0,283.0,-3095.0,1868.0,0.34306826712656646,0.26487976685467085,-0.06808551736908265,-0.8986140637261217
-8415.127428770065,-376.0,-1080.0,14640.0,555.0,-3413.0,2112.0,0.4483865898881967,0.0009472416969299745,-0.24750096163590418,-0.8588898897593943
-8415.143057107925,120.0,-160.0,15064.0,802.0,-3592.0,2462.0,0.5180106472344935,-0.2706338726854463,-0.41800523285227165,-0.6954810576968268
-8415.158662080765,488.0,920.0,15432.0,541.0,-3496.0,2746.0,0.530907671395223,-0.520187783692546,-0.5066031418507443,-0.4369152902081749
-8415.174257040024,448.0,2300.0,17092.0,-404.0,-3198.0,3034.0,0.45421131774656254,-0.7415653653520238,-0.46787924562973177,-0.15767656531711977
-8415.18984746933,556.0,2768.0,18284.0,-1845.0,-3549.0,3195.0,0.21351930260739813,-0.9075520354356129,-0.3436192635515169,0.11262598326780418
-8415.205447673798,1120.0,2044.0,19104.0,-2973.0,-4475.0,3033.0,-0.16379666817233085,-0.8891884125318831,-0.19014641825328726,0.3825688933252665
-8415.221049308777,1628.0,848.0,19228.0,-3644.0,-5073.0,2349.0,-0.5264961605500212,-0.6105665815404879,-0.049220668996240245,0.5895655758061281
-8415.236715078354,2192.0,124.0,18180.0,-3728.0,-4866.0,2024.0,-0.7407596670789877,-0.17193808416485684,0.07879517876663462,0.64459578857287
-8415.252304792404,1960.0,-16.0,17032.0,-3824.0,-4294.0,1322.0,-0.7494204496692211,0.2900204365145588,0.1431782951056183,0.5777171555632877
-8415.267911672592,1376.0,504.0,15760.0,-3601.0,-3737.0,906.0,-0.5972642636746662,0.658841982697251,0.16630105656952165,0.426082855506502
-8415.283503770828,1312.0,820.0,14196.0,-3484.0,-3047.0,745.0,-0.3521291694493156,0.8927090154548762,0.1413463183013127,0.2430984986609019
-8415.299096345901,544.0,1608.0,13852.0,-3690.0,-2602.0,755.0,-0.04507220682882145,0.9942169129453798,0.07817732348960396,0.05821968977022145
-8415.314696788788,480.0,2028.0,13804.0,-3904.0,-2359.0,435.0,0.2856469550158685,0.9512598078924462,0.02772876830487108,-0.11287918491415305
-8415.330277204514,108.0,520.0,14204.0,-3988.0,-2978.0,58.0,0.5728838875901802,0.7544374354116419,-0.011051335852575719,-0.3201656998570269
-8415.34588098526,-24.0,-216.0,14632.0,-3685.0,-4136.0,-493.0,0.717738471546843,0.4092524032893597,-0.0741489097312195,-0.5584495465564965
-8415.361532449722,304.0,-236.0,15412.0,-3289.0,-5603.0,-1220.0,0.6405302634174863,-0.053902490759204294,-0.19160175503462357,-0.7416901446048285
-8415.377158641815,1268.0,-424.0,16812.0,-3226.0,-6057.0,-2139.0,0.3266984883724612,-0.5002638660907208,-0.28052625093432004,-0.7512051547452594
-8415.392741918564,2228.0,-592.0,17780.0,-2985.0,-5570.0,-2957.0,-0.1143595078153166,-0.749997258420647,-0.31831278398686697,-0.5684214870008715
-8415.408378839493,2924.0,-216.0,18816.0,-2690.0,-4215.0,-3257.0,-0.5048360583521949,-0.7465289471203617,-0.3157019753357764,-0.29692987062246234
-8415.423981904984,2560.0,296.0,19568.0,-2920.0,-3338.0,-3372.0,-0.786497530792198,-0.5498013687994867,-0.2811338940850762,-0.010189333665532358
-8415.439594268799,2068.0,1032.0,19532.0,-3632.0,-4913.0,-3203.0,-0.9288625690684379,-0.1936834602559157,-0.08073543848936791,0.30525863456879637
-8415.455234766006,3496.0,-188.0,18384.0,-4336.0,-7501.0,-3004.0,-0.7611535569184905,0.2959226218697365,0.281997261430086,0.5035400770564374
-8415.470830440521,5636.0,-3024.0,16876.0,-2892.0,-8604.0,-2377.0,-0.286515904440971,0.6248527518323768,0.6094910501098527,0.39495358571086236
-8415.48643565178,7004.0,-5596.0,17412.0,-1120.0,-7727.0,-1622.0,0.19823615264674593,0.6836569897642685,0.6997549794717032,0.06048567462491566
-8415.50204539299,8108.0,-6048.0,18432.0,873.0,-6074.0,-645.0,0.45831284370851505,0.6087532251676648,0.5614804722749678,-0.32265853063828887
-8415.517642736435,7312.0,-2656.0,19780.0,2086.0,-4191.0,306.0,0.5196474153426951,0.545169980630521,0.2949774421177197,-0.5880004800922028
-8415.533229589462,7132.0,176.0,18828.0,2323.0,-3344.0,1000.0,0.5132865915781528,0.47379711219072457,-0.022162384592688884,-0.7152356255773183
-8415.548842430115,6280.0,1008.0,17720.0,1860.0,-4037.0,1026.0,0.4577149209335069,0.28141988431837006,-0.33596121405323975,-0.7735825505509688
-8415.564459562302,6724.0,292.0,16932.0,2131.0,-4199.0,819.0,0.311595175765555,0.054278927226173196,-0.6161674824426544,-0.7213181531606493
-8415.580103635788,7424.0,-712.0,17052.0,3126.0,-3553.0,463.0,0.1246205721811601,-0.10103004567518621,-0.8420831170636073,-0.5149355948238081
-8415.5957467556,8100.0,-1328.0,17608.0,4169.0,-2877.0,368.0,-0.030621181906563252,-0.1938789598307004,-0.9667684671683673,-0.16380483217089978
-8415.61137843132,7792.0,-1200.0,18004.0,4898.0,-2240.0,538.0,-0.11667675480688926,-0.25715375362697984,-0.9237900371395725,0.2585932117534311
-8415.626994371414,7520.0,-1012.0,17932.0,5092.0,-1350.0,1035.0,-0.1218659428794279,-0.32778119427888375,-0.6988985930445656,0.6238981786185495
-8415.64264035225,7116.0,-652.0,17612.0,4756.0,-523.0,1502.0,-0.09112545826334523,-0.4044095656499176,-0.3584318485383624,0.8364661762561071
-8415.658232688904,6760.0,-604.0,16760.0,4378.0,205.0,1877.0,-0.06203931220054022,-0.4734109852994855,0.023940223371004585,0.8783279731651502
-8415.673837184906,7020.0,-260.0,16192.0,3998.0,547.0,2371.0,-0.07383869919996823,-0.49236355194636106,0.3938764387022468,0.7726495520288967
-8415.689415454865,7080.0,84.0,15828.0,3715.0,1668.0,2793.0,-0.14687571290447768,-0.4891712570445538,0.6921423850388025,0.50997835745554
-8415.70505309105,6848.0,220.0,14924.0,3676.0,2447.0,3153.0,-0.2514012333658491,-0.4109296381353423,0.8667341560388633,0.12925229251230302
-8415.72071146965,6404.0,20.0,14312.0,3619.0,2890.0,3103.0,-0.33748060266480323,-0.259112347441625,0.8591064656437074,-0.28443578346872816
-8415.736297130585,6104.0,472.0,13960.0,3583.0,2640.0,2831.0,-0.3489882391250216,-0.07884475383480491,0.6870093057376967,-0.6324625898620044
-8415.751899719238,5372.0,992.0,13360.0,3000.0,2230.0,2603.0,-0.29590946633312376,0.10123925630535348,0.4378878845513964,-0.8428774532992847
-8415.767486095428,5344.0,480.0,13596.0,2752.0,1698.0,2502.0,-0.18942363057517816,0.23599219481662906,0.15943252299400276,-0.9396848635458142
-8415.783126354218,5436.0,-52.0,14208.0,2769.0,1365.0,2730.0,-0.039134988784038864,0.31983188850844396,-0.1378908506453716,-0.9365693402275623
-8415.79872751236,5564.0,-676.0,14840.0,2889.0,1228.0,3138.0,0.14129636302127435,0.3472166698978738,-0.43434187407996816,-0.8190378857920384
-8415.814372301102,5772.0,-1036.0,15828.0,3176.0,1251.0,3488.0,0.3145412133683382,0.31598845154440747,-0.691493066179718,-0.5683770429993749
-8415.83000779152,6108.0,-1580.0,16080.0,3386.0,1637.0,3902.0,0.4643032683590512,0.23013414025239687,-0.8335574867982909,-0.1914227486060897
-8415.845607042313,6200.0,-1440.0,15996.0,3567.0,2136.0,4127.0,0.5494469167163086,0.09799977438536463,-0.7919028920238199,0.2477780045437241
-8415.861191034317,6060.0,-1024.0,15660.0,3505.0,2300.0,4232.0,0.520804904202447,-0.06759611934179441,-0.56948689917005,0.6323588285793842
-8415.876777887344,5860.0,116.0,15280.0,3370.0,2164.0,4434.0,0.357855915422625,-0.22536190467827932,-0.2294422436837825,0.8766455455485785
-8415.892354488373,5208.0,864.0,15064.0,3161.0,1983.0,4537.0,0.10024547686983898,-0.3283371568094421,0.14567791583768241,0.9278596341379548
-8415.90797996521,4932.0,1452.0,15280.0,3319.0,1822.0,4653.0,-0.1813052312923206,-0.34325918700513214,0.4994160402963631,0.7745225383017044
-8415.923629283905,5116.0,1612.0,15972.0,2780.0,1910.0,4707.0,-0.4458532379288313,-0.2776271320086536,0.7122819087822037,0.46560986697299156
-8415.939288139343,5252.0,1384.0,15988.0,2501.0,2217.0,4886.0,-0.6412176115020467,-0.14323015992315963,0.7515707842948405,0.05887658433057047
-8415.954863071442,5220.0,1036.0,15920.0,2295.0,2780.0,4862.0,-0.7250175906928789,0.029196150482423917,0.5910199109159813,-0.35240962371048645
-8415.970502376556,4628.0,812.0,15776.0,2270.0,3056.0,4678.0,-0.6589085439820979,0.19540646277327908,0.2793513007559639,-0.670536125603817
-8415.986229658127,4320.0,1304.0,15804.0,2285.0,2982.0,4371.0,-0.4599312133697065,0.30808536365539746,-0.08983742909706537,-0.8279347341444377
-8416.002004861832,4240.0,1728.0,15940.0,2354.0,2959.0,4351.0,-0.16584233737950915,0.35112831078296447,-0.4428097132534566,-0.8081613615779925
-8416.017627477646,4152.0,1820.0,15972.0,2321.0,3257.0,3925.0,0.14894647151131601,0.3552478263111155,-0.6952172045605534,-0.6068665166315949
-8416.033241510391,3728.0,1864.0,15932.0,2260.0,3390.0,3967.0,0.4432008164353986,0.2896943855030931,-0.8006238396856059,-0.2804490446517131
-8416.04887843132,3196.0,1780.0,15768.0,2347.0,3254.0,3981.0,0.6356525934846392,0.16312899464114575,-0.7468492102715756,0.10747543263623044
-8416.064520597458,2628.0,1272.0,15636.0,2392.0,3062.0,3998.0,0.686782295185292,0.005816265937878024,-0.5496922685498769,0.47553618155409816
-8416.08011174202,3016.0,1028.0,15520.0,2359.0,2372.0,3689.0,0.5927659392586532,-0.1175678521904288,-0.28546135137612866,0.7438535865724186
-8416.095732927322,3224.0,1456.0,15080.0,2224.0,1808.0,3204.0,0.42382363949547647,-0.1868105888531156,-0.01353263854311723,0.8861671367136235
-8416.111346244812,3300.0,2032.0,14816.0,2040.0,1459.0,2636.0,0.2430012180997678,-0.21635930920852106,0.22990499544294318,0.9172146697427058
-8416.126907110214,2972.0,2720.0,14564.0,1819.0,1272.0,2215.0,0.07185084827240668,-0.2265952301777441,0.42847672914760637,0.87172228940311
-8416.142503261566,3020.0,3524.0,14808.0,1453.0,1358.0,1918.0,-0.09349354081277607,-0.24199667751500348,0.569054683645588,0.7803033595461506
-8416.158077001572,3200.0,3944.0,15192.0,753.0,1958.0,1818.0,-0.29032402998902046,-0.2829232230259851,0.6245863738711546,0.6675015124012869
-8416.173661470413,3056.0,3360.0,15776.0,88.0,2456.0,1540.0,-0.496195730723049,-0.3336957576772965,0.5868894183044803,0.5458917006170941
-8416.189331531525,3092.0,2556.0,16024.0,-352.0,2496.0,1597.0,-0.6875555580673128,-0.3440107241115785,0.49200155923626027,0.4084830987642722
-8416.204984664917,3152.0,2196.0,16272.0,-631.0,2283.0,1568.0,-0.8352514272775962,-0.31068264578060456,0.36829330632759505,0.26493657232588685
-8416.220596551895,2996.0,1896.0,16200.0,-952.0,1876.0,1406.0,-0.9315161002577644,-0.2336721045204454,0.24166464009704008,0.138828326563136
-8416.236191272736,2952.0,1608.0,15732.0,-1181.0,1184.0,1412.0,-0.9800162005209695,-0.11983358219190222,0.15689335696493417,0.02434407188153322
-8416.251860380173,2864.0,1332.0,15472.0,-1329.0,519.0,1457.0,-0.9886033261727845,0.012721261526255172,0.12279132575743668,-0.08616219184780928
-8416.267468452454,2680.0,1744.0,15128.0,-1301.0,374.0,1282.0,-0.9688463348401065,0.13940093207984974,0.09745486575195578,-0.18001863443385416
-8416.283102273941,2452.0,1868.0,15264.0,-2008.0,750.0,1931.0,-0.8927005964226917,0.326905377810581,0.040782291855104125,-0.30749849394124973
-8416.298703193665,2504.0,1768.0,15484.0,-2226.0,1125.0,2258.0,-0.741413250255589,0.5165480804372847,-0.049458859343468185,-0.4254859506193391
-8416.31433057785,2180.0,1472.0,15916.0,-2165.0,917.0,2121.0,-0.5408976716426696,0.6567896396432983,-0.1195257660296943,-0.5116352893651688
-8416.329985141754,2348.0,984.0,16340.0,-2089.0,275.0,1614.0,-0.3373246047386432,0.7313959370655131,-0.12832561269467907,-0.578623047768159
-8416.345577955246,2064.0,1080.0,16328.0,-1945.0,-162.0,772.0,-0.17313066716011355,0.7591223284434025,-0.07336879498920296,-0.623198268987642
-8416.361156463623,2576.0,1288.0,16188.0,-1777.0,-335.0,511.0,-0.029349151553382653,0.754323654878286,-0.005421501193404107,-0.6558239537550997
-8416.376719236374,2712.0,1208.0,16552.0,-1510.0,-284.0,-68.0,0.06546771336729788,0.7352875518933618,0.08545788723675528,-0.6691510622020668
-8416.39230799675,2468.0,872.0,17060.0,-1243.0,-279.0,-485.0,0.11818140915284635,0.7032216339957578,0.18627116749301945,-0.6758813062748308
-8416.407946109772,2224.0,640.0,17512.0,-1220.0,-437.0,-707.0,0.15718435982784357,0.6479097485417051,0.29467919785935703,-0.6845949204596112
-8416.423552751541,2236.0,424.0,17676.0,-1083.0,-572.0,-767.0,0.18586222548158207,0.5744934343054584,0.39178405210057793,-0.694202984435104
-8416.439148664474,2412.0,468.0,17600.0,-1008.0,-504.0,-948.0,0.19462336521924148,0.491047952984255,0.48815711946387763,-0.694763470756372
-8416.45478796959,2484.0,320.0,16680.0,-829.0,305.0,-1404.0,0.1306721139945256,0.4310635171597203,0.5975016650992273,-0.6634009368411713
-8416.470425128937,2500.0,712.0,16340.0,-1017.0,961.0,-1860.0,0.010893054396026532,0.37048075002830155,0.7225285957673144,-0.5835904244612868
-8416.486022233963,2396.0,1088.0,16204.0,-917.0,1445.0,-2256.0,-0.16069196750346532,0.29210963560135284,0.8188901207319983,-0.4671927038559608
-8416.5016040802,2376.0,1064.0,16420.0,-1609.0,1192.0,-2760.0,-0.30427893489387675,0.15907884420376062,0.8991495410928638,-0.2713638772186454
-8416.517236232758,2772.0,772.0,16472.0,-2201.0,538.0,-2978.0,-0.3674433804026485,-0.0032996903503483776,0.9299692737702717,-0.011472754031180683
-8416.53287577629,2376.0,768.0,17132.0,-2680.0,-218.0,-3230.0,-0.3321729707659005,-0.1687722430877601,0.8812530543240712,0.29080939066711403
-8416.548491954803,2448.0,-12.0,16604.0,-2834.0,-162.0,-3130.0,-0.2646377032417284,-0.3032788554423191,0.7204026976705474,0.5648086180765458
-8416.564077615738,2416.0,-1152.0,16100.0,-2656.0,265.0,-3079.0,-0.1883009019233553,-0.4226255679722408,0.4727257741751765,0.7499738275843177
-8416.57966542244,2152.0,-1876.0,15996.0,-2266.0,307.0,-3099.0,-0.07745530792860839,-0.5054565131867054,0.19423034662104055,0.8371313881358725
-8416.59525847435,2032.0,-2428.0,15636.0,-1921.0,201.0,-3016.0,0.052271503215854415,-0.5327092212092838,-0.07696762720128206,0.8411685680962869
-8416.61087346077,2172.0,-2660.0,15500.0,-1417.0,55.0,-2580.0,0.17066961819062476,-0.5091643938289286,-0.2912743550449521,0.7916961232547707
-8416.626463651657,2484.0,-2768.0,15300.0,-800.0,-44.0,-2111.0,0.27464591790020393,-0.4554582264317494,-0.43267382031819324,0.7279565845348605
-8416.642075061798,2468.0,-2752.0,14924.0,-305.0,-165.0,-1704.0,0.3604996936314512,-0.38341377568549695,-0.5177539738461017,0.6745106893688132
-8416.65765094757,2588.0,-2328.0,15192.0,63.0,-373.0,-1211.0,0.4145873755263009,-0.3027857006968495,-0.5627782648982133,0.6478570460108374
-8416.673248291016,2556.0,-2244.0,15860.0,73.0,-754.0,-643.0,0.41435837578138324,-0.22498789417009163,-0.6005661880236668,0.6457614402389191
-8416.688854455948,2952.0,-1920.0,16492.0,53.0,-1156.0,68.0,0.34925738256734556,-0.1605864066038976,-0.6346969936591723,0.6703663274481072
-8416.704453229904,2976.0,-1928.0,16924.0,-76.0,-1100.0,576.0,0.2521287715150896,-0.12963512656023157,-0.6606050820901068,0.6951451230158546
-8416.72007226944,2892.0,-1812.0,17032.0,74.0,-96.0,749.0,0.201593247352337,-0.16496916286526245,-0.6482162415837759,0.7155145296026335
-8416.735664606094,2496.0,-1464.0,17048.0,390.0,954.0,26.0,0.2585651321491817,-0.21823196444344045,-0.6041364975710016,0.7214831768201364
-8416.751311063766,1988.0,-716.0,16940.0,627.0,1155.0,-817.0,0.3794719862915476,-0.23157131517310836,-0.5490338375955546,0.7077694418269572
-8416.766908407211,1796.0,472.0,16788.0,697.0,895.0,-1292.0,0.5106125820354173,-0.19954847941694961,-0.49674328826516917,0.6728308115663361
-8416.782506227493,1508.0,1244.0,16928.0,387.0,380.0,-2295.0,0.6549527282952585,-0.1028658133849242,-0.48669173535350446,0.5688468184615695
-8416.798133611679,1812.0,1232.0,16880.0,5.0,136.0,-2675.0,0.7728427094954204,0.0042589312889755055,-0.48931087080840496,0.4040679145796822
-8416.813775062561,2004.0,536.0,16060.0,-120.0,162.0,-2885.0,0.8548400710331003,0.11023112318213654,-0.466704669041974,0.19820268497815624
-8416.829368591309,1900.0,-204.0,15524.0,-158.0,5.0,-2972.0,0.878913519678866,0.21232992066024226,-0.42613190559094544,-0.028959087616026565
-8416.84496808052,1532.0,-1020.0,14984.0,-7.0,-336.0,-2967.0,0.8313875124151305,0.31081213017350545,-0.38391567913386654,-0.25455721410396376
-8416.860557794571,1464.0,-1644.0,15104.0,226.0,-891.0,-2860.0,0.7080311813357412,0.3899403450104526,-0.3635929436663104,-0.46307509639961336
-8416.87612080574,1732.0,-1988.0,15468.0,600.0,-1424.0,-2436.0,0.5275845001943541,0.4331229963317083,-0.38095517482956925,-0.623644305653382
-8416.891726732254,2276.0,-2272.0,16024.0,906.0,-1717.0,-2303.0,0.30072381231728207,0.4427924106563763,-0.40832089465378074,-0.7394417602215951
-8416.907346010208,2704.0,-2016.0,16776.0,861.0,-1621.0,-1657.0,0.10044937317595178,0.4102661121539606,-0.4323610081511802,-0.7966527469839836
-8416.923013210297,3000.0,-1048.0,17508.0,597.0,-1356.0,-1176.0,-0.05314345221271229,0.3605953721261127,-0.43763078751508944,-0.8219647467544264
-8416.938668012619,3132.0,-392.0,17932.0,507.0,-785.0,-667.0,-0.1462085009774089,0.32565643235921343,-0.44702337101149325,-0.8202079419723569
-8416.954242944717,3340.0,72.0,17772.0,-42.0,-309.0,-232.0,-0.1735859515773099,0.31282917638201047,-0.4331106105051455,-0.8272974210566675
-8416.969860076904,3208.0,-76.0,17240.0,-173.0,-93.0,289.0,-0.15144554445653496,0.2975539352858796,-0.4267766128786723,-0.8404686938607279
-8416.985498905182,2996.0,-532.0,16832.0,-268.0,-73.0,666.0,-0.09815638805010517,0.27027925506442924,-0.42247733235401475,-0.8595506683225892
-8417.001147031784,2568.0,-788.0,16028.0,-290.0,-8.0,897.0,-0.02422813394750087,0.23816523710703047,-0.42024667898280066,-0.8752617015288061
-8417.016782522202,2380.0,-1240.0,15676.0,-106.0,253.0,1059.0,0.06786221857776446,0.21777193381253454,-0.43257539733382755,-0.8722663754580557
-8417.03239274025,2192.0,-1004.0,15396.0,151.0,-165.0,1214.0,0.15034382661294815,0.1592375430864568,-0.4652737445302662,-0.857648227026646
-8417.048052549362,2260.0,-696.0,15520.0,432.0,-419.0,1220.0,0.21716393116709778,0.08331882035145236,-0.5162772977318535,-0.8242302791222788
-8417.063655376434,2340.0,-260.0,15680.0,635.0,-666.0,1174.0,0.2648089794119963,-0.005477825037292697,-0.5780820770518083,-0.7717948626721384
-8417.079283237457,2464.0,148.0,16052.0,758.0,-772.0,1167.0,0.30199256409210046,-0.0979370161270775,-0.6401404244981642,-0.699592073303088
-8417.094865083694,2764.0,348.0,16268.0,703.0,-725.0,1223.0,0.3390054960451765,-0.19020474002963508,-0.6850692196674791,-0.6160986891607659
-8417.110477209091,2760.0,436.0,16612.0,547.0,-736.0,1285.0,0.36975367725226144,-0.2877099604078678,-0.7081400773047631,-0.5282450451782181
-8417.12604522705,2728.0,196.0,16820.0,317.0,-821.0,1314.0,0.383984057591968,-0.3928126527590711,-0.7094490637476607,-0.441516125747585
-8417.141627550125,3060.0,-92.0,17064.0,196.0,-800.0,1294.0,0.387647201912651,-0.49278869395350633,-0.6932010181207928,-0.3554733442006394
-8417.157215356827,2776.0,-196.0,16936.0,200.0,-610.0,1330.0,0.3973927873998836,-0.580597363482514,-0.6573519137165827,-0.2699520986635422
-8417.172771692276,2744.0,-500.0,16604.0,317.0,-443.0,1240.0,0.41444678740367563,-0.6466617787308624,-0.6130395621732236,-0.1850537747517515
-8417.188393831253,2628.0,-240.0,16252.0,464.0,-349.0,1049.0,0.4365981788348434,-0.6878614093620607,-0.5708014646627152,-0.10205096612691422
-8417.204065799713,2508.0,-88.0,15648.0,599.0,-362.0,866.0,0.4601508686805083,-0.7080374133215801,-0.5353888431637196,-0.017406493192869233
-8417.21970486641,2452.0,232.0,15792.0,555.0,-586.0,723.0,0.46616309936826544,-0.7171875744715154,-0.5127757303073851,0.07345065158843171
-8417.23530292511,2572.0,380.0,15640.0,485.0,-794.0,592.0,0.455165603373401,-0.7155140006904742,-0.5025725583032253,0.16818089059756755
-8417.250891923904,2588.0,372.0,16140.0,408.0,-918.0,257.0,0.43490201879120594,-0.6942220879860612,-0.5148821777923388,0.25261090553542126
-8417.266477584839,3056.0,432.0,16308.0,360.0,-1024.0,753.0,0.3915704377334582,-0.6872215976210864,-0.4968740948808813,0.35709270770019175
-8417.282071113586,3156.0,384.0,16460.0,324.0,-688.0,452.0,0.366056052758205,-0.6722556821084712,-0.4817198399165638,0.4266394964636028
-8417.29766201973,3076.0,128.0,16656.0,333.0,-589.0,313.0,0.3485014314028198,-0.6514076843355873,-0.46875370185955517,0.4842362523517798
-8417.313350915909,2920.0,-24.0,16696.0,375.0,-649.0,206.0,0.3338561235034267,-0.6195072015390277,-0.45984335326420106,0.5415671763496034
-8417.328941822052,2808.0,-116.0,16564.0,312.0,-709.0,186.0,0.3127805887476427,-0.5828823541566313,-0.45456153584375164,0.5964815794698705
-8417.34453701973,2860.0,-184.0,16368.0,292.0,-578.0,147.0,0.29660895527011794,-0.5496422771184933,-0.44686373953750425,0.6404914465815481
-8417.360116243362,2600.0,4.0,16196.0,243.0,-544.0,100.0,0.2811200297135292,-0.5160294302258002,-0.44189617240811807,0.6778000655397984
-8417.375710725784,2528.0,176.0,16224.0,187.0,-747.0,36.0,0.25806548935840334,-0.4674773395417883,-0.44646769158451927,0.7180067831074648
-8417.391294717789,2664.0,236.0,16200.0,144.0,-787.0,44.0,0.22999813526533788,-0.41550285555332517,-0.4521947563042258,0.7549689643769879
-8417.406892061234,2788.0,496.0,16264.0,103.0,-842.0,44.0,0.19710113481345568,-0.35858912353819566,-0.45936427811333613,0.7883840708238404
-8417.422498703003,2844.0,208.0,16248.0,133.0,-840.0,71.0,0.16228725128418253,-0.30039527888268597,-0.46105710760289675,0.8190554731057407
-8417.4381377697,3196.0,80.0,16400.0,100.0,-763.0,251.0,0.11600742636743609,-0.2537812405143424,-0.4568736641687708,0.8446323543291524
-8417.453744649887,3336.0,-468.0,16632.0,209.0,-595.0,190.0,0.08280051804451002,-0.21490084125539255,-0.4424133121524636,0.8667365019829106
-8417.469365119934,3224.0,-468.0,16712.0,324.0,-816.0,224.0,0.04032591533441731,-0.15885858702090486,-0.4181360280067378,0.8934763745980705
-8417.484963655472,3604.0,-200.0,16524.0,380.0,-588.0,4.0,0.023807989510281062,-0.11148026597115045,-0.3896115067922826,0.9138972610252901
-8417.500565290451,3892.0,-84.0,16212.0,473.0,-506.0,452.0,-0.02475689536223503,-0.08515956167924928,-0.3474338588644946,0.9335012902514639
-8417.516183376312,3476.0,88.0,16068.0,358.0,-279.0,475.0,-0.0691214154873903,-0.07735422754384058,-0.31339975921794055,0.9439381040747598
-8417.531785964966,3680.0,-104.0,15972.0,321.0,-318.0,593.0,-0.1242239807797282,-0.06902638875173055,-0.2802156141139579,0.9493592417319537
-8417.54742026329,3580.0,-112.0,16092.0,300.0,-528.0,709.0,-0.19341929682741527,-0.04556989750287776,-0.24431899849650843,0.9491156868527821
-8417.563002347946,3640.0,-28.0,16284.0,281.0,-549.0,836.0,-0.2721301936745884,-0.022421701891413657,-0.20734998104174585,0.9393872525944299
-8417.578634500504,3748.0,-28.0,16248.0,316.0,-462.0,1007.0,-0.3606030092010722,-0.01007203434853772,-0.16739289260547227,0.917520377639857
-8417.594220161438,3640.0,-284.0,16180.0,411.0,-438.0,1077.0,-0.45027178108485255,-0.0034870023194283227,-0.1187961296391679,0.8849466896690744
-8417.60985994339,3492.0,-268.0,16184.0,468.0,-473.0,1042.0,-0.5324074540021572,0.004001887432031291,-0.06311174023541984,0.8441227375591651
-8417.62550497055,3588.0,-268.0,16156.0,522.0,-482.0,917.0,-0.5997175479952244,0.010359802139126092,-0.002318136730699236,0.8001413396196524
-8417.641145944595,3444.0,4.0,16172.0,432.0,-404.0,752.0,-0.6504239084827742,0.015999361233926153,0.048359901384793326,0.7578615174635477
-8417.656741142273,3448.0,216.0,16164.0,420.0,-332.0,668.0,-0.6918566896289517,0.017190739652682106,0.09391428431949185,0.7156947021507283
-8417.672340154648,3320.0,472.0,16220.0,415.0,-429.0,628.0,-0.7261388786585277,0.02432099329015554,0.14428874313505996,0.6717972735806697
-8417.687970638275,3412.0,304.0,16320.0,340.0,-412.0,536.0,-0.7515149243318409,0.03377419172482661,0.18851453842067475,0.631305703509704
-8417.703561067581,3516.0,64.0,16284.0,263.0,-352.0,387.0,-0.7668863951766689,0.04232206098015309,0.22436845713640238,0.5997940442264801
-8417.719208955765,3424.0,140.0,16228.0,231.0,-370.0,358.0,-0.7783641488158461,0.05321428286529264,0.2592999565146933,0.569281147139789
-8417.734812498093,3420.0,128.0,15908.0,138.0,-337.0,252.0,-0.7833922392663345,0.0662477103244496,0.2873861863213263,0.5470987298886099
-8417.750427007675,3412.0,96.0,16060.0,178.0,-360.0,185.0,-0.7837256921637569,0.07584026454744199,0.31892558236891205,0.527549776444332
-8417.766021251678,3344.0,-44.0,16080.0,184.0,-375.0,98.0,-0.7785611096929453,0.0831723818446236,0.35189904535602373,0.512924960641906
-8417.781606912613,3180.0,76.0,16120.0,205.0,-401.0,250.0,-0.7782321786573175,0.09474998563463921,0.3858810046088516,0.48628486158483725
-8417.797183990479,3200.0,188.0,16304.0,148.0,-264.0,-69.0,-0.767448767671622,0.09350806909917367,0.41028845465199415,0.48367552552504817
-8417.812794446945,3240.0,204.0,16636.0,143.0,-604.0,-84.0,-0.7424322723162669,0.10623142121597197,0.45657394566416953,0.4785910971909019
-8417.828384876251,3396.0,160.0,16500.0,169.0,-553.0,-207.0,-0.7123950788801845,0.10994509214408961,0.5004742117112132,0.4795110965481016
-8417.844055175781,3484.0,148.0,16524.0,113.0,-450.0,-509.0,-0.6714091638471024,0.0993149895356687,0.5369201397910858,0.5010619034035472
-8417.859666109085,3640.0,132.0,16332.0,74.0,-267.0,-264.0,-0.6477312700757669,0.09421803914965625,0.5576102648528254,0.5105271348279049
-8417.875283956528,3612.0,72.0,16420.0,84.0,-134.0,-248.0,-0.630740233777417,0.08333362679113823,0.5706160542625013,0.5192490565789589
-8417.890879392624,3456.0,40.0,16200.0,130.0,-21.0,-6.0,-0.6304241291070906,0.07682052990530237,0.5775080522869055,0.5129799929514014
-8417.906475543976,3416.0,112.0,16192.0,103.0,-6.0,-288.0,-0.6177941435451283,0.0568803556120064,0.5840139199946439,0.5234718355358603
-8417.922173261642,3356.0,16.0,16136.0,118.0,254.0,-313.0,-0.6167075988709811,0.02294436370921852,0.5767156373308795,0.5352983909249173
-8417.93782877922,3252.0,48.0,15900.0,115.0,-29.0,-321.0,-0.6003087669206482,0.001964571817757847,0.583872956046579,0.5465509088943259
-8417.953447818756,3224.0,68.0,16052.0,157.0,-158.0,-339.0,-0.5758465519451448,-0.015969524051562437,0.5991704358105931,0.5560040573278202
-8417.969045639038,3120.0,-44.0,16060.0,111.0,-264.0,-297.0,-0.5472107212564775,-0.024227166491648026,0.6168670059679973,0.5651978130653292
-8417.984690904617,3364.0,100.0,16364.0,109.0,-364.0,-274.0,-0.5135270410137632,-0.026179003193177553,0.6383794998292143,0.5727794096659398
-8418.000286340714,3540.0,228.0,16524.0,68.0,-313.0,-252.0,-0.48311561970477185,-0.02757527116193346,0.6546883220557936,0.5807082773487817
-8418.015951633453,3452.0,140.0,16332.0,230.0,-145.0,-279.0,-0.45995488323714995,-0.045815766881074596,0.6712779309358092,0.5794207109949884
-8418.031545877457,3404.0,172.0,16140.0,-29.0,-61.0,-347.0,-0.4388208805534101,-0.06184083849955523,0.6704340881932725,0.5950882950222235
-8418.047106742859,3276.0,132.0,16132.0,5.0,-43.0,-322.0,-0.4194631398018695,-0.078579803018298,0.6702155879584548,0.607195977063967
-8418.062721967697,3280.0,116.0,16220.0,-255.0,-103.0,-330.0,-0.39749356070271713,-0.08299632793690126,0.6576278272372951,0.6345361452210739
-8418.078324079514,3220.0,0.0,16296.0,247.0,-198.0,-376.0,-0.3632541802472927,-0.10205270151447202,0.6747181818785366,0.6343398313908623
-8418.0939848423,3296.0,60.0,16316.0,20.0,-215.0,-445.0,-0.32554120631767514,-0.11684359639890199,0.677937705798887,0.6486686087872181
-8418.109573364258,3452.0,144.0,16356.0,48.0,-191.0,-441.0,-0.28858939273363937,-0.1333304941381827,0.6808744793329775,0.6598098855939823
-8418.125213623047,3596.0,-28.0,16164.0,102.0,-141.0,-406.0,-0.25551236361377827,-0.15175256712869167,0.6849657541315822,0.6652116250316925
-8418.140805959702,3380.0,-16.0,16620.0,132.0,114.0,-340.0,-0.24076100326970787,-0.18150126977719294,0.6851054206606756,0.6631153677567645
-8418.156403541565,3700.0,20.0,16196.0,132.0,314.0,-288.0,-0.24065301624594254,-0.2194600290365472,0.680975863627398,0.6558927462504273
-8418.172044754028,3480.0,-80.0,16148.0,155.0,276.0,-191.0,-0.24308457672995762,-0.24969153849880063,0.6799523186958242,0.6451580182081684
-8418.187628746033,3384.0,-184.0,16320.0,158.0,260.0,-131.0,-0.2476477348125435,-0.27529582652072615,0.6801119375556802,0.632716808482867
-8418.203253269196,3648.0,-288.0,16280.0,178.0,392.0,-251.0,-0.2525984451085553,-0.31534498825503227,0.6747232609882224,0.6176569314697221
-8418.218863725662,3520.0,-256.0,16152.0,206.0,420.0,252.0,-0.28500327117687674,-0.3272841801635067,0.6827019234789922,0.5878573674891427
-8418.234442710876,3328.0,-492.0,16028.0,259.0,393.0,139.0,-0.3079361250471428,-0.3452435654425523,0.6894883547753563,0.5573042544612743
-8418.250038862228,3192.0,-168.0,16200.0,235.0,326.0,208.0,-0.3304001512613244,-0.3545754332993556,0.6978196408480274,0.5274085238160243
-8418.265630483627,3140.0,-64.0,16132.0,236.0,146.0,230.0,-0.3424757155894432,-0.3538712248069149,0.7111816920808071,0.5017032403066907
-8418.281236886978,3320.0,-44.0,16176.0,507.0,38.0,357.0,-0.3443728683767532,-0.34797431428527303,0.7421329602256113,0.45777710020318063
-8418.296884775162,3088.0,-96.0,15920.0,253.0,-62.0,391.0,-0.3480726904246856,-0.32745903640767426,0.7652901887320388,0.4312156173957048
-8418.312540054321,3224.0,12.0,16148.0,240.0,-179.0,437.0,-0.34540549428627515,-0.29846679368219087,0.7913610030559225,0.4066452759202434
-8418.328147649765,3368.0,-120.0,16416.0,192.0,-12.0,498.0,-0.35693488441599963,-0.2691057072031911,0.810587104137376,0.3783228161818819
-8418.34378695488,3384.0,-164.0,16384.0,281.0,-227.0,551.0,-0.3519595325894666,-0.2309681146264326,0.8384538035151263,0.3460829912265746
-8418.359408855438,3464.0,-120.0,16368.0,300.0,-106.0,604.0,-0.35584110280870396,-0.19241189519538318,0.8613816997021201,0.30720732341123147
-8418.37502503395,3544.0,252.0,16180.0,269.0,46.0,669.0,-0.3720567302601258,-0.15137858722987355,0.8766204074435422,0.26494334120703955
-8418.390642404556,3372.0,-52.0,16148.0,330.0,50.0,621.0,-0.3852307959576064,-0.11549900847161987,0.8891130565636672,0.21848383358032378
-8418.406238794327,3528.0,-8.0,16376.0,352.0,-51.0,615.0,-0.38878363362133433,-0.07846901250423663,0.9019710911330415,0.1706987143040995
-8418.421865940094,3120.0,128.0,16072.0,353.0,-191.0,659.0,-0.38036180243577056,-0.03562809505991923,0.9161166345594459,0.12159708044886454
-8418.437496423721,3112.0,164.0,16364.0,310.0,-399.0,649.0,-0.3535436778902479,0.010193070329761442,0.9322436359245279,0.07632019666710403
-8418.453091859818,3260.0,216.0,16164.0,1.0,-477.0,653.0,-0.3183573825389079,0.06631688458974416,0.9440160897976951,0.05553620444679459
-8418.468706607819,3436.0,236.0,16172.0,238.0,-462.0,638.0,-0.28409199624455833,0.11422302585767945,0.9518429070770121,0.015489295687023603
-8418.484282016754,3300.0,212.0,16320.0,202.0,-437.0,593.0,-0.25010380688682915,0.15872235770532236,0.9549046461670593,-0.020308019936532563
-8418.499935388565,3376.0,120.0,16240.0,300.0,-432.0,743.0,-0.21630760645849778,0.21266821227716903,0.9505012109163952,-0.06731046665634524
-8418.515574216843,3392.0,80.0,16604.0,314.0,-387.0,517.0,-0.18667299701458415,0.2468738038762468,0.944502061491836,-0.11010164841153718
-8418.531183719635,3436.0,56.0,16452.0,307.0,-323.0,423.0,-0.16240531147736076,0.27324516558707174,0.9363443743716504,-0.14906645118804535
-8418.546804904938,3328.0,116.0,16304.0,241.0,-311.0,328.0,-0.1383691333763353,0.29229368426981905,0.9288574222314425,-0.18067173057846408
-8418.562445402145,3372.0,188.0,16348.0,182.0,-273.0,259.0,-0.1167527457168486,0.3065799929402879,0.9220544346425987,-0.2054096488781083
-8418.578045845032,3328.0,248.0,16132.0,201.0,-230.0,215.0,-0.09974576077389068,0.3175369222678877,0.9145463170217225,-0.229839335680989
-8418.59364414215,3304.0,8.0,16192.0,173.0,-358.0,200.0,-0.0719253713301145,0.3245622210858049,0.9079549135833038,-0.255154816734487
-8418.609214544296,3400.0,144.0,16256.0,114.0,-431.0,158.0,-0.037470976686141584,0.3264831010889701,0.9028671084881306,-0.277192523383655
-8418.624879360199,3432.0,32.0,16276.0,141.0,-332.0,83.0,-0.013329954421106825,0.32435181734893476,0.8976972613856578,-0.29792253657329243
-8418.64052605629,3372.0,24.0,16240.0,125.0,-509.0,53.0,0.024352396259187822,0.3147797566295679,0.8925832968999511,-0.32189396345361787
-8418.65613746643,3676.0,32.0,16236.0,181.0,-146.0,-253.0,0.023621058512236916,0.29120674096325566,0.8937234534361541,-0.340439522368475
-8418.671770811081,3692.0,156.0,16136.0,204.0,-23.0,39.0,0.021370881217951925,0.29392594674367095,0.8864591984048973,-0.35684858529935604
-8418.687372684479,3812.0,196.0,16272.0,147.0,-34.0,62.0,0.0221443244992894,0.29789584978541855,0.880119895968561,-0.3689941195918748
-8418.702962636948,3560.0,164.0,16244.0,131.0,-70.0,-36.0,0.02294041617430628,0.29308904192828106,0.8766047416016668,-0.38096807977675373
-8418.718651771545,3608.0,184.0,16128.0,85.0,7.0,-88.0,0.017288463015936225,0.2867275949181724,0.8759738492791517,-0.38750252997632545
-8418.734247922897,3652.0,140.0,16052.0,86.0,101.0,-94.0,0.0042171096895007995,0.28304284339473773,0.8754614429989566,-0.39170936497749625
-8418.749832391739,3512.0,116.0,16032.0,121.0,114.0,-89.0,-0.010543611281506753,0.2801311141610891,0.8734251616864321,-0.39817568744593274
-8418.765418767929,3372.0,60.0,16108.0,111.0,-20.0,-121.0,-0.015955961295028003,0.2700647632849152,0.8724304580760243,-0.40703258684320676
-8418.78100180626,3080.0,84.0,16200.0,99.0,-154.0,-69.0,-0.009030032437533664,0.25914725308247377,0.8706023696550104,-0.4181060555469942
-8418.796599149704,3400.0,16.0,16356.0,86.0,-287.0,-47.0,0.009098822095705464,0.24493058782777075,0.8684226838848865,-0.43100842300004283
-8418.81218957901,3508.0,-220.0,16284.0,119.0,-356.0,-1.0,0.03346978674678049,0.23141364207672085,0.8631922861039562,-0.44746684441032963
-8418.827902793884,3720.0,64.0,16300.0,103.0,-267.0,-25.0,0.05050189598820688,0.21931465532419536,0.8585936947333788,-0.4606164432862893
-8418.843514204025,3772.0,68.0,16280.0,126.0,-68.0,-77.0,0.05007370973138162,0.21132495830896014,0.8545830276879824,-0.47172262440664714
-8418.859097003937,3664.0,124.0,16192.0,156.0,44.0,-111.0,0.0393257956382899,0.20548903830007015,0.8502393146205537,-0.48303296451639716
-8418.874698877335,3832.0,140.0,16292.0,179.0,126.0,-38.0,0.025142348065194976,0.20853690707706785,0.8436105402259741,-0.49416745860096734
-8418.890300273895,3496.0,100.0,16300.0,178.0,118.0,-34.0,0.011729088531996312,0.21145606502403433,0.8366217550352713,-0.5051859064230342
-8418.905938386917,3388.0,152.0,16076.0,168.0,2.0,-69.0,0.005422183077164486,0.2066298518979643,0.8303431448406339,-0.5174987594685316
-8418.921661615372,3356.0,36.0,16208.0,136.0,-54.0,-10.0,0.00641374137133176,0.20349115056815537,0.8242428354345864,-0.5283691548499243
-8418.93737077713,3316.0,148.0,16256.0,120.0,-163.0,-43.0,0.014007899252013773,0.19289217149133603,0.8192009760920617,-0.5399130945862639
-8418.952992200851,3460.0,92.0,16272.0,94.0,-206.0,-113.0,0.021808788835837478,0.1751509531663066,0.816173857291424,-0.5501879269926654
-8418.968587398529,3836.0,140.0,16312.0,62.0,-183.0,-122.0,0.028016721334461963,0.15773170730752634,0.8145006754096852,-0.5576059734191219
-8418.984187364578,3700.0,108.0,16216.0,28.0,-48.0,-218.0,0.020412855121557737,0.1399128111884536,0.8158120692187419,-0.5607658944052901
-8418.999838352203,3612.0,96.0,16364.0,38.0,29.0,-497.0,-0.006455903733608497,0.10588264447563818,0.8192412508141473,-0.5635520915321844
-8419.015446662903,3480.0,28.0,16180.0,97.0,27.0,-233.0,-0.02076132878232478,0.09045014962390911,0.8163502486821747,-0.5700526371632328
-8419.031061410904,3420.0,24.0,15888.0,110.0,-38.0,-175.0,-0.02764870902825181,0.07585562915571893,0.8121308740450639,-0.577862367555858
-8419.046697616577,3376.0,-60.0,16132.0,108.0,-191.0,-88.0,-0.01928193870410095,0.059689050740080796,0.8074925368130177,-0.5865332275778046
-8419.06228852272,3168.0,228.0,16088.0,98.0,-338.0,-90.0,-0.0005964576850962431,0.03583814967484675,0.8030450431382772,-0.5948394152686554
-8419.077946901321,3592.0,244.0,16172.0,121.0,-351.0,-61.0,0.020430857280923784,0.013304259841581064,0.7964752278737023,-0.6041794337151575
-8419.093557357788,3648.0,44.0,16340.0,150.0,-238.0,-33.0,0.035034768380237405,-0.0012917795993356426,0.7878669445085827,-0.6148467890952344
-8419.109178066254,3672.0,40.0,16276.0,154.0,-106.0,246.0,0.055509148840738654,0.0103882199955017,0.7789485639543936,-0.6245397937631274
-8419.124808073044,3616.0,156.0,16300.0,156.0,-31.0,7.0,0.05783877602760221,0.009911106720879612,0.770136867787425,-0.6351737170457942
-8419.14041852951,3508.0,116.0,16380.0,97.0,-126.0,-241.0,0.052834225672073035,-0.012801176696201413,0.7640089016866466,-0.6429114033958248
-8419.15606880188,3540.0,164.0,16520.0,132.0,-179.0,53.0,0.06786768323648189,-0.018715882902954388,0.7556019367012814,-0.6512368283140536
-8419.171657800674,3556.0,80.0,16264.0,131.0,-132.0,77.0,0.0811417453222647,-0.020378189079565148,0.7472979545894742,-0.6592014211470439
-8419.18729519844,3672.0,120.0,16304.0,178.0,-25.0,33.0,0.08496725031224983,-0.01841807690949426,0.7367545736338093,-0.6705475665804741
-8419.202891349792,3552.0,-236.0,16164.0,175.0,29.0,47.0,0.08611407416536829,-0.01241619418346891,0.7266153208344329,-0.681513301323836
-8419.218492269516,3544.0,104.0,16048.0,150.0,7.0,31.0,0.08765964829198884,-0.008924196754707408,0.7176177327667782,-0.6908407445947852
-8419.234077692032,3464.0,104.0,16056.0,121.0,-52.0,-48.0,0.08810123643337667,-0.014159621522910016,0.7097331928552011,-0.6987964454809427
-8419.249660015106,3560.0,96.0,16032.0,124.0,-3.0,-116.0,0.0813458497486598,-0.020593540158231394,0.7018232804706334,-0.7073915760184444
-8419.26532959938,3560.0,176.0,16068.0,50.0,-295.0,-195.0,0.08741408453737083,-0.050396243488247554,0.6958471620923949,-0.7110666097312732
-8419.280927181244,3688.0,28.0,16208.0,25.0,-235.0,-97.0,0.09574304070212787,-0.07068271568181972,0.691795662593275,-0.7122190569467273
-8419.296531915665,3708.0,156.0,16268.0,52.0,-196.0,-82.0,0.1027736039542664,-0.08738275132058185,0.6861844962561979,-0.7148095398073007
-8419.312123298645,3700.0,12.0,16216.0,115.0,-112.0,-26.0,0.10871727519556744,-0.09489802839981742,0.6776256457995807,-0.7211091473796319
-8419.327791452408,3680.0,-192.0,16200.0,166.0,-40.0,68.0,0.11671556505841842,-0.09181599037191063,0.6671586341781808,-0.7299634632134842
-8419.343415498734,3616.0,-60.0,16228.0,239.0,33.0,228.0,0.13117531446317912,-0.07397874406990758,0.6536990909155628,-0.741618285128874
-8419.359001636505,3576.0,-84.0,16192.0,270.0,27.0,445.0,0.16001546798632935,-0.04371434532841649,0.6386172503421748,-0.751433372683849
-8419.37465262413,3612.0,-176.0,16048.0,328.0,30.0,702.0,0.2051698839721532,0.0019436933951713319,0.6186539840938742,-0.758398832232497
-8419.39023566246,3720.0,-220.0,16256.0,396.0,154.0,1058.0,0.26551945190608733,0.07595922154037837,0.5919567066958745,-0.7571769111114293
-8419.405811309814,3584.0,-524.0,16208.0,424.0,219.0,1532.0,0.3492528627785983,0.17763996364054416,0.5533119334453264,-0.7350594434912965
-8419.421431541443,3644.0,-468.0,16180.0,550.0,248.0,1535.0,0.42290511908153233,0.2814855870856501,0.49652955510703206,-0.7038291876747474
-8419.437018156052,3588.0,-448.0,16148.0,557.0,219.0,1660.0,0.49590805367570673,0.382844414805213,0.42447928206015995,-0.6536992392941251
-8419.452634811401,3572.0,-224.0,16184.0,574.0,74.0,1685.0,0.5634191659709264,0.4686096384704627,0.33449239807699066,-0.5925189328434257
-8419.468240499496,3632.0,140.0,16028.0,550.0,-255.0,1624.0,0.6253163381469061,0.5238063825789483,0.224428196603122,-0.5331400710747326
-8419.483911275864,3648.0,308.0,15912.0,581.0,49.0,1571.0,0.663925990235642,0.5822502150920635,0.12680809766005793,-0.4517816650581398
-8419.49951505661,3572.0,372.0,15952.0,561.0,70.0,1494.0,0.6870082157858655,0.6278551605760206,0.03244110779787559,-0.3643695696756629
-8419.515098333359,3468.0,420.0,16000.0,751.0,-67.0,1309.0,0.681876091516652,0.6685557171690316,-0.06666059372866845,-0.2891964973894358
-8419.530732393265,3500.0,396.0,16044.0,456.0,-188.0,1133.0,0.6789395798021436,0.6802973102520926,-0.15460013037871753,-0.22876935181256233
-8419.546322107315,3484.0,432.0,16272.0,323.0,-270.0,866.0,0.6711483115491222,0.6798557761903549,-0.22767543602654927,-0.18846740650704824
-8419.561986207962,3524.0,472.0,16312.0,266.0,-272.0,531.0,0.6577311557037435,0.6792071497860017,-0.27903555867407515,-0.1679480023448934
-8419.57756972313,3492.0,592.0,16260.0,187.0,-247.0,487.0,0.6470529593202288,0.6735111772557779,-0.3244036089989795,-0.1498914954722506
-8419.593160390854,3512.0,536.0,16368.0,137.0,-228.0,16.0,0.6326861117206635,0.6775411029407298,-0.33990076307923767,-0.15847337038063952
-8419.608730793,3584.0,444.0,16192.0,50.0,-141.0,-89.0,0.6243460684291106,0.6808289215369079,-0.34305397483042777,-0.170229071515554
-8419.624337911606,3500.0,356.0,16240.0,28.0,-205.0,-235.0,0.6129250834364453,0.6860069240793715,-0.3405271363767637,-0.19431575232241816
-8419.63996553421,3520.0,88.0,16152.0,-80.0,-271.0,-336.0,0.6036182514831768,0.6865319950017866,-0.33328364504686825,-0.23073976306551972
-8419.65555858612,3640.0,44.0,16176.0,-61.0,-274.0,-407.0,0.5906545252059401,0.688916299445313,-0.3217825756707235,-0.2701435511113235
-8419.671143770218,3844.0,-60.0,16244.0,-31.0,-223.0,-411.0,0.5761792285005587,0.6929415572071425,-0.3075588635796334,-0.3053801571376996
-8419.686728954315,3992.0,-112.0,16268.0,-22.0,-86.0,-431.0,0.563392731172469,0.700513990890533,-0.285002440734983,-0.3326295053114605
-8419.702324867249,4016.0,-172.0,16180.0,-20.0,82.0,-457.0,0.553026000425925,0.7126115457110098,-0.2522241327821186,-0.3503284382041781
-8419.717973709106,3904.0,-204.0,16164.0,-18.0,145.0,-456.0,0.5430115680030984,0.7255005718848017,-0.21611038573164285,-0.36343315532373066
-8419.733582258224,3784.0,-72.0,16288.0,-24.0,107.0,-378.0,0.5343332603202405,0.7343727436222537,-0.18622254551944759,-0.37484103814887065
-8419.74919295311,3724.0,-52.0,16360.0,-31.0,83.0,-322.0,0.5269984252692801,0.7404804541677076,-0.1606237436751186,-0.3849173544114041
-8419.764795541763,3648.0,-212.0,16172.0,50.0,157.0,-203.0,0.5190987985537262,0.7506263215746086,-0.14192200325340562,-0.3833467199442179
-8419.780399799347,3356.0,-328.0,16040.0,89.0,119.0,-171.0,0.5090044595775686,0.7605335665043705,-0.1282780823347741,-0.38216212259040316
-8419.796057224274,3364.0,-304.0,16368.0,100.0,-15.0,-120.0,0.49823052863995093,0.7656730768789866,-0.12430324712045777,-0.3873755057165218
-8419.811681509018,3492.0,-184.0,16188.0,77.0,-147.0,-69.0,0.4891770542735961,0.7646314814134063,-0.12867489735256926,-0.39935858322446594
-8419.827293395996,3644.0,-72.0,16320.0,68.0,-200.0,-134.0,0.47768732347965476,0.7618119123411812,-0.13061290327863026,-0.4176095074337309
-8419.842886686325,3876.0,16.0,16260.0,250.0,-25.0,-108.0,0.4567908112931128,0.7722633086810436,-0.1335521669245241,-0.42085075204037725
-8419.858462810516,4084.0,112.0,16244.0,-20.0,159.0,-93.0,0.4565945166162986,0.7782192327781434,-0.12019596872764639,-0.41406424891766386
-8419.874055624008,3712.0,-236.0,16116.0,-6.0,305.0,-69.0,0.4576139979238498,0.7893664222477307,-0.1030996244565096,-0.3960562431888868
-8419.889651536942,3468.0,-132.0,15980.0,57.0,204.0,-124.0,0.45120794627432764,0.7995638598107416,-0.0883604260626545,-0.38639546892979804
-8419.9052901268,3328.0,-72.0,15928.0,136.0,-121.0,-193.0,0.4342307241401023,0.8020501500209093,-0.0842248947503734,-0.4013295431045264
-8419.92100906372,3364.0,-240.0,15884.0,104.0,-329.0,-481.0,0.4072069885582863,0.7968775374653875,-0.0665780961081203,-0.4412890389200817
-8419.936712741852,3560.0,220.0,16148.0,63.0,-288.0,-351.0,0.3873882203997696,0.7893662470852362,-0.05478860655626604,-0.4731062282930674
-8419.95232629776,3752.0,336.0,16240.0,248.0,-125.0,-504.0,0.3485141869370649,0.7939345923714533,-0.034493185176044945,-0.49700698658668985
-8419.967960357666,3712.0,304.0,16448.0,-86.0,-65.0,-618.0,0.3270360093620538,0.7891120114514933,0.01006837788577809,-0.5198541235099228
-8419.983644247055,3744.0,432.0,16300.0,-170.0,-72.0,-660.0,0.3083632366667764,0.7789527997850171,0.061071108671451435,-0.5426001932040873
-8419.999307394028,3720.0,248.0,16184.0,-196.0,-61.0,-674.0,0.289594936779362,0.7656801737040462,0.1143136896157385,-0.5628508013272572
-8420.014921188354,3736.0,-136.0,16136.0,-141.0,80.0,-666.0,0.2650686112994852,0.7579771941722794,0.16746406816062168,-0.5719833828823838
-8420.030621290207,3728.0,-236.0,16380.0,-45.0,54.0,-687.0,0.2325708654739325,0.7481648709595904,0.2160075292797168,-0.5826670281466059
-8420.04621887207,3724.0,-140.0,16120.0,-42.0,-34.0,-704.0,0.1998004632329498,0.7308562845881253,0.26291304596997433,-0.5973320654616913
-8420.06180858612,3660.0,188.0,16080.0,-3.0,-1.0,-709.0,0.16276115733766525,0.7130510930138564,0.3076732378534581,-0.6086083495340971
-8420.077400922775,3604.0,212.0,15916.0,-45.0,48.0,-779.0,0.12262152773661394,0.6923657835174177,0.3583754066088476,-0.6141340657281553
-8420.092957019806,3576.0,244.0,16028.0,-48.0,27.0,-842.0,0.07933571142479494,0.665094751236762,0.4109859191128795,-0.6184216935562441
-8420.108568906784,3260.0,132.0,16104.0,-151.0,-255.0,-862.0,0.05056064398985056,0.6173438900135649,0.4659132005503494,-0.6318663088780576
-8420.124185562134,3232.0,148.0,16108.0,-183.0,-533.0,-833.0,0.03601290649790326,0.551074109370463,0.5165189654366155,-0.6543917442109219
-8420.139871835709,3376.0,32.0,16312.0,-262.0,-482.0,-905.0,0.018565473885291707,0.47980190179057475,0.5710256913880711,-0.6658641888496015
-8420.15547323227,3684.0,20.0,16228.0,-222.0,-349.0,-1272.0,-0.02849513014964139,0.3930163768044123,0.6322883133135879,-0.6670364637471818
-8420.171114683151,3348.0,84.0,16064.0,-285.0,-375.0,-1104.0,-0.061984741527965084,0.30920444373975675,0.6838830444535461,-0.6579167768785412
-8420.186726093292,3624.0,308.0,15972.0,-298.0,-429.0,-1178.0,-0.09541207292129845,0.21445127518579082,0.730438907134591,-0.6413783515648726
-8420.202337026596,3664.0,324.0,16100.0,-336.0,-462.0,-1252.0,-0.1288694459307082,0.11071673955934774,0.7709214347546525,-0.6138522712531801
-8420.217983484268,3696.0,76.0,16000.0,-265.0,-494.0,-1237.0,-0.15828183516304514,0.00392525193162777,0.7969799800822329,-0.5828845206409372
-8420.233610153198,3640.0,44.0,16016.0,-167.0,-568.0,-1103.0,-0.17384178770623132,-0.09883327857166825,0.8088172420805633,-0.5530150855149144
-8420.249223709106,3496.0,32.0,16212.0,-156.0,-663.0,-919.0,-0.17193306510650364,-0.19240643536297175,0.8143650322639322,-0.5198349535956214
-8420.264873743057,3728.0,-104.0,16344.0,-189.0,-698.0,-668.0,-0.15527475753582742,-0.2677431771452874,0.8191208965945935,-0.48295372193037994
-8420.280502796173,4080.0,-304.0,16444.0,-83.0,-663.0,-355.0,-0.12454721098604882,-0.31925274758356165,0.821469768929697,-0.45579940119589174
-8420.29609966278,3824.0,-508.0,16484.0,-18.0,-529.0,-185.0,-0.09440011637998756,-0.35294112902781827,0.8217547116769255,-0.43731038325746063
-8420.311741113663,3856.0,-636.0,16436.0,131.0,-228.0,-154.0,-0.07989159528810849,-0.37363033686472696,0.81355967307949,-0.43833590169579445
-8420.32737159729,3924.0,-428.0,16276.0,227.0,62.0,-92.0,-0.08042244489880708,-0.3792725279644579,0.8012042306448424,-0.4558029845061944
-8420.34295630455,3872.0,-124.0,16112.0,216.0,291.0,76.0,-0.0905837552233979,-0.363693753790476,0.7926240778362251,-0.4809038448356325
-8420.358629465103,3744.0,16.0,15924.0,221.0,139.0,208.0,-0.08445041989873152,-0.3450562619555147,0.788467124645203,-0.5021194041440156
-8420.374235868454,3336.0,-92.0,15980.0,194.0,99.0,308.0,-0.07191183836374959,-0.3207616160317555,0.7880319059404913,-0.5205251083316145
-8420.389837741852,3472.0,-368.0,16040.0,234.0,-156.0,477.0,-0.0329445184233431,-0.29614876568557524,0.7907561119405101,-0.5347105186149714
-8420.40543437004,3528.0,-552.0,16160.0,273.0,-280.0,547.0,0.01891745855823649,-0.271767574899096,0.7915394021923097,-0.547037375114537
-8420.421038627625,3680.0,-392.0,16220.0,328.0,-241.0,637.0,0.07359275551114448,-0.238194932748539,0.78881433516992,-0.561799986631927
-8420.436712741852,3904.0,-128.0,16376.0,291.0,-37.0,550.0,0.1089924490088604,-0.1999685191912382,0.7845165625161926,-0.5767729193792746
-8420.452312707901,3852.0,-236.0,16304.0,273.0,119.0,473.0,0.12926425074009482,-0.15879727623541856,0.7791638806725898,-0.5924338153718476
-8420.46793293953,3644.0,44.0,16180.0,224.0,154.0,397.0,0.142298887060499,-0.12119824362109688,0.7740650222021102,-0.60488457897995
-8420.4835293293,3524.0,104.0,16196.0,168.0,91.0,348.0,0.15620971543123116,-0.090742108228004,0.7694683677305076,-0.6126033183564871
-8420.49913072586,3444.0,20.0,16076.0,132.0,-87.0,296.0,0.17885446794801604,-0.07368839091456227,0.763161812669719,-0.6165753384803218
-8420.5147190094,3508.0,196.0,16340.0,71.0,-144.0,150.0,0.19694820988086797,-0.07033377301539938,0.7578371797453529,-0.6180189090907732
-8420.530326604843,3484.0,124.0,15912.0,40.0,-509.0,2.0,0.23075381314372004,-0.09688732650817754,0.746117020202159,-0.6169885864798328
-8420.54599237442,3520.0,216.0,16156.0,36.0,-332.0,-43.0,0.25027179233865743,-0.11680018897381042,0.7367226974984077,-0.6172207164426254
-8420.561594963074,3520.0,8.0,16232.0,94.0,-491.0,-242.0,0.2694679465452893,-0.15658465755519407,0.7175307551811301,-0.6229108171898965
-8420.57720375061,3772.0,36.0,16344.0,75.0,-471.0,-400.0,0.27785183300934624,-0.20518297857885806,0.6957845726804182,-0.6297476737668685
-8420.592786550522,3972.0,132.0,16452.0,-9.0,-146.0,-542.0,0.2564733875795057,-0.24604585522251896,0.6821140214531198,-0.6390643945083818
-8420.608386278152,4156.0,192.0,16580.0,-49.0,193.0,-672.0,0.20606959791216983,-0.2758634187561451,0.673377838903463,-0.6542147820725167
-8420.624068975449,3992.0,236.0,16420.0,-52.0,484.0,-680.0,0.13717560959820368,-0.2883470183970001,0.6668063635833666,-0.6733558662383868
-8420.639696359634,4068.0,208.0,16208.0,-37.0,674.0,-706.0,0.05530955694811739,-0.2892006062403731,0.6567976595665348,-0.6942050825572553
-8420.655297756195,3632.0,92.0,15956.0,-58.0,694.0,-598.0,-0.022125238773946853,-0.28078855340940967,0.6463902665938362,-0.7091176808796947
-8420.670927762985,3488.0,-48.0,15824.0,-95.0,762.0,-437.0,-0.09424400115245203,-0.25730602796195495,0.6380827290478039,-0.7195568824715145
-8420.68661737442,3304.0,-324.0,15676.0,-44.0,138.0,-307.0,-0.12218127175355785,-0.26523456504011483,0.6324226811340601,-0.7174704974616526
-8420.702221870422,3392.0,-476.0,15788.0,40.0,-140.0,-124.0,-0.12131229998570885,-0.2812082741660725,0.6283366575690927,-0.7151211625784942
-8420.717806816101,3496.0,-388.0,15976.0,61.0,-211.0,-52.0,-0.11150333674130404,-0.29779080440787353,0.6252516805464229,-0.7127046924775653
-8420.73343205452,3636.0,-60.0,16180.0,85.0,-216.0,22.0,-0.09615302880203729,-0.31076126578146085,0.6223973898050473,-0.7119013414132346
-8420.749029874802,3748.0,-148.0,15988.0,74.0,-216.0,87.0,-0.07702171313049153,-0.3199747519006495,0.6217202240135459,-0.7107374880397884
-8420.76469039917,4080.0,-340.0,15736.0,210.0,-82.0,206.0,-0.05394047855619571,-0.3151509676091071,0.6146670233848833,-0.7210788741540965
-8420.780289888382,3704.0,-356.0,15544.0,373.0,-332.0,226.0,-0.011656345413788561,-0.3252732614970092,0.5981716216998793,-0.7322923910294505
-8420.795921564102,3712.0,-308.0,15652.0,384.0,-495.0,313.0,0.04499347233812955,-0.3402911336802789,0.5818143399711079,-0.7373395456569061
-8420.811509847641,4148.0,-536.0,15940.0,322.0,-529.0,305.0,0.10085500128128498,-0.35689907363001383,0.5669250710494741,-0.7355591640202295
-8420.827119350433,4468.0,-1016.0,16120.0,328.0,-523.0,183.0,0.14846066508741002,-0.377897569718385,0.5459798352197294,-0.7328430099661042
-8420.842690944672,4916.0,-1260.0,16224.0,496.0,-553.0,57.0,0.19440686537082782,-0.40323039242243125,0.5077678328976717,-0.7360591343077967
-8420.85828590393,4788.0,-1120.0,16396.0,546.0,-352.0,-71.0,0.22430062003385004,-0.4189884817459613,0.4633346645444566,-0.747969834049556
-8420.873870372772,4772.0,-640.0,16172.0,611.0,54.0,-109.0,0.23699766421961438,-0.40723650511074716,0.4197601840669783,-0.7757524888337053
-8420.889491319656,4580.0,-500.0,15984.0,597.0,230.0,-171.0,0.23781718238175137,-0.38485233322787427,0.37723975839038476,-0.8080976636908626
-8420.90511894226,4508.0,-212.0,16128.0,485.0,76.0,-272.0,0.23214179290393544,-0.37783436342759913,0.33490963208605823,-0.8313765212805739
-8420.920777320862,4392.0,-512.0,16104.0,319.0,-174.0,-467.0,0.21357446091826207,-0.39701184197095013,0.2922802059167533,-0.8434096443648055
-8420.93645310402,4572.0,-360.0,16192.0,176.0,-139.0,-611.0,0.17794920828973904,-0.4187514035224289,0.2549911703745508,-0.8532062144335728
-8420.952096223831,4560.0,-640.0,16224.0,115.0,42.0,-874.0,0.11578239539722587,-0.43186467308433385,0.21435841144785622,-0.8684110849703575
-8420.967744350433,4448.0,-988.0,15688.0,177.0,172.0,-1108.0,0.03507481437718434,-0.43546778829190325,0.16001142209069397,-0.8851745068386673
-8420.983349323273,4544.0,-1036.0,15708.0,13.0,305.0,-1193.0,-0.06052153973605629,-0.4258779054843694,0.11385070721969735,-0.8955462965775685
-8420.998955726624,4412.0,-1280.0,16140.0,336.0,444.0,-1203.0,-0.14551112015856246,-0.4020020954502634,0.04020489675053463,-0.9031081859008236
-8421.01463007927,4572.0,-824.0,15884.0,306.0,584.0,-1077.0,-0.22038749727727008,-0.3612091546455132,-0.028942652876391466,-0.9056045607706554
-8421.030243873596,4264.0,-1044.0,16172.0,309.0,643.0,-852.0,-0.2750706813763636,-0.312473561833959,-0.09207776304807908,-0.9045540774072073
-8421.045822143555,4036.0,-988.0,16008.0,293.0,625.0,-844.0,-0.3272056325953104,-0.26198943750211584,-0.1523828736297434,-0.895029311508606
-8421.061425924301,3864.0,-964.0,15740.0,312.0,263.0,-741.0,-0.37343899585899076,-0.23969345278902346,-0.20044348875521714,-0.8734487809125056
-8421.077003479004,3784.0,-972.0,15724.0,326.0,607.0,-733.0,-0.4103047880005301,-0.19037087631708066,-0.25918111570352304,-0.8533663103596157
-8421.09260559082,3644.0,-1056.0,15560.0,384.0,687.0,-704.0,-0.43897239506333585,-0.1363820341296291,-0.3224679250405057,-0.8274766549329922
-8421.108164548874,3528.0,-780.0,15596.0,342.0,695.0,-670.0,-0.46191288847711803,-0.08008898909130102,-0.3800155561312877,-0.7973772095961154
-8421.123849630356,3472.0,-936.0,15232.0,162.0,500.0,-632.0,-0.48696303962685417,-0.03078639831068178,-0.41457457399800646,-0.7681452455823718
-8421.139482021332,3184.0,-896.0,15120.0,-143.0,496.0,-590.0,-0.5078098771967345,0.029804732571288114,-0.4264417573368435,-0.7479226123986734
-8421.15511894226,3144.0,-824.0,15060.0,-352.0,-96.0,-476.0,-0.5408428106153425,0.056734083350230266,-0.3972139728366936,-0.7392505378932073
-8421.170718669891,2676.0,-344.0,15012.0,-573.0,-343.0,-443.0,-0.5771121247683982,0.07676137347117352,-0.3408010185009239,-0.7381760987575097
-8421.18631696701,2924.0,-124.0,15536.0,-631.0,-279.0,-154.0,-0.5900217725103993,0.09488112766171235,-0.28428538972304557,-0.7497024054698935
-8421.201973199844,2816.0,216.0,16460.0,-409.0,-70.0,-48.0,-0.5911573397696334,0.11235770797781186,-0.2531139107600871,-0.7575236585574062
-8421.21757364273,3060.0,4.0,18324.0,106.0,306.0,462.0,-0.5542636041093396,0.11663330600800163,-0.2798694297219576,-0.7751526503834425
-8421.23322224617,3272.0,-552.0,19404.0,1023.0,333.0,931.0,-0.48984309173139495,0.0662997036581545,-0.37158896625469034,-0.7858624147620497
-8421.248862028122,3572.0,-1512.0,19384.0,1907.0,-91.0,1142.0,-0.4177456552828471,-0.05750925589905327,-0.49564568238653456,-0.7592869092180033
-8421.26448559761,3368.0,-1248.0,17196.0,2579.0,-412.0,1532.0,-0.31047273483234844,-0.23701600938074707,-0.6223283590192148,-0.678334361346526
-8421.28009724617,3100.0,232.0,14752.0,2516.0,-791.0,2067.0,-0.17182392364188062,-0.4456486399804924,-0.6785703812874474,-0.5580466526978323
-8421.295724868774,3532.0,1808.0,13000.0,1887.0,-764.0,2446.0,-0.02363149114848468,-0.6321032614508064,-0.639599584104422,-0.4368058968269582
-8421.311311483383,3868.0,3540.0,12212.0,978.0,-384.0,2748.0,0.11010243990138455,-0.7769531883956631,-0.5079534122434884,-0.35525276460538907
-8421.326926469803,5368.0,4444.0,13296.0,-420.0,-384.0,2493.0,0.13850226877748462,-0.8817105269327495,-0.3216084210881923,-0.3161830035353299
-8421.342561006546,5872.0,4352.0,15608.0,-1106.0,-1433.0,1870.0,0.06315756170049308,-0.9625846286710578,-0.1603903445918075,-0.20908584937286298
-8421.358163833618,5840.0,2780.0,18324.0,-948.0,-2805.0,961.0,-0.03689580373634684,-0.9963333541095709,-0.0750804826749452,0.01792953643345112
-8421.373801231384,5928.0,456.0,19532.0,-257.0,-3316.0,206.0,-0.0780746169970949,-0.9522016175643887,-0.04501888196778955,0.2918728044112519
-8421.38940000534,5904.0,-492.0,18348.0,1012.0,-2232.0,-591.0,0.012034206148319125,-0.878865561746381,-0.05190359095372308,0.4740849285778936
-8421.404998540878,5236.0,-140.0,16352.0,1728.0,-1221.0,-610.0,0.16136846574859384,-0.8089101613740247,-0.02795994408345508,0.5646616780113949
-8421.420603275299,4924.0,-92.0,14984.0,1780.0,-412.0,-165.0,0.2905125529138842,-0.7534655851934157,0.04178680759372577,0.5883416789925103
-8421.43624663353,4244.0,-400.0,14484.0,1655.0,144.0,267.0,0.3810872338953341,-0.7102189603409256,0.1464112756588217,0.5735200841245356
-8421.451913118362,3936.0,-360.0,14180.0,1573.0,240.0,179.0,0.46214561287457523,-0.6611067755526607,0.24186322195010942,0.5393157198590258
-8421.467488765717,3812.0,488.0,13972.0,1344.0,-324.0,-37.0,0.5443975891908804,-0.588053473259874,0.2878003699109186,0.524399966198792
-8421.48310494423,3856.0,1344.0,13904.0,1197.0,-1064.0,-184.0,0.6348003927976678,-0.4822261148976178,0.2797745886167927,0.5349884250887871
-8421.498673915863,4272.0,1928.0,13996.0,833.0,-2423.0,-471.0,0.7323829195420531,-0.325950539931776,0.16041133671671523,0.5758816785885783
-8421.5142557621,4656.0,2392.0,13864.0,-56.0,-3226.0,-723.0,0.7804704476609401,-0.17032158454030014,-0.06657897080892765,0.5978492107660903
-8421.529878616333,5348.0,2432.0,14056.0,-1084.0,-3617.0,-854.0,0.7464659575644637,-0.04752354954137634,-0.3621160213822285,0.5562392232615946
-8421.545508384705,5992.0,2284.0,13984.0,-1639.0,-3978.0,-986.0,0.6176844252296353,0.06548066414535304,-0.6576840796472837,0.42618057772536255
-8421.561118841171,6392.0,1440.0,14096.0,-1916.0,-4582.0,-1122.0,0.37234575432910055,0.18009852821052857,-0.8859590130753755,0.2097612607704322
-8421.576736450195,6788.0,716.0,14776.0,-1963.0,-4937.0,-1483.0,0.043818330568546296,0.2895773677030352,-0.9541951100071184,-0.061127686516587204
-8421.592343330383,7028.0,600.0,15336.0,-1709.0,-4876.0,-1976.0,-0.2968420345949853,0.3796676525247049,-0.822867412626501,-0.30104235808480034
-8421.607991456985,7672.0,1188.0,16212.0,-1216.0,-4289.0,-2587.0,-0.5769126895334145,0.4416293616829762,-0.5417028992060937,-0.42272121374083177
-8421.623564243317,8132.0,1844.0,16848.0,-744.0,-3127.0,-3098.0,-0.7551450306638081,0.47531426028192003,-0.221076934665275,-0.3936461934217239
-8421.639148950577,8032.0,2180.0,16116.0,-483.0,-2098.0,-3828.0,-0.8470808604437783,0.4750715407935845,0.08658273428188884,-0.2219560251989332
-8421.654766082764,7588.0,1876.0,15524.0,-521.0,-1627.0,-3928.0,-0.8330401077386901,0.42354887769170546,0.35584946590848365,0.004656685243295383
-8421.670402765274,6748.0,1308.0,14520.0,-1340.0,-1863.0,-3980.0,-0.6720951061059617,0.36935358763666254,0.5920448414015853,0.24768730572662423
-8421.686002016068,6196.0,1276.0,14236.0,-2015.0,-2157.0,-4188.0,-0.3699080765150066,0.2900084404584768,0.7393943027591268,0.4820364969990912
-8421.701607465744,6036.0,1648.0,13992.0,-2586.0,-2381.0,-4446.0,0.03247833311973149,0.16735567229042964,0.7349145311112214,0.6563824104830626
-8421.717205524445,6364.0,1968.0,14136.0,-2784.0,-2470.0,-4844.0,0.4492357436252675,-0.008604163795884018,0.5639023574833415,0.6929122211648141
-8421.73285984993,7236.0,2184.0,14348.0,-2803.0,-2413.0,-5113.0,0.7665555079516022,-0.1963507318647921,0.2590534752628825,0.55383241172709
-8421.748505830765,7864.0,1492.0,14860.0,-2842.0,-1976.0,-4879.0,0.8850373000278879,-0.35557114717377125,-0.08362709991805027,0.28859079163440243
-8421.764100074768,8192.0,268.0,15348.0,-2901.0,-1528.0,-4612.0,0.8070403276618591,-0.4548264954482775,-0.3747489115966441,-0.037175554102232895
-8421.779722929,7972.0,-748.0,15728.0,-2709.0,-850.0,-4112.0,0.6035477966568572,-0.47091324287637054,-0.5399223694687973,-0.349935150822996
-8421.795317649841,7188.0,-836.0,16152.0,-2327.0,-852.0,-4250.0,0.3105937798727299,-0.38514355503745085,-0.6324978057389895,-0.5959383119525441
-8421.810909032822,7864.0,-588.0,16732.0,-1869.0,-537.0,-4148.0,0.002236448565131251,-0.21792463146729535,-0.6399167258844695,-0.7368924190348003
-8421.826480865479,8068.0,-508.0,16468.0,-1406.0,493.0,-3372.0,-0.20354283602231416,0.0017651459301715265,-0.5839128792770011,-0.7858835458121519
-8421.842079162598,8232.0,-644.0,16532.0,-1047.0,1600.0,-2107.0,-0.25849810221158154,0.230455853952994,-0.5241348828848003,-0.7780433503829615
-8421.857687711716,7416.0,-416.0,16812.0,-781.0,1917.0,-1502.0,-0.25092142122469424,0.43616864192297444,-0.4724007053352068,-0.7236248543081193
-8421.873341321945,6416.0,716.0,16320.0,-988.0,1496.0,-1635.0,-0.24937518114213167,0.6061944812724983,-0.3721902332798274,-0.6571260915198872
-8421.888943433762,6672.0,1244.0,15764.0,-1652.0,628.0,-1667.0,-0.2320354347889023,0.7163330747274628,-0.19844034376122494,-0.627413669775971
-8421.904552936554,7500.0,856.0,14372.0,-2091.0,1086.0,-2400.0,-0.20527931678912995,0.8248674450195532,0.04238919700720421,-0.5250307193132481
-8421.920261383057,8280.0,844.0,15956.0,-2170.0,1073.0,-2734.0,-0.16991244969972627,0.8601360313307445,0.3044004121868525,-0.3723387652449165
-8421.935964345932,9680.0,1724.0,16636.0,-1941.0,1727.0,-1893.0,-0.12673213665493424,0.8614684049815348,0.4660178305887455,-0.15696666630467984
-8421.951578855515,9932.0,1604.0,17252.0,-1474.0,3975.0,-1119.0,-0.18020781191893023,0.8281187581856375,0.4916106740680179,0.2001584672374823
-8421.967221021652,7616.0,-200.0,17612.0,-1193.0,6943.0,-410.0,-0.32762043798984153,0.6027512457796824,0.33304295205577067,0.6468679744803902
-8421.983145952225,5004.0,-1992.0,18152.0,-305.0,8822.0,524.0,-0.4730990560394502,0.10168564640049108,0.028403526194478994,0.8746602495771802
-8421.998937368393,2392.0,-2384.0,18768.0,102.0,7455.0,2009.0,-0.5355499306624879,-0.3869775499850885,-0.24025656961820008,0.711133903234994
-8422.014647483826,1052.0,-2548.0,19108.0,4.0,4588.0,2513.0,-0.5415046817945585,-0.6590696350211968,-0.3361599304437476,0.399244783249143
-8422.03026342392,1320.0,-1948.0,17660.0,-16.0,1559.0,2247.0,-0.5593511155646513,-0.7572353468784588,-0.2734222858528492,0.19738594821679456
-8422.045883893967,3472.0,-716.0,16908.0,110.0,883.0,1255.0,-0.5477948008028521,-0.800537629626806,-0.2295947509822731,0.07966561420240623
-8422.061532020569,4660.0,464.0,16732.0,478.0,1300.0,8.0,-0.4849458218888837,-0.8265353765227808,-0.2857672063238211,-0.001981155909752853
-8422.077146053314,5596.0,980.0,17264.0,1100.0,1928.0,-896.0,-0.35015114455854296,-0.8324147461056175,-0.42306273425410634,-0.07414707894247687
-8422.092751979828,5132.0,936.0,17456.0,1465.0,2108.0,-1454.0,-0.16976703602098184,-0.784253665518766,-0.5835787037724502,-0.12474469168785118
-8422.108351707458,4544.0,1568.0,17380.0,1482.0,2955.0,-2206.0,0.054973991100005726,-0.6251025617254385,-0.7506367339547224,-0.20680701454403858
-8422.123992443085,3920.0,1628.0,17344.0,1056.0,4689.0,-2921.0,0.3295536835129088,-0.3087604894499787,-0.8137756435659499,-0.3658285551682746
-8422.13958644867,3100.0,196.0,17160.0,733.0,6220.0,-2992.0,0.59496441516067,0.10563619397509343,-0.6318772722407845,-0.4853755783313821
-8422.155227899551,1688.0,-1728.0,17348.0,818.0,6143.0,-2385.0,0.7139945104792561,0.4670903022845846,-0.2814992805360978,-0.43908614596095136
-8422.170818090439,1248.0,-2600.0,17136.0,995.0,4858.0,-1602.0,0.665851381256249,0.6868123784568749,0.04417286467533613,-0.2880615436047133
-8422.186434745789,1388.0,-2152.0,15920.0,846.0,4115.0,-807.0,0.5424897226483986,0.7834261753330862,0.29084491674570523,-0.08577623812583363
-8422.202028751373,1720.0,-1188.0,14780.0,741.0,4329.0,-165.0,0.35548927277091413,0.7905265827319502,0.46829076023054783,0.17146096588333765
-8422.217643260956,1520.0,-216.0,14536.0,188.0,4488.0,-96.0,0.14945399668309067,0.6751675358535031,0.5743868532295896,0.4380548415917454
-8422.233293533325,1020.0,224.0,14096.0,24.0,4282.0,-306.0,-0.05144647680518523,0.46479289981097144,0.607883093541875,0.6417156417725859
-8422.248900175095,920.0,656.0,14804.0,91.0,3495.0,-439.0,-0.2064636709397025,0.23441402227367547,0.5878336663564366,0.7462401754405406
-8422.264535427094,1316.0,696.0,15484.0,219.0,2556.0,-451.0,-0.304966266088898,0.03976660325067096,0.5510581879433067,0.7757248657316189
-8422.280132293701,2556.0,464.0,16164.0,102.0,1806.0,-333.0,-0.36502125281344666,-0.09996133799630236,0.5044112279060357,0.7761034267820341
-8422.29573917389,3004.0,-368.0,16200.0,179.0,2030.0,-281.0,-0.4270384121325036,-0.2514642969364751,0.4421644592463158,0.7475924644544029
-8422.311346530914,3176.0,-660.0,16328.0,507.0,2723.0,61.0,-0.5103553738254362,-0.43310011244793184,0.3644498112855136,0.6474086963109482
-8422.326917409897,2836.0,-540.0,16656.0,824.0,3189.0,551.0,-0.5874380385131233,-0.6071067119807642,0.2781302474310063,0.4571450061410789
-8422.34253025055,2744.0,-180.0,16820.0,697.0,3452.0,1222.0,-0.6496498832487105,-0.7139824397605153,0.18415809825944318,0.18512131091266645
-8422.3581533432,2300.0,420.0,17260.0,321.0,3513.0,1582.0,-0.6744136953266066,-0.7233489541832858,0.08405452327123702,-0.12193151830229418
-8422.373767614365,1640.0,-64.0,17548.0,199.0,3090.0,1029.0,-0.6478935751511744,-0.6679551609790599,-0.03366484091186544,-0.36460457578813615
-8422.38935470581,1488.0,-1032.0,17596.0,432.0,2133.0,398.0,-0.5928969464149464,-0.6141985791578848,-0.14219465820846766,-0.5010129693623157
-8422.40493798256,1568.0,-1740.0,17496.0,748.0,1615.0,0.0,-0.5265042219378604,-0.5752546842396451,-0.2553815809411613,-0.5715379258264035
-8422.42054104805,2224.0,-1200.0,17120.0,833.0,1598.0,-22.0,-0.4447424027232733,-0.5267333611067726,-0.36690355830318266,-0.6246102308012215
-8422.436142206192,1816.0,-616.0,16752.0,885.0,2034.0,290.0,-0.3171581323298223,-0.4508666952640199,-0.47179015977821026,-0.6881453242849297
-8422.451773881912,1436.0,-60.0,16928.0,834.0,2470.0,839.0,-0.12862694598458155,-0.3501902953179485,-0.54188145612156,-0.7531177552968629
-8422.467370271683,668.0,-64.0,16672.0,347.0,2607.0,1268.0,0.08589353757956597,-0.2350955042400225,-0.5378924054203443,-0.8049994809186606
-8422.482966184616,-384.0,-192.0,16212.0,-198.0,2123.0,1555.0,0.2833619426562152,-0.1562535565152395,-0.4638561629340159,-0.8246989121119092
-8422.498635053635,-1036.0,-376.0,15556.0,-588.0,1546.0,1742.0,0.4534954760301322,-0.12720065586689044,-0.3516957777447391,-0.8089943919977196
-8422.514234542847,-1944.0,-608.0,15152.0,-516.0,1443.0,1629.0,0.595866640674348,-0.0938677493959415,-0.23538820465850735,-0.7620526131852401
-8422.529833316803,-2680.0,-940.0,15332.0,-867.0,1028.0,990.0,0.6686858494707005,-0.08985253426758998,-0.11467722594581779,-0.7291329718595306
-8422.545446395874,-2620.0,-620.0,16012.0,-524.0,744.0,-120.0,0.6622820446223007,-0.07147028132117805,-0.038478921170520625,-0.7448448596079116
-8422.561028242111,-2232.0,256.0,16860.0,-556.0,-800.0,-1066.0,0.5822612602367739,-0.15056467178148453,-0.05462463434728925,-0.7970685376811975
-8422.576625347137,-1452.0,1228.0,17700.0,-216.0,-2790.0,-2369.0,0.38227984493820244,-0.3276855361858631,-0.202341020319345,-0.8399657261012106
