programtime,ax,ay,az,gx,gy,gz,q0,q1,q2,q3
-368.36995220184326,6936.0,7716.0,13040.0,351.0,216.0,202.0,0.9991954210587962,0.030851106108344732,0.01861395675389286,0.017613642468010348
-368.3777244091034,6888.0,7792.0,13104.0,345.0,233.0,295.0,0.9964418739633478,0.06122468541244442,0.038393009223475924,0.04337172525188216
-368.3855354785919,6820.0,7868.0,13032.0,360.0,503.0,217.0,0.990391807889268,0.09141913700337938,0.08195312896191602,0.0636419115735579
-368.39330410957336,6776.0,8176.0,12816.0,340.0,197.0,510.0,0.9818864458493127,0.12335847621479071,0.0963840709073855,0.1067323975121414
-368.401091337204,6700.0,7992.0,13028.0,331.0,204.0,241.0,0.9735851433756111,0.15190240696944815,0.11398778438139302,0.12674546290498973
-368.4088943004608,6756.0,8072.0,12956.0,272.0,164.0,223.0,0.9653278047229992,0.17547180633232798,0.1276178885909758,0.14513975720913433
-368.41666984558105,6800.0,8000.0,12864.0,307.0,180.0,211.0,0.9553294889848121,0.2014096529454011,0.1430562161153857,0.1622178726502687
-368.42442297935486,6744.0,7900.0,12856.0,232.0,190.0,153.0,0.946313773383047,0.21998981305388346,0.1591284974516526,0.17542190785884196
-368.43220615386963,6740.0,7892.0,12836.0,177.0,148.0,114.0,0.9388912168901528,0.23396148038381254,0.17153363738111008,0.18526068063663417
-368.439977645874,6788.0,7840.0,12888.0,178.0,170.0,41.0,0.9318469655135081,0.2464346622955623,0.18716539496243756,0.18947375810674685
-368.4477574825287,6776.0,7764.0,13048.0,209.0,137.0,13.0,0.9247041740533201,0.2613811623336006,0.2011439867514048,0.1901135846257545
-368.45550322532654,6900.0,7800.0,13004.0,249.0,119.0,-27.0,0.9171454217125272,0.2789995052507524,0.2151452232246672,0.18632252795943383
-368.46328473091125,6952.0,7808.0,12816.0,227.0,112.0,-69.0,0.9104353716862288,0.29401735247231614,0.22914111037471555,0.17931977571916244
-368.4710638523102,6968.0,7852.0,12764.0,500.0,178.0,-51.0,0.8939207823633052,0.3296178019417309,0.25187369889660466,0.1697568240343246
-368.4788398742676,7032.0,7848.0,12740.0,247.0,160.0,-62.0,0.8839663517685016,0.34504567166627564,0.26945101356376205,0.16414360997284047
-368.4866030216217,7040.0,7960.0,12800.0,273.0,168.0,-19.0,0.871783451747906,0.36311477399793946,0.28653758652116595,0.16136135123863207
-368.4943733215332,7068.0,8052.0,12904.0,256.0,505.0,17.0,0.8498314373043566,0.37544515064872835,0.3273982654781224,0.17215644857362103
-368.50216364860535,6948.0,8068.0,12804.0,229.0,312.0,88.0,0.8316592542667545,0.3900201489179701,0.35067188967358137,0.18236335712864532
-368.50992941856384,7004.0,8092.0,12816.0,230.0,348.0,109.0,0.8109398077947875,0.40422096934194257,0.37541452397482045,0.19505376506689745
-368.51768350601196,6988.0,8040.0,12564.0,220.0,389.0,169.0,0.7869403459544035,0.41833836221475273,0.4001925815659062,0.21345679719385327
-368.52544474601746,6924.0,8104.0,12720.0,224.0,383.0,191.0,0.7612181302749442,0.43286695862839153,0.42314463060840224,0.2326408731409917
-368.5332136154175,6828.0,8048.0,12676.0,276.0,369.0,273.0,0.7308886453109186,0.45328936563857536,0.442301751486482,0.2543613567084013
-368.54099106788635,6740.0,8100.0,12792.0,278.0,294.0,317.0,0.7008636075672535,0.47624072146138074,0.4540754165527719,0.27531889672193743
-368.5487554073334,6708.0,8100.0,12696.0,11.0,164.0,270.0,0.6872205811644381,0.483467445309116,0.45282928400530253,0.29821593132750945
-368.5565185546875,6724.0,7976.0,12776.0,499.0,54.0,279.0,0.6560076738166013,0.5223441165282919,0.45656819084074246,0.29724744394934866
-368.56428503990173,6660.0,8224.0,12676.0,153.0,-87.0,221.0,0.6466334913687748,0.54197344190778,0.44521321147442455,0.2998584873494365
-368.57205724716187,6636.0,8248.0,12728.0,78.0,-215.0,139.0,0.6475504423164917,0.5572152179978578,0.4282996555334011,0.29453188377030687
-368.5798439979553,6512.0,8324.0,12772.0,250.0,-377.0,40.0,0.6480190274988454,0.5820344648616124,0.4110255180747976,0.26900789059812275
-368.58765387535095,6580.0,8256.0,12532.0,-86.0,-576.0,-166.0,0.676080924281387,0.5838762580142464,0.38420213408465453,0.2332205379354571
-368.5954706668854,6656.0,8368.0,12752.0,-160.0,-719.0,-372.0,0.7141488885282905,0.5750535307223301,0.3564256316678626,0.17962619772114202
-368.60324788093567,6744.0,8284.0,12560.0,-269.0,-739.0,-499.0,0.7560543395558823,0.5524704968863147,0.329966435544782,0.11950036452989683
-368.6110289096832,6888.0,8360.0,12728.0,-273.0,-725.0,-584.0,0.7934388918317056,0.5232687466489044,0.306192687621661,0.05376413076004442
-368.61884331703186,6956.0,8232.0,12788.0,-321.0,-695.0,-632.0,0.826633409444405,0.4855332912737564,0.28419153283420234,-0.013030814269984202
-368.62662053108215,7000.0,8112.0,12856.0,-308.0,-618.0,-688.0,0.8512515537937771,0.4438832781872711,0.26795969162147737,-0.0808457245346007
-368.6343951225281,7080.0,7980.0,13028.0,-331.0,-596.0,-685.0,0.8701855905688946,0.39759866944782224,0.25145943662450404,-0.14649398537848776
-368.6421995162964,7104.0,7856.0,13028.0,-273.0,-600.0,-757.0,0.8798732346642296,0.35118460367683557,0.23453149615415403,-0.2179161361018124
-368.6499707698822,7112.0,7764.0,12996.0,-510.0,-619.0,-717.0,0.8907127128880373,0.2842739801482932,0.21747621774944553,-0.2802200243088931
-368.6577522754669,7104.0,7760.0,12996.0,-199.0,-628.0,-712.0,0.8870670492444556,0.2390472326238611,0.19024223899568107,-0.3460872162064336
-368.66555619239807,7120.0,7648.0,12960.0,-181.0,-648.0,-689.0,0.8777713831794408,0.1933161307999853,0.15907217832429413,-0.4084633576306914
-368.6733388900757,7156.0,7436.0,13032.0,-189.0,-656.0,-750.0,0.8600331709574753,0.14445394081165677,0.12741256430946413,-0.4724849651501081
-368.68110704421997,7024.0,7452.0,12948.0,-162.0,-678.0,-635.0,0.8406379927058881,0.09693952938998969,0.09059040051718009,-0.5250941555523155
-368.6889178752899,6932.0,7544.0,12992.0,-128.0,-635.0,-607.0,0.816511535428698,0.053499053629316465,0.05452009091882421,-0.5722537229750809
-368.6966886520386,7020.0,7560.0,12940.0,-113.0,-625.0,-508.0,0.7926653685505791,0.011811123542905177,0.017628865662542174,-0.6092875626144694
-368.7044756412506,6844.0,7564.0,12868.0,-94.0,-536.0,-433.0,0.7691491726209043,-0.023765549148203998,-0.014303820650688748,-0.6384670309773682
-368.7122814655304,6676.0,7628.0,12936.0,-34.0,-505.0,-414.0,0.7441569188745555,-0.05350597787911724,-0.04740778505950363,-0.6641687227942007
-368.7200515270233,6824.0,7608.0,13028.0,17.0,-412.0,-337.0,0.7221929040917558,-0.07471429862432426,-0.07695335059449313,-0.6833252261499442
-368.7278218269348,6816.0,7644.0,13020.0,34.0,-367.0,-252.0,0.7043510110177947,-0.09258203217614767,-0.103980600441917,-0.6960648355778961
-368.7356309890747,6748.0,7736.0,13000.0,11.0,-326.0,-4.0,0.7009097816563024,-0.1114916405993568,-0.12496348540037558,-0.6933103341012369
-368.74339628219604,6692.0,7820.0,12984.0,34.0,-342.0,-94.0,0.6914380456419992,-0.12885134119278333,-0.14905997270259005,-0.6950481173627452
-368.75115871429443,6732.0,7828.0,13048.0,46.0,-337.0,-127.0,0.6794698763362748,-0.1446005609676831,-0.17378478245178716,-0.6980044514955359
-368.75893330574036,6688.0,7876.0,12920.0,20.0,-324.0,-15.0,0.6735631529580881,-0.16264166246124181,-0.19456351390897253,-0.6942660928378943
-368.76670598983765,6768.0,7856.0,13284.0,53.0,-370.0,-11.0,0.6669507133303096,-0.18141683998119645,-0.21976894299196206,-0.6884520955416025
-368.77446579933167,6664.0,7828.0,13124.0,63.0,-432.0,26.0,0.6606864378688329,-0.2037895567410276,-0.24827441126223299,-0.67847112251877
-368.7822301387787,6400.0,7720.0,13180.0,91.0,-476.0,11.0,0.652013833846824,-0.22648060406369866,-0.28077301432862234,-0.6668965518580282
-368.79003500938416,6608.0,7748.0,13192.0,100.0,-535.0,88.0,0.6452224425631247,-0.2535118026463002,-0.31500160923432236,-0.6482235352960319
-368.797828912735,6460.0,7908.0,13176.0,114.0,-264.0,140.0,0.6481352753839023,-0.26550663244197137,-0.3331148422565425,-0.6312379858664687
-368.8057053089142,6768.0,7728.0,13112.0,95.0,-506.0,162.0,0.6438276974377841,-0.29214008383053913,-0.36282628121890365,-0.6070396668161875
-368.8135015964508,6816.0,7432.0,13232.0,113.0,-753.0,141.0,0.6289095083742742,-0.3291695714569374,-0.4065882139991172,-0.5751575851367112
-368.82129287719727,6876.0,7728.0,13220.0,134.0,-419.0,193.0,0.627048492807282,-0.3491869761010981,-0.43035913848317997,-0.5474209123823295
-368.8290660381317,7108.0,7748.0,13204.0,147.0,-320.0,249.0,0.6309869739673626,-0.3653369065257704,-0.44695347597880514,-0.5182827160191193
-368.836852312088,6948.0,7728.0,13292.0,161.0,-290.0,324.0,0.638977196941128,-0.38173975399723914,-0.4594608639418897,-0.48464277206325773
-368.8446252346039,6700.0,7712.0,13128.0,156.0,-278.0,273.0,0.6441833688633967,-0.39531494015336743,-0.47211397406636635,-0.4537204875940772
-368.85241866111755,6948.0,7760.0,13252.0,195.0,-230.0,273.0,0.6518803778460767,-0.40429457662523555,-0.48300779360985513,-0.4222574328568029
-368.8601887226105,6744.0,7800.0,13116.0,175.0,-2.0,278.0,0.6679915042941371,-0.4058095754019819,-0.47952692882360876,-0.39894844683983477
-368.86797165870667,6668.0,7756.0,13284.0,212.0,-243.0,267.0,0.6742311028585896,-0.4126574362757546,-0.49125821239568485,-0.3657753804976598
-368.87574648857117,6616.0,7748.0,13108.0,201.0,-287.0,229.0,0.6760824839926642,-0.4193841215101375,-0.5059473072173672,-0.33323678635915066
-368.8835287094116,6524.0,7740.0,12960.0,217.0,-277.0,258.0,0.6788674702424594,-0.425581078584333,-0.5187533013900798,-0.29818570672400113
-368.89130306243896,6620.0,7784.0,12944.0,250.0,-350.0,304.0,0.6795676861156854,-0.4330515126219993,-0.5341129634361059,-0.2556902221295775
-368.8990797996521,6392.0,7792.0,13168.0,271.0,-365.0,295.0,0.6786918769557148,-0.43826209881463035,-0.5500161884702343,-0.21162670275180276
-368.9068772792816,6404.0,7800.0,13304.0,297.0,-465.0,306.0,0.6724399385508275,-0.44316089158874195,-0.5704507470479954,-0.1613037457730436
-368.91465878486633,6452.0,7824.0,12900.0,284.0,-452.0,324.0,0.6645748411072219,-0.4482152616188138,-0.5875489438346717,-0.11058751474760024
-368.92242217063904,6484.0,7792.0,13060.0,315.0,-463.0,314.0,0.655240374120063,-0.4497099005645792,-0.6041904206878408,-0.05809469000043228
-368.93023443222046,6620.0,7772.0,13092.0,298.0,-498.0,342.0,0.641388143419796,-0.4523535372415511,-0.619666348413831,-0.0033381834929474105
-368.9380307197571,6596.0,7772.0,13152.0,327.0,-474.0,343.0,0.6277770026395801,-0.45187812558928764,-0.6316536516698779,0.052113903163024985
-368.9458022117615,6644.0,7784.0,13220.0,349.0,-446.0,365.0,0.6143212460771086,-0.4499909035202096,-0.6389840587119041,0.10870586957196038
-368.9535734653473,6696.0,7828.0,13216.0,385.0,-456.0,451.0,0.5985480064659727,-0.449140370113781,-0.6406842690016473,0.17186296675983082
-368.9613745212555,6732.0,7728.0,13268.0,406.0,-387.0,450.0,0.5850132702652957,-0.44633539999925614,-0.6358990753430329,0.23275856654242347
-368.9691276550293,6624.0,7612.0,13168.0,432.0,-388.0,446.0,0.5701757223348269,-0.44017597233098565,-0.6282559577490155,0.2940054601453805
-368.97693395614624,6612.0,7604.0,13096.0,467.0,-422.0,493.0,0.5510770728808464,-0.4320138652420045,-0.6168084489128373,0.35947936983014944
-368.9847342967987,6584.0,7552.0,13564.0,265.0,-447.0,464.0,0.5215725730829153,-0.4293543848274603,-0.6113417608648541,0.4121627283728598
-368.99250531196594,6504.0,7596.0,13128.0,546.0,-448.0,521.0,0.4980133540462557,-0.4148899219016553,-0.5908079494792228,0.4804113016241326
-369.00028443336487,6504.0,7688.0,13324.0,536.0,-445.0,764.0,0.4606507599673104,-0.4105815039850846,-0.5577041603336824,0.555148426525184
-369.00812435150146,6548.0,7728.0,13144.0,527.0,-475.0,538.0,0.42912908439829595,-0.3912988326486812,-0.5303419541271563,0.6176332764544415
-369.0159091949463,6556.0,7896.0,13256.0,530.0,-455.0,565.0,0.39457078133759704,-0.37183787503821797,-0.4979308313500228,0.6768422123307439
-369.02368450164795,6500.0,7920.0,13164.0,494.0,-435.0,276.0,0.3747335474803035,-0.3403587247819143,-0.47378394182042294,0.7205966162359896
-369.03148460388184,6640.0,7996.0,13144.0,434.0,-320.0,453.0,0.3453146595897132,-0.3240468506540758,-0.4425805029554616,0.76149453238832
-369.0392701625824,6756.0,7988.0,13072.0,428.0,-484.0,378.0,0.3129910242725517,-0.29283266357196813,-0.4170493904132757,0.8014708078439791
-369.04705357551575,6792.0,7924.0,13060.0,349.0,-202.0,362.0,0.2889674133528537,-0.28189944986570187,-0.3883611575067266,0.828375606549113
-369.05485677719116,6656.0,7976.0,13096.0,319.0,-101.0,497.0,0.2571564028946127,-0.282875263130576,-0.35501328412493616,0.8531223464743719
-369.06263613700867,6760.0,7972.0,13128.0,302.0,-46.0,211.0,0.2473891404891155,-0.27891840383373506,-0.3280524360775307,0.8679773823980069
-369.07040214538574,6724.0,7936.0,13228.0,315.0,15.0,160.0,0.24328930037410246,-0.2775490910304481,-0.2996963250722923,0.8797493569931237
-369.0782060623169,6652.0,7952.0,13092.0,277.0,32.0,137.0,0.24026419433521284,-0.27744422294605414,-0.2741927941460228,0.888884768523293
-369.08597683906555,6608.0,8028.0,13116.0,324.0,-29.0,24.0,0.245486131888507,-0.2686950543469529,-0.2488433020685619,0.8975614395881325
-369.09375834465027,6552.0,7992.0,13184.0,266.0,-57.0,49.0,0.24660520979398917,-0.2593383657144954,-0.22786782462050345,0.9055416815772296
-369.10155868530273,6584.0,8068.0,13136.0,274.0,-110.0,39.0,0.24748020098190238,-0.24524982040828075,-0.20747955221133962,0.914088787331868
-369.1094033718109,6596.0,8032.0,12800.0,511.0,-144.0,119.0,0.24606285118634802,-0.22442477904703767,-0.16693291530166515,0.928019392903306
-369.1171736717224,6684.0,8036.0,12988.0,224.0,-137.0,151.0,0.23616048721409927,-0.2104267659882848,-0.14856514076525773,0.9369510122647342
-369.1249418258667,6740.0,7936.0,13000.0,159.0,-45.0,138.0,0.22718854334350602,-0.20499784214454309,-0.13377201096299654,0.94258490311083
-369.1327431201935,6832.0,7860.0,12912.0,152.0,-255.0,145.0,0.21492560170021976,-0.18239090782281658,-0.12351751143673488,0.9514641174767672
-369.1405074596405,6848.0,7848.0,12980.0,150.0,81.0,153.0,0.20545249506644536,-0.18768001731951714,-0.10691649511668812,0.9545335753350329
-369.1482820510864,6880.0,7812.0,13008.0,133.0,170.0,113.0,0.19976656953684635,-0.20022736701437438,-0.09075198196348852,0.9548645961410812
-369.15604734420776,6804.0,7820.0,13264.0,116.0,207.0,105.0,0.1946365150902618,-0.21599011964611708,-0.07546263982985509,0.953818790546026
-369.1637990474701,6808.0,7896.0,13304.0,150.0,200.0,129.0,0.1879846984416696,-0.2306278474485113,-0.056977224878644414,0.9530089952241738
-369.17156863212585,6684.0,7948.0,13044.0,106.0,166.0,113.0,0.18150230025616396,-0.24296567407313147,-0.04300767317234914,0.9519322120152309
-369.1793336868286,6728.0,7896.0,12992.0,144.0,157.0,86.0,0.1779536340472466,-0.2537543238336577,-0.026588571772711306,0.950386392535262
-369.18709802627563,6784.0,7980.0,13272.0,100.0,80.0,135.0,0.16911888540068248,-0.2588680375000372,-0.013927815828267185,0.9508901922451214
-369.1948571205139,6808.0,8008.0,13180.0,114.0,101.0,106.0,0.16298032835679538,-0.26541259038566334,-0.000452320862893285,0.950259630227087
-369.20262145996094,6836.0,8032.0,12940.0,63.0,32.0,17.0,0.16300567379153846,-0.2669160247261959,0.00574622730197664,0.9498168070359281
-369.2104113101959,6684.0,7972.0,13016.0,38.0,81.0,49.0,0.1597587211768744,-0.27280447811196684,0.011312401962989726,0.948644768757945
-369.21820282936096,7016.0,7924.0,12860.0,15.0,116.0,1.0,0.15988662232499012,-0.2819340556225918,0.014311602119662124,0.945909421840417
-369.2259874343872,7084.0,7876.0,12924.0,-35.0,7.0,19.0,0.1574229215836709,-0.2827259682897508,0.012098958574787915,0.9461171522682008
-369.2337634563446,7032.0,7956.0,12976.0,-17.0,294.0,-254.0,0.17754244140957115,-0.3070834842371979,0.008576023489591156,0.9349357555619411
-369.241583108902,7064.0,7980.0,12872.0,-32.0,386.0,-27.0,0.17847670566019758,-0.33866716406356673,0.011322023784474555,0.9237545287029711
-369.2493884563446,7044.0,8060.0,13056.0,-40.0,468.0,-80.0,0.18310380115989267,-0.376553307440619,0.0131091532850775,0.9080246443552497
-369.2571711540222,7180.0,8236.0,13060.0,-88.0,488.0,-175.0,0.19330014464525036,-0.41619053736362843,0.008262471232575081,0.8884549635508997
-369.264924287796,7212.0,8352.0,13032.0,-129.0,469.0,-200.0,0.20355431709458136,-0.4542130750163703,-0.0010117511612505704,0.8673264084737186
-369.27273440361023,7188.0,8392.0,12952.0,-175.0,430.0,-210.0,0.21232881071425272,-0.48920109460576033,-0.014857637356169118,0.8458002221502366
-369.2805082798004,7232.0,8388.0,12912.0,-214.0,407.0,-220.0,0.21973351203940647,-0.5222574203316611,-0.03240875954598686,0.8233553563923884
-369.2882878780365,7236.0,8420.0,12964.0,-282.0,436.0,-145.0,0.21828466728972007,-0.5578346457386836,-0.05080586459177402,0.7991189374322799
-369.2960579395294,7368.0,8272.0,12980.0,-313.0,433.0,-214.0,0.2196115229557573,-0.5921843049172771,-0.07466061820034607,0.7716957432075391
-369.30384159088135,7440.0,8092.0,12972.0,-315.0,461.0,-144.0,0.2157604982004516,-0.6274380461831832,-0.09431877339074261,0.7422081073419962
-369.3116593360901,7368.0,7880.0,12860.0,-391.0,413.0,-109.0,0.2045485943385799,-0.6597294762139799,-0.11765062859281536,0.7134950738163888
-369.3194754123688,7460.0,7712.0,12876.0,-321.0,423.0,-107.0,0.19685369452609391,-0.6898603351763375,-0.13606401830013615,0.6832480690245958
-369.32724618911743,7324.0,7536.0,12744.0,-326.0,441.0,-30.0,0.18404053502349996,-0.7205163002180911,-0.14953215486182864,0.6516329313736957
-369.33503103256226,7328.0,7492.0,12716.0,-229.0,395.0,85.0,0.16981961579667357,-0.7471063137682942,-0.1507141643203626,0.6247228943231039
-369.3428370952606,7448.0,7672.0,12816.0,-209.0,425.0,46.0,0.15913240677141136,-0.77327550625333,-0.15265410333558257,0.5944901961164738
-369.3506066799164,7468.0,7212.0,12796.0,-187.0,442.0,116.0,0.14624147560211662,-0.799577040224111,-0.14822926626787977,0.5633099255133465
-369.35837030410767,7376.0,7512.0,12880.0,-169.0,445.0,202.0,0.1301311589892827,-0.8253601422039446,-0.1366000866084074,0.5321531109180572
-369.3661720752716,7496.0,7652.0,13052.0,-179.0,506.0,347.0,0.10697120701051475,-0.8536856995692189,-0.11397038579550829,0.496778258766776
-369.3739354610443,7548.0,7792.0,12896.0,-208.0,606.0,432.0,0.07856944088610965,-0.8841791761051369,-0.0849274556290252,0.45259402866284615
-369.38170051574707,7624.0,7816.0,12920.0,-229.0,660.0,618.0,0.04121000304502817,-0.9133728048607681,-0.04159428571682981,0.40289176013603
-369.3894703388214,7452.0,7824.0,12852.0,-255.0,672.0,663.0,-3.3059679692284135e-05,-0.9369159269685533,0.004716613918379984,0.34952295811986234
-369.39723682403564,7764.0,7800.0,13116.0,-275.0,740.0,713.0,-0.0444342707463096,-0.9550840236164947,0.05441982543255904,0.28788641165511897
-369.4050064086914,7724.0,7796.0,12908.0,-300.0,754.0,754.0,-0.09160060709066034,-0.9647798206938226,0.10633839076862138,0.22248904020503563
-369.4128098487854,7600.0,7704.0,12952.0,-317.0,834.0,761.0,-0.1401472517029659,-0.9663189830402692,0.15679776401419737,0.1483267745765185
-369.4205791950226,7540.0,7596.0,12928.0,-373.0,881.0,753.0,-0.1924036689948523,-0.9574493620854028,0.20357216832287248,0.06949762214564568
-369.4283449649811,7376.0,7512.0,12876.0,-402.0,952.0,660.0,-0.24559673438160953,-0.9393570967762649,0.23894712083728248,-0.01395572429968931
-369.4361472129822,7284.0,7592.0,12912.0,-465.0,1009.0,619.0,-0.30224475267593015,-0.9096278175489748,0.2669985223951309,-0.09968516469250281
-369.443913936615,7216.0,7636.0,12768.0,-451.0,1032.0,484.0,-0.3559556415311612,-0.872444502144827,0.28051609691910856,-0.18288491274206758
-369.4516975879669,7052.0,7696.0,12876.0,-436.0,1027.0,437.0,-0.40521781480269775,-0.8272326029770276,0.2872600608032263,-0.26261454758962716
-369.45950388908386,6808.0,7788.0,12912.0,-471.0,967.0,307.0,-0.4543800740735704,-0.7769432173614305,0.28463539522335335,-0.32997072152997353
-369.4672884941101,6704.0,7768.0,12836.0,-481.0,921.0,256.0,-0.5004385616123244,-0.72175145378351,0.2780655614210313,-0.3889930957798405
-369.4750487804413,6896.0,7808.0,12844.0,-459.0,857.0,162.0,-0.542761714646288,-0.6661103895110317,0.2653787959230294,-0.4373565648005366
-369.4828531742096,6608.0,7824.0,12944.0,-444.0,788.0,76.0,-0.5822178149391795,-0.6112052395886286,0.248556211725478,-0.4750477667346029
-369.49062156677246,6588.0,7972.0,12964.0,-471.0,677.0,-81.0,-0.6238775191416742,-0.55936971193244,0.22866188219210903,-0.4955765431440545
-369.4984016418457,6584.0,7808.0,13036.0,-456.0,593.0,-203.0,-0.6653520171140598,-0.5116331308054013,0.2055953854904403,-0.5032581546776489
-369.50619745254517,6576.0,7892.0,12896.0,-765.0,445.0,-281.0,-0.7176049700031248,-0.45107636566449505,0.2000128748199968,-0.4914957469520621
-369.5139594078064,6592.0,7792.0,12736.0,-524.0,364.0,-377.0,-0.7592898995721521,-0.4082283562711105,0.18429094586859057,-0.4720861201250876
-369.52173495292664,6748.0,7700.0,12660.0,-262.0,291.0,-488.0,-0.7923430950540137,-0.3860124755433765,0.15797831784632524,-0.44522987268999137
-369.5295491218567,6688.0,7432.0,12592.0,-521.0,318.0,-644.0,-0.8369012731159446,-0.3453077086661122,0.13394282123938192,-0.4030113720865772
-369.5373229980469,6776.0,7608.0,12876.0,-555.0,356.0,-673.0,-0.8785860990599395,-0.2989399675736873,0.10660566081475036,-0.3568705583372372
-369.54508924484253,6952.0,7492.0,13004.0,-542.0,399.0,-761.0,-0.91646366801432,-0.25124094517052364,0.07297679381112002,-0.3027320931857237
-369.5528926849365,6704.0,7404.0,13028.0,-543.0,501.0,-799.0,-0.9483428470510235,-0.19897049512468334,0.02983485397919715,-0.24528854030516323
-369.560667514801,7100.0,7264.0,13240.0,-586.0,581.0,-857.0,-0.9731147601010568,-0.1397049547750067,-0.02021532782508875,-0.18199321362539983
-369.56843972206116,7116.0,7136.0,13076.0,-570.0,677.0,-772.0,-0.9859661417509408,-0.07896464916704972,-0.07739518380368766,-0.12508132165388197
-369.57620644569397,7160.0,7152.0,13400.0,-532.0,716.0,-744.0,-0.9878851122978358,-0.020434435033386735,-0.1373545735236059,-0.06927596911849546
-369.5839717388153,7268.0,7108.0,13440.0,-481.0,521.0,-671.0,-0.9830454132640005,0.031931268973976114,-0.17965222684888205,-0.018088308670521275
-369.59174370765686,7208.0,7120.0,13436.0,-436.0,821.0,-574.0,-0.9655611832919866,0.0791013204547686,-0.24644293879649784,0.026466211278464415
-369.59951639175415,7112.0,7100.0,13436.0,-352.0,904.0,-400.0,-0.9389276031170835,0.11464790018929723,-0.31912200860187456,0.058582921682846165
-369.607301235199,6964.0,6956.0,13404.0,-250.0,872.0,-271.0,-0.9077615700698278,0.13762782957990138,-0.38763453943319615,0.0822616330247618
-369.61506938934326,7140.0,7272.0,13232.0,-186.0,859.0,-191.0,-0.8725141646779636,0.15208400895994406,-0.4531757507551282,0.10110007706482142
-369.6228461265564,6840.0,7372.0,13296.0,-204.0,799.0,-122.0,-0.8350229214142715,0.16486912960241576,-0.5127096511690216,0.11262195352175917
-369.63061141967773,6736.0,7480.0,13104.0,-262.0,705.0,-120.0,-0.7968652424453956,0.18192865376927975,-0.5635809972575351,0.11951656726303994
-369.63838481903076,6688.0,7508.0,12976.0,-303.0,579.0,-154.0,-0.7607546662676998,0.20412695043500118,-0.60343586803204,0.12429673781095645
-369.6461868286133,6568.0,7588.0,12840.0,-341.0,403.0,-220.0,-0.7302447044325805,0.23364198738701344,-0.62911088324166,0.12795932933912177
-369.65395855903625,6480.0,7504.0,12868.0,-333.0,266.0,-319.0,-0.7046064619514973,0.26907766129395433,-0.6425151600096233,0.13528198374719844
-369.6617314815521,6580.0,7552.0,12916.0,-348.0,159.0,-311.0,-0.6832883499642041,0.3057216723007424,-0.6484361055452944,0.1384987614171501
-369.6695420742035,6520.0,7444.0,12944.0,-308.0,88.0,-302.0,-0.666018998135406,0.3398334718729306,-0.6488135925032648,0.14132525499891344
-369.67732763290405,6544.0,7352.0,12812.0,-267.0,98.0,-322.0,-0.6481900149995132,0.3720877470653848,-0.6477462448487937,0.14773359544471723
-369.6851010322571,6556.0,7324.0,13024.0,-276.0,107.0,-316.0,-0.6287177094184659,0.4038720908829389,-0.64658710405224,0.15338348327893184
-369.69290924072266,6648.0,7388.0,13168.0,-6.0,124.0,-325.0,-0.6169329873415906,0.4206617935989011,-0.6416753883403575,0.17518573153709674
-369.70068168640137,6712.0,7340.0,13268.0,-221.0,121.0,-6.0,-0.6018624152063011,0.4309185674187702,-0.651150910388254,0.1675509275305291
-369.7084741592407,6752.0,7268.0,13244.0,-220.0,48.0,-230.0,-0.5873191902116615,0.45464525465725614,-0.6479438584310377,0.16888640427298046
-369.71627616882324,6800.0,7268.0,13152.0,-166.0,45.0,-192.0,-0.5752624250628707,0.47321093902124145,-0.6448785407235409,0.17110294332855924
-369.72405767440796,6752.0,7264.0,13224.0,-145.0,10.0,-168.0,-0.5661445425956593,0.48968808773075234,-0.6404515391212176,0.1717782281344595
-369.7318296432495,6788.0,7248.0,13172.0,-103.0,-33.0,-111.0,-0.5619188197969266,0.5014141506655757,-0.6355286695067609,0.17010114551441122
-369.7396414279938,6776.0,7272.0,13212.0,-56.0,-45.0,-78.0,-0.5608290824118201,0.5091159991318359,-0.6306790011250607,0.168865737463241
-369.747416973114,6776.0,7292.0,13152.0,-19.0,-36.0,-105.0,-0.5604382732223306,0.5163139867165614,-0.6244674678379343,0.17137441652855098
-369.75519919395447,6724.0,7384.0,13240.0,35.0,-55.0,-65.0,-0.5640697365507983,0.5189318744290234,-0.6182707986540503,0.17400075155233177
-369.76297974586487,6748.0,7372.0,13100.0,39.0,-27.0,-108.0,-0.5656698045671479,0.5232034009629014,-0.6113906162292203,0.1802148379259392
-369.7707715034485,6732.0,7480.0,13264.0,31.0,-28.0,-186.0,-0.5656226163550411,0.5319464225340679,-0.6009075614148162,0.1897739762332658
-369.7785437107086,6652.0,7488.0,13112.0,21.0,-59.0,-290.0,-0.5647455587437489,0.5468954743048605,-0.5839488756184259,0.20241419102436647
-369.7863190174103,6604.0,7552.0,13068.0,25.0,-60.0,-336.0,-0.5628551866626331,0.563578839911642,-0.5642198068590355,0.21732220226836602
-369.7941999435425,6576.0,7632.0,13036.0,17.0,-182.0,-345.0,-0.5658265597266064,0.5828291087522378,-0.5376313146466397,0.226059956229207
-369.80255031585693,6504.0,7620.0,13056.0,2.0,-244.0,-507.0,-0.5667360248015832,0.6105809961198642,-0.49910266036070283,0.23853230345226328
-369.81051206588745,6484.0,7640.0,13300.0,-16.0,-292.0,-410.0,-0.5695624765261641,0.6346778864861516,-0.4626469371535443,0.24236414190490044
-369.81836915016174,6600.0,7664.0,12820.0,-29.0,-297.0,-452.0,-0.5697936171247767,0.6598951478347029,-0.4229343012867339,0.24698219478978856
-369.8261926174164,6572.0,7560.0,13124.0,-35.0,-336.0,-455.0,-0.5697189677833846,0.6848126125712592,-0.3802550013271457,0.24871292161215386
-369.83398723602295,6428.0,7644.0,13048.0,-68.0,-361.0,-483.0,-0.5663989277454,0.7110371253345132,-0.33438889257773785,0.2486011455434727
-369.8417639732361,6700.0,7548.0,13076.0,-76.0,-355.0,-455.0,-0.5614867434677533,0.7348000161744944,-0.2898231856120803,0.24658486210958988
-369.84956216812134,6728.0,7480.0,13152.0,-89.0,-409.0,-402.0,-0.5567989227266903,0.7571317669430309,-0.24554479259395573,0.23755883895597804
-369.8573462963104,6680.0,7516.0,13228.0,-116.0,-402.0,-443.0,-0.5478279731292798,0.779464683492978,-0.19880607567099282,0.2297726339679216
-369.86513209342957,6756.0,7444.0,13232.0,-86.0,-499.0,-413.0,-0.5415115011607253,0.7994183053142981,-0.14828226661669136,0.2137943793603796
-369.87295365333557,6772.0,7448.0,13228.0,-75.0,-490.0,-342.0,-0.5355373698182266,0.8153731051544307,-0.10247125856046745,0.1945920504235238
-369.8807785511017,6732.0,7528.0,13120.0,-37.0,-550.0,-341.0,-0.5312205610140798,0.8281352286507575,-0.052993991352890145,0.1708461164438158
-369.88855719566345,6852.0,7560.0,13160.0,35.0,-539.0,-310.0,-0.5308767449664682,0.834716051459884,-0.0050246039234768955,0.1462660194455288
-369.89632749557495,6832.0,7516.0,13064.0,38.0,-556.0,-332.0,-0.5288447405054,0.838819057407646,0.04537829778713015,0.12102330130791834
-369.90412998199463,6856.0,7540.0,13040.0,91.0,-581.0,-510.0,-0.5266467671765436,0.8367680969545082,0.1102815355837321,0.10149047960730159
-369.91193985939026,7160.0,7592.0,13032.0,157.0,-599.0,-27.0,-0.5313771900034256,0.83334023964152,0.14100512595309367,0.05744459411667333
-369.9197132587433,6664.0,7504.0,13036.0,144.0,-545.0,-224.0,-0.5333226143687317,0.8254413093381725,0.18307082224146917,0.026433083150037732
-369.9274752140045,6900.0,7540.0,12976.0,164.0,-555.0,-184.0,-0.5351457195849261,0.8149624028219244,0.22225736723145295,-0.007550066754020233
-369.9352707862854,6928.0,7504.0,13096.0,171.0,-765.0,-158.0,-0.5313348461499479,0.8014141598456423,0.26848990951322377,-0.0577216957070363
-369.94304871559143,6968.0,7512.0,13008.0,197.0,-487.0,-118.0,-0.5337653088021276,0.7861484124846888,0.2980298076498607,-0.09079373557333233
-369.9508500099182,6936.0,7588.0,13292.0,165.0,-469.0,-95.0,-0.5331801873641977,0.7714762298099479,0.32479318461756806,-0.12268945295535993
-369.9586329460144,6904.0,7544.0,13136.0,190.0,-471.0,-77.0,-0.5329733432886705,0.754603205823937,0.3495285342119705,-0.15602314211541043
-369.96639800071716,7136.0,7612.0,13280.0,178.0,-411.0,-37.0,-0.5323177298478718,0.7389806998909723,0.36839237129019936,-0.1866344567689493
-369.974214553833,6808.0,7560.0,13120.0,165.0,-370.0,-31.0,-0.5313004000472528,0.7237861715100932,0.3846649581031716,-0.21421095408002908
-369.98203206062317,6852.0,7600.0,13168.0,125.0,-393.0,-80.0,-0.5272112338172985,0.7074291718275768,0.4053446498623794,-0.23934911032242334
-369.98979806900024,6772.0,7544.0,13144.0,134.0,-421.0,-56.0,-0.5214351036471403,0.6899129830026028,0.4250631380803638,-0.26729541188396766
-369.99758887290955,6744.0,7604.0,13152.0,71.0,-401.0,-23.0,-0.5111149798961456,0.675991588707981,0.4427674177918708,-0.29283760527593006
-370.0054039955139,6728.0,7580.0,13168.0,84.0,-424.0,-70.0,-0.5011776960633737,0.6581671513777891,0.4633315611733706,-0.3177432646595394
-370.01321601867676,6692.0,7628.0,13176.0,56.0,-463.0,254.0,-0.47818114090785996,0.6523963197553972,0.4669393347744694,-0.3573366705084251
-370.02099537849426,6708.0,7616.0,13160.0,46.0,-465.0,-24.0,-0.46227857605232703,0.6344130941525281,0.485873473021362,-0.3843767842950565
-370.02878284454346,6828.0,7552.0,13240.0,36.0,-526.0,-14.0,-0.4420324652755142,0.614015188784114,0.5061259489931617,-0.4140400600674187
-370.0365574359894,6880.0,7428.0,13248.0,79.0,-517.0,-40.0,-0.4244934649260442,0.5898430349009672,0.5248061303990953,-0.4432482576496217
-370.0443353652954,6856.0,7420.0,13084.0,66.0,-528.0,-8.0,-0.40364400122802924,0.5659372639916942,0.5416347407251344,-0.4726714938917287
-370.0521318912506,7156.0,7440.0,13132.0,117.0,-482.0,24.0,-0.38534882232948736,0.5424970498259833,0.5520732021756731,-0.5024125948848019
-370.0599091053009,6908.0,7376.0,13192.0,140.0,-429.0,-244.0,-0.38168719361727277,0.5066490138806864,0.5713275849085216,-0.520774858921679
-370.06768894195557,6908.0,7388.0,13112.0,122.0,-397.0,51.0,-0.3647883077366229,0.48669579809712304,0.5763467486131079,-0.5457848623920918
-370.0755021572113,6920.0,7496.0,13308.0,132.0,-383.0,56.0,-0.34830241529066486,0.4667042213365086,0.579479201569446,-0.570154761654947
-370.0832750797272,6656.0,7488.0,13156.0,159.0,-361.0,-14.0,-0.33707858103361954,0.44286948402916926,0.5827349215588169,-0.5921694533830147
-370.09105372428894,6844.0,7496.0,13292.0,165.0,-393.0,62.0,-0.32009806784931155,0.4204907982367029,0.5829253726676807,-0.6171893756843545
-370.09886384010315,6800.0,7556.0,13188.0,111.0,-375.0,-49.0,-0.30760992202515836,0.3943914491145415,0.5888333009225051,-0.6349069730769341
-370.10663962364197,6848.0,7572.0,13116.0,97.0,-410.0,-40.0,-0.2919543271891218,0.36668790312423855,0.5953930041225328,-0.6525410509537634
-370.1144223213196,6768.0,7624.0,13160.0,100.0,-388.0,-84.0,-0.27965631718962003,0.33738664473350305,0.6018397057117215,-0.6676462872211872
-370.1221966743469,6792.0,7576.0,13168.0,34.0,-422.0,-72.0,-0.2625601731339595,0.30789172948236115,0.6117960421201306,-0.6796840745863987
-370.12996339797974,6744.0,7560.0,13148.0,56.0,-400.0,-126.0,-0.25006868656303893,0.2758872237516549,0.6205452389841078,-0.6901271608518226
-370.1377329826355,6808.0,7484.0,13284.0,62.0,-417.0,-145.0,-0.23758973250453375,0.24130365476955887,0.6288644434388233,-0.6998951185582427
-370.14554023742676,6756.0,7476.0,13256.0,87.0,-424.0,-138.0,-0.2244628719330859,0.20578634062319792,0.6346810926082435,-0.710245247658913
-370.153311252594,6804.0,7480.0,13208.0,26.0,-414.0,-85.0,-0.2071839496161108,0.174710019201007,0.6421951846027133,-0.7170331687483777
-370.16108226776123,6744.0,7500.0,13096.0,81.0,-461.0,-132.0,-0.19072810424893252,0.13679873064397258,0.6468150472534681,-0.7256302034716446
-370.1688480377197,6780.0,7496.0,13148.0,62.0,-468.0,-136.0,-0.17356120756122756,0.09828630818846994,0.6516214315331245,-0.7318509539648704
-370.176616191864,6852.0,7480.0,13136.0,93.0,-491.0,-145.0,-0.15559562082157893,0.057138266446902945,0.6536013593802336,-0.7384649513043261
-370.18438720703125,6664.0,7572.0,13124.0,91.0,-494.0,-139.0,-0.13674501835045877,0.016050235638503777,0.6543685126413076,-0.7435354998625715
-370.19216418266296,6904.0,7544.0,13284.0,125.0,-478.0,-141.0,-0.11871086953814218,-0.024553730928239804,0.651406316283393,-0.748982412915752
-370.19994711875916,6900.0,7536.0,13164.0,116.0,-472.0,-96.0,-0.09787086392447406,-0.06207059272855179,0.647800165559256,-0.7529432123436692
-370.20773100852966,7048.0,7564.0,13096.0,109.0,-383.0,-37.0,-0.07806978600720216,-0.09026362224832803,0.6432107228240302,-0.7563316422414107
-370.21550965309143,7000.0,7608.0,13092.0,43.0,-368.0,-30.0,-0.05907996130230589,-0.11652341159721126,0.6421978825325199,-0.7553235944898137
-370.2233057022095,7024.0,7568.0,13176.0,61.0,-337.0,7.0,-0.03914881730599734,-0.13864687995049899,0.6395907848507131,-0.7550947230100225
-370.2310862541199,7044.0,7548.0,13288.0,54.0,-298.0,-38.0,-0.024411766213248233,-0.16057806905316324,0.6362543982328543,-0.7541877021928001
-370.2388722896576,6892.0,7528.0,13216.0,73.0,-510.0,245.0,0.020983864625244847,-0.18051451019259648,0.6350734542755692,-0.7507702023321204
-370.2466459274292,7000.0,7532.0,13196.0,23.0,-233.0,-19.0,0.03296039865338491,-0.19678590963128162,0.6325979691582068,-0.7483373085100806
-370.2544295787811,6672.0,7540.0,13268.0,37.0,-212.0,8.0,0.04576979509797403,-0.2100761429204999,0.6294884255738636,-0.7466709195494851
-370.26220512390137,7152.0,7488.0,13224.0,64.0,-214.0,-42.0,0.055905157635607834,-0.22605969742337148,0.6234592135554785,-0.7463713791293015
-370.2700242996216,6908.0,7536.0,13160.0,17.0,-196.0,-30.0,0.0648961134804535,-0.24036729622044745,0.6205992260921415,-0.7435513821765372
-370.2777991294861,6860.0,7564.0,13212.0,45.0,-167.0,-88.0,0.06911963384586788,-0.25570380628845085,0.6146873471080584,-0.7429653457408824
-370.285578250885,6836.0,7604.0,13104.0,7.0,-136.0,-114.0,0.06912507295473982,-0.27058614563430605,0.610683758485436,-0.7409927187239249
-370.2933814525604,6664.0,7528.0,13196.0,246.0,-115.0,-132.0,0.07245643838426741,-0.2834944009728135,0.5906420693927641,-0.7520125896666664
-370.30116510391235,6920.0,7544.0,13188.0,-2.0,-96.0,-161.0,0.06673025834877777,-0.29808596627714123,0.5859850617966726,-0.7505420285903236
-370.30893993377686,6860.0,7564.0,13212.0,231.0,-106.0,-140.0,0.06891851651674522,-0.31075991181269275,0.5662889382756701,-0.7602600566108368
-370.3167827129364,6912.0,7504.0,13072.0,-14.0,-131.0,-151.0,0.06493151250205854,-0.3269644623910986,0.5621230018911804,-0.7568988504168458
-370.3245656490326,6876.0,7472.0,13036.0,-10.0,-142.0,-212.0,0.057539196584503405,-0.3467295278952118,0.5556655869000666,-0.7534611011040835
-370.3323359489441,6888.0,7568.0,13020.0,4.0,-62.0,-182.0,0.048634669281229635,-0.3595719849048902,0.5493810434406448,-0.7526773051736921
-370.34014654159546,6948.0,7496.0,13140.0,249.0,-70.0,-158.0,0.04935091378679362,-0.3705659970754897,0.5274539257520143,-0.7629139435930143
-370.34793186187744,7024.0,7520.0,13144.0,32.0,-29.0,-160.0,0.04100190970978171,-0.3796888994011916,0.5198363563567167,-0.7641500806002938
-370.3557047843933,7100.0,7472.0,13224.0,42.0,-249.0,-185.0,0.041275454541383816,-0.4043925669616673,0.5096889161010271,-0.7582744868728709
-370.3634741306305,7140.0,7524.0,13176.0,34.0,16.0,-188.0,0.029252621679914808,-0.41151441410771533,0.5006574922511322,-0.7610139595035317
-370.3712375164032,7076.0,7492.0,13184.0,40.0,53.0,-146.0,0.018607303376418218,-0.41422603060383784,0.4927087436269354,-0.7650546763368049
-370.37900161743164,7052.0,7476.0,13092.0,70.0,86.0,-118.0,0.009490582002810319,-0.4133963636124614,0.48372176798749394,-0.7713796902824799
-370.3867697715759,7044.0,7640.0,13144.0,76.0,70.0,-105.0,0.002137350060742091,-0.4130124749832971,0.47469374464683756,-0.777227107116094
-370.39454197883606,6936.0,7192.0,13048.0,72.0,40.0,-90.0,-0.0031006575400525592,-0.4139815241844484,0.4664012297364903,-0.7817157900778452
-370.4023013114929,6928.0,7468.0,13048.0,178.0,37.0,-76.0,-0.003432386005298644,-0.41452766546707254,0.45128496137116364,-0.790251173317039
-370.4101028442383,6872.0,7296.0,12936.0,134.0,248.0,-91.0,-0.014698443107090746,-0.40089810797368103,0.43837507905464235,-0.8042959361187811
-370.41791105270386,6880.0,7296.0,13288.0,175.0,15.0,-77.0,-0.014626366075314862,-0.402945649507665,0.42315540083380326,-0.8113940964189105
-370.4256925582886,7140.0,7244.0,13028.0,199.0,-43.0,-75.0,-0.011426003454021004,-0.40892867371695885,0.4062384169344896,-0.8170784141462296
-370.4334907531738,6892.0,7252.0,13072.0,226.0,-100.0,-57.0,-0.003953803953680418,-0.41818571657931036,0.3879203588762057,-0.8213542896051012
-370.4412682056427,6908.0,6916.0,13284.0,10.0,-145.0,-8.0,0.0006724103717045853,-0.42879542838867585,0.38675976144050445,-0.8164256949580581
-370.44905066490173,6948.0,7408.0,13144.0,307.0,-179.0,14.0,0.019118265443340228,-0.4408227792807835,0.3650502239031386,-0.8197854007128158
-370.45682883262634,7040.0,7236.0,12976.0,328.0,-234.0,41.0,0.042027393542130906,-0.45539719266353934,0.34238111655454617,-0.8207449458468109
-370.46461057662964,7032.0,7192.0,12916.0,374.0,-239.0,35.0,0.06642028060459679,-0.4697071246812985,0.31569153322911947,-0.8217678621091735
-370.472373008728,7120.0,7236.0,12840.0,418.0,-206.0,146.0,0.09954422322552182,-0.47755613744657005,0.2900636087679834,-0.8233432978278469
-370.4801607131958,7124.0,7328.0,12824.0,490.0,-60.0,247.0,0.13900909826219163,-0.4707555158056964,0.26414223105609624,-0.8302376748326667
-370.48793148994446,7092.0,7364.0,12996.0,546.0,98.0,438.0,0.19049932063341457,-0.4460187016558124,0.24311861491674802,-0.8400420618590672
-370.4957158565521,7148.0,7484.0,12800.0,618.0,147.0,520.0,0.24886826219178934,-0.4128054562187604,0.21973522794608502,-0.848158400883433
-370.50346183776855,7224.0,7476.0,12956.0,637.0,204.0,619.0,0.3126903811634706,-0.37075297399438517,0.19847472982536254,-0.8516893444342906
-370.51124334335327,7140.0,7524.0,13104.0,630.0,147.0,636.0,0.37658461255602615,-0.3305051793766336,0.17545718597017818,-0.8474462412936135
-370.5190348625183,7024.0,7560.0,13308.0,589.0,85.0,688.0,0.4417350465987371,-0.2933199663177758,0.15380285987498848,-0.8337734861819635
-370.5268545150757,7100.0,7536.0,13124.0,575.0,11.0,658.0,0.5027002350705773,-0.2606803350116897,0.12859400971483706,-0.8141264135646504
-370.5346312522888,7068.0,7428.0,13144.0,575.0,-17.0,679.0,0.5625003368988295,-0.22826568921240498,0.10185922092223974,-0.7881071280163651
-370.54240250587463,7048.0,7700.0,13152.0,538.0,-12.0,672.0,0.6177857877841054,-0.19605798930322013,0.07715128732080838,-0.7575946568628192
-370.55019998550415,7040.0,7736.0,13084.0,762.0,-1.0,615.0,0.6690341924023069,-0.15024938821659853,0.036811245775511044,-0.7269548149105183
-370.55797147750854,7072.0,7912.0,13064.0,476.0,69.0,555.0,0.7087922986468267,-0.11595460587366711,0.01757892708896318,-0.6955997326609829
-370.56572461128235,7056.0,7628.0,12816.0,461.0,100.0,271.0,0.7289154562707074,-0.0807634770730185,-0.0017866911866780567,-0.6798208044149177
-370.57349395751953,7056.0,7612.0,12996.0,470.0,142.0,400.0,0.7548103414330114,-0.04235217757875543,-0.018107189096922924,-0.6543239039062585
-370.581262588501,6948.0,7576.0,12808.0,497.0,113.0,359.0,0.7761583965712777,-0.003649901268634188,-0.03798048454389786,-0.6293824786617777
-370.58903455734253,6912.0,7500.0,12976.0,494.0,114.0,267.0,0.7903523889845198,0.035197208602412815,-0.05755759740219082,-0.6089264165023126
-370.59680128097534,7160.0,7452.0,12980.0,524.0,93.0,290.0,0.8034807182124418,0.07473856066247175,-0.08009159849018133,-0.5851651210232955
-370.6045663356781,6920.0,7484.0,12956.0,535.0,92.0,240.0,0.811788739952675,0.115110697115225,-0.10271078361094317,-0.563204282677006
-370.61233830451965,6944.0,7508.0,12964.0,564.0,31.0,236.0,0.8168296543318909,0.15420426375546636,-0.13073513280113727,-0.5402949989544109
-370.6201455593109,7000.0,7476.0,12896.0,550.0,41.0,291.0,0.8224074184181474,0.19163646639144907,-0.1577297920389361,-0.5119011775559336
-370.6279106140137,7048.0,7440.0,12908.0,596.0,85.0,331.0,0.8269391446450924,0.23307511160458058,-0.1837364053215915,-0.47758619825499043
-370.63568663597107,7096.0,7628.0,13000.0,625.0,63.0,368.0,0.8289549689101755,0.2741430874328425,-0.21253155673663654,-0.43875911901978826
-370.6435008049011,7052.0,7536.0,12940.0,604.0,75.0,332.0,0.8271777867026378,0.3137317739579443,-0.23791070416979757,-0.40093363545150174
-370.65127539634705,7116.0,7600.0,13004.0,594.0,84.0,348.0,0.8234315067744413,0.3514288468007544,-0.261786096588233,-0.36045299127703406
-370.65906047821045,6924.0,7644.0,13020.0,610.0,93.0,383.0,0.8173731422964823,0.3884195639617407,-0.28551447648013273,-0.31545660922608937
-370.6668622493744,7140.0,7756.0,12948.0,598.0,132.0,363.0,0.8089494584940046,0.4246262381562822,-0.3042966775749327,-0.2696235588526315
-370.6746418476105,7112.0,7740.0,13128.0,600.0,136.0,458.0,0.7994421510588733,0.4568010664528247,-0.3250488261526334,-0.21579687999301247
-370.682413816452,7036.0,7772.0,12948.0,607.0,189.0,409.0,0.7867274054626873,0.48986521008635614,-0.3388325925176121,-0.16212507421368297
-370.6902189254761,6984.0,7768.0,12988.0,603.0,107.0,383.0,0.7681368689697693,0.5202632314785643,-0.35564577429541205,-0.11317245127069578
-370.698025226593,6980.0,7768.0,13040.0,606.0,120.0,358.0,0.746564481773312,0.5497530996048214,-0.36907770751302127,-0.06476611649906316
-370.7058045864105,7000.0,7748.0,12992.0,542.0,96.0,303.0,0.7244066503246037,0.5748576409334637,-0.37980146762959494,-0.022902899648426987
-370.7135841846466,6952.0,7720.0,13008.0,257.0,115.0,289.0,0.7155884561550709,0.5812733367562614,-0.3872478869009623,0.009671788075814333
-370.72140192985535,6920.0,7768.0,12848.0,767.0,115.0,313.0,0.6786242745457117,0.6167508967684436,-0.39419039141168377,0.060838808759956196
-370.7291750907898,6972.0,7700.0,13020.0,458.0,132.0,323.0,0.6560971523673784,0.6311665517192858,-0.4007645127292572,0.10272836016935044
-370.7369532585144,6984.0,7428.0,13112.0,266.0,137.0,297.0,0.643264102750838,0.6342553879758573,-0.4065624626950056,0.13652238227897298
-370.7447578907013,6948.0,7656.0,13124.0,496.0,119.0,333.0,0.6153186568223559,0.6478645407971577,-0.4117622239327336,0.17918247203895007
-370.7525324821472,6984.0,7764.0,12808.0,438.0,189.0,279.0,0.5924175814034336,0.6575569503089556,-0.40999691302008184,0.22036968407314
-370.7603096961975,6932.0,7756.0,13116.0,461.0,119.0,14.0,0.5695809630793796,0.6779413939410939,-0.39537188519729544,0.24424181721054516
-370.7681157588959,6892.0,7716.0,12960.0,406.0,162.0,313.0,0.5439984560972597,0.6830415589477192,-0.3966858886947636,0.2831257922276118
-370.7758803367615,6944.0,7736.0,13024.0,382.0,116.0,215.0,0.5196417324027028,0.6902555772927872,-0.39418320014484404,0.31327194685335136
-370.7836456298828,7012.0,7676.0,13016.0,376.0,72.0,194.0,0.4939337726835324,0.698106615250116,-0.3919854166104269,0.3391519056579056
-370.7914090156555,7008.0,7704.0,12948.0,380.0,137.0,124.0,0.4715924448348758,0.7056442771698582,-0.382060451585395,0.365645362894782
-370.7991828918457,6976.0,7924.0,12968.0,334.0,116.0,120.0,0.4509365000769624,0.7112455115266645,-0.37375198029306567,0.388710113656083
-370.80701303482056,6928.0,7600.0,12992.0,342.0,121.0,139.0,0.4288030434715132,0.7155899626399973,-0.36573952552164724,0.41266639643864317
-370.8148808479309,6916.0,7672.0,12928.0,319.0,125.0,92.0,0.409470681758837,0.7196807255643457,-0.35507997990196827,0.4339488701494083
-370.8226547241211,6932.0,7632.0,12824.0,332.0,64.0,114.0,0.3862041170607767,0.7251739282751751,-0.3471431107471968,0.4521734339565038
-370.83042573928833,6980.0,7660.0,13192.0,329.0,88.0,105.0,0.3638330706861864,0.7291938130982147,-0.33760795985852177,0.4710867701968639
-370.8382263183594,6868.0,7684.0,13308.0,364.0,51.0,98.0,0.3380569698496037,0.735301363049876,-0.3270116271089072,0.4879680177723571
-370.8460533618927,7148.0,7596.0,13096.0,336.0,44.0,105.0,0.3132284574781643,0.7399278254369921,-0.31792233421179006,0.5033091852720958
-370.85381841659546,6832.0,7648.0,13024.0,344.0,30.0,89.0,0.28789483603755217,0.745123829793081,-0.3075218818936888,0.5170467423879263
-370.8626492023468,6864.0,7540.0,12912.0,368.0,24.0,92.0,0.2604070607948877,0.7503456121456159,-0.2960647776120811,0.5305801282365346
-370.8706622123718,6884.0,7560.0,13024.0,392.0,18.0,116.0,0.22977372269381,0.7548832232886603,-0.2848510253172631,0.5442566021027715
-370.8785104751587,6852.0,7648.0,12676.0,402.0,236.0,92.0,0.20469917606584914,0.7487417887733326,-0.26678462263456815,0.5712354559970901
-370.8862919807434,6952.0,7648.0,12976.0,395.0,-47.0,74.0,0.17408058310857003,0.7558868369471121,-0.2525382453795987,0.5784077064971244
-370.8941693305969,6984.0,7628.0,12808.0,363.0,-86.0,-248.0,0.16071959279552064,0.770560303888467,-0.21891753668822342,0.5766117781430725
-370.9019515514374,7036.0,7624.0,12888.0,389.0,-89.0,17.0,0.13200227859608918,0.7796343464747802,-0.20154417505052025,0.5780360107687826
-370.90975308418274,6932.0,7456.0,12928.0,365.0,-104.0,12.0,0.10474882998849287,0.7883793633108119,-0.18498037771471407,0.5772936185185163
-370.91766691207886,7064.0,7460.0,12892.0,429.0,-44.0,-14.0,0.07524295503119778,0.7941178106833978,-0.16262702113595642,0.5807476667796655
-370.92547726631165,7028.0,7376.0,12824.0,460.0,10.0,250.0,0.03086312671089358,0.792191428111022,-0.156352316196519,0.5890960548645955
-370.9332709312439,7088.0,7528.0,12904.0,524.0,33.0,51.0,-0.0074700351970910074,0.7903079551178505,-0.1326450881509159,0.5981327739231748
-370.94105076789856,7060.0,7808.0,13304.0,268.0,-23.0,92.0,-0.030957396150749966,0.7899597457200708,-0.1248868961875447,0.599506883134871
-370.9488379955292,7120.0,7844.0,12876.0,481.0,-9.0,101.0,-0.06938505396932378,0.7872396380816566,-0.10649696756290801,0.6034052223992108
-370.9566240310669,7408.0,7724.0,13044.0,470.0,-12.0,103.0,-0.10707112161649378,0.7833080639213772,-0.08860762983554285,0.6058984567123911
-370.9644138813019,7076.0,7932.0,13048.0,428.0,-31.0,122.0,-0.14287045266090853,0.7793439805806933,-0.07390560102108754,0.6055980150453094
-370.97220849990845,7040.0,7612.0,12760.0,444.0,-55.0,98.0,-0.17842455236521296,0.7753912831094129,-0.05630858564489129,0.6031271676635731
-370.9800069332123,7036.0,7656.0,13028.0,452.0,-64.0,57.0,-0.2121245887548205,0.7707458466835343,-0.03528355014930022,0.5997575091272653
-370.98779129981995,7060.0,7296.0,12680.0,767.0,-56.0,1.0,-0.26332711920718466,0.757688731087265,0.005888903913660493,0.5971029524999112
-370.9955847263336,7004.0,7264.0,12736.0,585.0,-66.0,-66.0,-0.29812144646202643,0.746565134866097,0.042265574319864635,0.5932771053977792
-371.0033576488495,7016.0,7204.0,12688.0,688.0,-102.0,-60.0,-0.33882571036090126,0.7322721426185896,0.08436124206844453,0.5846860935406959
-371.01114535331726,7028.0,7156.0,12772.0,754.0,-109.0,-83.0,-0.38111877939147315,0.7132304400970235,0.13113391821742335,0.5734585519521929
-371.0190169811249,7140.0,7104.0,13024.0,797.0,-107.0,-64.0,-0.4252527136701564,0.6895245982831493,0.17818139650617087,0.5585403725942649
-371.02686500549316,7112.0,7076.0,12800.0,896.0,28.0,23.0,-0.4792742079557893,0.6531428719221969,0.21881664184670227,0.5438932796941947
-371.03464365005493,7156.0,7148.0,12744.0,1068.0,216.0,45.0,-0.5439730879431407,0.5962412165338901,0.2567979206716622,0.5316432255173594
-371.04242491722107,7060.0,7456.0,12864.0,1196.0,381.0,207.0,-0.6205617655145773,0.5230464170132801,0.28173985811155794,0.5118087466840319
-371.05022954940796,7040.0,8096.0,13160.0,1122.0,321.0,344.0,-0.6911771286985192,0.4536656273669522,0.2971367563179375,0.47767292508020054
-371.05803179740906,7344.0,8688.0,13504.0,964.0,202.0,398.0,-0.747992707471212,0.39551419555358025,0.3080990064615766,0.43491428224752454
-371.0658133029938,7364.0,8748.0,13592.0,1018.0,58.0,540.0,-0.8011651109148239,0.33943735320124135,0.32271590653982246,0.3725200557966703
-371.07358264923096,7400.0,8680.0,13320.0,614.0,56.0,550.0,-0.8366743463822003,0.3091373868727358,0.32166079017254096,0.31771756358280023
-371.08138251304626,7340.0,8372.0,13104.0,538.0,-7.0,759.0,-0.8692200987689753,0.2901555761648138,0.3155970894588559,0.2463019257773196
-371.0891716480255,7312.0,8148.0,12808.0,492.0,-21.0,377.0,-0.8879476923559683,0.2630304569614597,0.3177754955648665,0.20342715838564882
-371.09696769714355,7280.0,8176.0,12648.0,759.0,-100.0,372.0,-0.906743800940136,0.21544805363827413,0.3295679524797316,0.15093965793797176
-371.1047840118408,7416.0,7932.0,12740.0,546.0,-121.0,230.0,-0.9153274066344046,0.1799279710228167,0.3415338114085323,0.11470100074676148
-371.112580537796,7192.0,7520.0,12640.0,574.0,-139.0,179.0,-0.9206978984940433,0.14032364561754246,0.35503339797802996,0.08109217292333666
-371.12038016319275,7144.0,7344.0,12756.0,607.0,-51.0,137.0,-0.9261901008275508,0.09573931297870308,0.3611618735186229,0.05067526216938135
-371.12816739082336,7124.0,7204.0,12680.0,645.0,54.0,107.0,-0.9322681481785214,0.046386037277517604,0.3580937530047702,0.022210346607781137
-371.1359450817108,7192.0,7348.0,12868.0,654.0,188.0,134.0,-0.9393670849288898,-0.003270315994696005,0.34279826256756196,-0.008254451293451948
-371.14373421669006,7220.0,7412.0,12996.0,656.0,232.0,222.0,-0.9440736622979338,-0.050416204805330565,0.3226012258611239,-0.04595188267409439
-371.1515169143677,7272.0,7428.0,13076.0,645.0,193.0,329.0,-0.9433580059497382,-0.09360075829502054,0.304783330827286,-0.09176977665307984
-371.159303188324,7388.0,8088.0,13192.0,593.0,137.0,430.0,-0.93675406257966,-0.12989170832972374,0.2915180731223983,-0.1436564770231142
-371.16708421707153,7412.0,8152.0,13164.0,537.0,106.0,511.0,-0.9250065990910354,-0.15939303914772246,0.2811592231691482,-0.1997652170329211
-371.17487144470215,7400.0,8196.0,13092.0,260.0,125.0,610.0,-0.9122773364951354,-0.16320927024490448,0.27437075865745014,-0.25658036210357715
-371.1826522350311,7344.0,8064.0,13076.0,482.0,126.0,607.0,-0.8927811462366552,-0.18404584869856438,0.2613935431720929,-0.3173993794718705
-371.1904528141022,7212.0,8028.0,12928.0,473.0,124.0,528.0,-0.8717133398617601,-0.20524938921698946,0.2464211988768933,-0.3704930958562967
-371.1982264518738,7200.0,8164.0,12576.0,445.0,152.0,497.0,-0.8494736237763978,-0.2233303715185914,0.22875287939942404,-0.41975019694103216
-371.2060480117798,7204.0,7988.0,12552.0,451.0,238.0,392.0,-0.8298154439161961,-0.24005689743129283,0.20168468597763786,-0.4616300493641309
-371.2138292789459,7056.0,7948.0,12824.0,415.0,249.0,319.0,-0.8116621627078732,-0.25433558548661467,0.1731527715036072,-0.49652397857926117
-371.22163462638855,6976.0,8012.0,12552.0,385.0,233.0,3.0,-0.8059218301464223,-0.27145540689246433,0.1396860825397061,-0.5072373843744156
-371.22940731048584,7164.0,7940.0,12748.0,351.0,231.0,218.0,-0.7901238591017006,-0.2832266772784287,0.11274333213097658,-0.5317667511381856
-371.2371780872345,6936.0,7864.0,12712.0,342.0,155.0,141.0,-0.7761985643773808,-0.2982448778807791,0.08938190809596953,-0.5482487172638855
-371.2449486255646,6920.0,7812.0,13032.0,290.0,130.0,34.0,-0.7677669807228769,-0.3114498304647023,0.06730224028342532,-0.5558806300529078
-371.2527766227722,6684.0,7744.0,12864.0,320.0,89.0,-42.0,-0.7613383576743116,-0.32881057678373005,0.0443772610270307,-0.557026182896883
-371.26055359840393,6828.0,7704.0,12864.0,311.0,121.0,-76.0,-0.7563051386198262,-0.3437482419166968,0.018720431919181043,-0.5563175612050952
-371.2683296203613,6932.0,7740.0,12788.0,288.0,78.0,-154.0,-0.7549560607986453,-0.35888127649251694,-0.004815554546516685,-0.5488373038350283
-371.2761332988739,6964.0,7776.0,12852.0,322.0,117.0,-172.0,-0.75264885146681,-0.3740466767806163,-0.03308969463659777,-0.5408455066688872
-371.2839071750641,6984.0,7948.0,12800.0,272.0,101.0,-182.0,-0.7517408999195438,-0.3863059105917936,-0.05824027183685082,-0.5312828188134537
-371.2916738986969,7068.0,8052.0,12996.0,508.0,131.0,-507.0,-0.7559461244392208,-0.4100254852813135,-0.1070329723873513,-0.49896743499658786
-371.2994873523712,6912.0,8132.0,12848.0,195.0,64.0,-223.0,-0.7578395212209462,-0.41775951488066787,-0.12745365717950646,-0.48467701933746027
-371.3072843551636,6928.0,8152.0,13076.0,194.0,7.0,-228.0,-0.7601022368199867,-0.42750270531921497,-0.14416271921032786,-0.46765707191903944
-371.3150715827942,7248.0,8164.0,13044.0,119.0,-66.0,-272.0,-0.7673530534678858,-0.4344171384550396,-0.15450995841695578,-0.445620594115709
-371.3228943347931,7268.0,8224.0,12864.0,75.0,-91.0,-314.0,-0.7776470243623808,-0.4384651676823493,-0.1629426019768651,-0.42007512505578487
-371.33067655563354,7300.0,8112.0,12848.0,30.0,-94.0,-273.0,-0.7876262599417209,-0.43983571176379155,-0.16783187719900397,-0.39751966278828765
-371.33846497535706,7264.0,8080.0,12548.0,71.0,-108.0,-289.0,-0.7962411383672952,-0.4439801150734647,-0.17367206224141402,-0.3724509656152354
-371.3462378978729,7220.0,8004.0,12548.0,49.0,-100.0,-324.0,-0.8060709793291287,-0.445445899758306,-0.1805663912704999,-0.3452872789655613
-371.35406494140625,7412.0,7968.0,12720.0,-6.0,-68.0,-337.0,-0.817208144060748,-0.4414872005790464,-0.18839609492556125,-0.3190091102499481
-371.3618514537811,7056.0,8028.0,12864.0,-40.0,-64.0,-327.0,-0.8286003914947667,-0.4347769269690807,-0.19501266067910877,-0.2938715317360574
-371.36964416503906,7028.0,7968.0,13024.0,-80.0,-252.0,-311.0,-0.8434170765638243,-0.4298165179726879,-0.18619471151227046,-0.26312910375560605
-371.37742257118225,6984.0,8180.0,12752.0,-36.0,-23.0,-282.0,-0.8514052912797537,-0.422915704535724,-0.19396204856043392,-0.24213645028398745
-371.38521432876587,6916.0,7976.0,13020.0,-45.0,-19.0,-502.0,-0.8632196373403322,-0.4110137548124239,-0.20969610944180436,-0.20480989417015133
-371.39299607276917,6836.0,7944.0,12716.0,-53.0,-30.0,-241.0,-0.8698304165762727,-0.40300162897898456,-0.21484696218577218,-0.1866159593351502
-371.40079045295715,6796.0,7892.0,12616.0,-21.0,-70.0,-276.0,-0.8761635034939482,-0.3972055380053996,-0.21859148794074348,-0.1636552386051328
-371.40857768058777,6788.0,7852.0,12792.0,-37.0,-109.0,-275.0,-0.8832158768551742,-0.39051193763857317,-0.2189475599400313,-0.13961413764020864
-371.4163603782654,6796.0,7692.0,12700.0,-42.0,-105.0,-250.0,-0.8895078785126672,-0.38362635308161985,-0.2185582375032765,-0.1176386505560643
-371.4241347312927,6860.0,8024.0,12672.0,-69.0,-145.0,-283.0,-0.8971899473077193,-0.374177125330462,-0.21573414364068896,-0.09219792078470324
-371.43191933631897,6840.0,8112.0,12696.0,-116.0,-126.0,-315.0,-0.9055052912383222,-0.35997276676065376,-0.21486477643142382,-0.06567269279659198
-371.43969202041626,6808.0,8152.0,12712.0,-149.0,-191.0,-339.0,-0.9151692995163023,-0.3426870649657783,-0.2091710750384474,-0.03575178450428607
-371.4474980831146,6892.0,7968.0,12748.0,-178.0,-176.0,-356.0,-0.9242142068929665,-0.32227020200164214,-0.20479481407989983,-0.005394516197485147
-371.4552834033966,6844.0,8420.0,12820.0,-190.0,-221.0,-328.0,-0.9330390260510912,-0.3009636087607302,-0.1956885676651052,0.02377112854974998
-371.4630591869354,6840.0,8112.0,12552.0,-175.0,-284.0,-336.0,-0.9410436006068931,-0.28015158770527054,-0.1813159135368397,0.055466829378754454
-371.4708642959595,6772.0,8084.0,12900.0,-183.0,-331.0,-360.0,-0.9480845103126663,-0.257563512340803,-0.16336168795321993,0.09005419104592403
-371.47864627838135,6892.0,7992.0,12836.0,-208.0,-331.0,-383.0,-0.9534338088138675,-0.23204223061584842,-0.14575563098756755,0.12599869625087037
-371.4864172935486,6820.0,7940.0,12764.0,-199.0,-399.0,-357.0,-0.9574696331682042,-0.20632508838026412,-0.12151846280398088,0.16098174636702775
-371.49419045448303,6888.0,7924.0,12788.0,-232.0,-390.0,-437.0,-0.9582354461658275,-0.17659621181287558,-0.09959731935067428,0.20169031127666828
-371.50195932388306,6864.0,7932.0,12696.0,-168.0,-422.0,-457.0,-0.9549707170767422,-0.15096127431784698,-0.07387598639770115,0.2445075905080065
-371.50973773002625,6944.0,7848.0,12816.0,-225.0,-449.0,-457.0,-0.9494357939792246,-0.11953228308851073,-0.04687784356320541,0.2865068484234733
-371.5175702571869,6676.0,7920.0,12824.0,-209.0,-413.0,-482.0,-0.9396714736916747,-0.0898461940014726,-0.022557126572587665,0.3292967643241492
-371.5253756046295,6948.0,7940.0,12816.0,-222.0,-404.0,-533.0,-0.9251494329426864,-0.05896365906218575,0.00032782367369529495,0.3749956081975666
-371.5331757068634,6664.0,8172.0,12756.0,-495.0,-383.0,-502.0,-0.9090358297506737,-0.0065831214077788636,0.012743548433452543,0.41647103706663585
-371.54096031188965,7136.0,7716.0,12860.0,-245.0,-395.0,-541.0,-0.8873517949459188,0.026429072478490728,0.035099789397868675,0.45899488114619336
-371.5487844944,7020.0,7940.0,12564.0,-14.0,-345.0,-554.0,-0.8626565143562968,0.03942321029750355,0.06272424510868323,0.5003351055083273
-371.5565631389618,6956.0,8020.0,12860.0,-275.0,-361.0,-604.0,-0.8315358658647258,0.07226838911428257,0.08008630481405914,0.5448959235456408
-371.56434965133667,7056.0,7976.0,12936.0,-305.0,-307.0,-590.0,-0.7977602982172125,0.10449663490496373,0.09167735020252996,0.5867318155186111
-371.5721356868744,7016.0,8052.0,12856.0,-291.0,-294.0,-621.0,-0.7593179023406833,0.13437843967542057,0.10296433092191948,0.6283129034908843
-371.5799205303192,7080.0,8056.0,12744.0,-280.0,-326.0,-556.0,-0.7212260261553801,0.16531796722094128,0.11578525062294255,0.6626437690405285
-371.5876977443695,7020.0,8048.0,12832.0,-284.0,-320.0,-657.0,-0.6742822441726957,0.19440879414307316,0.12893690443205652,0.7006596539181831
-371.5954849720001,7104.0,8056.0,12804.0,-304.0,-288.0,-601.0,-0.6278036603914251,0.22248921002050934,0.1374602282446487,0.7331205910861507
-371.6032702922821,7176.0,8052.0,12628.0,-281.0,-313.0,-596.0,-0.5792313787733436,0.25005038747845665,0.1481452476969134,0.7615896527336917
-371.6110644340515,6960.0,8076.0,13004.0,-293.0,-262.0,-569.0,-0.5306068983151587,0.27420043250874704,0.15427067069596906,0.7870648019289129
-371.61887979507446,7228.0,8000.0,12860.0,-273.0,-252.0,-579.0,-0.4799793769479335,0.29560681371973246,0.160969197867433,0.8101390786309819
-371.62668800354004,7212.0,7984.0,12764.0,-293.0,-1.0,-533.0,-0.43403837706283865,0.29982075284283555,0.15403332806325742,0.8354591176396181
-371.63446950912476,7220.0,8016.0,12584.0,-267.0,-232.0,-550.0,-0.38312935790525116,0.31872796680657306,0.15770513775821915,0.8524983682161035
-371.6422486305237,7296.0,8004.0,12720.0,-272.0,-171.0,-540.0,-0.33245150070420915,0.33239941151319663,0.15817390720760988,0.8683131036578213
-371.6500663757324,7268.0,7924.0,12684.0,-245.0,-145.0,-577.0,-0.2790903720139618,0.34177662048563745,0.16049757859534391,0.8829143974381414
-371.65784454345703,7308.0,7968.0,12608.0,-267.0,-148.0,-768.0,-0.2092378571669199,0.3478063152716014,0.16619859288361205,0.8986814307132949
-371.6656267642975,7204.0,7948.0,12716.0,-239.0,-151.0,-545.0,-0.15672687925293452,0.355376819256474,0.166696007067106,0.9062871746210861
-371.6734037399292,7304.0,7908.0,12664.0,-203.0,-142.0,-594.0,-0.10112296996961134,0.3599522399933691,0.17091125627724524,0.9115908470064927
-371.68117809295654,7456.0,8188.0,12792.0,-194.0,-144.0,-583.0,-0.04632370675240102,0.3636478902992076,0.17496800506177976,0.9137836304499846
-371.6889567375183,7528.0,7932.0,12776.0,-103.0,-65.0,-618.0,0.007315187865547729,0.359033398579723,0.18649785538558178,0.9144725565414
-371.69676065444946,7668.0,7924.0,12432.0,-123.0,-98.0,-568.0,0.058125536465843564,0.35681817972417207,0.19429876056615103,0.9118937439588803
-371.7045352458954,7828.0,8056.0,12348.0,-29.0,-242.0,-630.0,0.11318031163886913,0.3643677907008377,0.2101385577019608,0.9001489414113971
-371.7123079299927,7920.0,8068.0,12400.0,62.0,108.0,-632.0,0.15871032743762276,0.34410660790464687,0.23582962895326767,0.8948665042724329
-371.7201421260834,7960.0,8164.0,12464.0,206.0,346.0,-559.0,0.18875330327268056,0.30766090042620514,0.2728990423892478,0.8917640234476941
-371.7279088497162,8036.0,7964.0,12304.0,289.0,617.0,-489.0,0.20375299814431327,0.25205686482072576,0.3175824582415792,0.8911192035082541
-371.7356946468353,7972.0,8408.0,12524.0,333.0,790.0,-303.0,0.19738451073780108,0.1876652391742381,0.36280361810540834,0.8911759913822296
-371.74348306655884,7900.0,8352.0,12700.0,397.0,972.0,-95.0,0.16669503441127284,0.1155742249778688,0.41003253101531606,0.8892292660121817
-371.7512512207031,7516.0,8568.0,12576.0,429.0,1065.0,186.0,0.10916246984201149,0.04577190459825081,0.4544254785277719,0.8828850278446488
-371.7590398788452,7304.0,8648.0,12592.0,359.0,1084.0,314.0,0.040227371372567294,-0.02158009246605143,0.4884018598965335,0.8714239389936549
-371.76685094833374,7112.0,8488.0,12404.0,327.0,1077.0,372.0,-0.0332830187533292,-0.08584629290717445,0.5148707650840124,0.8523090694804114
-371.7746436595917,6912.0,8520.0,12488.0,283.0,980.0,422.0,-0.10620606902096312,-0.13978423370584703,0.5336483332730912,0.827284772799086
-371.7824149131775,6564.0,8464.0,12196.0,247.0,839.0,398.0,-0.1705171912008256,-0.1833066618663446,0.5465366633167722,0.7991371790068136
-371.7902321815491,6516.0,8192.0,12280.0,176.0,716.0,349.0,-0.22573567225772528,-0.21850855851882448,0.5522429238534037,0.7722209328801066
-371.7980592250824,6244.0,8408.0,12296.0,168.0,611.0,384.0,-0.2773948470103149,-0.2438303305532494,0.5575919831747336,0.7434312672020761
-371.8058862686157,6244.0,8392.0,12264.0,163.0,256.0,364.0,-0.30985068017872347,-0.2463145541514774,0.5691388638620988,0.720695948405221
-371.8136670589447,6168.0,8404.0,12208.0,130.0,439.0,495.0,-0.35949140944486246,-0.25228007646246764,0.57499397799584,0.6902916882187972
-371.82151317596436,6120.0,8332.0,12312.0,99.0,408.0,539.0,-0.40964766659729684,-0.2523384362941482,0.5788947348009208,0.6583274176576466
-371.82930755615234,6212.0,8308.0,12372.0,91.0,364.0,667.0,-0.4634426527461004,-0.24214130286742253,0.5843886830902904,0.6205468267079615
-371.83708024024963,6384.0,8180.0,12420.0,49.0,360.0,770.0,-0.5211521734582653,-0.22361396027383648,0.5870174201387606,0.5777609863291316
-371.8448612689972,6344.0,8076.0,12632.0,32.0,351.0,875.0,-0.5807831075949133,-0.19717034626941343,0.5876221438608331,0.5277452534403255
-371.85264563560486,6392.0,8048.0,12668.0,37.0,283.0,911.0,-0.6345350573209847,-0.1647067049904472,0.5884718683207596,0.4732206911758181
-371.86056184768677,6308.0,8020.0,12672.0,7.0,1.0,893.0,-0.669445461672266,-0.11885810729257697,0.5995658728625562,0.4221803977872419
-371.86833477020264,6320.0,8048.0,12828.0,249.0,188.0,905.0,-0.7076847244429862,-0.09264297914393604,0.6048728932928958,0.3531690702268135
-371.8761475086212,6308.0,8148.0,12832.0,-13.0,91.0,885.0,-0.7377517927543366,-0.04779862443412445,0.6040243385357539,0.29764438890463435
-371.88395166397095,6284.0,8252.0,13020.0,-18.0,35.0,846.0,-0.7596735061339567,-0.002994452910120058,0.6030289653433369,0.24339939253592002
-371.8917429447174,6440.0,8368.0,12900.0,-47.0,-21.0,877.0,-0.7750318627221064,0.04650633498099512,0.6017397111258351,0.18727544587140546
-371.89953899383545,6420.0,8228.0,12828.0,-64.0,-60.0,827.0,-0.7831743728995135,0.09489561102885719,0.599687370807871,0.13419307707350844
-371.90732502937317,6472.0,8552.0,12880.0,-82.0,-130.0,1023.0,-0.7845802054229858,0.15481831571296065,0.5966036242665941,0.06730011805481538
-371.91513204574585,6596.0,8548.0,13052.0,-123.0,-107.0,718.0,-0.780055056355352,0.20071432906340622,0.592193210622562,0.02313154676231781
-371.92300152778625,6896.0,8564.0,13156.0,-200.0,-83.0,667.0,-0.7722647930509026,0.24837803077559492,0.5845843309476402,-0.013289215649687151
-371.9308395385742,6676.0,8568.0,13116.0,-290.0,-10.0,647.0,-0.7633596204113552,0.3002224533804056,0.570412911768485,-0.04216252482335759
-371.93862080574036,6752.0,8420.0,13200.0,-359.0,52.0,594.0,-0.7530704051386098,0.3531290507754901,0.5516351809677241,-0.06231745759799416
-371.94640922546387,6668.0,8352.0,13212.0,-488.0,77.0,568.0,-0.7371604250468045,0.41196280483865216,0.5305377919230363,-0.07355818455966875
-371.95421719551086,6520.0,8420.0,13548.0,-555.0,92.0,544.0,-0.71640283968055,0.4722418800463961,0.5074100142200759,-0.07930734831698409
-371.9620454311371,6376.0,8016.0,13292.0,-599.0,128.0,453.0,-0.6928128438209025,0.5293748780195017,0.4837936527001263,-0.07560624025635176
-371.9698283672333,6324.0,7852.0,13560.0,-694.0,113.0,404.0,-0.6612896864195522,0.5875870859304003,0.46170772898567775,-0.06529425761763794
-371.9776120185852,6100.0,7684.0,13420.0,-753.0,38.0,320.0,-0.6208790712158592,0.6424461197226176,0.44625283088134654,-0.05128911297603681
-371.9854152202606,5928.0,7460.0,13404.0,-816.0,-78.0,206.0,-0.5696898159275672,0.692397509617952,0.44138559905709956,-0.034899215582558735
-371.99318385124207,6032.0,7256.0,13284.0,-867.0,-110.0,44.0,-0.5114971635215663,0.734678603938924,0.445547858166724,-0.01025215620199605
-372.00096106529236,5896.0,7056.0,13476.0,-935.0,-187.0,-22.0,-0.442810486869909,0.7726878409287092,0.45458153032025594,0.015099850683295009
-372.008770942688,5780.0,7052.0,13344.0,-964.0,-274.0,-156.0,-0.3653303742978385,0.800956902738767,0.472586039852527,0.04079451564890638
-372.0165603160858,5872.0,6976.0,13296.0,-990.0,-392.0,-190.0,-0.2780637365712127,0.82240645428615,0.49266530720840723,0.06007559758989885
-372.0243754386902,5680.0,7112.0,13256.0,-1012.0,-523.0,-269.0,-0.1805903687594309,0.8337885855337847,0.516683505970292,0.07226249375125932
-372.03216195106506,5760.0,6836.0,13336.0,-990.0,-662.0,-387.0,-0.07579222532296633,0.8311551849025541,0.5457968367887527,0.07444736490693056
-372.03992319107056,5968.0,6844.0,13056.0,-978.0,-734.0,-496.0,0.033146020069356436,0.8133789508152263,0.5764743338268518,0.07066375423915165
-372.04770016670227,6180.0,6832.0,13348.0,-955.0,-777.0,-602.0,0.1427669194945044,0.7795509985996053,0.6067485580426876,0.06143317176841218
-372.055481672287,6352.0,6836.0,13512.0,-894.0,-989.0,-733.0,0.2576839379074748,0.7284895169634275,0.6339321387927263,0.03212561632978353
-372.0632631778717,6404.0,7028.0,13572.0,-882.0,-679.0,-736.0,0.3510798085073964,0.6653227597340801,0.6585156048939792,0.021113776293083048
-372.07104778289795,6816.0,7236.0,13632.0,-841.0,-576.0,-750.0,0.4318405220925768,0.5938818932744319,0.6787113322402778,0.012999531076709729
-372.0788507461548,7060.0,7488.0,14020.0,-823.0,-584.0,-745.0,0.5069798741597357,0.5162944252976999,0.6902171031491711,0.0034386223786460374
-372.0866322517395,7156.0,7912.0,13772.0,-846.0,-550.0,-719.0,0.5751721438495315,0.4331752344030914,0.6939248616818968,-0.002123106007941596
-372.0944232940674,7368.0,7812.0,13784.0,-881.0,-561.0,-681.0,0.63863890577816,0.34555342804449546,0.6875438546903709,-0.004077287171434713
-372.10218119621277,7612.0,8068.0,13608.0,-928.0,-542.0,-707.0,0.6946165491151454,0.24964135560479858,0.6746633108536314,-0.004057124003745288
-372.1099741458893,7796.0,8436.0,13528.0,-1020.0,-547.0,-683.0,0.7437923284866274,0.1464015252644216,0.6521749390089635,0.002722942038801426
-372.11776304244995,7824.0,8128.0,13344.0,-1079.0,-767.0,-688.0,0.7947765290590576,0.03708828012451665,0.6056909518958381,0.009653969430036378
-372.12557721138,8080.0,8108.0,13292.0,-1209.0,-357.0,-753.0,0.811647070756203,-0.08554155032441307,0.5775023974368861,0.02006630647677219
-372.1334023475647,8168.0,7956.0,13216.0,-1245.0,-272.0,-800.0,0.8105923014547958,-0.21171315812945965,0.5452841133069389,0.027980265762374532
-372.1412069797516,8188.0,7824.0,12908.0,-1350.0,-163.0,-921.0,0.7876905992624851,-0.34705407060980215,0.5081421988522914,0.029807677739669174
-372.1489953994751,8320.0,7676.0,12936.0,-1413.0,-51.0,-998.0,0.7414202780530489,-0.4828010227683548,0.4653679048638029,0.025136762485344577
-372.15678811073303,8216.0,7524.0,12900.0,-1488.0,87.0,-1036.0,0.669181311316015,-0.6136736457143303,0.4187903881514291,0.014684683620576199
-372.164573431015,8132.0,7336.0,13096.0,-1489.0,131.0,-946.0,0.5790449627284747,-0.7267572679268407,0.36943910135572755,0.006749447663757111
-372.1723690032959,8144.0,7392.0,13236.0,-1498.0,172.0,-888.0,0.47354259784758723,-0.821666445887329,0.31720828943134444,-0.0007488943073840054
-372.18013310432434,8100.0,7100.0,13380.0,-1290.0,181.0,-709.0,0.37287563416441005,-0.8872007970911922,0.2716347612545708,-0.007284474271688057
-372.187917470932,8128.0,7168.0,13528.0,-1525.0,91.0,-605.0,0.24968297719266488,-0.9414913325378704,0.22638051123904587,0.0020846552282822715
-372.1956977844238,8076.0,7112.0,13616.0,-1546.0,-43.0,-436.0,0.1223465045442913,-0.9742611959462871,0.18748507635899614,0.026378040900824476
-372.2035095691681,8008.0,6960.0,13524.0,-1566.0,-170.0,-288.0,-0.007346745799054504,-0.9857266007106832,0.15604971555642963,0.06275014145229436
-372.21129417419434,8100.0,6956.0,13468.0,-1472.0,-242.0,-177.0,-0.12868616993337903,-0.9774958814631036,0.13178526892559622,0.1028314848903578
-372.21907472610474,7684.0,6900.0,13196.0,-1430.0,-324.0,-54.0,-0.2445584898325618,-0.9513600046320843,0.11703227738957588,0.1463172330461004
-372.2268874645233,7508.0,6900.0,12868.0,-1344.0,-366.0,77.0,-0.35090282347466545,-0.9104530253616334,0.11325114071187323,0.18739444019184742
-372.23466897010803,7404.0,6748.0,12704.0,-1045.0,-425.0,58.0,-0.4287132457693175,-0.8666720983829189,0.11325575505107388,0.22859912671376534
-372.2424237728119,7388.0,6600.0,12588.0,-1228.0,-548.0,66.0,-0.514074869655802,-0.8035379552600772,0.11349755058007122,0.27779864804773347
-372.25020718574524,7352.0,6596.0,12396.0,-1132.0,-618.0,95.0,-0.5860406098486226,-0.7320799898436948,0.11971886338387218,0.32601025417735585
-372.2579925060272,7368.0,6468.0,12248.0,-1273.0,-667.0,150.0,-0.659572080142501,-0.6412191576420027,0.12624575504611785,0.3713013227854305
-372.26577520370483,7428.0,6600.0,12248.0,-969.0,-724.0,242.0,-0.7096844262593015,-0.5559424378740242,0.1492702810346422,0.40619503209115176
-372.27358317375183,7460.0,6240.0,12216.0,-806.0,-793.0,404.0,-0.7487975723928216,-0.4698848931975443,0.18846538167759422,0.4277746867598271
-372.2814018726349,7432.0,6276.0,12212.0,-693.0,-782.0,506.0,-0.7793623337744003,-0.3848886245243846,0.23333965412703625,0.43589873275489405
-372.2891991138458,7824.0,6132.0,12148.0,-598.0,-786.0,704.0,-0.805818114581274,-0.29806137232908997,0.2861859044648415,0.42416295527028414
-372.29698181152344,7716.0,6012.0,12252.0,-484.0,-541.0,805.0,-0.8310727023947553,-0.22262286785663296,0.32584771698039117,0.39189346432446903
-372.304780960083,8052.0,5684.0,12072.0,-333.0,-785.0,867.0,-0.8402328194174418,-0.1458614909659426,0.3860748182935294,0.3516809197363816
-372.3125593662262,7972.0,5892.0,12152.0,-234.0,-766.0,943.0,-0.8415609538907104,-0.07281379311837541,0.44431745340752454,0.29842136822909393
-372.3203468322754,8116.0,5932.0,12040.0,-126.0,-809.0,978.0,-0.8314331130221846,-0.00456692156163964,0.5033520485055674,0.23523357979450607
-372.3281629085541,8104.0,5992.0,11988.0,-248.0,-834.0,1042.0,-0.8107208514882406,0.07569786277897082,0.5551451255358947,0.16975106517077862
-372.3359582424164,8056.0,5984.0,12008.0,176.0,-934.0,1078.0,-0.7766236859198712,0.12818772868842163,0.6118010453032484,0.07824984119977037
-372.34373593330383,8036.0,6032.0,11776.0,304.0,-964.0,985.0,-0.7298734019017069,0.16539818756202662,0.6630934139585323,-0.015342135198342865
-372.3515236377716,7896.0,6044.0,11900.0,431.0,-1059.0,924.0,-0.6682063669698142,0.18835781209844124,0.7107399709775005,-0.11344725389973898
-372.3593022823334,7880.0,5980.0,11688.0,602.0,-1153.0,842.0,-0.5929567782698381,0.19222809344351588,0.7512862374502023,-0.21684005306410353
-372.36709213256836,7736.0,6016.0,11476.0,783.0,-1185.0,785.0,-0.5085646325527888,0.17889102648512872,0.7768258975912913,-0.3254251680356459
-372.3748707771301,8124.0,5856.0,11496.0,998.0,-1271.0,795.0,-0.4104508384218995,0.15047581657069362,0.7828296028313824,-0.4427922207954913
-372.38266468048096,7840.0,5780.0,11496.0,1145.0,-1260.0,895.0,-0.3006891692017963,0.12016613365176115,0.7612636054280514,-0.5618041001083962
-372.3904387950897,7908.0,5664.0,11544.0,1263.0,-1219.0,1065.0,-0.17795824728710197,0.09640807689742663,0.7088049770101631,-0.6757454028678735
-372.3982183933258,8060.0,5608.0,11716.0,1305.0,-1148.0,1238.0,-0.044198766487003015,0.0835140846994686,0.6283636910328962,-0.7721599176915053
-372.4060356616974,7972.0,5568.0,11572.0,1417.0,-1129.0,1350.0,0.09647759985440224,0.07448718592278086,0.517303233522242,-0.8470779754232025
-372.41381216049194,7872.0,5704.0,11676.0,1459.0,-1084.0,1394.0,0.23434095241884562,0.06813166408986697,0.3834944192189065,-0.8907156812337635
-372.42159271240234,7644.0,6048.0,11668.0,1529.0,-1133.0,1415.0,0.3654245248339397,0.057366850701592115,0.2279922062266375,-0.9006628198112661
-372.42943501472473,7496.0,6456.0,11448.0,1558.0,-1308.0,1335.0,0.4779294265092088,0.0300184940455279,0.05561259758273234,-0.8761219049207243
-372.4372088909149,7516.0,6772.0,11368.0,1629.0,-1416.0,1224.0,0.5610943519807251,-0.004375801319360967,-0.12852553121373175,-0.817701148564909
-372.44498920440674,7704.0,7160.0,11236.0,1578.0,-1404.0,1115.0,0.6123025277715994,-0.03905207547894474,-0.30320628176692177,-0.7291272183798756
-372.45276951789856,7724.0,7268.0,11388.0,1501.0,-1402.0,996.0,0.6312010207585864,-0.07298563019130277,-0.4613917889910298,-0.6191736317306755
-372.460547208786,8084.0,7176.0,11472.0,1414.0,-1349.0,928.0,0.625068518172835,-0.10343366422410195,-0.5955236959289393,-0.49390520576475844
-372.46831583976746,8340.0,7040.0,11452.0,1319.0,-1338.0,830.0,0.5938385858681956,-0.13015267845369077,-0.7065004281036016,-0.36231638013595197
-372.47612023353577,8496.0,6824.0,11672.0,1241.0,-1286.0,697.0,0.5432175648178358,-0.14737571020916063,-0.7933528515945538,-0.23191880083450722
-372.48389649391174,8612.0,6668.0,11568.0,1088.0,-1188.0,592.0,0.4816593088331007,-0.15901588712130427,-0.8544951869873602,-0.11205459951684656
-372.4916789531708,8476.0,6416.0,11736.0,1056.0,-1188.0,587.0,0.4090995345917835,-0.16815778489018227,-0.8968281694701826,0.0077307582017881096
-372.49948954582214,8524.0,6268.0,11728.0,1008.0,-1168.0,527.0,0.32888614626995083,-0.17087840780646404,-0.9208214327520806,0.12133573884735627
-372.50728249549866,8584.0,5932.0,11736.0,980.0,-1195.0,599.0,0.2387088235388919,-0.17637239574245248,-0.9261593580349375,0.2326794342202559
-372.51507210731506,8504.0,5748.0,11576.0,773.0,-1201.0,639.0,0.1393179384073018,-0.18578386995388407,-0.9171275187270398,0.3239629301270143
-372.5228765010834,8460.0,5704.0,11528.0,1129.0,-1208.0,720.0,0.04012354438964794,-0.1931333468820117,-0.8774062816335597,0.4373189093301765
-372.5306890010834,8272.0,5640.0,11752.0,1206.0,-1148.0,877.0,-0.060100020687881325,-0.20942437224318947,-0.8097391894835095,0.5448411372486952
-372.5384740829468,8420.0,5640.0,11420.0,1298.0,-1111.0,942.0,-0.15740814903592926,-0.22668484264633493,-0.7146395137943617,0.6427495795838742
-372.5462636947632,8156.0,5712.0,11520.0,1378.0,-1089.0,769.0,-0.23790286373193104,-0.2292623637045939,-0.5987601577517314,0.7296076133825979
-372.5540838241577,8064.0,5864.0,11380.0,1391.0,-1081.0,1092.0,-0.3307493379843443,-0.24238553193659332,-0.458332095006164,0.7885339688421759
-372.5618758201599,8004.0,5912.0,11328.0,1402.0,-1144.0,1028.0,-0.4109105313716583,-0.24121822229238468,-0.3019689700247177,0.8257003364321551
-372.5696589946747,7956.0,6216.0,11180.0,1441.0,-1161.0,1002.0,-0.4754684789800681,-0.2316449058560997,-0.13295629188886968,0.8382082005888876
-372.5774507522583,7752.0,6424.0,11296.0,1352.0,-1262.0,891.0,-0.5197266832078269,-0.2023802209246396,0.03599918977804282,0.8292348758196373
-372.5852303504944,7960.0,6704.0,11456.0,1303.0,-1386.0,539.0,-0.52366672841858,-0.1569553349156204,0.19996001529136248,0.8131138743580659
-372.5930161476135,8232.0,6720.0,11732.0,1261.0,-1494.0,713.0,-0.5224215086801252,-0.09431690767938125,0.36172626489384757,0.766377320567439
-372.6007945537567,8344.0,7108.0,11784.0,1196.0,-1612.0,661.0,-0.49760743711453004,-0.019533601161308606,0.5120141311077958,0.6998905675174575
-372.608580827713,8572.0,7360.0,11964.0,1148.0,-1625.0,616.0,-0.453355349756532,0.05659466548978231,0.6430703105235078,0.6145946195732853
-372.6163456439972,8876.0,7364.0,12248.0,1044.0,-1646.0,581.0,-0.39127627388373426,0.13411748827775177,0.7494912440971736,0.5168928823802847
-372.624130487442,9156.0,7360.0,12476.0,1009.0,-1513.0,538.0,-0.32406156096964134,0.20038429578756506,0.8290215213480089,0.40933306224329585
-372.63193440437317,9232.0,7316.0,12568.0,936.0,-1505.0,434.0,-0.2440365052039289,0.2558520620557247,0.8862215065641961,0.2993281606744895
-372.6397066116333,9656.0,7252.0,12592.0,934.0,-1350.0,331.0,-0.16740235148834565,0.2937053167606213,0.9221614689489286,0.18796772278417836
-372.64748072624207,9960.0,7228.0,12828.0,821.0,-1259.0,182.0,-0.08937534269903523,0.31427865071405126,0.9411687068325697,0.0862695954661538
-372.6552574634552,9964.0,7208.0,12716.0,823.0,-1084.0,240.0,-0.02457454527679035,0.3333208187751424,0.9424062235505841,-0.01279973861584524
-372.66302967071533,10040.0,7128.0,12656.0,800.0,-897.0,-94.0,0.02565357036028381,0.32109633491535444,0.94098171034062,-0.10388675967676508
-372.6708436012268,10068.0,7180.0,12936.0,748.0,-850.0,-213.0,0.07217991690201934,0.29607335676484936,0.9335650414179416,-0.1886450117345501
-372.67861557006836,10356.0,7272.0,13084.0,669.0,-739.0,-2.0,0.11462150705916721,0.28687109221668455,0.9144969814937881,-0.26127027655024543
-372.6863923072815,10264.0,7240.0,13120.0,599.0,-597.0,-279.0,0.14047385503130297,0.25620000196733217,0.8991421371243089,-0.32584056268689715
-372.6942353248596,10584.0,7272.0,13344.0,524.0,-257.0,-291.0,0.14040536665048037,0.2320925902920516,0.886161269620528,-0.37568280073993815
-372.7020411491394,10784.0,7384.0,13428.0,419.0,-470.0,-210.0,0.1610991195604952,0.20521487860680251,0.8694546063753096,-0.4195028184982601
-372.70983624458313,10904.0,7368.0,13368.0,301.0,-469.0,-280.0,0.18076612556331959,0.17075469714664535,0.8555788378931021,-0.45403886772023455
-372.71762132644653,11208.0,7360.0,13428.0,498.0,-426.0,-355.0,0.1906707625712558,0.13491195396340275,0.8326370561852645,-0.5021543165655447
-372.72544980049133,11440.0,7668.0,13532.0,158.0,-319.0,-347.0,0.19658509941252958,0.09822244878804103,0.8236933767816378,-0.5227196861503396
-372.73323678970337,11664.0,7520.0,13720.0,157.0,-161.0,-405.0,0.18816399352866314,0.06437136741498861,0.8165467285386984,-0.5419428740275298
-372.7410125732422,11976.0,7656.0,13824.0,140.0,66.0,-459.0,0.16079277558165728,0.03701434547828861,0.8128312697788405,-0.5586420575102437
-372.748797416687,12348.0,7812.0,13964.0,155.0,398.0,-361.0,0.11428159524851596,0.03291262251358123,0.8110272896566403,-0.5727924682631023
-372.7565932273865,12792.0,7824.0,13824.0,194.0,532.0,-350.0,0.05842048121585967,0.03657053584063674,0.8062457642444074,-0.5875520495418151
-372.7643699645996,12600.0,7816.0,13924.0,249.0,1239.0,-360.0,-0.04777567072076902,0.07551482539427344,0.7956867011347833,-0.5990806874454385
-372.7721574306488,12572.0,7920.0,14072.0,323.0,1623.0,-341.0,-0.1786000751934862,0.13386088947418007,0.7659461600902822,-0.6029177018905767
-372.77993845939636,12584.0,7608.0,13840.0,375.0,2094.0,-399.0,-0.3380884852692324,0.20780366670943573,0.705692502995262,-0.586951363783024
-372.7877275943756,12316.0,7492.0,14020.0,394.0,2446.0,-435.0,-0.5062336484953545,0.28776073155800574,0.6067014678301776,-0.5411419254105072
-372.79554319381714,12224.0,7556.0,13976.0,422.0,2813.0,-401.0,-0.6642880830934438,0.3692022173188082,0.45829647871169676,-0.46084205861376487
-372.80336332321167,11644.0,7944.0,14416.0,338.0,3286.0,-330.0,-0.7876138656473406,0.4499195517941965,0.25430423923294787,-0.33550879192878713
-372.8111662864685,11336.0,8236.0,14804.0,240.0,3915.0,-188.0,-0.8414992530215198,0.5143511394919018,-0.013692231219052988,-0.16472533281754342
-372.81900429725647,10544.0,9156.0,15296.0,57.0,4267.0,116.0,-0.7846959132999979,0.5352889856770187,-0.3121217924359409,0.01726302840541342
-372.826860666275,9932.0,9680.0,15480.0,-116.0,4046.0,501.0,-0.6310881517343261,0.49310166044615317,-0.5772960759967288,0.15908405905237025
-372.8346543312073,9892.0,9732.0,15144.0,-320.0,3650.0,663.0,-0.4209601342614193,0.4057176631254808,-0.771590663348839,0.2506662949490924
-372.8424370288849,10124.0,9764.0,14844.0,-483.0,3359.0,709.0,-0.1848529060601974,0.28925617086771754,-0.8907936137981154,0.297736474676079
-372.850216627121,10196.0,9364.0,14252.0,-490.0,3223.0,517.0,0.062206062669367304,0.1664313482081054,-0.9307158116798995,0.31968592397825857
-372.85802578926086,10532.0,8868.0,13788.0,-475.0,3280.0,911.0,0.29714832892578924,-0.0016070514262892747,-0.8997445688087646,0.3196247782970749
-372.86581158638,10580.0,8508.0,13708.0,-454.0,3344.0,1012.0,0.5080924932076466,-0.1779078759751616,-0.7890141741585097,0.2960531016372047
-372.87359595298767,10440.0,8120.0,13824.0,-500.0,3778.0,1246.0,0.6875389442420706,-0.3619363910272681,-0.5804404576450354,0.24368242474474291
-372.88141345977783,10588.0,7752.0,14056.0,-480.0,3810.0,1236.0,0.7915829840051385,-0.5039519078504893,-0.30457285808447804,0.16329184953825868
-372.8891921043396,10512.0,7596.0,13756.0,-559.0,3635.0,1208.0,0.8019791471932802,-0.5933995585135468,-0.007825610214019027,0.06815549315972322
-372.8969814777374,10952.0,7328.0,13504.0,-511.0,3445.0,1117.0,0.7347860051419437,-0.6195245344914614,0.27444617848931946,-0.0309543684039936
-372.9047887325287,10944.0,6988.0,12996.0,-762.0,3473.0,1081.0,0.5834462237960845,-0.6021836275757162,0.5304565699475382,-0.12482471717305417
-372.9125621318817,10816.0,6864.0,13036.0,-439.0,3656.0,1204.0,0.3829319437643547,-0.5010688474319596,0.7433476798887688,-0.22299633042282405
-372.9203431606293,10724.0,6712.0,13128.0,-324.0,3915.0,1370.0,0.13288970948895165,-0.3259646742391606,0.8839418619581415,-0.3077891176407542
-372.92816829681396,10624.0,6632.0,13152.0,-218.0,4137.0,1360.0,-0.14583228993690667,-0.10505826272448267,0.9125970193750113,-0.36723614320068876
-372.93596148490906,10640.0,6468.0,13244.0,-90.0,4220.0,1435.0,-0.40716522114941167,0.13574249505596075,0.8153144859004772,-0.3886550486011649
-372.9437494277954,10640.0,6332.0,13040.0,128.0,4333.0,1358.0,-0.6238321062521811,0.3483910307942497,0.5956935753961031,-0.36688739022061645
-372.9515378475189,10296.0,6156.0,12868.0,354.0,4299.0,1305.0,-0.7597771280978056,0.4974239706775373,0.2889728663006631,-0.30298975487105495
-372.95931577682495,10076.0,5972.0,12932.0,652.0,4280.0,1346.0,-0.8001789390869405,0.5589980920611062,-0.06559574301068113,-0.20720037889110676
-372.9671039581299,9584.0,6140.0,12972.0,996.0,4279.0,1379.0,-0.7417699376215985,0.5184980037807538,-0.41727272398042886,-0.0825872480360995
-372.97488713264465,9080.0,5944.0,12792.0,1287.0,4182.0,1468.0,-0.5910363919569381,0.3819560797014209,-0.7084057547734265,0.054284649446581006
-372.98267555236816,8460.0,5968.0,12388.0,1601.0,4117.0,1420.0,-0.3675954469864184,0.17797019644246348,-0.8903001549654217,0.20140960901017727
-372.9904625415802,8156.0,6276.0,12312.0,1764.0,4041.0,1439.0,-0.09848503110595586,-0.05702574022173667,-0.9373901485146809,0.3291632924064383
-372.99823665618896,7648.0,6476.0,12684.0,1783.0,3946.0,1338.0,0.181200456102376,-0.2745132902680072,-0.8493559693798169,0.4127993283102518
-373.00605940818787,6864.0,6960.0,12544.0,1643.0,3901.0,1219.0,0.4348886275610287,-0.4475043085989847,-0.6526285861709185,0.4297530731896837
-373.013858795166,6280.0,7856.0,13124.0,1421.0,3912.0,905.0,0.6367914103102873,-0.554709094571931,-0.38938359044788795,0.3676614470462403
-373.0216386318207,5804.0,8292.0,13344.0,1157.0,3814.0,558.0,0.7591436875380275,-0.595960159787076,-0.1068037679206428,0.23900900563719849
-373.0294463634491,5208.0,8656.0,13300.0,880.0,3689.0,154.0,0.7937589546255148,-0.5846699135066423,0.15569406354833318,0.06218659636732505
-373.037234544754,4612.0,8684.0,13096.0,688.0,3464.0,-344.0,0.7486627297936428,-0.5352826822054012,0.36475407313327857,-0.14117731149729867
-373.0450348854065,3992.0,8632.0,12904.0,595.0,3160.0,-662.0,0.6419370086286991,-0.45994170494486286,0.5123283902538129,-0.3374761110733428
-373.0528118610382,3648.0,8380.0,12716.0,466.0,2984.0,-906.0,0.48262519476737314,-0.37253554411098233,0.6068118090795158,-0.5099702129647715
-373.0605754852295,3268.0,8008.0,12632.0,436.0,2822.0,-926.0,0.2961435208229895,-0.2684939049021076,0.6540294647766107,-0.6422269827008218
-373.0683608055115,3040.0,7592.0,12776.0,506.0,2703.0,-1017.0,0.09366464709679317,-0.15686816342543328,0.6506464624952372,-0.7370742798593629
-373.0761384963989,2880.0,7252.0,12556.0,593.0,2597.0,-761.0,-0.09203861345209029,-0.027361849409896923,0.6057385624195966,-0.7898487303455817
-373.08391761779785,2724.0,6968.0,12536.0,714.0,2668.0,-57.0,-0.22881098759939875,0.1436906008159973,0.5199070150102824,-0.8103673481415841
-373.0916905403137,2532.0,6908.0,12788.0,841.0,2732.0,439.0,-0.32222294125909445,0.32965974780302343,0.38802911136989415,-0.7980790910268702
-373.0995020866394,2384.0,6684.0,12820.0,827.0,2723.0,967.0,-0.35878177296579294,0.5114314647765179,0.21848233583864576,-0.7496525629587061
-373.10728120803833,2548.0,6916.0,12940.0,877.0,2630.0,1397.0,-0.3442869042327933,0.6588316848310427,0.01571240446267045,-0.6687005749829219
-373.1150586605072,2784.0,6956.0,13076.0,794.0,2513.0,1678.0,-0.2850542291260807,0.7562490376596259,-0.19556144222435026,-0.5555062572207065
-373.1228656768799,2812.0,7240.0,13276.0,716.0,2352.0,1998.0,-0.1882178371442107,0.7887147892268378,-0.40550626825358793,-0.421980678992142
-373.130656003952,2500.0,7520.0,13388.0,671.0,2130.0,2231.0,-0.07405772120378276,0.7492193509664663,-0.5965995635186766,-0.27794743905424696
-373.1384401321411,2504.0,7760.0,13332.0,516.0,1971.0,2057.0,0.04342221997159055,0.6656298053447739,-0.7333403860864254,-0.1313900726235813
-373.14621090888977,2536.0,7888.0,13568.0,404.0,1724.0,2336.0,0.1522473431136577,0.5206095299821485,-0.8401042977006512,0.003351535691914375
-373.153995513916,2612.0,7876.0,13664.0,325.0,1579.0,2226.0,0.24570930201658714,0.3512503097150103,-0.89478300079659,0.12495415284447418
-373.16179370880127,3056.0,8172.0,13676.0,339.0,1421.0,1966.0,0.31774985868056227,0.1852772175573326,-0.9005133574754338,0.23191177842235006
-373.1695730686188,2908.0,7804.0,13744.0,424.0,1333.0,1772.0,0.37270920801213553,0.030190110558487655,-0.8669117096120668,0.3296065703606602
-373.17739820480347,3024.0,7660.0,13896.0,520.0,1251.0,1486.0,0.4169540544165009,-0.09979033000997531,-0.8028498689925402,0.4142744191967479
-373.18516206741333,3028.0,7612.0,14068.0,735.0,1073.0,1282.0,0.4466322736637662,-0.19913772977022914,-0.7169439957290779,0.4968451304902945
-373.1929566860199,3260.0,7540.0,14068.0,980.0,907.0,1098.0,0.46759304969721416,-0.26592096123847164,-0.6129861692324561,0.5786974499499584
-373.2007761001587,3072.0,7628.0,14016.0,1176.0,758.0,1263.0,0.4654648076556824,-0.3194256134213432,-0.48669694913531514,0.6666602358224417
-373.20856976509094,3412.0,7660.0,13860.0,1348.0,602.0,924.0,0.46952525269604045,-0.3349911752894813,-0.35386352706317614,0.7362795350770658
-373.21635246276855,3504.0,7816.0,13716.0,1476.0,461.0,908.0,0.4629830426233269,-0.3280374599823203,-0.21087381685862858,0.7959713314278773
-373.2241401672363,3620.0,7944.0,13392.0,1593.0,363.0,934.0,0.4444611955968659,-0.3018388777170633,-0.05788308498843759,0.8414256271229974
-373.23194432258606,3708.0,8064.0,13484.0,1594.0,440.0,1046.0,0.40598733039090384,-0.27340313912980824,0.10243894731462512,0.8659857234095174
-373.2397372722626,3712.0,8148.0,13720.0,1588.0,491.0,1156.0,0.34672346007516974,-0.23991849371572452,0.2634304297202366,0.8676556732391552
-373.24751806259155,3596.0,8232.0,13636.0,1584.0,516.0,1039.0,0.2851458506577224,-0.20393015108687146,0.4147006967798119,0.8397188037794011
-373.2553062438965,3612.0,7972.0,13552.0,1281.0,356.0,1491.0,0.18297257954435053,-0.14182090047676743,0.5358175702132703,0.8119774619862256
-373.2630889415741,3684.0,8340.0,13724.0,1623.0,408.0,1483.0,0.07736821773113897,-0.07391961110625882,0.6630929711686484,0.7408493514647497
-373.270875453949,4080.0,8364.0,14072.0,1569.0,534.0,1445.0,-0.036240562977353195,-0.013893437459226256,0.7634414385680791,0.644709829200512
-373.27864718437195,4140.0,8256.0,13956.0,1675.0,621.0,1493.0,-0.15645794383532322,0.044474918597075405,0.8402881444267128,0.5171641207223467
-373.28642678260803,3928.0,8076.0,13836.0,1699.0,633.0,1773.0,-0.28272699550713615,0.11984617852366748,0.8800920730355801,0.3621329624388203
-373.29422640800476,3864.0,8180.0,13680.0,1550.0,709.0,1590.0,-0.39562201637945416,0.17767535027020645,0.8769437692097652,0.20708528606925258
-373.302050113678,3864.0,8180.0,13692.0,1906.0,808.0,1618.0,-0.5032842959762769,0.21548131046130975,0.8366408188153203,0.017460313787856632
-373.309832572937,3960.0,8020.0,14040.0,1980.0,971.0,1499.0,-0.5978259020810381,0.23029195598131585,0.7487485754720926,-0.17013340806497948
-373.3176028728485,4108.0,8100.0,13756.0,2001.0,1063.0,1457.0,-0.6677668230483255,0.23053300684081732,0.6173731823485932,-0.34611032418818216
-373.32540917396545,3932.0,8116.0,13760.0,2078.0,1109.0,1420.0,-0.7064655834890562,0.21327919629421185,0.44854289181273,-0.5042099145969227
-373.33320331573486,3852.0,8160.0,13844.0,2094.0,1100.0,1329.0,-0.7104572497086462,0.17948180765535848,0.2565896694918095,-0.6302368749662901
-373.34097695350647,3908.0,8020.0,13760.0,2149.0,953.0,1344.0,-0.673044947283361,0.12507448274016492,0.05652573167953509,-0.7267542324346734
-373.34878158569336,4072.0,8184.0,13612.0,2153.0,824.0,1226.0,-0.6072873192387205,0.055210665543044976,-0.1383798810477535,-0.7803876618856502
-373.35656690597534,3796.0,8240.0,13088.0,2128.0,680.0,1144.0,-0.5190678893595797,-0.024807958419282104,-0.3173411271308355,-0.7932513475980922
-373.36434030532837,3840.0,8224.0,13292.0,2121.0,751.0,1105.0,-0.4074896452500831,-0.09745334639905151,-0.4842045640535605,-0.7681152090925483
-373.37212896347046,3700.0,8232.0,13188.0,2063.0,349.0,780.0,-0.31692109407810015,-0.17716196314122032,-0.6165145631011433,-0.698630411897804
-373.3799114227295,3468.0,8352.0,13012.0,2059.0,197.0,778.0,-0.22293515644212583,-0.2592210944624938,-0.7220529026942936,-0.6014515324766715
-373.38770484924316,3352.0,8376.0,12940.0,2011.0,-34.0,1047.0,-0.12225046844898232,-0.35916182198375085,-0.7879094118773755,-0.48503233631209075
-373.39549255371094,3256.0,8604.0,12844.0,1805.0,-182.0,942.0,-0.03771484947058451,-0.4438953464594584,-0.819858873050836,-0.3596747694805148
-373.40327978134155,3548.0,8944.0,13092.0,1969.0,-426.0,517.0,0.023924265812870542,-0.49268946783719153,-0.8463886062436867,-0.2007761066673257
-373.41105914115906,4080.0,9072.0,12852.0,1913.0,-739.0,465.0,0.058765205599541764,-0.5271912844780667,-0.8473033627259846,-0.0263251152789147
-373.41885566711426,3816.0,9200.0,12652.0,1865.0,-1134.0,425.0,0.06056392656844079,-0.541558586475115,-0.8225042678787616,0.162889648335646
-373.42663764953613,3680.0,9276.0,12560.0,1750.0,-1524.0,361.0,0.028151423885225176,-0.5256280893061679,-0.772552265108431,0.3550853513472701
-373.4344460964203,3920.0,9344.0,12480.0,1587.0,-1958.0,284.0,-0.038943493424578174,-0.46883468816231394,-0.6982266332113424,0.5395896664781389
-373.44222235679626,4192.0,9436.0,12260.0,1325.0,-2226.0,136.0,-0.12368376432426872,-0.367462127966973,-0.6072732888789254,0.6934645366323614
-373.45005774497986,4408.0,9196.0,12280.0,1068.0,-2499.0,-35.0,-0.21386858832203212,-0.2197332251618137,-0.5027286980377833,0.8082335014451976
-373.4578471183777,4504.0,9152.0,12404.0,991.0,-2719.0,-127.0,-0.2959321543412993,-0.039546949915985556,-0.37261222205220473,0.8786468748914882
-373.4656398296356,4812.0,9112.0,12368.0,443.0,-2827.0,-308.0,-0.3518091540441241,0.1705666397056283,-0.2584182783455244,0.883378363990891
-373.4734218120575,4660.0,9144.0,12528.0,148.0,-2988.0,-257.0,-0.38846233364089455,0.38902082549028905,-0.14623031848193377,0.822421124870827
-373.48120522499084,4884.0,9120.0,12456.0,-150.0,-3176.0,-686.0,-0.36039425887344323,0.6067648707738397,-0.02483109639715256,0.7080506948076405
-373.4889898300171,4792.0,9068.0,12600.0,-445.0,-3368.0,-915.0,-0.274882534509875,0.7942034788757716,0.09768534710480513,0.5330459636129545
-373.49677538871765,4840.0,9160.0,12312.0,-723.0,-3557.0,-1180.0,-0.13234705919147102,0.917377490933016,0.21939521948264593,0.3045792716534972
-373.5045528411865,4776.0,9160.0,12436.0,-956.0,-3832.0,-1456.0,0.052887102956917294,0.9409022353411317,0.3330933946111041,0.030898678569439238
-373.51232862472534,4692.0,9156.0,12352.0,-1264.0,-4059.0,-1708.0,0.259409839370937,0.8322566995859428,0.4189661596269706,-0.25401314595761826
-373.52013516426086,4560.0,9396.0,12408.0,-1482.0,-4281.0,-1969.0,0.4408225420116554,0.5801122973713669,0.4572065727892735,-0.510007214352095
-373.52792263031006,4532.0,9352.0,12120.0,-1664.0,-4536.0,-2240.0,0.5499575483434027,0.2037703637711407,0.4262653619570635,-0.6887105161563198
-373.53573179244995,4680.0,9432.0,11988.0,-1868.0,-4657.0,-2533.0,0.5424857669925287,-0.2335223199419736,0.3230752406429394,-0.7394585232336925
-373.5434980392456,4780.0,9432.0,11828.0,-2081.0,-4771.0,-2735.0,0.40756858083060055,-0.637952599696586,0.1561601544238042,-0.6344433297233343
-373.55128622055054,4816.0,9324.0,11980.0,-2286.0,-4813.0,-3005.0,0.15829141215242817,-0.9057034698714463,-0.04932136378511816,-0.390144148457962
-373.559063911438,4756.0,9172.0,11952.0,-2501.0,-4840.0,-2824.0,-0.13795215238718114,-0.9634067507150772,-0.22418810993753893,-0.050560139349047496
-373.5668385028839,4940.0,8872.0,12356.0,-2692.0,-4770.0,-3265.0,-0.4125642681860735,-0.7760117877236721,-0.375229737542734,0.2946168257136907
-373.5745975971222,5320.0,8480.0,12412.0,-2566.0,-4748.0,-3094.0,-0.582120721595822,-0.40434357796160886,-0.4216039423704051,0.5655898268424707
-373.5823791027069,5848.0,8028.0,12664.0,-2964.0,-4692.0,-3443.0,-0.5990077372520535,0.09092058176520389,-0.39170917723388726,0.6924500696760764
-373.59020042419434,6144.0,7532.0,13320.0,-2940.0,-4516.0,-3443.0,-0.4558299211406697,0.5547259243265706,-0.2669769172559069,0.6428231152700216
-373.598028421402,6400.0,7332.0,13928.0,-3056.0,-4364.0,-3368.0,-0.19325660226226415,0.8758292069327516,-0.08902608471318077,0.4331852285180486
-373.6058120727539,6844.0,6728.0,14404.0,-2512.0,-4274.0,-3272.0,0.07930226417788908,0.9811761274037308,0.1227598675035853,0.12623221791515896
-373.6136088371277,7212.0,6328.0,14980.0,-2280.0,-4194.0,-3152.0,0.3169823667524702,0.8748190825407144,0.3029097476856942,-0.20605687745769227
-373.62141728401184,7808.0,6140.0,15308.0,-1411.0,-4057.0,-3062.0,0.4332688010204457,0.6193138266202206,0.4085999736758066,-0.5116391225575455
-373.62921595573425,8348.0,6076.0,15496.0,-708.0,-3943.0,-2821.0,0.4470800785846547,0.290325461995129,0.40779288360581506,-0.741306612361247
-373.6370105743408,8460.0,6080.0,15796.0,95.0,-3725.0,-2604.0,0.3799849328166429,-0.036972826441806265,0.2993959741549004,-0.87441781294589
-373.6448094844818,8992.0,6380.0,15896.0,692.0,-3461.0,-2235.0,0.2837875657315631,-0.31625576660546345,0.11679767253463344,-0.8976665368138866
-373.6525933742523,9052.0,6808.0,15436.0,1039.0,-3008.0,-1844.0,0.18908403907027702,-0.51881828983591,-0.0859575628256075,-0.8292684159508871
-373.66038513183594,8880.0,7296.0,14744.0,1212.0,-2459.0,-1548.0,0.10935992178282072,-0.6412459530434116,-0.2743115296952949,-0.7082352856850112
-373.66816544532776,8404.0,7580.0,14288.0,1241.0,-1990.0,-1211.0,0.0548457082387325,-0.704846302496935,-0.4266421208082483,-0.5640568578578146
-373.6759555339813,7968.0,7968.0,13348.0,1097.0,-1564.0,-954.0,0.016815953563915843,-0.7284595690247685,-0.5375665359518689,-0.4243655257283428
-373.6837406158447,7444.0,8268.0,12812.0,883.0,-1198.0,-731.0,-0.010238025276073367,-0.7295998088719854,-0.6121247673319655,-0.3047664203143051
-373.6915285587311,7132.0,8600.0,12408.0,643.0,-907.0,-663.0,-0.03517985770735208,-0.7143108376207068,-0.6663935520111399,-0.21081280489398915
-373.6993110179901,6528.0,8632.0,12380.0,364.0,-1022.0,-708.0,-0.08444169904977131,-0.6886511782171663,-0.7095698052652706,-0.12304408014001589
-373.70709204673767,6276.0,8748.0,12404.0,75.0,-663.0,-812.0,-0.1291999791652229,-0.643324301159667,-0.7511387002147588,-0.0723316110757582
-373.71486949920654,5892.0,8844.0,12548.0,-84.0,-670.0,-957.0,-0.18296319424903557,-0.5808301192190803,-0.7926538650749109,-0.029337558520498064
-373.7226493358612,6388.0,8932.0,12548.0,-285.0,-663.0,-1144.0,-0.24454650052732985,-0.49538260009967994,-0.8335379750739024,0.002744577930352546
-373.73042917251587,6112.0,8888.0,12784.0,-388.0,-714.0,-1299.0,-0.3102351557105675,-0.3889548301696541,-0.8668301852570047,0.03276763916186872
-373.73824095726013,6176.0,8908.0,12772.0,-433.0,-789.0,-1381.0,-0.3768434295219091,-0.2677280335497687,-0.884466239251259,0.06348386647388693
-373.7460563182831,6228.0,8932.0,12900.0,-473.0,-796.0,-1498.0,-0.43597271184673747,-0.1305808634004363,-0.885492534531631,0.09369847345259288
-373.75383973121643,6288.0,8416.0,13256.0,-452.0,-846.0,-1573.0,-0.4874337274787826,0.014921833850668448,-0.8638034611086527,0.12660679589731808
-373.7616264820099,6308.0,8096.0,13300.0,-469.0,-799.0,-1631.0,-0.5221400884845918,0.16448510794936258,-0.8218965045707508,0.15748178635820392
-373.7694082260132,6332.0,7808.0,13176.0,-490.0,-772.0,-1602.0,-0.5415436008558162,0.3083800801668258,-0.7606189188972066,0.1819096334559087
-373.7771806716919,6152.0,7592.0,13272.0,-470.0,-801.0,-1484.0,-0.5521496631069709,0.4367631808146287,-0.6823154474813339,0.1970134603114563
-373.78495621681213,6444.0,7392.0,13320.0,-412.0,-722.0,-1333.0,-0.5514066378432451,0.543331309951286,-0.5981457391574919,0.20727634234703643
-373.79277896881104,6604.0,7248.0,13312.0,-364.0,-679.0,-1066.0,-0.5467600206652662,0.6246763119632159,-0.5180486439774914,0.2060548168503592
-373.8006160259247,6708.0,7076.0,13516.0,-274.0,-602.0,-799.0,-0.5424939962071967,0.6819053383645594,-0.4488005806006844,0.19820043501857068
-373.8084177970886,6732.0,6972.0,13388.0,-168.0,-480.0,-567.0,-0.5403369022668217,0.718771028247954,-0.3943163752985616,0.18952265609018365
-373.81622290611267,6988.0,6752.0,13488.0,-56.0,-349.0,-399.0,-0.5416898540315521,0.7400962780351725,-0.35332536040231377,0.1843659159778065
-373.8240270614624,7040.0,6908.0,13524.0,110.0,-144.0,-269.0,-0.5487291677000472,0.7451849535498289,-0.3271971385149597,0.19114841894657458
-373.83183884620667,6984.0,6904.0,13432.0,187.0,-4.0,-21.0,-0.5606232932576085,0.7367665700192022,-0.32243555303475774,0.19726088942895756
-373.83966064453125,6976.0,6992.0,13416.0,222.0,175.0,119.0,-0.5718631131415001,0.7192511795109389,-0.33466859902841267,0.20891924139388118
-373.8474771976471,6872.0,7116.0,13236.0,298.0,293.0,252.0,-0.5861221126827024,0.6910107907934586,-0.3593122848149457,0.22329271822526564
-373.8552520275116,6756.0,7220.0,13168.0,310.0,442.0,358.0,-0.5970289853622817,0.654226623502575,-0.3967982054619273,0.24102925108770257
-373.86302757263184,6496.0,7264.0,13256.0,312.0,554.0,461.0,-0.6039893915199464,0.6088776191554259,-0.44434102125882136,0.2588936396469655
-373.87083411216736,6568.0,7444.0,13324.0,319.0,703.0,470.0,-0.6024773538675731,0.5561782086375382,-0.4975788856265249,0.28302312783963723
-373.8786153793335,6364.0,7624.0,13480.0,325.0,695.0,505.0,-0.5986765288501297,0.4983479775941637,-0.5488034441060604,0.3033982313216292
-373.88638710975647,6408.0,7576.0,13492.0,281.0,569.0,488.0,-0.5951681077539618,0.4441014127885912,-0.5908292344225574,0.31538813297808244
-373.8941881656647,6384.0,7564.0,13332.0,336.0,472.0,435.0,-0.5946920034726506,0.3904069674255081,-0.6216651494294861,0.32780522078837887
-373.9019627571106,6480.0,7528.0,13376.0,378.0,365.0,488.0,-0.6006102500933478,0.33317876290011134,-0.645104924542888,0.3348117019545053
-373.9097378253937,6496.0,7392.0,13156.0,427.0,290.0,493.0,-0.6099815547835112,0.27399667131470407,-0.6608233146584629,0.3408238162689846
-373.9175534248352,6568.0,7476.0,13188.0,462.0,314.0,548.0,-0.617843404853899,0.2079331351900621,-0.6752642174083868,0.3450385124249341
-373.92534136772156,6612.0,7488.0,13136.0,543.0,358.0,572.0,-0.6221139239203726,0.13374112393151888,-0.6865696572748711,0.35172387343397205
-373.93314838409424,6636.0,7536.0,13164.0,550.0,454.0,528.0,-0.6157607727612072,0.05809182240363005,-0.6983364693663212,0.3602640510116532
-373.94093227386475,6844.0,7728.0,13092.0,541.0,618.0,490.0,-0.5942442813452,-0.02024330527242348,-0.714467376461498,0.36878219947876884
-373.9487569332123,6964.0,7768.0,13100.0,494.0,808.0,391.0,-0.5534273582473672,-0.09589950086952277,-0.7367782992095585,0.3764029525524301
-373.95654225349426,6796.0,7848.0,13280.0,382.0,928.0,384.0,-0.5010317434284987,-0.16881500388416054,-0.7624388751677394,0.3730357197019372
-373.9643335342407,6692.0,7832.0,13348.0,288.0,769.0,374.0,-0.4564343568453148,-0.23063990129514772,-0.7787227306996897,0.3634058647206823
-373.97214818000793,6684.0,7788.0,13532.0,249.0,1024.0,333.0,-0.39062045325760253,-0.2943238699245113,-0.8011616149227603,0.3448611138760634
-373.97992157936096,6628.0,7720.0,13520.0,216.0,1071.0,286.0,-0.31728917324153433,-0.3522328005285323,-0.8198302240410877,0.3211511147797416
-373.9877007007599,6408.0,7684.0,13572.0,275.0,1066.0,268.0,-0.23892974130218,-0.4069358866721208,-0.8293426339749066,0.2991764668740046
-373.9954903125763,6572.0,7540.0,13592.0,309.0,1066.0,212.0,-0.15558558828853947,-0.4543700894771963,-0.8319299901159486,0.27790904636422253
-374.0032615661621,6628.0,7552.0,13560.0,383.0,1067.0,122.0,-0.06555495891288518,-0.4918914474382787,-0.8281964737804134,0.26045335881246395
-374.01105070114136,6608.0,7472.0,13316.0,257.0,1098.0,80.0,0.022932173783656487,-0.5215785352992787,-0.8212135650490189,0.2303002985236802
-374.0188624858856,6612.0,7452.0,13640.0,633.0,1259.0,94.0,0.13907759356457186,-0.5482086757635722,-0.7956662704788554,0.2168867372803304
-374.02665305137634,6432.0,7548.0,13684.0,647.0,1313.0,73.0,0.2577816946305416,-0.5656636617413108,-0.7578077486352357,0.19824387962107057
-374.0344750881195,6352.0,7580.0,13688.0,677.0,1402.0,61.0,0.37944966633954996,-0.5734276910948026,-0.7050379338430232,0.17355156479516062
-374.0422568321228,6308.0,7516.0,13608.0,677.0,1454.0,166.0,0.4954825257913381,-0.5775202399731085,-0.6320731378836695,0.1464615561255941
-374.0500683784485,6312.0,7492.0,13572.0,681.0,1468.0,240.0,0.601707379157649,-0.574196765055358,-0.5422600283231305,0.11916529087864879
-374.0578467845917,6444.0,7348.0,13812.0,643.0,1503.0,262.0,0.6952108730925475,-0.5625369167716194,-0.43891993809698426,0.08708241581351303
-374.06562066078186,6424.0,7224.0,13524.0,691.0,1540.0,275.0,0.7775218158231315,-0.5367894138888735,-0.3231149482222702,0.053978526204962206
-374.0734214782715,6208.0,7044.0,13368.0,765.0,1602.0,388.0,0.8462276187648572,-0.49700573557062055,-0.19022335455146613,0.026442228208925313
-374.08119440078735,6644.0,6916.0,13596.0,807.0,1660.0,458.0,0.8955734430790535,-0.44260041949602247,-0.04528326731085866,0.0015819023761420375
-374.08895897865295,6868.0,6916.0,13616.0,967.0,1824.0,564.0,0.9241616584781066,-0.3630157032295871,0.11712328320856662,-0.020663125082372717
-374.09676480293274,6824.0,6964.0,13608.0,1084.0,1961.0,836.0,0.9202249670137304,-0.25774800982670004,0.29339468211849423,-0.025913973441793726
-374.10454082489014,6836.0,7024.0,13476.0,1245.0,2110.0,1114.0,0.8730552745962005,-0.12100361003532792,0.4721190331140712,-0.015369854573349242
-374.1123204231262,6880.0,7132.0,13488.0,1427.0,2408.0,1415.0,0.7628284233528372,0.04763126255825678,0.64479510317985,0.007958282944053407
-374.12012553215027,6896.0,7204.0,13524.0,1297.0,2539.0,1567.0,0.5901969963763823,0.2120968892250683,0.777417321665731,0.04800753090325762
-374.1279013156891,6916.0,7364.0,13348.0,1665.0,2755.0,1691.0,0.34826386547934995,0.3823233705312957,0.853037354819595,0.06977386064536864
-374.13572096824646,6812.0,7552.0,13464.0,1719.0,2959.0,1798.0,0.05650121431148918,0.5215693297873761,0.8465388178936724,0.09025007925568802
-374.1435196399689,6704.0,7708.0,13524.0,1809.0,3140.0,1960.0,-0.25721676083717687,0.6122041017952359,0.7405901041574573,0.1028201016998408
-374.1512861251831,6448.0,7872.0,13868.0,1844.0,3303.0,2069.0,-0.5502163537958569,0.6316243457287767,0.535706529866902,0.10644793918272541
-374.1590807437897,6296.0,7868.0,13724.0,1817.0,3358.0,2138.0,-0.772880230834575,0.5726937895804959,0.25541572701438264,0.09716366890324457
-374.1668612957001,6632.0,7960.0,13620.0,1850.0,3409.0,2191.0,-0.8947505978960267,0.43588253162995405,-0.06373724420781439,0.07324854869113952
-374.1746551990509,6440.0,8048.0,13656.0,1823.0,3556.0,2061.0,-0.8913975012124296,0.24121433343526288,-0.37991443935226127,0.05376949831712743
-374.18243432044983,6456.0,8052.0,14020.0,1844.0,3694.0,2395.0,-0.7560777636772673,0.000783132501798046,-0.6544551779626542,0.005849958473160413
-374.19022965431213,6492.0,8008.0,13576.0,1835.0,3814.0,2419.0,-0.4965552752866636,-0.239725368855424,-0.833037651536932,-0.04486510040053322
-374.1980185508728,6620.0,7968.0,13356.0,1856.0,4030.0,2430.0,-0.1419664127903017,-0.4401247798771416,-0.8819467393114664,-0.09113542009242974
-374.2058174610138,6712.0,7856.0,13612.0,1893.0,4132.0,2531.0,0.24493859554920783,-0.5695936069202279,-0.7748087376464855,-0.12344888591091535
-374.2135999202728,6596.0,7784.0,13688.0,1995.0,4732.0,2603.0,0.618540825031161,-0.5825340611577406,-0.5054415795843866,-0.15030011639410107
-374.22141790390015,6660.0,7768.0,13700.0,2053.0,4868.0,2560.0,0.8644466186484149,-0.4633596096743437,-0.1240100170348487,-0.15050392454942274
-374.2291889190674,7020.0,7928.0,13628.0,2107.0,5608.0,2452.0,0.9077615579864513,-0.22379989543019008,0.32262379347467307,-0.1476362033224169
-374.23699927330017,6920.0,7636.0,13856.0,2215.0,6125.0,2395.0,0.6924110411894816,0.08400673394041729,0.7065333199835458,-0.11966823490212594
-374.2447872161865,6752.0,7760.0,14312.0,2553.0,6528.0,2291.0,0.248131712936204,0.37657634330932793,0.8892678757114557,-0.07631222656138217
-374.25256156921387,6508.0,7864.0,14440.0,2493.0,6745.0,2259.0,-0.28599865518728745,0.5437394666902602,0.7890194214892152,0.0007170127465262961
-374.26034688949585,6316.0,8100.0,14192.0,2615.0,6697.0,2136.0,-0.7291721754125158,0.5230002802544723,0.43554216215138575,0.07128583622584841
-374.26812529563904,6348.0,8256.0,13968.0,2727.0,6593.0,2107.0,-0.9372041277595159,0.32571720731358683,-0.053115812690189154,0.11285138108425435
-374.2758951187134,5784.0,8364.0,13668.0,2878.0,6366.0,2174.0,-0.8520631098153624,0.014568322747677382,-0.5117487555189866,0.10903867244634782
-374.2836811542511,5356.0,8396.0,13208.0,3016.0,6123.0,2181.0,-0.5114587828876955,-0.30992126864246455,-0.7978884499903618,0.07571487318922525
-374.29148268699646,4876.0,8384.0,12964.0,3028.0,5834.0,2189.0,-0.03228683670799471,-0.5443648683795032,-0.8378070008404138,0.026530729208756366
-374.29925775527954,4888.0,8556.0,12804.0,3039.0,5512.0,2189.0,0.44098676888771154,-0.6273613813833318,-0.6416138312134225,-0.016734945784422063
-374.3070390224457,5088.0,8656.0,12512.0,2973.0,5224.0,2127.0,0.7859913452369983,-0.5455532473559906,-0.28691845547437944,-0.047613647413987506
-374.3148527145386,4776.0,8856.0,12332.0,2834.0,5000.0,2133.0,0.9302734507519336,-0.3382258298471012,0.12865137973326204,-0.06036072682678364
-374.3226218223572,4580.0,8980.0,12164.0,2684.0,4615.0,2069.0,0.8664819489049465,-0.06488183102448573,0.4921755582082449,-0.052560442608471904
-374.3304033279419,4484.0,9160.0,12284.0,2536.0,4257.0,2018.0,0.6408790015376664,0.2113576503819942,0.7373676979316613,-0.0298484012980383
-374.33823800086975,4544.0,9292.0,11956.0,2394.0,3852.0,1800.0,0.3252674000570698,0.43354195933593037,0.8403084808816822,-0.011142033638266106
-374.3460419178009,4556.0,9252.0,11828.0,2194.0,3433.0,1649.0,-0.007414400358674844,0.5790026287259753,0.8152800170903899,0.004413199386511253
-374.353830575943,4548.0,9572.0,11704.0,2302.0,3011.0,1408.0,-0.3192878540553075,0.6379884801930596,0.700691015184887,-0.007620146512959089
-374.361613035202,4436.0,9768.0,11700.0,1882.0,2638.0,1188.0,-0.5598349846811069,0.6318732266399905,0.5359560450670848,-0.008493123025187985
-374.3694040775299,4484.0,9976.0,11564.0,1683.0,2327.0,869.0,-0.7361097196768304,0.5726288935578039,0.36088374753710684,-0.0012456418575023452
-374.37718176841736,4444.0,10128.0,11948.0,1438.0,2082.0,632.0,-0.8517768575078317,0.487768725410131,0.19048361380051307,0.016548365458749856
-374.3849651813507,4844.0,10308.0,11868.0,1085.0,1876.0,473.0,-0.9129648629661334,0.40456814509926925,0.03186405251553352,0.042478902027394634
-374.39279079437256,4508.0,10416.0,11924.0,724.0,1704.0,-92.0,-0.930899884239876,0.3357246667175711,-0.0966771394264749,0.10662028133462735
-374.40058183670044,4464.0,10612.0,11860.0,306.0,1465.0,-460.0,-0.914805404172104,0.2981269180376045,-0.1974516153909464,0.18778783991094433
-374.40836548805237,4480.0,10660.0,11988.0,-116.0,1268.0,-842.0,-0.8685519232036019,0.2982953300251094,-0.2761263355803203,0.28353430054143364
-374.4161581993103,4440.0,10728.0,12080.0,-561.0,1099.0,-1159.0,-0.7902929546113315,0.3377475552020174,-0.3393393427924379,0.3823773597899708
-374.4239377975464,4116.0,10552.0,12100.0,-939.0,921.0,-1491.0,-0.6755591268478315,0.40971481632570944,-0.38439666877805423,0.4774859541893568
-374.4317264556885,4184.0,10320.0,12136.0,-1226.0,811.0,-1761.0,-0.5208310858616118,0.4973552462182981,-0.41206121543491986,0.5581919865007442
-374.4395217895508,4148.0,9900.0,12424.0,-1417.0,659.0,-2022.0,-0.3290295638311359,0.5879030069396765,-0.4130417371531992,0.6127855448081708
-374.4473180770874,4232.0,9404.0,12412.0,-1503.0,457.0,-2229.0,-0.11301846406372887,0.6682872620813575,-0.3814345693540242,0.6285909889762888
-374.4550976753235,4132.0,9100.0,13040.0,-1492.0,447.0,-2367.0,0.11535286100726308,0.7156857749238295,-0.31991031339748505,0.6100368680752335
-374.46289324760437,4384.0,8688.0,12972.0,-1438.0,385.0,-2490.0,0.3379448636375796,0.7272236014145941,-0.22971635217930272,0.5515156391508766
-374.470666885376,4356.0,8412.0,13312.0,-1370.0,324.0,-2415.0,0.5321527963278524,0.699035583344001,-0.12894927585607496,0.4599290584813635
-374.47844982147217,4568.0,8440.0,13364.0,-1212.0,280.0,-2352.0,0.6855396678521418,0.6407834245898646,-0.020482925010427415,0.3449817623513993
-374.48622369766235,4448.0,8072.0,13364.0,-1095.0,193.0,-2252.0,0.7961392053154195,0.560010742488258,0.08210758006817846,0.21402962260591393
-374.49404740333557,4368.0,8104.0,13316.0,-986.0,4.0,-2101.0,0.8660652650480255,0.46671344557454864,0.16326208565042166,0.07385802452205466
-374.5018301010132,4220.0,8128.0,13556.0,-967.0,239.0,-1936.0,0.8985523155547648,0.35795930504769174,0.2493220116831629,-0.04803547263434412
-374.509605884552,4004.0,8240.0,13288.0,-870.0,134.0,-1840.0,0.9010407330845125,0.24634035205722007,0.31576905625856155,-0.16652907067664355
-374.51741886138916,3868.0,8556.0,13216.0,-816.0,93.0,-1753.0,0.8782063476779557,0.1333469978025151,0.3671922719903352,-0.2759384432546091
-374.52520084381104,3736.0,8828.0,13132.0,-861.0,0.0,-1685.0,0.8364291043953225,0.013237190881640055,0.40187664508321574,-0.37243293655994036
-374.5329740047455,3624.0,9144.0,13316.0,-912.0,-194.0,-1693.0,0.7783666618920568,-0.11729327148180012,0.41328171517289,-0.4578054739994567
-374.54081106185913,3672.0,9364.0,13116.0,-1093.0,-373.0,-1539.0,0.7093016198861154,-0.258267264538638,0.4099505354335091,-0.5119861234373849
-374.54859709739685,3768.0,9588.0,13192.0,-1219.0,-475.0,-1776.0,0.6083584495532184,-0.4108903476964704,0.3877219200102217,-0.5574413258547173
-374.5563802719116,3616.0,9660.0,13440.0,-1337.0,-542.0,-1722.0,0.4857640286738256,-0.5558883015349265,0.35535846707760127,-0.5733601525563552
-374.56414580345154,3712.0,9688.0,13412.0,-1484.0,-637.0,-1719.0,0.3403657022838101,-0.6895081212556108,0.3125681615916553,-0.5577014288941883
-374.57193517684937,3740.0,9688.0,13276.0,-1285.0,-695.0,-1694.0,0.1958120637299542,-0.7927350685972763,0.24777252924887852,-0.5213803990020164
-374.5797441005707,3820.0,9516.0,13352.0,-1618.0,-691.0,-1627.0,0.024186326689033453,-0.86820804894898,0.19278857585163514,-0.4565767956900518
-374.5875232219696,3692.0,9116.0,13280.0,-1688.0,-697.0,-1558.0,-0.1508893595269631,-0.9060600855286213,0.1374906760086731,-0.37065325656749426
-374.59530997276306,3768.0,8932.0,13164.0,-1676.0,-734.0,-1548.0,-0.31791883073433197,-0.9066417705681804,0.07725033056994728,-0.26638450283817966
-374.6030960083008,3736.0,8488.0,13152.0,-1666.0,-725.0,-1413.0,-0.46846767861376754,-0.8693633125352511,0.02379103585131011,-0.15549743253534656
-374.6108934879303,3716.0,8312.0,13328.0,-1579.0,-616.0,-1230.0,-0.5939695997687244,-0.8023351878237205,-0.022554035703772828,-0.0543109234310123
-374.61867237091064,3508.0,8432.0,13208.0,-1493.0,-621.0,-1057.0,-0.6950628795627255,-0.715584477169078,-0.05648878173883432,0.04044090783219056
-374.6264617443085,3688.0,8204.0,13180.0,-1394.0,-431.0,-967.0,-0.7719989364292599,-0.6174289231045452,-0.0945137212083426,0.1177553547377136
-374.63424253463745,3612.0,8368.0,13340.0,-1313.0,-511.0,-807.0,-0.8304922098141295,-0.5117870602271933,-0.1158143435172703,0.18693242698289367
-374.6421091556549,3496.0,8372.0,13528.0,-1220.0,-73.0,-598.0,-0.8699651838316597,-0.413070402415914,-0.15589310327894004,0.21961503117674672
-374.64989590644836,3440.0,8340.0,13548.0,-1081.0,92.0,-426.0,-0.8950035136735977,-0.3251729509661643,-0.19772017730161742,0.23267572705309778
-374.65768599510193,3232.0,8376.0,13724.0,-970.0,136.0,-195.0,-0.9128580769513057,-0.24781351062414325,-0.23243551373935104,0.22638976842963887
-374.66545033454895,3300.0,8292.0,13844.0,-909.0,49.0,81.0,-0.9302549291588434,-0.17745053847088635,-0.2514745501342733,0.199743895543349
-374.67324686050415,3324.0,8292.0,13724.0,-897.0,-81.0,184.0,-0.9461693882310808,-0.10697053707040313,-0.2565857633699195,0.16578461632240665
-374.6810259819031,3564.0,8300.0,13604.0,-885.0,-217.0,327.0,-0.9606698893506153,-0.038048482202518955,-0.2472712463945105,0.12050978136096004
-374.68881344795227,3560.0,8268.0,13640.0,-824.0,-360.0,548.0,-0.9729019869779741,0.022745517890734743,-0.22274716160887245,0.057689402366319455
-374.69659900665283,3288.0,8216.0,13360.0,-819.0,-606.0,703.0,-0.9809442909482932,0.08099666853563092,-0.17556964488779034,-0.019056167926810703
-374.70437717437744,3024.0,8228.0,13292.0,-817.0,-845.0,851.0,-0.9789319425336682,0.1351667551585663,-0.10685715366397003,-0.10956162146480647
-374.7121570110321,3176.0,8256.0,12880.0,-846.0,-868.0,815.0,-0.9615281957675773,0.18972758566604314,-0.033834878395876226,-0.19576049904211518
-374.7199242115021,3024.0,8280.0,13004.0,-892.0,-887.0,831.0,-0.9272558181014853,0.24457528835840864,0.0417693731595754,-0.28041914269037105
-374.72770142555237,3020.0,8360.0,13108.0,-932.0,-808.0,925.0,-0.8739854505159977,0.30061568921575615,0.10923624015786364,-0.36585117673701373
-374.7354874610901,3048.0,8344.0,13220.0,-911.0,-660.0,939.0,-0.8073264471203208,0.35485693344769814,0.1626718849783665,-0.4425363515031965
-374.74328231811523,3112.0,8336.0,13400.0,-924.0,-480.0,925.0,-0.7308808080356153,0.41133092451836895,0.2019955484949587,-0.505784453466386
-374.75106143951416,2972.0,8440.0,13776.0,-850.0,-272.0,986.0,-0.6477793128034262,0.46762691031083287,0.21993523467452283,-0.5597638137694574
-374.75884199142456,3000.0,8388.0,14032.0,-769.0,-120.0,875.0,-0.5684509556785174,0.5191986020261935,0.22733422229265252,-0.5963350350405562
-374.76663088798523,3104.0,8372.0,14224.0,-640.0,-54.0,986.0,-0.4845651062249704,0.5646208487595916,0.21744168059881008,-0.6317587122577313
-374.7744035720825,3156.0,8300.0,14220.0,-480.0,-103.0,1064.0,-0.3982470233505251,0.5962228675574927,0.19475770715668225,-0.669318336889883
-374.78225898742676,2996.0,8168.0,14180.0,-333.0,-229.0,1133.0,-0.3091559539160329,0.610226575299667,0.16225865937379744,-0.7111386998430936
-374.7900836467743,2908.0,8244.0,14044.0,-213.0,-381.0,1252.0,-0.21327869524705226,0.6059101038113895,0.11822069142423397,-0.7572377515497772
-374.79789876937866,2632.0,8132.0,13592.0,-6.0,-603.0,1489.0,-0.10725219570819926,0.575781907761883,0.050524099884445894,-0.8089619747186658
-374.80573439598083,2524.0,7960.0,13604.0,54.0,-742.0,1609.0,0.006878334135903115,0.5236063666361748,-0.026969086216757147,-0.8515055664681307
-374.81357192993164,2544.0,7908.0,13400.0,68.0,-889.0,1743.0,0.12940903627087824,0.44681770634471174,-0.11070062143959937,-0.8782668222363749
-374.8213987350464,2656.0,7972.0,13172.0,-256.0,-940.0,1799.0,0.26411755846373486,0.3487531181273151,-0.16926448420661583,-0.8831549763738519
-374.82919096946716,2916.0,7988.0,13168.0,-145.0,-927.0,1973.0,0.39979811374097435,0.24022479038673358,-0.23536040310148573,-0.8526775468984246
-374.83698773384094,3296.0,8032.0,13176.0,-302.0,-923.0,2086.0,0.5318647076980908,0.11555522075528799,-0.28323553783031313,-0.789648373500126
-374.84477615356445,3192.0,8020.0,13064.0,-441.0,-901.0,2174.0,0.6498878023899242,-0.0206047365475512,-0.3098660734486491,-0.6936889113011084
-374.8525686264038,3332.0,8100.0,13004.0,-764.0,-865.0,2109.0,0.7367542388269506,-0.1693631440898451,-0.30223810331283824,-0.5806560478462108
-374.86035418510437,3424.0,8072.0,12992.0,-764.0,-985.0,1966.0,0.7831454734734816,-0.3135957348127571,-0.29182962463003004,-0.4507508765088972
-374.8681540489197,3500.0,8152.0,12936.0,-478.0,-1115.0,1770.0,0.7974970128141676,-0.4275684930378584,-0.2956642620885718,-0.3062129037735582
-374.8759460449219,3692.0,7964.0,12864.0,-455.0,-1230.0,1555.0,0.7782506535001674,-0.5238846897961027,-0.3063123131889194,-0.1613800449642307
-374.8837432861328,3708.0,8380.0,13128.0,-470.0,-1402.0,1350.0,0.7273591970156085,-0.6024028579965354,-0.32823482410720106,-0.017924715834013435
-374.8915297985077,3780.0,8540.0,13008.0,-533.0,-1465.0,1158.0,0.6499884295046785,-0.6621803796061935,-0.3544755858067722,0.115668688250472
-374.89932131767273,3836.0,8484.0,12976.0,-665.0,-1502.0,1268.0,0.5435080437943792,-0.7123303445476651,-0.3671476976990219,0.24977400713789102
-374.90711092948914,3928.0,8552.0,12852.0,-720.0,-1569.0,978.0,0.4209246319444292,-0.7326771348546799,-0.39065754281262033,0.36523054982735215
-374.91489005088806,3840.0,8232.0,12776.0,-867.0,-1647.0,993.0,0.2730984248832875,-0.7335241865743258,-0.408431961062776,0.4696199007912206
-374.9226665496826,3832.0,8128.0,13056.0,-1015.0,-1551.0,1275.0,0.09867061151787514,-0.7257089520166891,-0.3977606201322325,0.5526274662533064
-374.9304497241974,3260.0,7520.0,12648.0,-985.0,-1550.0,1110.0,-0.06989383817854934,-0.6859988612561124,-0.38163803634222165,0.615526459997327
-374.93823981285095,3284.0,7364.0,13112.0,-820.0,-2150.0,1069.0,-0.24223070592567028,-0.5868195084404473,-0.3402629559565655,0.6936773532588215
-374.94607520103455,4204.0,7044.0,13068.0,-676.0,-2491.0,1079.0,-0.404354975323093,-0.4407136108850473,-0.2653632733859103,0.7562082386816732
-374.95386958122253,4508.0,7212.0,13536.0,-762.0,-2723.0,1161.0,-0.5540559340606952,-0.2520446761286894,-0.1688265782179556,0.7752374408234752
-374.9616425037384,4628.0,6928.0,13688.0,-313.0,-2924.0,1091.0,-0.6538271189914782,-0.05306731657239372,-0.023492234966573385,0.7544150537200224
-374.96940064430237,5348.0,7144.0,13700.0,-152.0,-3106.0,1253.0,-0.7134561081269656,0.15120364360088778,0.143816035286516,0.6689056644494852
-374.97717571258545,5588.0,6840.0,13888.0,62.0,-3328.0,1197.0,-0.709325977726137,0.3405369456418535,0.3239733344443219,0.5252927988701203
-374.98495173454285,6112.0,6776.0,13972.0,182.0,-2990.0,1129.0,-0.6568519365134284,0.4797113149249748,0.46604499225751256,0.34817330888970477
-374.9927566051483,6360.0,6672.0,14032.0,312.0,-2924.0,1170.0,-0.5654313740904701,0.5765803357685305,0.5727296265914538,0.14079507244085446
-375.000527381897,6600.0,6544.0,13732.0,408.0,-2797.0,1174.0,-0.4450343311977219,0.6274480954613978,0.6344589865453026,-0.07559845202891752
-375.0083131790161,6636.0,6512.0,13824.0,464.0,-2591.0,1235.0,-0.30906975552531146,0.640390114107847,0.6439999839896012,-0.282206322738978
-375.01613688468933,6552.0,6616.0,13928.0,533.0,-2353.0,1045.0,-0.1763087925384671,0.6108880755318642,0.6198242260627402,-0.45994445059412115
