programtime,ax,ay,az,gx,gy,gz,q0,q1,q2,q3
-596.6304395198822,5440.0,-5256.0,-14704.0,230.0,485.0,-484.0,0.9980313417232934,0.019802927155913946,0.0420040553262296,-0.042153817741826874
-596.6460421085358,5084.0,-5152.0,-14700.0,-178.0,1209.0,650.0,0.9891398515571984,0.010790007858776141,0.1455834487588094,0.017070127102697927
-596.6616005897522,4280.0,-5320.0,-14544.0,-460.0,912.0,235.0,0.973564141291616,-0.027491462483849354,0.22247683330358806,0.04383082163073283
-596.6771852970123,3976.0,-5736.0,-14672.0,-397.0,171.0,-878.0,0.9690707985444065,-0.078926670652419,0.2326423180600397,-0.023450371337836687
-596.6927285194397,4168.0,-6140.0,-14952.0,149.0,-143.0,-1692.0,0.9589227765995655,-0.10016756966191136,0.20641789841719488,-0.16680892577927212
-596.7083268165588,4520.0,-5332.0,-15008.0,661.0,-176.0,-1426.0,0.9381643673477573,-0.07272224911679608,0.1680969633148212,-0.2937728803799161
-596.7239170074463,4704.0,-4696.0,-14540.0,224.0,-61.0,-1529.0,0.8931304214378154,-0.07798559247814442,0.14639791647293537,-0.4180956203077548
-596.7395298480988,4960.0,-4960.0,-14564.0,-859.0,107.0,-1160.0,0.83687003629277,-0.1549345818831719,0.17683759232324317,-0.4943402508731645
-596.7550981044769,5052.0,-5968.0,-15016.0,-595.0,344.0,-576.0,0.796144840828924,-0.19214920738653166,0.21925369216239993,-0.5302451253857695
-596.7706670761108,4816.0,-6032.0,-14624.0,316.0,581.0,-269.0,0.7762879413220459,-0.1484630991903089,0.2401351969587728,-0.563622948005455
-596.7862329483032,4440.0,-5188.0,-14840.0,542.0,357.0,-662.0,0.7407649757792686,-0.10798537541998372,0.22849124876875257,-0.6224131735352658
-596.8017981052399,4180.0,-4788.0,-14536.0,-110.0,-329.0,-1392.0,0.6653982942449087,-0.15973776267348783,0.19870088154948604,-0.7016031049414562
-596.8173997402191,4604.0,-5200.0,-14716.0,-482.0,-746.0,-1808.0,0.5523629026139855,-0.2610152418993447,0.1574205887215753,-0.7758769397002544
-596.8329665660858,5228.0,-5592.0,-15052.0,-119.0,-764.0,-1389.0,0.46161089474645395,-0.3346290850338012,0.09620418762517954,-0.8158943017230839
-596.8485980033875,5356.0,-5480.0,-14864.0,444.0,24.0,-307.0,0.4519653041420325,-0.31754884990310517,0.05661670626786771,-0.8316758024304861
-596.8641679286957,4884.0,-5016.0,-14688.0,353.0,604.0,221.0,0.4737962616145521,-0.2584713175768584,0.060890464582663305,-0.8396439911016248
-596.8797886371613,4364.0,-4960.0,-14448.0,-367.0,135.0,-3.0,0.4642715139305621,-0.26391117330775876,0.09332503610435296,-0.8402935746464252
-596.8953683376312,4452.0,-5544.0,-14964.0,-420.0,-178.0,-993.0,0.38146268520283483,-0.3009823294116124,0.09372559434398132,-0.8689714438027697
-596.9109554290771,4696.0,-5684.0,-15100.0,177.0,-247.0,-341.0,0.3619543513115576,-0.31663721932817235,0.06318978630308511,-0.8744924069480094
-596.9266712665558,4904.0,-5336.0,-14632.0,474.0,132.0,-613.0,0.3267548486811477,-0.2945721971745101,0.014312071740823358,-0.897916284582047
-596.942298412323,4608.0,-4880.0,-14600.0,38.0,72.0,-194.0,0.31237571472880066,-0.2883392087365353,0.008475464069175818,-0.9051022484016221
-596.9579532146454,4928.0,-5176.0,-14792.0,-555.0,220.0,-10.0,0.297045475342486,-0.28600812781932766,0.05805239776114792,-0.9091717414845345
-596.9735536575317,5004.0,-5824.0,-14772.0,-308.0,491.0,487.0,0.32478787611841564,-0.2523066207096726,0.10724812048085673,-0.9051806699912884
-596.9891941547394,4884.0,-5720.0,-14656.0,240.0,754.0,760.0,0.3812838154419603,-0.17830017581109642,0.12595681610229514,-0.8983131858461868
-597.0047929286957,4456.0,-5040.0,-14600.0,306.0,504.0,524.0,0.4205582720374217,-0.12283680002406752,0.12675064411729342,-0.8899304099740588
-597.0203838348389,4388.0,-4736.0,-14756.0,-350.0,88.0,120.0,0.42487910406230045,-0.12772003379262828,0.1585274846066107,-0.8820625695060001
-597.0360062122345,4644.0,-5160.0,-14796.0,-521.0,97.0,-139.0,0.4065185824749144,-0.14158995056700838,0.20062566244284583,-0.8800251539418562
-597.0516126155853,4852.0,-5720.0,-15100.0,-49.0,139.0,-152.0,0.3916886104388271,-0.13553627385139708,0.20760100168968823,-0.8860653333814714
-597.0672698020935,5036.0,-5632.0,-14644.0,238.0,225.0,89.0,0.3970850717338595,-0.10858898197280285,0.19805385513025273,-0.8895541294762623
-597.0828628540039,4948.0,-5020.0,-14576.0,-66.0,412.0,516.0,0.42862476346104605,-0.07010451852813479,0.2221720656324197,-0.8729294025764767
-597.0984609127045,4852.0,-5092.0,-14532.0,-389.0,554.0,956.0,0.48573382472776827,-0.02402130595550244,0.2771508924530622,-0.8286573545127062
-597.1140551567078,4844.0,-5332.0,-14700.0,-395.0,532.0,721.0,0.5221891228555328,0.014893826185734834,0.32882346117892136,-0.7867476249034584
-597.1296257972717,4424.0,-5588.0,-14888.0,-154.0,308.0,264.0,0.5311948931012532,0.03641576839823994,0.3531035591183648,-0.7693008214561178
-597.1453564167023,4524.0,-5420.0,-14816.0,179.0,109.0,-5.0,0.5267372837823531,0.0517278075135775,0.3463730952667294,-0.7745306621940622
-597.1611301898956,4644.0,-5372.0,-14660.0,67.0,125.0,-66.0,0.5180395525576964,0.06111957334604718,0.34813335831449166,-0.7789111531930278
-597.1768043041229,4656.0,-5080.0,-14656.0,-232.0,307.0,279.0,0.5283493681878135,0.0797785498507178,0.3762492393267873,-0.7569140228752991
-597.1923859119415,4928.0,-5324.0,-14700.0,-218.0,556.0,593.0,0.549181075001017,0.12546770712853636,0.4113276958014639,-0.716566485397757
-597.2080507278442,4728.0,-5452.0,-14788.0,105.0,646.0,688.0,0.5657941879477224,0.194843877350619,0.427011210700581,-0.6779190410953055
-597.2236545085907,4528.0,-5256.0,-14640.0,-43.0,224.0,-59.0,0.5544225706432382,0.20369757251006568,0.4418086573293325,-0.6752244237464331
-597.2392947673798,4376.0,-5328.0,-14596.0,-322.0,-30.0,-567.0,0.5268824989501482,0.16419316919990137,0.4689289626938547,-0.6895948545595487
-597.2549111843109,4972.0,-5596.0,-14836.0,-71.0,289.0,-11.0,0.515082430901602,0.17775108332647693,0.4867585995258941,-0.6827596264721211
-597.2705225944519,4828.0,-5440.0,-14760.0,277.0,575.0,373.0,0.5073741848791752,0.239762978486894,0.4895727023613773,-0.6673857353643873
-597.2861766815186,4508.0,-5120.0,-14520.0,20.0,406.0,-154.0,0.48012897750342437,0.25752037966257635,0.5095085516291148,-0.6660033444636448
-597.3018143177032,4448.0,-5288.0,-14548.0,-285.0,-78.0,-532.0,0.45826526873323853,0.21707946469362543,0.5342708502724807,-0.6763313596383818
-597.3174152374268,4684.0,-5568.0,-14660.0,-32.0,-170.0,-988.0,0.40675619877275954,0.15906170566681319,0.5462499321732496,-0.7147445558736488
-597.3330078125,5012.0,-5484.0,-14692.0,240.0,-133.0,-1266.0,0.32854444531706856,0.09825157153413118,0.5409468686982027,-0.7679724353047983
-597.3487153053284,5124.0,-5160.0,-14728.0,-34.0,168.0,-626.0,0.27836446337707615,0.07877947074627811,0.5527822792647934,-0.7814977749479194
-597.3643126487732,4980.0,-5272.0,-14692.0,-183.0,357.0,-95.0,0.2556253756985566,0.09395542962259355,0.5744717022558778,-0.7718874968871043
-597.3799359798431,4612.0,-5552.0,-14704.0,-323.0,99.0,-276.0,0.2344180180830425,0.07945541940507102,0.6005155507352806,-0.7603394652721147
-597.3955252170563,4356.0,-5756.0,-14704.0,-65.0,-264.0,-1125.0,0.17305010679204075,0.0015795587696584572,0.6043976480277874,-0.7776597254531284
-597.4111039638519,4808.0,-5720.0,-14600.0,74.0,-445.0,-1054.0,0.12425519342556202,-0.08276832472645206,0.5900928277928106,-0.7934106792300172
-597.4266719818115,5028.0,-5332.0,-14736.0,410.0,-385.0,-1240.0,0.060677855162264545,-0.16776065645084118,0.5449758564586996,-0.819253242848142
-597.4422698020935,5356.0,-4760.0,-14620.0,-228.0,-158.0,-624.0,0.020150519444778654,-0.20970059025845836,0.5505432558930119,-0.8077881791670892
-597.4578421115875,4952.0,-5064.0,-14944.0,-643.0,26.0,-234.0,-0.009379292842284344,-0.21997622686915178,0.5907840657066233,-0.7762065937528118
-597.4734108448029,4748.0,-5652.0,-14608.0,-679.0,-343.0,-537.0,-0.04099268531576309,-0.269557592408052,0.6248842173481591,-0.7315586231020424
-597.4890418052673,4712.0,-6296.0,-14444.0,-719.0,-1144.0,-1598.0,-0.09595042744347981,-0.4202858911995354,0.627093576673231,-0.6487734051478993
-597.5047526359558,5420.0,-6448.0,-14716.0,-372.0,-903.0,-854.0,-0.1077969745942076,-0.511843524486783,0.6205842066626845,-0.5841842698585182
-597.5203521251678,5416.0,-5812.0,-15196.0,525.0,-241.0,588.0,-0.04115779647541931,-0.4960501879294329,0.6208970943670241,-0.6055799245773004
-597.5359740257263,4648.0,-4508.0,-14728.0,885.0,231.0,685.0,0.020736183059815227,-0.44782207705623894,0.6001336871997445,-0.6624688336074273
-597.5515856742859,4340.0,-3956.0,-14724.0,-39.0,-530.0,-352.0,0.026548415029317898,-0.49633005212986103,0.5869162376148171,-0.6391251763436238
-597.5671718120575,4768.0,-4368.0,-14632.0,-743.0,-1376.0,-852.0,0.017089161596837592,-0.6112024599559158,0.5814062319201536,-0.5367553511462769
-597.5827934741974,5528.0,-5560.0,-14916.0,-373.0,-1074.0,-712.0,0.018201656162804346,-0.6935442273230279,0.5556065866855945,-0.45822093502088973
-597.5983839035034,5828.0,-5512.0,-15200.0,623.0,59.0,1756.0,0.1216542252337115,-0.5973257874332306,0.6288884023932694,-0.48259872615382843
-597.6139969825745,4880.0,-4720.0,-14344.0,699.0,273.0,2092.0,0.2268611901207089,-0.4552706453780166,0.6984828496892281,-0.5033729716265216
-597.6295726299286,4352.0,-4728.0,-14284.0,-1423.0,-1266.0,734.0,0.2752128475761541,-0.4867713283604958,0.7533151014274354,-0.3461616968651438
-597.645210981369,5016.0,-6392.0,-14656.0,-2236.0,-1978.0,449.0,0.31286224529722706,-0.5519950237677143,0.7663215874222999,-0.10084608992828842
-597.6607987880707,5244.0,-7628.0,-14660.0,-1177.0,-1817.0,1423.0,0.3803774650883997,-0.4926521916112163,0.776078738620452,0.10153124452540215
-597.676367521286,5156.0,-7396.0,-15004.0,908.0,-263.0,2246.0,0.40803078016272426,-0.3014240469699438,0.852959434945656,0.12294156614118255
-597.6919481754303,4320.0,-5880.0,-14772.0,962.0,-913.0,1026.0,0.4849310909686606,-0.1791754282534259,0.8488353625645958,0.11052841345996652
-597.7075295448303,4756.0,-6076.0,-15452.0,-679.0,-2078.0,-1353.0,0.6255632489074653,-0.2812052051328697,0.715545208097434,0.13262469374636413
-597.7231040000916,6632.0,-7164.0,-16980.0,1116.0,-108.0,-772.0,0.6637762634190748,-0.265508018816893,0.6988359319911999,0.02312799652651515
-597.7386817932129,6488.0,-4932.0,-16028.0,4820.0,3819.0,5458.0,0.4316643147961269,0.27523381241246436,0.8582991772225033,-0.03513958189370889
-597.7542543411255,3896.0,-2004.0,-14072.0,2817.0,2395.0,2923.0,0.17872845330734355,0.561963597772599,0.8043523515480605,-0.07259717154233035
-597.7698352336884,3504.0,-1160.0,-15452.0,-1952.0,962.0,2726.0,0.21420019638638518,0.6973997766387475,0.6678175452021197,0.14755186793962852
-597.7854104042053,3996.0,-4888.0,-16224.0,-5146.0,1027.0,5295.0,0.33454653598325285,0.7516376247104332,0.250221085388274,0.5104007296315104
-597.8009881973267,3784.0,-8744.0,-16484.0,-744.0,3067.0,6599.0,0.0187153327581422,0.6216867434612945,-0.10644937748439805,0.7757730720754793
-597.8165590763092,1452.0,-6504.0,-15272.0,4547.0,3083.0,6056.0,-0.4960699756239052,0.2966112865929321,-0.09953687111010096,0.8099560082126649
-597.8321304321289,-588.0,-3264.0,-12960.0,1685.0,-912.0,1104.0,-0.6142889149679698,0.273755873570495,0.029741158833432875,0.7394743498623695
-597.8477876186371,760.0,-4396.0,-12700.0,-3063.0,-5308.0,-3444.0,-0.2600196548453466,0.6578366957850218,0.169459646417857,0.6862390902656934
-597.8633625507355,4120.0,-7152.0,-13552.0,-1993.0,-5123.0,-1210.0,0.0023156687572049627,0.8904669629187351,0.21159764110571164,0.4028519131231592
-597.8789324760437,5928.0,-6704.0,-12896.0,1265.0,-2076.0,2470.0,-0.1385120957728242,0.9661183134451348,0.060895959538388694,0.20909683369780488
-597.8945024013519,5104.0,-4260.0,-11780.0,1041.0,-1051.0,3833.0,-0.2738134987398108,0.934741729580246,-0.21710274626978632,0.06442409837405944
-597.910037279129,4308.0,-2808.0,-10384.0,-1962.0,-2808.0,5612.0,-0.17198851349204725,0.7730036592233595,-0.53673601210342,-0.2912039617955249
-597.9257018566132,4756.0,-4008.0,-10172.0,-5828.0,-5990.0,1786.0,-0.011182325824522962,0.5007798897408875,-0.3360728389360171,-0.7975898097078125
-597.9413928985596,8308.0,-6692.0,-12388.0,-7583.0,-8140.0,-2476.0,-0.06444356223272785,0.010089115365990848,0.21835519796958902,-0.9736869335456596
-597.9570288658142,12028.0,-8976.0,-18064.0,-3342.0,251.0,1852.0,0.08633708382753028,0.0809184923407507,0.473758930952528,-0.8726686547001534
-597.9726839065552,9164.0,-6428.0,-21772.0,4242.0,11874.0,17059.0,0.41091061564659065,0.8186395074967288,0.05703693734456787,-0.39715061436790594
-597.9888877868652,-1284.0,-840.0,-20584.0,4745.0,16297.0,20863.0,0.2797197886051673,0.6497026489614507,-0.3972133816867956,0.5846920875162368
-598.0045394897461,-11172.0,-2620.0,-13596.0,-3784.0,1354.0,6823.0,0.1587039096224991,0.20709589865714192,-0.7768088859934656,0.5731424888031906
-598.0201268196106,-8724.0,-8820.0,-13380.0,-5614.0,-11296.0,-22392.0,0.25010360211642135,0.900885601117324,-0.32965593469682286,-0.13107359240912253
-598.0357315540314,3644.0,-8404.0,-15340.0,583.0,-17099.0,-15482.0,-0.20683358827628445,0.5174737328280731,0.22581131323457002,-0.799030696161928
-598.0513770580292,11548.0,-4168.0,-15144.0,3236.0,-6848.0,-12487.0,-0.6721110435397307,-0.16327171976653795,0.42461631773881664,-0.5842174880867053
-598.0669603347778,13208.0,-1704.0,-15812.0,-1045.0,1388.0,2686.0,-0.5792883334715976,0.06564498805514518,0.4189885512083309,-0.6961065695734259
-598.0825934410095,9456.0,-3476.0,-14776.0,-3618.0,8951.0,11542.0,-0.11191323799506182,0.7356864678475338,0.07299261893260535,-0.6640127451855422
-598.0981628894806,2044.0,-7140.0,-15032.0,-3817.0,7638.0,5602.0,0.30535094159098264,0.9341846276991624,-0.10448231857422835,-0.15212931652193576
-598.1137318611145,-2844.0,-9556.0,-15412.0,-112.0,-189.0,-1551.0,0.28920897342787233,0.9342309227974457,0.018284558929496354,-0.2079337093464722
-598.1293864250183,-1708.0,-6836.0,-14820.0,1966.0,-6161.0,-10747.0,-0.03815573443293045,0.5766349474906881,0.47440515641288833,-0.6640602569279072
-598.1449866294861,2820.0,-3660.0,-14664.0,-353.0,-7459.0,-11233.0,-0.23477511723960656,-0.20677909994584945,0.7025839836358918,-0.6391391038647489
-598.1605637073517,6836.0,-3592.0,-14980.0,-1607.0,-3096.0,-5410.0,-0.3274957369158938,-0.5913350203272446,0.6610039592924553,-0.3257962581678789
-598.1760983467102,6820.0,-4460.0,-15304.0,-1891.0,1234.0,82.0,-0.48434259112224237,-0.48814855874867386,0.6709808409099869,-0.27732282659080115
-598.1917338371277,3712.0,-5056.0,-15408.0,-1354.0,3090.0,1688.0,-0.6476796873085915,-0.2444598775329627,0.6129166621857911,-0.3808983540781485
-598.2073132991791,372.0,-4944.0,-15056.0,-1125.0,891.0,-617.0,-0.7328710761704557,-0.18259227132427622,0.5816700715828258,-0.30202644915674315
-598.2228968143463,-176.0,-5364.0,-14624.0,-1914.0,-3349.0,-7327.0,-0.6373013216905471,-0.4217614957844935,0.5915286358318544,0.2570177796106986
-598.2384781837463,2404.0,-5728.0,-15516.0,-635.0,-4501.0,-8373.0,-0.18478690977407808,-0.5519407992560177,0.3995638550460473,0.7082117464667729
-598.254077911377,4948.0,-4800.0,-15564.0,476.0,-2188.0,-5972.0,0.24783002552615163,-0.5529222482305414,0.15440843327719883,0.7803943244234105
-598.2696399688721,5176.0,-3124.0,-15040.0,-928.0,456.0,-280.0,0.21502310309238276,-0.6054250255702669,0.08717383160043006,0.7613319424757273
-598.2852001190186,3972.0,-3904.0,-15540.0,-2090.0,2895.0,1785.0,-0.034023715268601096,-0.7777680441821594,0.0915075973422952,0.6209231964398015
-598.3007717132568,1792.0,-4880.0,-15636.0,-1298.0,2168.0,1624.0,-0.21992566347792886,-0.8498787962137639,0.12084607286754208,0.4633950376973506
-598.3163590431213,944.0,-4884.0,-15584.0,112.0,-182.0,-2493.0,-0.10620227914521937,-0.851058414454527,-0.05476529881978062,0.5112938618208587
-598.3319804668427,1900.0,-3792.0,-15284.0,4.0,-2259.0,-3994.0,0.05721849422701544,-0.6789728832768384,-0.30668170837618147,0.6645812195966697
-598.3475992679596,4548.0,-3792.0,-15268.0,-898.0,-2108.0,-4735.0,0.20200564230722817,-0.39498312247212536,-0.5907382644323864,0.6739513011884659
-598.3632125854492,6104.0,-4044.0,-15692.0,-816.0,930.0,684.0,0.18025430272092252,-0.49559654666889086,-0.5944692499071389,0.6070409872449367
-598.3788189888,4848.0,-4084.0,-15324.0,-832.0,2977.0,3438.0,0.10813931734649836,-0.7834296910693005,-0.4110263522300153,0.4534326245070826
-598.3944261074066,3032.0,-4512.0,-15272.0,-1395.0,3029.0,2555.0,0.0191189477727453,-0.9465302801164358,-0.24698904385093112,0.20666714029174435
-598.4100141525269,1696.0,-5236.0,-15520.0,-791.0,1176.0,1204.0,-0.04185245727667588,-0.9821858186283574,-0.1578247059078052,0.09300941732084123
-598.425580739975,2080.0,-5168.0,-14856.0,-538.0,-542.0,-390.0,-0.09174840300132243,-0.9677838901070908,-0.19312924223301428,0.1329573931392877
-598.4411509037018,4028.0,-4864.0,-15628.0,-97.0,-258.0,-1458.0,-0.08641721893966177,-0.9317048801242221,-0.3127510462795712,0.16323254477731192
-598.4567551612854,5176.0,-3716.0,-15416.0,564.0,1341.0,3065.0,-0.045460579102864516,-0.9959960340362123,-0.0629233090068311,0.044338393243320305
-598.4723265171051,4444.0,-2992.0,-15716.0,-184.0,3200.0,3267.0,-0.052302599806061174,-0.9523811893895846,0.19283016217452636,-0.230328106635194
-598.4879369735718,3168.0,-3244.0,-15692.0,-327.0,2799.0,3116.0,-0.059814543932393785,-0.7908072451352332,0.41843757423764794,-0.44266930980348723
-598.5035037994385,2240.0,-3940.0,-15536.0,-139.0,958.0,-1365.0,-0.15535546690544047,-0.7946216138050056,0.321315149291073,-0.4911188701450767
-598.5190768241882,2624.0,-4588.0,-14712.0,-107.0,-1712.0,-4442.0,-0.28162144904261627,-0.9153347265605281,0.0380551544464287,-0.28531299131227594
-598.5346648693085,4340.0,-4856.0,-15336.0,126.0,-1726.0,-4493.0,-0.3479493227135854,-0.9002168295464175,-0.2595290141727437,-0.034432824848934
-598.5502624511719,5372.0,-4728.0,-15544.0,327.0,399.0,-1637.0,-0.3143516153674458,-0.8623493917030065,-0.39681513061852586,-0.008622102848754809
-598.5658476352692,4464.0,-4700.0,-15072.0,-211.0,1298.0,376.0,-0.2826992900318432,-0.8625619962394186,-0.4011409322030776,-0.12310104211665647
-598.5814065933228,3476.0,-5216.0,-14944.0,-572.0,791.0,-435.0,-0.301149497892481,-0.821258757629652,-0.44534905357913906,-0.19106871384889884
-598.5969700813293,3532.0,-5460.0,-14964.0,-185.0,-168.0,-949.0,-0.3352673072740585,-0.7795712716814055,-0.5040536896607104,-0.160606173547789
-598.6125400066376,3888.0,-4992.0,-15152.0,-23.0,-445.0,-1617.0,-0.37480700164572595,-0.7065835585942671,-0.5944388978306533,-0.08307697025939578
-598.6281168460846,4656.0,-4492.0,-15144.0,9.0,-242.0,-738.0,-0.39098446118749397,-0.6689105302115185,-0.6307173740340911,-0.04342174309733464
-598.6437375545502,4764.0,-3940.0,-15448.0,-68.0,1224.0,1252.0,-0.3188373503653435,-0.7225490988203327,-0.5923093779615282,-0.1594839947604774
-598.659336566925,3956.0,-3680.0,-15040.0,-600.0,1492.0,1361.0,-0.2560251887772029,-0.7430806422514769,-0.5307982421037768,-0.317073316446324
-598.6748921871185,3440.0,-4344.0,-15140.0,-1208.0,814.0,535.0,-0.2790696788964351,-0.7119919401055796,-0.47656416745358604,-0.4336752077818187
-598.6904685497284,3596.0,-5032.0,-15404.0,-560.0,737.0,687.0,-0.2557102178490003,-0.6956881227433854,-0.4285133678574645,-0.5167268271813013
-598.7060294151306,3388.0,-4588.0,-15592.0,125.0,900.0,176.0,-0.2056698674824644,-0.6625013949452537,-0.4421526410382259,-0.5685884709772616
-598.7216150760651,2924.0,-3740.0,-15592.0,264.0,313.0,-487.0,-0.20202832311398738,-0.6321334173521754,-0.4883343484585922,-0.5666758010025953
-598.7371928691864,3072.0,-3760.0,-15308.0,-649.0,-688.0,-2516.0,-0.3810893961398235,-0.5332139540748891,-0.5675855202771906,-0.49829753009750893
-598.7527768611908,3976.0,-4468.0,-15728.0,-4.0,-768.0,-1873.0,-0.49295091213711245,-0.4666462938931233,-0.6195467171547554,-0.39421123764013516
-598.7683379650116,4340.0,-3972.0,-15616.0,695.0,203.0,-1250.0,-0.49255700554384096,-0.4187982594877233,-0.6976995032052944,-0.30856282563980914
-598.783929347992,3932.0,-3512.0,-14868.0,22.0,313.0,-1176.0,-0.5013143497090278,-0.3379139770558299,-0.7506493557545283,-0.26650255456831606
-598.7994997501373,3640.0,-4036.0,-15628.0,-2.0,415.0,-1286.0,-0.5003985125020639,-0.2423173758368757,-0.8012866607839386,-0.22095996312222957
-598.8150844573975,3080.0,-4356.0,-15160.0,739.0,-248.0,-2095.0,-0.5322462955161774,-0.13043845618003644,-0.8334554822678957,-0.07107495435288083
-598.8306670188904,3676.0,-4448.0,-14624.0,9.0,-1063.0,-3279.0,-0.6028765891264789,0.09679214539784908,-0.7867994617184052,0.09009831248215666
-598.846275806427,4836.0,-4840.0,-15260.0,-128.0,-1006.0,-1749.0,-0.646890306770383,0.22810577356568099,-0.709318393479965,0.16238258448344664
-598.8618657588959,5044.0,-5024.0,-15200.0,49.0,-61.0,-988.0,-0.6350262614222478,0.28643761370729975,-0.6831146028857036,0.2192021443372721
-598.8774425983429,5116.0,-4756.0,-15228.0,715.0,1165.0,1269.0,-0.5995927051594174,0.14710034128677282,-0.7559244049519557,0.21778055815650404
-598.8930163383484,4176.0,-3960.0,-14792.0,-177.0,827.0,1424.0,-0.5637145692945865,0.04632869023235258,-0.8125702215521355,0.14074505985322086
-598.9085972309113,4004.0,-4496.0,-15096.0,-890.0,59.0,225.0,-0.5566430163416088,0.07327096228557775,-0.8248289411180499,0.06661183331764076
-598.9242532253265,4584.0,-4880.0,-15680.0,-153.0,334.0,455.0,-0.5333144968182455,0.04602259921585027,-0.8439118648972871,0.03564171896109669
-598.9398810863495,4500.0,-4584.0,-15436.0,638.0,942.0,2228.0,-0.4622760098347225,-0.14717303646426472,-0.8742756426231276,-0.01682524249730678
-598.9555199146271,3732.0,-3508.0,-15616.0,173.0,1444.0,1775.0,-0.3402269899893922,-0.28186242316687965,-0.8923865248653974,-0.09189918349970377
-598.9710969924927,2920.0,-3556.0,-15040.0,-216.0,767.0,750.0,-0.2782444703574549,-0.3262429050866313,-0.8910235180892052,-0.14907270644913664
-598.9866917133331,3012.0,-4448.0,-15260.0,-711.0,-1120.0,-2389.0,-0.4050680997519139,-0.13404123724631767,-0.8975462636659685,-0.11119121305260439
-599.0022718906403,4208.0,-5024.0,-15412.0,431.0,-1260.0,-835.0,-0.5018930599636061,-0.0952015277872051,-0.859050652899785,-0.03274142971531787
-599.0178384780884,4920.0,-4244.0,-15364.0,1196.0,1109.0,450.0,-0.4028845313012809,-0.17622974957484785,-0.8976947727916001,0.02777093274578234
-599.0334031581879,3844.0,-3212.0,-15148.0,752.0,1634.0,2009.0,-0.26074963321748235,-0.35433548168866774,-0.897985751330947,-0.00880826884256289
-599.0489835739136,2832.0,-3936.0,-14976.0,-781.0,336.0,-202.0,-0.25768206442203573,-0.31955895506344534,-0.9087241044084869,-0.07551509770204945
-599.0645534992218,3412.0,-5296.0,-15304.0,-7.0,-655.0,-1609.0,-0.3165516860127128,-0.19390575984532957,-0.9283018645831562,-0.021242283134114165
-599.0801358222961,4124.0,-4948.0,-15616.0,1484.0,-251.0,-993.0,-0.30952349139132335,-0.1530270539497131,-0.9295653944229167,0.1291747131901757
-599.0957584381104,4540.0,-3824.0,-15004.0,810.0,588.0,351.0,-0.25357563630642,-0.20909425118851693,-0.9277526235816083,0.1767881789858988
-599.1113388538361,4096.0,-3812.0,-14936.0,-354.0,942.0,510.0,-0.19040825692949193,-0.25582389711773224,-0.9402834275393741,0.11902060851539686
-599.1269102096558,3584.0,-5080.0,-14868.0,-648.0,42.0,-466.0,-0.19580726260255493,-0.20672347818113287,-0.9558607630744012,0.07249221403442038
-599.142466545105,4168.0,-6140.0,-15096.0,58.0,-262.0,-1097.0,-0.20837996579989732,-0.11396150276784264,-0.9661834471086712,0.10039976231712038
-599.1580445766449,4888.0,-5180.0,-15228.0,1102.0,37.0,-127.0,-0.19198909106141435,-0.12300818980847712,-0.9540530192286084,0.1944016734861869
-599.173629283905,4448.0,-3904.0,-14988.0,403.0,944.0,1668.0,-0.13509963485809615,-0.2805503994596019,-0.9316838701419956,0.1870955054016531
-599.189192533493,3748.0,-4060.0,-15040.0,-636.0,872.0,719.0,-0.09062898927940759,-0.34352656596289943,-0.9288672860321427,0.10479241250783608
-599.2047653198242,3432.0,-4984.0,-15108.0,-593.0,-162.0,-269.0,-0.11856755248329377,-0.3149875913464098,-0.9395095696893321,0.06361070081420632
-599.2202994823456,3772.0,-5260.0,-15476.0,416.0,-272.0,-1587.0,-0.11907532393981494,-0.18569071463384365,-0.9679040564401571,0.12042326707945404
-599.2358694076538,4280.0,-4276.0,-15384.0,1265.0,-327.0,-1054.0,-0.11359581807889144,-0.10521234783570727,-0.9581060647799229,0.24095460279856823
-599.2514553070068,4408.0,-3356.0,-15224.0,466.0,667.0,43.0,-0.05403555162167325,-0.1270870753749626,-0.9521848096108203,0.2725309574708636
-599.2670664787292,4044.0,-3576.0,-15020.0,-672.0,537.0,-146.0,-0.013114186007798444,-0.12414856872421644,-0.9695674205901065,0.21060429230984096
-599.2826490402222,3796.0,-5116.0,-15300.0,-338.0,63.0,-1450.0,0.015368728839853458,-0.0021537976851722087,-0.9833009490268977,0.18132403859439236
-599.2982437610626,3864.0,-5296.0,-15248.0,869.0,-623.0,-1955.0,-0.006554781144602666,0.1734467799934808,-0.9529057324398129,0.24868436709488378
-599.3138184547424,4368.0,-4500.0,-15000.0,920.0,-562.0,-1955.0,-0.024074632391475944,0.3413446228579963,-0.8864048356047839,0.31175427493076013
-599.3293926715851,4744.0,-3952.0,-14920.0,167.0,166.0,-556.0,-0.0008815335783384045,0.3790432463952781,-0.8645037365653927,0.33008897243796675
-599.3449640274048,4528.0,-4512.0,-14996.0,-431.0,467.0,-92.0,0.05130674937785197,0.3720584312759075,-0.8725993658146471,0.31226669365250037
-599.360579252243,4140.0,-5228.0,-14976.0,-511.0,72.0,-451.0,0.08551930882167778,0.4014796418111475,-0.8700743017014075,0.27289421860615437
-599.3761477470398,4116.0,-5296.0,-14964.0,119.0,-361.0,-1118.0,0.08000142642385724,0.49324976276048954,-0.8264771173410668,0.2593068024916997
-599.3917825222015,4528.0,-4740.0,-15276.0,585.0,-167.0,-640.0,0.05694991888137981,0.5456797196792589,-0.7846200753038078,0.2887242416223769
-599.4073512554169,4424.0,-3988.0,-15232.0,320.0,489.0,410.0,0.06469750759178114,0.5059641160357111,-0.7921991877608936,0.3350149141554652
-599.4228925704956,3980.0,-3996.0,-14856.0,-579.0,383.0,771.0,0.09376456115216426,0.43647696909800177,-0.8376606282345925,0.31467560188961535
-599.4384593963623,3912.0,-4948.0,-15156.0,-629.0,88.0,-739.0,0.14380134358298116,0.48122316502600154,-0.8231861442762299,0.26478295054198847
-599.4540545940399,4012.0,-5088.0,-14884.0,260.0,-230.0,-376.0,0.12465824748175149,0.516288958668569,-0.803569984976802,0.2686657993420172
-599.4696168899536,4072.0,-4352.0,-15028.0,225.0,-401.0,-1527.0,0.12081849379464747,0.6291630987373376,-0.7269523762270561,0.2471779307346448
-599.4851801395416,4468.0,-4296.0,-15044.0,-305.0,-335.0,-18.0,0.11633535327631167,0.6338220162572783,-0.7355818833028307,0.2089378621559412
-599.500746011734,4596.0,-4780.0,-15448.0,235.0,694.0,163.0,0.14428672318053562,0.6117642542538403,-0.731782046793096,0.2634784141488123
-599.5163230895996,3956.0,-4204.0,-14900.0,58.0,535.0,837.0,0.15526301289701466,0.5447179010427119,-0.765614685931895,0.30497533965088003
-599.531943321228,3692.0,-4500.0,-14896.0,-681.0,-206.0,-494.0,0.1862552516358663,0.5723651967407042,-0.7609799217058467,0.2421086978169075
-599.5475251674652,4280.0,-5328.0,-15384.0,165.0,114.0,111.0,0.1828951411361749,0.5651455860210202,-0.7611327698682161,0.26045487244909343
-599.5631136894226,4236.0,-4520.0,-14944.0,311.0,76.0,80.0,0.17043342776319953,0.5628427508212511,-0.756586005791281,0.28589875898584943
-599.578688621521,4104.0,-4380.0,-15156.0,-280.0,115.0,-82.0,0.19350059590050492,0.5610363116112705,-0.7576572538406342,0.27157183606265195
-599.5942618846893,4604.0,-4528.0,-15292.0,-73.0,448.0,885.0,0.20467757016455823,0.4888547692017944,-0.7922805983117386,0.30235667751677986
-599.6098425388336,3984.0,-4464.0,-14992.0,-23.0,369.0,341.0,0.2217151643787219,0.4547201070614086,-0.8001935339164453,0.32212158946101094
-599.6254060268402,3612.0,-4636.0,-14980.0,-401.0,-191.0,-191.0,0.22921325634679723,0.465271330354212,-0.80698219603655,0.28242451654441486
-599.6409707069397,4344.0,-4992.0,-15116.0,-342.0,-380.0,-232.0,0.2215148998676413,0.4835536266524781,-0.8127274629992745,0.23786784182530338
-599.656583070755,4704.0,-4888.0,-15324.0,207.0,355.0,651.0,0.22363994875514617,0.43303387289571255,-0.827279822864695,0.27941892013014186
-599.6721222400665,4576.0,-4296.0,-15304.0,263.0,775.0,2079.0,0.21466589296984284,0.2642361656910707,-0.8680765273384207,0.3613045056741044
-599.6877167224884,3840.0,-4000.0,-14848.0,-433.0,859.0,1735.0,0.23142042676073996,0.09622682298292948,-0.8925022581799664,0.37499960501332436
-599.7033171653748,3676.0,-4860.0,-15124.0,-592.0,365.0,195.0,0.2577735301570338,0.05704313451936655,-0.9044759662682592,0.33499569310318794
-599.7189004421234,3804.0,-5004.0,-15264.0,72.0,-414.0,-578.0,0.240983648867213,0.11615538290360246,-0.9071705895867601,0.3247711954437636
-599.7344810962677,4208.0,-4648.0,-15284.0,302.0,-489.0,-584.0,0.21504014921933517,0.18213777625028887,-0.9007982561539112,0.33037261750393004
-599.7500767707825,4684.0,-4184.0,-15148.0,221.0,299.0,452.0,0.22157259637519028,0.14198570734687685,-0.8949616522579501,0.3602627991237567
-599.7656810283661,4324.0,-4104.0,-14996.0,-381.0,624.0,832.0,0.2475866420024671,0.049830441004621064,-0.9011149184852885,0.3524339449236969
-599.7813403606415,4084.0,-4808.0,-15064.0,-636.0,469.0,762.0,0.26243888248326397,-0.03806112724122209,-0.9098179437893799,0.3192310960932971
-599.7969098091125,3832.0,-5396.0,-15248.0,-297.0,-567.0,-1014.0,0.24316952450580698,0.05114152500137814,-0.9294815958403122,0.27261160974232135
-599.8125336170197,4160.0,-5056.0,-15324.0,655.0,-321.0,-271.0,0.21993961490227903,0.09443096202162837,-0.9175079816712767,0.31762944255501113
-599.8281102180481,4416.0,-3980.0,-15080.0,278.0,136.0,40.0,0.22721044643022625,0.09278691856654205,-0.9073116692471087,0.34139644934288377
-599.8437130451202,4200.0,-3952.0,-14748.0,-968.0,221.0,323.0,0.24178333749251982,0.04129442006211073,-0.9306364340355276,0.2715721197552302
-599.8593201637268,4316.0,-5092.0,-15292.0,-952.0,202.0,204.0,0.25561075601274785,-0.00014610469092389062,-0.946213263863528,0.1983521599396903
-599.8749024868011,3872.0,-5388.0,-15588.0,-8.0,-130.0,215.0,0.24080842546558265,-0.015861418795891657,-0.9491100248407882,0.20236076290942992
-599.8904674053192,3996.0,-4828.0,-15032.0,278.0,-170.0,221.0,0.2228137378911223,-0.025331517898588944,-0.9470022330579092,0.22999809345138714
-599.90602684021,4128.0,-4524.0,-14360.0,-628.0,-489.0,154.0,0.17727714651105855,-0.040354124827472054,-0.9664351985463586,0.1815140902105562
-599.9216787815094,4460.0,-5220.0,-16400.0,-316.0,517.0,783.0,0.2063671606869269,-0.11902571117967052,-0.9572012877243452,0.16435075249917477
-599.9373486042023,3820.0,-4672.0,-15804.0,1507.0,2022.0,3253.0,0.3237555021571047,-0.36952194794273246,-0.8145758956568614,0.3083861459703261
-599.952974319458,2600.0,-2796.0,-15072.0,938.0,1728.0,2609.0,0.3908848677604487,-0.5530063532964352,-0.6314024766922528,0.37778817582947694
-599.9685652256012,2036.0,-2600.0,-15588.0,-523.0,870.0,3266.0,0.29297373388344844,-0.7470118418171938,-0.44223522173686586,0.4007090067550508
-599.9841785430908,1680.0,-2796.0,-15032.0,-101.0,1975.0,4733.0,0.17979993880378817,-0.9140293098389142,-0.07927476982223987,0.354877321945462
-599.9998061656952,1152.0,-4836.0,-14672.0,-3325.0,-1259.0,-2444.0,-0.017260145797500792,-0.8520189679343481,-0.3715486455174116,0.3683983844444953
-600.015435218811,3576.0,-8200.0,-16064.0,-1512.0,-3329.0,-1404.0,-0.18198144763045945,-0.6597994466555362,-0.4917501298515673,0.5382650394576424
-600.0310299396515,6200.0,-7384.0,-16936.0,4283.0,2965.0,2463.0,0.06823986625268529,-0.8691574845343937,-0.17506924103393812,0.45744873874070496
-600.0466597080231,3744.0,-2880.0,-14400.0,5065.0,1674.0,4564.0,0.25226693631697944,-0.8319551135352563,0.3267816995217413,0.37070986331829126
-600.0622589588165,2580.0,-1056.0,-13236.0,-762.0,482.0,999.0,0.14971388487366707,-0.8302584852662559,0.3826738592296095,0.37658640148275907
-600.0778348445892,3448.0,-4296.0,-15440.0,-2919.0,-1762.0,-87.0,-0.00011369318217703786,-0.7797569133928467,0.2467443215941203,0.5754097521340581
-600.0934023857117,4232.0,-5860.0,-14456.0,-1331.0,689.0,8370.0,-0.42225749229385967,-0.5093426886266436,0.6019068529291015,0.4471876296827408
-600.1089732646942,3456.0,-7504.0,-15064.0,-1308.0,-4818.0,-7733.0,0.058195961613505,-0.5296862833818502,0.2999978804098992,0.7912312828740845
-600.1245551109314,7748.0,-7384.0,-18248.0,1406.0,-1067.0,-4288.0,0.41462281795332667,-0.5203263217625728,0.1793555938006437,0.7246930444580607
-600.140120267868,8308.0,-5356.0,-16172.0,7502.0,7392.0,9834.0,0.010944379521904704,-0.35019900900760664,0.8513702569018523,0.3903966704645993
-600.1557688713074,1324.0,-1136.0,-12060.0,2497.0,3257.0,7597.0,-0.3302891763467492,0.08435601194593544,0.9358164359944254,0.0896700694739032
-600.1714129447937,1208.0,-3272.0,-15104.0,-3803.0,-5086.0,-11028.0,0.13356883859649082,-0.4461849337571002,0.7587723690763707,0.4553491651144079
-600.1870012283325,7328.0,-6364.0,-17068.0,-1751.0,-4816.0,-2598.0,0.43582397789452176,-0.3998940146745236,0.4755793030065858,0.6511271487746902
-600.2026259899139,9436.0,-7380.0,-17048.0,4176.0,4305.0,4650.0,0.11550843688367558,-0.24411947445024682,0.8662303810963188,0.42036699450426857
-600.2182154655457,6216.0,-4264.0,-15672.0,5050.0,5756.0,5510.0,-0.31983014062632326,0.009397034996260325,0.9471681109011796,-0.022202400143137457
-600.2338109016418,4804.0,-2356.0,-16672.0,1969.0,7809.0,4129.0,-0.7523529074590102,0.2439928644471508,0.5667824974201575,-0.23062997497076895
-600.2493929862976,3336.0,-4364.0,-16884.0,414.0,9844.0,9060.0,-0.6930308673905933,0.5613937734677181,-0.18242844708567912,-0.4138418896745784
-600.2650334835052,236.0,-6968.0,-15548.0,2239.0,7241.0,3039.0,-0.47035650614030616,0.520675225363412,-0.6922524323440354,-0.16866723670592051
-600.2806625366211,-32.0,-7456.0,-15408.0,2895.0,300.0,-7067.0,-0.5720095132526005,0.6932348939388212,-0.3544885742175069,0.2580084287836223
-600.2962536811829,4144.0,-8376.0,-14108.0,3163.0,-5062.0,-16343.0,-0.30349552563043575,0.6353470314171508,0.5269275286265009,0.4759957932243598
-600.3118460178375,10888.0,-8024.0,-14476.0,4831.0,-2684.0,-17620.0,0.14970792560779447,-0.10077836397402792,0.9362861115127278,0.30132967950951234
-600.3274662494659,14132.0,-6420.0,-13204.0,7872.0,7219.0,-6017.0,-0.14537365521935028,-0.46391710040201245,0.808906325347047,-0.33063269822613145
-600.3430731296539,10860.0,-3296.0,-10796.0,8072.0,14212.0,7859.0,-0.31801226912165775,0.2128556590866681,0.3812557268859977,-0.8415490097430477
-600.3586795330048,3516.0,-916.0,-7740.0,3085.0,13672.0,11299.0,-0.00023135660098808737,0.8093915532820778,-0.2332281947542246,-0.5389711208603241
-600.3742668628693,-2776.0,-1176.0,-10888.0,-2725.0,9456.0,8620.0,0.5205313637464275,0.7108690009168628,-0.47049468145181655,0.04844705994484344
-600.3898720741272,-7104.0,-3500.0,-12600.0,-4210.0,1953.0,7053.0,0.6697610860164643,0.1785990987848582,-0.6740513239632103,0.2552983788329373
-600.4055132865906,-7952.0,-7504.0,-11064.0,-6027.0,-12272.0,-14816.0,0.18363840949563232,0.4799146870207664,-0.6398098506572754,-0.5714911921819874
-600.4211411476135,-316.0,-10684.0,-13104.0,-7425.0,-25821.0,-32768.0,-0.6738975934508211,0.23566846506840852,0.1798891780154008,-0.6767291125305869
-600.4367446899414,13388.0,-12572.0,-16404.0,-3815.0,-24042.0,-32768.0,-0.5819175457871436,-0.3983905157847164,0.6738294552497278,0.22047864312833165
-600.4523389339447,22340.0,-10224.0,-17120.0,4879.0,-4424.0,-12992.0,0.060560441018581046,-0.8192665702214447,0.3344052289598097,0.46185264180857827
-600.4679853916168,19812.0,-4092.0,-15300.0,11874.0,15998.0,19805.0,-0.13432572529098746,-0.3109230995963215,0.8737703097025501,-0.34901127710258284
-600.4835865497589,6124.0,2964.0,-13708.0,9422.0,18971.0,25707.0,-0.17644699659344076,0.688573384632706,0.3454898300710444,-0.6126744067496983
-600.4992074966431,-3168.0,5420.0,-12780.0,-3192.0,6522.0,11436.0,0.2778982995270762,0.9243419105238607,-0.17531010006141148,-0.19398694900821625
-600.5148231983185,-3132.0,456.0,-14264.0,-15177.0,-8213.0,-5856.0,0.6798868261586676,0.2698994143840094,0.18890072712640615,-0.6551524441091383
-600.5304131507874,3668.0,-7972.0,-16988.0,-15022.0,-12837.0,-12633.0,0.22954374397757177,-0.6864069277845296,0.2563484225126719,-0.6406564487815815
-600.5460360050201,9928.0,-12492.0,-18688.0,-5038.0,-6066.0,-6262.0,-0.21527469808875385,-0.9514563059792669,0.03120345447226611,-0.217747667275865
-600.561653137207,10648.0,-9780.0,-18448.0,3188.0,5631.0,7458.0,0.13341922624235056,-0.6696381683406988,0.36676948101185636,-0.631873548558966
-600.5772767066956,5228.0,-5324.0,-16232.0,4513.0,10518.0,13600.0,0.43912519418743445,0.21562228805959824,0.5609728511940021,-0.6678214978158936
-600.5928866863251,-816.0,-3360.0,-14036.0,484.0,4935.0,7461.0,0.490883297857221,0.6988141905721194,0.4582994547124339,-0.2462801753088103
-600.6085107326508,-1596.0,-4828.0,-13080.0,-2721.0,-4364.0,-6417.0,0.5631856155065298,0.18840765572456944,0.5860533987375018,-0.5512403573570481
-600.6240892410278,3828.0,-6180.0,-14184.0,-2244.0,-10083.0,-13148.0,0.27308404263200503,-0.6102133288913204,0.23452801324946107,-0.7057346597017855
-600.6397135257721,9844.0,-5356.0,-15660.0,622.0,-5248.0,-8146.0,-0.06723075309463067,-0.828130196861217,-0.27655774098138036,-0.48290394364532446
-600.6552910804749,11664.0,-3156.0,-15216.0,1399.0,3304.0,4436.0,0.26922756085153804,-0.7199735367644797,-0.030664449329145145,-0.6389165191041143
-600.6708846092224,7508.0,-1928.0,-14536.0,-1529.0,8230.0,10647.0,0.5094864944383365,-0.21045676133842486,0.5922399533436387,-0.5876932033428675
-600.6864497661591,2584.0,-3816.0,-14096.0,-4717.0,6063.0,8124.0,0.37645335359721616,0.22220978749754197,0.8968740545250363,-0.06725037714042073
-600.7020313739777,-96.0,-7316.0,-15140.0,-3848.0,-156.0,-1484.0,0.4274380359423166,-0.020066263692644692,0.8874445275288139,0.17127837297905538
-600.7176249027252,1540.0,-8744.0,-15360.0,363.0,-5128.0,-9285.0,0.7071304141003766,-0.47619462622477987,0.5028483475650231,-0.14264920175030066
-600.7332119941711,5232.0,-6080.0,-15484.0,3515.0,-5844.0,-9937.0,0.6792294774543028,-0.5294201897355949,-0.21663710861157798,-0.4598151180962809
-600.748795747757,8072.0,-2956.0,-15184.0,2987.0,-1948.0,-4228.0,0.5498987059753156,-0.3159684970376995,-0.5830141917878001,-0.5078087969112282
-600.764377117157,8016.0,-1412.0,-14508.0,-730.0,1987.0,1620.0,0.6842836755435442,-0.3365485302994011,-0.4001751937220798,-0.5082821583209728
-600.7800040245056,6164.0,-3300.0,-14580.0,-3964.0,3237.0,3592.0,0.7375159968847158,-0.4874946737429649,0.06516388915464798,-0.46278803459210693
-600.7955753803253,4596.0,-6268.0,-15132.0,-3199.0,2117.0,2527.0,0.6416556455842779,-0.5511307876376225,0.40661993577727973,-0.34524355929725714
-600.811173915863,3548.0,-7376.0,-15092.0,146.0,145.0,-1501.0,0.5929384178818166,-0.5869497405894186,0.33531470591721296,-0.4375820867191382
-600.826738357544,3920.0,-5552.0,-14772.0,2080.0,-1648.0,-3447.0,0.5758046379825207,-0.6014775314610268,-0.005462183730718405,-0.5537544244286088
-600.8423159122467,5288.0,-3516.0,-14476.0,840.0,-1935.0,-3357.0,0.43150877485113137,-0.6156054356341425,-0.3019166917128804,-0.5862392311243957
-600.8578932285309,6416.0,-3452.0,-14472.0,-785.0,-957.0,-928.0,0.31370754946212315,-0.6638471036848814,-0.34457679732871477,-0.5849456616493106
-600.8735163211823,6892.0,-4600.0,-14840.0,-1633.0,1059.0,1837.0,0.33564937761314145,-0.69134252600259,-0.12256622552221129,-0.6279829037557528
-600.8891181945801,6112.0,-5252.0,-15324.0,-697.0,2201.0,3211.0,0.46607251265302635,-0.5915021354076264,0.16429348595514248,-0.6371101060493546
-600.9046938419342,4540.0,-5028.0,-14708.0,75.0,1233.0,1488.0,0.5274269528420791,-0.4918715473299447,0.28313069173456995,-0.6322342933919903
-600.9203674793243,3960.0,-4572.0,-14552.0,-35.0,-506.0,-908.0,0.48619762973623254,-0.5418398833736782,0.2219868601886485,-0.6486472381256653
-600.9360599517822,4896.0,-4696.0,-14772.0,-527.0,-1064.0,-1569.0,0.3872814613037062,-0.6455891228160082,0.13064736251685746,-0.6451038838043932
-600.9516627788544,5884.0,-4836.0,-14984.0,-83.0,-484.0,-282.0,0.3716830607999433,-0.6782464661660909,0.10299167178245515,-0.6254807343084601
-600.9672989845276,5900.0,-4552.0,-14688.0,-13.0,592.0,840.0,0.40968867797710384,-0.6364856369772369,0.17195544155191383,-0.6304542387673668
-600.9828712940216,5548.0,-4444.0,-14640.0,-689.0,570.0,815.0,0.4053276171420781,-0.6143454527140729,0.27401843426232936,-0.6190339935705366
-600.9984705448151,4896.0,-4620.0,-14772.0,-678.0,213.0,261.0,0.377028571561904,-0.6194418363891688,0.3315104552051568,-0.6035247183392526
-601.0140573978424,5108.0,-5060.0,-14676.0,-155.0,-244.0,-509.0,0.34830838956829224,-0.6514661325545283,0.3038139157459005,-0.6016396334101763
-601.02965259552,4984.0,-4720.0,-14760.0,101.0,-586.0,-1123.0,0.30860602894367495,-0.7048081754356097,0.21561398083860384,-0.6012639736469103
-601.0452284812927,5276.0,-4456.0,-14488.0,-293.0,-588.0,-985.0,0.24853389195551115,-0.7582312275504723,0.15380864935942762,-0.5828028907778158
-601.0608010292053,5120.0,-4784.0,-14612.0,-562.0,-573.0,-1021.0,0.16597927032232238,-0.80826011120415,0.10181265913838115,-0.555698350635213
-601.0763649940491,5468.0,-5092.0,-14632.0,-134.0,-568.0,-912.0,0.11681170576149898,-0.8422546852474243,0.035664065035034186,-0.5250620392306302
-601.0919852256775,5328.0,-4920.0,-14148.0,-428.0,-944.0,-1254.0,0.03056162055328009,-0.8850402688673346,-0.04598723172268283,-0.4622281734715849
-601.1075577735901,5552.0,-5064.0,-14132.0,-1014.0,-1422.0,-1215.0,-0.10061177096820265,-0.9245484326091098,-0.1009187148244274,-0.3534160159088237
-601.1231234073639,5952.0,-5364.0,-14848.0,-639.0,-850.0,-455.0,-0.17255061716972464,-0.9364910373396039,-0.1098284581256154,-0.28486581276574774
-601.1386942863464,5636.0,-5136.0,-14260.0,-498.0,-151.0,839.0,-0.19283497849283257,-0.9374008955556036,-0.026439982958045657,-0.28878220059830473
-601.154274225235,5036.0,-4936.0,-14220.0,-1642.0,-836.0,720.0,-0.306134533846346,-0.919011223754525,0.08670297807467597,-0.23277158630913916
-601.1698682308197,5252.0,-5192.0,-15176.0,-1426.0,-1461.0,-415.0,-0.4108616327751308,-0.8991126701889596,0.11954251126278279,-0.09218846467980686
-601.1854989528656,5588.0,-4640.0,-15528.0,-899.0,-1779.0,138.0,-0.4546066629802595,-0.8667972049847079,0.19848007692729552,0.05100045556253136
-601.2010984420776,5712.0,-4516.0,-14748.0,-1770.0,-2020.0,773.0,-0.5408853774720425,-0.7522789332385094,0.31994392032408697,0.19787698928907999
-601.2167110443115,6352.0,-5008.0,-15132.0,-1864.0,-1580.0,1683.0,-0.6273595631304437,-0.5712985899346956,0.45787741468973137,0.2653039253468657
-601.2323036193848,6740.0,-4500.0,-15628.0,-635.0,341.0,5261.0,-0.7206495229907566,-0.30328710716151897,0.6233032475521699,-0.013200652775928117
-601.2479043006897,5464.0,-3296.0,-15768.0,112.0,2681.0,7180.0,-0.7106969672838535,0.06920122547893898,0.5359890329629511,-0.4503740308112661
-601.2635190486908,3408.0,-2132.0,-15428.0,-468.0,2193.0,6924.0,-0.45432144260320345,0.42907394988254766,0.31811999239919403,-0.7129426644261584
-601.2790710926056,2560.0,-2428.0,-15668.0,-622.0,1351.0,3584.0,-0.23252811887161118,0.6037821340077382,0.16032680548844688,-0.7454348556573949
-601.2946767807007,2692.0,-3132.0,-16688.0,459.0,1119.0,2655.0,-0.09656279474555456,0.6828491184113963,-0.031019398372446414,-0.7234849722560368
-601.3102424144745,3052.0,-3440.0,-16996.0,2530.0,1439.0,914.0,-0.17949018407079517,0.7248746466757021,-0.24864985502801376,-0.6168575767740523
-601.3258044719696,3504.0,-2772.0,-16576.0,3773.0,1606.0,863.0,-0.3163313095239398,0.6890422967270804,-0.4992014321806042,-0.41946769368423736
-601.3413822650909,4236.0,-2352.0,-16916.0,3962.0,3302.0,884.0,-0.3440289822354464,0.6022910077735611,-0.7173190278788802,-0.0659015445953208
-601.356954574585,4400.0,-2976.0,-18120.0,5330.0,6655.0,4724.0,-0.1372024782647694,0.14082821672294002,-0.9110266252180598,0.36245466127011666
-601.3725664615631,3140.0,-2812.0,-19100.0,7880.0,9869.0,4732.0,0.2597065959372945,-0.41560353784487597,-0.5427835688693984,0.6820646455599972
-601.3881464004517,1684.0,-2188.0,-19132.0,9701.0,10998.0,3684.0,0.5515752735419917,-0.6191252107166151,0.25205008453876604,0.4989182758290027
-601.4037528038025,660.0,-2336.0,-18808.0,7502.0,8695.0,-2017.0,0.5980919520235293,-0.4774491767727082,0.6225994691599345,-0.1633958430484553
-601.4193556308746,2996.0,-5124.0,-21516.0,4517.0,5698.0,-5995.0,0.30196506061372624,-0.37561081486244585,0.4679860078145957,-0.7407582023958122
-601.4349498748779,7096.0,-7840.0,-28308.0,3565.0,7065.0,-6080.0,-0.19820002369710993,-0.055418627202740905,0.16939833341634586,-0.963820383163374
-601.4505414962769,10176.0,-8484.0,-32680.0,6804.0,15799.0,2415.0,-0.10779653803876212,0.6560681289202491,-0.3657788141538842,-0.6512759597268422
-601.4661667346954,7708.0,-8680.0,-31672.0,10946.0,24636.0,14373.0,0.30509827692466296,0.5248648436089508,-0.7172935478695679,0.3419384499374723
-601.4817771911621,680.0,-8508.0,-27644.0,16080.0,28265.0,15583.0,0.2642883970803252,-0.26223524443930246,-0.06021599916188624,0.9261524459760969
-601.4973742961884,-6568.0,-5596.0,-21796.0,16364.0,20361.0,7696.0,0.04799846598722243,-0.6093745217306376,0.7399886523274984,0.2806699733761394
-601.5129489898682,-9420.0,-5144.0,-15676.0,13424.0,5078.0,-9973.0,0.3719632351380778,-0.7245610226892792,0.30681345624010564,-0.49246337851162264
-601.5285224914551,-4860.0,-4380.0,-13748.0,14584.0,-4661.0,-26559.0,0.09715635249523158,-0.40713182110378243,-0.75298613303062,-0.5077560505578771
-601.5440857410431,812.0,132.0,-16744.0,12985.0,-1489.0,-10212.0,0.004615597450845992,0.1750111101331827,-0.9684460401594555,0.17737551942022087
-601.5596551895142,712.0,3316.0,-14092.0,6349.0,2664.0,7565.0,0.011744003488975098,-0.3752994482934068,-0.7346419889460353,0.5650783579028035
-601.5752754211426,-3008.0,2392.0,-8740.0,-3974.0,313.0,8824.0,-0.40754128684908336,-0.73370222560637,-0.48985406947612387,0.23586889212300377
-601.5908741950989,-3916.0,-1160.0,-8488.0,-11234.0,-3060.0,17382.0,-0.7759691966635526,-0.48732072381415836,0.24045833555276366,-0.32026568163598224
-601.6064677238464,-5012.0,-4288.0,-9200.0,-12617.0,-4611.0,23746.0,-0.21369773317945298,0.28520128292339986,0.7416899090579185,-0.5682337422702622
-601.6220440864563,-6764.0,-5372.0,-10548.0,-12467.0,-6913.0,23908.0,0.6584220829490627,0.6556535165045261,0.34025884591510963,-0.14430088273044178
-601.6376271247864,-7204.0,-3668.0,-11392.0,-12356.0,-9885.0,26774.0,0.6900956378088136,0.21310281637655737,-0.5545629199939822,0.41329791688003265
-601.6532068252563,-8072.0,-3468.0,-12236.0,-14580.0,-14013.0,19111.0,-0.1547909286958285,-0.4129604434064382,-0.8681381249516877,0.22768319345179738
-601.6688013076782,-9096.0,-4612.0,-12168.0,-15948.0,-21564.0,4967.0,-0.953567069527722,-0.05627014874077546,-0.2767268225438849,-0.10471762009217447
-601.6843984127045,-5988.0,-6828.0,-12748.0,-17759.0,-29336.0,-5916.0,-0.5640327656557811,0.40551926432569196,0.7186004105255421,0.032165439837852014
-601.700012922287,1256.0,-7564.0,-13512.0,-19969.0,-32768.0,-2286.0,0.6296120736284815,0.3819765870537078,0.6731211265592576,0.06775302697031886
-601.715577840805,8228.0,-10536.0,-13804.0,-20200.0,-30475.0,-1373.0,0.926873821662035,-0.18783709702038073,-0.32132447014136195,0.0487106619637133
-601.731148481369,11656.0,-12420.0,-12600.0,-15617.0,-25713.0,6937.0,-0.02769914601212894,-0.5345761811159025,-0.8190447302224642,0.20646257236735951
-601.7467141151428,11040.0,-10728.0,-12156.0,-11559.0,-22239.0,13989.0,-0.8930224280061158,-0.4099979020880601,-0.11896354540868896,0.14233881489335934
-601.762298822403,7792.0,-8132.0,-12716.0,-13478.0,-20636.0,8841.0,-0.6811855027441917,0.3227157877000956,0.6568193375173653,0.020716879193041923
-601.7778725624084,3960.0,-9084.0,-14740.0,-15959.0,-22745.0,-7136.0,0.402451521128315,0.33519408668511297,0.809044792598915,0.26669124650317416
-601.7935004234314,5848.0,-11648.0,-16068.0,-14949.0,-24240.0,-18762.0,0.9516268278214481,-0.30272148364290435,0.050507100961311495,-0.014666855968843616
-601.8090999126434,11492.0,-10932.0,-16180.0,-10983.0,-22603.0,-17618.0,0.2583094265287663,-0.4622673155787944,-0.79677176596155,-0.29110122308308534
-601.8247210979462,14872.0,-9532.0,-15368.0,-9398.0,-17173.0,-12056.0,-0.7231789192739633,-0.12141537848517897,-0.6385684366731422,-0.23345429589078523
-601.840304851532,13540.0,-9576.0,-14792.0,-8654.0,-11776.0,-7320.0,-0.9300837030594465,0.34033804864244754,0.11679345516629953,-0.07398382782606024
-601.8559296131134,9248.0,-10416.0,-15204.0,-4174.0,-10610.0,-3508.0,-0.49913325214073306,0.3983632824416892,0.7683362344606013,-0.04280330156193894
-601.8715107440948,9856.0,-8548.0,-15036.0,-6399.0,-5383.0,-7156.0,0.041595943366940266,0.12787879661005785,0.9199253466668147,0.36831256757395414
-601.8870959281921,6508.0,-10476.0,-15236.0,335.0,-4184.0,-12124.0,0.5085304898436387,-0.4728193877110233,0.7000020396270168,0.16684037887147826
-601.9026696681976,5232.0,-6544.0,-14444.0,3472.0,-2916.0,-13805.0,0.6382370542038046,-0.6933519360367729,0.031910620487233164,-0.33301391522792007
-601.9182965755463,6228.0,-5152.0,-15504.0,1249.0,-4348.0,-15512.0,0.15905955816900094,-0.4590689043572498,-0.6855452793173038,-0.5422024234666205
-601.9340076446533,8108.0,-6032.0,-15748.0,308.0,741.0,-15057.0,-0.3005238429938507,0.2910053950634321,-0.7824804403359403,-0.4612218992284039
-601.9495854377747,6712.0,-9604.0,-10888.0,1051.0,-9144.0,-20204.0,-0.809408823138485,0.5848169338006428,-0.032930603366965516,-0.0419772120021695
-601.9652121067047,10420.0,-9524.0,-20592.0,3717.0,-1768.0,-32768.0,-0.3684759082951976,0.13447291471177258,0.5738847145974869,0.718887247463961
-601.9808080196381,16684.0,-7748.0,-26188.0,4632.0,-1423.0,-7029.0,0.07166699935931233,-0.22214780931439707,0.7962178033244304,0.5581678974008315
-601.9963781833649,19888.0,-5656.0,-32768.0,17866.0,32767.0,10214.0,-0.6690827773796867,-0.28300981384721907,0.5876042791178796,-0.3563073019773859
-602.0119752883911,460.0,11420.0,-32768.0,32767.0,32767.0,32767.0,-0.10312963438205366,0.09949247725251427,-0.30382078298961923,-0.9418908945870305
-602.027569770813,-22512.0,18960.0,-17152.0,2162.0,32767.0,27602.0,0.7782257433446338,0.5269007268180618,-0.26228284741615415,-0.21897037339687042
-602.0431606769562,-32768.0,-11968.0,-22636.0,-32768.0,6229.0,-32768.0,0.4287095157884359,-0.19741940386571202,0.5459885298780851,-0.692192354256618
-602.058792591095,-16800.0,-32768.0,-21660.0,13988.0,-15744.0,-32637.0,-0.1560802210509603,-0.6169381800679742,-0.4102889412894527,-0.6532145369070406
-602.0744380950928,9020.0,-8700.0,-10380.0,26223.0,-30374.0,-29952.0,-0.34331342306583096,-0.3643457197139219,-0.6924056008821494,0.5195792277757029
-602.0900251865387,17144.0,8084.0,-7840.0,19114.0,3715.0,-31360.0,0.5665763331703386,0.23408612182908842,-0.2769133318815744,0.7399418577729711
-602.1056137084961,17996.0,11576.0,-8592.0,-2535.0,8766.0,30724.0,-0.3884182734660309,-0.40382819711634194,-0.213752500859098,0.8002274054466728
-602.121205329895,12288.0,5208.0,-15240.0,-22843.0,29274.0,20221.0,-0.538703405466785,-0.5365290579501206,-0.5463290242367954,-0.3513684792210532
-602.1367864608765,888.0,-8808.0,-27208.0,-28846.0,23396.0,32767.0,0.052095895617484234,-0.005715016273838128,0.17411188407641046,-0.9833302639867059
-602.1523582935333,-25312.0,-32768.0,-23564.0,7865.0,4184.0,-8228.0,-0.4901177157349306,0.1814769115311298,-0.33352540430551986,-0.7846091765884056
-602.167977809906,-5880.0,-8164.0,-13532.0,24716.0,-5317.0,-27919.0,-0.8580383309062682,-0.1242299569027993,-0.39478752516020543,0.3041051635230716
-602.1835627555847,5820.0,8096.0,-10620.0,12539.0,-3780.0,-16637.0,-0.19546812378021078,-0.1855764667104888,0.019365024674293293,0.9627972701500868
-602.1991317272186,10112.0,8180.0,-13120.0,-8548.0,1372.0,-2380.0,-0.10730498790594786,-0.12515257419150982,-0.5987375090580974,0.7837958075868025
-602.2147057056427,10080.0,-1464.0,-16048.0,-17436.0,8912.0,9434.0,-0.22254847189845609,-0.49631238086988266,-0.8263326222350952,-0.14601573778535798
-602.2302854061127,4020.0,-13084.0,-17416.0,-8983.0,11158.0,10398.0,0.17703598663429293,-0.5051334154551345,-0.25985258657088184,-0.8037257774138362
-602.2458908557892,-5784.0,-15876.0,-17108.0,6640.0,2713.0,-1548.0,0.35606984128059843,-0.14931459527839752,-0.6332120155361933,-0.6707920416551238
-602.2615211009979,-2616.0,-5832.0,-14868.0,8939.0,-1892.0,-16516.0,-0.31081943253381433,0.4827764317072059,-0.742415652540236,-0.3451625649033668
-602.2771632671356,3980.0,80.0,-13428.0,830.0,-4018.0,-9065.0,-0.6637277817421546,0.6997058943861205,-0.20886212323717637,-0.16202995581625204
-602.2927303314209,7780.0,-3096.0,-14724.0,-5815.0,897.0,-4741.0,-0.2997873045783904,0.9481088204538318,0.09262341817792814,0.05136281725434938
-602.3083364963531,7836.0,-7392.0,-16072.0,-4575.0,5506.0,5231.0,0.008655228635809328,0.8584082618162852,-0.3991048593398049,0.32214228892550034
-602.3239479064941,3160.0,-9172.0,-16252.0,639.0,6640.0,5352.0,0.03312240713145347,0.389358410147946,-0.6228428460382044,0.6777681932135144
-602.3395485877991,-408.0,-5932.0,-15616.0,2949.0,3228.0,1600.0,0.012669167964232128,0.11125964345735553,-0.4574087194088272,0.8821780134018377
-602.3551161289215,380.0,-3288.0,-14660.0,1305.0,608.0,-5595.0,0.4062720762716642,0.25831752040910055,-0.2698920099618061,0.8338904973978187
-602.3707044124603,2616.0,-3464.0,-14460.0,-1528.0,-559.0,-7579.0,0.810882565848033,0.35076997176361785,-0.19076475135838664,0.42783022444871055
-602.386289358139,5020.0,-5180.0,-15032.0,-1258.0,-1009.0,-4573.0,0.9239069022664377,0.3460103161948964,-0.15602163348480297,0.04827159533179668
-602.4018459320068,5400.0,-6076.0,-14940.0,-315.0,1380.0,-2648.0,0.9318688365898762,0.33953193436994017,0.03251830029552916,-0.12361673463381484
-602.4174118041992,4220.0,-5720.0,-15408.0,470.0,2387.0,-287.0,0.8879293846415233,0.3940152126871538,0.22492153491904313,-0.07578735508569188
-602.4329953193665,2372.0,-5292.0,-14984.0,415.0,2782.0,-947.0,0.7866437577273001,0.41255524097275365,0.45544211659531497,-0.05968458767358129
-602.4485909938812,956.0,-5496.0,-14908.0,-272.0,827.0,-5038.0,0.673130932172982,0.1808480031990629,0.6348889926305634,-0.33332373891967587
-602.4641878604889,1664.0,-6252.0,-14800.0,-375.0,-368.0,-8632.0,0.3576708261300203,-0.26353856086305744,0.6071174641133891,-0.658807552963857
-602.4798550605774,3104.0,-6256.0,-14720.0,278.0,-853.0,-10226.0,-0.13313825564195442,-0.629974894086824,0.2454633439638932,-0.7246748129160939
-602.4954524040222,3892.0,-5768.0,-14900.0,-121.0,-755.0,-9480.0,-0.5563679402803371,-0.6768503025539288,-0.1993856228831872,-0.43883226447966844
-602.5110886096954,4196.0,-5792.0,-15172.0,129.0,-962.0,-10106.0,-0.7128139818413047,-0.40742099527152026,-0.5647996933125611,0.08310033897370728
-602.5266726016998,4748.0,-5324.0,-15140.0,654.0,-1128.0,-10952.0,-0.47946245195707254,0.07194644669697857,-0.6336244003057244,0.6028760944905692
-602.5422596931458,5364.0,-4676.0,-15524.0,161.0,-887.0,-7795.0,-0.09836937716867214,0.4480212453601728,-0.44496188742365084,0.7691614577458687
-602.5578427314758,5672.0,-4852.0,-15368.0,-411.0,-297.0,-4871.0,0.214367324463081,0.6076222696711697,-0.2572218498539564,0.7201935486797318
-602.57350897789,5560.0,-5192.0,-15444.0,482.0,-1451.0,-406.0,0.17993365143858514,0.7103638926889568,-0.23050297279724696,0.640215120545744
-602.5891981124878,4660.0,-5168.0,-14664.0,1567.0,323.0,-4399.0,0.31005703367978776,0.7457932042746429,0.12466588338756836,0.5762946727522728
-602.6048064231873,4412.0,-3604.0,-15020.0,1305.0,-439.0,-59.0,0.23100721961484544,0.7969833089774441,0.1809061690590559,0.5279452885418705
-602.6204032897949,4816.0,-3640.0,-15028.0,793.0,1090.0,1695.0,0.07895957419283822,0.775952569486167,0.11937907892213812,0.6143383685452201
-602.6360554695129,4676.0,-3404.0,-14512.0,-1408.0,766.0,3008.0,0.0047441829898069955,0.7253230918094453,-0.14812344045293588,0.6722673215352147
-602.651641368866,5276.0,-5080.0,-15992.0,-1896.0,2303.0,4313.0,-0.08962096319680454,0.4854833971352454,-0.4832748681621661,0.7229933304426395
-602.6673121452332,4780.0,-5772.0,-15912.0,520.0,4123.0,9146.0,-0.3871004877098734,-0.12348425394199143,-0.6544970283629571,0.6376037102364026
-602.6829061508179,2812.0,-4776.0,-14764.0,1992.0,4742.0,7333.0,-0.39602555017023156,-0.6881507758014613,-0.4924891098125037,0.35646423395945337
-602.6984777450562,1572.0,-3628.0,-13988.0,35.0,1928.0,4246.0,-0.41022522060863637,-0.8631793825768359,-0.2807949544099716,0.08826559606534187
-602.7140595912933,2412.0,-4520.0,-14752.0,-2148.0,227.0,1562.0,-0.5632247842469095,-0.8049672882734777,-0.18296030660264948,-0.03648333081738039
-602.7296507358551,4608.0,-6824.0,-15124.0,-2079.0,-74.0,2659.0,-0.6731786765201156,-0.7152449843064678,0.013535892301510598,-0.1872748288549967
-602.745218038559,5844.0,-7624.0,-15572.0,617.0,1920.0,3968.0,-0.5330302863268126,-0.6670156645654276,0.1290428400784489,-0.5042982872340386
-602.7607982158661,5432.0,-5504.0,-15720.0,3418.0,4310.0,6273.0,-0.08595661177620051,-0.457461357376932,0.1159447831756844,-0.8774379605722298
-602.7764203548431,4232.0,-3112.0,-14556.0,2419.0,5031.0,7432.0,0.4107064283080472,-0.012018266622676398,0.14740639692168028,-0.8996928059956916
-602.7920815944672,2712.0,-3264.0,-13416.0,-1586.0,2035.0,4770.0,0.6845320845354592,0.13745841077028972,0.31647156826835493,-0.642157891042237
-602.8076841831207,3416.0,-5956.0,-14792.0,-3436.0,-215.0,1739.0,0.7856814520360187,-0.03023345839484183,0.45075170835062117,-0.4226268937716309
-602.823305606842,4648.0,-7884.0,-16176.0,-597.0,106.0,2454.0,0.8498788606989328,0.02840786513817083,0.47532323247915,-0.22575814492714805
-602.8388764858246,5092.0,-7368.0,-15320.0,2760.0,1723.0,3206.0,0.7752865595160521,0.37149991654616177,0.5025835943349057,-0.09125948359137577
-602.8544702529907,4520.0,-4700.0,-14144.0,2419.0,1636.0,3652.0,0.6054824578896953,0.6559636229865035,0.44050635578983527,0.09516758384572346
-602.870050907135,4252.0,-3956.0,-14132.0,-650.0,1586.0,5337.0,0.4824932331866025,0.730988666202566,0.19173076088699076,0.4428263374532144
-602.8856401443481,3928.0,-5756.0,-15048.0,-2143.0,1949.0,5031.0,0.3496286251482918,0.5796682359740949,-0.11597336097385184,0.7268388681296735
-602.9012360572815,3384.0,-7752.0,-15580.0,-77.0,2167.0,4294.0,0.09490922151119562,0.3656982671481861,-0.25091428522493453,0.8912345586583886
-602.9169034957886,2784.0,-6832.0,-15000.0,2977.0,1386.0,3266.0,-0.20749864920247615,0.1958574524057708,-0.10418237675687912,0.9527487608438842
-602.9325406551361,2516.0,-4040.0,-14236.0,2534.0,531.0,-629.0,-0.18866014035232007,0.1089052569482926,0.10465388378948616,0.9703579551171032
-602.9481263160706,3348.0,-4012.0,-14424.0,-329.0,7.0,-3035.0,0.06897046553627566,0.0834286337022051,0.10195349366404956,0.9888823100308689
-602.9637658596039,4584.0,-6372.0,-14572.0,-892.0,284.0,-1768.0,0.22211422551207144,0.03753740659198847,0.0388118297416076,0.9735244505422702
-602.9794313907623,4712.0,-7336.0,-14972.0,724.0,1467.0,-1100.0,0.3037630565709774,-0.07551561118188296,0.1301695842134587,0.9407875835044693
-602.9950332641602,3620.0,-6256.0,-14624.0,2157.0,1571.0,-488.0,0.33110156860003137,-0.14883526279426165,0.3361864422981539,0.8690215715587685
-603.010675907135,2660.0,-4724.0,-13720.0,1306.0,229.0,-4694.0,0.6416263923389767,-0.24506357439224505,0.3506206075004685,0.6366510871397053
-603.0262579917908,3348.0,-5244.0,-14952.0,-1092.0,-1081.0,-5967.0,0.8656103042642939,-0.37781461686538664,0.08975742777846336,0.3160989095092416
-603.0418920516968,4496.0,-7192.0,-15016.0,-67.0,-1631.0,-6002.0,0.9154513962805736,-0.3385188113740256,-0.20499831348285613,-0.07300306064166004
-603.0575246810913,5168.0,-7064.0,-14344.0,1352.0,-924.0,-6262.0,0.7826577459857348,-0.10852863161767663,-0.41145509433827454,-0.45428305505577166
-603.0731897354126,5184.0,-6108.0,-13832.0,1615.0,-259.0,-4983.0,0.5374596642754357,0.15477813276828808,-0.49155915683150764,-0.6674956436028593
-603.088775396347,4876.0,-5552.0,-13684.0,1023.0,-625.0,-4929.0,0.1917223473602313,0.3454185848616695,-0.47014990737212115,-0.7892322898569408
-603.1044020652771,4948.0,-5696.0,-13616.0,-398.0,-1534.0,-4815.0,-0.17460221216824992,0.39394061646823963,-0.29578358311648223,-0.8525473184295121
-603.1200661659241,5316.0,-6328.0,-14700.0,-439.0,-286.0,-3375.0,-0.40063099144025527,0.4472411348106892,-0.13681552913824624,-0.7878779645462022
-603.1356279850006,4788.0,-6412.0,-14604.0,969.0,-403.0,-2360.0,-0.5907378250194236,0.4039526993171161,-0.094770411520903,-0.6920040519432636
-603.1512680053711,4452.0,-5412.0,-14116.0,829.0,-1272.0,-5112.0,-0.8514781287408693,0.2964165605435738,0.09162843519661229,-0.4227605099520125
-603.1668515205383,4636.0,-5496.0,-14180.0,20.0,-2493.0,-4591.0,-0.9111179653413214,0.1514817821147134,0.35947129689591817,-0.13303273893146628
-603.1824533939362,5388.0,-5696.0,-14328.0,238.0,-2153.0,-4082.0,-0.8291013272460791,-0.018848632146230965,0.5398320819903155,0.14428111962071638
-603.1980352401733,5736.0,-5924.0,-14668.0,126.0,-1944.0,-3486.0,-0.6546657391332352,-0.15826163377907346,0.6388955932654473,0.3717236153174899
-603.2136087417603,5532.0,-5488.0,-15724.0,1155.0,-991.0,-1376.0,-0.5302582273518222,-0.26455396138730336,0.7030238568549471,0.3931855421207439
-603.2292037010193,5084.0,-4812.0,-14568.0,1275.0,-699.0,-1228.0,-0.4100544896251005,-0.3698220514833936,0.7408168124880506,0.38246230678324
-603.2447984218597,4236.0,-4996.0,-13972.0,-289.0,-2004.0,-1641.0,-0.22907931467734588,-0.3887740264891563,0.7314246456945381,0.5112684339806104
-603.2603921890259,4388.0,-6084.0,-14936.0,-961.0,-2748.0,-3022.0,0.04567066810309773,-0.4130837668773192,0.6020278058436223,0.6817906662668352
-603.2760808467865,4808.0,-7060.0,-15084.0,335.0,-3983.0,-959.0,0.3050799160946923,-0.21200631918544774,0.5380990441213499,0.7565903674623299
-603.2917125225067,5288.0,-6596.0,-15480.0,2994.0,-3398.0,-1721.0,0.5836458568162942,0.010314508107046308,0.56522002601709,0.582904320564639
-603.3072950839996,5376.0,-4376.0,-14820.0,2689.0,-3564.0,-113.0,0.7106080165072124,0.30101160154255224,0.48524255712477327,0.41105708042495065
-603.3228626251221,5652.0,-3800.0,-14548.0,222.0,-2671.0,2992.0,0.6703869225457222,0.5072301980885932,0.2350714611362981,0.48789374702482957
-603.3384420871735,5440.0,-4900.0,-14228.0,-1785.0,-1541.0,4587.0,0.5339158360836025,0.513168391511706,-0.12234688450800259,0.6607747890042579
-603.3540191650391,4756.0,-6844.0,-15032.0,-2803.0,-1059.0,6342.0,0.2407321421506496,0.320775763778293,-0.5266514089039455,0.7495260092935412
-603.3696255683899,4272.0,-8220.0,-14828.0,-1235.0,-795.0,7135.0,-0.19237719588480068,0.016059331588981,-0.6954187675219665,0.6921891722286944
-603.3851962089539,3536.0,-7372.0,-15064.0,886.0,-1122.0,7292.0,-0.5890665340784618,-0.31337076587467894,-0.5315791268044768,0.5217499530136018
-603.4007699489594,3144.0,-5736.0,-14380.0,843.0,-1581.0,6199.0,-0.8029486259311428,-0.4987345924026382,-0.21143563820379396,0.24866097674065943
-603.4163281917572,3328.0,-4744.0,-14876.0,-264.0,-2062.0,6315.0,-0.8557872609259465,-0.47766578374319935,0.17483012619967986,-0.09432915800994417
-603.4319508075714,3644.0,-4884.0,-15584.0,-579.0,-1855.0,6519.0,-0.6859719270397331,-0.3013079786793914,0.5073799650687982,-0.42570129004305324
-603.4475519657135,4052.0,-4996.0,-15300.0,-604.0,-1695.0,7144.0,-0.3038453912175303,-0.009993256745539048,0.6891795445396318,-0.6577306959870652
-603.463143825531,3460.0,-5400.0,-15140.0,-795.0,-2246.0,5338.0,0.12200623985988761,0.18098346578551391,0.711944633075646,-0.6674535953774606
-603.4787905216217,3296.0,-5996.0,-15140.0,3.0,-3438.0,5461.0,0.5694596802589293,0.2788686911669874,0.5133846059887515,-0.5782596060421168
-603.4944107532501,3376.0,-5828.0,-14864.0,174.0,-4165.0,3908.0,0.8492468869494056,0.22592965384770625,0.18147937050319246,-0.4413623846690654
-603.5100290775299,3496.0,-5868.0,-14832.0,620.0,-4724.0,4066.0,0.9375624611932312,0.13542571048742494,-0.23910806974279172,-0.2132225112040084
-603.5256171226501,3216.0,-5668.0,-14444.0,-246.0,-4844.0,5049.0,0.7962979863718375,-0.06849433704636433,-0.5894387440194996,0.11738828621907213
-603.5412056446075,2804.0,-6560.0,-14344.0,-1126.0,-5065.0,4514.0,0.41376738746014885,-0.2804754732049497,-0.79403585589339,0.34588598925153674
-603.5568025112152,2140.0,-7672.0,-14412.0,-753.0,-5799.0,4627.0,-0.12262699660233585,-0.37992588199780025,-0.7652276515717442,0.5050203809377176
-603.5724248886108,2248.0,-7196.0,-14896.0,-486.0,-5669.0,6047.0,-0.6346228794451053,-0.4281704795501462,-0.4257306158376817,0.4823663380306192
-603.5880620479584,1836.0,-5932.0,-14748.0,473.0,-6787.0,5815.0,-0.8778423482236705,-0.3033039316534106,0.14750408994064892,0.3400618769569974
-603.6036264896393,1620.0,-4956.0,-14596.0,-1111.0,-7455.0,6674.0,-0.7581488135809152,0.0667204446088517,0.6479523630300529,0.030273651593727812
-603.6192314624786,1724.0,-5928.0,-15160.0,-2540.0,-7710.0,5872.0,-0.2429247437327694,0.4420527271258085,0.841071749642305,-0.19538492080156963
-603.6348159313202,1724.0,-7504.0,-15208.0,-3468.0,-8474.0,6201.0,0.4452009784151211,0.5945069256623027,0.6048920765240039,-0.2871640296350759
-603.6504201889038,1340.0,-7924.0,-16372.0,-3617.0,-8516.0,9344.0,0.8649032744187243,0.48219063202671786,-0.07884836808427702,-0.11496719156302734
-603.666023015976,-180.0,-7816.0,-17932.0,-3567.0,-7222.0,10823.0,0.6950905930983073,0.042850499006562036,-0.6756700562307907,0.24183233289660033
-603.6816487312317,-3424.0,-6052.0,-16052.0,-6381.0,-7690.0,11624.0,0.01194589566750417,-0.5192910246305164,-0.7905275633875012,0.32443843613158735
-603.6972353458405,-3804.0,-7032.0,-20048.0,-10478.0,-9489.0,9778.0,-0.7734001274187717,-0.519295737261893,-0.362840458991951,0.023043035580519268
-603.7128720283508,-2680.0,-10128.0,-19248.0,-10112.0,-11324.0,9253.0,-0.8715727697852673,-0.05802030207702647,0.4336195280316944,-0.2212886269678099
-603.7284724712372,540.0,-8472.0,-17428.0,-8673.0,-10657.0,11669.0,-0.15380842854075996,0.44923259535619736,0.7890426499434702,-0.38980089680443686
-603.7440891265869,3092.0,-4008.0,-15184.0,-10317.0,-10542.0,14082.0,0.7130225402705629,0.5872441652635659,0.357406309427886,-0.13785455165191124
-603.7597069740295,8000.0,-1652.0,-11252.0,-18819.0,-13773.0,12819.0,0.8942748921463152,-0.13825083621956724,-0.3679157258142536,0.21400266881480182
-603.7753095626831,12560.0,-8932.0,-13936.0,-23002.0,-16178.0,-4499.0,0.06769237175414176,-0.5549654017207946,-0.7892603831056532,-0.25396691390630705
-603.7908804416656,21024.0,-14900.0,-18944.0,-17422.0,-12533.0,-3078.0,-0.7978891162405463,-0.338166222498556,-0.2925798112755812,-0.4042445029680461
-603.8064472675323,24420.0,-14056.0,-22252.0,-868.0,1908.0,1929.0,-0.6857618274498893,-0.2521510389756659,-0.32780097252412843,-0.598913259135508
-603.8220248222351,19872.0,-5052.0,-17144.0,7260.0,14861.0,12778.0,0.2726641996878497,-0.1325234157671193,-0.6323352262518813,-0.7129122948322476
-603.8375792503357,12768.0,-3700.0,-16660.0,4434.0,21200.0,5381.0,0.8352903961169649,0.45440375722529247,-0.15607579644071634,-0.26729669908118464
-603.8531589508057,8344.0,-5480.0,-17396.0,433.0,17526.0,2506.0,0.605819139629919,0.4676355168211556,0.5496842405034573,0.3348842026844695
-603.8687636852264,2476.0,-10916.0,-22480.0,6049.0,15397.0,10576.0,-0.3472705638574447,0.4258331738805229,0.5589570181704268,0.6209962281197833
-603.8843615055084,13524.0,-5612.0,-23660.0,12900.0,32767.0,-25317.0,-0.26899690457015574,-0.7601257051989335,0.3080826164487936,0.504910565416851
-603.8999705314636,3472.0,-6508.0,-24256.0,20264.0,29073.0,32767.0,-0.2656514478394816,-0.3778890650642308,0.6218349142687197,-0.6324163993462557
-603.9155757427216,12.0,-8436.0,-20280.0,26565.0,32767.0,-21417.0,-0.5531631408829374,-0.0818431640960393,-0.5438242403484965,-0.625753491135809
-603.9313180446625,-10768.0,-628.0,-12164.0,16833.0,19034.0,15184.0,0.46912249232728986,-0.20775323456291872,-0.8207890548914595,-0.2511334467801167
-603.946925163269,-3204.0,-12920.0,-15608.0,18398.0,19708.0,-23693.0,0.5155116182306255,0.8134238744981058,-0.25752493502622326,-0.07918509774870079
-603.9625158309937,-29976.0,-12280.0,-17076.0,18745.0,6390.0,-32768.0,-0.25752632645866436,0.6987726417417562,0.6383927329282496,-0.19455514611120725
-603.9789481163025,1256.0,-8676.0,-16704.0,24101.0,-20417.0,-31232.0,-0.27973899033960287,-0.4819378979440895,0.6476616380781016,-0.5196309867309703
-603.9948031902313,21444.0,5492.0,-19784.0,23300.0,20637.0,-12252.0,-0.3311893078601008,-0.26174647077190966,-0.4627875137043782,-0.7795063467072716
-604.0104448795319,26268.0,9520.0,-15044.0,7974.0,32767.0,25568.0,0.7615140387430394,0.1839671307268216,-0.3576065561615994,-0.5083011062349226
-604.0260436534882,6196.0,6464.0,-14564.0,-8833.0,32767.0,32767.0,0.7977100754615355,0.006607849981160348,0.3978405413152094,0.4531422243753048
-604.0416467189789,-10608.0,-4896.0,-15992.0,-14269.0,32767.0,32767.0,-0.3742983872348386,-0.26333953509580177,0.482065921375184,0.7471047142252688
-604.057220697403,-18664.0,-16628.0,-16052.0,-2930.0,19558.0,6041.0,-0.8037144642104751,-0.576230052017488,-0.10136106747470527,0.10829552701372461
-604.0728797912598,-15176.0,-17684.0,-17048.0,15542.0,1920.0,-23234.0,0.08124901761505086,-0.5597960443757531,-0.4760506377674415,0.6733518962021723
-604.088517665863,-5724.0,-6520.0,-15732.0,23169.0,-7162.0,-22448.0,0.732157753675811,0.31377302060897216,-0.08591175703926753,0.5984234999335653
-604.1041378974915,2572.0,2100.0,-14384.0,18232.0,-2143.0,-20831.0,0.4976968613271745,0.6664614866319564,0.49576136592930825,-0.24969499216706081
-604.1197762489319,5372.0,6168.0,-13616.0,5090.0,3253.0,-2292.0,0.009402833284933139,0.7485895394056648,0.5744080147762437,-0.33102978835664487
-604.1353776454926,4028.0,3100.0,-15044.0,-7689.0,8611.0,8133.0,0.19846816315941615,0.8812731563957712,0.17155832662853426,0.3931103567610235
-604.150985956192,192.0,-4532.0,-17100.0,-12094.0,6705.0,14922.0,0.25329430296676636,0.32652528675787884,-0.625684887359745,0.6616204764983383
-604.166661977768,-2728.0,-11004.0,-19320.0,-5331.0,3837.0,11474.0,-0.03139467577677897,-0.4187030512645673,-0.7700835424403489,0.48028477683259463
-604.1822979450226,-4288.0,-10384.0,-17996.0,3815.0,-2197.0,7406.0,-0.2797379551140472,-0.667305657149468,-0.2668078324596523,0.6366030293229133
-604.1978840827942,-3328.0,-5456.0,-15780.0,6973.0,-7900.0,-1864.0,0.03368815673191918,-0.25980879187065753,0.14963436470182798,0.9534013093461721
-604.2135274410248,-272.0,-612.0,-15324.0,2828.0,-11175.0,-3116.0,0.3483094886703743,0.44131488428759924,0.19497522413620255,0.803682981642291
-604.2291555404663,2752.0,336.0,-15368.0,-4319.0,-11775.0,-3898.0,0.6496940511377823,0.7032897688813984,-0.20749292385127843,0.20056875991682643
-604.2447421550751,4708.0,-1604.0,-17640.0,-7755.0,-8573.0,-341.0,0.6870711355347722,0.29564459464553483,-0.5690565641195164,-0.34161697148169756
-604.2603342533112,3276.0,-2364.0,-19680.0,-8870.0,-4065.0,9639.0,0.6419755017762329,-0.5360112307756059,-0.5112046497005551,-0.1980636809869666
-604.2759764194489,84.0,-5272.0,-17580.0,-14531.0,-12153.0,5055.0,-0.2485798224831797,-0.9010205687095995,-0.3554748481776056,0.002763861351249342
-604.2915816307068,3252.0,-10168.0,-19928.0,-15696.0,-17704.0,-14198.0,-0.7779538294982338,-0.04439870848710938,-0.4186902220015495,0.466385132539624
-604.3071856498718,10988.0,-12168.0,-21368.0,-7349.0,-14021.0,-13378.0,-0.3745163863453767,0.7326235877279902,0.0880973273553631,0.5614614999946217
-604.3228087425232,13988.0,-9000.0,-19552.0,146.0,-1991.0,-433.0,-0.34182984787937837,0.8094662541475041,0.18507006414293325,0.4400747775700171
-604.3384394645691,9212.0,-4268.0,-15908.0,1018.0,6203.0,10071.0,-0.6254532322043381,0.488793776216799,-0.466852352861606,0.3897919692405819
-604.3540472984314,2240.0,-2120.0,-13776.0,-7707.0,2338.0,7828.0,-0.333870856165948,0.3650607873887737,-0.8502531933795701,-0.1798065072847719
-604.3696575164795,-388.0,-7380.0,-16232.0,-15368.0,-3589.0,-1197.0,-0.07577636482988225,0.4958423801247467,-0.273566134514393,-0.8207069188524293
-604.3852462768555,1544.0,-15016.0,-20304.0,-9096.0,-5810.0,-6360.0,-0.18662222101854578,0.1970192970215142,0.4668235277494581,-0.8416836324669765
-604.4008767604828,3272.0,-14688.0,-18688.0,4267.0,-6375.0,-8335.0,-0.43559497160180183,-0.48373227131099816,0.2850688626466675,-0.7035594175027892
-604.4164917469025,4640.0,-6280.0,-15084.0,9758.0,-7364.0,-16450.0,-0.41497490544075494,-0.83752580055218,-0.3554183647456348,-0.004913986711999971
-604.4321098327637,6972.0,44.0,-11932.0,5259.0,-8941.0,-15729.0,-0.1633738475857684,-0.2826929066159335,-0.615003132897061,0.717749854058402
-604.4477136135101,10060.0,1312.0,-11108.0,-4243.0,-8664.0,-8415.0,-0.13726779203533496,0.5150515992301776,-0.6435808073129392,0.5492569051533224
-604.4633009433746,12344.0,-2056.0,-13716.0,-10471.0,-3206.0,3142.0,0.0020870819436847256,0.4381340773495603,-0.885178958600577,-0.15650043324159799
-604.4788987636566,10968.0,-6572.0,-15684.0,-8173.0,4131.0,12451.0,0.4787759839919352,-0.27923356898653995,-0.7437613256999231,-0.3736592853077338
-604.4944922924042,5180.0,-8188.0,-16124.0,-3307.0,6529.0,13814.0,0.7521797340677123,-0.6510600332165186,-0.015743466657259595,-0.10049191043831801
-604.5100798606873,56.0,-7276.0,-14804.0,-211.0,2388.0,1483.0,0.734390272410773,-0.6275376347857241,0.22052359508316813,-0.13504365489560968
-604.5256631374359,-1456.0,-5416.0,-12808.0,977.0,-7110.0,-8621.0,0.5881095372670664,-0.5823234896617625,-0.5135459210553345,-0.22648865872509438
-604.5413529872894,2508.0,-4216.0,-13272.0,-1811.0,-12110.0,-17797.0,-0.1867527713747915,-0.054947132956464154,-0.9389360235099264,-0.2837311380851007
-604.5569679737091,7244.0,-4616.0,-14360.0,-2102.0,-11075.0,-18677.0,-0.7285450134607901,0.5745636181369952,-0.37014988592275166,-0.0456932601826142
-604.5725698471069,10360.0,-4572.0,-14888.0,-2205.0,-5526.0,-7834.0,-0.6278662009927549,0.7177437242897742,0.29047351915574227,0.0790766372758015
-604.5881681442261,10220.0,-4392.0,-15976.0,-1970.0,-264.0,1254.0,-0.4958802761285338,0.8418670545851817,0.20860821815913894,0.04295608766203769
-604.6037788391113,7576.0,-3480.0,-15600.0,-1096.0,3002.0,5137.0,-0.4324588524470493,0.8593003053280344,-0.2676672945101099,0.054189903607281105
-604.6193845272064,4164.0,-3104.0,-14500.0,-2531.0,1946.0,4165.0,-0.1969464258754999,0.7713954952983866,-0.6049355153018469,-0.014632754173834098
-604.6349623203278,2468.0,-4060.0,-15276.0,-3279.0,-1740.0,-1772.0,-0.06599287279796826,0.8651141996662537,-0.42500076094740546,-0.2580633942848444
-604.6506423950195,3328.0,-4720.0,-15564.0,-1906.0,-3603.0,-3475.0,-0.12141465503784153,0.8370467231008019,-0.08965280463613265,-0.5259026901520157
-604.6662456989288,5464.0,-4460.0,-16084.0,-820.0,-3075.0,-2747.0,-0.19872943269312154,0.6818446897243371,0.1701962323318288,-0.6831015108871028
-604.681868314743,6972.0,-3700.0,-15416.0,304.0,-989.0,1615.0,-0.10442488651063539,0.632992679199017,0.07225150318952471,-0.7636723325121485
-604.6974990367889,6744.0,-2828.0,-14800.0,-1278.0,1019.0,4679.0,0.2492681938552227,0.681265067284702,-0.10119809961179128,-0.6808099736818545
-604.7131040096283,6128.0,-3440.0,-14844.0,-2892.0,1289.0,5772.0,0.6724302803559785,0.5585262593163344,-0.21203672940449633,-0.4369512113473626
-604.7287299633026,5508.0,-4388.0,-14896.0,-2619.0,2283.0,7281.0,0.9156915283750346,0.292164716647235,-0.27248427911718226,0.043601844486482653
-604.744332075119,4708.0,-5208.0,-15204.0,-2028.0,1477.0,6162.0,0.8465979460562494,-0.018996150997887814,-0.2763671455944042,0.45445821019826066
-604.7599663734436,4600.0,-4996.0,-15192.0,-668.0,836.0,4607.0,0.6312269634863591,-0.19657481998447207,-0.21608466896270087,0.7184833168245057
-604.7755951881409,5016.0,-4260.0,-14332.0,-698.0,716.0,3626.0,0.3851775305459272,-0.3310118292433504,-0.15060184830428125,0.848167744111297
-604.7912142276764,5084.0,-4004.0,-14820.0,-962.0,1041.0,3393.0,0.11421044475264971,-0.4619565245052835,-0.08480356258617114,0.8754201845680135
-604.8068099021912,4564.0,-3340.0,-14688.0,-1064.0,1469.0,4145.0,-0.2180699997653825,-0.5726708915307364,0.014419697884356906,0.7901174580457272
-604.8224337100983,4116.0,-4112.0,-15232.0,-2326.0,68.0,2391.0,-0.4793169566051223,-0.5091876063307669,-0.026707422433505684,0.7143318208346214
-604.8380286693573,4540.0,-4928.0,-15928.0,-1020.0,-155.0,-348.0,-0.5009610022365593,-0.45424012683129955,-0.09889403962809644,0.7300164041584708
-604.8536057472229,4812.0,-4520.0,-15676.0,939.0,-662.0,-1132.0,-0.39334378690390154,-0.439243122120459,-0.05457305256218098,0.8058336843964856
-604.8692226409912,4912.0,-3360.0,-15008.0,902.0,-1461.0,-2347.0,-0.1944128197172284,-0.3455665105454654,-0.030076709933980223,0.9175417341127184
-604.8848128318787,5664.0,-3324.0,-14536.0,-584.0,-1560.0,-3199.0,0.03828106385821594,-0.19318344671090998,-0.14021622348365853,0.9703371201488465
-604.9004302024841,6252.0,-4224.0,-15024.0,-1194.0,-274.0,-684.0,0.07224085472503941,-0.16435727751576576,-0.2521972310667879,0.9508756495349151
-604.9160892963409,5344.0,-4864.0,-15408.0,-107.0,1245.0,1506.0,-0.026426797989138995,-0.29717724659820016,-0.22863421653412497,0.9266680654269794
-604.9318170547485,3516.0,-4688.0,-14880.0,306.0,139.0,-803.0,0.04914182227593569,-0.2923767724311786,-0.22466812624325494,0.9282376513029796
-604.9474568367004,3488.0,-4848.0,-15000.0,119.0,-2405.0,-4229.0,0.31998314325677546,-0.013124831875760724,-0.30698723201744843,0.8962127906909232
-604.9631085395813,5328.0,-4664.0,-14908.0,519.0,-3253.0,-5167.0,0.5621615952654758,0.34764795300507223,-0.3204902719315666,0.678528722440833
-604.978777885437,6908.0,-3908.0,-14948.0,635.0,-1848.0,-3456.0,0.6573733206506827,0.5527741412536402,-0.2541099740218369,0.4446675018040074
-604.9943733215332,7468.0,-3396.0,-15084.0,20.0,974.0,1698.0,0.6031903005837859,0.47181677214654527,-0.275567724208992,0.581044597408094
-605.0099914073944,5916.0,-3360.0,-15340.0,-82.0,2819.0,4623.0,0.39765168677181134,0.19312054616919908,-0.29103316838605875,0.8484558241617624
-605.0255799293518,3760.0,-3488.0,-15032.0,-390.0,2154.0,3686.0,0.17418990232937337,-0.06870003540093611,-0.288058711051272,0.9391274471816236
-605.0411674976349,2516.0,-4528.0,-14828.0,-600.0,-556.0,-1146.0,0.24865960791250943,-0.0034271471239828545,-0.35021784383273563,0.9030526650846767
-605.056768655777,3760.0,-5240.0,-14980.0,204.0,-3135.0,-4449.0,0.4547266828617322,0.3468514288617949,-0.36468945588694807,0.7347920324520255
-605.0723552703857,5700.0,-4788.0,-15152.0,1031.0,-2329.0,-3131.0,0.5187985475441926,0.600685982632371,-0.2796211816095106,0.5402188557708069
-605.0880784988403,6900.0,-3692.0,-14936.0,1285.0,384.0,570.0,0.43028449577238737,0.6220070283508677,-0.22985935412263978,0.612476274399546
-605.1037173271179,5936.0,-3228.0,-14712.0,205.0,1870.0,2932.0,0.2868436431858887,0.45078849934930965,-0.294668415531899,0.7922632000201474
-605.1193146705627,4380.0,-3948.0,-14616.0,-1049.0,1766.0,2493.0,0.19354456641474668,0.22959772379244733,-0.4054467018074179,0.8633877217300125
-605.1349167823792,3488.0,-5232.0,-15024.0,-764.0,199.0,-740.0,0.2703948122913731,0.226994557400003,-0.44309455220530686,0.8240311488060802
-605.1505167484283,3776.0,-5428.0,-15020.0,820.0,-1612.0,-2939.0,0.38596949034311717,0.45577053939375917,-0.34873643209924016,0.7222767259656706
-605.1661529541016,4748.0,-4468.0,-14816.0,1184.0,-2234.0,-4020.0,0.484200839931955,0.701110289678974,-0.17522584196346763,0.4932441714036244
-605.1817991733551,5916.0,-3884.0,-14960.0,558.0,-1169.0,-2713.0,0.5307772132492405,0.7899346739992517,-0.033616312022754405,0.3052027265196939
-605.1973836421967,6228.0,-3852.0,-15280.0,207.0,654.0,-76.0,0.5192521748324659,0.7810895090167793,0.007320384373446484,0.3467315529459438
-605.212972164154,5304.0,-4016.0,-14696.0,-73.0,1016.0,1602.0,0.46846348444030483,0.7381817359081888,-0.057351564977489576,0.48201710188773816
-605.2285578250885,4452.0,-4352.0,-14900.0,-376.0,380.0,230.0,0.48406940448866653,0.7049712107503106,-0.07245795923357985,0.513266254291994
-605.2441358566284,4328.0,-4956.0,-15140.0,74.0,-333.0,-72.0,0.48019586770566614,0.723330814371312,-0.07885775572419827,0.48988357390453446
-605.2597770690918,4708.0,-4804.0,-15092.0,797.0,-367.0,-515.0,0.44738802511869824,0.7731060537717799,-0.02766048244644407,0.44876038407222035
-605.2753591537476,5012.0,-3988.0,-14920.0,463.0,-146.0,-485.0,0.43377470700105586,0.7968268722960254,0.01737105162700476,0.42024360282870865
-605.2909605503082,5260.0,-4032.0,-14916.0,-309.0,223.0,667.0,0.42925199667633346,0.7764035370809625,-0.031909725545841996,0.4603499107995357
-605.3066346645355,5284.0,-4380.0,-14956.0,38.0,822.0,1308.0,0.37280606857685955,0.7346942507364211,-0.0875181871370723,0.5599826426661412
-605.3222391605377,5088.0,-4432.0,-14980.0,510.0,852.0,1789.0,0.2549550045083428,0.6853370052457369,-0.14735507715774865,0.6660312426251409
-605.3378415107727,4588.0,-4104.0,-15100.0,129.0,371.0,861.0,0.20114458459297585,0.6535521226777005,-0.1825879670823238,0.7064503615323128
-605.353444814682,4772.0,-4448.0,-14800.0,-450.0,-56.0,310.0,0.20645055218376573,0.6436256516283134,-0.22885216969025957,0.700536133612755
-605.3690254688263,5276.0,-5024.0,-14752.0,-188.0,2.0,582.0,0.18109192476807096,0.6277844885487422,-0.2727458587559434,0.7061883935982468
-605.3847210407257,5656.0,-5084.0,-15092.0,409.0,666.0,1331.0,0.0915879439923802,0.5566909461369731,-0.3073022387029645,0.7663368535393011
-605.4003262519836,5344.0,-4188.0,-15032.0,157.0,1140.0,2609.0,-0.05820354314745517,0.3997729542675414,-0.4023098582363783,0.821547753065584
-605.4159369468689,4896.0,-4136.0,-14972.0,-345.0,1162.0,2709.0,-0.19318313519450847,0.21619284971763117,-0.5107745605733042,0.809351763004528
-605.4315049648285,4468.0,-4364.0,-15008.0,-529.0,729.0,1823.0,-0.2750835998668616,0.0911086151099376,-0.5858800784545372,0.7568175255681802
-605.4470868110657,4440.0,-4676.0,-15064.0,-173.0,137.0,785.0,-0.31762315986972195,0.04608564176027708,-0.6055373781831103,0.7282280724889979
-605.4626598358154,4736.0,-5012.0,-14948.0,197.0,-181.0,221.0,-0.3417281088832146,0.04054640859389976,-0.5888592038728395,0.7313157501130985
-605.478283405304,5104.0,-4860.0,-14792.0,292.0,-22.0,671.0,-0.3857869390932418,-0.001112435135726342,-0.5710222638086717,0.7246383748794676
-605.49387383461,5204.0,-4288.0,-15040.0,131.0,295.0,1107.0,-0.43871741481911414,-0.07883147814983515,-0.5699383416124324,0.6902774186855716
-605.5095000267029,5028.0,-4400.0,-14808.0,-458.0,444.0,1527.0,-0.5063567688158257,-0.16222705505104096,-0.59807481954654,0.5996596664010649
-605.5251393318176,4760.0,-4704.0,-14860.0,-378.0,344.0,1344.0,-0.5595184203204914,-0.23181415850443526,-0.6095039485779075,0.5115723506082811
-605.5407457351685,4600.0,-4724.0,-14868.0,-135.0,167.0,399.0,-0.5705362534955892,-0.2536941656563424,-0.6153753545601028,0.4810829728427074
-605.556343793869,4772.0,-4740.0,-14916.0,-241.0,-189.0,-129.0,-0.580161552961063,-0.22673533675352936,-0.6189168893983058,0.47848254257663003
-605.5719814300537,4836.0,-5024.0,-15056.0,-246.0,-372.0,-588.0,-0.5791664311205776,-0.1666246158584258,-0.6209422765965796,0.5012316546150511
-605.5876197814941,5084.0,-4988.0,-14888.0,199.0,-59.0,-268.0,-0.5672998147682548,-0.15946579486074922,-0.6131266030169463,0.52613434511181
-605.6032829284668,4792.0,-4572.0,-15056.0,530.0,264.0,0.0,-0.5448777962724242,-0.19752502971815136,-0.6013071588896781,0.5500197727647373
-605.6188576221466,4304.0,-3948.0,-14844.0,-177.0,-193.0,-800.0,-0.5180695334433996,-0.1374779097887729,-0.613011441198386,0.5804487538084011
-605.6344587802887,4440.0,-4588.0,-14636.0,-892.0,-1122.0,-2178.0,-0.46635099602312297,0.07435349762579888,-0.6180404739362958,0.6285016137414847
-605.650039434433,5208.0,-5240.0,-14984.0,-122.0,-959.0,-1873.0,-0.4075304790612243,0.2292225465484665,-0.5642946219632781,0.680402463556156
-605.665628194809,5492.0,-4684.0,-15176.0,569.0,-173.0,-833.0,-0.376319710182234,0.25942523678695717,-0.5058743023179074,0.7315553379620446
-605.6812279224396,5096.0,-3924.0,-14940.0,201.0,294.0,363.0,-0.39055171445045384,0.21801105884999403,-0.510604785329758,0.7343182482801769
-605.6968739032745,4484.0,-4072.0,-14784.0,-816.0,-139.0,-308.0,-0.36027876089950833,0.2678267892879615,-0.5508533166398576,0.703582723587842
-605.7125372886658,4596.0,-5040.0,-15040.0,-809.0,-567.0,-774.0,-0.31905386935675845,0.36326503454250214,-0.5614226446205104,0.6716008913295359
-605.7281384468079,4964.0,-5300.0,-15164.0,376.0,-755.0,-928.0,-0.3115772758039715,0.4400536678152654,-0.486208870598741,0.6876578399145934
-605.7437653541565,4968.0,-4588.0,-14992.0,729.0,-511.0,-397.0,-0.3360947138408784,0.46625492720717754,-0.4119862805927149,0.7070459608728618
-605.75936627388,4992.0,-3708.0,-14724.0,-103.0,-211.0,-143.0,-0.330451121923457,0.4875071295046997,-0.4063407046751713,0.6985886389182847
-605.7749547958374,5104.0,-4224.0,-14940.0,-1125.0,-492.0,110.0,-0.3048591497966005,0.543098744263167,-0.46284614152555364,0.6307757937967914
-605.7906374931335,5180.0,-5348.0,-15012.0,-584.0,223.0,932.0,-0.3178222777740888,0.5064814285292151,-0.5425998959524463,0.5899584012605382
-605.8062481880188,4848.0,-4916.0,-14900.0,4.0,424.0,939.0,-0.34471848386186116,0.43849780291140994,-0.5933802438888148,0.5803350152181899
-605.8218245506287,4440.0,-4220.0,-15104.0,164.0,261.0,761.0,-0.3748886710369938,0.38014448477824403,-0.6205951865491213,0.5742911016660991
-605.837415933609,4432.0,-4096.0,-15072.0,-168.0,-114.0,273.0,-0.38881643818656003,0.37656955163172057,-0.6342075743177341,0.5520850503842841
-605.8529949188232,4736.0,-4276.0,-14596.0,-511.0,-299.0,-169.0,-0.37968116843065713,0.4172261405270284,-0.6423322984488241,0.5188195990606965
-605.8685641288757,4916.0,-4784.0,-14928.0,-454.0,-120.0,195.0,-0.37812302937984543,0.42651450518971945,-0.665473196663089,0.481927148061185
-605.8841607570648,5264.0,-4936.0,-15092.0,-6.0,341.0,936.0,-0.39574526811744626,0.35683988694644614,-0.7092575211394306,0.46152437265419516
-605.8997814655304,4756.0,-4508.0,-14880.0,90.0,462.0,920.0,-0.4051316626560012,0.2772132528195217,-0.7473384256386142,0.4477794389415413
-605.9153912067413,4544.0,-4324.0,-14992.0,-164.0,103.0,606.0,-0.4172466267447439,0.23923349210622952,-0.7710068513584383,0.41739792031482126
-605.9311139583588,4488.0,-4420.0,-15000.0,-132.0,-141.0,348.0,-0.43614375744212647,0.2257534243036057,-0.7776267259718272,0.39256934331885446
-605.9467086791992,4500.0,-4564.0,-14960.0,-324.0,-279.0,-344.0,-0.43615205750641706,0.27080149053298685,-0.7705898085183482,0.37766292175124533
-605.9623131752014,4872.0,-4612.0,-14992.0,-307.0,-384.0,-263.0,-0.44526404210737547,0.31259194678005936,-0.7591110593199252,0.3574585391799097
-605.9779560565948,5152.0,-4844.0,-15240.0,106.0,95.0,445.0,-0.4551036723559251,0.27594482751065036,-0.7711225354480093,0.3494354516967356
-605.9936091899872,4868.0,-4328.0,-15016.0,376.0,486.0,1105.0,-0.462087067647558,0.1709285838692743,-0.8008514227086615,0.3404349568931466
-606.0092158317566,4488.0,-3908.0,-14928.0,-243.0,201.0,851.0,-0.46797061956126357,0.11502785508729328,-0.8264374256628707,0.2911585019284016
-606.0248510837555,4452.0,-4480.0,-14928.0,-822.0,-276.0,22.0,-0.4785430664355808,0.15368033039425155,-0.834035668820192,0.22751569781445807
-606.0404477119446,4828.0,-5224.0,-15068.0,-325.0,-307.0,334.0,-0.5022958527326762,0.14896666292179497,-0.8313045403460968,0.18558170940440946
-606.0560629367828,4980.0,-5032.0,-15220.0,598.0,158.0,656.0,-0.5073977690563705,0.07247635040702831,-0.8346409172957334,0.20166611456571618
-606.0716404914856,4676.0,-4004.0,-15144.0,531.0,136.0,907.0,-0.5143540499566964,-0.019339816717737567,-0.8336616114304629,0.20018541507720403
-606.0872967243195,4548.0,-3880.0,-15004.0,-489.0,-155.0,781.0,-0.5380542726440231,-0.05128030966935662,-0.8313428214128146,0.12937172339853595
-606.1028769016266,4772.0,-4828.0,-15072.0,-634.0,-102.0,682.0,-0.5538907642561679,-0.06955944710328653,-0.8280687669968612,0.05165870415236204
-606.1184546947479,4912.0,-5156.0,-15104.0,120.0,37.0,1241.0,-0.5525751438690096,-0.16420797858667738,-0.8171269309543592,0.00016986974613863282
-606.1340477466583,4724.0,-4676.0,-14940.0,311.0,165.0,1215.0,-0.5328848469180201,-0.26424938381213875,-0.8029554078715674,-0.03832252666341469
-606.1496424674988,4548.0,-4412.0,-14712.0,-327.0,197.0,1135.0,-0.5197466321730186,-0.326175003118061,-0.7807555337650044,-0.11787324624808083
-606.1652364730835,4576.0,-4740.0,-14944.0,-425.0,118.0,789.0,-0.5138529904427527,-0.3583855590004813,-0.757076852848278,-0.18533627328264637
-606.1808927059174,4480.0,-4788.0,-15256.0,28.0,277.0,1025.0,-0.4758170544357175,-0.4211492079457274,-0.7348845241360202,-0.2370152137314802
-606.1965253353119,4004.0,-4532.0,-15012.0,202.0,-55.0,8.0,-0.47143915256696955,-0.43120200727497726,-0.7364944621343764,-0.22222929958572882
-606.2121119499207,4216.0,-4484.0,-14712.0,-470.0,-1009.0,-1127.0,-0.5701988232040962,-0.3557032918746628,-0.7215623892145437,-0.1664217192471923
-606.2277407646179,5032.0,-4948.0,-14984.0,-761.0,-1012.0,-670.0,-0.6619335910343428,-0.2881743003473453,-0.6758601545322448,-0.14836625355972194
-606.2433481216431,5364.0,-5108.0,-14948.0,163.0,222.0,703.0,-0.6340553923972048,-0.3355207208371451,-0.6718355883118743,-0.18448996595638179
-606.2589201927185,4744.0,-4224.0,-14980.0,47.0,695.0,1162.0,-0.5690293121197015,-0.392416415788278,-0.6725049649527464,-0.2644845376999686
-606.2745015621185,3880.0,-4228.0,-14768.0,-807.0,86.0,65.0,-0.5884278381878991,-0.3533858416984193,-0.6544404231256922,-0.31714170131296265
-606.2901482582092,3804.0,-5020.0,-14828.0,-762.0,-563.0,-985.0,-0.6664488980973345,-0.27175170838153534,-0.6305315686841979,-0.29056292968857894
-606.3057346343994,4020.0,-5044.0,-14928.0,104.0,-1079.0,-1726.0,-0.7551102143316866,-0.20700866046390395,-0.6020984866306026,-0.156311839289392
-606.3213529586792,4388.0,-4728.0,-14776.0,20.0,-991.0,-2033.0,-0.8186021738016138,-0.11287717351888178,-0.5631506897042552,-0.003244292108048356
-606.3369207382202,4784.0,-4712.0,-15020.0,218.0,-677.0,-1235.0,-0.8434233621317467,-0.06740092612452063,-0.5232232741644266,0.10164424597877933
-606.3525607585907,4920.0,-4476.0,-14548.0,-69.0,-664.0,-1236.0,-0.8566230538941766,7.733933058365157e-05,-0.4788912523590618,0.19198985902805346
-606.3681409358978,5224.0,-4892.0,-14444.0,-1724.0,-489.0,-1013.0,-0.8463643375210885,0.17680582902447373,-0.4640080223828617,0.1926231091011752
-606.3837888240814,5656.0,-6296.0,-15860.0,-1240.0,99.0,1031.0,-0.8321594241526459,0.2230013957957985,-0.5032578932133824,0.06717561451516726
-606.3993725776672,5196.0,-5632.0,-16148.0,1488.0,1936.0,3170.0,-0.7501059063331742,-0.03344613961928643,-0.6580425504402266,-0.056590518983096354
-606.4149830341339,3444.0,-3184.0,-15452.0,1197.0,1279.0,1890.0,-0.6474318723903092,-0.20878225998965885,-0.7242915873632367,-0.11244391936263891
-606.4306633472443,3008.0,-3056.0,-14044.0,-1494.0,-2461.0,-2130.0,-0.8122044146941709,-0.013276745144133491,-0.5818670751692333,-0.039729379855197054
-606.4462614059448,5032.0,-4868.0,-15064.0,-2742.0,-3469.0,-2922.0,-0.9090260662136939,0.2882116446094446,-0.2995819115045134,0.02926323896765519
-606.4618430137634,7376.0,-5912.0,-16184.0,-423.0,-548.0,1662.0,-0.9057519923363685,0.27662282128306864,-0.29540973810426624,-0.1258023440054413
-606.4774358272552,6792.0,-4504.0,-15888.0,1759.0,3432.0,5982.0,-0.6744837574428432,0.01811628453176823,-0.6205458910982726,-0.39958260500376985
-606.4930605888367,4040.0,-2592.0,-15388.0,1013.0,4607.0,7448.0,-0.13208236904667583,-0.2252363750608853,-0.7442159264693007,-0.6147889702376667
-606.5087146759033,1360.0,-2988.0,-15716.0,-313.0,2199.0,3442.0,0.17829173371759532,-0.30817577087193826,-0.645302574569499,-0.6758878155355641
-606.524297952652,1592.0,-4304.0,-16376.0,807.0,-306.0,-1145.0,0.11432681989306066,-0.2473970511300575,-0.7229870341042581,-0.634833699375214
-606.539874792099,3536.0,-4288.0,-16672.0,3520.0,84.0,-1121.0,0.12709526562477455,-0.13039344976359396,-0.8960362386010792,-0.4049239444984046
-606.555465221405,4700.0,-2624.0,-17548.0,5978.0,3620.0,1914.0,0.4612970011137114,-0.07259718334743602,-0.8835283145944843,0.03622765578042765
-606.5710966587067,4036.0,-680.0,-17216.0,6193.0,6690.0,3950.0,0.7583412930059664,-0.11259856825230057,-0.4305691907830554,0.4762879567005613
-606.586713552475,2268.0,-840.0,-17088.0,3386.0,7374.0,4568.0,0.6820402822832395,-0.2846278258063829,0.1884081893036298,0.6467692079274165
-606.6023080348969,1744.0,-4464.0,-18648.0,3201.0,7574.0,1895.0,0.4267509660490031,-0.3951310575896275,0.698092475401417,0.41763854718197074
-606.6178727149963,2416.0,-6744.0,-19880.0,7113.0,7468.0,3.0,0.1611284112094905,-0.2990226079370679,0.9183419997253816,-0.2031528650647272
-606.6334891319275,3292.0,-6096.0,-21188.0,9831.0,8238.0,-531.0,-0.16798044124871614,-0.038203171061549156,0.5634249474303443,-0.8080070653724771
-606.6490693092346,4428.0,-4544.0,-24216.0,7301.0,8076.0,-2774.0,-0.5258279877921497,0.2055130465423886,-0.05621655013282432,-0.8234737484865492
-606.6647303104401,6192.0,-5648.0,-28452.0,3152.0,10209.0,-641.0,-0.42261975472850766,0.5831047390117841,-0.5404386357539072,-0.4350948025886667
-606.6803297996521,7724.0,-8512.0,-28268.0,5898.0,15270.0,3327.0,0.07008680083416262,0.4460504776467881,-0.8466925229312263,0.28149348722885126
-606.6959881782532,5204.0,-8716.0,-25020.0,13202.0,21034.0,11207.0,0.323709285045877,-0.317120672230667,-0.32186798961058877,0.8312928336531568
-606.7115738391876,-616.0,-5312.0,-20712.0,17968.0,22692.0,9656.0,0.2664436094857289,-0.607241636517609,0.6643637256979763,0.3447988367444656
-606.7271752357483,-6296.0,164.0,-15404.0,16559.0,14112.0,1437.0,0.13136703830776306,-0.2622079723359216,0.7289277745880522,-0.6185903167071409
-606.7428045272827,-8644.0,4288.0,-14812.0,8015.0,8927.0,296.0,-0.16374889977970475,0.2282592021847378,0.2800521927664814,-0.9179623106454909
-606.7584376335144,-9748.0,4248.0,-14784.0,-872.0,1981.0,6758.0,0.2947037722255047,0.4802012221067316,0.15898065834797906,-0.8107290689216112
-606.7740275859833,-9880.0,516.0,-11048.0,-5476.0,-5103.0,366.0,0.5196096382106442,-0.013619045711466377,0.3347075668713137,-0.7859969402940431
-606.7896728515625,-6948.0,-1436.0,-10536.0,-7911.0,-10015.0,5598.0,0.7537042359916658,-0.5688333117865615,0.2731994495591851,-0.1836318295141399
-606.8053450584412,-4100.0,-772.0,-10084.0,-10606.0,-9502.0,12772.0,0.33826079682931465,-0.5726326123523059,0.2324573161276865,0.7096725447540462
-606.82093501091,-3252.0,-124.0,-11572.0,-16735.0,-9132.0,21850.0,-0.6122992966696879,-0.021358042400345507,0.006790539184771667,0.790308353682416
-606.8365206718445,-3472.0,-1184.0,-14408.0,-21925.0,-7198.0,32132.0,-0.7971208996056247,0.46336965788610074,-0.295220941960376,-0.2504624263047571
-606.8520979881287,-6424.0,-5536.0,-16520.0,-22459.0,-9146.0,28912.0,0.14743727395396083,0.31414679831063747,-0.09803450388708679,-0.9327182186533151
-606.8677368164062,-11320.0,-11140.0,-18336.0,-17907.0,-16430.0,9310.0,0.5059773264331987,-0.5371862027206644,0.359896875403038,-0.5708696592193312
-606.8833281993866,-9440.0,-9944.0,-18276.0,-13991.0,-26064.0,-10544.0,0.04915292364572037,-0.9544999672975609,-0.2015457076549737,0.21422681963724574
-606.8989653587341,-448.0,-3176.0,-16928.0,-18079.0,-32768.0,3927.0,-0.613680310301768,-0.14234482446835123,-0.10284998436171963,0.7697767912919914
-606.9146466255188,9168.0,-6888.0,-17500.0,-23589.0,-24485.0,-8573.0,-0.17098241256977198,0.8830825950862857,-0.1499745622525631,0.4104117146532779
-606.9303131103516,10728.0,-12888.0,-18204.0,-19462.0,-20244.0,5550.0,0.32143566144350305,0.6785835936980299,-0.3614993066851412,-0.5527401497832475
-606.9460065364838,7376.0,-14340.0,-17416.0,-9871.0,-18569.0,13615.0,0.4063274861504848,-0.38419938760578837,-0.5043853205609657,-0.6579393991581417
-606.9616115093231,4136.0,-6940.0,-15300.0,-7642.0,-18615.0,10011.0,-0.0429071735925415,-0.9832173094732132,-0.17718995330501855,-0.006813020939402827
-606.9772329330444,2112.0,-3108.0,-14076.0,-13046.0,-19247.0,-3249.0,-0.6411411099665457,-0.3928431557876659,-0.1649967035624767,0.63826986445795
-606.9929115772247,3512.0,-4608.0,-15316.0,-16958.0,-21067.0,-16268.0,-0.21144736805436137,0.6701614035482298,-0.16680221881806023,0.6916290360695696
-607.0085475444794,7720.0,-7624.0,-17032.0,-17365.0,-19290.0,-17104.0,0.5380493522895942,0.8315067412036846,0.048850958002137415,-0.12927883715384467
-607.0241286754608,10756.0,-9796.0,-15784.0,-13352.0,-15618.0,-12925.0,0.6094118743826449,-0.011431972960135508,0.1724777692338266,-0.7737815560452402
-607.0397543907166,10212.0,-10612.0,-15164.0,-9669.0,-13533.0,-2488.0,0.357745929806983,-0.8316917528265575,0.058179678377205335,-0.42062073535520167
-607.0553438663483,10016.0,-9856.0,-15232.0,-9859.0,-7294.0,-1475.0,-0.25498863208284767,-0.9621454408636808,0.058014035349644576,0.07675493362775929
-607.0709276199341,6024.0,-8576.0,-14320.0,-4320.0,-3741.0,-10352.0,-0.36831523171183933,-0.6217407669181204,-0.5267994032946544,0.44750943848093044
-607.0865116119385,4948.0,-6476.0,-13280.0,-3413.0,-3951.0,-8846.0,-0.28998435390263766,0.036446018352589114,-0.7544752423913684,0.5876630589516398
-607.1021313667297,7612.0,-6920.0,-14604.0,-4772.0,-3153.0,-6398.0,-0.1233087290891085,0.5924752820186463,-0.719685154266679,0.34032525068748704
-607.1177475452423,8924.0,-9204.0,-16864.0,-2091.0,4066.0,-2522.0,0.28694154224649454,0.5939043960905701,-0.6324752174324249,0.4061000110456849
-607.133398771286,5496.0,-9572.0,-16968.0,4555.0,8116.0,5076.0,0.23392932545121747,0.10292858605468766,-0.3898604000707565,0.8846986183573424
-607.1489925384521,1196.0,-6820.0,-16600.0,9488.0,9577.0,1610.0,0.22590163220660536,-0.3209180036813185,0.33761073147480447,0.8555694486554767
-607.1645987033844,-1444.0,-4272.0,-16056.0,9083.0,7185.0,-756.0,0.22834249938673415,-0.49233936628349595,0.7983039403747237,0.2610985832278195
-607.1802287101746,-1540.0,-5408.0,-14788.0,7240.0,2973.0,-14852.0,0.3780434386474419,-0.8176998727818556,0.216697337039211,-0.3761546765205366
-607.1958913803101,3648.0,-8808.0,-12044.0,7937.0,-19258.0,-31488.0,0.0798382194659133,-0.5180579678045985,-0.849808286991419,-0.05538660548717875
-607.2114765644073,15672.0,-4136.0,-23676.0,19199.0,14119.0,-32768.0,0.49985092822638727,0.5753289379181418,-0.632850734599409,0.13654893065194784
-607.2271168231964,13896.0,6648.0,-19440.0,17191.0,17017.0,25761.0,0.08310256696533071,-0.09256279876034379,-0.30208291677302135,0.9451306804052699
-607.2427079677582,3964.0,8312.0,-25212.0,11728.0,32767.0,11187.0,0.03558022088964512,-0.8988697581648515,0.29703755597179354,0.3202122672234921
-607.2582883834839,-8244.0,14656.0,-28640.0,-10000.0,32767.0,32767.0,-0.5906636954718314,-0.23404419287775707,0.6319206111899418,-0.4438649071340168
-607.2738671302795,-28796.0,-32768.0,-27432.0,-32395.0,14738.0,-32768.0,-0.7684934944976507,0.04605049619184899,0.10552512428081477,0.629413654809611
-607.289514541626,-9796.0,-32768.0,-20712.0,28121.0,-4120.0,-32625.0,0.2428252835060467,-0.489983149218283,0.526726521966213,0.6507776626696082
-607.305141210556,12956.0,-3868.0,-14012.0,32767.0,11776.0,-19592.0,0.61071581757443,-0.37630792405727476,0.4960914773376731,-0.4891950353070079
-607.3207256793976,-2688.0,22572.0,-10796.0,15670.0,3822.0,-26473.0,-0.05911633094938102,-0.18167612136526137,-0.2907834053497132,-0.9375201637906155
-607.336333990097,4612.0,13392.0,-11232.0,-18182.0,-16084.0,-6676.0,-0.5392693160056944,-0.5114239131397778,0.4861887949762691,-0.4596244570549644
-607.3519463539124,17988.0,-1216.0,-16204.0,-27609.0,4084.0,-5177.0,-0.8057056875975813,0.2739517140880739,0.4382021899808825,0.2894264051828607
-607.3675603866577,16884.0,-12264.0,-22976.0,-19248.0,18788.0,32523.0,-0.49403222633899463,0.6279976010291185,-0.5623748576173019,-0.21280435136558612
-607.3831644058228,840.0,-19616.0,-22972.0,4567.0,24072.0,24904.0,0.2803921017125425,-0.10718716799896565,-0.9505094950410389,0.08014287336010528
-607.3988072872162,-15196.0,-13884.0,-14772.0,19660.0,9128.0,-12051.0,0.54760450438861,0.5493385289105946,-0.29455172045887157,0.5582076418344408
-607.4144253730774,-6656.0,1236.0,-9716.0,8628.0,-7906.0,-25999.0,0.4464033558700871,0.7514707605820993,0.37079991418785957,-0.3138839968784038
-607.4300379753113,3704.0,564.0,-13172.0,-6737.0,-12312.0,-20194.0,0.30972186823944575,-0.2118634693819855,0.591377995286922,-0.7137634771870279
-607.4456219673157,12064.0,-3952.0,-16348.0,-10498.0,-3535.0,-8365.0,-0.14204535671687807,-0.730546941393843,0.6334817080859242,-0.2117196461734612
-607.4612016677856,14416.0,-8048.0,-17824.0,-3620.0,8246.0,5869.0,-0.5252379567320599,-0.15220378588174305,0.7091067588494888,-0.4451142560345245
-607.4767608642578,8572.0,-5152.0,-17292.0,3041.0,16090.0,13831.0,-0.44470039666654637,0.5607160663876067,0.017677590687494717,-0.6982310168467962
-607.4923553466797,372.0,-1552.0,-15064.0,3014.0,13732.0,9452.0,-0.02092824486154314,0.7256919398308055,-0.6506268973637086,-0.22275066208317326
-607.5079805850983,-5272.0,-972.0,-12904.0,-3893.0,2184.0,-286.0,0.3202995632569218,0.7374455581558721,-0.5224608725371126,-0.28393110995690185
-607.5235667228699,-3036.0,-5624.0,-15224.0,-7628.0,-6815.0,-11721.0,0.1244222267117318,0.5277678130302663,0.1366363123882817,-0.8290420756308308
-607.5391449928284,3580.0,-7984.0,-16892.0,-3991.0,-9370.0,-11000.0,-0.22834525569352004,-0.19706049814676754,0.5043486935407749,-0.8091093866691464
-607.5547783374786,9000.0,-6364.0,-17300.0,1800.0,-1943.0,-4812.0,-0.40723307933481806,-0.524824469938215,0.3007058423851871,-0.6843219207397704
-607.5703852176666,9424.0,-1716.0,-15580.0,3228.0,6119.0,5594.0,-0.06780303020881881,-0.10078279942873136,0.11600505006925321,-0.9857932870496938
-607.586014509201,5412.0,976.0,-15136.0,-1230.0,9486.0,9806.0,0.4292284169661197,0.5271508508633196,0.161730877419007,-0.7153447209507563
-607.6016192436218,1452.0,-808.0,-15208.0,-5509.0,7647.0,7447.0,0.7174849065667426,0.6236232009167245,0.31030340662940725,-0.004616054752280344
-607.6172242164612,-664.0,-4860.0,-16124.0,-5821.0,2327.0,1257.0,0.8484987662507667,0.25700689043364217,0.34066859712355757,0.3129571997485023
-607.6328587532043,200.0,-7416.0,-16204.0,-796.0,-2100.0,-6066.0,0.9530134787930317,0.06540544709899777,0.2610036451319626,-0.13915650885392417
-607.6484727859497,2684.0,-4940.0,-15688.0,2528.0,-3397.0,-6655.0,0.7702332171957293,0.06810592958886506,-0.011509180691701294,-0.6340109717055052
-607.6641159057617,4784.0,-2056.0,-15836.0,1884.0,-1241.0,-5662.0,0.39245791657871215,0.11614334116753826,-0.14634524844733945,-0.9005945682014876
-607.6797235012054,4956.0,-1160.0,-15932.0,-529.0,1262.0,-2806.0,0.18663289146741335,0.224797856104976,-0.03224147618956955,-0.9558214137202811
-607.6953403949738,4284.0,-2652.0,-15816.0,-2316.0,2545.0,-40.0,0.2258857332326808,0.3828315311521721,0.19468239962194556,-0.8743651511554305
-607.7109377384186,3200.0,-4912.0,-16020.0,-1546.0,2523.0,-1521.0,0.11380731270079726,0.4985750766210665,0.3970095267492501,-0.7621379299171884
-607.7265343666077,2372.0,-5068.0,-16108.0,1145.0,1837.0,-2328.0,-0.14895520449621522,0.5315085421489352,0.42455298743412256,-0.717680832638692
-607.7421531677246,2188.0,-3820.0,-15304.0,1817.0,854.0,-5735.0,-0.5513358649805005,0.30837106596435476,0.4999137168696146,-0.5924713709098675
-607.7577414512634,2712.0,-2760.0,-15376.0,958.0,73.0,-5235.0,-0.7716761825488684,0.03427812915769698,0.5332759138666722,-0.34490241929844356
-607.7733881473541,3624.0,-3100.0,-15580.0,1067.0,-336.0,-4955.0,-0.8302980989488142,-0.2543567279480676,0.4926567326006306,-0.05654260033646137
-607.7890219688416,4916.0,-3080.0,-15484.0,1304.0,-108.0,-4382.0,-0.7598972685345373,-0.4995054337635699,0.3687799862704565,0.19248840131493375
-607.8046391010284,6268.0,-2688.0,-15688.0,1310.0,2471.0,171.0,-0.7625606912964622,-0.6046933435710026,0.22788519219756195,0.030257090201528638
-607.820246219635,5788.0,-2340.0,-15572.0,728.0,4194.0,4283.0,-0.7242439529376438,-0.5124155743928581,0.15649182276884097,-0.4340636879069466
-607.8358886241913,4860.0,-3032.0,-14712.0,-1242.0,3781.0,3434.0,-0.6373527881397292,-0.22181464244558505,0.10753453036525257,-0.7300794563788077
-607.8514745235443,4416.0,-4608.0,-15892.0,-675.0,3747.0,3874.0,-0.3964419169446921,0.08188617644488039,0.015710033009766436,-0.9142656372517167
-607.867105960846,3780.0,-4684.0,-16080.0,1503.0,3124.0,4541.0,-0.04401696086060434,0.2554469064144022,-0.21874811281429313,-0.9407224076740666
-607.8826937675476,3388.0,-3628.0,-15168.0,1527.0,1078.0,280.0,-0.034037657375629124,0.32851955998278454,-0.34991295224048097,-0.8766283490986633
-607.8982932567596,4456.0,-3688.0,-15296.0,150.0,119.0,434.0,-0.0014841878079807907,0.32380945933809946,-0.374059051481053,-0.8690368560854098
-607.9139149188995,5408.0,-4824.0,-14984.0,-437.0,275.0,2474.0,0.2026464489392086,0.2578829822764659,-0.4014067165668138,-0.8551628102762504
-607.9295620918274,5764.0,-5520.0,-14132.0,-818.0,1687.0,3328.0,0.5014562846483005,0.23978845255052242,-0.3658432245178155,-0.7464595284973966
-607.9451906681061,5728.0,-5524.0,-16264.0,469.0,2578.0,6141.0,0.8415391055362577,0.20061023218403215,-0.35626737721686685,-0.35304535760624106
-607.9607779979706,4800.0,-3860.0,-16712.0,2497.0,4147.0,7510.0,0.9132347838853626,0.21945082029764498,-0.20536951128300782,0.27507622726786923
-607.9763674736023,3688.0,-2232.0,-15540.0,2128.0,3849.0,4866.0,0.7156631432960091,0.18190361608516015,0.05119424545162289,0.6723960804581312
-607.9920129776001,2972.0,-1916.0,-14788.0,337.0,2212.0,3354.0,0.47503027273262327,0.08343459995118573,0.14694564661698328,0.8635924295979395
-608.0076260566711,3104.0,-3272.0,-14388.0,-673.0,803.0,913.0,0.3978586989607927,0.006979692581914226,0.12196990601124363,0.9092761305457743
-608.0232970714569,3692.0,-4604.0,-15608.0,-138.0,375.0,-364.0,0.4223577155483865,-0.031210996556636773,0.12392340930025071,0.8973755191880891
-608.038911819458,4096.0,-4884.0,-15424.0,1673.0,712.0,-624.0,0.4616679528894325,-0.031541543892987335,0.27541817685140535,0.8426224896972402
-608.0545105934143,3940.0,-4480.0,-14400.0,1565.0,-285.0,-2654.0,0.6448767259302022,-0.010902089531874434,0.35906089852274176,0.6746039015225328
-608.0701463222504,5068.0,-4484.0,-14944.0,517.0,-1513.0,-2433.0,0.8102489914372449,0.03009071393030548,0.292937024258525,0.5067336782064642
-608.085770368576,6208.0,-4496.0,-15116.0,1450.0,529.0,-944.0,0.8244006441124293,0.08409440205155368,0.39223502350126804,0.3993036386881077
-608.1014225482941,5488.0,-3808.0,-15528.0,1594.0,2125.0,1485.0,0.6649953102907056,0.16973810299252573,0.570221241439396,0.4514620133468383
-608.1170313358307,4036.0,-3600.0,-14840.0,591.0,1720.0,-374.0,0.5776629753515744,0.11621688323997115,0.6900740804808421,0.4202343232132209
-608.1326613426208,3644.0,-5096.0,-15056.0,-150.0,-353.0,-2742.0,0.6812510870853807,-0.04230774731611074,0.675361985815171,0.2792726248270887
-608.1482532024384,4164.0,-5644.0,-15608.0,1748.0,-976.0,-3972.0,0.7848116223477283,-0.13869554875151993,0.6017184094496982,-0.052623359012576296
-608.1638860702515,4348.0,-4592.0,-15328.0,3491.0,-999.0,-3944.0,0.7800817900893117,-0.10093336588251443,0.42547031323705153,-0.44750404353105794
-608.1794710159302,4584.0,-3208.0,-14912.0,2290.0,-1051.0,-5673.0,0.5430298389071552,-0.17314100744668431,0.1888216685315728,-0.7996794126959684
-608.1951246261597,5276.0,-3696.0,-15020.0,425.0,-926.0,-3631.0,0.2956584304197981,-0.26380960213961147,0.057522824881791675,-0.9163414816313077
-608.2107391357422,5616.0,-4904.0,-15276.0,1293.0,797.0,-2727.0,0.09972585270646112,-0.17435995618380115,-0.08489372494234346,-0.9759336122129241
-608.2263412475586,4536.0,-4008.0,-15736.0,3735.0,1854.0,-1383.0,0.04905818313009778,0.02424292767638996,-0.3808551784604905,-0.9230140346524959
-608.2420139312744,2980.0,-2320.0,-14456.0,2948.0,873.0,-3418.0,-0.18881948863440431,0.20483384004264066,-0.5639224190959923,-0.777419966251287
-608.2576224803925,3236.0,-2748.0,-14304.0,-343.0,-1842.0,-6357.0,-0.6099499760565089,0.34491452316743093,-0.34357365230991027,-0.6252616603113267
-608.2732195854187,5140.0,-5612.0,-14496.0,-1455.0,-3263.0,-6769.0,-0.8592583485829297,0.37213430835400185,0.09416382163512782,-0.33811879810429485
-608.2888116836548,7112.0,-6972.0,-15068.0,266.0,-1694.0,-5240.0,-0.9087540510588753,0.23372085272465473,0.3457401412277118,-0.0020958123926812437
-608.3044626712799,7512.0,-6036.0,-15220.0,2406.0,784.0,-1632.0,-0.9494686216484413,-0.005789604996335987,0.30626455168342576,0.06839474659026068
-608.3200895786285,6212.0,-4360.0,-14252.0,2292.0,2206.0,1287.0,-0.9722628038996323,-0.16703454938051904,0.13231704937075894,-0.09641938556270065
-608.3357150554657,4764.0,-3892.0,-13664.0,-309.0,1099.0,815.0,-0.9752885245640641,-0.12129486369008659,0.053473803730060866,-0.17674954656432118
-608.3513157367706,4624.0,-5884.0,-14332.0,-1651.0,-13.0,-415.0,-0.988228338721126,0.0169668404813163,0.07514710934372472,-0.13217332873862014
-608.3668999671936,5200.0,-6788.0,-14904.0,319.0,-287.0,-923.0,-0.99353136015906,-0.01962451124707693,0.09745687687334656,-0.054885991736462594
-608.3824799060822,5132.0,-5136.0,-14672.0,2044.0,-17.0,-486.0,-0.9759490243215592,-0.19761263385497588,0.0871481331463713,-0.029630250687402184
-608.3980827331543,5104.0,-3544.0,-14484.0,843.0,468.0,-863.0,-0.9610585405880884,-0.2731227680464458,0.030342037506334695,0.029151258931737017
-608.4137415885925,5096.0,-3832.0,-14960.0,-215.0,409.0,302.0,-0.9668636549112829,-0.2552189659456129,0.00293113489096734,-0.005418549759730564
-608.4293806552887,5176.0,-4524.0,-15192.0,201.0,918.0,314.0,-0.95885991977929,-0.27082566903505395,-0.06713718337248674,-0.05228489113862645
-608.4449670314789,5116.0,-4332.0,-14916.0,-140.0,1246.0,1084.0,-0.940086553172991,-0.2573245014055025,-0.1434973378679524,-0.171551413706054
-608.4605598449707,4860.0,-4984.0,-14348.0,-823.0,739.0,174.0,-0.9421802859435678,-0.1802724878185626,-0.18695030480164126,-0.211772808569883
-608.476156949997,5304.0,-5704.0,-14628.0,-464.0,568.0,718.0,-0.9232247930063151,-0.14285841546293163,-0.2129082723776259,-0.2862123726589078
-608.4918117523193,5284.0,-5420.0,-15160.0,1023.0,1556.0,1407.0,-0.8293234498434495,-0.20838099833457263,-0.3393776094254195,-0.3919474624149693
-608.5073823928833,4424.0,-4136.0,-14772.0,1300.0,1461.0,1696.0,-0.6869272232298169,-0.29545105981724573,-0.4476362259427687,-0.4903687086900572
-608.5229783058167,4128.0,-3852.0,-14584.0,-617.0,380.0,-547.0,-0.7090422937472388,-0.22032010875999605,-0.4568678376695293,-0.4898875934914112
-608.5386595726013,4620.0,-5360.0,-14768.0,-1253.0,-520.0,-543.0,-0.7707516170827521,-0.14233724049128307,-0.3786881123047742,-0.49221678997439366
-608.5542576313019,5684.0,-6240.0,-14984.0,882.0,185.0,-1146.0,-0.7964072778163335,-0.15468811588457973,-0.43987888015798343,-0.3851150548033855
-608.5698552131653,6292.0,-4984.0,-14860.0,2062.0,1670.0,838.0,-0.657031751296503,-0.2664006577314716,-0.5967753919392567,-0.3757646855736131
-608.5854523181915,5712.0,-4268.0,-14504.0,1673.0,2054.0,966.0,-0.4653727740708087,-0.3353795014336021,-0.7254591274753006,-0.38033909282975936
-608.6010196208954,5104.0,-3604.0,-14576.0,1489.0,2371.0,1791.0,-0.20359177814745272,-0.4135805851436839,-0.7864378063742054,-0.4111168497742391
-608.6166315078735,4524.0,-3408.0,-14940.0,918.0,2577.0,1228.0,0.049023193775568595,-0.4080588461346508,-0.7941625515516291,-0.44765002655680336
-608.6322596073151,3864.0,-3012.0,-15512.0,1120.0,3045.0,898.0,0.32151159128635515,-0.3325990602697754,-0.7608488548095135,-0.4551012875297433
-608.6479465961456,2820.0,-2784.0,-14368.0,552.0,892.0,-421.0,0.3781209699639725,-0.2526289553531666,-0.7663954273070223,-0.4536972470641178
-608.6635599136353,3128.0,-4136.0,-13376.0,-3041.0,-3503.0,-6576.0,-0.1502992763323271,-0.042540685459232605,-0.7420285694306233,-0.6519156538720173
-608.679169178009,6444.0,-7356.0,-14400.0,-3680.0,-5865.0,-6885.0,-0.712047046818207,0.08971095597040868,-0.36643619656889864,-0.5921701287134172
-608.6948127746582,9500.0,-9176.0,-15444.0,84.0,-1461.0,-3651.0,-0.8967776779433633,0.11905016136781182,-0.2377689630795586,-0.35367043361988704
-608.7104573249817,9124.0,-6436.0,-15716.0,4731.0,3169.0,4680.0,-0.6188064672368226,-0.21053420057823863,-0.5722711286809122,-0.49523697536738925
-608.7260522842407,5700.0,-2920.0,-13268.0,1916.0,2863.0,3624.0,-0.2600780559124539,-0.34038131644271746,-0.681205281691676,-0.5936828517355756
-608.7416536808014,4804.0,-3420.0,-13008.0,-4407.0,-440.0,-209.0,-0.3990273342339538,-0.23398798616120575,-0.418990657886509,-0.7813281240747694
-608.7572457790375,6232.0,-7356.0,-14324.0,-4166.0,-292.0,454.0,-0.4353929187344161,-0.11795725188184605,-0.1084769780577891,-0.8858622005006529
-608.7728781700134,6144.0,-7872.0,-14752.0,616.0,1289.0,1523.0,-0.29421884668626724,-0.05542726311411742,-0.1861013954761761,-0.9358041244620057
-608.7885003089905,4192.0,-4372.0,-14428.0,2810.0,1220.0,79.0,-0.24566385306708474,-0.02852152922733692,-0.43140154167784633,-0.8675992758784125
-608.8041250705719,3212.0,-2496.0,-14024.0,-177.0,-1845.0,-3163.0,-0.5286109195433543,-0.04327857622904708,-0.36820610829878225,-0.7636240713797472
-608.8197348117828,4744.0,-3036.0,-14132.0,-3316.0,-4443.0,-5809.0,-0.877121839206297,0.00011167926948858311,0.02916939697591729,-0.47938128144011305
-608.8353242874146,7000.0,-5156.0,-14936.0,-3781.0,-3361.0,-4039.0,-0.9032192950564962,0.1207283498250039,0.3873797112721747,-0.13984466339787233
-608.8508927822113,8272.0,-6068.0,-15396.0,-1306.0,378.0,767.0,-0.8845758587284089,0.2519768992773867,0.3623572382722949,-0.15076612436859627
-608.8664939403534,6476.0,-5048.0,-15176.0,-192.0,2901.0,3567.0,-0.8584463529168873,0.38781557653514265,0.05826108988836148,-0.33056706303778977
-608.8820905685425,4024.0,-3644.0,-15448.0,-628.0,2342.0,1838.0,-0.7693268234651826,0.494879316017769,-0.15572606207447004,-0.37280034182593647
-608.8977029323578,2212.0,-3628.0,-15444.0,-1315.0,-608.0,-2040.0,-0.7688980628066464,0.5777555946773051,0.01559650737321754,-0.2734062742312568
-608.9133951663971,3084.0,-4372.0,-15308.0,-1174.0,-4065.0,-6581.0,-0.7110826036393626,0.4549115606335554,0.5353292905515322,-0.02897504928384444
-608.9290752410889,5424.0,-5228.0,-15356.0,-175.0,-4464.0,-7361.0,-0.41092423635040415,0.08856957805475228,0.8834657741239726,0.20684517827247068
-608.9447245597839,7196.0,-4496.0,-15284.0,1405.0,-2261.0,-5873.0,-0.12316616295152943,-0.32566899498868956,0.9023733511575142,0.2539530214973074
-608.9603359699249,7192.0,-2992.0,-14916.0,826.0,372.0,-1982.0,-0.08361366040535691,-0.49007432691439434,0.8452729590069077,0.19583037217124327
-608.9759805202484,5708.0,-2636.0,-14764.0,-531.0,877.0,261.0,-0.1747784194078193,-0.47989088219549947,0.8374621661192833,0.19445916181483405
-608.9915673732758,4788.0,-3636.0,-14664.0,-1936.0,-211.0,-38.0,-0.2363521875223737,-0.44322007748899295,0.7949502132911819,0.34021723170989504
-609.0072391033173,4596.0,-5096.0,-14620.0,-1464.0,-1261.0,-2172.0,-0.13660820496178677,-0.5101571015718163,0.6723312158384588,0.5186990131686599
-609.0228173732758,5020.0,-5408.0,-14876.0,-414.0,-1793.0,-3117.0,0.08707209797796366,-0.5788533829037705,0.5114207585075591,0.6291232141815543
-609.0384368896484,5544.0,-4888.0,-15100.0,323.0,-1312.0,-3894.0,0.3535801074106594,-0.6382803864196033,0.3035236720212369,0.6127419003775189
-609.0540256500244,5504.0,-3948.0,-14620.0,403.0,-985.0,-1567.0,0.4793754953400681,-0.606663304950734,0.2046422226984582,0.600233562526082
-609.0696070194244,5060.0,-3648.0,-13952.0,-944.0,-1010.0,-1099.0,0.4990532127746247,-0.6059637667984084,0.0540950661873205,0.6171122490771015
-609.085209608078,4864.0,-3868.0,-14708.0,-2027.0,-1342.0,-1873.0,0.4820130483573698,-0.6095583553303112,-0.20540693730223236,0.5949033726315216
-609.1008687019348,5520.0,-4680.0,-15284.0,-775.0,-1078.0,-1270.0,0.48119061245723205,-0.5564915044427413,-0.35418734494606796,0.5773422941775036
-609.11652135849,5576.0,-3992.0,-15052.0,-191.0,-968.0,-1219.0,0.49869503449364483,-0.47378270028853164,-0.4595704721557093,0.5618079712866915
-609.1321220397949,5596.0,-3076.0,-14908.0,-1327.0,-1170.0,-56.0,0.39488257093929946,-0.46648120310761365,-0.5712881405746281,0.5478073591641744
-609.1477530002594,5924.0,-3356.0,-15408.0,-1905.0,-512.0,1091.0,0.23508574978606162,-0.5515155449091541,-0.6238204179251494,0.5014113881343102
-609.1633534431458,5376.0,-4032.0,-15484.0,-809.0,173.0,2671.0,0.08616783283437088,-0.7005884227242052,-0.5122683597480623,0.48921579505415413
-609.178938627243,4440.0,-3800.0,-14748.0,-562.0,-60.0,1388.0,-0.00997960965385714,-0.7579349417359849,-0.44817798681440607,0.473889780035202
-609.1945369243622,4100.0,-3820.0,-14388.0,-1528.0,-1978.0,-425.0,-0.16670195149847447,-0.6427437358069807,-0.5251994219495731,0.532218485803829
-609.2101814746857,5568.0,-4212.0,-14852.0,-1850.0,-2340.0,233.0,-0.37581351389159046,-0.5011205925072016,-0.545889484089801,0.5564593657239112
-609.2257883548737,6696.0,-4220.0,-15992.0,-537.0,-930.0,2206.0,-0.5383830236133038,-0.5314951806962763,-0.4353164178201023,0.48801250922276945
-609.241376876831,6316.0,-2984.0,-15220.0,525.0,1970.0,6509.0,-0.6154399395456039,-0.7625991581713488,-0.17505664197658183,0.09503355653839449
-609.2569620609283,3908.0,-2340.0,-13812.0,-1101.0,2383.0,6640.0,-0.6001467975622509,-0.7000530482486248,0.1101066866413802,-0.37097987623379264
-609.2725584506989,2492.0,-2984.0,-15608.0,-4373.0,-276.0,4009.0,-0.6522729290476521,-0.3921326705322994,0.4538377866145266,-0.46346872405118233
-609.2881295681,3812.0,-5512.0,-16872.0,-3227.0,-1928.0,66.0,-0.6493949881700678,-0.26975349985006397,0.6618486349197433,-0.25976062656436477
-609.3037774562836,5248.0,-5568.0,-16096.0,3553.0,-1400.0,-84.0,-0.4615963922141674,-0.4816193448668751,0.625064261610886,-0.40529772538432124
-609.3194169998169,5104.0,-1308.0,-14616.0,4434.0,-715.0,1938.0,-0.1540709092905916,-0.5333425146326022,0.5321989652717027,-0.6391965099712854
-609.3350026607513,4352.0,332.0,-14500.0,-1351.0,-1149.0,1062.0,-0.10267688047570805,-0.521681782619046,0.66183849504071,-0.5284651193611926
-609.3506364822388,4760.0,-2388.0,-16628.0,-4070.0,104.0,2230.0,-0.17710862066570368,-0.3260044708495979,0.8806631871576882,-0.294594589660483
-609.3662345409393,4564.0,-5288.0,-15580.0,-3543.0,-505.0,1198.0,-0.19763127175628684,-0.18253087537301604,0.962809028724494,-0.024962655430661396
-609.3818349838257,4056.0,-7312.0,-14888.0,-805.0,-2214.0,-2462.0,-0.028415772548906204,-0.3645286268497844,0.923606754879119,0.1151606982399914
-609.3974363803864,5080.0,-6292.0,-15204.0,1042.0,-3040.0,-2988.0,0.2612848338402235,-0.5392402854175967,0.7906041146315731,0.12607650104385743
-609.4130373001099,6228.0,-3960.0,-15524.0,1149.0,-1749.0,-1210.0,0.43949885678522405,-0.5649395759028312,0.6912725567614856,0.09912760832204581
-609.4287025928497,6156.0,-2660.0,-14652.0,-1408.0,288.0,1619.0,0.33257522635365777,-0.5147707407637624,0.7566459115680308,0.22779764655659696
-609.4442882537842,5124.0,-3544.0,-14828.0,-2983.0,-103.0,2188.0,0.15384739128089076,-0.4328981983154091,0.7543774778131471,0.46887605084884854
-609.4598948955536,4352.0,-4616.0,-14996.0,-1574.0,-304.0,1675.0,0.04486625822491635,-0.3248145965675986,0.734434313944824,0.5942127020099106
-609.4754803180695,3448.0,-3888.0,-14804.0,-1076.0,-1645.0,275.0,0.10396302195649527,-0.22284211015524397,0.6702088901811158,0.7002521885216983
-609.4910931587219,3644.0,-3540.0,-15664.0,-1846.0,-2805.0,-1457.0,0.30591673092092114,-0.1461689180964406,0.4799578143761372,0.8091292217837976
-609.5066802501678,4752.0,-3648.0,-16240.0,-634.0,-2286.0,-202.0,0.3992729472289227,-0.009949722021656919,0.36406345302058885,0.841391656018496
-609.5222704410553,4668.0,-2748.0,-15816.0,340.0,-177.0,1542.0,0.2891032000111235,0.06338205323070424,0.3808172965571884,0.8760024210665532
-609.5378749370575,3408.0,-1952.0,-15520.0,-553.0,-203.0,1615.0,0.17342686357389103,0.1174477734137543,0.3211571179749193,0.9235730881122068
-609.5535116195679,2680.0,-2388.0,-16552.0,-364.0,-412.0,978.0,0.1093008444582797,0.1719255264584618,0.2744866197571592,0.939761690178407
-609.569149017334,2216.0,-2596.0,-16072.0,645.0,-1259.0,-366.0,0.1584626955410321,0.2706073743989732,0.3184698112835747,0.8945603402475253
-609.584718465805,2788.0,-2864.0,-15728.0,1.0,-2023.0,-3212.0,0.44173489151605294,0.322308872710851,0.3479763252849713,0.7615114925136255
-609.6003458499908,4076.0,-3336.0,-15596.0,158.0,-1762.0,-2788.0,0.6495348836210803,0.346972026624217,0.3546627931971982,0.5761329280827425
