programtime,ax,ay,az,gx,gy,gz,q0,q1,q2,q3
-596.6226403713226,3360.0,-1380.0,16340.0,289.0,-177.0,49.0,0.9995522346278741,0.025083397961164093,-0.015744367479588735,0.004274141997281204
-596.6382412910461,3364.0,-1380.0,16108.0,502.0,-131.0,83.0,0.9972011939600145,0.06853530355370616,-0.02739964610731217,0.01191429077692333
-596.6538262367249,3512.0,-1348.0,16260.0,322.0,-116.0,43.0,0.9945203966565427,0.0962690881095524,-0.037596501215958686,0.015746314012706902
-596.6693892478943,3488.0,-1232.0,16104.0,287.0,-101.0,120.0,0.9912359462500138,0.12058880673461961,-0.04711181760240622,0.026270043668747117
-596.6849608421326,3504.0,-1328.0,16160.0,325.0,-133.0,154.0,0.9863999262007157,0.1479948661997903,-0.05957845311504044,0.0395362250872245
-596.700523853302,3424.0,-1232.0,16376.0,296.0,-202.0,166.0,0.9804169774430274,0.17290389458993216,-0.07812442911531417,0.05275762648677881
-596.7161099910736,3372.0,-1160.0,16064.0,287.0,-246.0,223.0,0.9727227963187528,0.1966260487135733,-0.10118854228837838,0.07006737756378871
-596.7317085266113,3440.0,-1124.0,16084.0,348.0,-301.0,239.0,0.9617111168916498,0.22537232376691752,-0.1285977879926152,0.08821367382850372
-596.7473056316376,3520.0,-1032.0,16296.0,293.0,-360.0,18.0,0.9510617495411386,0.2520446508908299,-0.15676703469768696,0.08590191702844789
-596.7628719806671,3540.0,-1268.0,16180.0,275.0,-397.0,280.0,0.9364516101910538,0.2734246169899039,-0.19355160609482921,0.10409196113350422
-596.7784395217896,3464.0,-916.0,16156.0,195.0,-451.0,4.0,0.9233844579800121,0.29287699002610423,-0.2284604805443184,0.09690211712686063
-596.7940073013306,3512.0,-964.0,16060.0,162.0,-421.0,169.0,0.908711685668456,0.3056263903571164,-0.26502597786337456,0.1029408223419407
-596.8095669746399,3412.0,-1084.0,16132.0,156.0,-415.0,261.0,0.8918067165276492,0.3151655493702673,-0.30310298414720344,0.11610356517941543
-596.8251733779907,3384.0,-1104.0,16180.0,129.0,-369.0,176.0,0.876202607704143,0.32387573981771905,-0.3350217755821512,0.12301993861064776
-596.840781211853,3368.0,-1176.0,16384.0,61.0,-383.0,158.0,0.8611125228313582,0.3276425972057804,-0.36777087236158174,0.12601641544523237
-596.8563721179962,3412.0,-1128.0,16144.0,17.0,-263.0,133.0,0.8505449413386343,0.32727739240111514,-0.3909129082997221,0.12903452759257272
-596.8719890117645,3268.0,-1128.0,16316.0,-12.0,-155.0,92.0,0.8445642561634111,0.32480611559363437,-0.4050163153568105,0.13104956611492968
-596.8875486850739,3276.0,-1052.0,16180.0,-17.0,-77.0,78.0,0.8414987764176459,0.32152050001718546,-0.4129596829246008,0.1340472962618681
-596.9031496047974,3268.0,-1352.0,16208.0,-81.0,-17.0,65.0,0.8424677858094277,0.3132738770075021,-0.41684342581525097,0.13545872512560495
-596.9188361167908,3240.0,-1336.0,16168.0,-105.0,-16.0,62.0,0.8440795883946431,0.30333046469847547,-0.4208098630974334,0.1357915194747299
-596.9344563484192,3272.0,-1288.0,16220.0,-58.0,-19.0,45.0,0.8444705481044829,0.2974874498131873,-0.42395269241500316,0.13650943257456805
-596.950131893158,3072.0,-1268.0,16232.0,-9.0,35.0,5.0,0.8460405733007578,0.2960879838205152,-0.4214777958995697,0.1374908059823206
-596.9657437801361,3356.0,-1412.0,16216.0,-237.0,75.0,236.0,0.8518128201302393,0.26874546170098834,-0.4245630074384862,0.14811160991522268
-596.9813826084137,3452.0,-1444.0,16300.0,-16.0,128.0,-246.0,0.8599620891135724,0.27480273839905317,-0.40922271420462464,0.1322324863065112
-596.9969854354858,3540.0,-1396.0,16232.0,14.0,211.0,-24.0,0.8673914663560665,0.274085385604801,-0.3924422750180353,0.13600847866662208
-597.0125730037689,3476.0,-1340.0,16100.0,66.0,172.0,-87.0,0.8727000319298595,0.2798267506290255,-0.3763583943012959,0.13581606289748466
-597.0281655788422,3436.0,-1348.0,16228.0,118.0,129.0,-100.0,0.8752069545678088,0.29036950878480366,-0.36250100533705104,0.13524554031035696
-597.0438091754913,3536.0,-1304.0,16080.0,122.0,107.0,-122.0,0.8769039128803047,0.30207469894559563,-0.3496129512275974,0.13251863327875174
-597.0594329833984,3548.0,-1272.0,16012.0,93.0,126.0,-109.0,0.8795357424322572,0.31084786240495443,-0.3358523834293185,0.13035973598951042
-597.0750563144684,3808.0,-1240.0,16124.0,61.0,72.0,-165.0,0.8818473923491345,0.3193260753540404,-0.32499730662113957,0.12146104270515085
-597.090654373169,3648.0,-1236.0,16036.0,55.0,20.0,-119.0,0.8821847756418354,0.3265194529071475,-0.3194298829730224,0.11445356422070388
-597.1062502861023,3592.0,-1328.0,16032.0,88.0,-45.0,-115.0,0.8795957228178058,0.3367386802535585,-0.3186090614262217,0.10680211420573815
-597.1218345165253,3476.0,-1328.0,16076.0,98.0,-98.0,-171.0,0.8755261950054277,0.34968628979568467,-0.3200364778592862,0.09354161334758301
-597.1374273300171,3444.0,-1408.0,16108.0,153.0,-33.0,-119.0,0.870882517740643,0.3647400858264177,-0.31753721104005767,0.08774069574580559
-597.1532380580902,3492.0,-1448.0,15924.0,164.0,-8.0,-122.0,0.866341142688057,0.3804108978869202,-0.31286960140358544,0.08278397050383766
-597.1690044403076,3520.0,-1448.0,16136.0,172.0,-69.0,-126.0,0.8595984040115495,0.39710508997668736,-0.31252152927363225,0.07568635990635286
-597.1845707893372,3436.0,-1408.0,16356.0,180.0,-105.0,-99.0,0.8510846779670905,0.4137499127949581,-0.31563971722386247,0.06955177569737794
-597.2001810073853,3460.0,-1392.0,16128.0,171.0,-173.0,-15.0,0.8401528524275776,0.42765344251594645,-0.32676770122209275,0.0669222466754825
-597.2158405780792,3540.0,-1432.0,16164.0,185.0,-142.0,32.0,0.8289445108803273,0.4408840325904617,-0.3371562779720238,0.06926696118784849
-597.2314434051514,3548.0,-1436.0,16064.0,214.0,-205.0,1.0,0.8145082175908145,0.4572725212776609,-0.3505516828735413,0.06776224904719347
-597.2470967769623,3496.0,-1472.0,16168.0,204.0,-133.0,43.0,0.8019651460603042,0.47099278191402416,-0.3603698816349014,0.07177222512790468
-597.2627074718475,3488.0,-1344.0,16224.0,179.0,-121.0,-12.0,0.7908442702783078,0.4844342045902149,-0.3670976920855446,0.07161093531356234
-597.2783191204071,3520.0,-1312.0,16100.0,220.0,-107.0,253.0,0.7762747611507899,0.4918175840055079,-0.3835669073881488,0.09159359595496065
-597.2940013408661,3480.0,-1292.0,16024.0,247.0,-151.0,77.0,0.759849745939848,0.5068845636954233,-0.3949353511176864,0.09860259185233732
-597.3096036911011,3480.0,-1360.0,16028.0,254.0,-147.0,27.0,0.7431743261804573,0.5237739115848443,-0.40350429927990344,0.10265033322872788
-597.3252005577087,3536.0,-1412.0,16312.0,301.0,-103.0,107.0,0.7246225773574092,0.5401101405978973,-0.4121516027226115,0.1154738618926721
-597.3408641815186,3472.0,-1340.0,16252.0,284.0,-126.0,122.0,0.7052770178250896,0.5546133166007573,-0.4227811888259815,0.12745377025316226
-597.3565080165863,3520.0,-1264.0,16096.0,266.0,-128.0,185.0,0.6854047184928462,0.5652244528727445,-0.43640902078266164,0.14243895647598281
-597.3720993995667,3500.0,-1120.0,16164.0,251.0,-168.0,87.0,0.6653917831334465,0.5787049282520145,-0.44741711467964707,0.148903681778064
-597.3877243995667,3524.0,-1256.0,16080.0,269.0,-235.0,97.0,0.6411307960048622,0.593198335026922,-0.4621862398283105,0.15313692385844369
-597.4033064842224,3492.0,-1028.0,16208.0,221.0,-325.0,62.0,0.6154749837082016,0.6069641080621381,-0.4803008337710938,0.14864799034132387
-597.4188783168793,3448.0,-1000.0,16192.0,184.0,-370.0,-243.0,0.5929453910826028,0.6312151062859334,-0.4844554542272456,0.1236372341158206
-597.4344348907471,3396.0,-924.0,16256.0,92.0,-451.0,-104.0,0.5695387639025,0.6446309985215262,-0.5006185260527608,0.09725000529724438
-597.4500546455383,3168.0,-864.0,16396.0,21.0,-527.0,-173.0,0.5462480116858075,0.6568811931586477,-0.5162706287839208,0.05987358064145207
-597.4656059741974,3048.0,-768.0,16544.0,36.0,-506.0,-243.0,0.5221118008842912,0.6713343885855005,-0.5256166210285416,0.020894348002103064
-597.481189250946,2952.0,-768.0,16512.0,-31.0,-391.0,-323.0,0.5061670528631471,0.6847358484106917,-0.5240259150013364,-0.01812658004530127
-597.4968836307526,2904.0,-756.0,16780.0,-74.0,-211.0,-478.0,0.4997365811385671,0.7022098221898179,-0.504103755556389,-0.05517353283980565
-597.5125408172607,2808.0,-988.0,16832.0,-168.0,-9.0,-638.0,0.5058096803654492,0.7216731333308899,-0.4637899605150169,-0.09079277725929848
-597.5281319618225,2556.0,-688.0,16704.0,-291.0,223.0,-875.0,0.5245220590909511,0.7434246065875745,-0.39514147037448927,-0.126726801574827
-597.5437746047974,2540.0,-460.0,16600.0,-309.0,575.0,-1043.0,0.54979271586207,0.7671468266703457,-0.29598772260939626,-0.14698633943033934
-597.5593636035919,2468.0,-420.0,16516.0,-363.0,811.0,-1388.0,0.571450470418312,0.7878210008445161,-0.15781923700483236,-0.16695963260095917
-597.5749521255493,2492.0,-292.0,16408.0,-438.0,1033.0,-1738.0,0.5811625835392502,0.7920907870401818,0.019310047396614047,-0.18565925414476325
-597.5905740261078,2244.0,-352.0,16772.0,-437.0,1240.0,-1811.0,0.5692671853036683,0.7722979031211075,0.2105303795134165,-0.18753074380782533
-597.6061658859253,2400.0,-328.0,16696.0,-469.0,1284.0,-2270.0,0.5263194173750013,0.7095019428208515,0.42383680019094827,-0.1998930484818675
-597.6217691898346,2392.0,-632.0,16816.0,-466.0,2009.0,-2377.0,0.42375674310031414,0.6124743732278316,0.6474801406585794,-0.1614770332553071
-597.6373820304871,2476.0,-772.0,17204.0,-580.0,2305.0,-2599.0,0.275198034370376,0.45555066870371913,0.8410142027183906,-0.09713259467462838
-597.6529965400696,2352.0,-1288.0,17388.0,-857.0,2948.0,-2598.0,0.06685137232822698,0.25401894847665896,0.9646905339042412,0.019427857015003075
-597.668577671051,2164.0,-1356.0,17460.0,-786.0,3262.0,-2645.0,-0.17421367243055755,0.019822730626648823,0.9754106743104348,0.13353153983244784
-597.6841108798981,2080.0,-1464.0,17152.0,-1048.0,3664.0,-2803.0,-0.41754059174889685,-0.2270186100287932,0.8432289744511903,0.25117185668097836
-597.6997313499451,2024.0,-1588.0,16516.0,-964.0,4069.0,-3208.0,-0.6049293688329992,-0.4698630495039667,0.554303992743748,0.3256320885024713
-597.7153050899506,2260.0,-1288.0,15856.0,-849.0,4269.0,-3334.0,-0.6779777157603449,-0.6382765280101095,0.15147647215648954,0.33166876414092555
-597.7308912277222,2924.0,-1024.0,15428.0,-740.0,4313.0,-4009.0,-0.5862738137864086,-0.6856970288724812,-0.30950921846472224,0.3005106379966404
-597.7464656829834,3360.0,-1164.0,15208.0,-615.0,3631.0,-4350.0,-0.3679388357042133,-0.5657373770678508,-0.6910226302967094,0.25894006601303243
-597.7620437145233,3356.0,-1624.0,15684.0,-577.0,2583.0,-4528.0,-0.12575933593874808,-0.30225894241859846,-0.9189070303619397,0.22007723804073123
-597.7776186466217,3252.0,-1700.0,16380.0,-577.0,1925.0,-4104.0,0.08570702494491088,-0.0034303104101321034,-0.9840050652790063,0.15612997902658238
-597.7931940555573,3136.0,-1920.0,16876.0,-567.0,1857.0,-4363.0,0.2810963682510224,0.3154785502821753,-0.9037477597200771,0.0685427083567922
-597.8087694644928,3252.0,-2292.0,16496.0,-627.0,2187.0,-4236.0,0.45762124166212353,0.5727709228187047,-0.6797068028332982,-0.022692098518240826
-597.824339389801,3216.0,-2668.0,16076.0,-650.0,2221.0,-3853.0,0.5718975205239966,0.7259074004679122,-0.36959290337908013,-0.09691624082807342
-597.8399555683136,3140.0,-2916.0,15688.0,-609.0,1853.0,-3273.0,0.6098187819330408,0.7749752991173728,-0.06122220933677873,-0.15422768896525918
-597.8555681705475,2872.0,-3016.0,15212.0,-761.0,1290.0,-2472.0,0.6157026776966562,0.7417288025077048,0.17930090725189365,-0.19646826936251546
-597.8711421489716,2780.0,-2980.0,15368.0,-346.0,882.0,-1680.0,0.5873058575767874,0.702015910608631,0.3366581111439936,-0.22114883474548816
-597.8867099285126,3108.0,-3068.0,15624.0,-141.0,897.0,-1080.0,0.5446986733416743,0.6752058696305946,0.44813930917953054,-0.21580442174410022
-597.9022660255432,3244.0,-3080.0,15220.0,197.0,1062.0,-682.0,0.475816379298414,0.6736828320531741,0.5318036955002212,-0.19218492251076957
-597.9178524017334,3216.0,-2908.0,14984.0,609.0,900.0,-214.0,0.3928579530283231,0.700847807456346,0.5688845239833029,-0.17562852245099364
-597.9335329532623,3244.0,-2700.0,14672.0,1061.0,384.0,75.0,0.3085702376553753,0.743216290423682,0.5584729272019339,-0.20130063006525767
-597.9492161273956,2936.0,-2688.0,14732.0,1483.0,-488.0,350.0,0.2399962420187087,0.7840251623158949,0.4917790912787213,-0.2930182145422143
-597.9648087024689,2312.0,-2356.0,15720.0,1674.0,-1316.0,473.0,0.19061655545066417,0.7914951188872205,0.38214121682714275,-0.4372286541018319
-597.9809184074402,2352.0,-1616.0,17048.0,1506.0,-1660.0,558.0,0.16003176243345657,0.7565418745701836,0.2533712818723774,-0.5812376627134743
-597.9967331886292,2588.0,-844.0,18216.0,832.0,-1552.0,312.0,0.1534000109809475,0.6879146940278654,0.1668308798477647,-0.6894992878174816
-598.0123324394226,2820.0,-768.0,18172.0,259.0,-541.0,-127.0,0.13790046611606405,0.6559326910756298,0.15138775429744825,-0.726510505135356
-598.0279338359833,2568.0,-1284.0,16184.0,237.0,12.0,-76.0,0.1193341744728801,0.6582765178092844,0.14080449264613065,-0.7297982431839808
-598.0435683727264,2080.0,-1864.0,15036.0,540.0,-332.0,220.0,0.10622131320503181,0.6442365642549642,0.09013929246465263,-0.7520313755767972
-598.0591630935669,1672.0,-2744.0,15076.0,749.0,-745.0,789.0,0.12095333247882473,0.6043659900262227,-0.010235369130954188,-0.7874054093544467
-598.0747861862183,1716.0,-2800.0,16088.0,421.0,-1167.0,1499.0,0.19789501493593842,0.5196726116788212,-0.1287055226341606,-0.8211046389942549
-598.0903699398041,2028.0,-2628.0,16932.0,-110.0,-1225.0,2122.0,0.33366379830900844,0.3969719208421429,-0.23290523055012027,-0.8227009890253566
-598.1059374809265,2260.0,-2292.0,17304.0,-623.0,-1028.0,2362.0,0.4910334249087214,0.25019927045742474,-0.2921341754291955,-0.7816291475062119
-598.1215360164642,2596.0,-1680.0,17172.0,-796.0,-805.0,2057.0,0.61548415894941,0.1063192722322917,-0.31063835562134473,-0.7165049019031206
-598.137157201767,2748.0,-1124.0,16936.0,-641.0,-451.0,1989.0,0.7212048882361112,-0.010219457205992839,-0.3077068328587271,-0.6205445809051955
-598.1527667045593,2948.0,-708.0,16916.0,-326.0,-13.0,1498.0,0.7946857326837982,-0.07110673826100462,-0.2867137063180029,-0.5302958312603352
-598.1683347225189,3072.0,-596.0,16848.0,-20.0,549.0,867.0,0.845110565019996,-0.06849738341165859,-0.241087626772582,-0.47220016685141436
-598.1839287281036,2900.0,-604.0,16476.0,212.0,1004.0,248.0,0.874074448328277,-0.016613078704935166,-0.17326308117855968,-0.45353915938546435
-598.1994976997375,2852.0,-596.0,16084.0,336.0,1100.0,-182.0,0.8795043591658092,0.05491654968032084,-0.10209675444383416,-0.46155444696328507
-598.2150921821594,2624.0,-848.0,15812.0,421.0,897.0,-268.0,0.8712454244655773,0.12494693787714817,-0.048620143240205554,-0.47218190852066955
-598.2306606769562,2572.0,-1296.0,15684.0,432.0,528.0,-656.0,0.838943933655989,0.18140542020747014,-0.01906497050902461,-0.5127393846786659
-598.2462799549103,2440.0,-1564.0,15772.0,577.0,249.0,-692.0,0.796675985653304,0.23486823288815137,-0.015672147192566634,-0.5566854325969991
-598.2618334293365,2112.0,-1656.0,15996.0,592.0,101.0,-559.0,0.7556553193521506,0.2807013913468932,-0.025897298754799916,-0.5912030929789884
-598.2774109840393,1940.0,-1800.0,15992.0,665.0,86.0,-359.0,0.7195250471911913,0.3288201131178947,-0.04563609684977769,-0.6099822836263088
-598.2929725646973,1988.0,-1876.0,16052.0,679.0,54.0,-114.0,0.6930053764662166,0.37386733798953853,-0.07496794545566164,-0.6118386788424627
-598.3085632324219,2016.0,-1812.0,15956.0,627.0,-243.0,233.0,0.6821641967050789,0.3963013509995025,-0.1304734285793283,-0.6004780864981157
-598.3241400718689,2248.0,-1880.0,16184.0,683.0,-432.0,947.0,0.6992233430033724,0.40097233620968004,-0.22339136081075797,-0.5480914176566327
-598.3397691249847,2360.0,-2108.0,16488.0,759.0,-166.0,1027.0,0.7141546405436335,0.41652429311075984,-0.30379640992198226,-0.4734959386912315
-598.3554179668427,2852.0,-2176.0,16404.0,698.0,-105.0,1435.0,0.7382487414343012,0.413476343859462,-0.3875340003121554,-0.3658462893639082
-598.3709969520569,2884.0,-1996.0,16428.0,614.0,-101.0,1497.0,0.7530843490494902,0.39510755957667965,-0.462988065747104,-0.24979197456648128
-598.3866302967072,2752.0,-1140.0,16816.0,596.0,-193.0,1499.0,0.750023303604267,0.36572760890539285,-0.5349289520925828,-0.13251179701451696
-598.4022138118744,2424.0,-676.0,16528.0,599.0,-238.0,1360.0,0.7293668371878334,0.33571653461985485,-0.5956455719167221,-0.022908030239484536
-598.4177982807159,2240.0,-536.0,16304.0,682.0,-318.0,1182.0,0.6901812574771325,0.3146337164046387,-0.6469811173274255,0.07791591718285518
-598.4333565235138,2096.0,-420.0,16084.0,769.0,-401.0,1088.0,0.6344622116760509,0.2999907644314865,-0.6906311150297963,0.1746193178421181
-598.4489514827728,2088.0,-556.0,16056.0,783.0,-278.0,1047.0,0.5774237855593816,0.282516919985125,-0.7165695982474342,0.2707285959404786
-598.4645347595215,2000.0,-608.0,16272.0,730.0,-591.0,942.0,0.49694701399841135,0.27249293774880107,-0.7472430989392284,0.3470144308855029
-598.480099439621,2196.0,-360.0,16460.0,807.0,-544.0,888.0,0.4127313730535367,0.2642895700992649,-0.7624238180900271,0.4225088856380579
-598.4957098960876,2032.0,-344.0,16504.0,931.0,-213.0,768.0,0.34684213535239444,0.2531085380195692,-0.7491340517548737,0.504415278939005
-598.5112724304199,2420.0,-556.0,16372.0,775.0,255.0,558.0,0.32069321182170707,0.2279858037824207,-0.7168730642336046,0.5755617663999959
-598.5268516540527,2336.0,-560.0,16260.0,902.0,498.0,535.0,0.30551580367656445,0.19372075188117197,-0.6647581620889376,0.6536275314967951
-598.5424382686615,2336.0,-768.0,16036.0,697.0,-19.0,610.0,0.25703642326764936,0.17739229054206515,-0.6336261669694482,0.7078009133235266
-598.5580506324768,2540.0,-664.0,16160.0,406.0,-412.0,784.0,0.17892609785249933,0.1679662855696292,-0.6275332661885992,0.738901061202302
-598.5736153125763,2516.0,-484.0,16220.0,220.0,-632.0,919.0,0.08144569837251048,0.1610167788713214,-0.6334494660112446,0.7524506423338259
-598.5891795158386,2580.0,-348.0,16484.0,160.0,-560.0,747.0,-0.0008026306244465057,0.15708184174871226,-0.6351270235964842,0.7562660343254773
-598.6047487258911,2940.0,-296.0,16140.0,120.0,-403.0,545.0,-0.06064074824834109,0.15317739953767168,-0.6333803160390439,0.7561010244517848
-598.620317697525,2812.0,-440.0,16308.0,42.0,-414.0,384.0,-0.10929313950882111,0.15884600108210045,-0.6326512119951857,0.7500502660205868
-598.6359295845032,2736.0,-492.0,16260.0,-17.0,-525.0,238.0,-0.153436602416439,0.17999994392509483,-0.6311295594285496,0.7387372391056153
-598.6515281200409,2744.0,-608.0,16360.0,24.0,-515.0,110.0,-0.18908377270175425,0.2065955605753903,-0.6236268222621955,0.7298323011531948
-598.6671054363251,2824.0,-740.0,16400.0,121.0,-462.0,101.0,-0.22265724583500737,0.2283069644245785,-0.6094349573277007,0.7258710034568037
-598.6826665401459,2692.0,-856.0,16348.0,176.0,-440.0,136.0,-0.257964817632396,0.24527794567484634,-0.5917658336634585,0.7232607277724983
-598.6982409954071,2660.0,-1112.0,16348.0,135.0,-440.0,215.0,-0.29688548381989743,0.258625936632139,-0.5772396395217128,0.715378244681104
-598.7138059139252,2480.0,-1112.0,16280.0,45.0,-582.0,367.0,-0.3495386261570546,0.2747776683593685,-0.56647491766853,0.6938487943692487
-598.7293879985809,2364.0,-1204.0,16056.0,-24.0,-796.0,541.0,-0.4196458238072118,0.29588620589543224,-0.5545314168799766,0.6548615452254453
-598.744957447052,2340.0,-1080.0,16024.0,-102.0,-1024.0,593.0,-0.49785346899811717,0.3276522750111378,-0.535169772986996,0.5986478298362182
-598.7605490684509,2512.0,-960.0,16256.0,-91.0,-1172.0,653.0,-0.5801970480335051,0.35982423890895165,-0.5040802493408563,0.5289621959755354
-598.7761092185974,2248.0,-856.0,16420.0,-45.0,-1153.0,677.0,-0.6563846639533464,0.3828858701836773,-0.4657366833467514,0.45348310346220044
-598.7917098999023,2076.0,-828.0,16564.0,-75.0,-935.0,607.0,-0.7126165439833526,0.3975541687720094,-0.43323968863127404,0.3826639731251116
-598.8072938919067,2036.0,-740.0,16624.0,-109.0,-691.0,550.0,-0.7511629919495734,0.40530812659454807,-0.4116184690506273,0.3194522154848843
-598.8228549957275,1840.0,-840.0,16540.0,-114.0,-273.0,606.0,-0.7725956298665648,0.3978393348656753,-0.4174902116766702,0.2655593709491197
-598.838446855545,1740.0,-916.0,16508.0,-86.0,-425.0,759.0,-0.8004629568046159,0.3846197988579304,-0.41584495327148596,0.1959582607310348
-598.8540661334991,2008.0,-1104.0,16716.0,-135.0,-298.0,953.0,-0.8199863294102667,0.36306503754552555,-0.42754550437220734,0.11406594488916784
-598.8696432113647,2160.0,-1276.0,17116.0,-145.0,17.0,1072.0,-0.8218821625028807,0.3317076222264918,-0.46198828505512957,0.032351024531779723
-598.8852288722992,2216.0,-1228.0,16572.0,-122.0,233.0,1134.0,-0.8081071119486954,0.29249496738669517,-0.5091251605533078,-0.046916527609823476
-598.900800704956,2312.0,-1276.0,16228.0,-175.0,212.0,1037.0,-0.7866411823148197,0.2584366013142157,-0.5473106819410223,-0.12189007679361286
-598.9164068698883,2540.0,-932.0,16148.0,-189.0,252.0,1248.0,-0.7524356778066701,0.21308623590501127,-0.5869368005631809,-0.2096186990134891
-598.9320774078369,2880.0,-864.0,16396.0,-241.0,-171.0,1045.0,-0.734401048972708,0.17144125524676904,-0.5879716349034959,-0.2924933363618883
-598.947719335556,3108.0,-756.0,16500.0,-2.0,-300.0,782.0,-0.7279538164572417,0.12341001305590703,-0.5787148185462342,-0.3463269677311843
-598.9632999897003,3032.0,-756.0,16352.0,-222.0,-209.0,496.0,-0.7202876579054186,0.10597559493986797,-0.563197589627738,-0.39084950835810645
-598.9788880348206,2932.0,-920.0,16196.0,-149.0,-189.0,267.0,-0.7188274396898072,0.09569404539653698,-0.5482813412727915,-0.41655411705653655
-598.994464635849,2828.0,-1020.0,16016.0,-146.0,-207.0,189.0,-0.7204566051353982,0.08822170920373877,-0.5312037168231848,-0.4370146695194356
-599.0100471973419,2716.0,-1224.0,16180.0,-164.0,-276.0,149.0,-0.7260477325975077,0.08103312081585248,-0.5083295797757719,-0.45594885858596973
-599.0256128311157,2772.0,-1372.0,16276.0,-108.0,-210.0,135.0,-0.7291099197349155,0.07348307561572899,-0.4913636609127249,-0.4707023637890965
-599.0411739349365,2684.0,-1408.0,16416.0,-23.0,-116.0,147.0,-0.727886156103941,0.06384210510985563,-0.48373141116830926,-0.48177780274363763
-599.0567526817322,2748.0,-1376.0,16460.0,55.0,35.0,60.0,-0.7242576623462068,0.05926034364171209,-0.48840354881477527,-0.48311595265464763
-599.0723302364349,2616.0,-1292.0,16548.0,107.0,143.0,47.0,-0.7167288158584217,0.056492806557767665,-0.5019520992054067,-0.48078317090835915
-599.0879533290863,2596.0,-1104.0,16324.0,220.0,108.0,30.0,-0.7117463345292511,0.04591402057387018,-0.5177930015690064,-0.47243990678717696
-599.1035313606262,2620.0,-1120.0,16300.0,234.0,82.0,-14.0,-0.7094777122328726,0.03536407738800681,-0.5321856768088574,-0.46061824027583037
-599.1191082000732,2708.0,-1184.0,16264.0,234.0,3.0,-47.0,-0.7118847452900454,0.02315735944631372,-0.5413517582127685,-0.4467909130753956
-599.1346776485443,2760.0,-1188.0,16252.0,186.0,24.0,-88.0,-0.7145313312767213,0.016680589863118683,-0.549667210934506,-0.43247276419355707
-599.1502377986908,2688.0,-1200.0,16328.0,117.0,-17.0,-17.0,-0.7162100486361482,0.009548930984440505,-0.5528091262470266,-0.42585684694232595
-599.1658220291138,2632.0,-1368.0,16332.0,73.0,-76.0,105.0,-0.716064630639339,-0.0029104309180798234,-0.5506532308662451,-0.4289801784182852
-599.1814043521881,2328.0,-1508.0,16592.0,34.0,-120.0,210.0,-0.7138882238722917,-0.019616893402160974,-0.5440875256265177,-0.4403947612850616
-599.1969690322876,2452.0,-1636.0,16180.0,58.0,-220.0,287.0,-0.7129283183284651,-0.045289877207801046,-0.5316809530745221,-0.4549696738087241
-599.2125306129456,2324.0,-1684.0,16140.0,86.0,-365.0,359.0,-0.71462306703289,-0.08170106061488212,-0.5102702497336401,-0.4714478560728402
-599.2280743122101,2232.0,-1696.0,16196.0,106.0,-447.0,505.0,-0.7118158838335757,-0.1289473777544434,-0.4821171887452198,-0.4942203330589348
-599.2436468601227,2084.0,-1684.0,16272.0,107.0,-453.0,585.0,-0.7030245186658172,-0.17933319359706074,-0.4508635559778135,-0.5199213264716269
-599.259265422821,2224.0,-1592.0,16388.0,218.0,-396.0,568.0,-0.6881177881331811,-0.23251215109883355,-0.4265291903085233,-0.5389850267501379
-599.2748355865479,1848.0,-1476.0,16400.0,304.0,-322.0,619.0,-0.6634307723493176,-0.28825390676376306,-0.40785697486471695,-0.5571552598599581
-599.2904453277588,2272.0,-1372.0,16288.0,334.0,-215.0,647.0,-0.6299082771320116,-0.3402535695295818,-0.39434460502921087,-0.5761383543102426
-599.306024312973,2272.0,-1376.0,16432.0,351.0,-156.0,677.0,-0.5895185898553938,-0.3897092238979336,-0.38228466591878413,-0.5953595444999116
-599.3216006755829,2400.0,-1400.0,16256.0,305.0,-33.0,622.0,-0.5469838600733443,-0.42699556062785216,-0.37446051052837936,-0.6150307098659352
-599.3371732234955,2492.0,-1380.0,16344.0,6.0,-8.0,613.0,-0.5134345781489885,-0.44700839423773314,-0.35092758352340847,-0.6429760964175845
-599.3527858257294,2492.0,-1340.0,16364.0,207.0,-34.0,641.0,-0.46966285255715506,-0.4768984632374966,-0.3353123464545189,-0.6629858905020186
-599.3683626651764,2544.0,-1316.0,16320.0,146.0,-141.0,605.0,-0.4320766637971152,-0.507857681229883,-0.31220298521438855,-0.6766975899476704
-599.3839843273163,2664.0,-1236.0,16336.0,85.0,-238.0,497.0,-0.40499966070804416,-0.5379199378237932,-0.28577680027971863,-0.681871715016763
-599.3995580673218,2788.0,-1280.0,16628.0,71.0,-220.0,362.0,-0.3853749479725587,-0.5620481331128447,-0.26495108644490234,-0.6821942299163629
-599.4151005744934,2788.0,-1196.0,16360.0,69.0,-139.0,215.0,-0.37233809789693173,-0.5773515646063981,-0.25368600057787294,-0.6809353308588435
-599.4306676387787,2656.0,-1236.0,16268.0,100.0,-103.0,146.0,-0.36087912049498133,-0.5897506270867917,-0.2488085693813629,-0.6782733623281282
-599.4462242126465,2672.0,-1216.0,16308.0,119.0,-33.0,61.0,-0.3518672622824097,-0.596624165985132,-0.251584119583318,-0.6759692781997672
-599.4618320465088,2572.0,-1324.0,16324.0,71.0,-75.0,66.0,-0.34593607042912006,-0.604536958174878,-0.2499482071118644,-0.6725988367060185
-599.4773895740509,2544.0,-1424.0,16332.0,50.0,-109.0,49.0,-0.34280977427436493,-0.6133700600705453,-0.24692273284823715,-0.6672988776206451
-599.4929490089417,2448.0,-1568.0,16248.0,60.0,-145.0,115.0,-0.33600805895315644,-0.6258961816066856,-0.23982132622505964,-0.6616934982726945
-599.5085203647614,2492.0,-1288.0,16264.0,30.0,-123.0,244.0,-0.3227904252752017,-0.6387009997200744,-0.2244895033831704,-0.6614165383311862
-599.5240924358368,2520.0,-1376.0,16056.0,50.0,-140.0,346.0,-0.3026367839110523,-0.6545166287112063,-0.20397306088285858,-0.6621283487350238
-599.539722442627,2576.0,-1316.0,16144.0,66.0,-168.0,287.0,-0.28517299494983633,-0.6706843934931297,-0.18681829483462414,-0.6587546827091075
-599.5553123950958,2712.0,-1268.0,16312.0,37.0,-277.0,204.0,-0.2756947035705966,-0.6904459091514964,-0.1699827733351058,-0.6468251183499217
-599.5708861351013,2604.0,-1532.0,16512.0,9.0,-355.0,200.0,-0.268983104456333,-0.7131280041418924,-0.14975693130328782,-0.6298169581332793
-599.5864624977112,2732.0,-1484.0,16416.0,26.0,-320.0,107.0,-0.26557513182680986,-0.7323199560310544,-0.13691599222986323,-0.6119079525758421
-599.6020319461823,2628.0,-1264.0,16456.0,39.0,-198.0,19.0,-0.26441960264812997,-0.7438237533621446,-0.13314282836851188,-0.5992340819109752
-599.6176159381866,2652.0,-1348.0,16304.0,107.0,-95.0,14.0,-0.25785046459537503,-0.7512825248079794,-0.13559799655754137,-0.5922000415025973
-599.6331810951233,2660.0,-1444.0,16420.0,109.0,-31.0,-250.0,-0.2639426915186401,-0.7520824678145566,-0.15685650278476626,-0.5831828656039159
-599.6487474441528,2576.0,-1428.0,16332.0,93.0,-20.0,-234.0,-0.269984470644266,-0.7517783641449362,-0.17641933688685899,-0.575164232534413
-599.6643314361572,2516.0,-1412.0,16276.0,79.0,252.0,-27.0,-0.2622314650501504,-0.7402953730313685,-0.18801402678420992,-0.5897865250566385
-599.6799292564392,2660.0,-1360.0,16340.0,59.0,12.0,-87.0,-0.26271551686187233,-0.7394898024530776,-0.19690534563313553,-0.5876765046596665
-599.6954915523529,2500.0,-1300.0,16240.0,135.0,45.0,-132.0,-0.2599883691470589,-0.7378247919361812,-0.21331844663389202,-0.5852485494542355
-599.7111012935638,2328.0,-1272.0,16184.0,77.0,39.0,-188.0,-0.2638909876396586,-0.7338834299601702,-0.23017301974110088,-0.5820627447756165
-599.7267000675201,2600.0,-1336.0,16236.0,61.0,-35.0,-184.0,-0.2700216454204916,-0.7331874438938618,-0.24417972110653285,-0.5743698694405298
-599.7422747612,2692.0,-1388.0,16308.0,92.0,-54.0,-204.0,-0.275483811222863,-0.7334955427246891,-0.2604845071648945,-0.5641283365371766
-599.757898569107,2664.0,-1420.0,16400.0,102.0,-50.0,-218.0,-0.2807880946109048,-0.733216370853001,-0.2781600877957333,-0.5533342253967326
-599.7735080718994,2764.0,-1448.0,16340.0,70.0,23.0,-228.0,-0.28672731778106825,-0.7280598508868978,-0.296592843931426,-0.547493364063247
-599.7891244888306,2740.0,-1344.0,16392.0,17.0,110.0,-227.0,-0.29360526481228527,-0.717111334082105,-0.31446730943105144,-0.5483225276282991
-599.8047294616699,2752.0,-1380.0,16496.0,0.0,155.0,-296.0,-0.30341885972037685,-0.7012038825476792,-0.33678198431530443,-0.5502981062176143
-599.8203206062317,2720.0,-1464.0,16588.0,51.0,219.0,-232.0,-0.304912707928393,-0.6848774485278185,-0.3590432852396448,-0.555930787388253
-599.835914850235,2700.0,-1416.0,16360.0,88.0,169.0,-233.0,-0.3055872320013689,-0.6714206758579933,-0.3815602448899083,-0.5569762106119885
-599.8514831066132,2620.0,-1340.0,16176.0,48.0,110.0,-197.0,-0.30865666410951653,-0.6605955133024927,-0.3982418036901171,-0.556550175005851
-599.8671078681946,2312.0,-1340.0,16252.0,97.0,70.0,-225.0,-0.3115166524625994,-0.6517645544448882,-0.41765974407251366,-0.5511085909229094
-599.8826758861542,2808.0,-1388.0,16148.0,61.0,243.0,-205.0,-0.30895600198900625,-0.6339480787014807,-0.43863503269384585,-0.5570056825916044
-599.8982350826263,2608.0,-1432.0,16140.0,43.0,-165.0,-123.0,-0.3188523541382649,-0.6382577025407336,-0.44295132345655114,-0.5429128903019349
-599.913818359375,2624.0,-1036.0,16244.0,145.0,-310.0,246.0,-0.3109260447936812,-0.6659922082701561,-0.4271451959376203,-0.5266178451019395
-599.9295115470886,2548.0,-1340.0,16344.0,235.0,-510.0,95.0,-0.3115624556301016,-0.6984445921712915,-0.41801860862575946,-0.49026975304520215
-599.9451341629028,2592.0,-1404.0,15624.0,329.0,-275.0,238.0,-0.2911196344874437,-0.7271351078982058,-0.409691551895078,-0.46762883313966475
-599.9607512950897,2684.0,-1504.0,15640.0,390.0,-444.0,406.0,-0.26518211019093835,-0.7681478684070177,-0.387762643697522,-0.43504877065582526
-599.9763541221619,2624.0,-1372.0,15568.0,436.0,-680.0,580.0,-0.23607771055389642,-0.8205782165774391,-0.34834887411244037,-0.3867450930041848
-599.9919900894165,2656.0,-1352.0,15512.0,590.0,-1082.0,803.0,-0.19800725993094556,-0.8863826186195377,-0.2860800128914738,-0.30541317039025057
-600.0075912475586,2804.0,-1504.0,15532.0,1023.0,-1673.0,1139.0,-0.12780425593404587,-0.9585010604809096,-0.19255585787091317,-0.16692522524086556
-600.0232152938843,2952.0,-1156.0,15992.0,986.0,-1761.0,1567.0,-0.05083308198869537,-0.9970006933032695,-0.054810565721591153,-0.020035399012980896
-600.0388069152832,3400.0,-1032.0,16168.0,1053.0,-1535.0,1653.0,0.03552833194567865,-0.9891805945376393,0.09188208127557033,0.10870681744853654
-600.0544548034668,3836.0,-1144.0,16248.0,834.0,-1106.0,1714.0,0.09835698869230192,-0.9450218829422418,0.23996997403214826,0.19918321992249363
-600.0700352191925,4312.0,-1072.0,16144.0,661.0,-1052.0,1540.0,0.14600118672485382,-0.8758204031981899,0.36407934204548525,0.28119122943722974
-600.0856065750122,4080.0,-788.0,16228.0,526.0,-1239.0,1802.0,0.1779830955066511,-0.7667787143878508,0.4896149843184152,0.37503278257568756
-600.1011846065521,3496.0,-888.0,16680.0,467.0,-1433.0,1693.0,0.21099567228387855,-0.6280483570516677,0.5846097741459687,0.4682600767257171
-600.1167552471161,3200.0,-864.0,16696.0,469.0,-1123.0,1800.0,0.21660519855884866,-0.4731760497364337,0.6698078284495164,0.5296641264620904
-600.1323289871216,3488.0,-900.0,16640.0,276.0,-435.0,1710.0,0.17231732952952686,-0.34367352867759965,0.7360417628526231,0.5571694239339616
-600.1479423046112,3440.0,-1072.0,16600.0,95.0,-114.0,1944.0,0.08670791484944033,-0.20876103342867142,0.7859172400569578,0.5755298951449084
-600.1635718345642,3124.0,-1328.0,16456.0,-48.0,164.0,1799.0,-0.015607905344077654,-0.09277069012635686,0.8074900978788064,0.582331292454669
-600.1792016029358,2956.0,-2056.0,16600.0,-229.0,257.0,2095.0,-0.139712603832798,0.041462478926669405,0.7988008069274478,0.5836767273273568
-600.1947951316833,2360.0,-2140.0,16648.0,-485.0,733.0,2073.0,-0.28919121104668105,0.15168582640870382,0.7433502442616574,0.5837724452868572
-600.2104153633118,1952.0,-2300.0,16156.0,-520.0,838.0,2057.0,-0.43305593503945017,0.25065972424835636,0.6554963264749903,0.5656472626510609
-600.2260096073151,1976.0,-1924.0,15696.0,-387.0,793.0,2045.0,-0.5605125349303534,0.3368144884409882,0.5512276907781724,0.5181985444610478
-600.2415950298309,2304.0,-1516.0,15628.0,-149.0,552.0,1380.0,-0.6397844478984124,0.38224267870704154,0.47277733860468757,0.47015740226445146
-600.2572243213654,3200.0,-964.0,15696.0,65.0,376.0,812.0,-0.6887778528889928,0.395390276896412,0.42592363598081895,0.4334058774616308
-600.2728548049927,3652.0,-604.0,16132.0,237.0,139.0,258.0,-0.7115963213355347,0.38515400813756384,0.4172829889406109,0.4137172616873678
-600.2884542942047,4008.0,-856.0,16372.0,408.0,-178.0,-83.0,-0.7153747868631638,0.36281917474062075,0.445393689720096,0.39777584380972275
-600.3040540218353,4256.0,-1372.0,16348.0,553.0,-403.0,-303.0,-0.7053049729539889,0.32970010328704347,0.49816376156397935,0.3816747354532556
-600.3196258544922,4748.0,-1928.0,16236.0,692.0,-558.0,-348.0,-0.687096124979733,0.2894808188730925,0.5634991194521478,0.35576468756616764
-600.3352720737457,4796.0,-2460.0,15936.0,787.0,-714.0,-120.0,-0.6653645107980843,0.25739000236240717,0.6309216611515285,0.3049234525976997
-600.3508586883545,4696.0,-2844.0,16296.0,753.0,-977.0,218.0,-0.6306423796938326,0.25015422712319624,0.6985339993996054,0.22751550116264269
-600.366461277008,4188.0,-2856.0,16416.0,625.0,-994.0,436.0,-0.5889468544644004,0.2605078197671601,0.7515756760480719,0.14286805671504257
-600.3820555210114,3584.0,-2572.0,16504.0,558.0,-830.0,557.0,-0.5514911778723169,0.27731965007348597,0.7845588688554496,0.05846942544938373
-600.3976531028748,3152.0,-2232.0,16384.0,534.0,-567.0,555.0,-0.526688067938421,0.2914866763176702,0.7983067393221706,-0.018480978690939887
-600.4133195877075,2668.0,-1912.0,16024.0,536.0,-441.0,473.0,-0.5075643910506119,0.2982761259950539,0.8034704753367393,-0.08857164817794898
-600.4289236068726,2396.0,-1680.0,15768.0,451.0,-436.0,341.0,-0.4852407488393421,0.2982427072616588,0.8088017000192854,-0.14639847429869238
-600.4445309638977,2360.0,-1432.0,15608.0,438.0,-613.0,81.0,-0.4514310556327308,0.27695055345533215,0.8252097338295797,-0.19630916469695922
-600.4601378440857,2560.0,-1212.0,16072.0,399.0,-901.0,-133.0,-0.397044092842447,0.23530391697961958,0.8538396062622036,-0.24071971620740154
-600.4757752418518,2748.0,-1172.0,16164.0,397.0,-1107.0,-380.0,-0.32884273898004646,0.1689638309979616,0.88648828284267,-0.27830235575224227
-600.4914083480835,2748.0,-1204.0,16176.0,446.0,-1130.0,-683.0,-0.26269853067934373,0.07528866177881074,0.9114106404152066,-0.30765523549000906
-600.5069823265076,2744.0,-1500.0,16352.0,565.0,-1016.0,-906.0,-0.2082491901690495,-0.036739724341581036,0.9178914347979972,-0.3357942545275516
-600.5226314067841,3064.0,-1664.0,16604.0,555.0,-912.0,-1146.0,-0.16549431185775082,-0.16386561583338544,0.9060643867870073,-0.3532803698007566
-600.538191318512,2948.0,-1588.0,16836.0,472.0,-864.0,-1310.0,-0.12952525082951033,-0.2979083683198311,0.8762991565986398,-0.3557718392833826
-600.5538198947906,3204.0,-1564.0,16804.0,321.0,-910.0,-1485.0,-0.09657153521399602,-0.43818492056234204,0.8281344702853889,-0.3359482297963842
-600.5694530010223,3172.0,-1524.0,16864.0,205.0,-942.0,-1621.0,-0.0672895344191349,-0.5769477768058959,0.7578343936536444,-0.29713702763540545
-600.5850622653961,3036.0,-996.0,16676.0,56.0,-788.0,-1741.0,-0.05673329835192135,-0.7031579010225547,0.6641251468309874,-0.24756431171391835
-600.6007058620453,2972.0,-796.0,16856.0,-48.0,-383.0,-1542.0,-0.07014397130900725,-0.7929876199706465,0.5669659146063115,-0.21166036364165952
-600.6162886619568,3044.0,-816.0,16632.0,-61.0,-25.0,-1544.0,-0.1007615247054915,-0.8616784830570231,0.45721588090643367,-0.19573181964751157
-600.6319017410278,2960.0,-1164.0,16012.0,11.0,32.0,-1658.0,-0.12822177908230695,-0.9178255759527972,0.32860198984159916,-0.18214312989521633
-600.6475059986115,2912.0,-1508.0,15628.0,138.0,-174.0,-1396.0,-0.13337694715901896,-0.9549288900579975,0.21487518209513592,-0.15540289900360094
-600.6630752086639,2792.0,-1748.0,15616.0,294.0,-475.0,-1042.0,-0.11350762761410217,-0.9791334005351189,0.12887262258053517,-0.10865380609609583
-600.6786587238312,2564.0,-1760.0,15784.0,415.0,-706.0,-735.0,-0.07672308579698862,-0.9936342586024616,0.06879416245677475,-0.045518034329209284
-600.6942281723022,2856.0,-1604.0,16320.0,347.0,-757.0,-386.0,-0.04347835497485268,-0.9980858308057368,0.03888078325488747,0.02055703497563325
-600.7098236083984,3036.0,-1360.0,16820.0,207.0,-600.0,-197.0,-0.02301527234799394,-0.9967882078400462,0.024324926939030652,0.07274519832392806
-600.7254128456116,3084.0,-960.0,16880.0,9.0,-281.0,-85.0,-0.02108826837559912,-0.994875688592819,0.01754465323390515,0.09731307377112756
-600.7409994602203,3036.0,-676.0,16880.0,-48.0,-30.0,-163.0,-0.023824118193705453,-0.9946691415867346,0.003035578397888696,0.1002820793122638
-600.7565712928772,3136.0,-424.0,16344.0,-49.0,140.0,-225.0,-0.02614083703648575,-0.9955768493183956,-0.0172163384881674,0.08858324575984688
-600.7721657752991,3136.0,-444.0,16160.0,4.0,172.0,-325.0,-0.02301145943016249,-0.9959146419511844,-0.045799598248766483,0.07434309303755036
-600.78777551651,3172.0,-652.0,15932.0,87.0,82.0,-318.0,-0.013050182575236286,-0.9949130124622385,-0.07301403580772634,0.06816700773200059
-600.8033730983734,3148.0,-840.0,16212.0,155.0,60.0,-218.0,0.0020940352545390038,-0.9937728854222362,-0.09106770747693504,0.06416961797308093
-600.8189392089844,3244.0,-1036.0,16028.0,198.0,72.0,-155.0,0.020713185398125496,-0.992649202990846,-0.10336545307746031,0.05944835458103466
-600.8345139026642,3148.0,-1128.0,16040.0,227.0,-61.0,-67.0,0.04018241242830266,-0.9910919164028529,-0.10807965487439358,0.06664064206318934
-600.850093126297,3280.0,-984.0,16072.0,153.0,-166.0,-6.0,0.05189157993543009,-0.9893403045994733,-0.10827100135339428,0.08240397983568203
-600.8656761646271,3328.0,-976.0,16228.0,79.0,-238.0,66.0,0.05599100665189616,-0.9876404629887496,-0.10305567967502709,0.10397523709130725
-600.8813202381134,3248.0,-860.0,16380.0,14.0,-237.0,88.0,0.05426907274328348,-0.985970596226174,-0.09647779578114371,0.12493552754200435
-600.896892786026,3420.0,-816.0,16356.0,50.0,-162.0,127.0,0.05582822390944973,-0.9848666019003587,-0.08575581003345553,0.1398818319935177
-600.9125080108643,3400.0,-716.0,16396.0,80.0,-27.0,148.0,0.06070430937188606,-0.9851440460587844,-0.0721798334200844,0.14351399578458854
-600.9281718730927,3328.0,-1008.0,16156.0,127.0,83.0,9.0,0.07204628846165016,-0.9854785284287555,-0.06937059843682408,0.13721924936870902
-600.9438469409943,3280.0,-732.0,16168.0,196.0,181.0,33.0,0.0896005316063638,-0.9863398178746362,-0.06302986403844858,0.12301522121339785
-600.959481716156,3404.0,-860.0,16168.0,157.0,135.0,-32.0,0.10420780129550374,-0.9862178785870569,-0.06303475407759092,0.11198950791381955
-600.9750745296478,3360.0,-868.0,16096.0,157.0,64.0,49.0,0.11760599337320377,-0.9855650302757712,-0.05669466350317959,0.107778089380361
-600.9906575679779,3380.0,-892.0,16256.0,107.0,-53.0,68.0,0.12592531287869507,-0.9842302174526469,-0.050380463748769824,0.11355837046196507
-601.0062463283539,3320.0,-968.0,16156.0,54.0,-73.0,120.0,0.12906954022892697,-0.9833520517058122,-0.04033650548422757,0.12137859167243659
-601.0218396186829,3248.0,-1020.0,16288.0,59.0,-49.0,217.0,0.1316627796211547,-0.9827297086480945,-0.021634056029283547,0.12821544299570273
-601.037436246872,3432.0,-1272.0,16212.0,124.0,129.0,181.0,0.140511861490636,-0.9828431095023044,-0.0032382619743946198,0.11943765128159016
-601.0530052185059,3480.0,-1008.0,16176.0,158.0,156.0,168.0,0.15234348226097183,-0.9822844416853483,0.014729081149575787,0.1081285956812242
-601.0685682296753,3784.0,-884.0,16132.0,179.0,169.0,187.0,0.1656788138993248,-0.980896964823513,0.03468503684003959,0.09585730668205823
-601.0841281414032,3588.0,-680.0,16264.0,175.0,159.0,203.0,0.178447346345008,-0.9787146858513246,0.05580723738452661,0.08461477729613769
-601.0997643470764,3632.0,-672.0,16476.0,179.0,283.0,3.0,0.19228895076199087,-0.9775787928783565,0.06176393818730421,0.0595808615995326
-601.1153314113617,3616.0,-836.0,16300.0,119.0,397.0,260.0,0.19880436404485663,-0.9753487984568519,0.09114737119233562,0.029388822879151743
-601.1308970451355,3748.0,-888.0,16416.0,102.0,551.0,324.0,0.20198613137171403,-0.9708587878132047,0.12834845821541485,-0.012707876812794443
-601.1464884281158,3360.0,-720.0,16608.0,100.0,519.0,424.0,0.20479255630684284,-0.9620802341405181,0.17301626904574263,-0.05026930080004556
-601.1620631217957,3672.0,-656.0,16580.0,13.0,288.0,278.0,0.2026634894595745,-0.9557935260206508,0.20132728965552124,-0.06966755411984944
-601.1776597499847,3604.0,-772.0,16496.0,-31.0,-119.0,697.0,0.20604706938334558,-0.94301068273605,0.2570698262624537,-0.04680343865161532
-601.1932919025421,3956.0,-556.0,16404.0,-151.0,-361.0,905.0,0.20468963901875487,-0.9234735060772298,0.32448784831957717,0.002543923098581796
-601.2088811397552,3964.0,-584.0,16084.0,-117.0,-484.0,1184.0,0.20743445222467286,-0.8863610327360835,0.40869494545239377,0.06560113748204685
-601.2245054244995,4136.0,-388.0,15864.0,-69.0,-434.0,1293.0,0.20872413238499185,-0.8330932586007247,0.4969627295994479,0.12416885448140527
-601.2400879859924,4248.0,-376.0,15780.0,34.0,-77.0,1335.0,0.19874160548862602,-0.7684991224757277,0.589008991189105,0.15158918596071586
-601.2556819915771,4140.0,-244.0,15452.0,15.0,136.0,1343.0,0.17380163832690376,-0.6961645895215625,0.6769750688467095,0.16386766298190467
-601.2712771892548,4056.0,-336.0,15592.0,-21.0,186.0,1353.0,0.14119451320940488,-0.6148283819774997,0.7563599629418033,0.17311781136891408
-601.2868490219116,4104.0,-224.0,15604.0,-46.0,45.0,1293.0,0.1154867857900697,-0.5273431439085854,0.8203919541604879,0.18849151818907856
-601.302446603775,3944.0,-408.0,15192.0,133.0,55.0,1287.0,0.0958856188691879,-0.43198199162953577,0.8767938593321706,0.18822867804681226
-601.3180122375488,3636.0,-860.0,15532.0,398.0,102.0,1565.0,0.07661231248769348,-0.3074864230808387,0.9339308135878797,0.16539615662802062
-601.3335607051849,3320.0,-1276.0,15744.0,683.0,110.0,2251.0,0.05237998450030059,-0.11850761648158399,0.9843634758201804,0.11933494681280513
-601.3491506576538,2820.0,-1032.0,15696.0,805.0,200.0,2587.0,0.016119652598409535,0.1025484219529271,0.9928862919706068,0.0583162856492933
-601.364752292633,2252.0,-952.0,15580.0,820.0,363.0,2688.0,-0.03531293004401524,0.32503862874042494,0.9450249036603089,-0.005551419644989206
-601.3803441524506,1960.0,-692.0,15336.0,1054.0,656.0,2783.0,-0.11403896441783538,0.5331511500245266,0.8345018597686683,-0.07969700034923807
-601.3959610462189,1876.0,-584.0,14688.0,1295.0,1146.0,2326.0,-0.23425805142762837,0.6763574174807038,0.6842604280886455,-0.1394685473936951
-601.411541223526,2352.0,-732.0,14276.0,2135.0,1422.0,1303.0,-0.4164992832281487,0.705896866374147,0.5356063242191507,-0.20338098871341964
-601.4271359443665,2720.0,-796.0,13880.0,2610.0,840.0,437.0,-0.591778534231554,0.6281118172241057,0.4196237933669594,-0.28140643831744266
-601.4427299499512,3216.0,-464.0,15060.0,2969.0,-566.0,32.0,-0.7088662100556729,0.4466256086838913,0.36174945242075335,-0.40886623189294485
-601.4583206176758,3852.0,148.0,16804.0,2846.0,-1821.0,-169.0,-0.7369649035069119,0.19185427486602474,0.3638271746517541,-0.5363808863108395
-601.4739825725555,4768.0,-68.0,18248.0,2126.0,-1976.0,-606.0,-0.7147124164532693,-0.05501322023306073,0.38857438347513945,-0.5789383869411602
-601.4895482063293,5516.0,-1104.0,18080.0,1668.0,-431.0,-990.0,-0.7312718036087438,-0.21128093586657476,0.3213787293052697,-0.5633095310185066
-601.5051598548889,6472.0,-2384.0,18100.0,1475.0,1004.0,-969.0,-0.7679627528659665,-0.2787214316201286,0.16417450173612497,-0.5528058490517694
-601.5207252502441,7008.0,-3144.0,17624.0,1383.0,1752.0,-565.0,-0.7712950470416885,-0.28893793890082264,-0.03302323325087214,-0.5661521738352353
-601.5362918376923,6948.0,-3356.0,17400.0,918.0,1582.0,226.0,-0.7231594025510301,-0.2695606475597446,-0.1767095804777456,-0.6108610807348813
-601.5518605709076,6696.0,-3064.0,17196.0,131.0,659.0,998.0,-0.6531426048058572,-0.2565551546254249,-0.20047018446745052,-0.6836635836156046
-601.5674362182617,5928.0,-2680.0,16432.0,-848.0,236.0,1351.0,-0.5816618027845183,-0.21553424092650977,-0.13152885691705946,-0.7732494409747666
-601.583071231842,5184.0,-2160.0,15220.0,-1373.0,-1016.0,1547.0,-0.5046192311715106,-0.22748239010933888,0.04125508963500423,-0.8318108025874777
-601.5986723899841,5012.0,-1740.0,14492.0,-1477.0,-1492.0,2152.0,-0.3601163076876155,-0.2541494389993381,0.24868027192223288,-0.8624861911650786
-601.6142513751984,4484.0,-1692.0,14424.0,-1511.0,-1652.0,2316.0,-0.17662549640567007,-0.2701121119740481,0.4481966063855586,-0.8336442184822245
-601.6298339366913,4388.0,-2036.0,14224.0,-1319.0,-1623.0,2425.0,0.031001502052442086,-0.26287331195726704,0.6031079159153293,-0.752460876385861
-601.6454086303711,4724.0,-2096.0,14096.0,-1076.0,-1500.0,2560.0,0.24430719871016826,-0.22127946850528954,0.702193279821773,-0.6310895239580104
-601.6609973907471,5204.0,-2408.0,13988.0,-698.0,-2152.0,3416.0,0.5187496674795257,-0.13684937612072948,0.7162187186987956,-0.4463202636344267
-601.676596403122,5460.0,-2404.0,13212.0,-356.0,-3171.0,3846.0,0.7906773574881714,-0.03307104785549793,0.5795999041493405,-0.19442112349057433
-601.6921753883362,5844.0,-2656.0,12944.0,183.0,-3967.0,4586.0,0.9454204064805031,0.12745207322901725,0.2790730437341971,0.10979280623427225
-601.7077848911285,5856.0,-2664.0,13200.0,829.0,-4452.0,5041.0,0.8575773349469459,0.31088933388869067,-0.11763181222933748,0.3925196726422537
-601.7233517169952,5992.0,-2572.0,13776.0,1452.0,-4436.0,5393.0,0.4991034845405952,0.43798535581928427,-0.4638233044123807,0.5864575705805757
-601.7389209270477,6060.0,-2396.0,14336.0,1764.0,-4081.0,5758.0,-0.02385879080539149,0.4140958486208985,-0.6511930069604165,0.6355336764815012
-601.7544858455658,6368.0,-2772.0,14804.0,1999.0,-3465.0,6248.0,-0.5369279391937108,0.207300090762845,-0.6369458604317035,0.5128694096569105
-601.7700822353363,6212.0,-3024.0,14724.0,2154.0,-3121.0,6642.0,-0.8706240145434753,-0.1024718547838338,-0.4277343680904217,0.2203557456288605
-601.7856509685516,6148.0,-2860.0,14796.0,2327.0,-3027.0,6773.0,-0.9045279038932993,-0.3920998284714378,-0.07626743164261018,-0.14923228357732504
-601.8012869358063,6188.0,-2544.0,14820.0,2851.0,-2890.0,6664.0,-0.6111716827851768,-0.5777324582124381,0.28346946666462597,-0.46080304074324546
-601.816871881485,6360.0,-2060.0,14876.0,3368.0,-2500.0,6815.0,-0.08641332745937709,-0.5650133053499592,0.5124108107677785,-0.6408805369358787
-601.8324997425079,5960.0,-2192.0,15612.0,3396.0,-2354.0,6482.0,0.4558606548893164,-0.3589914810535054,0.5478956214757954,-0.6025998405430808
-601.8480899333954,5172.0,-2296.0,15852.0,3476.0,-1921.0,6462.0,0.8309664095951395,-0.01053438711213836,0.40937761689102425,-0.3765552012671719
-601.863706111908,5192.0,-1712.0,16216.0,3629.0,-1575.0,6202.0,0.9209740861586848,0.35549817655965893,0.15259687669652364,-0.04628144670814599
-601.8792903423309,6796.0,-1844.0,16524.0,3874.0,-1342.0,6320.0,0.705430009296105,0.6229127861336098,-0.13970273094494068,0.3079469269570424
-601.894859790802,5724.0,-2032.0,17580.0,3191.0,-418.0,5404.0,0.3345428426963303,0.6702412473340781,-0.3274218302393773,0.5758929604148797
-601.9104564189911,5392.0,-2216.0,17204.0,3556.0,1315.0,4730.0,-0.06510648881530226,0.5061833177436003,-0.3420221099907637,0.7890250124233644
-601.9261655807495,5556.0,-1512.0,17524.0,3513.0,2241.0,4026.0,-0.38432171936199866,0.18878111252685292,-0.2592969551339047,0.8656925531838925
-601.9573700428009,5048.0,-1036.0,16476.0,3077.0,3391.0,2425.0,-0.4933739631083302,-0.2055195520129576,-0.1642220111357934,0.8290808026517612
-601.9730062484741,3952.0,-892.0,16724.0,2645.0,3012.0,1762.0,-0.495380649466835,-0.5253710377190143,-0.06611386990167345,0.6886307000609889
-601.9885857105255,3000.0,-8.0,17288.0,2163.0,2126.0,414.0,-0.39503316535201954,-0.7235702240616835,-0.008700895495878028,0.5659675110294399
-602.0041289329529,2416.0,888.0,18744.0,1317.0,1309.0,-903.0,-0.2620900014028224,-0.8196861851158337,-0.04507228951250361,0.5073380311124137
-602.0197730064392,2536.0,2272.0,20376.0,145.0,1328.0,-2162.0,-0.14721434649260814,-0.8525365698185257,-0.21841206134064306,0.4514482304425921
-602.0353598594666,3316.0,2928.0,21924.0,-1358.0,2287.0,-2833.0,-0.08813028935693504,-0.825004096788415,-0.4850035071228707,0.27635645543158543
-602.0509510040283,3632.0,1884.0,21732.0,-2396.0,3900.0,-3588.0,-0.00804508800126865,-0.667630458430753,-0.7411660469299037,-0.06984080764778214
-602.0666341781616,4664.0,-592.0,19352.0,-1913.0,6686.0,-3940.0,0.23704233736397717,-0.3039309773217914,-0.7904257387189282,-0.47609247304686486
-602.0822281837463,4832.0,-2944.0,17244.0,-992.0,8228.0,-2948.0,0.5202823180043815,0.17520718016887057,-0.521157961146927,-0.6534547674647715
-602.0978138446808,4892.0,-4048.0,16120.0,-40.0,7453.0,-1428.0,0.6490858805812084,0.5530294498215209,-0.13207863367744835,-0.5053723199643225
-602.1134042739868,4144.0,-3768.0,15972.0,138.0,4908.0,453.0,0.6605190030050626,0.7091202870701475,0.10844838077492445,-0.22158974218597474
-602.1289882659912,1868.0,-1948.0,17116.0,-184.0,2366.0,1232.0,0.6558132655766691,0.7360703218877864,0.1676426683506389,-0.00231898209422879
-602.144552230835,796.0,1048.0,19412.0,-567.0,1813.0,1309.0,0.6529697433005114,0.7088175259313193,0.1837267995178726,0.1935269810790918
-602.1601419448853,1028.0,3864.0,20500.0,-338.0,4220.0,527.0,0.5598403418811618,0.587214595444381,0.36164930990975663,0.4593120803345724
-602.1757562160492,2292.0,4424.0,20148.0,115.0,7536.0,-553.0,0.282385941394932,0.22799088005845616,0.6367414598074751,0.6803224618332944
-602.1913352012634,1676.0,1724.0,18188.0,540.0,9232.0,-2373.0,-0.07723435203921972,-0.3371477574439411,0.7247897544308651,0.5958574127991106
-602.2069063186646,552.0,-256.0,16268.0,783.0,9770.0,-2854.0,-0.3911389940890207,-0.7698498305908917,0.45959638058377456,0.20763596171303922
-602.2224791049957,-620.0,-1016.0,14156.0,943.0,8413.0,-1614.0,-0.508314855575171,-0.8145066095680187,0.06468633904158326,-0.27204901784972807
-602.2380745410919,-1288.0,-804.0,13316.0,1156.0,5539.0,227.0,-0.40526464395829886,-0.6570161040481918,-0.17248795533700761,-0.6118319316955821
-602.2536716461182,-2300.0,128.0,13952.0,1145.0,2979.0,1705.0,-0.19428531617987405,-0.537786590673963,-0.23002256834581225,-0.7874823279666393
-602.2693502902985,-2292.0,1472.0,15164.0,1243.0,2525.0,2399.0,0.07577514718489196,-0.4123623908232952,-0.23375458886663628,-0.8772537705176272
-602.2849431037903,-1888.0,2052.0,16416.0,825.0,3356.0,2239.0,0.325010723659696,-0.1838959789257787,-0.18262782874252384,-0.9095039167644752
-602.3005199432373,-1280.0,2364.0,17032.0,294.0,4625.0,1716.0,0.4954971945613861,0.15101693542430833,-0.04324068345115603,-0.8542872225964305
-602.3161120414734,-1524.0,1672.0,16536.0,-59.0,4877.0,1494.0,0.5720183029838968,0.4624295297130718,0.1392830604372671,-0.6629888537343587
-602.3317329883575,-2264.0,584.0,15628.0,-89.0,4298.0,1606.0,0.5722065946425455,0.6740295434708321,0.27308182540994774,-0.37906477574004943
-602.3473374843597,-3120.0,84.0,14692.0,74.0,3492.0,1902.0,0.517360732601318,0.7921639911685343,0.31470552669116997,-0.07599022916269708
-602.3628947734833,-3280.0,56.0,13836.0,209.0,2492.0,2217.0,0.4312699731843008,0.8438234864630427,0.26164469596991907,0.18305787880825122
-602.3784909248352,-2776.0,764.0,12860.0,84.0,1177.0,2426.0,0.34993925687596267,0.8600236190273002,0.1251711774841155,0.34961989007996164
-602.394049167633,-1744.0,2028.0,12404.0,-347.0,-23.0,2527.0,0.2920368672611111,0.8567099740656855,-0.0740192466213578,0.4186688902059661
-602.4096176624298,-1284.0,3016.0,12624.0,-931.0,-1304.0,2026.0,0.27242039863547374,0.8462569031357611,-0.28561703426490015,0.35785372715689806
-602.4251914024353,-628.0,3292.0,13572.0,-1384.0,-2341.0,1032.0,0.2753813285208894,0.8342481240312407,-0.44657117223831155,0.16961538720919742
-602.4407825469971,-24.0,2732.0,14700.0,-1644.0,-2718.0,274.0,0.27471023307066417,0.7940958264003789,-0.5358288532700216,-0.0826652668482626
-602.4563884735107,648.0,1916.0,16304.0,-1551.0,-2514.0,-269.0,0.2543571033697648,0.7273390605116429,-0.5481870237370239,-0.32522506364935505
-602.4720504283905,848.0,1024.0,17320.0,-1367.0,-2320.0,-1056.0,0.19410398188855668,0.6608788016951859,-0.4787934240235155,-0.5443525611189682
-602.4876458644867,348.0,644.0,18096.0,-1273.0,-1897.0,-1443.0,0.11652241188859375,0.5931353473528289,-0.3573486082158276,-0.7119796060664343
-602.5032877922058,-688.0,264.0,18060.0,-1165.0,-1285.0,-1513.0,0.04190201260892664,0.5377647839940242,-0.21531051417512131,-0.8140605879913526
-602.5188753604889,-1316.0,392.0,18004.0,-875.0,-651.0,-1176.0,-0.01269658335929494,0.5053249916737529,-0.09928159020342522,-0.8571047867137375
-602.5344634056091,-1904.0,356.0,17968.0,-501.0,-232.0,-724.0,-0.04662900927730037,0.49305876442064656,-0.029478610129607917,-0.8682452429277279
-602.5500435829163,-2076.0,396.0,17560.0,-309.0,276.0,-449.0,-0.06655721708778821,0.5154664063122109,0.012129418107161956,-0.8542349782310986
-602.5656452178955,-1668.0,36.0,17076.0,-219.0,394.0,-325.0,-0.08126628141651256,0.5449529718500873,0.040738681014137024,-0.8335240907410646
-602.5813522338867,-1148.0,776.0,16128.0,-199.0,371.0,-405.0,-0.10245730714284026,0.5710112058568841,0.07173425052585439,-0.8113586754946289
-602.596987247467,-812.0,1460.0,15796.0,-323.0,319.0,-796.0,-0.1442728999297936,0.5894768777807445,0.13097874015551408,-0.7839304245499006
-602.6125919818878,-568.0,2040.0,15572.0,-390.0,114.0,-1187.0,-0.20551196707904054,0.5849887678331487,0.21596814981507348,-0.7542617126447636
-602.6281855106354,-724.0,1188.0,15584.0,-388.0,252.0,-1519.0,-0.2877316381332351,0.574295369239164,0.31152532182039305,-0.7002480325943927
-602.6438314914703,-556.0,352.0,16016.0,-344.0,83.0,-2043.0,-0.3913049487502662,0.5238370418467287,0.42590397956120013,-0.6253646862965265
-602.659453868866,-200.0,-424.0,16168.0,-503.0,142.0,-1939.0,-0.47229057808161257,0.46943595370086416,0.5290377986643949,-0.526013785762909
-602.6750917434692,268.0,-940.0,15684.0,-84.0,26.0,-1966.0,-0.5523044063668823,0.3776968494537249,0.6034676921785922,-0.43374148650676736
-602.6906807422638,512.0,-1272.0,15516.0,103.0,-380.0,-1716.0,-0.5937680532371078,0.2647827913171299,0.6665494595019227,-0.36474839330012016
-602.7062616348267,736.0,-972.0,15544.0,82.0,-888.0,-1282.0,-0.5795482275218673,0.15618443846850033,0.7327272956515456,-0.32068829626868756
-602.7218408584595,928.0,-660.0,16116.0,20.0,-1153.0,-1512.0,-0.5410918724651322,0.025813184789215897,0.8000834517243156,-0.2577202656372206
-602.7374219894409,964.0,-484.0,16660.0,76.0,-1207.0,-1064.0,-0.4763071930290547,-0.07847378422084256,0.8493637207072452,-0.21343521969250598
-602.7530002593994,1144.0,-720.0,17208.0,229.0,-1084.0,-1135.0,-0.4116680287887387,-0.19052380206959474,0.8740100704983607,-0.1741737970694521
-602.7686140537262,1500.0,-920.0,17600.0,267.0,-699.0,-1104.0,-0.368266891146308,-0.2929901404969041,0.8707937374480073,-0.14231845023878198
-602.7842528820038,1472.0,-1348.0,17960.0,871.0,-67.0,-1060.0,-0.35160993767332155,-0.3995257298853182,0.8290498433600836,-0.1715400831105887
-602.7999024391174,1292.0,-1732.0,18148.0,1072.0,277.0,-954.0,-0.3458087996807162,-0.4933084394248028,0.7649961275200022,-0.22769273711528148
-602.8154780864716,1496.0,-1688.0,17928.0,999.0,334.0,-701.0,-0.3370318862585318,-0.5602101868583447,0.7005821380912457,-0.2859348211964629
-602.8310949802399,1752.0,-1316.0,17524.0,941.0,247.0,-362.0,-0.31392346341597005,-0.6013771485856698,0.6494343011791047,-0.3435588344489185
-602.8466718196869,1512.0,-1040.0,17064.0,878.0,62.0,-98.0,-0.2735193892294633,-0.6272309507884051,0.614395426988006,-0.39279350476406893
-602.8622572422028,1592.0,-1096.0,16652.0,814.0,250.0,18.0,-0.24111842876900808,-0.6353392275852331,0.5798686481578523,-0.44939773039363373
-602.8778491020203,1736.0,-1052.0,16720.0,759.0,215.0,198.0,-0.20166915037438665,-0.6312267647561609,0.5551162538000165,-0.5027208668931287
-602.8934283256531,1408.0,-1380.0,16576.0,730.0,471.0,213.0,-0.17441852684345305,-0.6111761970688183,0.5248879646795458,-0.5661576266066017
-602.909019947052,1420.0,-1776.0,16116.0,776.0,601.0,445.0,-0.13797459497910486,-0.5703176985437097,0.4988766699616188,-0.6378266238063163
-602.9247279167175,1384.0,-1996.0,15832.0,744.0,462.0,533.0,-0.09102872637228476,-0.5281560981128339,0.47645937535480554,-0.6969586577680021
-602.9403252601624,1320.0,-1812.0,15772.0,719.0,86.0,687.0,-0.019595346788452945,-0.4980898408275189,0.46188432762244636,-0.7336112054388332
-602.955949306488,1236.0,-1212.0,15968.0,754.0,-239.0,802.0,0.07382383266942864,-0.4799442876864979,0.44664190545316096,-0.7514749035997583
-602.971586227417,1192.0,-888.0,16504.0,790.0,-74.0,794.0,0.16112590816886785,-0.4465173503042101,0.4254780123647129,-0.7704733341188638
-602.987226486206,1024.0,-840.0,16564.0,887.0,111.0,677.0,0.23599694853167788,-0.3994178818141272,0.39179316154944005,-0.7945243322478845
-603.0028207302094,1068.0,-1020.0,16888.0,972.0,530.0,658.0,0.29555602088596894,-0.31800995604918936,0.3558727724458128,-0.8275692576475856
-603.0184631347656,872.0,-992.0,17140.0,921.0,734.0,663.0,0.34385490098282234,-0.21898243300570402,0.32427490123442376,-0.8536136652692486
-603.0340564250946,568.0,-824.0,17336.0,941.0,1176.0,725.0,0.3785895209944804,-0.08160831193331189,0.29993669034996373,-0.8718073409868003
-603.0496752262115,308.0,-864.0,17176.0,1005.0,1525.0,698.0,0.3932765157224687,0.08474713965503,0.2745958429170815,-0.8733548119488113
-603.0653331279755,16.0,-532.0,16964.0,1076.0,1645.0,682.0,0.3915094784864696,0.25909560609051263,0.23982007258665894,-0.8497506269161395
-603.0809712409973,-164.0,-260.0,16708.0,1132.0,1477.0,636.0,0.37670146397069487,0.41440545550490726,0.1890257077197402,-0.8066185017163672
-603.0965688228607,-300.0,-140.0,16408.0,1188.0,1138.0,748.0,0.3631783662144781,0.5390917945401908,0.11425027921351524,-0.7512844901053481
-603.112197637558,-668.0,264.0,16688.0,1174.0,1011.0,879.0,0.35132986049450216,0.6434938368229163,0.027581008812518393,-0.679501507760446
-603.1278381347656,-956.0,468.0,16568.0,1034.0,1128.0,848.0,0.33698311514034546,0.7355102221194373,-0.04626035143052391,-0.5859411857461884
-603.1434400081635,-1180.0,440.0,16436.0,944.0,1119.0,926.0,0.3246221873355182,0.8075132576328111,-0.11971458309454801,-0.47771455162183174
-603.1590375900269,-1228.0,524.0,16224.0,912.0,1047.0,936.0,0.3071001148755684,0.8580644448055614,-0.19200676002146488,-0.36407187766977583
-603.1746597290039,-664.0,660.0,16312.0,897.0,777.0,890.0,0.27894437275662043,0.8844697617595991,-0.2641367179955552,-0.26483026950647154
-603.1902265548706,-732.0,1008.0,16560.0,887.0,485.0,792.0,0.2385078863508308,0.8934015625778636,-0.33189710110349563,-0.18652600465079072
-603.205816745758,-996.0,1120.0,16980.0,969.0,411.0,714.0,0.1853736385126786,0.8940769715566507,-0.39238618992148006,-0.11088760541901395
-603.2213900089264,-1172.0,1000.0,16652.0,1078.0,723.0,578.0,0.13062943950269762,0.8918832416083073,-0.43291329534212214,-0.008143192831643734
-603.2369828224182,-1032.0,900.0,16908.0,1240.0,1097.0,564.0,0.07509762389885385,0.8753444242301089,-0.45986644111786523,0.12905557790190386
-603.2525782585144,-1488.0,544.0,16948.0,1346.0,1242.0,869.0,0.012136943669040343,0.822508024954422,-0.495266216251909,0.27936466942594584
-603.2682409286499,-1692.0,736.0,17616.0,1499.0,1698.0,1200.0,-0.050105106341911454,0.7131558164675621,-0.5299576351323187,0.45611749004166774
-603.2838983535767,-1608.0,748.0,17424.0,1588.0,1802.0,1122.0,-0.10744358045654077,0.5675184584283348,-0.5304148567507286,0.6205149120689276
-603.2994797229767,-1764.0,1004.0,17148.0,1599.0,1597.0,894.0,-0.15764794943700908,0.4153141049699891,-0.4920596450353813,0.7486912741437138
-603.3150560855865,-2152.0,1452.0,15852.0,1403.0,1203.0,793.0,-0.2055459311488162,0.2789645455365961,-0.4388608270226973,0.8290541761710634
-603.3306448459625,-2920.0,2056.0,14104.0,848.0,605.0,1382.0,-0.2996651291708507,0.16503641309870826,-0.41712899172734885,0.8420018984367289
-603.3462240695953,-3208.0,2660.0,13016.0,-39.0,-472.0,1741.0,-0.4388913376128767,0.1355648975765944,-0.4272952764103934,0.7787267165513156
-603.361789226532,-2840.0,2748.0,12552.0,-900.0,-1610.0,1890.0,-0.601074975204359,0.2035358513608376,-0.4375154491519466,0.6370732007762284
-603.37739777565,-2012.0,2508.0,13256.0,-1464.0,-2736.0,1712.0,-0.7402398958575975,0.3506058084031803,-0.38752657010120367,0.4230172823423203
-603.392972946167,-576.0,2168.0,14400.0,-1721.0,-3276.0,1234.0,-0.7990084590514496,0.5120397618371338,-0.2622594821022365,0.17498779588721686
-603.4085385799408,236.0,2436.0,15668.0,-1917.0,-3350.0,305.0,-0.7529521367427995,0.6534924121870521,-0.06769920977512273,-0.03778311771446049
-603.4240965843201,-228.0,2660.0,16972.0,-1734.0,-3746.0,-4.0,-0.6362543362617022,0.710318312987988,0.17354743003721504,-0.2459869983343783
-603.4397447109222,-1044.0,2280.0,16964.0,-1454.0,-3128.0,-823.0,-0.4933765352925408,0.679546360700084,0.4102976117787728,-0.3556011921389397
-603.4553451538086,-2176.0,2108.0,16364.0,-1032.0,-2764.0,-905.0,-0.34888204713899224,0.584881311015332,0.5938491306927361,-0.4284137943444094
-603.4709579944611,-2580.0,2312.0,15452.0,-847.0,-2782.0,-863.0,-0.18727687858427888,0.4464831812501461,0.7291420482984823,-0.4836651868923092
-603.4866147041321,-3264.0,2944.0,14688.0,-931.0,-3178.0,-749.0,0.018849587443270078,0.2683035645023264,0.8145315862351116,-0.5140001803052966
-603.5021979808807,-2716.0,3152.0,14128.0,-1037.0,-3937.0,-897.0,0.2657957768295138,0.024588426089699106,0.8227535744197294,-0.5018212531385908
-603.5178179740906,-2196.0,3796.0,14720.0,-1182.0,-4588.0,-1242.0,0.4997332951034522,-0.2694116825883761,0.7086299861172994,-0.4189600480061819
-603.5334086418152,-1624.0,4176.0,15100.0,-1240.0,-5044.0,-1295.0,0.6661541027365856,-0.5327366228044421,0.4560786987253041,-0.25381611985680785
-603.548995256424,-1060.0,3852.0,15908.0,-1373.0,-4695.0,-2109.0,0.6733517470704813,-0.7258461055306907,0.10459840972014844,-0.09382978464792303
-603.564591884613,-152.0,2652.0,16288.0,-1450.0,-4455.0,-2653.0,0.5434933011699005,-0.7889248099754675,-0.2837245504800311,0.04138907154697712
-603.5802390575409,476.0,1332.0,16348.0,-1479.0,-4634.0,-2985.0,0.30229822957470387,-0.6877572760529489,-0.6395207486061923,0.16315306228938253
-603.5958347320557,812.0,564.0,16684.0,-1588.0,-5876.0,-2920.0,-0.06844225302593014,-0.41607328633772217,-0.855070696244553,0.30174953657084114
-603.611433506012,544.0,372.0,17280.0,-1588.0,-6946.0,-2683.0,-0.47798216080619044,-0.01944175482174738,-0.7935454462130836,0.37608602329118035
-603.6270122528076,312.0,388.0,17960.0,-1291.0,-8434.0,-2389.0,-0.7799428300662642,0.37713950552939535,-0.38600191102497294,0.3169503113775703
-603.6426186561584,704.0,-176.0,19184.0,-616.0,-8696.0,-2148.0,-0.7818067376957463,0.576060794312748,0.20449445268169597,0.12293984289771158
-603.658203125,1072.0,-924.0,20220.0,185.0,-7664.0,-2449.0,-0.5139988650581571,0.4924747215570168,0.6976852939351564,-0.08067865872013126
-603.673837184906,1976.0,-1012.0,20620.0,660.0,-5884.0,-2918.0,-0.1773269573624615,0.21113540227356664,0.9379108891033446,-0.2104760228641839
-603.6894273757935,2696.0,-704.0,21232.0,614.0,-4319.0,-3199.0,0.09599282732198558,-0.1262761014571686,0.9516632176883165,-0.2630149109891493
-603.7050173282623,3256.0,56.0,21236.0,-149.0,-3396.0,-3403.0,0.27507988155878105,-0.4501338419518786,0.8197694401314207,-0.22290950656682446
-603.7206566333771,4072.0,144.0,20108.0,-986.0,-2595.0,-3882.0,0.3198787063898645,-0.7404187873418152,0.5760865612509716,-0.13259678161875954
-603.7362504005432,4964.0,76.0,18692.0,-1467.0,-1782.0,-4423.0,0.24159874210239607,-0.9392228026915921,0.2359999307061024,-0.06160038494527099
-603.751898765564,5724.0,-504.0,17488.0,-1477.0,-489.0,-4909.0,0.09504864689425899,-0.9796895218057697,-0.15401926361776258,-0.08632648505641252
-603.7674820423126,5764.0,-1768.0,16084.0,-1135.0,1370.0,-5128.0,-0.020075271937646254,-0.8222004126608956,-0.5175009173737665,-0.2361699925777889
-603.7830860614777,5424.0,-3008.0,15316.0,-1098.0,2157.0,-5989.0,-0.10878245905011456,-0.4400975635791149,-0.8087616258725958,-0.37468005504783986
-603.7986509799957,4508.0,-4060.0,14836.0,-1312.0,1276.0,-6298.0,-0.23872288256864668,0.05097499990638204,-0.8851058534080235,-0.3962329655461734
-603.8142292499542,4952.0,-3824.0,15396.0,-1459.0,-774.0,-5504.0,-0.43121335889979423,0.42892513847326336,-0.7097027434941728,-0.35552817127323855
-603.8297808170319,4844.0,-2776.0,17108.0,-1637.0,-2016.0,-4969.0,-0.5829999245818046,0.6608823284381586,-0.3564987660501911,-0.3102487158723772
-603.8453679084778,5780.0,-2932.0,18376.0,-1790.0,-1277.0,-5026.0,-0.591362729554682,0.7880340886476008,0.04237098746251895,-0.1658224853402946
-603.8609480857849,6744.0,-3028.0,18024.0,-1690.0,1031.0,-5817.0,-0.49633077961548844,0.7654447122935343,0.3646429815765406,0.1865091033036207
-603.8765540122986,6976.0,-1960.0,16660.0,-1874.0,2844.0,-6341.0,-0.3035429359497246,0.5067034313229752,0.5373186841243734,0.6019982976814771
-603.8921320438385,6408.0,-1092.0,15284.0,-1867.0,2802.0,-6438.0,-0.011946433989210251,0.09028104796391258,0.5485964863218938,0.8311128144173636
-603.9077627658844,6320.0,-1316.0,14464.0,-1812.0,1838.0,-6474.0,0.3280107006355204,-0.2999914684206101,0.39818859340946355,0.8024088379510997
-603.9234597682953,6112.0,-2212.0,14444.0,-1674.0,1496.0,-6404.0,0.585716129527491,-0.5809156713417128,0.1341746707024649,0.549063526509299
-603.9391205310822,5360.0,-2752.0,14476.0,-1451.0,1253.0,-5774.0,0.683843156829384,-0.691229755069626,-0.1449957356652549,0.1831289141640358
-603.9547140598297,4936.0,-3304.0,14344.0,-1291.0,1344.0,-4998.0,0.6372689143566076,-0.6585159091891795,-0.35082409864379194,-0.19278895183663983
-603.970377445221,5160.0,-3628.0,14176.0,-1185.0,1187.0,-4132.0,0.4995591040045209,-0.5384628238269827,-0.46810951256402966,-0.49129621737760065
-603.9868927001953,5348.0,-3352.0,14020.0,-955.0,834.0,-3445.0,0.32483894165903915,-0.3842542538391956,-0.5262584764753404,-0.6854781880746987
-604.0026342868805,5284.0,-2656.0,14216.0,-738.0,669.0,-3095.0,0.14017367275790693,-0.2144654916245309,-0.5452751077738801,-0.7981421873388169
-604.0182316303253,5100.0,-1868.0,14288.0,-395.0,286.0,-2673.0,-0.038700893736804465,-0.07020105255764984,-0.5489142431861809,-0.8320259651423825
-604.0338299274445,4980.0,-1628.0,14316.0,-109.0,68.0,-2381.0,-0.20461906271524322,0.04812143580899521,-0.5440036662450306,-0.8123271371197576
-604.0494232177734,4844.0,-1764.0,14440.0,16.0,-84.0,-2216.0,-0.35914061031855626,0.14437265708769756,-0.5244459560338297,-0.7583739164193448
-604.0650236606598,4932.0,-1216.0,14748.0,347.0,-148.0,-2241.0,-0.5087564004030889,0.22189444653493642,-0.5045644751341092,-0.66132024774574
-604.0806984901428,5012.0,-1160.0,15632.0,231.0,-146.0,-2274.0,-0.6383560086600136,0.29740386150996756,-0.45816806432834833,-0.5423417503716926
-604.0963294506073,4944.0,-956.0,16316.0,-81.0,-120.0,-2374.0,-0.7377850361280199,0.38293130522209956,-0.37782545466659906,-0.4077803106483361
-604.1119825839996,4656.0,-712.0,16616.0,-340.0,97.0,-2589.0,-0.7950524602873313,0.4812050563421262,-0.2781583065603422,-0.2428193477326619
-604.1275608539581,4456.0,-592.0,16340.0,-286.0,435.0,-2965.0,-0.807997230305525,0.5630319683337686,-0.1718028786197337,-0.024884721231625006
-604.1431801319122,4340.0,-992.0,15988.0,-201.0,664.0,-3376.0,-0.7618645170154262,0.602473306966785,-0.049981295051742855,0.2325730901250354
-604.1588182449341,4320.0,-1372.0,15864.0,-49.0,485.0,-3335.0,-0.661520051005035,0.5854726016681462,0.08845835856434114,0.46020449108448575
-604.1744849681854,3928.0,-1632.0,16048.0,114.0,339.0,-3833.0,-0.48918813991584353,0.5076170482047493,0.25531365462452804,0.6616908899930856
-604.190069437027,3844.0,-2292.0,16148.0,189.0,265.0,-3568.0,-0.28390656277005594,0.38614080000686185,0.3940951001493282,0.7842074969193064
-604.2056806087494,3652.0,-2344.0,15992.0,372.0,364.0,-3234.0,-0.08428003911567468,0.2313998283352769,0.4993863874363177,0.8306408553017176
-604.2213459014893,3336.0,-2456.0,15896.0,551.0,321.0,-2626.0,0.07879713534933186,0.0871834101295253,0.574106025651358,0.810303853976845
-604.2369329929352,3336.0,-2572.0,16084.0,630.0,453.0,-2235.0,0.20505044968237496,-0.0514354217906092,0.6254542754663394,0.7510763341839195
-604.2525339126587,3560.0,-2604.0,15632.0,692.0,273.0,-1755.0,0.30414919475734015,-0.15066659673220192,0.6586607626654951,0.6715346928361231
-604.2681112289429,3372.0,-2276.0,15644.0,705.0,-226.0,-1034.0,0.3847005017183344,-0.17703326819201298,0.6761377372093296,0.6029116902601609
-604.2837698459625,3208.0,-1692.0,15852.0,614.0,-664.0,-1074.0,0.4863116586733946,-0.1834543141156078,0.664491204628129,0.5369328861622853
-604.2993681430817,3324.0,-1240.0,16256.0,427.0,-1244.0,-1039.0,0.6075933980845335,-0.1654931663201425,0.608475085403772,0.48290821586332094
-604.3149809837341,2976.0,-564.0,16784.0,501.0,-1471.0,-1300.0,0.7364013926016358,-0.14369192431029185,0.5245261506004487,0.4024151304295754
-604.330634355545,3032.0,-236.0,16944.0,214.0,-1342.0,-1515.0,0.8406585882793368,-0.14976584600576273,0.4200355683070825,0.3073002614371109
-604.3462243080139,3080.0,-552.0,16988.0,212.0,-519.0,-1539.0,0.8947285422912042,-0.17487154605839048,0.3636233578529441,0.19146496183990103
-604.3618369102478,3076.0,-636.0,16412.0,131.0,-73.0,-1863.0,0.9181355228655674,-0.21957013303059394,0.32713955317303683,0.04237724723297055
-604.3774206638336,3580.0,-944.0,16756.0,70.0,-204.0,-1597.0,0.922219186322727,-0.2561936170376091,0.27749857096097086,-0.08289237650142144
-604.3930356502533,3256.0,-976.0,16936.0,2.0,-326.0,-1377.0,0.91333876544093,-0.28942564557851963,0.2185804074322394,-0.18511537135270942
-604.4086554050446,3260.0,-1224.0,16928.0,-157.0,-359.0,-1274.0,0.8897134779097949,-0.32967658407141187,0.1590423010533216,-0.2728164650755642
-604.4242763519287,3144.0,-1576.0,16888.0,-16.0,-193.0,-410.0,0.8815559397232817,-0.3407590976026765,0.13236548045939475,-0.2987000872486729
-604.4399118423462,3148.0,-2132.0,16204.0,-25.0,384.0,135.0,0.8794190609886151,-0.33071347346694696,0.16631592389963645,-0.29931543076617345
-604.4555022716522,2852.0,-2052.0,16132.0,-300.0,677.0,393.0,0.8689660911951496,-0.329297479478151,0.23666370438155943,-0.28363954835452265
-604.4710702896118,3108.0,-1352.0,15888.0,-192.0,649.0,866.0,0.8675937594063808,-0.3083510206073019,0.313916396593458,-0.23164026566924206
-604.4866917133331,2764.0,-612.0,16216.0,-154.0,646.0,946.0,0.8606110136347475,-0.2795000538602873,0.3892646118450548,-0.1723411299364953
-604.5022795200348,2680.0,-116.0,16224.0,-24.0,537.0,933.0,0.8521668684872541,-0.2403762554283449,0.4505756554030658,-0.11407218257301525
-604.5178558826447,2560.0,28.0,16488.0,228.0,570.0,971.0,0.8400979241254412,-0.17858813372514432,0.5083676204079325,-0.06248294882182617
-604.5335133075714,2664.0,400.0,16644.0,282.0,850.0,869.0,0.8068573042896074,-0.11398949528894413,0.579131066522255,-0.024390433925521104
-604.549158334732,2792.0,180.0,16392.0,488.0,1125.0,853.0,0.7504215229431465,-0.033792902186631744,0.6600951029459484,-0.0001809206212843652
-604.5647621154785,2940.0,372.0,16488.0,656.0,1223.0,816.0,0.6753738924514072,0.05567806485013122,0.7352768036078751,0.011750768730855047
-604.5803649425507,2880.0,660.0,16588.0,765.0,1234.0,959.0,0.5848613948619223,0.15924030226816555,0.7949586861786144,0.02490707134291823
-604.5959725379944,3024.0,584.0,16564.0,928.0,1072.0,1264.0,0.4882412148840997,0.2880668885710101,0.8228513591585999,0.03941604404757441
-604.6115708351135,3180.0,748.0,16636.0,1140.0,1031.0,1015.0,0.3772486558817142,0.40086247807387704,0.8344436187742819,0.026392657971329576
-604.627147436142,3376.0,384.0,16216.0,1368.0,1022.0,1041.0,0.24882052761030696,0.5116479792414285,0.8223714311919871,-0.0031495296686613007
-604.6427998542786,3696.0,-12.0,15376.0,1541.0,739.0,1239.0,0.12519848310782486,0.623768555108238,0.7696971960559097,-0.05295616932285828
-604.6584367752075,3704.0,-40.0,14980.0,1529.0,529.0,1311.0,0.01226192965796593,0.7192259384209516,0.6857845867922262,-0.11073931145614058
-604.6740620136261,3924.0,320.0,14780.0,1385.0,-162.0,1445.0,-0.050273085452635306,0.7935465630207802,0.5727647700445453,-0.19924102838722244
-604.6896653175354,4272.0,916.0,15016.0,1182.0,-877.0,1567.0,-0.06001925419226955,0.8368405365888071,0.43982650673530155,-0.3203876549135171
-604.7052991390228,4404.0,1176.0,15112.0,918.0,-1317.0,1481.0,-0.034488297566002,0.8369668230181411,0.30732207886648016,-0.4514977678118727
-604.7208971977234,4804.0,1440.0,15140.0,676.0,-1775.0,1303.0,0.014792202745165824,0.7842023189809456,0.1870688063123953,-0.5914500615839927
-604.7365300655365,5172.0,1908.0,15076.0,241.0,-1457.0,833.0,0.06439891116956133,0.7150428499724669,0.11445683823945145,-0.6866339163802317
-604.7521224021912,5392.0,2056.0,15428.0,-360.0,-1039.0,259.0,0.11224667120020197,0.6500903916025652,0.11345378639402216,-0.7429074006249747
-604.7677500247955,4988.0,2340.0,16108.0,-798.0,-435.0,-211.0,0.14769343787563083,0.6098446704356237,0.1723111601185735,-0.7593319369342592
-604.783411026001,3904.0,1616.0,15988.0,-1207.0,397.0,-766.0,0.15394524476386975,0.6039220573830443,0.29570124302328854,-0.7239749892747023
-604.7990033626556,2932.0,916.0,15836.0,-1390.0,817.0,-406.0,0.1786287606544051,0.619812307996242,0.4115724339547663,-0.6438420616362311
-604.8146278858185,2168.0,-192.0,15472.0,-1503.0,611.0,58.0,0.2388929773152633,0.6264738911539441,0.49742716314581553,-0.5504787247992347
-604.8302175998688,2028.0,-1268.0,16004.0,-1444.0,59.0,738.0,0.3473223848580357,0.6249502214146484,0.5224399667769241,-0.46460828968544576
-604.8458144664764,2304.0,-1840.0,16416.0,-1159.0,-733.0,1501.0,0.4971265693756511,0.6188134774657774,0.4581432727095372,-0.40004974165533747
-604.8614068031311,2648.0,-1564.0,16860.0,-720.0,-1346.0,2026.0,0.6450338264062735,0.6068207298925221,0.307930991652662,-0.34767581012229865
-604.8770136833191,2924.0,-720.0,16628.0,-542.0,-1330.0,2427.0,0.7605230778702171,0.583646887387089,0.11737160566137045,-0.25920043413282706
-604.8926088809967,3260.0,444.0,16124.0,-601.0,-1133.0,2381.0,0.8337908797778173,0.5278507642555208,-0.06384943198316671,-0.14862566908048908
-604.9082474708557,3336.0,1260.0,15460.0,-703.0,-1151.0,2318.0,0.8665043743633141,0.43683758311856885,-0.23886156292322552,-0.035892184974489386
-604.9239740371704,3888.0,1632.0,15584.0,-958.0,-1422.0,1990.0,0.8574664171500047,0.310190879380753,-0.4086303488623509,0.03942334077120775
-604.9396059513092,4172.0,1636.0,16276.0,-1293.0,-1897.0,1439.0,0.7979697595048576,0.16396716395779568,-0.5779476886127843,0.04832702439150557
-604.9552810192108,4132.0,1156.0,16856.0,-1421.0,-2058.0,842.0,0.6929232991866138,0.030357550086698756,-0.7203494664227753,0.005689184607229833
-604.9708962440491,3972.0,360.0,17000.0,-1243.0,-1694.0,430.0,0.5795411008885467,-0.06981637438077001,-0.810400824739713,-0.05008282650178771
-604.9865708351135,3740.0,-388.0,16744.0,-916.0,-1089.0,154.0,0.49386151845688014,-0.13079204137655365,-0.8538481182403238,-0.09968767966743183
-605.0021607875824,3564.0,-904.0,16496.0,-538.0,-719.0,254.0,0.43499216719208733,-0.178579536186166,-0.874318427555419,-0.12024329908183863
-605.0177757740021,3676.0,-1048.0,16320.0,-307.0,-550.0,25.0,0.38799126233037956,-0.1976149792589851,-0.8902047311313349,-0.1339650588740857
-605.0333650112152,4060.0,-1156.0,16424.0,-281.0,-503.0,90.0,0.3447435934514597,-0.21972063885768434,-0.9012019608657961,-0.14390872581532274
-605.0489616394043,3812.0,-676.0,16360.0,-406.0,-609.0,-96.0,0.2873184403958662,-0.23155319631136104,-0.914347186758269,-0.1667346789174904
-605.0645480155945,4088.0,-440.0,16460.0,-756.0,-623.0,-366.0,0.21615076231442956,-0.22941274733660005,-0.9225095225452083,-0.2227662903667785
-605.0801930427551,3664.0,-492.0,16512.0,-457.0,-522.0,-473.0,0.15539991463192207,-0.20953323511498842,-0.9304294527308002,-0.25738633103896963
-605.0959055423737,3456.0,-544.0,16476.0,-322.0,-320.0,-476.0,0.11268131042529413,-0.18213053345408237,-0.9346846150518868,-0.2837182783147328
-605.1115221977234,3504.0,-1168.0,16636.0,-132.0,-138.0,-403.0,0.08931064925773996,-0.15385081792364197,-0.9384518381269579,-0.2960771542512549
-605.1271116733551,3688.0,-1236.0,16560.0,-98.0,28.0,-354.0,0.08113073301235839,-0.12482985030462021,-0.9399513278317736,-0.30712670665555786
-605.1427137851715,3504.0,-1324.0,16524.0,-9.0,231.0,-213.0,0.09427239134049319,-0.10118904568107456,-0.9400228068438403,-0.31181824173471046
-605.158314704895,3476.0,-1336.0,16496.0,-18.0,392.0,-111.0,0.12321454764877902,-0.08151121498207563,-0.9366741032716372,-0.3175149151459299
-605.1739761829376,3520.0,-1056.0,16228.0,6.0,449.0,-58.0,0.15827760420052775,-0.06421397503630319,-0.9316735563080831,-0.3206386593890809
-605.1895995140076,3544.0,-1320.0,16236.0,33.0,526.0,-91.0,0.19852276592050028,-0.04159479238145421,-0.9248071678110871,-0.3218544500597343
-605.2051651477814,3468.0,-1220.0,16152.0,42.0,545.0,-84.0,0.24008336684547837,-0.018757892636042012,-0.9157522287313383,-0.321567992812688
-605.2207546234131,3396.0,-1200.0,16168.0,40.0,452.0,-88.0,0.27364435149834,0.0017943150247700787,-0.9067762614397045,-0.32073721489106594
-605.2363390922546,3328.0,-1168.0,16236.0,28.0,345.0,-114.0,0.2976666636659355,0.021127351829034784,-0.8988114416015255,-0.32107037358322343
-605.2519683837891,3260.0,-1076.0,16076.0,-55.0,223.0,-134.0,0.3114888189816319,0.03644286989739934,-0.8909506760770604,-0.32841060531124533
-605.2675580978394,3192.0,-1104.0,15968.0,-18.0,98.0,-121.0,0.31573512827225936,0.048158610048286636,-0.8872628786315245,-0.3328012338553112
-605.2831468582153,3144.0,-1156.0,16148.0,9.0,113.0,12.0,0.3248476853080409,0.05074631420200686,-0.8843766570741299,-0.3313257028473734
-605.2987914085388,3240.0,-1388.0,16076.0,55.0,120.0,143.0,0.33802286255864505,0.04471832742037015,-0.8830300140667807,-0.3224884646582029
-605.3144254684448,3240.0,-1556.0,16084.0,115.0,196.0,213.0,0.358615357368623,0.03718459509136507,-0.8809483689912107,-0.30650008567534204
-605.3300278186798,3324.0,-1416.0,16072.0,78.0,181.0,230.0,0.3783755583257032,0.026760622923590806,-0.8777654277617086,-0.29264938022958215
-605.345623254776,3324.0,-1340.0,15912.0,124.0,110.0,235.0,0.3924701399564677,0.015643737147240714,-0.8775274626663476,-0.27507819796737876
-605.3612282276154,3580.0,-1132.0,16148.0,22.0,-44.0,294.0,0.3960741270218567,-0.007188124088117156,-0.8796210697188601,-0.26332563582495394
-605.3768634796143,3576.0,-1020.0,16228.0,-36.0,-103.0,278.0,0.39447834793057684,-0.032144193006476064,-0.8818350861094673,-0.2563600295994551
-605.3925132751465,3428.0,-944.0,16180.0,-77.0,-64.0,265.0,0.3952236870765026,-0.05661622585402047,-0.8812575564128846,-0.25293864751930056
-605.4081060886383,3444.0,-928.0,16184.0,-82.0,-130.0,200.0,0.38921834310048675,-0.07768719120331102,-0.8826848232854434,-0.25167694463060675
-605.4237246513367,3500.0,-976.0,16320.0,-54.0,-94.0,92.0,0.3836791053613505,-0.08867266300925233,-0.8839562524640631,-0.2520889657911487
-605.4392893314362,3452.0,-1096.0,16428.0,-47.0,-61.0,-246.0,0.3731777631363458,-0.07259156707688338,-0.8866019570000098,-0.26344978901799954
-605.4548668861389,3404.0,-1152.0,16400.0,-48.0,38.0,-139.0,0.3726606131129679,-0.0625222075268422,-0.8850204831722657,-0.27194445272107826
-605.4704508781433,3580.0,-1160.0,16324.0,-23.0,133.0,-192.0,0.37824891979767994,-0.04527558039771348,-0.8809667275069955,-0.2806697374444806
-605.4860725402832,3264.0,-1276.0,16128.0,57.0,147.0,-23.0,0.38925337671156107,-0.03802583476585001,-0.8774703998023884,-0.2776356282605754
-605.5016512870789,3188.0,-1084.0,16212.0,59.0,153.0,-317.0,0.3933717419091419,-0.008033709845947035,-0.8742831578191063,-0.28429402407952625
-605.517331123352,3140.0,-980.0,16224.0,69.0,91.0,-327.0,0.3921479198901678,0.021532893332923665,-0.8726543290413711,-0.29022537007622523
-605.5329368114471,3152.0,-788.0,16188.0,50.0,104.0,-424.0,0.3890251322081464,0.058126484873563165,-0.8688777814862886,-0.30055308866511943
-605.5485372543335,3156.0,-1144.0,16224.0,123.0,143.0,-443.0,0.38735895835056,0.09955544921758333,-0.8641916173332507,-0.3053106589157919
-605.5641362667084,2880.0,-1252.0,16288.0,36.0,191.0,-429.0,0.3897664836013032,0.13809516911793285,-0.8541971492531361,-0.31521269443850136
-605.5798134803772,3028.0,-1304.0,16216.0,30.0,233.0,-388.0,0.395867458611624,0.17430440858392623,-0.8417119412831813,-0.3231531158164505
-605.5954477787018,3088.0,-1300.0,16236.0,57.0,271.0,-350.0,0.4048078283030419,0.20945583852363078,-0.8279543319323954,-0.32672694729287105
-605.6110732555389,3176.0,-1384.0,16076.0,70.0,235.0,-297.0,0.411886567902588,0.23993805114667327,-0.815708130546012,-0.32771852641328264
-605.6266496181488,3224.0,-1420.0,16092.0,125.0,169.0,-2.0,0.4212525822475359,0.2493410185343057,-0.8129820801522684,-0.315333879843807
-605.6422352790833,3228.0,-1304.0,16060.0,126.0,147.0,-241.0,0.4222347525571538,0.27499720085258716,-0.8054595166177649,-0.3119764740266759
-605.6578164100647,3228.0,-1176.0,16240.0,53.0,96.0,-252.0,0.42080820604186003,0.2971702097943686,-0.7970400678719638,-0.3151784420693424
-605.6734116077423,3224.0,-1180.0,16364.0,41.0,66.0,-220.0,0.4182763209230719,0.3157044021942533,-0.7898280921734503,-0.3186647683756021
-605.6890277862549,3568.0,-1072.0,16204.0,30.0,16.0,-170.0,0.4138567657280319,0.328896979278265,-0.7852596533647473,-0.32236102630473557
-605.704728603363,3408.0,-1076.0,16220.0,244.0,131.0,-179.0,0.4107033808162729,0.3534911746230337,-0.7818879685368715,-0.3082497803843429
-605.7203335762024,3572.0,-1200.0,16512.0,-16.0,127.0,-171.0,0.41527005599634176,0.3679106685769602,-0.771453229511568,-0.3115323983412016
-605.7359635829926,3388.0,-1244.0,16316.0,24.0,157.0,-135.0,0.421409116055461,0.3820455981992796,-0.7619124354859401,-0.30974983204804624
-605.7515604496002,3244.0,-1156.0,16100.0,37.0,162.0,-132.0,0.42738577056338495,0.39646471266577205,-0.7523817044059363,-0.30672284819688056
-605.7671549320221,3248.0,-1160.0,15996.0,83.0,67.0,-81.0,0.4267952056813581,0.40661269631755165,-0.7492101925764372,-0.30198684564125583
-605.7828001976013,3288.0,-1100.0,16036.0,52.0,6.0,-68.0,0.423616916069306,0.4131091452106168,-0.7478840853884917,-0.30093012043646145
-605.7984356880188,3352.0,-1076.0,16112.0,50.0,-84.0,-107.0,0.4135653048472054,0.4196689218253119,-0.7483477436408695,-0.3046594644324012
-605.814022064209,3276.0,-976.0,16236.0,11.0,-87.0,-163.0,0.4031689766160796,0.42831087989056393,-0.7456757087820075,-0.31300527758196794
-605.8296132087708,3236.0,-1008.0,16192.0,-256.0,-73.0,-218.0,0.4019260876846726,0.43126809503675445,-0.7327319376438838,-0.339951699214023
-605.8451933860779,3556.0,-1000.0,16376.0,-18.0,-63.0,-292.0,0.38985247205601603,0.44725490213349417,-0.7231313506143483,-0.35363703469523744
-605.8607802391052,3392.0,-988.0,16288.0,-18.0,-40.0,-268.0,0.379724450057978,0.462158278529029,-0.7132368380929258,-0.3653933228761249
-605.876321554184,3404.0,-1136.0,16312.0,12.0,-39.0,-262.0,0.3684288084237004,0.4774593621300983,-0.7041189085137556,-0.37484574602255993
-605.891978263855,3336.0,-1112.0,16224.0,3.0,-42.0,-242.0,0.3577914828308597,0.4909058728030794,-0.6952878773127561,-0.3841502915826869
-605.9075438976288,3396.0,-1148.0,16328.0,38.0,-59.0,-168.0,0.34697307272223815,0.5002100627707597,-0.6910858343039471,-0.38961513001034537
-605.9232726097107,3316.0,-1076.0,16212.0,59.0,-19.0,-156.0,0.33797528228084306,0.5106699834887348,-0.6867508574147383,-0.39161478058280885
-605.9388868808746,3412.0,-1164.0,16220.0,44.0,73.0,-128.0,0.33604933507707896,0.5220531549841544,-0.6803037627574408,-0.3895101258547862
-605.9544951915741,3344.0,-1196.0,16252.0,89.0,38.0,-120.0,0.33020448701743005,0.5329977169966931,-0.6766562754038131,-0.38602424196740287
-605.9701323509216,3140.0,-1032.0,16292.0,64.0,30.0,-164.0,0.3234960601587351,0.545438837016483,-0.6702078170349145,-0.38557522757715795
-605.9857909679413,3412.0,-956.0,16308.0,12.0,-28.0,-171.0,0.31555760946296335,0.5547399476974056,-0.6631574051829046,-0.39103611276936623
-606.0013995170593,3396.0,-940.0,16088.0,-18.0,-13.0,-171.0,0.3098660817264586,0.5635995066091255,-0.6545199026488387,-0.3974195573723023
-606.0170090198517,3292.0,-964.0,16020.0,-17.0,-24.0,-184.0,0.30296785289780787,0.5727080066528981,-0.6454153450956981,-0.4045430156870309
-606.032634973526,3372.0,-1116.0,16160.0,-49.0,-31.0,-157.0,0.2981534095061592,0.5790644663427376,-0.6365623964796345,-0.41300993160837873
-606.0482349395752,3420.0,-1128.0,16192.0,-46.0,-79.0,-181.0,0.2895755616029698,0.5849478728460606,-0.6276871260107884,-0.42425328757183484
-606.0638394355774,3304.0,-1048.0,16328.0,-78.0,-45.0,-219.0,0.2829776397660672,0.5931446202602757,-0.614596027087784,-0.43631965155907326
-606.0794537067413,3328.0,-1080.0,16280.0,-52.0,-43.0,-360.0,0.26956848007285317,0.6091863003678382,-0.594707964014884,-0.4500525786312407
-606.0950813293457,3572.0,-1100.0,16280.0,-52.0,238.0,-270.0,0.273997118800746,0.6309719200202695,-0.572393710375062,-0.4462795708498141
-606.1106600761414,3276.0,-1184.0,16268.0,-118.0,43.0,-283.0,0.27157277204630403,0.6436898240960209,-0.5509554423625946,-0.45646439112964465
-606.1262466907501,3268.0,-1164.0,16192.0,-105.0,91.0,-296.0,0.26999595344338734,0.6587526007521501,-0.5277433903029227,-0.4632862075629399
-606.141842842102,3264.0,-1144.0,16172.0,-64.0,31.0,-259.0,0.2646076544099454,0.6702023763473345,-0.5093678283337479,-0.47048483442573824
-606.1574354171753,3164.0,-1252.0,15880.0,-57.0,47.0,-297.0,0.2577909500770802,0.6837345860698012,-0.48836873269135245,-0.4770186818141991
-606.173036813736,3116.0,-1160.0,16196.0,-33.0,-6.0,-307.0,0.2466785442669729,0.6955329137342269,-0.4686139807352192,-0.4855765632422915
-606.1887221336365,3264.0,-1176.0,16316.0,36.0,-26.0,-342.0,0.22887418435417384,0.7088304262858001,-0.4497107882891169,-0.4928856271023569
-606.2043015956879,3204.0,-1244.0,16244.0,-50.0,-18.0,-210.0,0.2222276460559609,0.7151283301661717,-0.4348273052438698,-0.5001315420332175
-606.2199320793152,3268.0,-1368.0,16336.0,13.0,54.0,-150.0,0.21693573510154596,0.7233163808281023,-0.42492252064236724,-0.4991924994554952
-606.2355380058289,3260.0,-1348.0,16224.0,47.0,107.0,-184.0,0.20991987296892545,0.7355171190404993,-0.4132331939598775,-0.49415234689394383
-606.2511239051819,3236.0,-1216.0,15884.0,54.0,68.0,-158.0,0.20210301921375595,0.7450041775569116,-0.40410501147109124,-0.490736471796608
-606.2667038440704,3172.0,-1264.0,16228.0,77.0,46.0,-230.0,0.18885730675433315,0.7562293895878219,-0.3915269258277243,-0.48903649593974235
-606.2823069095612,3152.0,-896.0,16140.0,72.0,38.0,-242.0,0.17506357246694526,0.7670777923572989,-0.3778900050997909,-0.4879995390500314
-606.2979326248169,3280.0,-912.0,16240.0,74.0,53.0,-282.0,0.15982288226216615,0.77946813826132,-0.36121495941502785,-0.4862199305207936
-606.3135230541229,3216.0,-1008.0,16220.0,72.0,62.0,-330.0,0.14283712425720207,0.7931149272433201,-0.34078586625905494,-0.48418102139160835
-606.3291232585907,3476.0,-1020.0,16128.0,125.0,172.0,-376.0,0.12334626884121226,0.8125151706070464,-0.3176558428531857,-0.47296887952336336
-606.3447349071503,3504.0,-948.0,16004.0,154.0,78.0,-287.0,0.10271575704593708,0.8249659370774747,-0.30267951651728925,-0.46611778146432503
-606.3603217601776,3452.0,-1248.0,16024.0,180.0,-7.0,-88.0,0.08599168692637721,0.8284618284585933,-0.30367348867189775,-0.4626433192476025
-606.3759558200836,3460.0,-940.0,16244.0,143.0,-101.0,-64.0,0.07039451282432775,0.8270119266241663,-0.30552928853052935,-0.4666344818330924
-606.3915536403656,3728.0,-864.0,16348.0,52.0,-335.0,-242.0,0.04783053186604265,0.8195657022690134,-0.29203335551004006,-0.4906534613709119
-606.4071607589722,4020.0,-680.0,16128.0,100.0,-378.0,29.0,0.03227482651218827,0.8025478174122644,-0.2997846583711431,-0.5147858729080625
-606.4228136539459,4276.0,-628.0,16288.0,121.0,-94.0,430.0,0.040639162987035196,0.7867487074558059,-0.3353353291670542,-0.516647991151379
-606.438449382782,4432.0,-640.0,15960.0,80.0,102.0,466.0,0.059107930342714325,0.7772611908422986,-0.3702450748730467,-0.5052621876939385
-606.4540278911591,4432.0,-700.0,15828.0,21.0,-39.0,548.0,0.08051712394722273,0.7570295500449427,-0.4080735932950886,-0.5038841092605065
-606.4696295261383,4260.0,-836.0,15716.0,-28.0,-216.0,650.0,0.10310005461913659,0.7228457723396944,-0.4504955841664053,-0.513729595015443
-606.4852528572083,4076.0,-576.0,15828.0,-239.0,-489.0,755.0,0.1323987408975736,0.6668336744621502,-0.4901861273583225,-0.5454548419048955
-606.5008773803711,3940.0,-612.0,15948.0,-217.0,-573.0,860.0,0.16080999088179906,0.5976582380738679,-0.5342469969132735,-0.5757820104728735
-606.5164928436279,3796.0,-1020.0,16004.0,-162.0,-294.0,967.0,0.20337954948806325,0.5333296164743834,-0.5783428652346251,-0.582851447003028
-606.5320770740509,3528.0,-924.0,15840.0,13.0,122.0,945.0,0.256173590978929,0.49030904551176135,-0.6186554673240711,-0.5578866765969063
-606.547666311264,3244.0,-1104.0,15512.0,245.0,246.0,952.0,0.30419945759064304,0.45452852390741977,-0.6631983978959852,-0.5109152532311982
-606.5632951259613,3088.0,-1136.0,15324.0,668.0,205.0,996.0,0.3321773040967854,0.4213335434554835,-0.7229580813487171,-0.4352791017437202
-606.5788922309875,2896.0,-976.0,15476.0,782.0,135.0,959.0,0.3464015523810873,0.38630720041248306,-0.7794042329948743,-0.3511434934711365
-606.5945060253143,2620.0,-684.0,15528.0,1400.0,211.0,907.0,0.33779788607426003,0.369416476014414,-0.8375212139601369,-0.21904855986650837
-606.6100673675537,2308.0,-620.0,15204.0,1551.0,545.0,514.0,0.33376915079283176,0.3836662434288967,-0.8580178598305409,-0.07213681337575482
-606.6256566047668,2408.0,-472.0,15052.0,2226.0,709.0,232.0,0.30745586717922885,0.42673038111382267,-0.8416378735647042,0.12254697610713564
-606.6412715911865,2784.0,-328.0,15352.0,2596.0,555.0,-704.0,0.25197853095551065,0.5272372334236558,-0.7514297576885826,0.30640012873585853
-606.6568896770477,3172.0,-208.0,15748.0,2589.0,77.0,-1389.0,0.16958152573581456,0.6520966980066076,-0.5971863362714338,0.4351786786467076
-606.6725249290466,3680.0,-148.0,16924.0,2236.0,-457.0,-1852.0,0.08607972492834928,0.7740005849367538,-0.4005765005125015,0.48275443313446675
-606.6881487369537,4836.0,-216.0,17180.0,1797.0,-349.0,-2247.0,0.04573488089339954,0.8538330683054596,-0.17025869510614156,0.48978504354308855
-606.7037768363953,5572.0,-844.0,16920.0,1787.0,434.0,-2527.0,0.026088842608745434,0.8488856458412848,0.0928414152912818,0.5197047278817779
-606.7193710803986,6104.0,-2124.0,16420.0,1410.0,796.0,-2415.0,0.02394238106348497,0.771876042478732,0.3271848967494027,0.5445954285297155
-606.7349717617035,6604.0,-2704.0,16540.0,1144.0,272.0,-1709.0,0.01998535702098211,0.7010759121556935,0.48929170166702524,0.5183500569881252
-606.7506322860718,6968.0,-2712.0,17864.0,585.0,-382.0,-975.0,0.04434549200720242,0.6740241279019926,0.5715968283519121,0.4658347541378083
-606.7662272453308,6764.0,-2572.0,18244.0,-173.0,-284.0,-509.0,0.08924348150901547,0.6585584667994074,0.5925374744446851,0.4552314666119622
-606.7818291187286,6360.0,-2804.0,17284.0,-653.0,177.0,-29.0,0.11855394722484279,0.643793065303177,0.5685986713604864,0.4981676440637609
-606.7975080013275,5636.0,-2648.0,15768.0,-856.0,303.0,645.0,0.12297590600042084,0.6506755632656656,0.49587056099975424,0.5617923323133499
-606.8131244182587,4972.0,-2516.0,14536.0,-898.0,-70.0,1099.0,0.12216426410885109,0.6867347863922458,0.3856405183350944,0.6039475278132853
-606.828718662262,4812.0,-2492.0,14000.0,-743.0,-536.0,1649.0,0.09649772865338639,0.7523897446131228,0.2386239213507972,0.606346835338411
-606.8442962169647,4668.0,-2180.0,13744.0,-451.0,-664.0,2392.0,0.013017013120850584,0.8139810176077871,0.05079348526412709,0.5785200793389335
-606.8599243164062,4472.0,-2028.0,13864.0,-16.0,-641.0,2858.0,-0.12338114216554123,0.8321631311137717,-0.1490401360320364,0.5196813012071939
-606.8755185604095,4444.0,-2068.0,13576.0,310.0,-997.0,3440.0,-0.3005036449565841,0.791195208517858,-0.3569559971667178,0.39533544929958475
-606.8911566734314,4736.0,-2220.0,13528.0,815.0,-1690.0,3946.0,-0.5098489299101189,0.6588453813551031,-0.520433483625859,0.1874188391213868
-606.9067811965942,5256.0,-2336.0,13248.0,1232.0,-2389.0,4473.0,-0.6938805825177211,0.4002849788308188,-0.5925670023422634,-0.08465235178294067
-606.9224874973297,5636.0,-2360.0,13636.0,1622.0,-3024.0,4628.0,-0.7797914126341081,0.03598223203411696,-0.5208398311829907,-0.3454801036430589
-606.938145160675,6192.0,-2268.0,13976.0,1907.0,-3487.0,5080.0,-0.6894218398668813,-0.374637970487634,-0.31089019541950763,-0.5363685339162723
-606.9538016319275,6440.0,-1972.0,14464.0,2113.0,-3460.0,5139.0,-0.4112656529160432,-0.697351443832121,-0.028976396444836818,-0.5862780014343608
-606.969393491745,6572.0,-1836.0,14932.0,2263.0,-3404.0,5064.0,-0.019991289196009343,-0.8395127678934158,0.2484368384786147,-0.4828020279441336
-606.9850778579712,6700.0,-1720.0,15164.0,2410.0,-3037.0,4768.0,0.3731390954049923,-0.7651309664771295,0.4419951666225084,-0.282811054063413
-607.0007319450378,6984.0,-1732.0,15516.0,2572.0,-2770.0,4574.0,0.6790747004298799,-0.5090011076317194,0.5272088156399973,-0.042735095380999705
-607.0163316726685,6704.0,-1352.0,15720.0,2550.0,-2459.0,4524.0,0.8245808632934406,-0.14192329118922015,0.5120506400775356,0.1942377957670701
-607.0319502353668,6380.0,-1920.0,15944.0,2950.0,-1802.0,4290.0,0.7831603889365268,0.26380979885043654,0.4373911770595497,0.35461691085133235
-607.0475454330444,6084.0,-1560.0,15896.0,3294.0,-911.0,4227.0,0.5523145665874482,0.613027013649591,0.3429310617515662,0.44893739759250034
-607.06312251091,6328.0,-2092.0,16772.0,3273.0,-621.0,4429.0,0.20006483636544312,0.8351025531275571,0.18379199312289238,0.4783286425396445
-607.0787065029144,5748.0,-1796.0,17160.0,2626.0,116.0,4224.0,-0.15555445837252188,0.8657210879287417,-0.011453235224911207,0.47560343964146207
-607.0942981243134,5664.0,-1664.0,16576.0,2620.0,1125.0,4147.0,-0.480313764196853,0.7134123157375111,-0.21180737706754596,0.46419736179437526
-607.1099288463593,5528.0,-1292.0,16616.0,2346.0,1550.0,4264.0,-0.7037944140271836,0.43228990477096346,-0.4084565278917119,0.3885384483418491
-607.1255462169647,5380.0,-1792.0,16612.0,1746.0,2193.0,4088.0,-0.7619524528014048,0.0962070647770054,-0.5856256744083591,0.2592590014457946
-607.1411945819855,5284.0,-1812.0,16668.0,1368.0,2201.0,3812.0,-0.6932898923795575,-0.22214836020190454,-0.6799730552314317,0.08738349582832396
-607.1567902565002,5232.0,-2108.0,16552.0,1038.0,1861.0,3647.0,-0.5541481282577051,-0.4837789331736239,-0.6698128159861676,-0.10113647861455678
-607.1724004745483,5192.0,-2492.0,16344.0,934.0,1437.0,3340.0,-0.38130971180597656,-0.6761681163296677,-0.5763253119788453,-0.2554382839633059
-607.1880774497986,5864.0,-2160.0,16188.0,1000.0,1265.0,2945.0,-0.185214723071956,-0.7959121316214175,-0.44802028875215305,-0.36262543479693693
-607.2036881446838,6192.0,-1992.0,16828.0,1149.0,1837.0,2480.0,0.0432113884799714,-0.820087447614206,-0.3284521397253892,-0.4665924839526061
-607.2193028926849,6848.0,-1504.0,18080.0,1044.0,2040.0,1835.0,0.24333847561842167,-0.7610207658549949,-0.22462445628009045,-0.5578329802566837
-607.2349059581757,6476.0,56.0,19400.0,525.0,1741.0,914.0,0.3513896740889839,-0.6723882795804524,-0.1501148195346877,-0.6339438771551824
-607.2504830360413,5392.0,1052.0,20160.0,-516.0,1062.0,-43.0,0.3309235664095353,-0.6254373653199256,-0.0910141751121529,-0.700738264393431
-607.2660655975342,3448.0,2420.0,20968.0,-2428.0,-18.0,-1491.0,0.10388975441924354,-0.6644523950989063,-0.023700300371990984,-0.7396946865675822
-607.2816450595856,2796.0,4008.0,21160.0,-3916.0,-915.0,-2710.0,-0.27638375385196495,-0.6937281656693114,0.05861542292678497,-0.6625084791600053
-607.2973334789276,4396.0,3112.0,18224.0,-3915.0,570.0,-3630.0,-0.6576883336744355,-0.5294815163755335,0.04656982350126786,-0.5337851919117569
-607.3129234313965,5192.0,-68.0,16804.0,-2267.0,2164.0,-3667.0,-0.8683174663208838,-0.28867772163349636,-0.13038942693318212,-0.3816916924149786
-607.3285155296326,4488.0,-2024.0,16752.0,-744.0,2698.0,-3413.0,-0.9052870512714609,-0.0964706757498792,-0.36943057858660805,-0.18619831128597608
-607.3441171646118,3928.0,-2836.0,17040.0,34.0,2721.0,-2882.0,-0.8167321364679434,0.03597706122098547,-0.5755932091810694,0.018620576549823235
-607.3597438335419,1568.0,-3632.0,17496.0,-362.0,1002.0,-2461.0,-0.7413227655578895,0.1789924808413961,-0.6229014453026984,0.17434459701308347
-607.3753476142883,-1672.0,-2780.0,17600.0,-849.0,-1735.0,-2084.0,-0.7675157744846597,0.36263074306335563,-0.4764108160706298,0.229022301170537
-607.3909859657288,-2364.0,72.0,16920.0,-1119.0,-2074.0,-1362.0,-0.7697961676842222,0.5210903905277449,-0.30803436894570785,0.20246849796090882
-607.4066219329834,-1440.0,2504.0,16740.0,-1635.0,-1194.0,-540.0,-0.7063885397801302,0.6555874342854832,-0.22829738527658158,0.1382051039222088
-607.4222195148468,-1132.0,3284.0,16624.0,-2226.0,277.0,-458.0,-0.5570509831527327,0.7830712147598063,-0.24123461576562308,0.13527577366102037
-607.4378201961517,-564.0,2860.0,16624.0,-2341.0,1974.0,-621.0,-0.33593737688915537,0.855390863037671,-0.3110493026248614,0.24228264811391118
-607.4534051418304,-28.0,1872.0,16772.0,-2138.0,2076.0,-709.0,-0.10140984515029955,0.8630895094661271,-0.35183648150358,0.3478557635562385
-607.4689872264862,-32.0,668.0,17532.0,-1442.0,1211.0,-785.0,0.06719551245452306,0.8497997555224427,-0.341812483416781,0.39558736683623197
-607.484546661377,20.0,-412.0,18488.0,-728.0,370.0,-848.0,0.16068708183768712,0.8535321021626683,-0.30028299961662414,0.3943256680074318
-607.5001304149628,72.0,-260.0,17892.0,296.0,926.0,-673.0,0.18511228777042538,0.8389576046977253,-0.22574973314237273,0.45926096766697017
-607.515768289566,16.0,472.0,16836.0,1412.0,1650.0,-472.0,0.1307345807227131,0.7901423129452536,-0.10592222582996996,0.5893760062744379
-607.5313460826874,648.0,1152.0,15512.0,1763.0,2157.0,-266.0,0.04156706207921942,0.6816183284953191,0.026966227279471133,0.7300283941023539
-607.5469391345978,972.0,1720.0,15544.0,1647.0,2291.0,-836.0,-0.008261140046149884,0.5225336586141781,0.18400430692993122,0.8324858822896971
-607.5625801086426,1372.0,2072.0,15432.0,1579.0,1481.0,-1453.0,0.0014896150813034166,0.380534389725309,0.3548326321050265,0.8539819450531229
-607.5781805515289,1420.0,2532.0,14868.0,1524.0,953.0,-1796.0,0.053927738711435184,0.24789899909618227,0.5155724509885876,0.8184271091711238
-607.593832731247,1660.0,2688.0,14516.0,1127.0,406.0,-2794.0,0.203824368517977,0.09510362008166086,0.6362937544761117,0.7379303397071466
-607.6094191074371,1808.0,2564.0,14084.0,1114.0,-175.0,-3384.0,0.40320490230155437,-0.05896780741970136,0.6997753060449171,0.5867394016919688
-607.6250159740448,2228.0,2708.0,14492.0,914.0,-811.0,-3966.0,0.621126237570781,-0.21388961854982022,0.6558278009504026,0.37194532337204794
-607.6406598091125,2292.0,2204.0,14868.0,580.0,-959.0,-4398.0,0.771394252345945,-0.37469976011813233,0.5024577063151386,0.109942032815408
-607.6562745571136,2384.0,1428.0,14860.0,282.0,-770.0,-4396.0,0.7980275798787236,-0.5040099641591799,0.28824310356651034,-0.1613748773121627
-607.6719191074371,2656.0,256.0,14632.0,-68.0,-846.0,-4319.0,0.7053056781893142,-0.5873465042890317,0.03748459489279713,-0.3951745049457124
-607.687502861023,2676.0,-932.0,14844.0,-430.0,-1116.0,-4191.0,0.5069870803729655,-0.6223619461458663,-0.21617839557472587,-0.5557846791799533
-607.7031350135803,3376.0,-924.0,15012.0,-290.0,-1976.0,-3834.0,0.2507598854362741,-0.616189507680939,-0.46575983393244397,-0.5835218484128343
-607.7187309265137,3528.0,-176.0,15460.0,-323.0,-2254.0,-3714.0,-0.04429383673507296,-0.5486829392004883,-0.6527696021946949,-0.5204583890266155
-607.7343146800995,3124.0,364.0,15272.0,-377.0,-2137.0,-3807.0,-0.33351518742672687,-0.399152564467184,-0.7562432584030508,-0.3969143284827624
-607.7499363422394,2520.0,748.0,15528.0,-817.0,-1804.0,-3592.0,-0.5701248919176014,-0.18897984370384657,-0.7536659043666496,-0.266893107600802
-607.7655274868011,2528.0,328.0,15748.0,-1234.0,-1282.0,-3895.0,-0.7171701993583732,0.09257004810680938,-0.6793726784802897,-0.1247014638257753
-607.7811779975891,2744.0,-80.0,16080.0,-1450.0,-914.0,-3923.0,-0.7516764686062581,0.3803361016650156,-0.538203919573522,0.02575805251920326
-607.7968108654022,2540.0,-244.0,16380.0,-1489.0,-618.0,-4067.0,-0.6747075708046766,0.6263215028068253,-0.34179687183626634,0.18885435505594106
-607.8124294281006,2452.0,-168.0,16044.0,-1282.0,-416.0,-3750.0,-0.5244808534628127,0.7749505209075036,-0.12594380201228078,0.3294080800933697
-607.8280637264252,2336.0,-208.0,15640.0,-1609.0,-487.0,-3588.0,-0.30043299151419656,0.8524514043523308,0.0877304930908621,0.4187719921503869
-607.8436782360077,1900.0,-268.0,16072.0,-1661.0,-669.0,-3273.0,-0.04954698996632168,0.8513473149267352,0.2739496801436658,0.44463964949327084
-607.8592879772186,1820.0,-476.0,16560.0,-1681.0,-699.0,-2793.0,0.19250646319352904,0.7862998669960659,0.40257966705138687,0.4273211818614683
-607.8748915195465,1768.0,-660.0,16720.0,-1692.0,-708.0,-2451.0,0.41056827102221366,0.6744381240715237,0.4789685716835534,0.383609200838732
-607.8904893398285,2128.0,-828.0,16760.0,-1690.0,-748.0,-1923.0,0.5900028177832638,0.5439179604742994,0.49548483961585216,0.33248263261731537
-607.9060864448547,3052.0,-868.0,16736.0,-1822.0,-585.0,-1612.0,0.7314197287212878,0.3881228723323957,0.47767243944598936,0.2936236656052196
-607.9217419624329,3432.0,-668.0,16236.0,-1948.0,-421.0,-1587.0,0.8353119717703615,0.2033289096346507,0.44366483013657065,0.2531260216251632
-607.9373798370361,3640.0,-120.0,16096.0,-2179.0,-609.0,-1557.0,0.9063584080214446,-0.0023743543314059265,0.3681280464983731,0.20734160226937837
-607.9529685974121,3456.0,144.0,16052.0,-2363.0,-1028.0,-1652.0,0.9360279173145326,-0.21618538292272463,0.2352011840362049,0.14763475622745675
-607.9685671329498,3596.0,-72.0,16288.0,-2339.0,-1605.0,-1708.0,0.909694865082881,-0.40494226334559774,0.03985734533711831,0.08299643258032928
-607.9841647148132,3172.0,-556.0,16760.0,-2085.0,-1563.0,-1893.0,0.8233505112745084,-0.5444524484758897,-0.16013692866841117,-0.004650914884482134
-607.9998202323914,3140.0,-1124.0,17048.0,-1544.0,-1243.0,-2056.0,0.7101573338510191,-0.6084157618684393,-0.33625444812785354,-0.11153370791779274
-608.0154585838318,3104.0,-1488.0,17464.0,-851.0,-772.0,-2002.0,0.6106541301441611,-0.5978099003190149,-0.4726121150529471,-0.21531986699705052
-608.0311028957367,3032.0,-1676.0,17296.0,-29.0,-54.0,-1844.0,0.565073223844778,-0.5175538907727258,-0.5638516038956304,-0.3080610176961834
-608.0467085838318,2900.0,-1420.0,16796.0,468.0,645.0,-1723.0,0.5640291940458256,-0.386979223935253,-0.6140166464120131,-0.39382953982075863
-608.0623044967651,2872.0,-988.0,15916.0,450.0,902.0,-1388.0,0.5735535030169308,-0.2565072474247275,-0.6248979237704396,-0.46340370743336834
-608.0779678821564,2804.0,-760.0,15488.0,197.0,563.0,-1161.0,0.5581913914076857,-0.15947205574166085,-0.6265004798485574,-0.5200847841894702
-608.0935895442963,2968.0,-332.0,15156.0,-255.0,-70.0,-993.0,0.5038022678213739,-0.12026942019600453,-0.6294971715039813,-0.5791820547740105
-608.1092219352722,2912.0,-572.0,15472.0,-596.0,-472.0,-844.0,0.4269320979099055,-0.12335571882889178,-0.6257796865246805,-0.6410242852962179
-608.1248495578766,2780.0,-812.0,15924.0,-796.0,-576.0,-774.0,0.34163344322145395,-0.14212233650435793,-0.607294332151104,-0.703051510258203
-608.1404547691345,2856.0,-1576.0,16812.0,-833.0,-330.0,-619.0,0.27464507481913175,-0.15370312096490413,-0.5709772483726173,-0.7582416602403724
-608.1560733318329,2876.0,-2148.0,16956.0,-700.0,135.0,-361.0,0.2475438217095101,-0.14320093837275544,-0.5248222240264648,-0.8017338590520723
-608.1716706752777,2876.0,-2336.0,16800.0,-530.0,544.0,-248.0,0.24793537782778735,-0.10495949629759248,-0.4777409273902103,-0.8362267389020096
-608.1872861385345,2616.0,-2504.0,16484.0,-388.0,704.0,289.0,0.2940667724333176,-0.07381931403509445,-0.4301450050670255,-0.8503238893750593
-608.2029130458832,2672.0,-2336.0,16032.0,-378.0,661.0,493.0,0.3519918017405065,-0.05282446910240786,-0.3805363073370041,-0.8535241448077716
-608.2185246944427,2920.0,-2212.0,15912.0,-288.0,463.0,610.0,0.410499895537875,-0.04735866195944528,-0.3409368498663364,-0.8443986364887286
-608.2341644763947,3056.0,-1724.0,15832.0,-216.0,395.0,536.0,0.4600688894462547,-0.0419073109463241,-0.3078227116533895,-0.8317605258987061
-608.2498052120209,3152.0,-1432.0,16056.0,-39.0,425.0,442.0,0.5027737995042408,-0.02451996946832588,-0.28563581196349275,-0.8154933847391393
-608.2654027938843,3484.0,-1208.0,16168.0,71.0,377.0,401.0,0.5402994935295127,-0.004652373721715702,-0.2727048017723011,-0.7960445363174321
-608.2809977531433,3560.0,-1056.0,16228.0,7.0,208.0,222.0,0.5605471143982056,0.004728180228783836,-0.2629413522447935,-0.7852556412603786
-608.2966487407684,3504.0,-1096.0,16132.0,-18.0,-13.0,-237.0,0.5439644914163722,0.008264819701129331,-0.2619347663077411,-0.7971351849170534
-608.3122560977936,3468.0,-1240.0,16400.0,-67.0,-224.0,-154.0,0.5280869229463373,-0.007107981534666553,-0.2674631197958312,-0.8059386812659216
-608.3279075622559,3468.0,-1464.0,16456.0,-66.0,-130.0,-316.0,0.5026189896413723,-0.012026243067511894,-0.2686249431140382,-0.821626533570178
-608.3434789180756,3524.0,-1592.0,16472.0,-68.0,66.0,-485.0,0.4689458192044808,0.0009831195110704173,-0.2608591096324382,-0.8438254422855695
-608.3590953350067,3216.0,-1632.0,16284.0,-77.0,124.0,-493.0,0.4350906848014618,0.01805332713887373,-0.24955955688470524,-0.8649220779617788
-608.3746783733368,3184.0,-1528.0,15900.0,-78.0,3.0,-742.0,0.3785225293369597,0.03127674564109172,-0.24162309345324937,-0.8929505813182133
-608.3902666568756,3204.0,-1528.0,15916.0,-120.0,272.0,-805.0,0.3210022170571023,0.06515609104290208,-0.2202218759689898,-0.9188115072141472
-608.405853509903,3036.0,-1700.0,15688.0,-114.0,42.0,-895.0,0.24995451019890788,0.08210260083123078,-0.20394678987843332,-0.9429674504807968
-608.4215316772461,3112.0,-1816.0,15812.0,-115.0,-99.0,-1054.0,0.16161148282233267,0.08963132748465719,-0.1880530307659046,-0.9646159916635545
-608.4371635913849,3324.0,-1652.0,15732.0,-108.0,-297.0,-1174.0,0.05844408346284085,0.0817102226855676,-0.17277727066838133,-0.9798243431132175
-608.4527599811554,3272.0,-1660.0,15896.0,-63.0,-404.0,-1077.0,-0.03908268753109671,0.0625661902844657,-0.1607309672533936,-0.9842375584859699
-608.468332529068,3348.0,-1804.0,16236.0,43.0,-479.0,-887.0,-0.1217460131009308,0.033401610265880725,-0.15709315610015634,-0.9794814858036707
-608.4840023517609,3140.0,-2104.0,16548.0,120.0,-586.0,-523.0,-0.1744111588575617,-0.010914860067117149,-0.1589429212893341,-0.9716989046343987
-608.499575138092,3052.0,-2360.0,16876.0,3.0,-359.0,-166.0,-0.19334190370382576,-0.03916279159292877,-0.1534990314773564,-0.9682578331014643
-608.5151743888855,3180.0,-2448.0,16520.0,441.0,-77.0,66.0,-0.1871336520334677,-0.05400760570401925,-0.18878777291654494,-0.9625088839070252
-608.5307967662811,3304.0,-2360.0,16448.0,611.0,138.0,356.0,-0.15176419444636394,-0.058182801007149114,-0.2399195432557796,-0.9570898618807676
-608.5464441776276,3304.0,-2176.0,16228.0,677.0,285.0,685.0,-0.08479955928796662,-0.05750009399089902,-0.2953551402375016,-0.9498779474600355
-608.5620384216309,3208.0,-2104.0,16088.0,646.0,9.0,865.0,-0.009550398458148816,-0.08349641549404349,-0.3428575159019106,-0.9356205760234795
-608.5776388645172,3216.0,-1972.0,15840.0,715.0,285.0,1103.0,0.09365016464562405,-0.09320375848602593,-0.3905210383666352,-0.9110631288000689
-608.5932157039642,3116.0,-1972.0,15680.0,831.0,507.0,1193.0,0.210708792995767,-0.08599870943498608,-0.43858682281088096,-0.8693949766282532
-608.6088101863861,3528.0,-1912.0,15736.0,1019.0,242.0,1196.0,0.31541883698849854,-0.09380461411872748,-0.49751515968875476,-0.8026146756213299
-608.6244156360626,3836.0,-1888.0,15796.0,1267.0,93.0,1176.0,0.40766807247236464,-0.10233777741389832,-0.5674687567645773,-0.7080345557221872
-608.6400907039642,4016.0,-1768.0,16204.0,1408.0,-40.0,1323.0,0.4931522721642464,-0.11858171193923342,-0.634971953720274,-0.5827090457865397
-608.6557402610779,4168.0,-1468.0,16376.0,1632.0,-170.0,1479.0,0.5655334357299479,-0.13644679344623764,-0.6970264192780622,-0.41917583000230796
-608.6713516712189,4148.0,-1584.0,16740.0,1724.0,-198.0,1616.0,0.6201116911449037,-0.15365270058047928,-0.7349507252642822,-0.22737583324363836
-608.6869518756866,3928.0,-1432.0,16920.0,1613.0,-192.0,1721.0,0.6499717328618292,-0.17682006270109663,-0.7385861990891679,-0.027601420651607908
-608.7026360034943,3556.0,-1236.0,16772.0,1451.0,-128.0,1696.0,0.6559348694095504,-0.20034930495896405,-0.709685157381612,0.16111046051505473
-608.7182433605194,3408.0,-988.0,16344.0,1346.0,-35.0,1714.0,0.6417924847909191,-0.2249015816677942,-0.6510043528828621,0.33721657366859725
-608.7338395118713,3244.0,-708.0,16264.0,1150.0,-26.0,1634.0,0.605746367902353,-0.2487556208839819,-0.5776959408822648,0.4872980389247291
-608.7494370937347,3240.0,-736.0,15896.0,911.0,-44.0,1571.0,0.5497108144170609,-0.27442823545989786,-0.500779655714978,0.609694104053243
-608.7650382518768,3076.0,-884.0,16044.0,700.0,-68.0,1394.0,0.4849218648359811,-0.2953200766991264,-0.42929854434195613,0.7023813758409988
-608.7806940078735,2972.0,-1180.0,15700.0,563.0,-123.0,1268.0,0.41411487847824835,-0.30905284624893065,-0.36449052590921593,0.77468823546689
-608.796314239502,2904.0,-1392.0,15732.0,480.0,-229.0,1157.0,0.3395206253398931,-0.3109494436075591,-0.3070886192787498,0.8329062182493466
-608.8119328022003,3140.0,-1332.0,15900.0,494.0,-287.0,1218.0,0.25499534917132116,-0.30580139049139415,-0.2448315077510252,0.8840364326694266
-608.8275184631348,3328.0,-1152.0,16156.0,419.0,-119.0,1050.0,0.1817732943809967,-0.30800471774669486,-0.18611561651857492,0.9151243306696467
-608.8430862426758,3476.0,-1136.0,16640.0,501.0,82.0,1361.0,0.08720578977200794,-0.3258729145552447,-0.10727830699118927,0.9352504256286734
-608.8586866855621,3624.0,-1244.0,16828.0,603.0,423.0,1367.0,-0.003217718384112704,-0.36503246796613364,-0.015778066924605892,0.930855518446916
-608.8742859363556,3496.0,-912.0,16608.0,790.0,548.0,1452.0,-0.09417918102832572,-0.4068729356262241,0.09343858094164395,0.9037997165895463
-608.8898828029633,3488.0,-840.0,16472.0,842.0,675.0,1781.0,-0.20690921569120319,-0.4450239766420919,0.21401939821236798,0.8445933541441857
-608.9055364131927,3456.0,-544.0,16260.0,800.0,582.0,1412.0,-0.2876046499674348,-0.47053559466659245,0.31374761033677523,0.7729438896044322
-608.9212481975555,3156.0,-732.0,16040.0,649.0,297.0,1380.0,-0.358958400699378,-0.4646838512024942,0.40300654088732807,0.7019996531345248
-608.936874628067,3268.0,-812.0,15940.0,672.0,-38.0,1319.0,-0.4078621695984006,-0.4332917551661894,0.4946948522514453,0.6333906446036358
-608.9525260925293,3084.0,-916.0,15980.0,730.0,-236.0,1387.0,-0.44260546105668297,-0.38260182513884544,0.5902242493929393,0.556193837319119
-608.9681377410889,3088.0,-992.0,15976.0,697.0,-369.0,1496.0,-0.46795828868676925,-0.31109582231232197,0.6808347050238628,0.46978562539124213
-608.9837503433228,2844.0,-932.0,16232.0,602.0,-241.0,1477.0,-0.49307825927592047,-0.23564792205886284,0.7480273534089615,0.37656203421315976
-608.9994232654572,3012.0,-972.0,16368.0,466.0,-125.0,1520.0,-0.5203658490707423,-0.15085309569874836,0.7922850010646707,0.2806193217277537
-609.0150105953217,2996.0,-836.0,16540.0,491.0,-3.0,1541.0,-0.5461181304704203,-0.0658287839741075,0.8165763294887081,0.1749990196850606
-609.030633687973,2956.0,-856.0,16568.0,617.0,72.0,1679.0,-0.5665726821211208,0.023072652430578475,0.8221712613710591,0.04997464916754082
-609.0462176799774,2924.0,-956.0,16572.0,702.0,84.0,1789.0,-0.5738823441545629,0.11477885853338544,0.806120342439875,-0.08749206938949142
-609.0618050098419,2676.0,-1156.0,16444.0,824.0,200.0,1851.0,-0.5731885390246116,0.20210325018439854,0.759289007415679,-0.23257123255778397
-609.0773935317993,2764.0,-1276.0,16256.0,894.0,283.0,1857.0,-0.5609370432591778,0.28156851199322214,0.6829639110343328,-0.3736697777159159
-609.0929808616638,2700.0,-1468.0,16204.0,880.0,35.0,1886.0,-0.514797350252601,0.3463402143708999,0.5963339234692202,-0.5093309295558498
-609.1086945533752,2752.0,-1440.0,16276.0,774.0,-273.0,1973.0,-0.4289541930700196,0.39523374829478963,0.5057230836842876,-0.6356357031235378
-609.1243073940277,2764.0,-1112.0,16492.0,580.0,-523.0,2122.0,-0.3023790431548302,0.42978127259200244,0.41187826549751333,-0.74445366974764
-609.1399357318878,2696.0,-968.0,16656.0,475.0,-582.0,2291.0,-0.14722976408492008,0.4517689902816525,0.303687650345877,-0.8258341159184425
-609.1555364131927,2648.0,-1012.0,16712.0,506.0,-163.0,2419.0,0.01121943394355944,0.4862540061547394,0.1699186233121317,-0.8570640741812497
-609.1711211204529,2776.0,-816.0,17076.0,528.0,454.0,2460.0,0.16211708457272614,0.5436813526873772,0.025773832697891026,-0.8230822238256179
-609.1867272853851,2744.0,-544.0,16684.0,708.0,1035.0,2255.0,0.2811839297311375,0.6175150446793192,-0.11460227236031514,-0.7255874078465704
-609.202347278595,2888.0,-496.0,16136.0,866.0,1886.0,2181.0,0.378704591490652,0.7121183870158786,-0.23281100278126324,-0.5433868532102928
-609.2179927825928,2864.0,-700.0,16512.0,996.0,1888.0,2122.0,0.44091904436274487,0.7654277564749637,-0.33806624753912295,-0.3246874777547848
-609.2335667610168,2688.0,-872.0,16868.0,951.0,1932.0,2245.0,0.48068985854709295,0.7628648617594627,-0.42525273909293426,-0.07832349887899592
-609.2491636276245,2304.0,-752.0,16960.0,928.0,2140.0,2346.0,0.4942515325830269,0.7006720028460542,-0.47846052504257064,0.18934015142862812
-609.2647521495819,1972.0,-692.0,17404.0,1017.0,2451.0,2595.0,0.4676641221832693,0.5666013951287533,-0.4895373802142415,0.469687429290672
-609.2803332805634,1980.0,-816.0,17700.0,1367.0,2735.0,3030.0,0.3676553286602459,0.35637661230261214,-0.44149067682877213,0.736825116146778
-609.2959654331207,2428.0,-1300.0,17396.0,1843.0,3049.0,3432.0,0.19015602797057474,0.07991773087538417,-0.30454253576490536,0.9298965992130873
-609.3115782737732,2720.0,-1496.0,17248.0,2358.0,3350.0,3831.0,-0.043240148676900535,-0.22873444854221792,-0.07545651018489997,0.9695963885365925
-609.3272149562836,2900.0,-1280.0,17044.0,2707.0,3867.0,4134.0,-0.2750427408977662,-0.5202741470659931,0.19437417797369236,0.7847833978310506
-609.3428001403809,3040.0,-768.0,16432.0,3123.0,3672.0,4381.0,-0.43091461578532186,-0.6714127214704744,0.45125573918449374,0.39985723602713014
-609.3584318161011,3284.0,32.0,15696.0,3454.0,3198.0,4459.0,-0.44399550297724283,-0.6416262988356045,0.6203767627284571,-0.07947551978482502
-609.3740293979645,3228.0,784.0,15316.0,3374.0,2452.0,4577.0,-0.3132906280970816,-0.44643197355530134,0.6670444347355018,-0.5075423109677161
-609.3896279335022,3308.0,1520.0,14980.0,3064.0,1586.0,4061.0,-0.09645472307842531,-0.20261239905087566,0.5858216990326599,-0.7787539014921213
-609.4052231311798,3412.0,2092.0,14648.0,2109.0,1013.0,3746.0,0.1340289681390972,0.037377223525717956,0.46655916475360343,-0.873476802580067
-609.4208655357361,3668.0,2072.0,14864.0,1442.0,167.0,3338.0,0.3593134444710305,0.19333553506840445,0.3311729411249913,-0.8507876953557805
-609.4364907741547,3456.0,1896.0,15224.0,807.0,-69.0,2793.0,0.5380666000224652,0.2850901897218789,0.21493574996837453,-0.7635512694312936
-609.4520936012268,3284.0,1556.0,15588.0,364.0,-160.0,2322.0,0.6727434570307332,0.32804256252085456,0.12264861511274294,-0.6517373975828112
-609.4676735401154,2980.0,1084.0,15748.0,240.0,-88.0,1913.0,0.7649317263663566,0.3524299274611577,0.048246538785840766,-0.536977533722869
-609.4832878112793,2760.0,568.0,16268.0,438.0,204.0,1690.0,0.8203000571604304,0.3935176727710919,-0.01060563240573141,-0.41489658711622696
-609.4988803863525,2568.0,276.0,16396.0,472.0,642.0,1726.0,0.8555931337084756,0.4426887931118906,-0.040501543100699894,-0.26522942334988087
-609.5144627094269,2356.0,248.0,16272.0,447.0,984.0,1868.0,0.8698581851754287,0.4835385805904106,-0.04870616871147237,-0.08464566080650829
-609.5300483703613,1880.0,664.0,15892.0,188.0,1123.0,1942.0,0.86462039852947,0.48832129719006145,-0.04592397696555183,0.10892596337432002
-609.5456583499908,1400.0,880.0,15952.0,-99.0,1176.0,2026.0,0.8370401769598314,0.4519808560073864,-0.04356467144202194,0.3052526287520434
-609.5613281726837,968.0,1244.0,16036.0,-352.0,1113.0,1592.0,0.8010219821970714,0.3846702734357726,-0.033917815968739856,0.45742993619988753
-609.5769321918488,820.0,1028.0,16020.0,-415.0,1034.0,1462.0,0.7501204895049715,0.3058895633687492,-0.0269175816491563,0.585684445794029
-609.5925087928772,692.0,880.0,16060.0,-283.0,883.0,1479.0,0.676393666731717,0.2357586961001924,-0.022770612656533254,0.6974173384836416
-609.6081364154816,760.0,752.0,16408.0,-119.0,864.0,1789.0,0.5632672612659069,0.1697543529171046,-0.015553888697132456,0.8084995538638824
-609.6237623691559,760.0,128.0,16548.0,6.0,933.0,1659.0,0.44135193630544683,0.10027879347275881,0.006084499007314143,0.8916925539505814
-609.6393637657166,680.0,-24.0,16600.0,116.0,848.0,2021.0,0.2775719579533053,0.03880640798299331,0.029490231833013258,0.9594676633862452
-609.6549401283264,792.0,-288.0,16740.0,257.0,716.0,2380.0,0.0738387606574039,-0.008716408827201916,0.058612777754267625,0.9955081134404001
-609.6705746650696,976.0,-468.0,16608.0,401.0,817.0,2595.0,-0.15119713569475363,-0.061935029682838864,0.09762580435068112,0.9817192473313187
-609.6861639022827,832.0,172.0,16464.0,386.0,985.0,2864.0,-0.3893204231024441,-0.12252365255240792,0.12847167958884173,0.9038321693014543
-609.7018036842346,760.0,636.0,16616.0,318.0,980.0,2992.0,-0.6101242823060047,-0.17046197774203328,0.14658393035646303,0.7597395775172626
-609.717381477356,596.0,1068.0,16696.0,217.0,892.0,2817.0,-0.7795135673551713,-0.198358997993634,0.1502788913448183,0.5748291581333957
-609.7329640388489,612.0,1324.0,16868.0,78.0,833.0,2827.0,-0.9016139464300222,-0.20157104172629497,0.14169360626382996,0.3555057364997194
-609.7485661506653,604.0,1480.0,16748.0,-67.0,1000.0,2938.0,-0.9713607393899557,-0.1841138774361537,0.10854067681310116,0.10382348281664183
-609.7641623020172,596.0,1488.0,16436.0,-228.0,1099.0,2697.0,-0.9786158659247215,-0.14432158982738252,0.0547359504721895,-0.13596411804594088
-609.7798161506653,308.0,1208.0,16064.0,-389.0,1094.0,2372.0,-0.9360791195500335,-0.08429155451311217,-0.004231263261210715,-0.34151561046519013
-609.7954559326172,136.0,1108.0,15792.0,-413.0,947.0,2145.0,-0.8565523011271667,-0.02231911680644872,-0.05240968998161573,-0.5129066551086723
-609.8111174106598,-180.0,1112.0,15704.0,-281.0,914.0,2006.0,-0.7491914808703987,0.02981177562906243,-0.10202441124499116,-0.6537693802367733
-609.8267138004303,-512.0,1020.0,15616.0,-716.0,771.0,1815.0,-0.6265204664611552,0.10257910809180458,-0.1141388617940357,-0.7641478599830982
-609.8423051834106,-320.0,1216.0,15580.0,-1053.0,587.0,1610.0,-0.4963126125276115,0.1802503736039682,-0.08889648542922057,-0.8445596535118045
-609.8579776287079,-408.0,1596.0,15148.0,-1403.0,508.0,1340.0,-0.3659862764354382,0.2637716923606655,-0.028085294877958092,-0.892014437092658
-609.8735673427582,-336.0,1740.0,14828.0,-1727.0,-235.0,1058.0,-0.24066690848505032,0.2931677406539173,0.08810363236302628,-0.9210699566072963
-609.8891820907593,76.0,1756.0,15176.0,-2012.0,-434.0,745.0,-0.12372665344340275,0.30060011361432426,0.23553868579425866,-0.9158890841237627
-609.9047646522522,472.0,1768.0,15568.0,-2264.0,-412.0,-157.0,-0.0670671141488955,0.2830427715095556,0.41659629418556476,-0.8612992043226227
-609.9204256534576,504.0,1744.0,15724.0,-2402.0,-308.0,-529.0,-0.03547864615151276,0.24886420690223812,0.5980832953766152,-0.7609889907098686
-609.9360618591309,352.0,2032.0,15888.0,-2363.0,-397.0,-1363.0,-0.052466641509042636,0.15420961356555804,0.7639918301915161,-0.6243261407416326
