programtime,ax,ay,az,gx,gy,gz,q0,q1,q2,q3
-73.1673891544342,4436.0,10912.0,11648.0,-53.0,42.0,-362.0,0.9994858205539413,-0.004317196906993466,0.003539094201119461,-0.031574216296150925
-73.17516016960144,4380.0,10932.0,11664.0,-57.0,-19.0,-348.0,0.9980405843659573,-0.009142459541493635,0.001773762479987868,-0.06187294367213497
-73.18293070793152,4328.0,10932.0,11600.0,-28.0,5.0,-341.0,0.9957360351229745,-0.011302628101092397,0.001948609336220433,-0.0915325181410498
-73.19069647789001,4344.0,10908.0,11620.0,-49.0,-53.0,-351.0,0.9924120147818655,-0.01574084165972402,-0.002757973379755965,-0.1219139549160727
-73.19845628738403,4308.0,10880.0,11604.0,-50.0,-39.0,-339.0,0.9882842615039366,-0.02010279382007907,-0.0062188569546275775,-0.15116686793879033
-73.20623445510864,4284.0,10896.0,11280.0,-43.0,-98.0,-334.0,0.9832929848405297,-0.024621577689505868,-0.014840065173214163,-0.17974553218685635
-73.21399402618408,4268.0,10764.0,11568.0,-68.0,-125.0,-262.0,0.9785475253128999,-0.03177938526691754,-0.02521471052928472,-0.20198769702380576
-73.22181487083435,4228.0,10828.0,11552.0,-38.0,-145.0,-264.0,0.9731299114427262,-0.03669767147577531,-0.0378047657316571,-0.22414784418258937
-73.22959113121033,4212.0,10876.0,11276.0,-25.0,-183.0,-206.0,0.9681338969897596,-0.041419331168342094,-0.05365809117245833,-0.2410850591735558
-73.23741912841797,4188.0,10856.0,11552.0,-22.0,-223.0,-154.0,0.963496038082206,-0.046943376117696056,-0.0727237695646964,-0.2533435560239609
-73.24525761604309,4148.0,10848.0,11628.0,-4.0,-250.0,-154.0,0.9581680080220093,-0.05151647894828865,-0.09439821315302387,-0.2652340441071271
-73.25304317474365,4188.0,10816.0,11528.0,46.0,-305.0,-114.0,0.9528213605676035,-0.053469291544657,-0.12156261264339686,-0.2729377601489481
-73.26083111763,4244.0,10840.0,11440.0,55.0,-362.0,-88.0,0.9466169114048972,-0.056250821110321814,-0.15342211117418036,-0.2778739353907186
-73.26860046386719,4184.0,10812.0,11472.0,95.0,-404.0,-60.0,0.9395738669517661,-0.05704846953110045,-0.1893671964908371,-0.27943959196696644
-73.2763831615448,4192.0,10860.0,11272.0,109.0,-417.0,-33.0,0.9317398391410512,-0.05738012917052538,-0.22629743488100232,-0.2781328170138514
-73.28416204452515,4232.0,10884.0,11476.0,116.0,-477.0,-26.0,0.9214058396729924,-0.05864228211914453,-0.2678305341111591,-0.2753891180894731
-73.29194283485413,4324.0,10868.0,11612.0,145.0,-533.0,26.0,0.9092457211930997,-0.06001646251887781,-0.3136920748220022,-0.26695978145149085
-73.29971718788147,4364.0,10952.0,11636.0,190.0,-577.0,-41.0,0.8922280405338493,-0.05687584480279375,-0.363586732478331,-0.26172304050050077
-73.30749154090881,4416.0,11004.0,11752.0,208.0,-598.0,60.0,0.8743210129074697,-0.05587166838176746,-0.41391380768001557,-0.2472174809201916
-73.31526803970337,4516.0,11044.0,11744.0,238.0,-642.0,-254.0,0.845115830224076,-0.04204305640815546,-0.4682440104908144,-0.2544782142974319
-73.32304668426514,4552.0,10752.0,11440.0,216.0,-620.0,8.0,0.819441742774126,-0.03991880651071888,-0.5177903361738004,-0.2425178072865689
-73.33080339431763,4536.0,11024.0,11464.0,255.0,-591.0,56.0,0.7935963219490024,-0.036471172333091814,-0.564254743182226,-0.224702728452561
-73.33866024017334,4572.0,11064.0,11572.0,179.0,-533.0,-4.0,0.7669762955936027,-0.034125962202693795,-0.6038564814164099,-0.21433648908351563
-73.34644484519958,4580.0,10772.0,11580.0,168.0,-486.0,-7.0,0.7410542798787313,-0.03143424295341338,-0.6387984369579562,-0.20441868697218654
-73.3542230129242,4832.0,10952.0,11700.0,173.0,-436.0,-69.0,0.7154494578307011,-0.024036016017064763,-0.6695930276730702,-0.1979886878470443
-73.361989736557,4520.0,11036.0,11616.0,159.0,-382.0,-74.0,0.6917886236256127,-0.01626709292914533,-0.6957779499264695,-0.19250175663077662
-73.36980128288269,4556.0,10912.0,11644.0,133.0,-332.0,-37.0,0.6709418465277975,-0.01146992952599406,-0.7176574885628346,-0.1862074338049459
-73.37757444381714,4464.0,10928.0,11640.0,136.0,-395.0,-9.0,0.6458399021636605,-0.009272396169790786,-0.7424204412802289,-0.17781094401575467
-73.38534617424011,4480.0,10864.0,11680.0,152.0,-306.0,33.0,0.6264465743361805,-0.007514514106396686,-0.761571231768584,-0.16588393690376052
-73.39311051368713,4472.0,10880.0,11696.0,162.0,-373.0,41.0,0.6020516933462104,-0.006710847518266266,-0.783703761270993,-0.1526339989459941
-73.40088558197021,4484.0,10888.0,11704.0,151.0,-366.0,86.0,0.5779714552313658,-0.009468035266518269,-0.8043195795202758,-0.13758403703284722
-73.40868020057678,4484.0,10840.0,11652.0,198.0,-356.0,119.0,0.5542742568917471,-0.012044933618428934,-0.8239247887205974,-0.11740063991711411
-73.41644215583801,4460.0,10828.0,11672.0,216.0,-399.0,175.0,0.5272082212778695,-0.01820172029968908,-0.8444367552119644,-0.09298793062675387
-73.42421436309814,4508.0,10912.0,11644.0,240.0,-357.0,193.0,0.5024991373187802,-0.02421302281447624,-0.8617239041154966,-0.06588064659681118
-73.43197894096375,4500.0,10884.0,11636.0,239.0,-373.0,214.0,0.4758213989054017,-0.03189857382020399,-0.8781511365630862,-0.03777643028269452
-73.439777135849,4548.0,10996.0,11652.0,222.0,-362.0,154.0,0.4489297210485989,-0.03560759359207598,-0.8927564157936584,-0.013423371300432264
-73.44754600524902,4516.0,11212.0,11680.0,232.0,-300.0,114.0,0.42622834031085777,-0.03569182928323105,-0.9038561819954244,0.009974843704167336
-73.45532822608948,4568.0,11232.0,11548.0,224.0,-336.0,125.0,0.40011113431896034,-0.03686622902167881,-0.91512092619998,0.03325134256848862
-73.46309924125671,4620.0,11060.0,11340.0,186.0,-287.0,67.0,0.37748860590504074,-0.034839239281913605,-0.9239365659244033,0.05128159480697758
-73.47087836265564,4668.0,11040.0,11588.0,188.0,-282.0,52.0,0.35499733112660314,-0.031530786270761384,-0.9317899771983302,0.06892127975358184
-73.47865128517151,4812.0,11076.0,11608.0,145.0,-261.0,49.0,0.3338272569671486,-0.02941353874818616,-0.9385243150652113,0.0828632383839452
-73.48642230033875,4756.0,11100.0,11492.0,175.0,-505.0,21.0,0.29250231156463397,-0.02232984482460652,-0.9508700997939602,0.09894356511304311
-73.49418759346008,4756.0,11080.0,11392.0,156.0,-224.0,-24.0,0.2744069321578079,-0.014391769834974383,-0.9550039258761746,0.11162980832130558
-73.50200414657593,4876.0,11088.0,11748.0,120.0,-139.0,-12.0,0.2631164031829013,-0.009139061404775904,-0.957044916866051,0.12145477773058641
-73.50980281829834,4824.0,11172.0,11636.0,77.0,-146.0,-81.0,0.25186895949108423,0.0009660402446771962,-0.959513111626272,0.12607808147490768
-73.51758670806885,4792.0,11068.0,11620.0,100.0,-53.0,-121.0,0.24878836005108818,0.013902178586485367,-0.9594576215987535,0.13172757376382072
-73.52535629272461,4772.0,11124.0,11452.0,41.0,-18.0,-126.0,0.24872471561210513,0.02557170032622539,-0.9591488330947642,0.13234659028118428
-73.53317618370056,4796.0,11016.0,11520.0,14.0,11.0,-100.0,0.25082260482257857,0.03414051337871035,-0.958476606480312,0.13132037574664457
-73.54096269607544,4772.0,11028.0,11472.0,-5.0,31.0,-157.0,0.25526938558231715,0.04682774459808557,-0.9572821406016361,0.12749747607475287
-73.54874300956726,4648.0,10764.0,11676.0,240.0,86.0,-139.0,0.2630017992593722,0.06283407778542228,-0.9518084619531236,0.1447155278801047
-73.5565242767334,4704.0,11248.0,11284.0,-250.0,104.0,-116.0,0.2744549330271499,0.0654190704118752,-0.951613529644557,0.12176421954308403
-73.5642991065979,4620.0,11000.0,11740.0,-4.0,107.0,-146.0,0.2849496614851412,0.07632573416810243,-0.9481243775316202,0.11848306821432983
-73.57207441329956,4572.0,10900.0,11492.0,-34.0,134.0,-112.0,0.29745836156943606,0.0833754860972542,-0.9442649081074299,0.11371382839101027
-73.5798647403717,4564.0,10836.0,11492.0,-27.0,89.0,-83.0,0.30586791321243323,0.08864953918978635,-0.9415426190578926,0.10992531722089267
-73.5876235961914,4624.0,10820.0,11480.0,56.0,58.0,-73.0,0.3109609712135205,0.09560653445311795,-0.9388289285412761,0.11297304052670389
-73.59543347358704,4576.0,10812.0,11380.0,50.0,24.0,-30.0,0.3128756231181955,0.09920737650463188,-0.9373988012847724,0.11640544770474014
-73.60323405265808,4552.0,10828.0,11384.0,70.0,238.0,-3.0,0.3317714260652853,0.09894630398618964,-0.929920858011045,0.12403446138102658
-73.61100316047668,4796.0,10832.0,11488.0,85.0,-74.0,70.0,0.3243287146865894,0.09654552559795876,-0.9316628134297252,0.1322658247204004
-73.61877083778381,4860.0,10848.0,11512.0,107.0,-80.0,25.0,0.31668724004970883,0.09848335010261988,-0.9328154569192726,0.14094518464549186
-73.62654209136963,4856.0,10868.0,11460.0,96.0,-158.0,75.0,0.30210457742958463,0.09698414330364069,-0.9364847196242151,0.1494097391541334
-73.63430094718933,4608.0,10892.0,11444.0,137.0,-183.0,103.0,0.28464715840815663,0.09456508343189703,-0.940153387849491,0.16169430268505078
-73.64207577705383,4644.0,10948.0,11504.0,128.0,-190.0,104.0,0.2665370254127691,0.09189332823585464,-0.9436836566641511,0.1731322802218787
-73.64988493919373,4664.0,10976.0,11416.0,163.0,-211.0,118.0,0.24605445973185575,0.08914796338642189,-0.946756939593075,0.187513041686364
-73.65766048431396,4676.0,10976.0,11500.0,143.0,-147.0,119.0,0.23086225274521166,0.08479422016059635,-0.9482859641197996,0.2006646225375677
-73.66543889045715,4732.0,10972.0,11552.0,155.0,-143.0,136.0,0.2155084561328627,0.07916682087587132,-0.949222685476412,0.21509303378907088
-73.67321014404297,4652.0,10960.0,11284.0,136.0,-99.0,142.0,0.20372403346254933,0.07182532421462734,-0.949330211871703,0.22827568819048877
-73.68098711967468,4752.0,11040.0,11520.0,132.0,-47.0,105.0,0.19694686073833392,0.06642041395328994,-0.9480765284629737,0.24073046926632513
-73.68875455856323,4756.0,10996.0,11460.0,136.0,-13.0,126.0,0.19246900659977673,0.0586163185866168,-0.9460418836902634,0.2540168557352552
-73.696533203125,4748.0,11028.0,11516.0,194.0,-253.0,140.0,0.16745956460071923,0.055918687232810065,-0.9462654482065886,0.2709466666565221
-73.70429372787476,4716.0,11056.0,11528.0,187.0,19.0,135.0,0.16494433119350152,0.04706093414317846,-0.94202737431227,0.2883800654189369
-73.71206831932068,4744.0,11072.0,11568.0,195.0,-7.0,125.0,0.16044218235424407,0.03977702507219524,-0.9375366977232601,0.306106247600368
-73.71988344192505,4716.0,11084.0,11364.0,204.0,-5.0,171.0,0.15476678329314827,0.02878496199889091,-0.9324935035139706,0.3250761982305911
-73.72766160964966,4796.0,11044.0,11460.0,198.0,13.0,198.0,0.14971621956123554,0.01498910262738091,-0.9269148120994098,0.34378672387605874
-73.73542642593384,4712.0,11084.0,11408.0,220.0,-5.0,149.0,0.1445636879147535,0.0059765805717890055,-0.9203206117096021,0.3634220580586965
-73.74325037002563,4656.0,10812.0,11336.0,210.0,-64.0,179.0,0.13364213739420105,-0.0037023440414132892,-0.9142747204650924,0.382397446748518
-73.75102424621582,4620.0,11012.0,11420.0,212.0,-112.0,162.0,0.11937259194723258,-0.010396795580709852,-0.9081571095564224,0.40111439178316277
-73.75879859924316,4728.0,11040.0,11380.0,219.0,-80.0,183.0,0.10683029731860896,-0.01979509192679144,-0.9008489909076861,0.4203171867661744
-73.76660466194153,4628.0,11024.0,11292.0,213.0,-76.0,151.0,0.0956961398888382,-0.02686818547032094,-0.8932232262943568,0.4384890163142156
-73.7743649482727,4732.0,10992.0,11432.0,218.0,-60.0,156.0,0.08557307309667506,-0.03488544887967998,-0.8847514530393173,0.4568097207394683
-73.78214597702026,4692.0,11060.0,11472.0,195.0,-53.0,145.0,0.0763108851163355,-0.04248577267102087,-0.8767135566417448,0.47301685755783585
-73.78994727134705,4636.0,11064.0,11460.0,175.0,-85.0,147.0,0.06440543664454158,-0.04903124827802985,-0.8693006680338093,0.4876107309923529
-73.79771494865417,4568.0,11076.0,11464.0,225.0,-49.0,144.0,0.055537494833342076,-0.056574638394317964,-0.8591285889255416,0.5055818080676918
-73.80543804168701,4652.0,11040.0,11272.0,214.0,-50.0,129.0,0.04717064001292731,-0.06297166679337157,-0.8490647465007377,0.5223969335205495
-73.8132050037384,4700.0,11108.0,11444.0,225.0,-26.0,133.0,0.0404339486846544,-0.07068092762458417,-0.8379430412436475,0.5396487393622279
-73.820974111557,4724.0,11076.0,11592.0,184.0,-45.0,106.0,0.033305722032368125,-0.07563371063576367,-0.82861135770526,0.5536907878746169
-73.82872891426086,4680.0,11108.0,11280.0,172.0,5.0,78.0,0.03105476131552696,-0.08098823727766231,-0.81963549876832,0.5662809871266208
-73.83651351928711,4736.0,11104.0,11736.0,157.0,31.0,67.0,0.031092283881204635,-0.08686052399242745,-0.8111990216850643,0.577446678466511
-73.84431409835815,4684.0,11060.0,11440.0,139.0,25.0,30.0,0.03242647217817009,-0.08984176069393408,-0.8038068790823503,0.5871724474780677
-73.85208892822266,4628.0,11112.0,11280.0,125.0,83.0,0.0,0.03925187071784978,-0.09371480517103536,-0.7970686107366152,0.5952801489343538
-73.85988163948059,4612.0,11124.0,11548.0,114.0,88.0,-61.0,0.04949776401803977,-0.09362376185710815,-0.7912380310152516,0.602268163568394
-73.86765623092651,4608.0,11172.0,11568.0,111.0,82.0,-58.0,0.05913976852735948,-0.09341969093505072,-0.7854228058891102,0.6090043227378663
-73.87542009353638,4628.0,11096.0,11724.0,55.0,94.0,-63.0,0.06940681945909737,-0.09378505258251893,-0.7824459067523825,0.6116906573841948
-73.88322734832764,4636.0,11100.0,11424.0,90.0,67.0,-146.0,0.08253585939350429,-0.0868096616282748,-0.7782942746173405,0.6163683449529413
-73.89101028442383,4532.0,11168.0,11416.0,36.0,44.0,-167.0,0.09480518561296143,-0.0775370187481904,-0.7771774027417269,0.6172481447296203
-73.89877533912659,4568.0,11144.0,11432.0,27.0,42.0,-170.0,0.10702050689939349,-0.06800818450820095,-0.7763954311843961,0.6173585930226378
-73.90658831596375,4512.0,11212.0,11400.0,13.0,15.0,-174.0,0.1175163106828962,-0.056867599488927875,-0.7764588933574547,0.6164962122981493
-73.91435956954956,4532.0,11148.0,11440.0,-35.0,20.0,-215.0,0.13028641981523395,-0.04369297430625641,-0.7790235161056785,0.6117505489677529
-73.9221441745758,4448.0,11212.0,11436.0,-54.0,25.0,-227.0,0.1439168713494608,-0.03016895066641341,-0.7822854495028685,0.605315821743299
-73.92994523048401,4460.0,11064.0,11476.0,-25.0,-1.0,-243.0,0.15663507633553028,-0.013801792477135437,-0.7840409194567649,0.6004621553463393
-73.93773198127747,4440.0,11088.0,11448.0,-55.0,-38.0,-221.0,0.16556953545763173,0.002595250456746545,-0.787509620356689,0.5936401194739742
-73.94554209709167,4444.0,11108.0,11472.0,-252.0,-34.0,-493.0,0.1886698130000497,0.03459824929511468,-0.7999705774302436,0.5685540766313808
-73.95335841178894,4496.0,11036.0,11444.0,7.0,-68.0,-4.0,0.18415535270770036,0.03840062974353613,-0.8006785590544426,0.5687934974794486
-73.96116185188293,4480.0,10808.0,11764.0,30.0,-107.0,-204.0,0.18672588674337834,0.05847453197460499,-0.8000207630841392,0.5671692436694022
-73.96894550323486,4456.0,11032.0,11468.0,41.0,-68.0,-237.0,0.19351664176171732,0.07907515575073376,-0.7976593726628888,0.5657189711396562
-73.97671556472778,4528.0,11012.0,11276.0,71.0,-23.0,-181.0,0.20039850459634173,0.09403400214709867,-0.793134684635898,0.5673935299448382
-73.98452949523926,4452.0,10996.0,11500.0,87.0,-50.0,-164.0,0.20438253252250474,0.10940572864724096,-0.7881987838529919,0.5700884528487823
-73.99229621887207,4596.0,11236.0,11528.0,85.0,-8.0,-154.0,0.21072744343888072,0.12193694571764821,-0.7825021458313796,0.5730756648297423
-74.0000627040863,4528.0,11012.0,11712.0,84.0,-249.0,-70.0,0.1963411747892283,0.14071537201183043,-0.7818668231163566,0.574746551161374
-74.00786018371582,4540.0,10768.0,11752.0,103.0,25.0,-86.0,0.20115156043571522,0.1471186290670797,-0.7751093588471163,0.5806028251251557
-74.01562786102295,4580.0,10996.0,11288.0,177.0,255.0,-90.0,0.22067676933327654,0.14336990711511394,-0.7601505168085406,0.594069040605669
-74.0234158039093,4856.0,11024.0,11648.0,139.0,25.0,-71.0,0.22433169851625342,0.14948585009623294,-0.751442764362179,0.6022151123556647
-74.0311906337738,4384.0,11108.0,11460.0,108.0,75.0,-59.0,0.23099973617049369,0.151553305759106,-0.7434080631980786,0.6091101451911065
-74.03896164894104,4576.0,11144.0,11448.0,86.0,101.0,-105.0,0.24204956409234635,0.15475304070777132,-0.7352662142186921,0.6138787332551247
-74.0467700958252,4664.0,11164.0,11552.0,102.0,123.0,-139.0,0.2560500673888254,0.15925129880524813,-0.7251326237979854,0.6190800147984661
-74.05452013015747,4632.0,11208.0,11612.0,51.0,125.0,-156.0,0.27172125545734327,0.16352538124672553,-0.7172264490538703,0.6204943430832985
-74.0622832775116,4648.0,11296.0,11460.0,21.0,153.0,-182.0,0.29087996136463334,0.16713807336211994,-0.7096335138168636,0.6195756520209935
-74.07004570960999,4668.0,11068.0,11488.0,8.0,131.0,-230.0,0.31132207616029767,0.17450153600745016,-0.7022524072219417,0.6160108240747646
-74.07784605026245,4668.0,11340.0,11492.0,-102.0,172.0,-19.0,0.32448328874880417,0.16366686456399382,-0.702585150162977,0.6117988718010344
-74.08562016487122,4560.0,11320.0,11480.0,-86.0,185.0,-381.0,0.3572427730104067,0.1746409725954515,-0.6959168032312395,0.5979782059600184
-74.09336304664612,4528.0,11344.0,11280.0,-166.0,199.0,-469.0,0.3960069325099642,0.18741261837242496,-0.6903845970701887,0.5756944745323459
-74.10118579864502,4440.0,11268.0,11436.0,-208.0,244.0,-555.0,0.4414153636103255,0.20114327416796876,-0.6821640118376113,0.5471253247468709
-74.10896801948547,4432.0,11248.0,11492.0,-233.0,289.0,-578.0,0.4895468827708793,0.2124510857213749,-0.6707043233814338,0.5151350272914637
-74.11675071716309,4096.0,11112.0,11544.0,-226.0,254.0,-615.0,0.5353664153171241,0.22700290405336485,-0.6572662481588721,0.479430455783726
-74.12455129623413,4332.0,11056.0,11516.0,-275.0,263.0,-674.0,0.5828962363693111,0.24131765588994897,-0.6415513623915083,0.43635950315751343
-74.13233089447021,4268.0,11104.0,11440.0,-240.0,238.0,-617.0,0.6237230315081641,0.25416918759113877,-0.6242867611043029,0.3957696854932493
-74.14010214805603,4340.0,11016.0,11452.0,-226.0,5.0,-564.0,0.6477035816643745,0.2720990609418752,-0.6183084162084983,0.3523306313385612
-74.14792227745056,4096.0,11072.0,11528.0,-229.0,219.0,-562.0,0.6812850789814325,0.2823511020377134,-0.5985363211709676,0.31286221979407564
-74.1556944847107,4356.0,11136.0,11580.0,-207.0,188.0,-499.0,0.7090717784753154,0.2906649353778363,-0.579842198462685,0.27661188187352304
-74.16347479820251,4324.0,11288.0,11636.0,-186.0,148.0,-426.0,0.7310232444877193,0.29692085071880114,-0.5636993856223611,0.24430723909873026
-74.17127180099487,4384.0,11324.0,11668.0,-222.0,104.0,-455.0,0.7509499968475619,0.302665529581865,-0.5492841445670399,0.20677187421124632
-74.17905044555664,4444.0,11476.0,11520.0,-236.0,149.0,-393.0,0.7708538704175426,0.3031300939303727,-0.5327537428115617,0.17340676496702828
-74.1868155002594,4388.0,11572.0,11768.0,-308.0,121.0,-414.0,0.7901622530555592,0.299554090048718,-0.5175896658984557,0.13420841529640387
-74.1946370601654,4512.0,11520.0,11788.0,-405.0,159.0,-489.0,0.8124440068772686,0.29142378245526857,-0.4975848249917186,0.08611769067174249
-74.20240426063538,4492.0,11772.0,11684.0,-445.0,222.0,-550.0,0.8358860128665406,0.281553610100644,-0.47001622350532507,0.03326992298103614
-74.21019506454468,4484.0,11408.0,11492.0,-541.0,274.0,-672.0,0.8597771123921042,0.268083522691261,-0.4335199253965064,-0.031225248635470028
-74.21799802780151,4468.0,11188.0,11264.0,-642.0,313.0,-739.0,0.8811544777658452,0.24780806955492815,-0.38920040291497277,-0.10334889137036382
-74.2258152961731,4552.0,11032.0,11420.0,-682.0,329.0,-850.0,0.8950434154083826,0.22620045930352128,-0.33746091338661116,-0.1839857839107352
-74.2336037158966,4520.0,10760.0,11352.0,-732.0,308.0,-820.0,0.9009314084885162,0.197329730008193,-0.2838296641856055,-0.26234385180918274
-74.24142122268677,4580.0,10516.0,11312.0,-687.0,318.0,-882.0,0.8957806301072092,0.17185562327922385,-0.22667065840025657,-0.3415598338394535
-74.2492504119873,4580.0,10288.0,11324.0,-633.0,295.0,-873.0,0.8808341514983828,0.14799287245756937,-0.17097627883130162,-0.41592838245650243
-74.2570321559906,4700.0,10108.0,11428.0,-547.0,1.0,-819.0,0.8549889051936232,0.11795725400285174,-0.14018887755434367,-0.4852083437390268
-74.26480507850647,4704.0,10060.0,11280.0,-476.0,159.0,-679.0,0.8308007960664957,0.09738249876030133,-0.10117344267466218,-0.5385634787913433
-74.27257823944092,4744.0,10164.0,11636.0,-322.0,82.0,-513.0,0.8089824375112415,0.08244582548812573,-0.07591380090242146,-0.5770504280307737
-74.28034925460815,4812.0,10252.0,11676.0,-211.0,23.0,-432.0,0.7881916231944036,0.07163603736938276,-0.060799500661449235,-0.6082151461411514
-74.28812170028687,4836.0,10444.0,11568.0,-158.0,32.0,-380.0,0.7686736538559622,0.0645636956729725,-0.04810714700204065,-0.6345534220820941
-74.29588794708252,4796.0,10672.0,11732.0,-84.0,-22.0,-340.0,0.7498700256133422,0.05922744540487311,-0.04330029083613713,-0.6575044784721732
-74.30365014076233,4788.0,10916.0,11692.0,-79.0,30.0,-395.0,0.727272625278328,0.05734928587288839,-0.035048057180652556,-0.6830499407938633
-74.31142449378967,4792.0,11068.0,11728.0,-121.0,146.0,-460.0,0.7002482638658704,0.059826078737555514,-0.016563536364593238,-0.7111953729593726
-74.3192389011383,4632.0,11276.0,11736.0,-182.0,177.0,-564.0,0.6654931443571288,0.06050880122169028,0.00816465104009148,-0.7439024789996128
-74.32703304290771,4796.0,11376.0,11776.0,-287.0,273.0,-616.0,0.6255706521746851,0.06107075095560986,0.04548908867015927,-0.7764421841498668
-74.33480501174927,4536.0,11296.0,11832.0,-352.0,304.0,-713.0,0.5763728769255766,0.059514228911351975,0.08916856018321191,-0.8101242689714178
-74.34264898300171,4488.0,11564.0,11920.0,-401.0,263.0,-755.0,0.5214860761537712,0.05194537534279864,0.1339439657041333,-0.8410784531835832
-74.35040760040283,4348.0,11764.0,11684.0,-484.0,546.0,-837.0,0.4537810963094874,0.059962764875769604,0.19688471439124644,-0.8670199494242853
-74.35820031166077,4600.0,11408.0,11648.0,-591.0,617.0,-823.0,0.3820046599682527,0.06874000234728955,0.26862532445218446,-0.8815824901294224
-74.36597156524658,4224.0,11480.0,11740.0,-655.0,679.0,-706.0,0.3140866079845786,0.08215625727603601,0.343827905828144,-0.8811256001552606
-74.37375235557556,4196.0,11044.0,11620.0,-678.0,643.0,-656.0,0.2480167229664738,0.09285719644199036,0.416022574350486,-0.8699370458997017
-74.38152432441711,4256.0,10896.0,11648.0,-627.0,646.0,-536.0,0.18818915762410032,0.10839733828799016,0.4797767280250393,-0.8500877303257577
-74.38933300971985,4160.0,10572.0,11748.0,-610.0,543.0,-437.0,0.1383671465249415,0.11995007404464701,0.5361937031137975,-0.8239920055682227
-74.39710927009583,4204.0,10444.0,11568.0,-584.0,385.0,-309.0,0.10402073278818964,0.12581793659636445,0.5846584069659215,-0.794684894247344
-74.4048969745636,4140.0,10284.0,11532.0,-526.0,489.0,-275.0,0.06562530381940693,0.140586300539219,0.6270921401792073,-0.7633375788763241
-74.41269755363464,4116.0,10096.0,11588.0,-472.0,115.0,-209.0,0.05114338014808647,0.13393599280652776,0.6609766016373524,-0.7365836249781111
-74.4205060005188,3988.0,10012.0,11772.0,-393.0,-77.0,-153.0,0.050306514674169946,0.11829651574205534,0.6871343680311692,-0.7150675137461027
-74.42828464508057,4052.0,9992.0,11524.0,-310.0,-217.0,-157.0,0.056683514695459014,0.09389128422985935,0.7066339602707373,-0.6990277906489352
-74.43605589866638,3984.0,10128.0,11956.0,-245.0,-268.0,-10.0,0.07457099983801625,0.07565208254428447,0.7199146996171362,-0.6858853793929713
-74.44383645057678,4084.0,10300.0,11880.0,-161.0,-303.0,-331.0,0.07478985099585649,0.0356137613090447,0.7290768692815554,-0.6794005128582445
-74.45162105560303,3988.0,10596.0,12000.0,-116.0,-327.0,-445.0,0.06948020862050422,-0.012858036286671247,0.7342563850175247,-0.6751849617504068
-74.45941400527954,4020.0,10736.0,12164.0,-107.0,-328.0,-531.0,0.05898595551847703,-0.06678725213129902,0.7367944171588846,-0.670219446784277
-74.46718740463257,4028.0,10936.0,12020.0,-62.0,-295.0,-569.0,0.044221204037496714,-0.12078738935323545,0.7343686126411776,-0.6664515229588539
-74.47495293617249,4140.0,11188.0,11972.0,-82.0,-206.0,-559.0,0.023983422826618108,-0.16870816566478047,0.7313849599377095,-0.6603320306061637
-74.48274612426758,4156.0,11248.0,11864.0,-132.0,-113.0,-689.0,-0.010474597116488949,-0.2190846251140899,0.727154279103882,-0.6504912483921517
-74.49051022529602,4220.0,11260.0,11852.0,-145.0,-250.0,-682.0,-0.03607295716992121,-0.2758824563444454,0.72100859398246,-0.6346134409589893
-74.498281955719,4176.0,11036.0,11824.0,-251.0,13.0,-741.0,-0.08384154814163614,-0.320283109053909,0.7153000631929487,-0.615414611831844
-74.50604701042175,4292.0,11132.0,11592.0,-297.0,53.0,-708.0,-0.13325240845891617,-0.3586831640771322,0.7094120332471043,-0.5918823789670754
-74.51384568214417,4216.0,11048.0,11668.0,-321.0,37.0,-675.0,-0.1801584928020977,-0.3940191853647992,0.7028706558572083,-0.5641494838875547
-74.52162170410156,4216.0,10936.0,11632.0,-412.0,-8.0,-646.0,-0.22522981436231365,-0.4266363125460972,0.6994389227052357,-0.5272932589596854
-74.52938485145569,4180.0,10756.0,11660.0,-436.0,-89.0,-646.0,-0.2652357724484152,-0.46054236547435357,0.6955048641843442,-0.48355320132628243
-74.53719735145569,4180.0,10592.0,11588.0,-430.0,-250.0,-611.0,-0.2925393840971731,-0.49707581170312287,0.6931785015384498,-0.43224982495848124
-74.54495978355408,4152.0,10252.0,11668.0,-418.0,-382.0,-609.0,-0.3098246110359181,-0.5362654119067984,0.6904024570045109,-0.3738616933452908
-74.55274415016174,4080.0,10536.0,11736.0,-462.0,-495.0,-618.0,-0.32086359871529907,-0.5753383176832125,0.6876826112813914,-0.305163886077834
-74.56054925918579,4056.0,10508.0,11716.0,-404.0,-637.0,-577.0,-0.3172993574076201,-0.6135273991537338,0.6849077171069134,-0.23196264208652753
-74.56832456588745,4076.0,10472.0,11844.0,-367.0,-761.0,-625.0,-0.30294157808839905,-0.6533941388131909,0.6770580339840174,-0.1513106679899877
-74.57609677314758,3984.0,10576.0,11908.0,-405.0,-826.0,-707.0,-0.2852020591423576,-0.6918346704099381,0.6605108166825328,-0.06123753199717893
-74.58390855789185,4032.0,10604.0,11952.0,-355.0,-788.0,-819.0,-0.26425961401747433,-0.7304841635377249,0.6291471012269231,0.02708631089103194
-74.59168553352356,3992.0,10712.0,12104.0,-349.0,-764.0,-832.0,-0.24140218786477857,-0.7622544025683445,0.5897378978854074,0.1135888254053852
-74.59946370124817,4008.0,10732.0,12180.0,-337.0,-680.0,-879.0,-0.21907617508757168,-0.7895904270745187,0.5394571213372756,0.19374880959577176
-74.60724329948425,3964.0,10848.0,12264.0,-369.0,-588.0,-975.0,-0.19933930138112677,-0.814040850713396,0.4746655417289489,0.2688753610687646
-74.61502957344055,4024.0,10840.0,12248.0,-294.0,-448.0,-969.0,-0.17818827133804718,-0.8346342198402698,0.40481572078225797,0.3282664942340657
-74.62279796600342,4048.0,10828.0,12328.0,-289.0,-278.0,-986.0,-0.1605671978628271,-0.8533002975173578,0.32761666093039615,0.37251053771415127
-74.63060712814331,3988.0,10792.0,12452.0,-262.0,-147.0,-949.0,-0.14456567235822626,-0.8686741933436247,0.24954364193801784,0.4027826746059559
-74.63837885856628,4072.0,10808.0,12320.0,-273.0,-55.0,-998.0,-0.1285437433132776,-0.8813985898920055,0.16431281773648074,0.4238093082022771
-74.64617729187012,3848.0,10772.0,12316.0,-292.0,65.0,-862.0,-0.11975904912412282,-0.8900364329040885,0.08621294095082714,0.4313470146747988
-74.65399026870728,4324.0,10648.0,12212.0,-290.0,71.0,-810.0,-0.1120901210372425,-0.8932116985338581,0.011617171827583853,0.43528577703256643
-74.66179132461548,4124.0,10616.0,12112.0,-280.0,102.0,-842.0,-0.10180243939396127,-0.8924683319217291,-0.06544038603498224,0.43457346412991865
-74.6695625782013,4096.0,10668.0,11928.0,-309.0,53.0,-771.0,-0.0961474892336239,-0.8849766360440097,-0.13730346799308912,0.43441888960698927
-74.67733788490295,4024.0,10528.0,11904.0,-336.0,5.0,-768.0,-0.09274457171466186,-0.8707978175897073,-0.20882529123367966,0.43531781842653255
-74.68510723114014,3908.0,10476.0,11984.0,-320.0,-99.0,-701.0,-0.09209244288206976,-0.8497029922507782,-0.2728106849463253,0.441699147727504
-74.69287300109863,3916.0,10520.0,11848.0,-340.0,-239.0,-651.0,-0.09774590934084636,-0.8203797839842687,-0.33149998624650345,0.45555516280207375
-74.70067548751831,3844.0,10516.0,11860.0,-327.0,-368.0,-659.0,-0.10539841755098393,-0.7818646754069823,-0.38752520673995916,0.47686792413584983
-74.70844316482544,3812.0,10620.0,11860.0,-290.0,-462.0,-656.0,-0.11326070326625044,-0.7357290266069322,-0.43886778615334665,0.5032592560306376
-74.71620416641235,3712.0,10676.0,11892.0,-284.0,-565.0,-640.0,-0.12470572964871281,-0.6814763694101921,-0.4853278206380651,0.533381050884817
-74.72398090362549,3620.0,10708.0,11888.0,-228.0,-630.0,-622.0,-0.13562615992823002,-0.6213275332235113,-0.5243766861952991,0.5662037903231887
-74.73174953460693,3640.0,10852.0,11776.0,-207.0,-612.0,-664.0,-0.14164304531220445,-0.5564110749230616,-0.5614950780158162,0.5958751889294102
-74.73951315879822,3600.0,10916.0,12080.0,-182.0,-559.0,-683.0,-0.14196980949215876,-0.4900857329712119,-0.5953331709382311,0.6206762143915785
-74.74731922149658,3672.0,10824.0,11968.0,-164.0,-766.0,-725.0,-0.14891528964021317,-0.4071021952907974,-0.6229887008237803,0.651135253036328
-74.75509428977966,3744.0,10912.0,12112.0,-175.0,-418.0,-757.0,-0.13448272628413582,-0.33888876681122837,-0.6524121976314963,0.6643998227287484
-74.76286578178406,3904.0,10860.0,12124.0,-157.0,-309.0,-767.0,-0.11197194792915892,-0.2746928153450957,-0.678692189248176,0.671850468726675
-74.7706446647644,4020.0,10808.0,12216.0,-148.0,-239.0,-799.0,-0.08261721557693463,-0.21130379044662606,-0.702221116995708,0.6748411714459207
-74.77841448783875,3932.0,10756.0,12040.0,-129.0,-244.0,-796.0,-0.052930268430332925,-0.14679542096048673,-0.7207413608685818,0.6754120089265746
-74.78618884086609,3904.0,10660.0,12040.0,-134.0,-231.0,-785.0,-0.022838365839163172,-0.08293465877552045,-0.7356545973619106,0.671872431939181
-74.79397201538086,3928.0,10568.0,12056.0,-173.0,-242.0,-754.0,0.004590424153884467,-0.019907758658035114,-0.7488512539510491,0.6624231341123603
-74.80175971984863,3960.0,10560.0,12276.0,-144.0,-231.0,-668.0,0.027833310851636213,0.03700625482006294,-0.7568792481978176,0.6519123005119134
-74.80953812599182,3904.0,10476.0,11916.0,-149.0,-282.0,-622.0,0.04502577036805532,0.09363571152096917,-0.7625640249406035,0.638514793405064
-74.81734371185303,4004.0,10440.0,11988.0,-155.0,-327.0,-585.0,0.05706728533021731,0.1499469653798814,-0.7662753044886954,0.6221586535998365
-74.82511734962463,3948.0,10428.0,11992.0,-168.0,-340.0,-560.0,0.06686441264821974,0.20470009658478736,-0.7683748807534146,0.6026832197818047
-74.83287978172302,3904.0,10324.0,12000.0,-125.0,-367.0,-461.0,0.06868879332931814,0.253870116487864,-0.7677463511847632,0.5842921819328775
-74.84068393707275,3924.0,10356.0,11996.0,-107.0,-437.0,-457.0,0.06503186258801506,0.3056871296291951,-0.7644527552228177,0.5638601073490124
-74.84848546981812,3836.0,10308.0,12236.0,-108.0,-458.0,-359.0,0.055000797263052556,0.3511238169909091,-0.7617285573328325,0.541716330181955
-74.85626244544983,3828.0,10408.0,12076.0,-27.0,-500.0,-294.0,0.03649123866944483,0.3936992883016842,-0.7553841179464158,0.5225553504131715
-74.86405324935913,3740.0,10456.0,12124.0,27.0,-466.0,-238.0,0.015727663604426793,0.4303014120220006,-0.7466393354878168,0.5070730106323249
-74.87182998657227,3684.0,10560.0,12208.0,83.0,-436.0,-178.0,-0.007870994752203028,0.46092839426189514,-0.7362018007154225,0.49546944550409056
-74.8796055316925,3748.0,10612.0,12244.0,29.0,-424.0,-156.0,-0.02946824761059546,0.4889035643084698,-0.7277783148743928,0.48004546825048117
-74.88739895820618,3716.0,10672.0,12076.0,86.0,-398.0,-115.0,-0.053522147690202714,0.5123292425947878,-0.7177229767482712,0.46853799796439105
-74.89516234397888,3760.0,10800.0,12164.0,78.0,-322.0,-166.0,-0.07031523502399055,0.5352661024083901,-0.7052065570842958,0.45959730110322183
-74.90292835235596,3732.0,10764.0,12340.0,69.0,-283.0,-87.0,-0.08739879685466635,0.5513679297582909,-0.6963631515467189,0.4510357164464195
-74.91069602966309,3824.0,10824.0,12132.0,15.0,-243.0,-102.0,-0.09881026397568023,0.5668806917776972,-0.6887996841239311,0.4409510269559065
-74.91845417022705,3620.0,10804.0,11792.0,19.0,-202.0,-122.0,-0.10713875780388492,0.5817131889276478,-0.6801183755979295,0.43309357831524214
-74.92622661590576,3828.0,10724.0,12028.0,-41.0,-195.0,-143.0,-0.11116418322099186,0.5978307273843398,-0.6724039595509639,0.4220353787825217
-74.93398833274841,3864.0,10696.0,11956.0,-48.0,-183.0,-137.0,-0.11429144598415276,0.6129613483638636,-0.6650844992682587,0.41094824445408595
-74.941810131073,3940.0,10664.0,11884.0,-42.0,-186.0,-129.0,-0.1181525605232877,0.6274245188336076,-0.6576768878575509,0.3997993956801501
-74.94960808753967,4048.0,10668.0,11956.0,13.0,-254.0,-99.0,-0.1299162764207091,0.6416656993636761,-0.6489747362503834,0.3875805504535123
-74.95737409591675,4024.0,10608.0,11896.0,53.0,-16.0,-32.0,-0.13266928640884493,0.6434169940400439,-0.6451762773056322,0.3900782016804939
-74.96516847610474,4172.0,10544.0,11784.0,135.0,-319.0,-87.0,-0.15514237948481577,0.6573053641898182,-0.6316698529163308,0.3806227754769029
-74.97293734550476,4144.0,10536.0,11892.0,192.0,-312.0,15.0,-0.183733768638666,0.663912742583994,-0.6215868538390545,0.3729498030980821
-74.98071098327637,4184.0,10504.0,11884.0,233.0,-345.0,70.0,-0.21805944782170372,0.6671639920942096,-0.6120894847757863,0.3642646668227976
-74.98849081993103,4256.0,10456.0,11904.0,303.0,-347.0,168.0,-0.25932854200765787,0.6628531308110807,-0.6050604322690546,0.35675805187341697
-74.99627232551575,4232.0,10456.0,12012.0,310.0,-335.0,200.0,-0.3008893205747866,0.6550894244602128,-0.5988098778394054,0.3489272029039683
-75.004065990448,4228.0,10500.0,11808.0,375.0,-371.0,292.0,-0.3501286909723942,0.6403926032614924,-0.5935008303184102,0.33921081624453564
-75.01185441017151,4172.0,10592.0,12200.0,354.0,-328.0,339.0,-0.3964276540179769,0.6208978806720131,-0.5911418535139404,0.3284543285312416
-75.01963019371033,4204.0,10636.0,12212.0,366.0,-246.0,352.0,-0.4385322837234513,0.5963921218150825,-0.5904766795687456,0.32147031597748943
-75.02741622924805,4160.0,10740.0,12152.0,314.0,-185.0,353.0,-0.47387712590964515,0.5707977707619594,-0.5923573847641682,0.314234153376343
-75.03518652915955,4028.0,10884.0,12076.0,262.0,-134.0,305.0,-0.5019115818770248,0.5474743087364892,-0.5943940182569947,0.3083056864728727
-75.04293274879456,4012.0,10876.0,12072.0,189.0,-71.0,261.0,-0.5214700830909723,0.5273238119500772,-0.5983960064379567,0.3031843816403464
-75.05076360702515,4000.0,10892.0,12120.0,98.0,-38.0,220.0,-0.5337065763408468,0.5122381149366969,-0.6040355136895198,0.29649705256286946
-75.05852556228638,3844.0,10880.0,12176.0,27.0,250.0,147.0,-0.5254091791473636,0.49657339064550043,-0.6213292399499518,0.3021755081963794
-75.06629610061646,3860.0,10872.0,11884.0,-23.0,9.0,133.0,-0.5274366217999674,0.49011981742056254,-0.6280438987036129,0.2952186238316252
-75.07404971122742,3612.0,10860.0,11948.0,-101.0,246.0,100.0,-0.5120912592831797,0.4827754380268684,-0.6460282261724504,0.29552994703110824
-75.08185935020447,3836.0,10760.0,11928.0,-95.0,-20.0,54.0,-0.5106244927536868,0.48444879295933435,-0.6498065769987574,0.28692055849911147
-75.08964133262634,3904.0,10704.0,11920.0,-61.0,-50.0,40.0,-0.5119069111054908,0.48611593184657725,-0.6507551757923075,0.279571665851338
-75.09741187095642,3972.0,10560.0,11884.0,7.0,-47.0,106.0,-0.5174733685588498,0.48088308702723187,-0.6529260599844262,0.2732404246020892
-75.10519003868103,4080.0,10572.0,11796.0,54.0,-92.0,105.0,-0.527482958249998,0.4745916840071043,-0.6518115733919391,0.2677053137676885
-75.11295080184937,4008.0,10720.0,11936.0,154.0,-78.0,156.0,-0.5418768284065654,0.46032846825018237,-0.6509263577617554,0.2660114300655099
-75.12075877189636,4128.0,10276.0,11956.0,225.0,-134.0,202.0,-0.563033515570513,0.44110915821550156,-0.6471833193283899,0.2637607288164934
-75.12853670120239,4184.0,10556.0,11956.0,307.0,-127.0,227.0,-0.5869431670235051,0.4158335481513725,-0.6421876190931455,0.2649060980795549
-75.1363160610199,4300.0,10532.0,12000.0,388.0,-124.0,323.0,-0.6148685660523572,0.3802880992683774,-0.6378948330931178,0.26534466255921924
-75.14408135414124,4308.0,10560.0,12040.0,394.0,-126.0,304.0,-0.6414215068803326,0.3447441809088948,-0.631421919418485,0.266526283729569
-75.15192031860352,4292.0,10624.0,12084.0,381.0,-104.0,382.0,-0.6668058652158076,0.3043782105983473,-0.6274597762379315,0.26271290838135636
-75.15969324111938,4280.0,10780.0,12120.0,341.0,-84.0,431.0,-0.689610362410773,0.26248567960878866,-0.6254094275953829,0.2537752232405885
-75.16746926307678,4288.0,10848.0,12000.0,323.0,-32.0,423.0,-0.7074385551779584,0.22035878033494324,-0.625279958491358,0.24494422239780353
-75.17527365684509,4336.0,10780.0,12160.0,293.0,25.0,402.0,-0.7197055884441907,0.17955433266102433,-0.6276280591506258,0.23636227903723073
-75.18304300308228,4236.0,10892.0,11824.0,228.0,75.0,398.0,-0.7268669419434791,0.1416925236906975,-0.6332778056886428,0.22482637359098576
-75.19081377983093,4184.0,10820.0,12052.0,204.0,112.0,366.0,-0.7299445333673636,0.10617244739131018,-0.6403686463080414,0.21409434006448605
-75.19860744476318,4164.0,10824.0,12032.0,168.0,147.0,317.0,-0.7288789093685535,0.0748877155217496,-0.6490790968644109,0.20450841438758002
-75.20637083053589,4108.0,10812.0,12052.0,124.0,139.0,316.0,-0.7271706508335255,0.04651949690383053,-0.6573536403719209,0.19221075012585703
-75.2141387462616,4092.0,10504.0,11992.0,111.0,114.0,313.0,-0.7260791004872185,0.019524572690722105,-0.6636004735288166,0.17905960579998673
-75.2218976020813,4092.0,10612.0,12008.0,109.0,96.0,273.0,-0.7247955816758809,-0.004762867602301541,-0.668115758072118,0.16813688973881788
-75.22966027259827,4060.0,10624.0,11952.0,119.0,70.0,304.0,-0.7249058378827399,-0.0311009186845955,-0.6702979239673641,0.15570790662499678
-75.23745918273926,3848.0,10628.0,11880.0,87.0,86.0,297.0,-0.7234790602679159,-0.05519646327774723,-0.6733950315879231,0.1416705023220491
-75.24527049064636,4044.0,10664.0,11912.0,160.0,109.0,3.0,-0.7163257698822951,-0.06687928853690461,-0.6780981488124944,0.15029122643854778
-75.25308179855347,4096.0,10652.0,11888.0,188.0,122.0,17.0,-0.7081834446800256,-0.08128694182740125,-0.6829401222143704,0.159566385054317
-75.26085925102234,4080.0,10636.0,11948.0,217.0,114.0,264.0,-0.703265862915734,-0.11203037167249606,-0.6846630184110317,0.15525100032078895
-75.2686219215393,4208.0,10624.0,11948.0,286.0,144.0,314.0,-0.6956738426344093,-0.15024528711949783,-0.6859398311313678,0.15149523570107826
-75.2763888835907,4188.0,10644.0,11984.0,344.0,135.0,336.0,-0.6869585372607577,-0.19290677159937528,-0.6844393764241375,0.14972536710859738
-75.28416180610657,4172.0,10684.0,11996.0,385.0,172.0,293.0,-0.6734426166823864,-0.23555723687865868,-0.6840079191386202,0.15205590006877995
-75.29190325737,4268.0,10612.0,12080.0,411.0,168.0,354.0,-0.6589405027449988,-0.28277810398817144,-0.6802220360430944,0.15209187824604747
-75.29970812797546,4208.0,10760.0,11852.0,387.0,192.0,313.0,-0.6415384194153011,-0.32585596444278425,-0.6775762711984931,0.15210767094373076
-75.30862927436829,4184.0,10852.0,12212.0,354.0,231.0,339.0,-0.6217040616389384,-0.3684163282133167,-0.6753255722369474,0.1472713153682821
-75.31657075881958,4188.0,10912.0,12024.0,328.0,223.0,298.0,-0.6013684682754209,-0.40629574716766764,-0.6729115700710356,0.1430725342687218
-75.324378490448,4160.0,10880.0,11776.0,276.0,192.0,233.0,-0.5829310254743155,-0.43661229169821203,-0.6707711538273802,0.14009705732306962
-75.33215308189392,4076.0,10948.0,11824.0,221.0,234.0,208.0,-0.5631262550604783,-0.4626584280959218,-0.6715949059641307,0.13340270633087695
-75.33994507789612,4328.0,10876.0,11836.0,163.0,248.0,129.0,-0.5433786344905849,-0.48094589751248984,-0.6763357569125188,0.12649366453156285
-75.3477144241333,4084.0,10848.0,11804.0,145.0,208.0,81.0,-0.5258516629481742,-0.4947831425502212,-0.6809482122327661,0.12238955298458623
-75.35554456710815,4060.0,10772.0,11976.0,114.0,194.0,33.0,-0.5097351968892905,-0.5039633674735536,-0.6870109413158727,0.11919278421628776
-75.36331701278687,4120.0,10792.0,11932.0,126.0,167.0,17.0,-0.494355855631417,-0.512253185164101,-0.6922066705254649,0.11857017994509995
-75.37109851837158,4068.0,10652.0,11840.0,133.0,125.0,247.0,-0.4833210878393795,-0.5340303411659593,-0.684875407012357,0.11026331045994459
-75.37885785102844,4164.0,10620.0,11800.0,154.0,126.0,240.0,-0.47082693268777814,-0.5558922899936248,-0.6772142327735737,0.10337622700777106
-75.38664984703064,4136.0,10596.0,11920.0,179.0,146.0,51.0,-0.4539558085749009,-0.5674684660600248,-0.6789269091185,0.10469916887631261
-75.39441585540771,4184.0,10588.0,11904.0,262.0,129.0,85.0,-0.4340368763849345,-0.5838694317054938,-0.6771454249948884,0.11037458976777585
-75.40220093727112,4232.0,10496.0,11872.0,271.0,134.0,94.0,-0.4131309700583625,-0.6007626425307774,-0.6745169078576999,0.11590509019090121
-75.40997171401978,4264.0,10540.0,11924.0,296.0,101.0,156.0,-0.3931340088154863,-0.6213624954731164,-0.6666305160466207,0.12230312918115697
-75.41774153709412,4228.0,10616.0,11960.0,329.0,100.0,158.0,-0.3710308728154266,-0.6425709680989159,-0.6575812929582714,0.1304817440317714
-75.42550921440125,4240.0,10600.0,12004.0,294.0,79.0,159.0,-0.3517334161277899,-0.6618282819100405,-0.6475448354533282,0.13766849792454694
-75.4333164691925,4248.0,10632.0,11904.0,296.0,25.0,193.0,-0.33545282713144586,-0.6818060876730057,-0.6332676484783212,0.14691475410008212
-75.44108486175537,4276.0,10632.0,11868.0,336.0,1.0,161.0,-0.3173706969754324,-0.7001929536197891,-0.6190456081192458,0.1605870588521914
-75.44886255264282,4208.0,10680.0,11796.0,329.0,-41.0,195.0,-0.30211399597872063,-0.7188702154792379,-0.6010090698534467,0.1753306724007481
-75.45669460296631,4272.0,10660.0,11660.0,339.0,-113.0,193.0,-0.2896144865094868,-0.7357491164615025,-0.5803346310340666,0.19495743856677716
-75.46447277069092,4224.0,10736.0,11620.0,357.0,-140.0,168.0,-0.2765265404256329,-0.7504063387679534,-0.55952649079256,0.2176086057086653
-75.4722466468811,4280.0,10672.0,11644.0,347.0,-147.0,173.0,-0.2641628646546056,-0.7639438378845165,-0.5376726692266066,0.2398247157039573
-75.4800534248352,4344.0,10704.0,11560.0,351.0,-166.0,161.0,-0.2518216168749323,-0.7756011830016336,-0.5153837344076381,0.26345452076022186
-75.48782515525818,4380.0,10640.0,11480.0,379.0,-138.0,129.0,-0.2352495776298378,-0.7860294015332232,-0.494532866552469,0.28679724554065
-75.49559259414673,4388.0,10572.0,11464.0,428.0,-98.0,138.0,-0.21346813541332918,-0.797682674748435,-0.47192632178588756,0.30890006859012187
-75.50338768959045,4512.0,10600.0,11568.0,460.0,-165.0,117.0,-0.19127613931850576,-0.8058535197823863,-0.44784148299630777,0.33682569570835064
-75.51115655899048,4452.0,10552.0,11424.0,487.0,-191.0,203.0,-0.1703185398236062,-0.8153299204244242,-0.41552551053736625,0.3654685567127739
-75.51893281936646,4524.0,10428.0,11276.0,536.0,-148.0,226.0,-0.14461783531783529,-0.8256435380904045,-0.37958904457797965,0.391548958565744
-75.52671194076538,4556.0,10396.0,11280.0,630.0,-200.0,223.0,-0.11331703579395312,-0.8326071817507565,-0.3388000944139161,0.4232481852542976
-75.53450012207031,4540.0,10368.0,11280.0,688.0,-209.0,324.0,-0.08133547122562222,-0.839282908423338,-0.28705253107986706,0.4545212702939335
-75.54225945472717,4364.0,10472.0,11512.0,746.0,-269.0,386.0,-0.048654382260015616,-0.841081095293486,-0.2265584086242148,0.4887602988259886
-75.55003905296326,4676.0,10428.0,11500.0,774.0,-355.0,446.0,-0.017872757993833352,-0.8350933177701828,-0.15868680619741704,0.5264201864253932
-75.55786037445068,4652.0,10412.0,11516.0,868.0,-378.0,536.0,0.015408393555866227,-0.8227766481099681,-0.07874125131392791,0.5626730703298943
-75.56564974784851,4640.0,10448.0,11288.0,941.0,-470.0,642.0,0.04789503713168451,-0.7981988835659931,0.012926492837523281,0.6003478270761695
-75.57342529296875,4700.0,10436.0,11760.0,1002.0,-563.0,635.0,0.08445919469024243,-0.7587691463340823,0.1066758034228034,0.6369900312939153
-75.58120346069336,4648.0,10364.0,11660.0,1084.0,-621.0,707.0,0.12171952576811648,-0.7040872872922402,0.20762261378366054,0.6680855477900117
-75.58897233009338,4852.0,10440.0,11864.0,1145.0,-599.0,662.0,0.1629814592581901,-0.6397826845120579,0.3063103952852562,0.6857762771318394
-75.59675145149231,4588.0,10268.0,11824.0,1172.0,-603.0,666.0,0.20295470918681957,-0.5644246552466486,0.40178952982052096,0.6919532992154891
-75.60455918312073,4600.0,10600.0,12236.0,1252.0,-524.0,747.0,0.23569842670369134,-0.47990261575305704,0.5003901492173445,0.6809915047994519
-75.61234784126282,4536.0,10780.0,12116.0,1298.0,-436.0,733.0,0.2630853542870639,-0.39155230222821424,0.5938437340880351,0.6517840980446012
-75.6201183795929,4468.0,11068.0,12116.0,1376.0,-364.0,743.0,0.2838897998693085,-0.2976973950538057,0.6824675331743661,0.6041696025713619
-75.62789797782898,4496.0,11328.0,12088.0,1365.0,-275.0,697.0,0.2962238081585663,-0.2058495459971909,0.7587325758189206,0.5424041835052283
-75.63566493988037,4456.0,11548.0,12092.0,1364.0,-190.0,700.0,0.29745687485095995,-0.11410793944099218,0.8234749781490283,0.4694547327729146
-75.64344525337219,4432.0,11688.0,11824.0,1274.0,-132.0,694.0,0.28885588760338465,-0.02546645418712691,0.8720959150942714,0.3941604378725511
-75.6512598991394,4348.0,11776.0,12052.0,1144.0,32.0,566.0,0.2678288652292814,0.04512931632702216,0.9078583314476363,0.31941241957532723
-75.65905833244324,4352.0,11908.0,12168.0,985.0,163.0,767.0,0.22827564837883615,0.12368309302858062,0.93047320043056,0.25848083901252034
-75.66684198379517,4164.0,11872.0,11920.0,823.0,327.0,404.0,0.18306376857196882,0.164944775522146,0.9477542468181852,0.20259014117738294
-75.6746187210083,4184.0,11824.0,11712.0,573.0,403.0,470.0,0.13280850917049863,0.20531686480197747,0.9549531213403359,0.16814107458365304
-75.6823832988739,4052.0,11720.0,11704.0,439.0,490.0,128.0,0.08208050851301345,0.2135278651050593,0.9631200295174542,0.14166315571883456
-75.6901626586914,4016.0,11604.0,11288.0,327.0,439.0,-19.0,0.03926763243855408,0.20861110391764043,0.9695432953115024,0.12216897675533973
-75.69796466827393,3936.0,11536.0,11424.0,196.0,349.0,-90.0,0.007111964889661137,0.19781876349642677,0.9738341517331499,0.11164318914438726
-75.70573568344116,3920.0,11400.0,11324.0,57.0,262.0,-197.0,-0.014227709401440391,0.17847811729026103,0.9775321843001262,0.11123831440261887
-75.71351504325867,3632.0,11188.0,11252.0,30.0,82.0,-296.0,-0.018822574177903336,0.15232909422916718,0.9819676189353342,0.11036826135764213
-75.72132325172424,3884.0,11116.0,11032.0,-59.0,-78.0,-375.0,-0.007749959898587342,0.12096186973269597,0.9859399929936061,0.11502388625024222
-75.72909450531006,3920.0,11048.0,11284.0,-84.0,-273.0,-359.0,0.020205270755119926,0.09278753043970824,0.9882700226591318,0.11960177064714299
-75.7368791103363,4100.0,10972.0,11496.0,-42.0,-400.0,-385.0,0.05898763891494718,0.06360325566582462,0.9890676997954054,0.119248352380121
-75.74469351768494,4228.0,10784.0,11376.0,55.0,-469.0,-388.0,0.10305413749040422,0.03522463838391617,0.9879665264758914,0.10982355011559748
-75.75247740745544,4284.0,10668.0,11264.0,93.0,-472.0,-333.0,0.14646632958729577,0.011860881508622155,0.9843464426079785,0.09730886245394914
-75.76026582717896,4460.0,10572.0,11652.0,157.0,-762.0,-318.0,0.213901207410331,-0.00695357411088989,0.9736448055546997,0.07882711393827459
-75.76806545257568,4536.0,10588.0,11552.0,184.0,-762.0,-364.0,0.28048784095065804,-0.029113560797971394,0.9577351623209651,0.056765575048047655
-75.77588057518005,4536.0,10520.0,11856.0,244.0,-766.0,-310.0,0.3457207447478096,-0.04511422874372709,0.9367492579058999,0.030703433498951736
-75.78364944458008,4564.0,10468.0,11788.0,257.0,-484.0,-339.0,0.386629640746253,-0.06365818388962902,0.9200343079690434,0.001424317457909753
-75.7914400100708,4580.0,10528.0,12064.0,289.0,-413.0,-320.0,0.42090186432076465,-0.07942070824359672,0.9031181348576592,-0.030192817102963766
-75.7992570400238,4668.0,10528.0,12036.0,5.0,-322.0,-324.0,0.44514743820038344,-0.1055187439159259,0.8883104855141761,-0.04017504538404197
-75.80704069137573,4664.0,10596.0,12172.0,252.0,-177.0,-342.0,0.4596607708794627,-0.12274058833827112,0.8766797971826679,-0.07126890556637906
-75.81481051445007,4664.0,10636.0,12204.0,226.0,-9.0,-246.0,0.46108411325042925,-0.13247041833847073,0.8718940159139816,-0.09825402682173032
-75.82259750366211,4576.0,10732.0,12100.0,182.0,95.0,-199.0,0.4541503588999017,-0.13940597402140073,0.8715727171232239,-0.12113803979211439
-75.83037614822388,4568.0,10876.0,11788.0,185.0,240.0,-146.0,0.4364486421224521,-0.1405556364530651,0.8769670797090802,-0.14382432672280854
-75.83816194534302,4548.0,10924.0,12032.0,156.0,352.0,-87.0,0.4101172015292312,-0.13674872184744927,0.8868178173961039,-0.16327224758583878
-75.84596228599548,4496.0,11220.0,11996.0,149.0,493.0,-15.0,0.3731730587757813,-0.12540148677330012,0.9012487177103392,-0.18101680624859812
-75.85373830795288,4468.0,10992.0,12020.0,133.0,584.0,-241.0,0.3243891036182011,-0.1305771333575978,0.9140805834485601,-0.20537285278300993
-75.86151647567749,4408.0,10984.0,11636.0,114.0,665.0,121.0,0.2743239172541128,-0.10557025960687276,0.9305834659320953,-0.21821026933374466
-75.86932182312012,4260.0,10932.0,11472.0,64.0,638.0,179.0,0.22612756147247073,-0.07720367145861201,0.9447010958465103,-0.22460133250323217
-75.87708449363708,4196.0,10948.0,11396.0,135.0,621.0,219.0,0.17981721123845124,-0.044219610394694985,0.9541518374350924,-0.2351694446951061
-75.8848443031311,4136.0,10988.0,11396.0,101.0,467.0,320.0,0.14769534852729863,-0.006380669962965829,0.9594413286516833,-0.24003688872612036
-75.89260983467102,3984.0,10984.0,11268.0,126.0,392.0,308.0,0.12126597390221355,0.02922853951655285,0.9610648741049856,-0.24656553654727406
-75.9003837108612,3924.0,10948.0,11332.0,167.0,196.0,324.0,0.11129636770249444,0.062359648243395085,0.9580995055395549,-0.2564560981767669
-75.90815472602844,3932.0,11088.0,11400.0,170.0,65.0,300.0,0.11159816830390697,0.09051818735781043,0.952851104598159,-0.2672584499220507
-75.91592192649841,3884.0,11228.0,11332.0,181.0,-41.0,216.0,0.11858310726147087,0.10926157340537439,0.9462354513739336,-0.2804254371706755
-75.9236900806427,3928.0,11208.0,11300.0,204.0,-113.0,194.0,0.13067895279130248,0.1245924875538706,0.9378976403233321,-0.2962224495517392
-75.93146252632141,3928.0,11340.0,11320.0,191.0,-195.0,112.0,0.1474219296892993,0.13086069748248533,0.9292116639241128,-0.3125826868661512
-75.93927264213562,4056.0,11360.0,11416.0,174.0,-162.0,221.0,0.16454978378448598,0.14655324721586066,0.9194874150104454,-0.32555860920020924
-75.94704818725586,4036.0,11404.0,11456.0,217.0,-190.0,-64.0,0.17516193380040093,0.13909466482765376,0.9111074528677323,-0.3461996252058334
-75.95484614372253,4172.0,11380.0,11608.0,507.0,-213.0,-139.0,0.1815393743534917,0.12920337205329238,0.8931205887671836,-0.3907499944076274
-75.96263241767883,4176.0,11408.0,11692.0,251.0,-161.0,-246.0,0.182782516640581,0.10845444355374471,0.8842734634250127,-0.4157987820644932
-75.97041869163513,4264.0,11304.0,11740.0,267.0,-82.0,-238.0,0.1778701980049059,0.0913244457916247,0.8750705449256435,-0.44076476681568555
-75.97819662094116,4272.0,11252.0,11528.0,302.0,-19.0,-322.0,0.16441597386200385,0.0706360655217507,0.865069697683843,-0.46864949795748223
-75.98597955703735,4412.0,11104.0,11924.0,318.0,51.0,-366.0,0.14351033215322778,0.049603176033591816,0.8542621890440389,-0.4971724266915227
-75.99375200271606,4436.0,11092.0,11728.0,374.0,211.0,-335.0,0.11149536184017882,0.03841822662793927,0.8411577475854755,-0.5277750162974955
-76.00153303146362,4436.0,10964.0,11804.0,374.0,26.0,-328.0,0.09313046160241488,0.01914718648617165,0.8244796139726736,-0.557847173081352
-76.00931763648987,4112.0,10932.0,11756.0,373.0,387.0,-315.0,0.04923642240793576,0.018318822309215665,0.8087663814606466,-0.5857790843626313
-76.01709866523743,4284.0,10880.0,11552.0,361.0,387.0,-286.0,0.006688813140686764,0.019427914748480237,0.7913050913743064,-0.6110761558696226
-76.02486991882324,4356.0,10812.0,11576.0,297.0,444.0,-221.0,-0.03624942703498959,0.02796626689923578,0.7750720154615831,-0.6302120578056843
-76.03266263008118,4228.0,10836.0,11684.0,282.0,439.0,-215.0,-0.07840115111767118,0.036611896375961205,0.757731380392537,-0.6468044400864921
-76.04043126106262,4212.0,10756.0,11768.0,280.0,383.0,-170.0,-0.11415249244661017,0.04500573618760036,0.7390794505395927,-0.6623482905303918
-76.04821157455444,4236.0,10804.0,11540.0,5.0,368.0,-132.0,-0.14550259563133053,0.057651996944908905,0.7351601412008767,-0.6595792664284684
-76.05605721473694,4220.0,10784.0,11476.0,208.0,326.0,-70.0,-0.17144492618240226,0.06921278962037114,0.7189177018516404,-0.6700548970074265
-76.0638735294342,4260.0,10840.0,11464.0,211.0,20.0,-244.0,-0.18822047180510262,0.05185281148411963,0.7074095493820567,-0.6793055787918515
-76.07164192199707,4248.0,10912.0,11520.0,166.0,248.0,94.0,-0.19869120696639272,0.06956896314424083,0.692742888457752,-0.6897747850802347
-76.079416513443,4252.0,10948.0,11448.0,216.0,262.0,75.0,-0.2112864886528406,0.08604999433583402,0.6743585214697841,-0.7022777247703663
-76.08718729019165,4224.0,11004.0,11628.0,211.0,267.0,159.0,-0.21877749988972045,0.10778144143729958,0.6548795236588411,-0.7152988018416294
-76.09494948387146,4320.0,11112.0,11684.0,3.0,292.0,216.0,-0.2219531110937678,0.13818504884621755,0.6466827032733367,-0.7165495028525634
-76.10274529457092,4100.0,11136.0,11628.0,8.0,321.0,166.0,-0.2297227153492989,0.16734625364787742,0.6375682258405422,-0.7160512990289931
-76.11051917076111,4340.0,11164.0,11724.0,7.0,391.0,192.0,-0.2394615053563072,0.20213323300582706,0.6259591074841864,-0.7141257167507022
-76.11827373504639,4452.0,11220.0,11564.0,2.0,486.0,116.0,-0.25862404224971863,0.23844538939377674,0.612974814460288,-0.7074738708140687
-76.1260437965393,4428.0,11256.0,11812.0,269.0,584.0,57.0,-0.29153661126104463,0.2710024721011763,0.5809986858016691,-0.7099328077404305
-76.13384366035461,4352.0,11196.0,11684.0,500.0,709.0,19.0,-0.3372274857197293,0.3022502610088823,0.5299268232390423,-0.7170076461286791
-76.14159488677979,4396.0,11196.0,11768.0,218.0,841.0,-101.0,-0.3871295140906492,0.34272611371176387,0.49267695586023813,-0.6999564039740318
-76.14935970306396,4324.0,11132.0,11832.0,152.0,911.0,-134.0,-0.437649373014446,0.3861278489516485,0.4550283879967667,-0.6725455201554009
-76.15719771385193,4336.0,11216.0,11748.0,115.0,1022.0,-252.0,-0.4948638172088291,0.429804100533896,0.4158837525779197,-0.6304117241323032
-76.16496586799622,4292.0,11216.0,11684.0,88.0,1033.0,-295.0,-0.5495370358332213,0.46997019663394574,0.37576435532315383,-0.5796017682789297
-76.17275094985962,4240.0,11120.0,11796.0,52.0,1117.0,-404.0,-0.605565380211024,0.5079129283316179,0.33427671002384324,-0.5133946909144211
-76.18054580688477,4028.0,11080.0,11792.0,-44.0,1135.0,-428.0,-0.6523365034687962,0.5454631588914127,0.2935423232981449,-0.43676072736343197
-76.188321352005,4152.0,11096.0,11668.0,-75.0,1132.0,-479.0,-0.6921240215979233,0.5771945620383034,0.2532612163223045,-0.351666791988489
-76.19610714912415,4040.0,11096.0,11692.0,-139.0,1162.0,-761.0,-0.7288591235953841,0.599904207543119,0.22399233921190354,-0.24229476201150216
-76.20392489433289,3992.0,11116.0,11712.0,-157.0,1154.0,-538.0,-0.7499739114742366,0.6198096815026721,0.18092907644389103,-0.14366544511729495
-76.21171188354492,4036.0,11120.0,11564.0,-220.0,1188.0,-564.0,-0.7588642988580561,0.635814603546432,0.13552106519824206,-0.03871442526110857
-76.21948266029358,4032.0,11056.0,11788.0,-200.0,1190.0,-500.0,-0.7586927144403676,0.6429079127424525,0.08458928075427426,0.06244545115318088
-76.22726321220398,3968.0,11152.0,11764.0,-173.0,1192.0,-487.0,-0.7503921384567783,0.6400722385736424,0.03185902613347196,0.16187702246896019
-76.2350583076477,3988.0,11084.0,11892.0,-198.0,1254.0,-398.0,-0.7323366951830073,0.629883977350412,-0.03059488473068247,0.2568912084793352
-76.24288582801819,3848.0,11248.0,12008.0,-185.0,1264.0,-366.0,-0.7059080479008912,0.6101548514760986,-0.09473428569391672,0.3470306906355641
-76.25067496299744,3604.0,10984.0,11944.0,-159.0,1251.0,-329.0,-0.6728415779487895,0.5809325850094885,-0.15802910850879778,0.4299166704391573
-76.25849795341492,3700.0,10948.0,11876.0,-144.0,1246.0,-223.0,-0.6361079662643434,0.5422699606797461,-0.2238458327296161,0.5012015444599229
-76.266277551651,3696.0,10924.0,11840.0,-122.0,1224.0,-207.0,-0.5938909932796475,0.49651524642860656,-0.28556754678329227,0.5649931631351177
-76.27407097816467,3552.0,10916.0,11872.0,-71.0,1228.0,-69.0,-0.5536443516388669,0.438740826888822,-0.3476298263304005,0.6165532601201512
-76.2818706035614,3596.0,10796.0,12008.0,-22.0,1194.0,-46.0,-0.5113538117941957,0.3748323469575871,-0.40245513251763415,0.6603391985548236
-76.28965067863464,3464.0,10844.0,11828.0,-8.0,1163.0,-62.0,-0.46430118632796363,0.30867680538501857,-0.45035416231577957,0.697369462104986
-76.29743075370789,3448.0,10844.0,11984.0,29.0,1077.0,48.0,-0.4238238572843509,0.23894600060305046,-0.4912306556310098,0.7224753212122538
-76.30521202087402,3424.0,10800.0,11748.0,87.0,968.0,154.0,-0.39242979926158955,0.1674209449431548,-0.5227119891022827,0.7380658888572109
-76.31297898292542,3392.0,10848.0,11708.0,125.0,861.0,252.0,-0.3700858242234875,0.09584085152722237,-0.546000398205756,0.7454760754353655
-76.32075095176697,3424.0,10856.0,11636.0,128.0,723.0,253.0,-0.35239080528540545,0.03250346702127512,-0.561725661065226,0.7478158374110134
-76.32855677604675,3384.0,10916.0,11508.0,161.0,597.0,286.0,-0.34168228646142473,-0.025414399890831992,-0.5692593395172116,0.747362781899868
-76.33632397651672,3488.0,10984.0,11440.0,140.0,481.0,269.0,-0.3346531406725773,-0.07425614242555029,-0.5730460300515717,0.7443866926485114
-76.34409379959106,3452.0,10920.0,11508.0,188.0,399.0,303.0,-0.33285094733289855,-0.12070722373866946,-0.5697779220891043,0.7416152186253444
-76.35188889503479,3472.0,11048.0,11380.0,203.0,494.0,297.0,-0.32496118319809836,-0.17311689289326346,-0.5669328512135025,0.7368974915308119
-76.35967373847961,3332.0,11068.0,11376.0,237.0,152.0,248.0,-0.32969164256489275,-0.20178512283619576,-0.5518355044109645,0.738961271716144
-76.36745071411133,3548.0,11160.0,11352.0,272.0,236.0,240.0,-0.3288405856889105,-0.2362291699226841,-0.5363485869328763,0.740533484574817
-76.37524604797363,3644.0,11180.0,11200.0,296.0,-120.0,159.0,-0.3385331178762294,-0.24429133179568302,-0.5101169180700535,0.7519958797820643
-76.38301467895508,3712.0,11264.0,11308.0,271.0,-150.0,102.0,-0.34605593410380125,-0.24688947157666832,-0.4853862707892228,0.7639967587794272
-76.39079475402832,3748.0,11260.0,11288.0,302.0,-189.0,53.0,-0.3509854210177891,-0.24552366990048421,-0.458020457147088,0.7789381378430101
-76.39858627319336,3724.0,11056.0,11344.0,314.0,-244.0,-13.0,-0.352984126952157,-0.23787751660383313,-0.4290545901842251,0.7966985953646857
-76.40637993812561,3772.0,11268.0,11400.0,306.0,-304.0,-39.0,-0.3551197108061357,-0.22452822448584167,-0.3987582186862389,0.8151496491052301
-76.41415572166443,3792.0,11248.0,11532.0,262.0,-348.0,-115.0,-0.35371066523556255,-0.20370877179026806,-0.3711059795745437,0.8340694536537918
-76.42196464538574,3820.0,11204.0,11276.0,2.0,-433.0,-178.0,-0.3545136594565457,-0.16632120898913508,-0.36025172015174267,0.846685312750157
-76.42974376678467,3804.0,11164.0,11508.0,282.0,-471.0,-250.0,-0.34633476627152304,-0.13217546148723397,-0.327794110742497,0.8689838306981448
-76.43753123283386,3828.0,11172.0,11548.0,248.0,-532.0,-238.0,-0.3401761803837802,-0.09235097961944123,-0.29496010129330497,0.8881159842654983
-76.44534063339233,3812.0,11128.0,11700.0,4.0,-544.0,-220.0,-0.33669934235451293,-0.0445619310412263,-0.2796500690436471,0.8980220632277356
-76.45315361022949,3800.0,11060.0,11540.0,251.0,-615.0,-192.0,-0.3351085182664668,0.0009571411068294287,-0.2419434605885379,0.9105848267704646
-76.46094799041748,3848.0,10972.0,11332.0,498.0,-637.0,-143.0,-0.33639260480441013,0.03993095881975495,-0.1829689408795855,0.9229127264449449
-76.46873092651367,4092.0,10928.0,11624.0,511.0,-652.0,-98.0,-0.3397960086935943,0.07878874592765364,-0.12170010938898657,0.929257816413593
-76.47652959823608,3904.0,10916.0,11580.0,241.0,-665.0,11.0,-0.34873595059416956,0.12517999112094008,-0.0820405134686763,0.92519325588546
-76.48430919647217,3900.0,10880.0,11636.0,269.0,-691.0,8.0,-0.3564992873170711,0.17230179548381466,-0.038984201357475816,0.9174424131573565
-76.49208474159241,3912.0,10896.0,11524.0,276.0,-723.0,120.0,-0.37181231630251754,0.22058076751318637,0.004097097898247607,0.9017111179517876
-76.4998939037323,3948.0,10856.0,12020.0,271.0,-716.0,119.0,-0.3852090275705922,0.2674249493489956,0.0465412818635841,0.8820044277815731
-76.50766396522522,3968.0,10816.0,11808.0,290.0,-675.0,198.0,-0.4035297809053999,0.3095867495720642,0.08699861141120635,0.8565926698404358
-76.5154333114624,3940.0,10884.0,11992.0,279.0,-648.0,167.0,-0.41773660701687093,0.34858040607982144,0.12613189928583363,0.8295050160413783
-76.52323150634766,3976.0,10832.0,11844.0,292.0,-593.0,216.0,-0.4348694218647356,0.3823327983783579,0.16220602284934335,0.7989990133677279
-76.53098440170288,4008.0,10940.0,11940.0,279.0,-561.0,260.0,-0.4535198302997334,0.41361136137228843,0.1940895658544145,0.765228492474704
-76.5387864112854,3996.0,10936.0,11944.0,290.0,-258.0,249.0,-0.4758155292705142,0.42303104835039196,0.21462839501211314,0.7406611683429293
-76.54659175872803,4088.0,11004.0,11868.0,295.0,-460.0,184.0,-0.4893234529358086,0.4431973574747043,0.24580589150466856,0.7097310225965975
-76.5543577671051,4092.0,11116.0,11920.0,299.0,-433.0,8.0,-0.49154022413604137,0.4567408483876267,0.2823011196288154,0.6856253228453267
-76.56216931343079,4176.0,11180.0,11976.0,309.0,-375.0,255.0,-0.5092650295635736,0.47147690242367274,0.30643335216280976,0.6515038455963669
-76.56996774673462,4136.0,11208.0,11760.0,310.0,-279.0,220.0,-0.5266010058063717,0.47885913924531315,0.32719047984776584,0.6215558666298183
-76.57773399353027,4228.0,11200.0,11780.0,329.0,-246.0,207.0,-0.5441018118203307,0.4824294315908145,0.3474627315896889,0.592017493039715
-76.58550500869751,4172.0,11180.0,11928.0,281.0,-203.0,163.0,-0.5578796397323958,0.48407611080327656,0.3645945129277589,0.567019812409228
-76.59330248832703,4216.0,11236.0,11672.0,495.0,-151.0,106.0,-0.5786139657051733,0.4701509187195497,0.39158517330885095,0.5392819711085964
-76.60106992721558,4144.0,11220.0,11524.0,192.0,-98.0,88.0,-0.5871633121825797,0.4678115690024652,0.4019032185134336,0.524276056751381
-76.60884356498718,4104.0,11204.0,11564.0,198.0,-40.0,32.0,-0.5952161228107002,0.46037827880265075,0.4116624063661089,0.5141047274026673
-76.61662888526917,4020.0,11176.0,11616.0,209.0,-50.0,40.0,-0.6035076373864333,0.45295354844747354,0.4219710186835751,0.5025455939078896
-76.6243999004364,3976.0,11148.0,11760.0,184.0,-49.0,64.0,-0.6116991437792312,0.4475348022326584,0.43003854752235976,0.4905136144238914
-76.63218522071838,3988.0,11148.0,11492.0,201.0,-29.0,25.0,-0.6194426009363131,0.43874862761562344,0.4391566656483414,0.48055377319015347
-76.6399519443512,3864.0,11028.0,11532.0,208.0,-54.0,100.0,-0.6294109339438695,0.43334463278732344,0.44688201768869845,0.46513521446220724
-76.64773035049438,3884.0,11048.0,11568.0,211.0,-62.0,123.0,-0.6398287795481158,0.4288017494510249,0.45409617335966435,0.4478223507930558
-76.65551257133484,3856.0,11092.0,11608.0,239.0,-64.0,151.0,-0.6519510511857921,0.4236446962275519,0.46121469212856286,0.42751141035153795
-76.6633050441742,3904.0,11056.0,11436.0,275.0,-47.0,185.0,-0.6668698693488736,0.41685929247603226,0.4671108189367586,0.40412917546649424
-76.67108035087585,3908.0,11092.0,11756.0,308.0,-111.0,219.0,-0.6809035547626436,0.41137474902979226,0.4761829245760385,0.37468785317178616
-76.6788604259491,3856.0,11072.0,11556.0,295.0,-101.0,211.0,-0.6938583590191879,0.40554037883816574,0.48399030915253205,0.3461949730967118
-76.6866340637207,3880.0,10996.0,11488.0,355.0,-83.0,270.0,-0.7105593855671823,0.3974889727272801,0.4897950037201446,0.31178314655122624
-76.69441223144531,3928.0,10824.0,11540.0,339.0,-88.0,262.0,-0.7252064131891409,0.3896229181947348,0.4950156781597425,0.2779012743094394
-76.70218062400818,3956.0,11092.0,11652.0,350.0,-154.0,261.0,-0.7362362373288368,0.3820172143089809,0.5039529569495345,0.2409366472691603
-76.71000218391418,3976.0,11148.0,11592.0,336.0,-150.0,202.0,-0.7446454160944731,0.372065610828643,0.5135624262081563,0.20814422863819584
-76.71781516075134,3988.0,11120.0,11684.0,291.0,-118.0,234.0,-0.7526785545970269,0.36542423249335954,0.5185965802250501,0.17606166742153917
-76.72559118270874,3996.0,11112.0,11596.0,311.0,-153.0,200.0,-0.7583478725814317,0.3560335071640572,0.526705462264952,0.1439791719240701
-76.73335385322571,4008.0,11172.0,11736.0,299.0,-138.0,198.0,-0.7634229412254265,0.3467402274251793,0.5331193129082779,0.11287349423163758
-76.74115228652954,4028.0,11200.0,11720.0,257.0,-121.0,211.0,-0.7673557663484396,0.34032115139720964,0.5370442000975241,0.08324763603302375
-76.74892067909241,4044.0,11168.0,11728.0,220.0,-157.0,111.0,-0.7671636085162017,0.331681038010718,0.5456536097175786,0.06090833271982609
-76.75672674179077,4012.0,11144.0,11648.0,221.0,-153.0,76.0,-0.7665281017979674,0.32108107071311887,0.5546759897947782,0.040940951734238805
-76.76452398300171,4092.0,11148.0,11532.0,199.0,-130.0,55.0,-0.7659128728983907,0.3106857202240757,0.5623812816380059,0.024065503123238456
-76.77228879928589,4016.0,11248.0,11596.0,199.0,-111.0,77.0,-0.7659342399464132,0.3011926307588046,0.567969196891026,0.0062233943522595715
-76.78007364273071,4032.0,11176.0,11616.0,155.0,-159.0,24.0,-0.762077523157972,0.29191622333558953,0.5779026672782093,-0.007160614752128891
-76.78788423538208,3988.0,11508.0,11652.0,197.0,-119.0,-248.0,-0.7609981436020697,0.26597789561710905,0.591713607628569,-0.0035483833617289207
-76.79565715789795,4028.0,11204.0,11584.0,208.0,-138.0,-15.0,-0.7586071513219982,0.2511520118776207,0.6009730072315487,-0.01641040742989842
-76.80343413352966,3976.0,11188.0,11484.0,202.0,-107.0,-86.0,-0.7574577639047572,0.2329281300911536,0.6094643039160657,-0.023568715806111366
-76.81123661994934,3952.0,11224.0,11648.0,211.0,-131.0,-129.0,-0.7549042446349752,0.21165340792896511,0.620073282419064,-0.028836448709927635
-76.819007396698,4024.0,11164.0,11624.0,216.0,-134.0,-142.0,-0.7518431777096155,0.18920909650387785,0.6307186605674568,-0.03355182772498075
-76.8267867565155,3992.0,11168.0,11772.0,228.0,-67.0,-182.0,-0.7522835404752315,0.16385006129013488,0.6371699803902191,-0.035171696501556944
-76.8346095085144,4084.0,11092.0,11644.0,230.0,-103.0,-197.0,-0.7502450452218284,0.13729701459234006,0.6457219179600145,-0.036402013270800865
-76.8423924446106,4064.0,11164.0,11676.0,234.0,-133.0,-135.0,-0.7458142034275163,0.1137811094872644,0.6550041478967084,-0.042244518315795475
-76.85015368461609,3860.0,11160.0,11732.0,219.0,-140.0,-158.0,-0.7403975991985231,0.08982676016880514,0.6645657501469963,-0.045770208544414874
-76.85798525810242,3856.0,11196.0,11600.0,244.0,-132.0,-161.0,-0.7351004733918584,0.06405329739903083,0.6730373454508692,-0.050449982555240934
-76.86578702926636,4060.0,11116.0,11636.0,218.0,-95.0,-127.0,-0.7311889223521815,0.042066344676451844,0.6786077807385534,-0.05553973709077958
-76.87357687950134,4116.0,11176.0,11612.0,198.0,-72.0,-115.0,-0.7281438029262378,0.022158759799079993,0.6824251778579002,-0.060095492758575994
-76.88135719299316,4040.0,11152.0,11648.0,172.0,-69.0,-175.0,-0.7252006139867254,0.00033972118717592436,0.6859831675745081,-0.059254095784474145
-76.88917374610901,3840.0,11152.0,11716.0,131.0,-53.0,-136.0,-0.7227252545802837,-0.016463730106365277,0.6884668561562991,-0.05839982839966802
-76.89694595336914,4036.0,11164.0,11664.0,106.0,-30.0,-146.0,-0.7215198654498703,-0.03216704380943782,0.6894217313488735,-0.05542599929351244
-76.90473008155823,4016.0,11180.0,11636.0,46.0,-8.0,-134.0,-0.721600088552005,-0.043254422171258036,0.6891718003886308,-0.0496447047877452
-76.91251754760742,3988.0,11168.0,11268.0,2.0,-40.0,-193.0,-0.7200129889848207,-0.05524719531199479,0.6907480690371304,-0.037365066904510046
-76.9203052520752,3960.0,11144.0,11604.0,-29.0,-46.0,-240.0,-0.7180934641559757,-0.06811601585841828,0.6923099966829489,-0.020220128904170943
-76.92807912826538,3960.0,11192.0,11600.0,-61.0,-54.0,-219.0,-0.7155271253329332,-0.07768960192570208,0.6942474447065833,-0.002396702692117854
-76.93589854240417,3984.0,11208.0,11628.0,-67.0,-44.0,-274.0,-0.7132462259178567,-0.09017131975876852,0.6948250640875809,0.019159452564845976
-76.94367861747742,3968.0,11084.0,11592.0,-90.0,-86.0,-504.0,-0.7072630584553581,-0.1149508084077492,0.6952334966304872,0.05670681576075324
-76.9514524936676,3940.0,11140.0,11536.0,-100.0,-87.0,-299.0,-0.701313984726159,-0.12651026963417178,0.6967079695292896,0.08216965193415667
-76.95928883552551,3908.0,11140.0,11712.0,-66.0,-56.0,-247.0,-0.6967762049746234,-0.13711820545464704,0.6966341223409902,0.10199224237292345
-76.96705913543701,3900.0,11180.0,11732.0,-86.0,-61.0,-278.0,-0.6914797677451955,-0.148259874527729,0.6958956610851394,0.1249158488221143
-76.9748330116272,3980.0,11048.0,11296.0,-53.0,-89.0,-217.0,-0.6843335651320319,-0.15729495124373782,0.697604904297799,0.14245443989771642
-76.98263168334961,3928.0,11084.0,11580.0,-55.0,-91.0,-230.0,-0.6766127843354333,-0.16689445881376944,0.6989046629525806,0.1608528886723864
-76.99039816856384,3960.0,11080.0,11512.0,241.0,-115.0,-245.0,-0.6624064671130591,-0.1944107554708735,0.7050360163695705,0.162315575672105
-76.99817180633545,4036.0,11144.0,11628.0,-15.0,-113.0,-186.0,-0.6530467438537744,-0.20338941843630406,0.7079510639302675,0.17597723116962333
-77.0059380531311,4064.0,11136.0,11556.0,24.0,-158.0,-206.0,-0.639620896428999,-0.21503766177403086,0.7133640947525085,0.18909146249382922
-77.0137186050415,4004.0,11072.0,11556.0,45.0,-198.0,-172.0,-0.6235346081915408,-0.22495855599155726,0.7216210789537411,0.19965284591824298
-77.02149271965027,4004.0,11120.0,11468.0,65.0,-187.0,-206.0,-0.6067949975392278,-0.23816167705645078,0.7285459668335497,0.21047475086954098
-77.02926254272461,4068.0,11136.0,11580.0,73.0,-191.0,-238.0,-0.5886329246624176,-0.2535754934339647,0.7346695789331813,0.22242157926611306
-77.03704285621643,4056.0,11176.0,11656.0,71.0,-195.0,-201.0,-0.5705683230690292,-0.2662526977744812,0.7412757085096044,0.23253303767763972
-77.0448362827301,4120.0,11200.0,11636.0,57.0,-196.0,-229.0,-0.551811540912201,-0.27983509553770886,0.7465010538774235,0.24481119088268793
-77.05260896682739,4044.0,11168.0,11552.0,50.0,-155.0,-245.0,-0.5351739959131758,-0.2947983775706387,0.7487037809732218,0.25714851552448303
-77.06041383743286,4056.0,11228.0,11616.0,34.0,-172.0,-274.0,-0.5167956003001277,-0.3103024097996734,0.7500515121053912,0.2721349870401867
-77.06819272041321,4040.0,11152.0,11636.0,26.0,-154.0,-266.0,-0.4996052121596849,-0.32510357437899534,0.7500454049117041,0.2865906287367315
-77.07597661018372,4024.0,11224.0,11528.0,35.0,-150.0,-335.0,-0.48025839815386656,-0.34461614754638387,0.7474772914879302,0.3030994565531898
-77.08373761177063,4028.0,11156.0,11676.0,24.0,-119.0,-309.0,-0.4634989638639957,-0.3624607045690626,0.7434060251556852,0.3180226877166565
-77.0915105342865,4000.0,11124.0,11620.0,255.0,-120.0,-278.0,-0.43976271420213325,-0.38722890651184055,0.7460168550370447,0.3164196282784209
-77.09928488731384,4008.0,11088.0,11620.0,-26.0,-114.0,-259.0,-0.42603106711175226,-0.39979385676973406,0.740614694476511,0.33189196475700833
-77.1070556640625,3928.0,11080.0,11608.0,-26.0,-73.0,-233.0,-0.41547114412732034,-0.4116453113460425,0.7342005802916515,0.34479178346323364
-77.11482739448547,3948.0,11080.0,11584.0,248.0,-77.0,-282.0,-0.39301716751501814,-0.43611334641727995,0.7338423420793486,0.3417865885120276
-77.12264442443848,3904.0,11096.0,11564.0,0.0,-15.0,-222.0,-0.38545872573261447,-0.44976086137257165,0.7257017325032825,0.34999104813655707
-77.13041424751282,3868.0,11028.0,11688.0,44.0,-74.0,-217.0,-0.3724355960834558,-0.46258734844672494,0.7208026767053499,0.35741876431070585
-77.13818693161011,3840.0,11044.0,11764.0,1.0,-99.0,-171.0,-0.36087590694227756,-0.47017450737238164,0.7169794586313889,0.36694000641299296
-77.14598202705383,4072.0,10984.0,11476.0,49.0,-75.0,-156.0,-0.34923155241552656,-0.4789711467858671,0.7143625942932456,0.3719005878170894
-77.15376162528992,3820.0,11012.0,11608.0,90.0,-151.0,-107.0,-0.33262408516476144,-0.48335822535901907,0.7172422893561985,0.3758850120783808
-77.16157412528992,3812.0,10964.0,11588.0,93.0,-198.0,-75.0,-0.31387627054240225,-0.48411004063566504,0.7226780577635141,0.38059897552841904
-77.16936707496643,3860.0,11040.0,11608.0,138.0,-227.0,-17.0,-0.29317694698914526,-0.4812435446221165,0.7325161631517352,0.38193193010682597
-77.17718315124512,3820.0,11068.0,11688.0,169.0,-5.0,-40.0,-0.2844852094472919,-0.4878568801529748,0.7364655987777144,0.37240066045875786
-77.18495893478394,3876.0,11040.0,11676.0,167.0,-321.0,4.0,-0.2568322401519357,-0.4810270955858858,0.7496175275006112,0.3751315718446207
-77.19274163246155,4076.0,11028.0,11632.0,187.0,-316.0,-252.0,-0.21997547564722295,-0.49094745348692737,0.7516353025823533,0.3816094337675808
-77.20054531097412,4000.0,11064.0,11668.0,178.0,-268.0,247.0,-0.20295135875252185,-0.46889366515888625,0.772774967167754,0.3765213498239484
-77.20833396911621,3964.0,11132.0,11648.0,143.0,-507.0,13.0,-0.16323583314284545,-0.45336632185233733,0.7861212062869777,0.38707426937753336
-77.2161021232605,3992.0,11160.0,11644.0,167.0,-196.0,-28.0,-0.14227333544794268,-0.45088919485111106,0.793211398763935,0.3837615260262493
-77.22391700744629,4028.0,11200.0,11584.0,171.0,-155.0,-41.0,-0.12348799606028098,-0.45052562996982154,0.7990516220389633,0.378541776936461
-77.23169136047363,4044.0,11224.0,11752.0,124.0,-60.0,-36.0,-0.11330196607609419,-0.45231740122621306,0.8022877196245481,0.37270101686324775
-77.23952007293701,4028.0,11232.0,11628.0,105.0,-40.0,-75.0,-0.10398054228678746,-0.4572376656821728,0.8030533658169506,0.3677323150843968
-77.2473406791687,3992.0,11188.0,11696.0,136.0,-35.0,-9.0,-0.0958742181132167,-0.4579081718530572,0.8072894321387447,0.3597388124854944
-77.25513625144958,4032.0,11168.0,11684.0,124.0,27.0,20.0,-0.09351311241336027,-0.4583199111991401,0.8116799685235336,0.34981964710806907
-77.26295447349548,4048.0,11144.0,11544.0,140.0,58.0,81.0,-0.09455478898969016,-0.4554090991120738,0.818605411721394,0.33696754179815547
-77.27076268196106,3956.0,11180.0,11548.0,148.0,60.0,53.0,-0.0945769725547954,-0.4545271418294348,0.8244573383091559,0.323620720768798
-77.2785210609436,3932.0,11216.0,11636.0,100.0,99.0,66.0,-0.09965811682412995,-0.453327505378312,0.8289835290995934,0.31200759782436127
-77.28629350662231,3940.0,11232.0,11676.0,110.0,81.0,99.0,-0.1039204237300449,-0.4492492125269946,0.835078462662929,0.30003275116587236
-77.29405450820923,3780.0,11216.0,11596.0,75.0,103.0,89.0,-0.11087621878262172,-0.44607164691096196,0.8394976045452804,0.28977633080247617
-77.30186247825623,3708.0,11260.0,11316.0,26.0,118.0,91.0,-0.12087118400744978,-0.4425752191993421,0.8424586304964785,0.2824549311470584
-77.30964732170105,3704.0,11392.0,11608.0,38.0,96.0,53.0,-0.1278319820810969,-0.44139867152206375,0.84436190368212,0.275461744614532
-77.3174135684967,3672.0,11440.0,11592.0,-45.0,109.0,248.0,-0.14359117745850689,-0.4250923131496916,0.8513483933315357,0.2718161368074694
-77.32518649101257,3688.0,11436.0,11488.0,-65.0,61.0,-48.0,-0.14946184727877795,-0.4292530703612523,0.8471989788957334,0.27505789927118923
-77.33296394348145,3624.0,11404.0,11404.0,-84.0,92.0,-89.0,-0.15733318781493769,-0.4368860628412646,0.8405425516954657,0.27904310580324987
-77.34072518348694,3684.0,11408.0,11288.0,-110.0,69.0,-134.0,-0.1633784079932512,-0.4468046113217934,0.8316645666925435,0.2863689641201987
-77.3485279083252,3628.0,11412.0,11492.0,-83.0,6.0,-104.0,-0.1645141240983165,-0.4532651205878875,0.8253615005217686,0.29370772357407654
-77.35629796981812,3628.0,11412.0,11560.0,-80.0,13.0,-81.0,-0.16660540353918407,-0.45823584607822176,0.81984692793218,0.30018921306517476
-77.36410641670227,3600.0,11376.0,11556.0,-63.0,-45.0,-111.0,-0.1630598453852658,-0.46402425819305415,0.8143225590418562,0.30817486021225293
-77.37192487716675,3524.0,11052.0,11508.0,-56.0,-84.0,-57.0,-0.157890109993513,-0.46496657530648244,0.8116307007095518,0.31643704378552057
-77.37970614433289,3500.0,11316.0,11532.0,-74.0,-174.0,-56.0,-0.14707151398603927,-0.4630091176131717,0.8095609403405862,0.32955061926173346
-77.38749051094055,3488.0,11380.0,11368.0,-32.0,-171.0,-25.0,-0.13561935696725338,-0.45935978919126697,0.8096991929857901,0.3390917146851331
-77.39527106285095,3532.0,11424.0,11356.0,-70.0,-213.0,-13.0,-0.12303589101244834,-0.4530246359527711,0.8094411018569608,0.35275480346441956
-77.40305018424988,3428.0,11396.0,11476.0,-107.0,-277.0,-39.0,-0.10652834324543185,-0.4459142567567217,0.8072716338982195,0.371651310787118
-77.41082096099854,3492.0,11416.0,11492.0,-97.0,-282.0,-82.0,-0.08780907632736969,-0.4414436331355999,0.8032308252182954,0.3901760196343595
-77.41864275932312,3524.0,11484.0,11580.0,-130.0,-313.0,-115.0,-0.06699063710986655,-0.4375959983106863,0.7963501699073345,0.4121266840313149
-77.42640423774719,3464.0,11488.0,11604.0,-123.0,-278.0,-169.0,-0.04632862838289506,-0.438377746444444,0.7867004233711211,0.43218173663650933
-77.4341893196106,3504.0,11400.0,11592.0,-171.0,-11.0,-242.0,-0.043037768814554,-0.4536904479175977,0.7707430191778869,0.4452728672537216
-77.44198966026306,3476.0,11464.0,11576.0,-193.0,-205.0,-229.0,-0.028040270355478753,-0.46012208601710597,0.7545322121997317,0.46710014980798037
-77.44980573654175,3500.0,11372.0,11520.0,-182.0,-182.0,-262.0,-0.012740200515266198,-0.46921501281204203,0.7366245201097288,0.48688733339011564
-77.45758175849915,3472.0,11324.0,11596.0,-172.0,-158.0,-288.0,0.0025473394687109915,-0.48051508549406463,0.7172890127180218,0.504574311581821
-77.46537804603577,3528.0,11320.0,11684.0,-223.0,-192.0,-218.0,0.014743364469505322,-0.4854440921494003,0.6978957950398132,0.5263726112433197
-77.47318172454834,3540.0,11356.0,11684.0,-176.0,-204.0,-192.0,0.028456174641390396,-0.48771936493906953,0.6810997146550929,0.5453652408111105
-77.48097252845764,3508.0,11108.0,11636.0,-168.0,-230.0,-200.0,0.04441254744820761,-0.48877677750804155,0.6636837789046119,0.5644897067413269
-77.48874354362488,3508.0,11348.0,11596.0,-148.0,-259.0,-117.0,0.058777645816979085,-0.4830952327751971,0.650116126393463,0.5835350945960752
-77.49654269218445,3388.0,11404.0,11464.0,-179.0,-212.0,-170.0,0.07182278048035635,-0.48257933469479164,0.6324622512937692,0.6016229505413003
-77.50430989265442,3460.0,11416.0,11552.0,-200.0,-262.0,-153.0,0.08578625363506631,-0.47818597247279476,0.6135393916295714,0.6225337816828281
-77.51207756996155,3516.0,11500.0,11468.0,-217.0,-300.0,-154.0,0.1010324957643604,-0.4713653204232173,0.5926879941645676,0.6452349270421771
-77.5198667049408,3524.0,11300.0,11372.0,-6.0,-273.0,-60.0,0.11818409503679751,-0.45889978553865507,0.5872791808876092,0.6561605521584548
-77.52763652801514,3536.0,11544.0,11464.0,-281.0,-305.0,-144.0,0.13064577214771197,-0.45126438745402037,0.5618363302647971,0.680905333236759
-77.53542923927307,3596.0,11556.0,11392.0,-276.0,-235.0,-189.0,0.14237013599748272,-0.4493016157154709,0.5349492996707671,0.7012047128145114
-77.54322242736816,3832.0,11456.0,11320.0,-391.0,-165.0,-235.0,0.14891726024528548,-0.4544930399999958,0.4992906659710119,0.7224739144542337
-77.55099940299988,3624.0,11412.0,11404.0,-410.0,-188.0,-217.0,0.15430877831219578,-0.45684389906292305,0.46193533449110113,0.7443777264086952
-77.55877089500427,3652.0,11316.0,11408.0,-502.0,-162.0,-313.0,0.16085427072929892,-0.4648809531108483,0.41406418874789297,0.7658736518639638
-77.56660556793213,3596.0,11332.0,11264.0,-523.0,-116.0,-230.0,0.15891722154643606,-0.47200846539829355,0.3676812573904524,0.7853431213502061
-77.57438564300537,3588.0,11192.0,11344.0,-537.0,-118.0,-263.0,0.1583076257235611,-0.4789627348480303,0.3179780913933501,0.802759819409583
-77.58215951919556,3544.0,11152.0,11392.0,-569.0,-97.0,-305.0,0.15825022975907915,-0.4875298218477819,0.2636346826811738,0.8171709072635083
-77.58996915817261,3600.0,11152.0,11464.0,-551.0,-77.0,-253.0,0.15432710799487634,-0.4945935085431005,0.21226296598183758,0.8285558751934338
-77.5977578163147,3604.0,11056.0,11640.0,-519.0,-93.0,-511.0,0.1701821313006571,-0.5031239943399329,0.1511791324009419,0.8336960827735101
-77.60553431510925,3704.0,11080.0,11404.0,-499.0,-110.0,-15.0,0.150597012338223,-0.5020640549747275,0.11255079172962446,0.8441472287807203
-77.61334991455078,3824.0,10984.0,11472.0,-545.0,-65.0,-190.0,0.14110753960900757,-0.5054946752333606,0.06322954216478781,0.8488614849160274
-77.62115550041199,3856.0,11048.0,11352.0,-550.0,-108.0,-149.0,0.1282514954335771,-0.5042901478685462,0.014662441631404287,0.8538313729813262
-77.62893652915955,3964.0,11252.0,11588.0,-484.0,-145.0,-54.0,0.11099037766389279,-0.4983350666322755,-0.02526849811196584,0.8594793775500361
-77.63670945167542,3960.0,10948.0,11456.0,-459.0,-211.0,-12.0,0.09131560102574335,-0.4863122877435936,-0.06208703946641795,0.8667796832697424
-77.6445198059082,4000.0,11024.0,11472.0,-436.0,-274.0,80.0,0.06514839348773632,-0.46886969136870477,-0.09363479529570844,0.8758706665094529
-77.65229177474976,4048.0,10972.0,11416.0,-434.0,-209.0,74.0,0.03993011763387993,-0.455420681332303,-0.12472251804103397,0.8805917795517225
-77.66006827354431,4072.0,10980.0,11344.0,-444.0,-275.0,120.0,0.009996852263616365,-0.4365343515789103,-0.15472239510634578,0.8862272864728075
-77.66788816452026,3992.0,11008.0,11296.0,-421.0,-283.0,169.0,-0.022970753865179456,-0.4167201429276737,-0.18074373568694718,0.8905887765715058
-77.6756796836853,3980.0,11004.0,11372.0,-384.0,-318.0,167.0,-0.05493623433672144,-0.39333792380811616,-0.20350382561519753,0.8949041740941879
-77.68344926834106,3872.0,10852.0,11464.0,-384.0,-340.0,220.0,-0.09129335935154266,-0.36830177770446104,-0.22387690682965167,0.8977184712739464
-77.6912670135498,3848.0,10836.0,11256.0,-374.0,-352.0,157.0,-0.12242180377425209,-0.34033431405324027,-0.24487891416935575,0.8995664366981498
-77.69904351234436,3788.0,10800.0,11240.0,-427.0,-339.0,140.0,-0.15321924550295057,-0.31167918330212474,-0.27010826310651,0.898009730295397
-77.70682072639465,3608.0,10736.0,11388.0,-454.0,-225.0,51.0,-0.1747589798592655,-0.28880918262566924,-0.30080376080875054,0.8919448707588119
-77.71461796760559,3580.0,10648.0,11292.0,-512.0,-167.0,34.0,-0.1945396184683994,-0.26852507028326134,-0.33669174988402245,0.881298637826914
-77.72238540649414,3328.0,10600.0,11428.0,-502.0,-156.0,26.0,-0.21272291607364655,-0.2484483957240792,-0.3714668416782354,0.8689273509177003
-77.73014497756958,3488.0,10640.0,11272.0,-596.0,-141.0,0.0,-0.2299468420132744,-0.22632106457009318,-0.41328058377793886,0.851529438511757
-77.73791456222534,3428.0,10528.0,11380.0,-576.0,-80.0,-69.0,-0.23882490584916577,-0.20602303787947435,-0.45508619295857483,0.8327146745359545
-77.74569153785706,3340.0,10504.0,11384.0,-559.0,-29.0,-117.0,-0.24127652709170536,-0.18735801295040852,-0.49644265309863606,0.8125437247571526
-77.75345706939697,3224.0,10420.0,11420.0,-526.0,60.0,-13.0,-0.24614301395763688,-0.1797648119052799,-0.5345134549157411,0.7882852247724473
-77.76125383377075,3336.0,10400.0,11332.0,-462.0,101.0,-345.0,-0.22469455644935502,-0.1604706460370385,-0.5730138790114885,0.771632440040393
-77.76901745796204,3284.0,10328.0,11264.0,-341.0,144.0,-507.0,-0.18787633933083644,-0.1379060471963114,-0.6048899418633846,0.7614411083589092
-77.77678227424622,3320.0,10140.0,11212.0,-210.0,151.0,-702.0,-0.13551110100693511,-0.10719248127235805,-0.6283365849874917,0.7585114695433551
-77.78455519676208,3468.0,10120.0,11232.0,-251.0,86.0,-888.0,-0.07411859008980748,-0.060997366862516174,-0.652059769551178,0.752066361946739
-77.79232430458069,3508.0,10012.0,11208.0,223.0,249.0,-1052.0,0.010260496579448771,-0.018800686897099714,-0.6415720429798302,0.7667636989639163
-77.80009174346924,3640.0,9948.0,11176.0,460.0,-112.0,-1272.0,0.08927915931787593,0.0599544371113882,-0.6086155692279303,0.7861436166983183
-77.80790591239929,3648.0,9960.0,11028.0,744.0,-286.0,-1448.0,0.16786306907171514,0.16067733160889905,-0.5464322635486955,0.8046220022482095
-77.81568384170532,3812.0,10016.0,10912.0,979.0,-425.0,-1550.0,0.2395800519069442,0.27515188431333026,-0.45589790112742207,0.8118189102470457
-77.82346487045288,3992.0,10240.0,11168.0,1221.0,-694.0,-1596.0,0.29085440336070695,0.40645697367091865,-0.33957295324417347,0.7967977497615034
-77.83126640319824,3852.0,10468.0,11224.0,1424.0,-847.0,-1676.0,0.3250914667560296,0.539867756225148,-0.19822191604882644,0.750710607377283
-77.83905386924744,4048.0,10548.0,11284.0,1526.0,-777.0,-1749.0,0.34664164498583294,0.6496021543240801,-0.03684633855580631,0.6756470664437615
-77.8468279838562,4216.0,10792.0,11304.0,1578.0,-1095.0,-1764.0,0.34887986655350367,0.7483395455965118,0.12014597640950749,0.5512129421218463
-77.85461068153381,4304.0,10768.0,11512.0,1587.0,-1230.0,-1719.0,0.33221079043180973,0.8162805690778988,0.26442157058240784,0.39166727751660124
-77.86240148544312,4388.0,11304.0,11600.0,1429.0,-1353.0,-1617.0,0.30944854712468256,0.8459412714005338,0.3799776171492526,0.21033775811595795
-77.87017226219177,4472.0,11504.0,11752.0,1530.0,-1410.0,-1407.0,0.2629157922551821,0.8463639501571645,0.46287127656156846,0.01713275784730751
-77.87798523902893,4456.0,11664.0,11844.0,1134.0,-1565.0,-1204.0,0.23956420127413264,0.8102299635332567,0.5076550428784702,-0.16859050121772234
-77.88579797744751,4532.0,11788.0,11892.0,944.0,-1584.0,-975.0,0.2250192289320006,0.7511095233332173,0.5210091316425506,-0.3372689065331552
-77.89357662200928,4496.0,11784.0,11900.0,693.0,-1509.0,-908.0,0.21858838702954556,0.669923193804481,0.5233751709362358,-0.47906206477458785
-77.90134167671204,4560.0,11688.0,11948.0,522.0,-1334.0,-966.0,0.20634710166896894,0.5734774812426888,0.5265829138181751,-0.5926676024679585
-77.90911722183228,4404.0,11536.0,11868.0,258.0,-1058.0,-1119.0,0.18254919653289156,0.46762026638991855,0.5450953346643039,-0.6714746111610087
-77.91690969467163,4528.0,11408.0,12020.0,25.0,-915.0,-1275.0,0.14899492772112857,0.35042975370490387,0.5756446685409617,-0.7236247057778378
-77.92470908164978,4388.0,11156.0,11812.0,-304.0,-648.0,-1435.0,0.09928166057549341,0.23116315322212896,0.6241511380805015,-0.739690546984744
-77.93250441551208,4328.0,10936.0,11852.0,-624.0,-312.0,-1781.0,0.013700360709212876,0.10706993222717273,0.6880758371654815,-0.7175653085526974
-77.94027471542358,4712.0,10936.0,12084.0,-823.0,-228.0,-1769.0,-0.07464577090478346,-0.014268794818550928,0.7449513266405652,-0.6627759284380493
-77.94805002212524,4572.0,11012.0,12096.0,-1076.0,-168.0,-1683.0,-0.1600413734725221,-0.12455863551654672,0.7940830686744826,-0.5729781716084841
-77.9558265209198,4664.0,11016.0,12180.0,-1203.0,-229.0,-1651.0,-0.23611691208780658,-0.2300073633549895,0.8262593085005803,-0.4567723412650415
-77.96363925933838,4708.0,11160.0,12160.0,-1269.0,-551.0,-1400.0,-0.2737430979892604,-0.32210814354310824,0.8476453955446308,-0.3206374020267146
-77.97143840789795,5336.0,11488.0,12460.0,-1181.0,-821.0,-1232.0,-0.2770115114253245,-0.4025845579582702,0.8540495275622509,-0.17829666486532325
-77.97924304008484,5480.0,11384.0,12528.0,-1258.0,-1184.0,-675.0,-0.2404156428924536,-0.4352601652549835,0.8672150207633934,-0.026210970168228993
-77.98702049255371,5656.0,11288.0,12432.0,-891.0,-1376.0,-426.0,-0.16932356596899803,-0.4471006114765374,0.8724381809791253,0.10140115184101106
-77.99478936195374,5768.0,11316.0,12228.0,-803.0,-1473.0,-281.0,-0.08514101448815047,-0.43877484291866437,0.8666154192834231,0.22182281202312493
-78.00258660316467,5772.0,11128.0,12308.0,-814.0,-1522.0,-330.0,0.005081270569619204,-0.4232473382984973,0.8396865990781762,0.3402385731235679
-78.01036667823792,5868.0,11152.0,12292.0,-849.0,-1791.0,-283.0,0.11164319079132921,-0.3852977099881943,0.7912068866133336,0.46159845667356786
-78.01813578605652,6124.0,11084.0,12168.0,-795.0,-1585.0,-419.0,0.20858143189372863,-0.3536149926076796,0.7205494124387395,0.5588011878176529
-78.02590107917786,5788.0,10992.0,12156.0,-747.0,-1579.0,-479.0,0.30437454788142393,-0.31630755557808915,0.6326799897630542,0.6379825196975343
-78.03370070457458,5752.0,11168.0,12120.0,-724.0,-1563.0,-510.0,0.39424071412487477,-0.2732048896881335,0.5302267435900592,0.6991372883480649
-78.04148125648499,5704.0,11340.0,12280.0,-749.0,-1404.0,-634.0,0.4747269047443084,-0.23980705137308242,0.4164056957966947,0.737382696116275
-78.04926633834839,5488.0,11508.0,11952.0,-815.0,-1254.0,-755.0,0.5459871965982329,-0.21776939751668223,0.2930368258225382,0.7540582798218417
-78.05704116821289,5220.0,11512.0,11944.0,-875.0,-1040.0,-915.0,0.6099400067524019,-0.21199840384621252,0.1668017523562452,0.7451221647088642
-78.06485795974731,4952.0,11404.0,11744.0,-1004.0,-828.0,-1065.0,0.6655448553135456,-0.22441487542633773,0.03736992840363285,0.71083858765838
-78.07266235351562,4752.0,11284.0,11752.0,-1139.0,-531.0,-1182.0,0.7103293841129552,-0.25830265002446395,-0.08624186656356868,0.6490564286005346
-78.0804488658905,4596.0,11132.0,11712.0,-1275.0,-276.0,-1362.0,0.7466906324006469,-0.3070869438861321,-0.20346760451116178,0.5538516428559969
-78.0882179737091,4596.0,11036.0,11524.0,-1382.0,-46.0,-1459.0,0.7677347161057273,-0.3632707350369358,-0.30761630571434967,0.4289405404137481
-78.09603238105774,4512.0,10888.0,11712.0,-1499.0,192.0,-1791.0,0.7764458705885918,-0.4140840930828437,-0.3993507306839933,0.25726478150699755
-78.10381364822388,4568.0,10696.0,11744.0,-1640.0,337.0,-1636.0,0.7502541544282795,-0.46600906718912505,-0.4628843046174012,0.07544782037603118
-78.11159467697144,4672.0,11252.0,12292.0,-1973.0,672.0,-1561.0,0.689914362347063,-0.5231130753938459,-0.4830352332263855,-0.13056740190862665
-78.11939406394958,3828.0,9704.0,11552.0,-1696.0,322.0,-1464.0,0.5978638512983209,-0.5491293897807441,-0.5014642217768444,-0.29924799559480914
-78.12717986106873,4748.0,10280.0,11852.0,-1623.0,379.0,-1394.0,0.4915132049188597,-0.5529418348866945,-0.4972409803477398,-0.4532344912794538
-78.1349527835846,4728.0,10056.0,11880.0,-1504.0,487.0,-1118.0,0.3902986952621994,-0.5418711054731407,-0.46421147145020186,-0.5818507912721095
-78.14276051521301,4668.0,9868.0,11772.0,-1331.0,48.0,-884.0,0.2816476504919729,-0.543558033096856,-0.43258604485989394,-0.6618826024460097
-78.15053367614746,4716.0,9688.0,11992.0,-1112.0,-107.0,-584.0,0.1899307173468635,-0.5515557626493205,-0.3962747941552408,-0.7089984843521555
-78.15830874443054,4744.0,9676.0,11816.0,-859.0,-338.0,-487.0,0.10625996213590308,-0.5673724057484669,-0.3706211946148315,-0.7276244249228779
-78.16607689857483,4896.0,9568.0,11948.0,-753.0,-450.0,66.0,0.05837830345388501,-0.6031532916126507,-0.3227445204279353,-0.7270722488421717
-78.17387461662292,5016.0,9600.0,11892.0,-258.0,-267.0,449.0,0.06562479435439718,-0.6331049582982924,-0.28373362353324233,-0.7171936482016255
-78.181649684906,4900.0,9528.0,11752.0,31.0,-580.0,836.0,0.10483595972963476,-0.6871086392526742,-0.24186850351107822,-0.6770456162041196
-78.18939709663391,5264.0,9624.0,11952.0,325.0,-508.0,1180.0,0.18207331977063101,-0.7340691207446292,-0.19369461551619294,-0.6248793708524414
-78.1972029209137,5308.0,9668.0,11800.0,532.0,-473.0,1408.0,0.28226058486553185,-0.7678873970250629,-0.13874521918260593,-0.5580570507353274
-78.2049868106842,5416.0,9700.0,11840.0,669.0,-345.0,1711.0,0.40094911428780466,-0.7785696476972721,-0.06434552176023205,-0.4784650094476858
-78.2127468585968,5468.0,9796.0,11976.0,831.0,-210.0,1861.0,0.5256328829307704,-0.756647450703305,0.01971056737723135,-0.3883377412250119
-78.2205536365509,5480.0,10024.0,11716.0,982.0,-53.0,2025.0,0.6468817885256617,-0.6965295719343093,0.11547715163736835,-0.288193571310273
-78.22832465171814,5476.0,10136.0,11704.0,1101.0,140.0,2164.0,0.7501822088260967,-0.5956860046693588,0.22225039436107424,-0.18163039285373578
-78.23611879348755,5452.0,10380.0,11612.0,1144.0,350.0,2142.0,0.8183493554947097,-0.4630826463284019,0.33084989228267164,-0.07998214680428639
-78.24395394325256,5532.0,10520.0,11288.0,1075.0,559.0,2154.0,0.8414186510715818,-0.3128747996369634,0.44015059624271274,0.01978549994804704
-78.25174355506897,5564.0,10652.0,11444.0,1007.0,755.0,2105.0,0.817821716477085,-0.15568908407878385,0.5424547166322828,0.11256744449694873
-78.25952887535095,5484.0,10772.0,11340.0,856.0,1000.0,1998.0,0.7464316930966575,-0.009473194499143764,0.6355942321368873,0.19690088420613905
-78.26731491088867,5476.0,10684.0,11264.0,717.0,1214.0,1933.0,0.63284530341471,0.12111048394615312,0.7131277520888868,0.27620261009795666
-78.27510452270508,5460.0,10712.0,11260.0,643.0,1271.0,1914.0,0.4902995620782104,0.24005097858459296,0.7621573153111512,0.3479915140117542
-78.28287935256958,5488.0,10568.0,11484.0,672.0,1360.0,1933.0,0.3197738954697331,0.34821780945674297,0.7823884364648748,0.40541009785069254
-78.29066061973572,5432.0,10712.0,11532.0,723.0,1404.0,2100.0,0.12438205983761927,0.45044402974469266,0.7634314247262376,0.4458718863063475
-78.29843044281006,5404.0,10292.0,11552.0,830.0,1280.0,2214.0,-0.07760457200602244,0.5424189264888724,0.703404590370593,0.45274851831452667
-78.30620241165161,5512.0,10296.0,11736.0,960.0,1253.0,2372.0,-0.2850507550917538,0.6133093402865806,0.6021627581811039,0.42426139678102465
-78.31401014328003,5588.0,10064.0,11748.0,1144.0,1181.0,2495.0,-0.4845719058639518,0.650427057572829,0.46596746768737346,0.3535661605436043
-78.32182288169861,5536.0,9948.0,11952.0,1335.0,1177.0,2672.0,-0.6651150891563369,0.6415203589532827,0.294347728047666,0.24378876557008633
-78.3296000957489,5556.0,9752.0,11860.0,1479.0,1197.0,2788.0,-0.8039101770298134,0.5771816599876815,0.096144761306264,0.1065173390351075
-78.33737468719482,5588.0,9740.0,11520.0,1623.0,1237.0,2896.0,-0.8818600478428513,0.45471693446650063,-0.11600657219561235,-0.0458021913822508
-78.3451783657074,5668.0,9832.0,11860.0,1723.0,1312.0,2955.0,-0.8812653452124165,0.2831190577439026,-0.3248974254600811,-0.19405322310968315
-78.35296702384949,5868.0,9836.0,11676.0,1817.0,1338.0,2824.0,-0.8015028843817311,0.0817730917442396,-0.5038007336988509,-0.3115944616305833
-78.36073160171509,5836.0,9936.0,11488.0,1947.0,1385.0,3178.0,-0.6311631691616937,-0.14801347586028776,-0.6388259223986752,-0.41427829502522245
-78.36854553222656,5632.0,10212.0,11396.0,2020.0,1421.0,3305.0,-0.3822938887563182,-0.36908401963608556,-0.70311782702705,-0.47249729140557056
-78.37631392478943,5588.0,10176.0,11120.0,2036.0,1382.0,3408.0,-0.08574523258540133,-0.5531401332608841,-0.6790436432064266,-0.47495629134263506
-78.38407349586487,5592.0,10216.0,10816.0,2121.0,1374.0,3534.0,0.22871524120224512,-0.6746076857056241,-0.567161411723766,-0.4134268277219145
-78.39186143875122,5544.0,10336.0,10964.0,2120.0,1338.0,3642.0,0.514262932916929,-0.7129941817320204,-0.3754899203435455,-0.29356473283479184
-78.39963459968567,5496.0,10348.0,10880.0,2243.0,1262.0,3769.0,0.735618966339509,-0.653488230117023,-0.13169964617880325,-0.12030408412224079
-78.40743255615234,5492.0,10440.0,10916.0,2291.0,1216.0,3873.0,0.8531091668225717,-0.4983619347880713,0.13265441507063522,0.07901226233854503
-78.41522121429443,5520.0,10736.0,11260.0,2351.0,1130.0,3956.0,0.8456029589477005,-0.263476621468489,0.37429969678439706,0.2746551342057021
-78.42297959327698,5408.0,10568.0,11152.0,2364.0,1117.0,3889.0,0.7129406145761332,0.01061918689342135,0.5578937941691401,0.42468509202123994
-78.43076705932617,5812.0,10592.0,11300.0,2288.0,1091.0,3873.0,0.47668841455344513,0.2793564380213736,0.6553949227203866,0.5149617764833345
-78.43853044509888,6032.0,10608.0,11608.0,2278.0,1099.0,3705.0,0.17853298546589588,0.4997849773447339,0.6639537022618648,0.5267887914277607
-78.44628095626831,6236.0,10640.0,11800.0,2170.0,1054.0,3826.0,-0.14244138498895936,0.6574599832933574,0.5703330514563751,0.4713565875500044
-78.45404434204102,6420.0,10628.0,12064.0,2089.0,1185.0,3424.0,-0.4341725025899025,0.7074651320309171,0.41804319530483336,0.3690897070017304
-78.4618468284607,6476.0,10620.0,12244.0,2021.0,1316.0,3261.0,-0.6712602908266867,0.6668406225799095,0.21861709596789644,0.23862055943919414
-78.46966075897217,6524.0,10632.0,12312.0,1915.0,1606.0,2978.0,-0.829020863401895,0.5472574164044637,-0.008430975295122952,0.11472857922183465
-78.47743463516235,6528.0,10600.0,12312.0,1829.0,1957.0,2704.0,-0.8940539356999707,0.3731237458014231,-0.2475302596294643,0.013228792321208197
-78.48520922660828,6444.0,10628.0,12068.0,1745.0,2299.0,2385.0,-0.859325648675703,0.17356590962596777,-0.47764750089358016,-0.05733384196013463
-78.49297523498535,6224.0,10568.0,11840.0,1631.0,2641.0,2192.0,-0.7242374536719385,-0.02570355461346498,-0.6805535750863067,-0.10801050604578392
-78.50074863433838,6040.0,10580.0,11668.0,1536.0,2898.0,1898.0,-0.50395061074293,-0.19777932820890257,-0.8296967075315659,-0.13609001718106328
-78.50854754447937,6128.0,10532.0,11464.0,1475.0,3057.0,1710.0,-0.22475775165825,-0.33242290606884617,-0.9036996099720963,-0.14935186482448987
-78.51631736755371,5752.0,10436.0,11156.0,1475.0,3078.0,1625.0,0.07789960948552552,-0.4268003832916399,-0.8889917930998142,-0.1465151031985742
-78.5240888595581,5516.0,10460.0,10884.0,1556.0,2949.0,1758.0,0.36782054362121464,-0.4891190266217121,-0.782079070268924,-0.11757105653228803
-78.53189826011658,5412.0,10244.0,10956.0,1677.0,2661.0,1944.0,0.6100854457594385,-0.5145005778578967,-0.6003397564362516,-0.051740516990650194
-78.53966999053955,5316.0,10424.0,10624.0,1896.0,2413.0,2267.0,0.7893624999369678,-0.4946370724393069,-0.3591823763162773,0.056824561641287415
-78.54744696617126,5348.0,10424.0,10596.0,2018.0,2286.0,2537.0,0.8841601882002236,-0.42176542695344416,-0.07760567401321447,0.18534304839804108
-78.55524516105652,5432.0,10524.0,10656.0,2183.0,1623.0,2790.0,0.8809011429965413,-0.28236006706264266,0.17576211860671784,0.3367397310366644
-78.56302380561829,5372.0,10652.0,10688.0,2334.0,1286.0,2998.0,0.7839563841555103,-0.08915883564211802,0.39363421201521975,0.47171516500947575
-78.57083225250244,5468.0,10728.0,10936.0,2375.0,1057.0,3068.0,0.6036905671020673,0.12781833710745721,0.5543384434342563,0.5585060984644254
-78.5786120891571,5592.0,10864.0,10944.0,2416.0,912.0,3042.0,0.3629090988657056,0.33806010197431224,0.6478949887653824,0.5781387696274176
-78.5863733291626,5528.0,11004.0,11076.0,2348.0,924.0,3002.0,0.08503218711019488,0.5067283229244552,0.6688473176719117,0.53725152353857
-78.59413647651672,5540.0,10980.0,11372.0,2188.0,924.0,2782.0,-0.18685312255863482,0.611599453331994,0.624159460249375,0.4488396010328221
-78.601895570755,5436.0,10772.0,11620.0,2052.0,1066.0,2565.0,-0.4356158619938034,0.64728906514978,0.5268009350419751,0.33724836805508807
-78.6096601486206,5460.0,10792.0,11752.0,1824.0,1026.0,2318.0,-0.6310920794751067,0.6312176941582045,0.3960658760657331,0.21545029965555465
-78.61742544174194,5460.0,11028.0,11912.0,1638.0,1503.0,2122.0,-0.7854898008213619,0.5659743164822437,0.2194135948487879,0.12056749264875044
-78.62519001960754,5412.0,10956.0,11784.0,1482.0,1707.0,1852.0,-0.8826904137342043,0.46678415217389846,0.02568636030413792,0.04806661705758138
-78.63294982910156,5584.0,10920.0,11876.0,1383.0,1949.0,1612.0,-0.9215264234053868,0.3447412266667249,-0.17872462877898304,0.0002113523410918893
-78.64071369171143,5372.0,10940.0,11856.0,1309.0,2122.0,1392.0,-0.9003764121285931,0.2110459621491126,-0.3795665207094466,-0.026667858922731297
-78.64850997924805,5448.0,10880.0,11644.0,1531.0,2328.0,1203.0,-0.8204384436580575,0.054250007804698484,-0.5685274313054306,-0.02672558089889782
-78.65627217292786,5716.0,10904.0,11520.0,1208.0,2443.0,1278.0,-0.678980773642615,-0.0871366936125393,-0.7275597831053443,-0.04526662852096202
-78.66407299041748,5808.0,10808.0,11448.0,1129.0,2516.0,878.0,-0.4917551650750463,-0.19384680654874148,-0.8477687986696218,-0.04345500218772452
-78.67190623283386,5932.0,10976.0,11408.0,1085.0,2339.0,827.0,-0.2892385726626129,-0.2849376301498998,-0.9131050994636135,-0.03729171948566781
-78.67968344688416,6060.0,11152.0,11476.0,1102.0,2612.0,820.0,-0.04937059308356426,-0.3579527810736964,-0.931810186367381,-0.034089993284982176
-78.68745446205139,6108.0,11036.0,11456.0,1050.0,2638.0,769.0,0.1940165253594164,-0.4040727127690578,-0.8932894963513744,-0.03341715713852777
-78.69525599479675,6208.0,11428.0,11560.0,969.0,2651.0,700.0,0.42355269182803074,-0.4211357859917339,-0.8011089033694961,-0.03837045666234735
-78.70301246643066,6248.0,11276.0,11516.0,881.0,2746.0,578.0,0.629534323501875,-0.40654755642826856,-0.6598628688257496,-0.05464992443080068
-78.7107949256897,6204.0,11624.0,11720.0,785.0,2865.0,405.0,0.7975419981589518,-0.3608182074823156,-0.47574508057410153,-0.0860441783702824
-78.71859526634216,6200.0,11652.0,11860.0,636.0,3009.0,144.0,0.9113189860486407,-0.28947690947872495,-0.25735931406102447,-0.13952422016253083
-78.72637009620667,6080.0,11656.0,11968.0,535.0,3142.0,-63.0,0.9582785130787803,-0.19941295213460583,-0.015015195802788267,-0.20423346882302898
-78.73415613174438,6016.0,11608.0,12128.0,374.0,3231.0,-375.0,0.9253513688283407,-0.10556263397347022,0.23256169260113496,-0.2801721500267192
-78.74196314811707,5904.0,11748.0,12032.0,237.0,3413.0,-578.0,0.8079924221543235,-0.013889242170961743,0.4755752192027007,-0.3475392719872229
-78.74973344802856,5956.0,11292.0,12036.0,74.0,3485.0,-766.0,0.6113216410833338,0.06238411100805387,0.6855693330813533,-0.39037003391052333
-78.75751543045044,5840.0,11012.0,12088.0,-54.0,3328.0,-978.0,0.3629363685325059,0.10950749329601149,0.8329238917992451,-0.4031415282236012
-78.76526689529419,5880.0,11000.0,11948.0,-91.0,3592.0,-1063.0,0.06202864834038186,0.1480400930656058,0.912504344643463,-0.37626107775983986
-78.77307152748108,6124.0,10592.0,11868.0,-153.0,3600.0,-1116.0,-0.24641252320768448,0.16769547244248756,0.9037089712893975,-0.307358409905719
-78.78084206581116,5816.0,10400.0,11648.0,-138.0,3560.0,-1040.0,-0.5262596916131892,0.17514519203251958,0.8048520538266338,-0.21115887417329207
-78.78862857818604,5868.0,10208.0,11572.0,-93.0,3482.0,-989.0,-0.7511442509815496,0.1659557660925533,0.6309069579925286,-0.10098221761584825
-78.79640245437622,5856.0,10024.0,11648.0,2.0,3348.0,-858.0,-0.9029789279968234,0.1416458671875129,0.40565092481180204,0.0035820527263760752
-78.80416369438171,5784.0,9884.0,11776.0,90.0,3211.0,-632.0,-0.9784502605448919,0.10665653795419883,0.15417857572927324,0.08653575756500947
-78.81192183494568,5600.0,9940.0,12256.0,198.0,3014.0,-344.0,-0.984218229873876,0.05997221223499347,-0.09512882833418575,0.1366320451553748
-78.81969094276428,5548.0,10024.0,12088.0,329.0,2992.0,-114.0,-0.928271334936592,-0.0031545551147887877,-0.3359972168054469,0.15939964810519136
-78.82744717597961,5472.0,10120.0,12408.0,447.0,3035.0,76.0,-0.8117071305945719,-0.08111323537428985,-0.5558778455281311,0.1598499234908939
-78.83524465560913,5400.0,10560.0,12552.0,763.0,3033.0,234.0,-0.63900625198312,-0.18222512990487744,-0.7314455007519794,0.15314206276304926
-78.84301114082336,5268.0,10844.0,12724.0,529.0,2937.0,320.0,-0.43282404257867246,-0.26260884787453387,-0.8542258627564815,0.11831363649981605
-78.85077834129333,4952.0,11744.0,12868.0,439.0,2777.0,307.0,-0.2125297578123024,-0.32115465321701636,-0.9199369027935682,0.073531528203072
-78.8585433959961,4760.0,12320.0,13028.0,224.0,2814.0,329.0,0.01707323822062301,-0.3589266825497474,-0.933188472375237,0.006278225582612433
-78.86630487442017,4500.0,13244.0,13172.0,249.0,2311.0,229.0,0.20871380981835394,-0.3708452413590219,-0.9038353064250997,-0.04465525066465073
-78.8740918636322,4276.0,13924.0,13016.0,-395.0,2072.0,138.0,0.35398448501463475,-0.3745089757390262,-0.8457887006131047,-0.13812851036272458
-78.88188767433167,3952.0,14080.0,13036.0,-956.0,1943.0,-164.0,0.45610773439849894,-0.3620202671942184,-0.7659183683675904,-0.27253644482825284
-78.8896644115448,3612.0,14512.0,12948.0,-1334.0,2069.0,-466.0,0.5287124596140886,-0.32694794915945274,-0.6510997701685182,-0.435473607553605
-78.89744448661804,3204.0,14448.0,12692.0,-2278.0,2282.0,-925.0,0.5357300447447294,-0.2808406009145616,-0.46596594898557847,-0.6457535214164362
-78.90523386001587,2776.0,14200.0,12544.0,-2885.0,2717.0,-1436.0,0.46409850050410495,-0.19142899991105322,-0.19847754571502965,-0.8417684857903827
-78.91300344467163,2392.0,13800.0,12456.0,-3411.0,3123.0,-2013.0,0.2867141575043702,-0.05953622090892689,0.13249332789687926,-0.9469403087572378
-78.9207820892334,2188.0,13212.0,12344.0,-3801.0,3437.0,-2309.0,0.032681075550424675,0.09226256361347851,0.4671853335689447,-0.8787248891174133
-78.92853331565857,2052.0,12552.0,12196.0,-3971.0,3630.0,-2920.0,-0.2710844393064088,0.21192379217402568,0.7104654987649073,-0.613873202006116
-78.93631386756897,2144.0,11896.0,11856.0,-3890.0,3517.0,-2998.0,-0.5112262868989341,0.2710995424891115,0.788245748512185,-0.20933552397571759
-78.94408583641052,2388.0,11224.0,11876.0,-3836.0,3108.0,-2882.0,-0.6147315434697188,0.26907684125997045,0.7049110419793585,0.2297894816053791
-78.95189881324768,2732.0,10792.0,11832.0,-3114.0,2613.0,-2803.0,-0.5934000897984067,0.19393571958533462,0.5216043764916645,0.5815446195442818
-78.95965123176575,3108.0,10172.0,11776.0,-2587.0,1952.0,-2013.0,-0.5088021392530798,0.1299891324923104,0.30660029444214654,0.7938636331092233
-78.96743369102478,3568.0,9960.0,11768.0,-2264.0,1317.0,-1351.0,-0.4112877445431995,0.09958853355899791,0.10332029089616694,0.9001385630341961
-78.97526288032532,3420.0,9772.0,11736.0,-1433.0,782.0,-715.0,-0.345533024264161,0.08203107226463825,-0.030432351889993176,0.9343188450868473
-78.98304343223572,3580.0,9748.0,11620.0,-958.0,379.0,-463.0,-0.29845970556967827,0.0808020077268891,-0.11577820661991628,0.9439217375240601
-78.99081015586853,3536.0,9944.0,11860.0,-644.0,178.0,113.0,-0.3008994993060898,0.08159811994403104,-0.17364976898401985,0.9341557663852108
-78.99861526489258,3368.0,10212.0,11912.0,-502.0,129.0,268.0,-0.31681238480654045,0.08006746013706431,-0.21929451528534624,0.919308996054187
-79.00637602806091,3316.0,10268.0,11908.0,-538.0,302.0,145.0,-0.31843134043977434,0.06780217878367349,-0.2711321427322881,0.9058099729829174
-79.01414203643799,3008.0,10880.0,11824.0,-736.0,710.0,-220.0,-0.2787427069206261,0.037145673890566784,-0.3460568385211544,0.8950795309705842
-79.0218870639801,2356.0,11008.0,11664.0,-783.0,1173.0,-716.0,-0.1831253194835253,-0.01371247244565629,-0.4291551546473867,0.8843658398553516
-79.02965641021729,1948.0,11476.0,11564.0,-1430.0,1648.0,-1065.0,-0.04002491431793804,-0.07648321462094364,-0.554667199447193,0.8275823958812176
-79.03741955757141,1456.0,11664.0,11328.0,-1849.0,2123.0,-1939.0,0.1825409204237128,-0.12409406514300388,-0.6789148834117867,0.7002528517964833
-79.04520440101624,1132.0,11724.0,11640.0,-2218.0,2457.0,-2454.0,0.42736457139869366,-0.15447972756355996,-0.7545424722495954,0.4734566447485638
-79.05297493934631,1008.0,11792.0,11628.0,-2432.0,2701.0,-2908.0,0.6417665158238953,-0.15310095900020768,-0.7350949777088891,0.1559846443328401
-79.0607533454895,564.0,11816.0,11544.0,-2576.0,2885.0,-3193.0,0.7658176375781481,-0.12067134885485103,-0.5964902821314338,-0.20775253274638483
-79.06854701042175,300.0,11872.0,11608.0,-2643.0,2933.0,-3435.0,0.7535104008482897,-0.05927393930247471,-0.3534393351564773,-0.5511708558125724
-79.07632350921631,-40.0,11832.0,11568.0,-2686.0,2916.0,-3528.0,0.5986821558803908,0.01222351842764644,-0.045971702657791234,-0.7995729262440044
-79.08409547805786,-48.0,11852.0,11436.0,-2611.0,2809.0,-3572.0,0.3305782101557381,0.07853055370979817,0.26057387022898343,-0.9036881415942947
-79.09190225601196,-432.0,11832.0,11428.0,-2530.0,2592.0,-3610.0,0.003918240308279069,0.1168287304403989,0.5108550069456282,-0.851682368618227
-79.0996789932251,-624.0,11648.0,11376.0,-2560.0,2336.0,-3345.0,-0.2975870271954235,0.12948252171640073,0.6784456951335991,-0.6590809332469266
-79.10745811462402,-824.0,11316.0,11548.0,-2486.0,2137.0,-3416.0,-0.5476953696668975,0.10598405923047484,0.7435117105479894,-0.36876482683747724
-79.11526703834534,-880.0,11212.0,12028.0,-2399.0,1874.0,-3278.0,-0.7011526499343521,0.06353108554431351,0.7092455156481079,-0.03632576485975873
-79.12304162979126,-848.0,10976.0,12048.0,-2319.0,1630.0,-2997.0,-0.75152836679994,0.02352791571012325,0.5959036756620976,0.2820467344426343
-79.13081336021423,-760.0,10672.0,12248.0,-2215.0,1447.0,-2700.0,-0.7177281159961101,-0.0069866330269954206,0.429095113287125,0.548356564856052
-79.1386079788208,-596.0,10076.0,12472.0,-2060.0,1168.0,-2389.0,-0.6220927329299644,-0.02256575752152112,0.2453519898631668,0.7431647322723223
-79.14637732505798,-524.0,10084.0,12768.0,-1969.0,943.0,-2083.0,-0.49415401181587293,-0.02103071054750693,0.06032457850529461,0.8670239137695707
-79.15414810180664,-328.0,9844.0,12772.0,-1913.0,817.0,-2027.0,-0.3379218025308593,-0.010863922604737402,-0.11932385849789365,0.9335162812469356
-79.161945104599,-344.0,9604.0,12668.0,-1815.0,778.0,-1558.0,-0.19988592844165515,-0.004477980915318414,-0.2845484486770877,0.9375807931337985
-79.16972637176514,-308.0,9520.0,12712.0,-1642.0,625.0,-1350.0,-0.073204769790828,0.006393943689250387,-0.4222832216295404,0.9034805254647976
-79.17750430107117,-484.0,9672.0,12408.0,-1444.0,671.0,-1173.0,0.04417420802825494,0.005837500019519452,-0.5317445859957813,0.8457317885729339
-79.18530988693237,-100.0,9916.0,12272.0,-1283.0,617.0,-1001.0,0.14570442715545143,0.0017862542386481931,-0.6163647154360796,0.773861464842705
-79.19307208061218,-104.0,10024.0,12168.0,-1201.0,423.0,-846.0,0.22384470052878958,0.0034373182092658186,-0.6858032647675787,0.6924995429044234
-79.20083928108215,-252.0,10288.0,12076.0,-1047.0,420.0,-747.0,0.29246808434561217,0.002311635906067765,-0.7354777617511559,0.6111706291602663
-79.20859956741333,-68.0,10452.0,11840.0,-1014.0,292.0,-628.0,0.3430130602808204,0.0011816500189564282,-0.7774835064268709,0.5271243130554658
-79.21634674072266,-148.0,10680.0,12028.0,-979.0,120.0,-257.0,0.36171548639288403,-0.016121525259647912,-0.8156466846316912,0.4512454865992486
-79.22412061691284,-80.0,10852.0,11984.0,-959.0,25.0,-538.0,0.38164342842893717,-0.009012268073898391,-0.8494511984630155,0.3642797468854361
-79.23190498352051,-8.0,10844.0,11788.0,-946.0,-116.0,-561.0,0.38839280357689643,0.004765868705991139,-0.8797233120658194,0.2742539167142383
-79.23975253105164,36.0,10884.0,11904.0,-985.0,-187.0,-652.0,0.38800311244287944,0.025804939917531793,-0.904435747776566,0.17545275134444252
-79.24754524230957,72.0,10872.0,11796.0,-997.0,-287.0,-802.0,0.37746621408688047,0.059390950760249736,-0.9215789861627199,0.0684408098578931
-79.2553300857544,84.0,10824.0,11688.0,-1072.0,-445.0,-932.0,0.3499055529940906,0.10088195848947869,-0.9299697767020153,-0.050449468342397594
-79.26310133934021,144.0,10868.0,11708.0,-1094.0,-646.0,-1072.0,0.299291290314818,0.15009610531809606,-0.9257139803591588,-0.17592472616898827
-79.27092027664185,208.0,10640.0,11912.0,-1034.0,-831.0,-1141.0,0.22559314885464318,0.20021339420117557,-0.906045346997009,-0.2968234444200138
-79.27870464324951,264.0,10600.0,11880.0,-1055.0,-1101.0,-1135.0,0.12586163763443997,0.23743222065703912,-0.8686243517573998,-0.4162649688598369
-79.28649163246155,452.0,10432.0,12260.0,-882.0,-1397.0,-1277.0,-0.00802038438275965,0.26935133827332847,-0.8120153535574554,-0.5177031925646978
-79.29425811767578,720.0,10312.0,12152.0,-517.0,-1608.0,-883.0,-0.14768710428246815,0.2560721778973659,-0.7563006394945128,-0.5836307922272009
-79.30202555656433,872.0,10004.0,12368.0,-581.0,-1817.0,-720.0,-0.28680583341520094,0.21508015067018052,-0.6764723964721497,-0.6433257646930762
-79.30981850624084,1076.0,9884.0,12508.0,-402.0,-1999.0,-550.0,-0.4210677488010525,0.14286030265155805,-0.5835962018503605,-0.6794912494151432
-79.31762099266052,1180.0,9784.0,12780.0,-208.0,-2096.0,-386.0,-0.5387858325604986,0.04493894254092608,-0.4809564526977899,-0.6901965000517984
-79.32540202140808,1240.0,9740.0,12796.0,-62.0,-2233.0,-501.0,-0.6495868514831059,-0.06453556084172753,-0.3629129398903153,-0.6649558495323411
-79.33319568634033,1256.0,9788.0,12484.0,-58.0,-2261.0,-197.0,-0.7189135368557347,-0.1828939759921438,-0.22786301037879744,-0.6307071971782751
-79.3409686088562,1264.0,9804.0,12600.0,-61.0,-2330.0,-132.0,-0.7578024661151,-0.2988144452619412,-0.07869462341240864,-0.5746760008027569
-79.34875011444092,1252.0,9880.0,12644.0,-163.0,-2345.0,-142.0,-0.7692867683005051,-0.39635500442339283,0.07889445866563131,-0.4948497175690356
-79.35654902458191,1252.0,9732.0,12640.0,-8.0,-2313.0,-141.0,-0.744788935022157,-0.4867461218619292,0.22487204549145665,-0.3972407560628962
-79.36431860923767,1364.0,10024.0,12604.0,-326.0,-2259.0,-198.0,-0.7073117918588239,-0.537065657921808,0.36717561797139553,-0.27650058543482153
-79.3721137046814,1448.0,10104.0,12724.0,-420.0,-2141.0,-367.0,-0.6552735791880007,-0.5641012033688069,0.48323369778398045,-0.13744657908449978
-79.37989163398743,1592.0,10184.0,12784.0,-450.0,-2089.0,-262.0,-0.5823944147182274,-0.5645594450714189,0.5848837961852255,-0.0005688986065193066
-79.3876564502716,1672.0,10156.0,12756.0,-462.0,-1989.0,-657.0,-0.49515778290897683,-0.5648693948416348,0.6424039415846639,0.15185029678074322
-79.39542841911316,1672.0,10200.0,12688.0,-420.0,-1959.0,-816.0,-0.38843574064701153,-0.5566370518118923,0.6693816909425783,0.3019950658024515
-79.40323376655579,1772.0,10152.0,12688.0,-298.0,-1978.0,-846.0,-0.2604876649199692,-0.5342638926494309,0.6754038583784461,0.43650646905072
-79.41100239753723,1972.0,10304.0,12832.0,-156.0,-2015.0,-834.0,-0.11518713872089313,-0.4941345125512968,0.6643451419715058,0.5488246886919771
-79.41879725456238,1536.0,10412.0,12836.0,29.0,-2098.0,-660.0,0.03857934683940219,-0.42436619749624643,0.6465045775716082,0.6328165576207518
-79.42660117149353,1576.0,10744.0,12916.0,180.0,-2110.0,-537.0,0.19049887427589998,-0.3314424205715225,0.618253423174277,0.686745080418195
-79.4343671798706,1932.0,10592.0,12948.0,334.0,-2180.0,-326.0,0.3310965005889506,-0.20876329056425363,0.5816130813214611,0.7131053354493231
-79.44214797019958,2040.0,10536.0,13020.0,433.0,-2150.0,-135.0,0.44832985534450165,-0.06789333831919692,0.5341329098474527,0.7135074421732027
-79.44998097419739,2008.0,10508.0,13080.0,551.0,-2162.0,66.0,0.5381258708256357,0.08985779412228438,0.47515476141190477,0.6903434483582966
-79.45776128768921,1924.0,10480.0,13180.0,597.0,-2084.0,160.0,0.5995074926438337,0.24584303520386902,0.4045667024847887,0.6453508747543751
-79.46554803848267,1960.0,10412.0,13160.0,757.0,-1999.0,219.0,0.6305312176224689,0.39884910079609354,0.33188587496665284,0.5772361253380577
-79.47336411476135,1988.0,10348.0,13156.0,423.0,-1907.0,214.0,0.6508363946229103,0.5167464821278195,0.2371721936349618,0.5031246477853719
-79.48118281364441,1920.0,10264.0,13244.0,280.0,-1797.0,167.0,0.6598545407970163,0.6072014191881814,0.13804012112133454,0.4205274622259814
-79.48895335197449,1916.0,10188.0,13076.0,143.0,-1677.0,76.0,0.662691478439653,0.6705467485949436,0.04220482720017339,0.3307957298896405
-79.49673891067505,2032.0,10064.0,13276.0,2.0,-1576.0,-70.0,0.6642645321584894,0.7090849223588517,-0.044372773336654486,0.2323408297867998
-79.50452899932861,1936.0,9932.0,13288.0,-130.0,-1449.0,-237.0,0.6661457443464474,0.7257486350013453,-0.1153806271032995,0.12738161944350812
-79.5123176574707,1980.0,9900.0,13228.0,-178.0,-1315.0,-396.0,0.6638795672062766,0.7285916910632824,-0.16748802251133207,0.019126690116080612
-79.52010202407837,2116.0,9932.0,13244.0,-171.0,-1309.0,-521.0,0.6516361688083779,0.7228495730616127,-0.20887018921179604,-0.09608351723376944
-79.52792930603027,2092.0,10236.0,12884.0,-56.0,-1323.0,-620.0,0.6209418677648416,0.7139711178447811,-0.24254130326046527,-0.21412649521462515
-79.53570580482483,2236.0,9980.0,13168.0,103.0,-1302.0,-657.0,0.5701813167616905,0.7033149467778299,-0.2718688261108246,-0.3260808075369128
-79.54349088668823,2364.0,10136.0,13212.0,311.0,-1287.0,-603.0,0.4994967691260157,0.690813721967265,-0.3052945024716059,-0.42435203067149413
-79.55126571655273,2416.0,10108.0,13148.0,286.0,-1303.0,-556.0,0.42369397626594574,0.6644583072056515,-0.33649963387876,-0.5155061288295345
-79.55903434753418,2412.0,10288.0,13284.0,730.0,-1529.0,-420.0,0.3140336112995327,0.6276333594253937,-0.3969525046418933,-0.5915132848627291
-79.56681442260742,2408.0,10360.0,13564.0,931.0,-1243.0,-383.0,0.19836238278489357,0.5963485632521437,-0.45370438079676007,-0.6318014648992447
-79.57465362548828,2236.0,10364.0,13128.0,1014.0,-1064.0,-15.0,0.10186937109920922,0.5511923381513253,-0.5229692683853594,-0.6421158633140973
-79.58242845535278,2248.0,10348.0,13080.0,1031.0,-858.0,-5.0,0.012806931257513986,0.508917848894012,-0.5841346004708311,-0.6321592948946012
-79.59020185470581,1944.0,10360.0,12916.0,918.0,-595.0,-243.0,-0.07131807736094423,0.4870833713819942,-0.6216662763285188,-0.6092573857086367
-79.59797263145447,1848.0,10324.0,12844.0,705.0,-343.0,-247.0,-0.13265145676108878,0.47654501935759425,-0.6448361087889032,-0.5826618473408199
-79.60574412345886,1744.0,10324.0,12780.0,501.0,-87.0,-402.0,-0.17851032736897263,0.4880859478611345,-0.6515186292442765,-0.5526568974244137
-79.6135184764862,1616.0,10080.0,12728.0,504.0,177.0,-419.0,-0.20973242773311332,0.5116293420920202,-0.6595602750528934,-0.5091443495118185
-79.62132287025452,1608.0,10020.0,12688.0,254.0,376.0,-261.0,-0.2107837678254018,0.538089224737548,-0.6653657657728628,-0.47256596066598283
-79.62908935546875,1616.0,9992.0,12636.0,-216.0,508.0,-575.0,-0.19435888430520407,0.5949192922717506,-0.6372413703607128,-0.4496877757681621
-79.6368613243103,1668.0,9996.0,12612.0,-349.0,563.0,-592.0,-0.1676252616036559,0.6538557027012963,-0.6005411710380939,-0.42863130264306926
-79.64463019371033,1772.0,9740.0,12660.0,-475.0,534.0,-574.0,-0.13353913060893324,0.7085658725968359,-0.5560419825154324,-0.4134235340030878
-79.65239882469177,1776.0,10052.0,12604.0,-485.0,481.0,-563.0,-0.1001743246811328,0.7566076442371955,-0.507812958840895,-0.39954471112727286
-79.66018009185791,1940.0,10012.0,12788.0,-447.0,367.0,-472.0,-0.07065127496215905,0.7925201622482968,-0.46328211701290034,-0.3902433469416231
-79.66796207427979,1972.0,10096.0,12916.0,-327.0,187.0,-431.0,-0.055031168432279176,0.8172818078691415,-0.42295988467312173,-0.38746219555516026
-79.67576694488525,2180.0,10056.0,12964.0,-175.0,44.0,-315.0,-0.05149839147100905,0.8307897061058194,-0.3945920382165517,-0.3891445788914607
-79.6835424900055,2288.0,10052.0,13124.0,-245.0,-61.0,-173.0,-0.04164146560482615,0.8354453135524939,-0.3733274636475621,-0.401152989882832
-79.691321849823,2392.0,10072.0,13188.0,154.0,-107.0,-129.0,-0.06081126642194153,0.8351433806153564,-0.36886440507277235,-0.40345578984669833
-79.69910001754761,2440.0,10092.0,13044.0,350.0,-132.0,-54.0,-0.09237788725020767,0.8298901517444975,-0.37636384826671393,-0.40137129406891137
-79.70688557624817,2492.0,10064.0,13200.0,424.0,-88.0,-26.0,-0.12676006333364145,0.8236189616283972,-0.3883630594458695,-0.3933927127536249
-79.71466016769409,2348.0,10132.0,13088.0,572.0,-18.0,-25.0,-0.16910253148268325,0.8164675662377072,-0.405518081070272,-0.3746199848554635
-79.72244620323181,2340.0,10056.0,13068.0,593.0,155.0,-59.0,-0.2074782041927794,0.8136680366488095,-0.42239871309390875,-0.3412864604663083
-79.73020696640015,2296.0,10036.0,13216.0,553.0,289.0,-90.0,-0.23839727025734458,0.8143237735730512,-0.4370685170292145,-0.29835322144980436
-79.7379903793335,2284.0,10068.0,13016.0,455.0,486.0,-192.0,-0.2567117546649713,0.8233134644777581,-0.44458597130592514,-0.2420688504215895
-79.74579858779907,2276.0,10004.0,12912.0,343.0,566.0,-278.0,-0.26473816963134755,0.836721275362692,-0.4436806606329853,-0.18154525682581715
-79.75357365608215,2536.0,9916.0,12816.0,194.0,705.0,-365.0,-0.25672271626288984,0.8553656887468045,-0.4352931730339712,-0.11385446402897742
-79.7613468170166,2260.0,9912.0,12728.0,93.0,514.0,-478.0,-0.24839946697406354,0.8748809576737595,-0.4112694046644855,-0.061143204804510305
-79.76916599273682,2252.0,9944.0,12740.0,35.0,853.0,-503.0,-0.2222888281590884,0.893398196025673,-0.39008795789035283,0.016084940866114235
-79.77696704864502,2312.0,9832.0,12668.0,20.0,795.0,-452.0,-0.19550096739383122,0.9044104045954847,-0.3690637104630678,0.08725347802088267
-79.78474593162537,2244.0,9796.0,12636.0,22.0,741.0,-440.0,-0.16951052680503134,0.9099976271642249,-0.34582452952317383,0.15354443864183542
-79.79254722595215,2396.0,9816.0,12744.0,48.0,721.0,-330.0,-0.14675330864078756,0.9074094849242099,-0.328838974125641,0.21664815293133244
