programtime,ax,ay,az,gx,gy,gz,q0,q1,q2,q3
-9570.59912443161,-904.0,-5408.0,-15184.0,-129.0,-123.0,-310.0,0.9995103324850453,-0.011577185857449069,-0.01067413774372495,-0.02703935662482928
-9570.614711761475,-804.0,-5440.0,-15316.0,-99.0,-79.0,-188.0,0.9986918414169738,-0.020547485253171235,-0.017482109757764763,-0.043437110577965496
-9570.63030076027,-788.0,-5424.0,-15120.0,-42.0,57.0,244.0,0.9993752027300373,-0.02468651476808801,-0.011887571723817998,-0.022326347560954828
-9570.64588689804,-832.0,-5436.0,-15264.0,-14.0,150.0,544.0,0.9993400055837777,-0.02647551675887533,0.002421899432707816,0.02475347764059638
-9570.661519765854,-964.0,-5480.0,-15320.0,-14.0,269.0,547.0,0.9966488977938658,-0.028447806119080477,0.027122494080464334,0.07173609390076058
-9570.677143335342,-1132.0,-5404.0,-15288.0,-10.0,252.0,291.0,0.9936321241647456,-0.03050872505108505,0.049749970879913834,0.09638132558260762
-9570.692736625671,-1156.0,-5492.0,-15252.0,-56.0,85.0,79.0,0.9923711620297438,-0.036046723798374126,0.05695768947768995,0.10322757424498022
-9570.70832157135,-1188.0,-5500.0,-15260.0,-48.0,-59.0,-462.0,0.9958267544753371,-0.04224331480911081,0.05002874784290037,0.06357438017257082
-9570.723949432373,-1104.0,-5436.0,-15324.0,-38.0,-146.0,-356.0,0.9977135156207749,-0.046574708162895016,0.03590173093549922,0.0333107043307359
-9570.73952627182,-988.0,-5428.0,-15300.0,-85.0,-25.0,-315.0,0.9979350496013669,-0.05518345397188934,0.032271523318320575,0.006242753203904452
-9570.755095005035,-960.0,-5496.0,-15112.0,-98.0,74.0,-132.0,0.9971795942114593,-0.06443870375386719,0.03810536412958778,-0.005337749651511727
-9570.770681381226,-1012.0,-5488.0,-15400.0,-68.0,48.0,43.0,0.9965982172076723,-0.07050213536820137,0.042646620609092294,-0.0016456359371156363
-9570.786252260208,-996.0,-5164.0,-15296.0,-14.0,89.0,86.0,0.9961070180622554,-0.07169466522570177,0.05101235739978549,0.005331316705325642
-9570.801834583282,-1064.0,-5432.0,-15260.0,-116.0,107.0,-153.0,0.9947612105500448,-0.08280280316738216,0.05939499041778576,-0.008128030874945083
-9570.817412614822,-1092.0,-5488.0,-15376.0,-53.0,245.0,-388.0,0.9919909887716553,-0.0894738484940506,0.0779445459778363,-0.04327766610858695
-9570.833014011383,-952.0,-5472.0,-15400.0,-28.0,-7.0,-141.0,0.9911708368715154,-0.09317400387894662,0.07646630080671928,-0.05524384108226044
-9570.848596096039,-976.0,-5376.0,-15340.0,-42.0,58.0,-44.0,0.990163281340878,-0.09711553758148746,0.08145524168443578,-0.05924771933715306
-9570.86419391632,-976.0,-5144.0,-15400.0,-50.0,169.0,-98.0,0.987834782574407,-0.10153695407396474,0.09560685138562178,-0.06878967409199703
-9570.879854679108,-1012.0,-5500.0,-15368.0,-54.0,115.0,36.0,0.986500427922711,-0.10548345617862183,0.10630007973693226,-0.06626038959169281
-9570.895438671112,-1040.0,-5472.0,-15148.0,-16.0,87.0,-44.0,0.9852059833451723,-0.10704727748899179,0.11362332353444085,-0.07070920104240308
-9570.911065340042,-996.0,-5472.0,-15284.0,-89.0,-46.0,-88.0,0.9841696228170518,-0.11612968462708133,0.1095434524419552,-0.07696935688735879
-9570.926817178726,-1068.0,-5424.0,-15308.0,-53.0,246.0,-100.0,0.9802801201880172,-0.12023487958570514,0.1301276733778097,-0.0875285571482552
-9570.942459344864,-980.0,-5564.0,-15436.0,-96.0,-48.0,-63.0,0.9792204440966197,-0.12979796444126,0.1262481618306818,-0.0913302355438673
-9570.958052396774,-940.0,-5488.0,-15260.0,-47.0,-20.0,66.0,0.9793495157965724,-0.133522918134061,0.12581317468314523,-0.08495411301480708
-9570.973658323288,-988.0,-5392.0,-15260.0,-51.0,-37.0,95.0,0.9797576759685033,-0.1373860618669499,0.12428469020191919,-0.07585039332067359
-9570.989258050919,-1268.0,-5504.0,-15440.0,-7.0,-58.0,86.0,0.9807726694056818,-0.13770891214396883,0.12055506377227361,-0.06773258493399557
-9571.00486588478,-1004.0,-5408.0,-15360.0,-55.0,-64.0,183.0,0.9816558641528533,-0.14113141502035262,0.1177311687629847,-0.05072533854366486
-9571.020463943481,-884.0,-5376.0,-15244.0,-54.0,55.0,384.0,0.9814926512160895,-0.14177416930672637,0.12747499065645124,-0.017955146430398607
-9571.036092996597,-964.0,-5484.0,-15404.0,-41.0,98.0,465.0,0.9797145466538604,-0.14012488187054406,0.14170407018232667,0.021080347467462873
-9571.051723003387,-1188.0,-5480.0,-15144.0,-23.0,67.0,563.0,0.976311766313918,-0.13536859076945237,0.15423506969450346,0.06857275600719118
-9571.067312002182,-1228.0,-5520.0,-15188.0,-22.0,64.0,266.0,0.9732580252993596,-0.13428696842675267,0.1628049224033206,0.0907214613109401
-9571.082908630371,-1240.0,-5508.0,-15308.0,-36.0,-50.0,-45.0,0.973819207839719,-0.13786240701660948,0.1578997985768824,0.08796454276234703
-9571.098492860794,-1180.0,-5176.0,-15356.0,-49.0,-135.0,-150.0,0.9760192536580516,-0.1433112172588256,0.14438066920242904,0.07747602117579507
-9571.114077806473,-1048.0,-5416.0,-15292.0,-86.0,-92.0,-196.0,0.9771638301306972,-0.1527379248362652,0.13362576304969562,0.06297722485473416
-9571.129667520523,-784.0,-5452.0,-15288.0,-117.0,19.0,-38.0,0.9754694309601969,-0.16354515592229688,0.13421372444688862,0.06081979452970848
-9571.145300388336,-780.0,-5532.0,-15332.0,-24.0,142.0,184.0,0.9722189041802743,-0.1644463630269074,0.14888979593765178,0.07469688552659645
-9571.160903453827,-1064.0,-5544.0,-15260.0,-75.0,191.0,278.0,0.966339205281794,-0.1686523565751777,0.16865152574963538,0.09644472934956057
-9571.17651963234,-1208.0,-5440.0,-15276.0,-67.0,94.0,145.0,0.9625497785887631,-0.17321640124969712,0.17827053961892114,0.10822946355224046
-9571.19209074974,-1240.0,-5452.0,-15208.0,-79.0,127.0,-113.0,0.9602407217271328,-0.18306195095316868,0.18660629806058962,0.09800085700797317
-9571.207705497742,-1232.0,-5552.0,-15168.0,-104.0,-9.0,-23.0,0.9588005104940858,-0.19234140003314254,0.18473556545418932,0.09787306966623525
-9571.22329545021,-1256.0,-5476.0,-15576.0,-41.0,-139.0,-415.0,0.9631082657109383,-0.20140279475751516,0.16581560585109512,0.06606487447475613
-9571.238875627518,-1084.0,-5508.0,-15284.0,-113.0,-170.0,-277.0,0.9646625767861617,-0.21411409687701186,0.14607628779730603,0.04736015846872448
-9571.254439115524,-984.0,-5448.0,-15292.0,-86.0,-98.0,-381.0,0.9652005294015475,-0.22595419088367896,0.1303917569432037,0.01818327215709198
-9571.270043373108,-884.0,-5448.0,-15128.0,-102.0,57.0,-116.0,0.9625391822529634,-0.2362230569739565,0.13283775532493813,0.008433311443765152
-9571.285630702972,-948.0,-5556.0,-15256.0,-63.0,173.0,286.0,0.9585134911307883,-0.2385123065381446,0.153258249272956,0.029591822855495824
-9571.301213741302,-1068.0,-5496.0,-15544.0,-37.0,238.0,411.0,0.9525841125462167,-0.23680576984767843,0.1815860479298452,0.05943940686619655
-9571.316792488098,-1236.0,-5532.0,-15320.0,-31.0,155.0,272.0,0.9476246758300753,-0.2360655511660004,0.199987450990095,0.0792814527939636
-9571.332378149033,-1528.0,-5480.0,-15296.0,-64.0,7.0,-116.0,0.9468256104964443,-0.24368479562674755,0.19786526715563654,0.07062803792981051
-9571.348018884659,-1208.0,-5460.0,-15312.0,-134.0,-104.0,-472.0,0.9476732626959334,-0.26228720700156893,0.1783764523815723,0.036092235319042425
-9571.36364865303,-1192.0,-5496.0,-15228.0,-133.0,-89.0,-479.0,0.9465010698531142,-0.28046652046314186,0.15960555849472088,0.0005668895805232613
-9571.379276514053,-984.0,-5536.0,-15320.0,-85.0,-66.0,-179.0,0.9450871344898738,-0.2902110842267777,0.14985719628895922,-0.011430465172069967
-9571.39486503601,-940.0,-5428.0,-15344.0,-58.0,84.0,131.0,0.9424449547430768,-0.29345087822046795,0.16025000145491214,-0.002006585322512598
-9571.410448789597,-996.0,-5428.0,-15296.0,-69.0,237.0,200.0,0.936928495753431,-0.29645440080687796,0.18491325925146943,0.009320334781911027
-9571.4260263443,-1140.0,-5476.0,-15216.0,-88.0,320.0,53.0,0.9289293730158372,-0.3031976521299458,0.21240408832877988,0.006775466958942016
-9571.44160580635,-1268.0,-5464.0,-15436.0,-74.0,131.0,254.0,0.9239664349222575,-0.3047310733030999,0.22975591682624394,0.025243192823537732
-9571.457169294357,-1288.0,-5472.0,-15328.0,-105.0,105.0,-223.0,0.9191843493491083,-0.3180742324056067,0.23213356789454956,0.0065514309724552565
-9571.472803115845,-1216.0,-5408.0,-15220.0,-124.0,87.0,-346.0,0.9135522950500697,-0.3351571836061857,0.22944747353638925,-0.021112161748329965
-9571.488394737244,-1136.0,-5484.0,-15308.0,-99.0,43.0,-440.0,0.9081425945752856,-0.3517655409572809,0.22014790257014233,-0.055434042853351975
-9571.504023075104,-776.0,-5508.0,-15332.0,-98.0,156.0,-321.0,0.899978207836224,-0.3650166244926162,0.2231351903200286,-0.08374231967625248
-9571.51959848404,-1032.0,-5416.0,-15344.0,-110.0,172.0,-240.0,0.890893436136689,-0.3771870945267125,0.22984094704498498,-0.10588635527075486
-9571.535213947296,-1020.0,-5544.0,-15308.0,-54.0,198.0,-185.0,0.8830345507717359,-0.38341030617455085,0.23969963793227092,-0.125660665435267
-9571.550806999207,-788.0,-5476.0,-15136.0,-74.0,314.0,243.0,0.8759633620305906,-0.3806041121377415,0.2727920202093879,-0.11581542174506355
-9571.566430568695,-1096.0,-5496.0,-15484.0,-56.0,332.0,-241.0,0.8630471796716399,-0.3872564551091922,0.29067984358480087,-0.14383056758076834
-9571.582009077072,-1112.0,-5552.0,-15280.0,-77.0,324.0,-129.0,0.8500360230519793,-0.39230701957248937,0.31167885721570066,-0.16245076753539897
-9571.597604990005,-1116.0,-5476.0,-15376.0,-10.0,374.0,-252.0,0.8351394126320908,-0.39452525749560574,0.3308272868127448,-0.19350785246772373
-9571.613181114197,-1240.0,-5432.0,-15572.0,-97.0,180.0,-711.0,0.8127390714977512,-0.4184296891568216,0.3205941704145374,-0.24817569338940831
-9571.628746509552,-1184.0,-5512.0,-14860.0,-126.0,18.0,-291.0,0.8008601622552158,-0.4351700344196331,0.3140055276853029,-0.2658017498791891
-9571.644357919693,-1072.0,-5484.0,-15436.0,222.0,34.0,-792.0,0.7877989470468062,-0.439661096242901,0.2805854932854962,-0.32763198934195803
-9571.65997505188,-940.0,-5496.0,-15448.0,-106.0,160.0,-609.0,0.7610676776870561,-0.4568031106340767,0.27097531406279746,-0.37239667998470516
-9571.675597667694,-892.0,-5584.0,-15268.0,-59.0,270.0,-193.0,0.7455865462464202,-0.4565405344823984,0.28315075910568543,-0.3943311933498727
-9571.691169500351,-856.0,-5532.0,-15392.0,-20.0,335.0,-58.0,0.7340433740071688,-0.44777334282620285,0.3033368461329336,-0.41068980545972245
-9571.706788301468,-984.0,-5508.0,-15428.0,-43.0,385.0,94.0,0.7249537483631707,-0.43419566989720476,0.3331651906617128,-0.418230963354043
-9571.722380399704,-1076.0,-5520.0,-15272.0,-66.0,319.0,-76.0,0.7099524875642119,-0.42896201879899853,0.35288882403954985,-0.4329301672293797
-9571.738004684448,-1072.0,-5472.0,-15220.0,-82.0,509.0,-400.0,0.6748540411431021,-0.42663862052647383,0.3721138240270107,-0.473373861335928
-9571.7535841465,-1092.0,-5616.0,-15436.0,-249.0,171.0,-452.0,0.6404928477324654,-0.44859896125725307,0.3753947113482266,-0.4976009391613444
-9571.769192934036,-1016.0,-5496.0,-15288.0,-72.0,17.0,-27.0,0.6357881221760544,-0.45294667175717074,0.3785795160145737,-0.49728294390429234
-9571.784805059433,-936.0,-5448.0,-15292.0,37.0,-7.0,-373.0,0.620823011505806,-0.46346121343144037,0.36182385732253347,-0.5185228908175237
-9571.800392627716,-864.0,-5396.0,-15280.0,-40.0,96.0,-276.0,0.6033508126086208,-0.4700348426287075,0.3577249002334282,-0.5357872146594272
-9571.816025733948,-852.0,-5620.0,-15600.0,-94.0,19.0,-301.0,0.584476271708522,-0.48349810491499007,0.3508111844897503,-0.5491343944702587
-9571.831628322601,-760.0,-5564.0,-15580.0,111.0,66.0,77.0,0.5906528768264577,-0.47247088095157314,0.35224538042037923,-0.5512019935758361
-9571.847272872925,-652.0,-5472.0,-15324.0,8.0,353.0,522.0,0.6041996652814509,-0.4385668925579679,0.3911528592509061,-0.5381461566579021
-9571.862878322601,-792.0,-5540.0,-15288.0,-72.0,512.0,667.0,0.6134936206356902,-0.39466808419522365,0.4460235984448601,-0.5185803991545399
-9571.878503799438,-1076.0,-5692.0,-15300.0,-22.0,339.0,697.0,0.6294991167569379,-0.3527375818701363,0.4882455860341752,-0.49083939130512805
-9571.894134998322,-1112.0,-5564.0,-15364.0,101.0,125.0,426.0,0.6448664604216631,-0.3235865238738518,0.5037022542764849,-0.47510319808149043
-9571.909723520279,-1164.0,-5408.0,-15212.0,18.0,-37.0,-100.0,0.6426682777943298,-0.3286368662658184,0.4982352031666257,-0.4803508896352372
-9571.925543308258,-1048.0,-5128.0,-15248.0,-85.0,-67.0,-499.0,0.6214526606917281,-0.3577010052917982,0.4834569907162885,-0.5021114611915957
-9571.941190958023,-920.0,-5576.0,-15328.0,-126.0,38.0,-350.0,0.6001083150196288,-0.3775883064007445,0.4800552468443242,-0.5165694929929123
-9571.956767082214,-908.0,-5732.0,-15596.0,6.0,-124.0,11.0,0.6058124552253255,-0.3825378907134781,0.47382151742224504,-0.5120050789689761
-9571.97236609459,-812.0,-5500.0,-15300.0,55.0,-223.0,91.0,0.620641902674504,-0.3859033150542695,0.46270068193454467,-0.5017871451243087
-9571.98798918724,-672.0,-5396.0,-15232.0,-59.0,-90.0,262.0,0.633414850900584,-0.38251091881948485,0.46927931790839233,-0.48192109875569694
-9572.003580093384,-720.0,-5572.0,-15260.0,-136.0,-45.0,277.0,0.6419698222884035,-0.38060192347388827,0.4817664130354845,-0.45925814787534813
-9572.019169807434,-888.0,-5612.0,-15392.0,96.0,-5.0,795.0,0.6754195683384863,-0.3413366211508435,0.5030065068947203,-0.4174711628224756
-9572.034810304642,-984.0,-5456.0,-15204.0,30.0,-35.0,1008.0,0.7116456418422911,-0.29561647438702426,0.528029205532412,-0.3568704787772021
-9572.050423145294,-1188.0,-5624.0,-15112.0,12.0,-151.0,652.0,0.7377796640713453,-0.2692273846905137,0.5343916654674694,-0.3124473243514547
-9572.066045999527,-1140.0,-5496.0,-15232.0,-26.0,-225.0,317.0,0.7556839077010707,-0.262255184087813,0.527966921728824,-0.28533310291814484
-9572.081644535065,-1104.0,-5612.0,-15376.0,-1.0,-226.0,225.0,0.7711940206124962,-0.25763983332428236,0.518247213804337,-0.26514396889277125
-9572.097245454788,-964.0,-5648.0,-15580.0,-11.0,-181.0,281.0,0.7851179286534452,-0.24991602381536548,0.5126301014264658,-0.24154129721174558
-9572.112875699997,-1028.0,-5628.0,-15184.0,65.0,-47.0,1056.0,0.8072788027145515,-0.19853530305187714,0.5290272009001851,-0.17033757318212212
-9572.128499269485,-1132.0,-5472.0,-15264.0,51.0,179.0,874.0,0.8102495065265295,-0.15162851693056237,0.5545576777443465,-0.11388727796269019
-9572.144096851349,-1532.0,-5528.0,-15264.0,12.0,169.0,678.0,0.8072838694309862,-0.11621362934473024,0.5745190975049123,-0.06866551618681035
-9572.159729480743,-1392.0,-5512.0,-15180.0,-242.0,33.0,488.0,0.8050005967231669,-0.10860461575568128,0.5828142884585784,-0.022507373912273945
-9572.175303697586,-1364.0,-5516.0,-15108.0,25.0,-30.0,-98.0,0.8063506077099015,-0.11201553484847199,0.5799353134281002,-0.030434349632187767
-9572.190873384476,-1300.0,-5604.0,-15304.0,-3.0,28.0,-181.0,0.804132995602259,-0.12142686023199616,0.580299199226783,-0.04334146253520908
-9572.206452131271,-1240.0,-5600.0,-15252.0,-53.0,20.0,-282.0,0.8010493845093226,-0.13943880805655137,0.5789589444905441,-0.06068972713234805
-9572.22202205658,-1160.0,-5576.0,-15252.0,28.0,-15.0,-195.0,0.8008056748785384,-0.14752756615653012,0.5755280321548379,-0.07558685408349158
-9572.23758983612,-1080.0,-5572.0,-15252.0,-91.0,45.0,-179.0,0.7958721068979917,-0.16269205978141882,0.5770968292578109,-0.08413163974636194
-9572.253181934357,-1176.0,-5584.0,-15352.0,-72.0,107.0,-160.0,0.7879639810688932,-0.17507642163522094,0.582908680947285,-0.09315836409986744
-9572.268787145615,-1116.0,-5652.0,-15360.0,-105.0,94.0,-60.0,0.7808220254039948,-0.1847098562381051,0.5894698578491768,-0.09340514086373053
-9572.284380674362,-792.0,-5676.0,-15256.0,-49.0,182.0,32.0,0.7706216173065598,-0.18503898273018368,0.6029105018907804,-0.09166146693026454
-9572.300018787384,-1116.0,-5688.0,-15296.0,-22.0,187.0,297.0,0.7622402722648679,-0.1694583994501652,0.6203737746153648,-0.0735526883455197
-9572.315595388412,-1244.0,-5556.0,-15268.0,-120.0,58.0,69.0,0.7574960781794398,-0.17345088499384312,0.6261788073081839,-0.06336073954524933
-9572.331219673157,-1284.0,-5524.0,-15424.0,-199.0,-168.0,-204.0,0.762011011977796,-0.19873076973817974,0.6130414653606104,-0.06344651710189853
-9572.346813201904,-1264.0,-5464.0,-15284.0,-54.0,32.0,-48.0,0.7588713430096762,-0.20484718929288212,0.6148265388222338,-0.06434470419054757
-9572.362433433533,-1316.0,-5628.0,-15220.0,-65.0,-110.0,-706.0,0.7579531408054769,-0.2473043195213309,0.5943246278239851,-0.10547912898334935
-9572.378042697906,-1188.0,-5532.0,-15272.0,-281.0,-332.0,-720.0,0.7602259738050424,-0.3056141133863347,0.5581096627998401,-0.13103467762660498
-9572.393617630005,-1104.0,-5568.0,-15328.0,-146.0,170.0,-358.0,0.7432438503485126,-0.33072904169090267,0.5613094009561574,-0.15211389252653534
-9572.409185647964,-1228.0,-5696.0,-15360.0,-82.0,545.0,-98.0,0.711815262065158,-0.3333764526775109,0.5943789864841311,-0.16997880431797005
-9572.424780130386,-1500.0,-5644.0,-15288.0,-14.0,470.0,-309.0,0.6814014576158333,-0.3430368258903872,0.6142218584256097,-0.20186455427899255
-9572.44036436081,-1652.0,-5476.0,-14996.0,30.0,365.0,-815.0,0.6461901772059297,-0.3774985112799541,0.6093207035115723,-0.2620332214360421
-9572.455993175507,-1592.0,-5556.0,-15168.0,-7.0,120.0,-1839.0,0.5897294443866761,-0.46706176408396854,0.5487861726907554,-0.3645630639787664
-9572.471602678299,-1408.0,-5656.0,-15512.0,-10.0,-386.0,-1699.0,0.5472749284581382,-0.5549833870633977,0.45493472008779984,-0.43071799732935945
-9572.487269878387,-1156.0,-5156.0,-15704.0,113.0,2.0,-746.0,0.5233300733897555,-0.5780385846137318,0.41391402556248214,-0.46975760603346006
-9572.502855300903,-1844.0,-5656.0,-14232.0,-594.0,-162.0,-1659.0,0.4260257199924096,-0.664004308676352,0.343274275019698,-0.509669634247411
-9572.518440485,-2036.0,-6160.0,-15172.0,796.0,-798.0,-4563.0,0.27111518061746825,-0.7464304741076722,0.0129254797909401,-0.6075944684856235
-9572.534006118774,-1656.0,-5932.0,-15880.0,1038.0,-2378.0,-8158.0,-0.07303379524674239,-0.6868749974850007,-0.5044759135143394,-0.518047155446017
-9572.549596309662,-128.0,-5368.0,-16544.0,844.0,-2995.0,-12087.0,-0.4738538749909548,-0.19994344142104656,-0.8441128731115944,-0.15152089900754429
-9572.565177440643,1900.0,-5276.0,-15808.0,-305.0,-1867.0,-11148.0,-0.5437207250807903,0.4336457638878792,-0.6815570180557513,0.2275942787476651
-9572.58080792427,3536.0,-6024.0,-16136.0,-264.0,637.0,-6752.0,-0.3109976258944508,0.7186212674812332,-0.39715899834407553,0.47867387712931636
-9572.596362352371,3928.0,-6432.0,-15808.0,-126.0,4506.0,5245.0,-0.3132633112527155,0.30158772181717164,-0.7309216755230451,0.5259890190134171
-9572.611987352371,1532.0,-6848.0,-15732.0,1374.0,3744.0,10410.0,-0.4216825418376865,-0.4097702374648244,-0.7486003814975077,0.30638155169512915
-9572.627569675446,-228.0,-3348.0,-15740.0,2667.0,3138.0,8186.0,-0.2654712566688692,-0.8798713492292775,-0.390651848875487,0.052369396199172615
-9572.643143415451,-1384.0,-1328.0,-15612.0,211.0,2968.0,5155.0,-0.15203858200334824,-0.9531976353008768,-0.05562045889886587,-0.2553525057466787
-9572.658724069595,-2944.0,-3992.0,-16132.0,-1210.0,239.0,-2610.0,-0.3001489632762079,-0.8914112682938962,-0.24140958921737568,-0.23878433959701562
-9572.674347639084,-2516.0,-6148.0,-16092.0,-724.0,-2645.0,-4365.0,-0.45866682645698625,-0.762122499402003,-0.45292655467548737,0.060428257321502095
-9572.69001698494,-1156.0,-6900.0,-14968.0,355.0,-3659.0,-1862.0,-0.5360058629201875,-0.6432004333490641,-0.4032610154456654,0.36928508076619104
-9572.705608844757,-432.0,-6356.0,-14652.0,663.0,-3481.0,-502.0,-0.5774080015248017,-0.5197526126036798,-0.2361687808451867,0.5836793027175816
-9572.721194982529,-60.0,-5544.0,-14308.0,-139.0,-1902.0,663.0,-0.6465914256792179,-0.4232150635171341,-0.11574922371696074,0.6240277681796104
-9572.736789941788,-756.0,-6708.0,-14476.0,-546.0,-1039.0,1489.0,-0.7480702289749092,-0.3463611414678945,-0.03164160925030309,0.5651758140318244
-9572.752374887466,-1380.0,-7296.0,-14388.0,-91.0,-1778.0,2207.0,-0.8392282877466721,-0.25142835384434203,0.14217098795778105,0.4607245099970498
-9572.767997026443,-1792.0,-7236.0,-14460.0,424.0,-2196.0,2418.0,-0.8648510678562737,-0.15792945243542944,0.3586128325519147,0.31382758771402
-9572.7835855484,-1900.0,-6332.0,-14784.0,468.0,-2333.0,2127.0,-0.8125684163728812,-0.06046052735147497,0.5559137654264797,0.16442925151870705
-9572.799167871475,-2044.0,-5576.0,-15056.0,578.0,-2190.0,1470.0,-0.7048538478923995,0.001325603406684122,0.7080808506943573,0.04243589007952742
-9572.814821243286,-1320.0,-4936.0,-15292.0,390.0,-1609.0,1135.0,-0.6002860188156895,0.05269614596385449,0.7964180426738069,-0.05097168938330213
-9572.830436944962,-880.0,-5084.0,-15000.0,-11.0,-273.0,2493.0,-0.5567233765074425,0.22018771155986008,0.7809762086606715,-0.17791181870293882
-9572.846041440964,-996.0,-5896.0,-14768.0,-58.0,1095.0,4371.0,-0.5231020795141431,0.5006834170395399,0.600097090268058,-0.3399467790131267
-9572.861618757248,-1736.0,-6432.0,-14492.0,-21.0,2054.0,6746.0,-0.36569781462303247,0.7801030219987314,0.18085146200439386,-0.47433862602497184
-9572.877228498459,-3032.0,-6864.0,-14680.0,236.0,2487.0,6972.0,-0.1111393013166418,0.8278721862615154,-0.3214911195820831,-0.4460035414066643
-9572.89286160469,-4176.0,-6428.0,-14936.0,257.0,885.0,4316.0,0.058799197310845104,0.6895354404759032,-0.6083199355816727,-0.38862628153177164
-9572.908457756042,-4628.0,-5880.0,-14788.0,425.0,-1410.0,-976.0,-0.0740514992750445,0.6876985422061817,-0.564578516681883,-0.4503756088021371
-9572.924628973007,-4032.0,-5332.0,-14988.0,-18.0,-3165.0,-6516.0,-0.41004577193310887,0.7477150353796811,-0.12880105796738225,-0.5061570687577388
-9572.940240621567,-1832.0,-5604.0,-15120.0,-459.0,-3159.0,-5968.0,-0.5847467594249879,0.5957690185579128,0.33918553889209474,-0.4336861469715118
-9572.955881118774,-244.0,-6124.0,-15204.0,-106.0,-1834.0,-2306.0,-0.5927517393568148,0.4490971150600595,0.5392149102005261,-0.3952270706209794
-9572.971492528915,308.0,-5980.0,-15264.0,152.0,-49.0,2021.0,-0.5184599559247236,0.5266172367949361,0.45047392558366384,-0.5009459076409783
-9572.987085819244,-256.0,-5768.0,-15208.0,328.0,1055.0,4034.0,-0.37436282458502346,0.6732041331586454,0.1908754931483457,-0.6084531344172825
-9573.002668142319,-1360.0,-5680.0,-15096.0,220.0,1732.0,3494.0,-0.21821802549906244,0.7727186347678514,-0.078117669723321,-0.5909182976578033
-9573.018275737762,-2228.0,-5652.0,-15108.0,-44.0,1619.0,2369.0,-0.07959364776451476,0.815881824713964,-0.2583864167185152,-0.5111146241229231
-9573.033858537674,-2740.0,-6188.0,-14892.0,137.0,1255.0,2183.0,0.03538198211971399,0.8026410690853609,-0.4185948571831507,-0.4234309567079461
-9573.049418926239,-2980.0,-5980.0,-14940.0,213.0,-50.0,754.0,0.04622696587078162,0.7722361043583084,-0.47831371113014853,-0.4156085423770672
-9573.065009355545,-2640.0,-5520.0,-14980.0,-206.0,-368.0,-1503.0,-0.009832810558032222,0.8134148109352431,-0.36764755437111635,-0.45066055624233364
-9573.08065199852,-2164.0,-5900.0,-15308.0,-41.0,-615.0,-1927.0,-0.10100448218554456,0.8382651962210574,-0.2252232025055308,-0.4861934434317834
-9573.096239328384,-1664.0,-5836.0,-15348.0,338.0,-737.0,-1092.0,-0.18531525149546427,0.8198885292229928,-0.1520884925404103,-0.5199135963297326
-9573.111831903458,-1232.0,-5296.0,-14800.0,67.0,125.0,-521.0,-0.21185981982052554,0.8306411338173129,-0.11970500543506617,-0.5008207615805221
-9573.127447128296,-1204.0,-5872.0,-14920.0,-436.0,950.0,310.0,-0.1560769758294508,0.8731920547021121,-0.14000228590182578,-0.4399715594936792
-9573.143080949783,-1660.0,-6608.0,-14864.0,-188.0,973.0,1622.0,-0.06672897866312517,0.8813900578206054,-0.26594314437738875,-0.38467265738577416
-9573.158673524857,-2232.0,-6296.0,-15004.0,179.0,425.0,1367.0,-0.024670500478386436,0.8562542897685865,-0.376566317346724,-0.3527290267315201
-9573.174279689789,-2468.0,-5540.0,-15112.0,244.0,-65.0,-980.0,-0.07505741569873979,0.8826010114745809,-0.30948048530522887,-0.34583763257909567
-9573.189879894257,-2348.0,-5648.0,-15224.0,-431.0,-570.0,-2169.0,-0.12046001440555379,0.9090337994656202,-0.12322170387881343,-0.37942502296463565
-9573.205518245697,-1904.0,-5976.0,-15168.0,-203.0,-1112.0,-2174.0,-0.1842065532390387,0.8780028868550114,0.06620520846206751,-0.43680172480263096
-9573.221148252487,-1356.0,-5780.0,-15228.0,-294.0,-1125.0,-1555.0,-0.2114432953039731,0.8193345044969972,0.211691562016891,-0.48904947109930075
-9573.23675942421,-1072.0,-5804.0,-15168.0,-359.0,-556.0,-1095.0,-0.22083873204154,0.7773184805454785,0.3137030748118123,-0.49859464004977855
-9573.252357959747,-1076.0,-6200.0,-15176.0,-165.0,-176.0,24.0,-0.20370639528837783,0.7734618768264104,0.3226829978986765,-0.5060989157090782
-9573.267955303192,-1316.0,-6100.0,-15088.0,47.0,-271.0,982.0,-0.15524335616526222,0.7853519977427568,0.2582403652577067,-0.5407713507200366
-9573.283611059189,-1344.0,-5688.0,-15004.0,-195.0,-133.0,1111.0,-0.08604375176788287,0.8029743618557644,0.192272948898739,-0.557547989060868
-9573.299208402634,-1356.0,-5928.0,-14856.0,-324.0,63.0,879.0,-0.02161951846900274,0.8206257455959878,0.14559108334285817,-0.5521858550680655
-9573.31479883194,-1516.0,-6060.0,-15096.0,-487.0,523.0,1999.0,0.10111552779272145,0.8577065986517745,0.02460173998950996,-0.5034975621171288
-9573.330372333527,-1532.0,-6084.0,-15000.0,62.0,1335.0,4252.0,0.26121009729373595,0.8632027868249824,-0.2651822083548409,-0.34106983194271334
-9573.34600353241,-2424.0,-5720.0,-14912.0,240.0,1622.0,4913.0,0.38879891437451675,0.7320769605455469,-0.5517242836643678,-0.09219025346874331
-9573.361588716507,-3080.0,-5256.0,-15008.0,40.0,1081.0,2521.0,0.44571599715965726,0.603781238677754,-0.6579228614820585,0.06263364939063873
-9573.377182722092,-3760.0,-5532.0,-15008.0,-545.0,88.0,-1194.0,0.4825848887708274,0.6464989886425054,-0.5907983621416265,-0.010400870398056511
-9573.392773389816,-3504.0,-6184.0,-15172.0,-279.0,-1591.0,-3631.0,0.3899401854647109,0.7753071806535994,-0.4277725612398933,-0.25269757267725274
-9573.4083609581,-2540.0,-5772.0,-15184.0,-35.0,-2080.0,-4492.0,0.19766803738677202,0.8225787790108054,-0.17797070601769704,-0.5026111092249322
-9573.423984766006,-1072.0,-5540.0,-15140.0,-250.0,-1029.0,-2963.0,0.06700469844369199,0.7900753487782418,0.026977258179256076,-0.6087393047771266
-9573.439569950104,-576.0,-5812.0,-14992.0,-281.0,159.0,-213.0,0.07452373324316458,0.7961041340453089,0.057569511368467476,-0.5977877318080945
-9573.455163240433,-864.0,-5868.0,-15112.0,-51.0,1144.0,2303.0,0.18766261165595077,0.8461434143325688,-0.09000146807650923,-0.49063612006472107
-9573.47079372406,-1652.0,-5864.0,-15056.0,78.0,1269.0,2323.0,0.28366742705514525,0.8609765181908727,-0.23777985914325572,-0.3488738518972853
-9573.48642373085,-2528.0,-5756.0,-15216.0,60.0,723.0,373.0,0.30450292387146594,0.8746575386950856,-0.24908975841425549,-0.28320743565575923
-9573.50201702118,-2844.0,-5844.0,-14636.0,-196.0,239.0,-1139.0,0.29468545844358573,0.8955040033498137,-0.15013973467494696,-0.29781054487389647
-9573.517594575882,-2512.0,-5896.0,-14896.0,-137.0,-646.0,-1549.0,0.2536793268615342,0.8860955372026565,-0.04165424282281958,-0.38567657710505565
-9573.533172607422,-1952.0,-5840.0,-15020.0,-217.0,-849.0,-1887.0,0.20034446322802518,0.8458828698134037,0.0913392697125306,-0.48579975753235655
-9573.548749685287,-1384.0,-5884.0,-14888.0,-275.0,-539.0,-1669.0,0.15216508578293714,0.7955748626056581,0.21431016239657932,-0.5458732260811213
-9573.564336061478,-1164.0,-6080.0,-15348.0,-177.0,-486.0,-484.0,0.15003003008301927,0.7597228941478533,0.24953392245108713,-0.5814163187657128
-9573.579972028732,-960.0,-5824.0,-15356.0,-13.0,136.0,1152.0,0.20517770014379394,0.7876712457795484,0.17483336651263065,-0.5539940558252026
-9573.595566272736,-844.0,-5604.0,-14900.0,-195.0,796.0,2075.0,0.30092786244132474,0.8387358557448293,0.05495762029205689,-0.45049333609534986
-9573.611160516739,-1644.0,-5868.0,-14952.0,-150.0,1696.0,3252.0,0.41083431815517946,0.8735023835465008,-0.12624672419514063,-0.22862745590708664
-9573.626731157303,-2472.0,-5864.0,-15300.0,52.0,1271.0,2655.0,0.4586895238667142,0.8442041267226726,-0.2751624627222256,-0.034769702730634816
-9573.642322778702,-2984.0,-5520.0,-14856.0,-132.0,731.0,291.0,0.4854153643583616,0.832277912698039,-0.2663255508506187,0.027497291574792932
-9573.657946825027,-3068.0,-5932.0,-14932.0,-293.0,-106.0,-1952.0,0.5012580130412599,0.8530330862958048,-0.12787467221557747,-0.06872427702304772
-9573.673582553864,-2456.0,-5996.0,-14988.0,-226.0,-767.0,-2388.0,0.4833998811094292,0.8451720042934371,0.0173017523787637,-0.22739720197625118
-9573.689172506332,-1800.0,-5652.0,-15084.0,-195.0,-525.0,-2028.0,0.45053466849318485,0.8100779160851371,0.1462152591603075,-0.34556241165031454
-9573.70475101471,-1412.0,-5788.0,-15080.0,-209.0,32.0,-724.0,0.441860812711187,0.7920282422423138,0.20460784507753324,-0.3682199280504628
-9573.720341682434,-1396.0,-5756.0,-15084.0,-181.0,437.0,218.0,0.45285708836473176,0.8023057568084371,0.21209304285719227,-0.32594857152844786
-9573.735959291458,-1804.0,-6124.0,-15184.0,-132.0,505.0,-110.0,0.4488763245601278,0.8086804556522879,0.24334907487394603,-0.29210818826830853
-9573.751555681229,-1928.0,-5796.0,-15016.0,-145.0,34.0,-581.0,0.4427034820290532,0.7905782420131232,0.2890914996650555,-0.308910626356881
-9573.767153024673,-1540.0,-5728.0,-15124.0,-205.0,-243.0,-828.0,0.4390796924444234,0.7530956820860047,0.34145127718453677,-0.351378631415421
-9573.782726764679,-1648.0,-5872.0,-15044.0,-205.0,314.0,-78.0,0.44029823657823774,0.7522462690068579,0.3648244308536527,-0.3273624112259448
-9573.798310995102,-1636.0,-5808.0,-15236.0,2.0,466.0,369.0,0.4350212697861393,0.7764551247289216,0.35809778105808543,-0.28220544522940194
-9573.813953399658,-1740.0,-5652.0,-15020.0,-271.0,1081.0,745.0,0.43470940678801373,0.8106513267862646,0.35304072373443074,-0.17098071649970112
-9573.829543352127,-1824.0,-6120.0,-14816.0,-184.0,1026.0,958.0,0.42688392442013845,0.8421955932529485,0.3245703647338951,-0.055953338716130334
-9573.845168113708,-2444.0,-6156.0,-14776.0,-56.0,839.0,656.0,0.4083989863281515,0.8591761011250371,0.30664548543909953,0.03154744809866046
-9573.860754728317,-2512.0,-6000.0,-14944.0,170.0,721.0,-757.0,0.37656725354291537,0.8395058043180121,0.38799144303226873,0.05375637831226149
-9573.87639260292,-2068.0,-6148.0,-14608.0,-408.0,1331.0,-935.0,0.36166512728813216,0.779970938517241,0.49315028820850265,0.13283999402312707
-9573.892061471939,-1948.0,-7400.0,-14468.0,-176.0,2557.0,2998.0,0.2161550102973244,0.8263059259315805,0.3477860764706895,0.38670450386159305
-9573.907657146454,-2436.0,-7728.0,-14592.0,948.0,4072.0,7047.0,-0.17393091222281867,0.7489679980239704,-0.04197107110439289,0.6379916965757895
-9573.923463344574,-3548.0,-7352.0,-12488.0,1477.0,8538.0,13974.0,-0.581652895319718,0.11442670033213659,-0.5733790473339018,0.5655288743254017
-9573.93910908699,-7080.0,-9408.0,-9824.0,2566.0,9529.0,24286.0,-0.5322927307711081,-0.6813736862136354,-0.4699108045335,-0.17770251626400144
-9573.954708814621,-10552.0,-9404.0,-10636.0,6710.0,1147.0,17411.0,0.09613215178117787,-0.8828340467321795,0.21324111779128327,-0.4072970427188597
-9573.970292329788,-9840.0,2604.0,-14088.0,11926.0,-14954.0,2493.0,0.7057315479473533,-0.6475397497368771,-0.07356649687361326,0.27789067145242585
-9573.986327886581,-4440.0,14352.0,-29716.0,-1695.0,-19754.0,-32768.0,0.36619595639773617,-0.01795369478257264,-0.9123921447814682,-0.18198560520731757
-9574.002032756805,5680.0,6256.0,-23260.0,-24938.0,-11294.0,-32768.0,-0.2832373793543348,0.4185459160956003,-0.24073991913586015,-0.828637553089795
-9574.017637968063,14348.0,-17988.0,-13388.0,-18149.0,-4426.0,-19189.0,-0.43308999598868103,0.3737951696602757,0.7403990798285217,-0.3528731062326061
-9574.033235788345,14528.0,-27952.0,-16848.0,1040.0,4774.0,5406.0,-0.5138576527868042,0.7010690296582807,0.29692202864213724,-0.39533509486696333
-9574.04880285263,9004.0,-11752.0,-13940.0,16382.0,5099.0,32767.0,-0.1532361300713637,0.2934489887298315,-0.7403078818169659,-0.5851073573062201
-9574.064398288727,4264.0,1628.0,-17052.0,16249.0,18778.0,20454.0,0.5664443041154954,-0.09609916777827565,-0.7867879354233642,0.2255449954214788
-9574.08009505272,-1372.0,8024.0,-13908.0,863.0,18159.0,30891.0,0.369170633043627,-0.7710264847290595,0.1178032104445095,0.5053252488778721
-9574.095723628998,-7552.0,436.0,-15760.0,-7334.0,20383.0,10665.0,-0.3448023634398015,-0.7702671599504008,0.5010340415654588,-0.19174128835713114
-9574.11130785942,-12592.0,-8156.0,-13320.0,-9054.0,6958.0,5767.0,-0.7747077782737903,-0.08618056044506207,0.5544026051927959,-0.2916136496100678
-9574.12689614296,-13292.0,-14416.0,-16068.0,-137.0,-6132.0,-16314.0,-0.4911776663799141,-0.5615713394572764,0.4669145114418329,0.4747346308779008
-9574.14246916771,-7568.0,-9504.0,-16808.0,4785.0,-17796.0,-20259.0,0.5048787938927995,-0.3300062466355429,0.16793839380340417,0.7797371201537131
-9574.158059597015,-448.0,-1656.0,-15744.0,4430.0,-16919.0,-21526.0,0.8955403303335847,0.26756659358518814,-0.342113024743198,0.09682103616618053
-9574.17365026474,5496.0,992.0,-15004.0,-1839.0,-9811.0,-17124.0,0.39547183539730646,0.3594162953628334,-0.36275896205647645,-0.7634316534457096
-9574.189309597015,8032.0,-3116.0,-15436.0,-5467.0,-867.0,-7187.0,0.04755740726013574,0.2670344276921191,0.1543045886934372,-0.9500636827865726
-9574.204912900925,8000.0,-8792.0,-16568.0,-3163.0,6196.0,6955.0,0.4661812762023974,0.653516652152912,0.21282982121988167,-0.5570408156290407
-9574.220539808273,4676.0,-9576.0,-15896.0,1492.0,9264.0,26191.0,0.5644137624115886,0.6288067137625015,-0.3718696009514725,0.38438551145404914
-9574.236122369766,-848.0,-6772.0,-15804.0,4285.0,11596.0,24889.0,-0.04939118834172684,-0.13598977919814428,-0.389929851767034,0.909407500061865
-9574.251747369766,-6252.0,-4380.0,-14636.0,3358.0,9349.0,14283.0,-0.45374447137127244,-0.7582618943142005,0.003022961281139315,0.4681300204389133
-9574.267330408096,-9404.0,-3432.0,-14052.0,248.0,1732.0,2830.0,-0.5312246443188938,-0.8050325800465156,0.12649212604372745,0.2317815013775968
-9574.282970905304,-9228.0,-4296.0,-14536.0,-2299.0,-4880.0,-11945.0,-0.2612755328385303,-0.4815951969894011,-0.35084843532578935,0.759411968305825
-9574.298714399338,-5892.0,-5116.0,-15288.0,-3385.0,-10400.0,-18671.0,0.24123597903105165,0.40072238975709046,-0.5255474017380374,0.7106523040803389
-9574.314331293106,-792.0,-6508.0,-15948.0,-1972.0,-9907.0,-18680.0,0.48159561536162243,0.8691992064190561,-0.096599407251366,-0.05680631429364048
-9574.33001422882,3352.0,-7008.0,-15788.0,-492.0,-6707.0,-8584.0,0.3039309199147293,0.6430967506686837,0.1992721875951617,-0.674049820451134
-9574.345604419708,5216.0,-5756.0,-15572.0,1071.0,-968.0,3313.0,0.43434730612464717,0.6412465571546503,-0.07175664972255438,-0.6284872741911045
-9574.361202955246,4516.0,-4736.0,-15544.0,578.0,4968.0,10854.0,0.7116579058480721,0.6006120589504522,-0.3616587457504113,0.044845638689557696
-9574.37683057785,1152.0,-4940.0,-15160.0,-158.0,8209.0,14268.0,0.5272902472154763,0.06197573807444157,-0.34304869016739026,0.774881667905499
-9574.392424821854,-2504.0,-6176.0,-15236.0,389.0,7732.0,12619.0,-0.05921126222973755,-0.5024140745372813,-0.018064217204441877,0.862408144783431
-9574.408071279526,-5220.0,-6568.0,-14916.0,983.0,4104.0,6697.0,-0.42253800479242704,-0.68055738703728,0.27002670980201965,0.5342179830823001
-9574.423667669296,-6464.0,-5976.0,-14668.0,777.0,-405.0,-1038.0,-0.3160103523572625,-0.7100138915709382,0.2576925421555483,0.5741187026188413
-9574.43931055069,-5268.0,-5000.0,-14656.0,-181.0,-4232.0,-7808.0,0.1259440209442395,-0.5285555930793588,-0.09365054280721898,0.8342641454868102
-9574.454884052277,-2924.0,-4656.0,-15008.0,-1333.0,-5629.0,-10900.0,0.5525661467800858,-0.030350887240337156,-0.51405649458743,0.6553589836485166
-9574.470472335815,-240.0,-5680.0,-15496.0,-1523.0,-4751.0,-9813.0,0.6464833170270391,0.43846890052045484,-0.6176564814309629,0.09113075786156445
-9574.486082792282,1996.0,-6392.0,-15432.0,-545.0,-2429.0,-3875.0,0.5260777303330416,0.5900746620860581,-0.5668802656467276,-0.2317345016003351
-9574.501663208008,2800.0,-6156.0,-15336.0,273.0,902.0,3392.0,0.5974747768627948,0.43312471400032226,-0.6746826948401047,-0.015170181877182658
-9574.517225503922,1640.0,-5588.0,-15344.0,428.0,3507.0,7892.0,0.6369807452452967,-0.00363986229267255,-0.6313054833745146,0.4423750312240815
-9574.53280544281,-596.0,-5620.0,-15204.0,105.0,4548.0,8368.0,0.43400597743230185,-0.4879212807065482,-0.28611723411942863,0.7012193406677844
-9574.548412561417,-2756.0,-5828.0,-15068.0,58.0,3721.0,6120.0,0.13128238921829152,-0.7346959852037653,0.10071448101095883,0.6579083043413413
-9574.564067602158,-3872.0,-6096.0,-14800.0,-52.0,1407.0,2367.0,-0.01970027644665779,-0.7734460446632765,0.25818960924976203,0.5785596259488847
-9574.57965540886,-4124.0,-5896.0,-14876.0,-149.0,-1514.0,-2763.0,0.1388265137935314,-0.7319707375682192,0.06435354197386882,0.6639312163524088
-9574.595285892487,-2900.0,-5544.0,-15112.0,-434.0,-2772.0,-5301.0,0.38436963927762713,-0.5374616106916981,-0.29505752034229066,0.6901710346890334
-9574.610877513885,-1388.0,-5864.0,-15092.0,-726.0,-3040.0,-5036.0,0.5109746962186668,-0.2214194684868334,-0.6013985135573888,0.5728857710662856
-9574.626467704773,-132.0,-5764.0,-15400.0,-483.0,-1875.0,-3638.0,0.5504359899990559,0.03911953595177043,-0.7336429228256299,0.3965576182707179
-9574.642061710358,580.0,-5788.0,-15280.0,-268.0,-392.0,-177.0,0.531627943350239,0.051039630642898105,-0.7606038904846248,0.36911841966052644
-9574.657628774643,388.0,-5708.0,-15244.0,-112.0,1211.0,2842.0,0.5027540774413805,-0.17556940623597025,-0.6960178699915556,0.48163559447203813
-9574.673202037811,-608.0,-5744.0,-14984.0,-104.0,2012.0,4323.0,0.4075844340920013,-0.48686940219707187,-0.5041703632134139,0.585359171062881
-9574.688809871674,-1836.0,-5632.0,-15212.0,-220.0,2008.0,4236.0,0.24992728353049737,-0.7253038390896814,-0.24447691754069292,0.5930444593271547
-9574.70439696312,-3156.0,-5988.0,-14296.0,-737.0,552.0,1811.0,0.11942952663084977,-0.796321640616415,-0.15366175539498808,0.5727097849553848
-9574.720016002655,-3332.0,-6208.0,-15596.0,3.0,-789.0,-1570.0,0.18538536265189637,-0.7274759367463441,-0.2677943952515649,0.6039016398730035
-9574.735603570938,-2676.0,-5676.0,-15144.0,-395.0,-1950.0,-3215.0,0.26983872671139875,-0.5281618899437497,-0.4979535405227929,0.6326723884117538
-9574.751232624054,-1804.0,-5452.0,-14996.0,-428.0,-2254.0,-4303.0,0.35853948333300006,-0.2088705808946801,-0.7113993437507027,0.5672155613513207
-9574.766826629639,-648.0,-5316.0,-15368.0,-229.0,-1950.0,-3259.0,0.3743715215919574,0.07848439504304465,-0.8003706881897004,0.46161989238159523
-9574.78244137764,-280.0,-5584.0,-14704.0,-620.0,-426.0,-536.0,0.36903496402379904,0.11241851044096171,-0.8330659186545427,0.39645485116776136
-9574.798032045364,-372.0,-6304.0,-15376.0,-31.0,544.0,-211.0,0.4154015503221498,0.10775572116179187,-0.8136763026269211,0.392123872124919
-9574.813621520996,-744.0,-6592.0,-15096.0,-360.0,828.0,361.0,0.46331146175921084,0.04054211154863545,-0.7967009157073562,0.3859617565313707
-9574.829212903976,-1208.0,-6644.0,-15240.0,-21.0,973.0,896.0,0.49730552185735394,-0.05507637050572198,-0.756410582438079,0.4213037409254603
-9574.844805717468,-1748.0,-6056.0,-15192.0,-31.0,1230.0,666.0,0.5495542484772671,-0.1446219704891399,-0.6960094856813013,0.43891389756314936
-9574.860397100449,-2280.0,-5684.0,-15100.0,7.0,555.0,-545.0,0.6026268571733232,-0.13226002068736675,-0.674658309405236,0.4051966479274593
-9574.876024723053,-2424.0,-5480.0,-15292.0,-216.0,-308.0,-2961.0,0.6643268843751926,0.040135125026973334,-0.7092223727412245,0.2325136306514653
-9574.891672849655,-2040.0,-5304.0,-15188.0,-380.0,-862.0,-3772.0,0.6521066933664718,0.2547289927134456,-0.7139504812083838,-0.012029593515867992
-9574.907303333282,-1212.0,-5224.0,-15148.0,-400.0,-859.0,-3560.0,0.5745468567681449,0.4311626825434994,-0.6506861955393246,-0.24617498957915696
-9574.923325300217,-608.0,-5228.0,-15796.0,-383.0,-162.0,-2456.0,0.5147672959857098,0.5355336099616735,-0.5456018478642403,-0.38799098854497277
-9574.938927173615,-176.0,-5512.0,-15476.0,-573.0,819.0,-754.0,0.5515622585058646,0.5701774115977458,-0.4516273677487949,-0.40830076536286247
-9574.954531431198,-8.0,-5964.0,-15608.0,-122.0,1409.0,1697.0,0.6612950312544853,0.5378806330198665,-0.4556415183719858,-0.25644514617350117
-9574.9701795578,-532.0,-5824.0,-15620.0,378.0,2024.0,2752.0,0.7523240832539407,0.47480777953349884,-0.4565324878911151,0.012005571645485023
-9574.985848426819,-780.0,-5180.0,-15040.0,229.0,2980.0,3943.0,0.787017576931464,0.3027364721530827,-0.38946774020772934,0.3704980990055381
-9575.001452445984,-1912.0,-5488.0,-15028.0,150.0,3214.0,2823.0,0.7502604016406791,0.10607572209871904,-0.2236342175262849,0.6130619933274356
-9575.017053842545,-2560.0,-5544.0,-14860.0,6.0,2731.0,1932.0,0.6720217040567584,-0.07435086637572066,-0.06017807102134311,0.7343278407591399
-9575.032701969147,-2888.0,-5812.0,-15292.0,-35.0,1916.0,-603.0,0.709634748877374,-0.1933526203877299,0.045190631580680755,0.6760111642512155
-9575.048317432404,-2788.0,-5664.0,-15220.0,-31.0,875.0,-1833.0,0.8012483411393617,-0.25052340123450945,0.06557686364936591,0.5393874268178916
-9575.06394124031,-2188.0,-5496.0,-15448.0,136.0,228.0,-4934.0,0.9504887304898972,-0.2573831180947996,-0.018300486222818078,0.17317677654786898
-9575.07956123352,-1096.0,-4868.0,-15420.0,-369.0,1.0,-5749.0,0.9193642025262128,-0.24939542762576003,-0.1366282724645439,-0.27185308340362696
-9575.09521651268,48.0,-5332.0,-15660.0,-604.0,1994.0,-4561.0,0.7528283059633002,-0.18000566108108218,-0.05648104734564867,-0.6306008206543414
-9575.11082482338,1068.0,-5872.0,-15936.0,-151.0,4587.0,-1488.0,0.6370439853415167,0.06406100009521208,0.21183683659243197,-0.7383740946630711
-9575.126432180405,984.0,-6476.0,-15848.0,604.0,7400.0,1998.0,0.5194291997548193,0.5075950356331091,0.4761577894424516,-0.49579667787911685
-9575.142022371292,496.0,-6424.0,-15644.0,517.0,10228.0,5256.0,0.21071891490786232,0.8409173180006874,0.4830795454023982,0.12284036795938191
-9575.157592773438,-924.0,-6552.0,-15620.0,-323.0,12374.0,6568.0,-0.22658342759737674,0.6198968795169891,0.14254040139460694,0.7376110377926757
-9575.173208475113,-1876.0,-6872.0,-15716.0,-64.0,14764.0,3686.0,-0.3874824098069119,-0.17032998353066484,-0.2123570329835901,0.8807664669724196
-9575.188904047012,-3616.0,-7068.0,-16608.0,-1951.0,14083.0,3513.0,-0.26215977224323916,-0.7714283288230839,-0.48466493518232323,0.3182302435522295
-9575.204560518265,-4444.0,-7396.0,-18676.0,-1988.0,12832.0,-4148.0,0.16871360583354503,-0.5835036685636759,-0.7159750702422136,-0.34414951223419243
-9575.220162391663,-3700.0,-7064.0,-20216.0,-3390.0,10279.0,-9663.0,0.21575328555083814,0.17295725888693425,-0.5919097460673969,-0.7570859653188443
-9575.235803127289,-1664.0,-7472.0,-23280.0,-4839.0,10495.0,-15358.0,-0.09416350159494673,0.8033079089380264,0.08042488814656955,-0.5825474021670733
-9575.251433372498,1372.0,-9224.0,-26008.0,-5314.0,13686.0,-15130.0,-0.2802503699165618,0.6860278436108859,0.6201964637459034,0.2572583804452334
-9575.267045259476,2932.0,-10952.0,-23220.0,-4500.0,18975.0,77.0,-0.5266939542745894,0.18968375563661785,0.025581857748537978,0.8282264907211784
-9575.282673120499,1240.0,-12764.0,-21324.0,-97.0,21760.0,12351.0,-0.6106025886715352,-0.5624481881044564,-0.49393006894595826,0.25855289864295705
-9575.298310756683,-3240.0,-9896.0,-19044.0,3811.0,21772.0,17114.0,0.04894268700221401,-0.7564697790455697,-0.2762060482877819,-0.5908200281549347
-9575.313983917236,-8048.0,-6340.0,-16856.0,4425.0,21202.0,10075.0,0.5932985279540084,0.048755364896873474,0.10871463016074644,-0.7961161349391126
-9575.32959151268,-11904.0,-4328.0,-12272.0,2468.0,16083.0,13050.0,0.6436438230375504,0.6826409396999799,0.34409935865029667,-0.03632640757891616
-9575.345188379288,-15480.0,-4988.0,-8964.0,289.0,11335.0,19064.0,0.15895909084440896,0.6000443139783116,-0.0714591368076006,0.7807511898594385
-9575.360789775848,-19412.0,-5388.0,-7760.0,2299.0,5477.0,21183.0,-0.6332069200382403,0.0584371073042386,-0.437998573126956,0.6354457890680753
-9575.376382112503,-22420.0,-5152.0,-6924.0,3398.0,-6604.0,12715.0,-0.9875715540468821,-0.1530818909858709,0.030850141717394565,0.017794073328866396
-9575.39207315445,-20924.0,-3112.0,-7048.0,832.0,-18878.0,-2051.0,-0.4763196137590533,-0.10378348202865255,0.8424078970487598,0.22955946810428154
-9575.407679080963,-15172.0,-4108.0,-8872.0,-3184.0,-26942.0,-10857.0,0.6181619149728417,-0.0839164737833482,0.6571502539831875,0.42306904400429735
-9575.423328399658,-8192.0,-7672.0,-11796.0,-4288.0,-31543.0,-5315.0,0.8672729038155604,0.18214678546036903,-0.4154284670411516,0.20513275610106405
-9575.43893289566,-2408.0,-11472.0,-15172.0,-1798.0,-30236.0,-1649.0,-0.06042064236683342,0.22861925574852235,-0.9576198758775752,-0.16445897725934064
-9575.454533815384,1892.0,-14468.0,-18532.0,3513.0,-27222.0,9414.0,-0.8339165597465317,-0.35531444634710985,-0.3864847455533703,-0.17018918018517695
-9575.470162391663,2808.0,-12596.0,-19668.0,6704.0,-25535.0,23484.0,-0.3511479831338799,-0.6214879753150643,0.6479617371847477,-0.2656941429996429
-9575.485820293427,1700.0,-10296.0,-19236.0,7712.0,-22963.0,19115.0,0.6297404749211636,-0.10768454063637888,0.7691659662311436,-0.014652315370293968
-9575.501420259476,-128.0,-7660.0,-19520.0,5957.0,-24714.0,14029.0,0.8672908956811382,0.414738431204112,-0.170576066887755,0.21610724503372236
-9575.517026901245,-760.0,-5716.0,-20080.0,2523.0,-25412.0,2614.0,0.14191612120422822,0.426433343367579,-0.8726898542667078,-0.19085815797771835
-9575.5325922966,-520.0,-6852.0,-20236.0,-1108.0,-25951.0,-6834.0,-0.7484342028853341,0.1965746366763617,-0.36153618236478935,-0.5200925350435678
-9575.54818892479,672.0,-9768.0,-20852.0,-654.0,-28416.0,-12502.0,-0.7621003518289524,-0.22703644903454742,0.6019096837591205,-0.07322729784012161
-9575.56381201744,3336.0,-10228.0,-21216.0,3436.0,-29420.0,-13724.0,0.2529702162270179,-0.45187462537560635,0.7501080183491173,0.4112825712962699
-9575.579431533813,7664.0,-6972.0,-20360.0,6929.0,-26836.0,-6887.0,0.9421871328447287,0.07948600255774171,0.0501969458475504,0.3216296763776605
-9575.595057964325,10248.0,-2312.0,-18688.0,7617.0,-19348.0,1865.0,0.44345342687704614,0.6048197001071753,-0.6447222180566842,0.1479035161763931
-9575.610650062561,10892.0,276.0,-17700.0,4237.0,-10053.0,6032.0,-0.28679571790934966,0.3784143281712291,-0.8780153261133693,0.060331579903163735
-9575.62626504898,8684.0,-940.0,-16728.0,221.0,-1454.0,10022.0,-0.34315668905208585,-0.29025931334698346,-0.8777437902365903,-0.16600860361816258
-9575.641867399216,5064.0,-5348.0,-15884.0,-1188.0,2944.0,13420.0,0.030016393669699163,-0.792503031402138,-0.3890717124059284,-0.46868023633924055
-9575.657504796982,536.0,-8592.0,-14960.0,230.0,2462.0,11999.0,0.42379924098585353,-0.7505097792803832,0.2991097940690787,-0.4094662448069172
-9575.673143148422,-2788.0,-8744.0,-14272.0,2530.0,-1397.0,5927.0,0.7260083106642057,-0.47869016870641473,0.47267198024781176,-0.14264941051032318
-9575.688788414001,-3428.0,-6476.0,-13648.0,2658.0,-4977.0,-1645.0,0.9091470937704818,-0.39180345259891236,0.049607208790249865,-0.13221475430639082
-9575.70439171791,-2484.0,-3704.0,-12708.0,421.0,-6307.0,-8955.0,0.6124077937606883,-0.3398158042226374,-0.5504443003995738,-0.45441499259961926
-9575.720049619675,-1240.0,-3536.0,-12876.0,-2691.0,-5543.0,-14879.0,-0.18775292820551917,0.006443351104497662,-0.6848992390221428,-0.7040030920128741
-9575.735665082932,404.0,-5320.0,-12844.0,-4471.0,-4343.0,-15097.0,-0.7881974848129912,0.4108166945385253,-0.18994110184096452,-0.41700928797132897
-9575.751307487488,964.0,-7020.0,-13208.0,-4087.0,-1546.0,-11824.0,-0.738191638863813,0.5595749141635016,0.3289091547296516,0.18376013627959095
-9575.766901254654,516.0,-7980.0,-13200.0,-2225.0,1027.0,-7290.0,-0.4500306779026142,0.3964549778968948,0.4841711407411868,0.6370825267739368
-9575.782482385635,-1224.0,-7632.0,-12996.0,-628.0,3052.0,-4585.0,-0.27216825942351197,0.05213143336216851,0.4394335664522917,0.8544617562495124
-9575.798085212708,-3284.0,-5444.0,-12764.0,-8.0,3439.0,-2829.0,-0.17989281264459803,-0.29144008467354604,0.34508845241431424,0.87385079562508
-9575.81369137764,-4904.0,-3616.0,-11624.0,-1386.0,3685.0,-4952.0,0.045193970919878784,-0.6128564087108781,0.048730555630223674,0.7873943486223838
-9575.829363584518,-6196.0,-4288.0,-10740.0,-5100.0,2880.0,-8930.0,0.27346071088322205,-0.6357361480381412,-0.5617591384315251,0.45330504086050083
-9575.844965457916,-7088.0,-7140.0,-10804.0,-6531.0,-92.0,-12107.0,0.24661756206695795,-0.12458777580374278,-0.9562173768532999,-0.09646757177528954
-9575.860552549362,-5664.0,-9176.0,-11528.0,-5871.0,-3536.0,-15447.0,-0.1361223452837659,0.5659234376022453,-0.6458675195509558,-0.4940207658347981
-9575.87613773346,-2928.0,-8772.0,-14196.0,-4039.0,-420.0,-7209.0,-0.21987317551912622,0.8125856387240706,-0.08975066095056597,-0.5322642062786734
-9575.891773700714,-3276.0,-8920.0,-17632.0,-10647.0,20471.0,14564.0,0.5311728685998309,0.717780924405591,-0.39519001293201794,0.21557082803958738
-9575.907341957092,-9916.0,-25340.0,-32228.0,-7545.0,9890.0,5045.0,0.811487197865098,0.0051589830967512145,-0.2563247934230503,0.525128091870059
-9575.92344379425,-10056.0,-17680.0,-21376.0,9920.0,-3199.0,7648.0,0.2553323417319241,0.45301109543118473,-0.021141459624124875,0.8538965870448785
-9575.939098358154,-6272.0,-456.0,-14840.0,15995.0,-4811.0,-13778.0,0.2997178478862267,0.5582661524158262,0.752275836882678,0.1805247350579547
-9575.954688072205,-960.0,14320.0,-12712.0,110.0,-486.0,-10359.0,0.36290202638909164,-0.08252182312796096,0.9238138377042207,-0.0897789575375457
-9575.970283031464,-228.0,5856.0,-15824.0,-21667.0,5825.0,-20513.0,-0.14944271925585953,-0.8382887874050173,0.3986877518216955,0.34056843529576
-9575.98590350151,-172.0,-9216.0,-16360.0,-18853.0,4966.0,-14069.0,-0.5520820014696796,-0.5290308666105371,-0.5402909527666037,0.3513082580656086
-9576.001522541046,260.0,-21332.0,-14520.0,-6349.0,3595.0,-11137.0,-0.21785388051808574,0.1251608373193675,-0.9278436876580859,0.27564568347385876
-9576.017166376114,1684.0,-16780.0,-15232.0,4600.0,-6085.0,8201.0,-0.685092271439785,-0.34322612328357616,-0.5657339875191335,0.3046136294962923
-9576.03275513649,5572.0,-5536.0,-15276.0,7112.0,-796.0,4672.0,-0.5092978544949313,-0.783998626922467,-0.15174820372288086,0.3208338059765918
-9576.048355817795,8268.0,396.0,-14552.0,-2754.0,9175.0,15519.0,-0.5375964049218013,-0.5980043553932733,0.2261995625866956,-0.5497405335532553
-9576.064006567001,6032.0,-3528.0,-14876.0,-8210.0,22949.0,25566.0,-0.05936920942520693,0.4297328402033553,0.2708796105823129,-0.8593190441237515
-9576.079576253891,-2680.0,-10036.0,-16544.0,-5281.0,28638.0,32767.0,0.4852719596373865,0.8546480201547088,-0.17956626097547249,0.04294001344452174
-9576.095176458359,-13204.0,-13288.0,-15544.0,2756.0,22382.0,32767.0,0.14046141164920306,0.1035138973259139,-0.46098369305222126,0.8700859150899115
-9576.110803604126,-20188.0,-8500.0,-14964.0,7222.0,8550.0,8877.0,-0.15955882537897942,-0.5096372965773276,0.06997197502576982,0.8425643772982729
-9576.126398801804,-20360.0,388.0,-13568.0,3883.0,-7993.0,-19171.0,0.7015156539996336,-0.044518132134586025,-0.18394550951702415,0.6870647514122933
-9576.142012357712,-13044.0,4436.0,-15980.0,-5432.0,-18957.0,-32768.0,0.6718825794380604,0.36894851336019263,-0.5158926353930352,-0.38249912769075856
-9576.157598018646,-3872.0,904.0,-16092.0,-10985.0,-23610.0,-32768.0,-0.29874611093004577,0.10884204068900505,-0.12639767268598032,-0.9396423786326336
-9576.173209667206,5216.0,-3040.0,-15492.0,-10810.0,-20081.0,-32768.0,-0.8564950131810191,-0.24682474584120126,0.4400161968581395,-0.1089935031961594
-9576.188873052597,11420.0,-7132.0,-16352.0,-9005.0,-4859.0,-28752.0,-0.39977950209199076,-0.2545147934366504,0.09485943556945937,0.8754428919766397
-9576.204510688782,12852.0,-9956.0,-16368.0,-5050.0,6356.0,8802.0,-0.8553400040158828,-0.33940138049705687,-0.21935600031616112,0.32416527508679516
-9576.220099687576,9388.0,-10412.0,-17240.0,-909.0,18888.0,32767.0,-0.419576331740628,-0.4154332402587866,-0.19841921749461597,-0.7823047608572942
-9576.235731363297,-748.0,-7576.0,-15884.0,2334.0,26450.0,32767.0,0.6188505367380407,0.1933167205260043,-0.03625966173520283,-0.7604853027343516
-9576.251314401627,-11220.0,-5060.0,-14472.0,4567.0,20822.0,23061.0,0.7328692507068764,0.5995303712536652,0.135846875912247,0.2915675249709178
-9576.26690864563,-17084.0,-3568.0,-13996.0,718.0,5032.0,-1921.0,0.6184150958700256,0.44696730334889534,0.5210594616139762,0.3824657323207356
-9576.282480239868,-16452.0,-2376.0,-14024.0,-4249.0,-10791.0,-27610.0,0.784865657757903,-0.2421821873478765,0.3123413754842372,-0.47725941851813375
-9576.298102617264,-9184.0,-2896.0,-15560.0,-7565.0,-21105.0,-32768.0,-0.045623019312316035,-0.7022951801437676,-0.41882750431034904,-0.5738323288982817
-9576.313687562943,-348.0,-5952.0,-16968.0,-6151.0,-19021.0,-32768.0,-0.7891324374147494,-0.12379735040416577,-0.5845190922328192,0.1424136337156169
-9576.329348802567,7012.0,-6608.0,-15900.0,-2877.0,-15046.0,-21854.0,-0.5191580773757513,0.5429677245648831,0.0708817663979066,0.6562291642167843
-9576.344926595688,10164.0,-6108.0,-16740.0,-2006.0,-2969.0,-3817.0,-0.17016710901834733,0.7098657839224517,0.24682728037923288,0.6373460735621524
-9576.360513448715,9268.0,-4996.0,-15368.0,-1658.0,7189.0,16853.0,-0.6131211417534109,0.3689896212492926,-0.5266431780556586,0.4588857024932605
-9576.376106500626,3612.0,-5688.0,-16404.0,-378.0,13658.0,22399.0,-0.34823721792683243,-0.47505893031445157,-0.798080437148008,-0.12695459275155482
-9576.391743421555,-2864.0,-5252.0,-15408.0,-117.0,13291.0,20755.0,0.33845254322744034,-0.7461389643075258,-0.1434781896982917,-0.5551040722295875
-9576.40733408928,-7984.0,-5264.0,-15140.0,398.0,7839.0,10517.0,0.6393211548739663,-0.31995572177595,0.4957391111852138,-0.4930918075518422
-9576.422926187515,-9692.0,-4752.0,-14424.0,-627.0,17.0,506.0,0.6411699706550653,-0.3315231478563325,0.5367107521995624,-0.43696114202408326
-9576.438512802124,-8044.0,-4252.0,-14824.0,-2174.0,-5504.0,-10916.0,0.2846802491027257,-0.7964812390453274,-0.0026265445790399013,-0.5334490536904196
-9576.454147577286,-4116.0,-4172.0,-14532.0,-3553.0,-6793.0,-13038.0,-0.344717425869711,-0.723532610454964,-0.550828926632062,-0.2329333627786201
-9576.46977519989,-596.0,-6500.0,-15448.0,-2830.0,-5177.0,-10956.0,-0.6738786131587613,-0.14700394703941844,-0.697346047650772,0.19489983095914593
-9576.485399007797,1636.0,-7052.0,-15424.0,-1355.0,-1745.0,-2322.0,-0.7297357781258028,0.09989556995728659,-0.623845596094586,0.2613871486118404
-9576.50103354454,1344.0,-6108.0,-15724.0,-489.0,1670.0,4879.0,-0.6794487401619187,-0.1572256893317713,-0.7144944468850991,-0.05592117199135785
-9576.516613483429,-472.0,-4456.0,-15668.0,-116.0,3936.0,5044.0,-0.35862643615660966,-0.38906069944067667,-0.7668200307501803,-0.36332615083507686
-9576.532169342041,-2480.0,-4220.0,-15472.0,-998.0,4130.0,3884.0,0.006414346519802763,-0.43502939338630897,-0.6547464915192367,-0.6180738749469308
-9576.547791957855,-4000.0,-5148.0,-15216.0,-1352.0,2400.0,482.0,0.1148585554091867,-0.32445605800613686,-0.5463203776136188,-0.7635900887757421
-9576.563370227814,-4180.0,-5716.0,-15256.0,-754.0,86.0,-2785.0,-0.08536121676325645,-0.18773778722813914,-0.5568670158503547,-0.8045912705077648
-9576.578945159912,-3536.0,-5404.0,-15212.0,-463.0,-1365.0,-4428.0,-0.4356451983287295,-0.06018271542119617,-0.5437702594765088,-0.714776333440401
-9576.594561815262,-2288.0,-5084.0,-15192.0,-558.0,-1551.0,-4521.0,-0.7322184708700763,0.0727360124271257,-0.4370185093424041,-0.517281747121461
-9576.610168218613,-1128.0,-5284.0,-15176.0,-611.0,-898.0,-2997.0,-0.8649612603333912,0.17891332414265773,-0.32107867501086884,-0.3416731259844128
-9576.625795602798,-692.0,-5640.0,-15804.0,-345.0,-531.0,-2392.0,-0.9243755720840757,0.25061253636736736,-0.22828225923357176,-0.17495819063127407
-9576.641381263733,-380.0,-5596.0,-15652.0,-177.0,108.0,386.0,-0.9116941796275941,0.2589395087975127,-0.24267951853577943,-0.2070524206574592
-9576.656964540482,-352.0,-5588.0,-15456.0,172.0,991.0,3021.0,-0.8092600069980443,0.19218510009326656,-0.3786702208105471,-0.4059211650640528
-9576.672548770905,-912.0,-5000.0,-15216.0,315.0,1858.0,4781.0,-0.5325886655175615,0.07116439956663814,-0.5487606601983342,-0.6404269508813875
-9576.688138961792,-1632.0,-5028.0,-15356.0,241.0,1995.0,4072.0,-0.19605684533195977,-0.021776140151126284,-0.6326174767911452,-0.7489209846018492
-9576.703749656677,-2100.0,-5236.0,-15276.0,-32.0,1887.0,4087.0,0.16308062838373885,-0.11494492884798278,-0.6099036060107301,-0.7669484750315403
-9576.719323396683,-2624.0,-5356.0,-15256.0,425.0,1429.0,4198.0,0.488737629093903,-0.22065385183889688,-0.5369683783817412,-0.6512391021694042
-9576.73491024971,-2744.0,-5236.0,-15368.0,831.0,1199.0,1131.0,0.6171955178663125,-0.168042580891276,-0.5049717141009257,-0.5795126846679941
-9576.750470876694,-2500.0,-5108.0,-15088.0,69.0,757.0,1136.0,0.7039606285979949,-0.17501708924165338,-0.4480644060719534,-0.5225387448493007
-9576.766037225723,-2516.0,-5640.0,-15364.0,502.0,55.0,-1066.0,0.6616004203843643,-0.09965016696177809,-0.4815162893162846,-0.5661243600966118
-9576.781610012054,-1604.0,-5888.0,-15496.0,-145.0,-472.0,-2570.0,0.5005657101078983,-0.022899287833319397,-0.5110298200990315,-0.6983968180414725
-9576.797268629074,-812.0,-5848.0,-15292.0,63.0,449.0,458.0,0.5477176189738293,-0.013263717342601648,-0.4938070602958978,-0.6752659260393776
-9576.81288933754,-912.0,-5676.0,-15536.0,813.0,1328.0,2742.0,0.7399214946826023,-0.013870240644569064,-0.45827703878402815,-0.49224582665012795
-9576.82853102684,-1064.0,-4872.0,-15572.0,590.0,2063.0,2237.0,0.8872910725004335,0.022481190009513003,-0.3358957875981657,-0.31525096134761377
-9576.84412932396,-2128.0,-4364.0,-15360.0,327.0,2085.0,2474.0,0.9772055096073662,0.0313031484407244,-0.18140470107663428,-0.10574421647543145
-9576.859765529633,-2664.0,-4996.0,-15040.0,-44.0,2045.0,558.0,0.9979220424089281,0.03671023030725825,-0.008143668312653698,-0.05232243239372087
-9576.87535905838,-2952.0,-5556.0,-15232.0,219.0,446.0,-2194.0,0.9690305465827164,0.05800184975846022,0.0362233522085554,-0.23728348861430268
-9576.890951156616,-2572.0,-5516.0,-15172.0,-198.0,-989.0,-4542.0,0.8145200707004128,0.005791234106354052,-0.018567859016656422,-0.5798092364263074
-9576.906613826752,-1636.0,-5724.0,-15180.0,-347.0,-1326.0,-5150.0,0.500492160750811,-0.07057911785391024,-0.08379331091477102,-0.8587810350699929
-9576.922651052475,-628.0,-6028.0,-15148.0,-147.0,-1249.0,-3666.0,0.2043591640795125,-0.13647908254548302,-0.14184221530971625,-0.9589012347683666
-9576.938278913498,-208.0,-5808.0,-15188.0,102.0,-421.0,-1631.0,0.06323425327719544,-0.14840569115692126,-0.175347681940691,-0.9712004790375355
-9576.953861236572,-296.0,-5472.0,-15324.0,163.0,206.0,-155.0,0.05539007453721753,-0.1279253794306413,-0.18997411655163576,-0.9718419994941119
-9576.96943640709,-884.0,-5444.0,-15464.0,132.0,133.0,52.0,0.06351419971461345,-0.11711892125966206,-0.19996829662117013,-0.9707016972602928
-9576.985018253326,-1080.0,-5512.0,-15256.0,7.0,-281.0,-519.0,0.014727602102053946,-0.1318992453581187,-0.2072174122479368,-0.9692505511329621
-9577.000601768494,-1092.0,-5692.0,-14880.0,-100.0,-720.0,-557.0,-0.046378593813261516,-0.18252094254223583,-0.20549992580892698,-0.9603670715210532
-9577.016156435013,-1016.0,-5760.0,-15048.0,-28.0,-651.0,571.0,-0.010558011758474898,-0.24677300676263764,-0.19092073358759323,-0.9500215181812517
-9577.031802415848,-656.0,-5620.0,-15252.0,39.0,68.0,1565.0,0.12011217648092644,-0.2650716465490794,-0.15904513306138013,-0.9434059215980483
-9577.047460317612,-896.0,-5704.0,-15332.0,-89.0,816.0,2836.0,0.3514470143082337,-0.23094278828822273,-0.07507272581242097,-0.9041650902963365
-9577.063089847565,-1640.0,-5832.0,-15440.0,309.0,1287.0,4413.0,0.6627757553355023,-0.13834748620587844,0.026997664105915056,-0.7354314361874893
-9577.07868027687,-2248.0,-5248.0,-15276.0,457.0,1225.0,3606.0,0.8504445732047298,-0.02373476292704888,0.1064814479035955,-0.5146284000983388
-9577.094296693802,-2848.0,-5108.0,-15808.0,830.0,783.0,2170.0,0.9214601940196926,0.09099914967152922,0.12918625695405975,-0.35488191924983853
-9577.109912395477,-3300.0,-4616.0,-15220.0,285.0,-129.0,-326.0,0.9098030728442077,0.1061471919609103,0.11281346813960504,-0.38505098842668245
-9577.125515699387,-2796.0,-5260.0,-15040.0,254.0,-736.0,-2487.0,0.8103942448714835,0.07515449207324294,0.06748345841440632,-0.5771125999671313
-9577.14114356041,-1768.0,-5904.0,-15240.0,77.0,-792.0,-2794.0,0.6531497491955297,0.023447080446716475,0.025435702162799046,-0.7564381432740069
-9577.156757116318,-1132.0,-6252.0,-15220.0,514.0,211.0,988.0,0.7133660561629137,0.06840900923195953,0.0018078376002824274,-0.6974423338840876
-9577.17231798172,-1340.0,-5812.0,-15448.0,920.0,235.0,1635.0,0.7965865531641609,0.13830933923809874,-0.04834558434403614,-0.5865007199245329
-9577.187947034836,-2040.0,-5028.0,-15316.0,764.0,-210.0,-820.0,0.7408154588869291,0.1833654078494127,-0.09142774555184878,-0.6396956701601738
-9577.203566074371,-1728.0,-5480.0,-14908.0,94.0,-426.0,-1266.0,0.6606745187972645,0.17479132313512932,-0.10309100037064599,-0.72272361190932
-9577.219173669815,-1472.0,-6076.0,-15224.0,474.0,-1836.0,-1832.0,0.5080391701664203,0.10037663527087935,-0.20537804472961768,-0.8304460195649993
-9577.234811544418,-332.0,-5564.0,-15256.0,685.0,-1676.0,-1084.0,0.38687863005766066,0.028281426847047573,-0.3147343151911586,-0.8662952137356845
-9577.250431776047,456.0,-5416.0,-15264.0,458.0,-42.0,1576.0,0.49865260426524627,-0.0027769376526336604,-0.3513369949701067,-0.7924015300604461
-9577.26600408554,88.0,-6104.0,-15248.0,731.0,1365.0,5239.0,0.8150809125119117,-0.03370644965180168,-0.30820640566103386,-0.48940350715960956
-9577.281604290009,-816.0,-6248.0,-15312.0,1294.0,1747.0,6415.0,0.9812111420025357,-0.03427116209725471,-0.18984747969493462,-0.002848984391808109
-9577.29720878601,-1988.0,-5804.0,-15624.0,1200.0,1601.0,5919.0,0.8891705462336333,-0.02586864718545431,-0.031178179209057487,0.45577897488210717
-9577.312806844711,-2992.0,-5492.0,-14672.0,1432.0,641.0,5915.0,0.5812024302354022,0.03822175354751269,0.07836095304009776,0.8090750235193664
-9577.328402042389,-3524.0,-5180.0,-15120.0,1744.0,-908.0,834.0,0.5139093736571282,0.19286248281527577,0.15010634654505695,0.8222951435564733
-9577.344057798386,-3268.0,-4960.0,-15412.0,985.0,-1962.0,-571.0,0.5532683562264626,0.3634055215534359,0.13989034843628853,0.7363838966988053
-9577.359663963318,-2436.0,-5588.0,-14888.0,1097.0,-2415.0,-1599.0,0.6280841859023515,0.5331552679160956,0.1395357660358314,0.5493500575311615
-9577.37530207634,-1740.0,-6088.0,-15152.0,1443.0,-2364.0,-1027.0,0.6185768408108635,0.690712480054661,0.12293162080174981,0.3537891724123929
-9577.390933513641,-1324.0,-6072.0,-15288.0,1817.0,-2141.0,159.0,0.5116920128493629,0.832081564383088,0.05233159216749637,0.20754025792885275
-9577.406531333923,-1284.0,-5816.0,-15048.0,2134.0,-1417.0,1927.0,0.3158953455506456,0.9263891308486851,-0.10807851418666563,0.1741618318577829
-9577.422155380249,-1780.0,-5800.0,-15028.0,1900.0,-1300.0,2290.0,0.11057599955291315,0.9399603112491017,-0.2888260787854599,0.14431582661919454
-9577.437741994858,-2172.0,-6112.0,-14756.0,1937.0,-1563.0,1471.0,-0.10328829500186527,0.9126290110553571,-0.38803897336090204,0.0765870188004829
-9577.453366279602,-2476.0,-6236.0,-14608.0,1992.0,-2159.0,1077.0,-0.3304089498394641,0.8417148164433329,-0.42546167579140715,-0.03644799141950711
-9577.468959093094,-2412.0,-6172.0,-14736.0,2042.0,-2721.0,950.0,-0.5525147676649366,0.7063024958377234,-0.40455566239570767,-0.17944060830574024
-9577.484566926956,-2112.0,-6240.0,-14664.0,1870.0,-2847.0,921.0,-0.7203257791994641,0.5154061852858357,-0.3377701494782234,-0.31843140880140297
-9577.500229597092,-1812.0,-6212.0,-15196.0,2083.0,-2263.0,2019.0,-0.7850579044726588,0.2497955752115774,-0.32783914437799583,-0.4623935041101014
-9577.515858411789,-1844.0,-6544.0,-15352.0,2516.0,-2250.0,4182.0,-0.6659304831231992,-0.12018376726664293,-0.3318704570592594,-0.6572324196691594
-9577.531456708908,-2072.0,-6048.0,-14960.0,2849.0,-1654.0,5899.0,-0.29766850696741054,-0.4750172467376597,-0.2907794457507871,-0.7753704851169093
-9577.547096729279,-3316.0,-6512.0,-14688.0,2763.0,-1895.0,4073.0,0.0404294769414898,-0.7072370165775592,-0.23594084383850242,-0.6652166398892064
-9577.562698364258,-3552.0,-6320.0,-14456.0,2890.0,-2487.0,4329.0,0.3742098929267901,-0.8312750094290907,-0.12975894572204358,-0.3900146545188904
-9577.57829117775,-3736.0,-6768.0,-14868.0,3330.0,-2921.0,2776.0,0.6160113141339464,-0.776505549501103,-0.12467273188159168,-0.04501002530703191
-9577.59391951561,-3776.0,-6740.0,-14048.0,3521.0,-3630.0,3752.0,0.7270855616530001,-0.5631079141999766,-0.0695443588443419,0.38654837362744454
-9577.609521150589,-3620.0,-6804.0,-14492.0,3916.0,-4023.0,2561.0,0.7119822116615054,-0.1715080771945817,-0.05888849742597132,0.6783792852125717
-9577.625142097473,-3572.0,-6764.0,-14084.0,3667.0,-3851.0,3963.0,0.4435693177342054,0.22818238493705373,-0.018918055573285814,0.8664993749233612
-9577.640737771988,-3888.0,-7260.0,-14068.0,4275.0,-3687.0,4542.0,0.007414728290403825,0.5620719451257753,0.059936671347287106,0.8248804432975206
-9577.656308889389,-4260.0,-7296.0,-14500.0,4972.0,-4224.0,3665.0,-0.4004587113404512,0.744075901189286,0.19695857437581193,0.4971832597350245
-9577.671932458878,-4432.0,-6996.0,-14624.0,5084.0,-4851.0,3565.0,-0.6606592450147644,0.6907293939813016,0.2929317738182909,-0.02476372658577425
-9577.6875269413,-4156.0,-7228.0,-14348.0,4943.0,-5377.0,977.0,-0.6887417213796702,0.3527212937645397,0.4486147401020032,-0.4471770847430021
-9577.70314192772,-4000.0,-7532.0,-14724.0,4898.0,-6893.0,244.0,-0.45053780103473645,-0.16159068930703918,0.5345542280940937,-0.6965313461681304
-9577.71872138977,-3316.0,-8036.0,-14952.0,4523.0,-7891.0,-2551.0,-0.13391960871987946,-0.7237806997426453,0.4121816894435295,-0.5369481278185436
-9577.73432636261,-1520.0,-8380.0,-15360.0,4272.0,-7547.0,-1496.0,0.2676313960103574,-0.9367521598704718,0.16325271904066727,-0.15561933226107316
-9577.749989509583,-316.0,-9032.0,-15576.0,4727.0,-6884.0,2660.0,0.6260269068993656,-0.7005203191313605,0.12376019617424495,0.3194448436976596
-9577.76557636261,16.0,-8288.0,-16716.0,6232.0,-5760.0,8908.0,0.5594618176358266,-0.07059162954872666,0.35946391027655905,0.7435085699936204
-9577.78116607666,184.0,-5780.0,-18584.0,8120.0,-4081.0,15837.0,-0.15423627015448707,0.5779940858083212,0.4172263104491601,0.684146340784204
-9577.796793460846,-752.0,-1856.0,-19872.0,6639.0,721.0,18816.0,-0.8156880516519526,0.5629064043392757,-0.07221046545468418,0.11213844579307748
-9577.812381982803,-3344.0,-2368.0,-18324.0,692.0,3067.0,13674.0,-0.6097745800761015,0.2515866240016635,-0.6044157240401996,-0.4467222455278234
-9577.828073978424,-6072.0,-7040.0,-14932.0,-1374.0,710.0,7760.0,-0.19714927417939307,-0.0466773493018103,-0.6247438708311389,-0.754087849399273
-9577.84371638298,-6808.0,-9588.0,-15948.0,2350.0,-4015.0,5253.0,-0.05186143655042507,-0.5438501961950092,-0.587678045430966,-0.5968013659635973
-9577.859319210052,-5112.0,-6936.0,-19948.0,3251.0,-14060.0,-6232.0,-0.5555752049333506,-0.5721210235963298,-0.5826756544136953,0.15653372727921971
-9577.87491607666,3000.0,128.0,-22256.0,3865.0,-15507.0,-17282.0,-0.4004301400393026,0.14487430211946734,-0.280590081947789,0.860195527450611
-9577.890511274338,11660.0,2396.0,-16080.0,-7660.0,-5615.0,-13026.0,0.3110005024896092,0.6681073811291965,-0.28659704054672214,0.6121873496583848
-9577.906160354614,14980.0,-4776.0,-17684.0,-10669.0,7877.0,-5957.0,0.8965103845940169,0.06621945542115269,-0.1830285476976215,0.3979757087643835
-9577.922094106674,15056.0,-13040.0,-19088.0,-6478.0,21246.0,5618.0,0.4823280065824127,-0.5673506341512033,0.5463928791586368,0.3833115881358128
-9577.937685251236,10240.0,-10744.0,-18696.0,1606.0,22833.0,29539.0,-0.44419265709339223,0.042475630430833786,0.8864405036466878,0.12293062148391637
-9577.953343391418,4720.0,-6776.0,-19680.0,5777.0,29246.0,11095.0,-0.9649095493804795,0.12308749325626074,-0.07668616846362815,-0.21890240310379885
-9577.969007015228,16.0,-1680.0,-16340.0,483.0,25355.0,7990.0,-0.25636039483195067,0.2032670078631502,-0.9129672658381467,-0.24382912661121367
-9577.984667778015,-3024.0,-2924.0,-16204.0,-5445.0,23883.0,-11554.0,0.583395359960708,0.6833578480711796,-0.43894014296757383,0.0018591254526387762
-9578.000309944153,-4132.0,-6480.0,-16068.0,-10042.0,17373.0,-20677.0,0.6839999947940447,0.35529964824728194,0.6197669010611263,-0.147631823893741
-9578.015883207321,-2964.0,-10828.0,-15888.0,-9458.0,12964.0,-30585.0,-0.037217617196951665,-0.5341710957866302,0.7758278696813521,-0.3337172546063309
-9578.031480550766,-24.0,-11592.0,-15880.0,-5153.0,8573.0,-26062.0,-0.6139335445532317,-0.7717868055676762,-0.12030661740095686,-0.11382902720082846
-9578.047127962112,3184.0,-5840.0,-15640.0,-4449.0,9958.0,-22698.0,-0.42836536749767773,-0.08130807310492147,-0.8857092683441486,0.15940891175156058
-9578.062721729279,4480.0,-1688.0,-15832.0,-8005.0,14558.0,-17576.0,0.3788556124986268,0.5882411958527037,-0.7133085193829591,0.04039401633611357
-9578.07832789421,4328.0,-2492.0,-17288.0,-12701.0,20055.0,-14064.0,0.8931886154532773,0.37328041965453046,0.2404307751161986,-0.0711959823600976
-9578.093940734863,2900.0,-7612.0,-17416.0,-13695.0,24135.0,-10182.0,0.27809262052730616,-0.2739053301467233,0.9175783209922589,0.07543466955251676
-9578.10953783989,420.0,-11504.0,-18248.0,-10824.0,23967.0,-3273.0,-0.7454951821973939,-0.379611883888839,0.5356524245339639,0.11492706827256759
-9578.125151395798,-2344.0,-12716.0,-17848.0,-7803.0,23071.0,-378.0,-0.884851279980319,-0.05151016004870306,-0.4495765070509413,-0.11075143356554454
-9578.14073562622,-4424.0,-12720.0,-15452.0,-6248.0,21736.0,2802.0,-0.014815252731902056,0.2386478910723296,-0.9231988379237113,-0.3008846922485897
-9578.156311750412,-7064.0,-12672.0,-12944.0,-4462.0,21189.0,9214.0,0.887504930913512,0.025596400976421015,-0.4488588332995369,-0.10102261939899833
-9578.17186164856,-10996.0,-12584.0,-11340.0,-1762.0,19565.0,16970.0,0.7298130482892159,-0.243632827274984,0.42167118567558315,0.4798013872340808
-9578.187474012375,-15188.0,-11480.0,-11000.0,2290.0,15274.0,17410.0,-0.22637470299379198,-0.042821671541213975,0.8218703812924122,0.5210085168643158
-9578.203111886978,-18288.0,-8488.0,-10504.0,4002.0,8555.0,13839.0,-0.8209457324988191,0.2719406412472321,0.50046277913422,-0.04041532668771293
-9578.218709230423,-19200.0,-6120.0,-11400.0,974.0,129.0,4327.0,-0.7780256527042848,0.3653290585315914,0.35904093915459434,-0.363731173722407
-9578.23430299759,-17092.0,-5684.0,-13776.0,-2788.0,-7797.0,-5173.0,-0.4634847976878482,0.1106060604200755,0.8691638186932341,-0.1322966287748863
-9578.24991106987,-13024.0,-6916.0,-18388.0,-3647.0,-10339.0,-9022.0,0.15831924013728202,-0.3426053227685571,0.8896288190973114,0.2571326024535391
-9578.26552605629,-9128.0,-11112.0,-19808.0,-3826.0,-10246.0,-5104.0,0.6569122355794825,-0.3868837694716399,0.3508570054846718,0.5437707470687537
-9578.281157016754,-6128.0,-13072.0,-19360.0,1216.0,-11890.0,5834.0,0.512565151904915,0.2776918000144027,-0.04961731824556901,0.8109885023769265
-9578.296780824661,-3428.0,-8800.0,-18888.0,4870.0,-9921.0,13195.0,-0.3227397534827136,0.6320698290176174,-0.25974965077369566,0.6548716681079586
-9578.312368392944,-1568.0,-3792.0,-16092.0,3425.0,-3226.0,26006.0,-0.8238172697557878,0.0519887610353553,-0.5600036661877004,-0.07083903326883388
-9578.328003168106,-3992.0,-3336.0,-19132.0,1768.0,-6224.0,7631.0,-0.8201789436447396,-0.36646547488362347,-0.11932537691592238,-0.4228132099922994
-9578.343591213226,-1656.0,-2184.0,-15956.0,-4585.0,-9885.0,-5020.0,-0.8667672747567038,-0.24245673451588548,0.41217012931759794,0.14158039340616688
-9578.35922408104,1908.0,-7352.0,-15812.0,-8276.0,-9645.0,-11649.0,-0.30492890331171335,0.046348699500057794,0.4391112102168286,0.8438314446864856
-9578.374811887741,5548.0,-15016.0,-14268.0,-4545.0,-6704.0,-9950.0,0.4683861501981988,0.18646439516617802,0.2152081213647424,0.8363796435450112
-9578.390406847,6632.0,-14784.0,-14476.0,2566.0,-6148.0,10736.0,-0.16234254647838883,0.6326978081820559,-0.015956362701866903,0.7570229690133986
-9578.406016349792,4996.0,-7960.0,-15388.0,7544.0,-1610.0,11363.0,-0.8531794947753417,0.3950226332170153,-0.07831926961264445,0.331523695908045
-9578.42161154747,1344.0,-1920.0,-14884.0,7138.0,-2367.0,9952.0,-0.9493955991388502,-0.091780236281761,-0.026172078165143744,-0.29923136013520585
-9578.437204122543,-956.0,1808.0,-14932.0,830.0,-1908.0,591.0,-0.9154690832352302,-0.20832369605460954,0.11281423946380453,-0.32525458133098956
-9578.45279765129,-2600.0,-60.0,-16780.0,-4913.0,-3561.0,-7734.0,-0.9025903614079668,0.005055244610972776,0.30073676849414127,0.30799753257300666
-9578.468388080597,-3564.0,-4408.0,-17892.0,-8228.0,-6686.0,-14029.0,-0.18903984753040576,0.25376601954707545,0.33447644718413094,0.8876892753931386
-9578.484058618546,-2000.0,-10036.0,-17368.0,-8620.0,-9172.0,-19937.0,0.7929737992374939,0.22938677215330702,0.11345723467109924,0.5529029918391911
-9578.499680042267,956.0,-13144.0,-17320.0,-1155.0,-11724.0,-13173.0,0.8528979395390327,0.31808400352870203,-0.2666411513382868,-0.3166862293220497
-9578.515302419662,3716.0,-8288.0,-16192.0,2871.0,-9676.0,-7139.0,0.23831671643110028,0.29264813847506693,-0.590223954173907,-0.713581035087042
-9578.530882120132,4772.0,-3088.0,-14756.0,3541.0,-4523.0,741.0,-0.034776070970823095,0.041482227853953745,-0.8245627023723621,-0.563175105554651
-9578.546463727951,4284.0,-1328.0,-16020.0,-193.0,687.0,3645.0,0.18510573434911232,-0.17740896728620803,-0.7900520730088345,-0.55684795714087
-9578.562044382095,1984.0,-2560.0,-15480.0,-2588.0,4065.0,8600.0,0.6392295973802475,-0.4660037623081262,-0.35300768507467833,-0.49961143864604907
-9578.577622890472,-1244.0,-5616.0,-15852.0,-2300.0,4090.0,8469.0,0.7950420624537348,-0.5172291696445552,0.24424806663132642,-0.2018043283603568
-9578.593203306198,-3324.0,-6572.0,-15136.0,-363.0,362.0,6110.0,0.7744696942549362,-0.35800781478402177,0.4863954878876444,0.18827247965854088
-9578.608862876892,-3920.0,-5980.0,-15200.0,873.0,-3211.0,536.0,0.8913753718239302,-0.21463404211702022,0.28845575425564324,0.275999007800875
-9578.624484062195,-2872.0,-4508.0,-15032.0,737.0,-4756.0,-2736.0,0.9821828200803744,-0.10073807199496293,-0.10336033925127713,0.12035526186902634
-9578.640107870102,-1828.0,-4096.0,-15372.0,-835.0,-4556.0,-3077.0,0.8690818245232639,-0.08728226266980452,-0.4765882020871589,-0.09971095495422466
-9578.655735731125,-1088.0,-4772.0,-15376.0,-878.0,-3699.0,-3777.0,0.6118912382216875,-0.026376328958627973,-0.7051576064016649,-0.35727601653633456
-9578.671337366104,-560.0,-5268.0,-15740.0,-261.0,-2725.0,-4361.0,0.2804335862795505,0.13046075498312512,-0.7778468774743391,-0.5470751596435754
-9578.686915159225,-1104.0,-4612.0,-14704.0,-857.0,-2522.0,1929.0,0.20278750041336846,-0.1363534083384353,-0.788951393536493,-0.5637736038051228
-9578.702548265457,-1620.0,-5356.0,-15092.0,1315.0,-302.0,3399.0,0.34753693136521835,-0.34487697794854166,-0.7799342061713997,-0.38984687437777044
-9578.71817612648,-2804.0,-3568.0,-15220.0,2484.0,-1141.0,2171.0,0.4001670805398827,-0.4363885248782745,-0.7976084294776633,-0.11511801002851807
-9578.733813285828,-2912.0,-2304.0,-15372.0,-189.0,-1516.0,-4096.0,0.2298659019662908,-0.16181114229723723,-0.9387284468203871,-0.19941846572439276
-9578.749390602112,-2712.0,-4088.0,-16476.0,-3485.0,-4865.0,-14335.0,-0.27757118941935643,0.5093064070684595,-0.6993811794410139,-0.4176448064648198
-9578.764984846115,392.0,-7872.0,-16540.0,-4664.0,-5187.0,-23251.0,-0.5268660910996538,0.7907650142081629,0.268785228548405,-0.15766202861791717
-9578.780580282211,4232.0,-9760.0,-15716.0,-1052.0,-5361.0,-9182.0,-0.3325409894506223,0.4023922444806348,0.8508934763445737,-0.0589683290528464
-9578.796162605286,5624.0,-7684.0,-15780.0,2723.0,-1321.0,5288.0,-0.2671747654898922,0.6262463835251942,0.6088240729223896,-0.4071441514221088
-9578.811802625656,4884.0,-4232.0,-15880.0,2636.0,5094.0,10009.0,-0.22991322545775716,0.9004338378691555,-0.10602315840936645,-0.3537200902701686
-9578.827460050583,1756.0,-2896.0,-15604.0,834.0,8099.0,13629.0,0.1172130415515781,0.5897623439983164,-0.7989616193190928,0.010090160893311426
-9578.84310555458,-2208.0,-4328.0,-15820.0,82.0,6681.0,8658.0,0.41301818270335067,-0.013734153249609636,-0.8509034057558712,0.32433123171226813
-9578.858695030212,-4672.0,-5144.0,-15140.0,42.0,1540.0,1974.0,0.4604233552789779,-0.19781177298978736,-0.773742258952415,0.3875612894646458
-9578.874279499054,-4788.0,-5552.0,-15072.0,12.0,-2833.0,-5074.0,0.3930431147352164,0.21491021924715745,-0.8694938751104937,0.2081132114204084
-9578.889864444733,-2520.0,-4940.0,-15284.0,-45.0,-5829.0,-7805.0,0.07087997393561554,0.6943969479202079,-0.7039480754361872,-0.13132408424837572
-9578.905507564545,432.0,-5116.0,-15768.0,-511.0,-5286.0,-8039.0,-0.24126809302308333,0.8607429033906091,-0.18646967880555315,-0.4076032635270028
-9578.921273469925,2812.0,-5592.0,-15716.0,-108.0,-2705.0,-1078.0,-0.3057770348609512,0.7603329533658139,-0.04328662458410056,-0.5714196996164717
-9578.936910152435,3344.0,-5820.0,-15752.0,734.0,751.0,6731.0,-0.013720852497180159,0.647255035222379,-0.4697640281836406,-0.6001619909746928
-9578.952564954758,2252.0,-5584.0,-15756.0,1031.0,3223.0,10538.0,0.44024988740275983,0.2754339820102755,-0.8076891414836406,-0.2792031678280892
-9578.968145608902,-172.0,-5260.0,-15512.0,1200.0,4162.0,11203.0,0.6747679728801999,-0.253133544886319,-0.653300323502342,0.2319704260033316
-9578.983785390854,-2088.0,-5412.0,-14888.0,1335.0,3292.0,8559.0,0.5586411409256059,-0.5670574445166326,-0.18937077249767473,0.5748953303056453
-9578.999404907227,-3308.0,-5088.0,-14960.0,1095.0,912.0,5710.0,0.3036259751109603,-0.5818011308844497,0.17122136902891028,0.734848252449007
-9579.01500415802,-3364.0,-4904.0,-15212.0,529.0,-537.0,1346.0,0.24992565752113216,-0.5089215873837244,0.25694067064533904,0.782634956653345
-9579.030666351318,-2556.0,-5016.0,-15124.0,-326.0,-1994.0,-2740.0,0.4479587161027378,-0.4232807785864243,0.06665656383099004,0.7846803639986808
-9579.046276330948,-1352.0,-5388.0,-15056.0,-804.0,-2003.0,-3292.0,0.6197600246341467,-0.3187207829649885,-0.17812246418460664,0.6946847933591681
-9579.061870574951,-456.0,-5892.0,-15332.0,-475.0,-1514.0,-2128.0,0.6935771223588129,-0.21413179642059516,-0.3391656520533311,0.5983853353562368
-9579.077508449554,-160.0,-5820.0,-15412.0,100.0,-154.0,-266.0,0.7043918412997185,-0.19227601070912484,-0.348324322427088,0.5878199010087075
-9579.093096733093,-332.0,-5448.0,-15472.0,321.0,678.0,1043.0,0.6725702126185379,-0.2377183937076062,-0.2712235150860211,0.6462020421321132
-9579.108757734299,-968.0,-5264.0,-15348.0,235.0,876.0,855.0,0.6460676368716505,-0.2920558202091897,-0.18792328874287983,0.6796946696988867
-9579.124356269836,-1508.0,-5244.0,-15284.0,-56.0,269.0,-724.0,0.6903374583927739,-0.2988683166060165,-0.19424586460347948,0.6295875371648786
-9579.139969348907,-1532.0,-5340.0,-15236.0,-282.0,-485.0,-1901.0,0.7677106863789352,-0.25348351849063605,-0.2844582552683858,0.5152183118667829
-9579.155555009842,-1112.0,-5452.0,-15428.0,-321.0,-711.0,-2441.0,0.8320411787259235,-0.17826138838895217,-0.39104011939281064,0.3507391899107873
-9579.171148777008,-752.0,-5504.0,-15452.0,-229.0,-734.0,-1744.0,0.8450582164929006,-0.11157356954277471,-0.47220232689184405,0.2246172562276766
-9579.18677186966,-412.0,-5552.0,-15156.0,23.0,-361.0,-1208.0,0.8488046760466182,-0.05286285658878521,-0.5073136280225069,0.1391726378901767
-9579.202392578125,-396.0,-5128.0,-15360.0,148.0,-106.0,223.0,0.8416530156478287,-0.05059302546505801,-0.512431191071724,0.16271085225645507
-9579.21800994873,-516.0,-5216.0,-15600.0,58.0,160.0,242.0,0.8451804194162642,-0.05952869264764357,-0.4988778401685291,0.18233840510378976
-9579.23360991478,-608.0,-5412.0,-15276.0,-175.0,403.0,367.0,0.8547498353942956,-0.09484056790340178,-0.4697009581083334,0.19947179130217516
-9579.24917936325,-920.0,-5636.0,-15240.0,-145.0,340.0,333.0,0.8607242419826343,-0.12526508912112852,-0.4439325827899677,0.21537478647307756
-9579.264775514603,-1032.0,-5712.0,-15148.0,-6.0,70.0,12.0,0.8629788791046518,-0.12767278385939526,-0.43887913827400765,0.21529564897771467
-9579.280379772186,-1352.0,-5488.0,-15212.0,161.0,-231.0,-424.0,0.8628937381104489,-0.09505814836153571,-0.45775355979335386,0.191937551449332
-9579.29601597786,-1300.0,-5208.0,-15140.0,238.0,-367.0,-887.0,0.8617124779707647,-0.03558707573223868,-0.48719375492073314,0.13721301146957104
-9579.31164598465,-1180.0,-5124.0,-15264.0,-158.0,-362.0,-1350.0,0.8554200254638974,0.014030604457042102,-0.5168800439783227,0.029912243494636392
-9579.327287197113,-1068.0,-5340.0,-15304.0,-294.0,-495.0,-1574.0,0.8285855758169498,0.06359872847025316,-0.5471149305228092,-0.10033144115421873
-9579.342866659164,-812.0,-5436.0,-15356.0,-165.0,-451.0,-1174.0,0.7926867538138642,0.10307701684068167,-0.5685563219091069,-0.19433617199186617
-9579.358449220657,-632.0,-5512.0,-15268.0,-6.0,-270.0,-579.0,0.7681736778053772,0.12657338067492682,-0.5812796837502658,-0.23664807054077455
-9579.374021291733,-616.0,-5448.0,-15188.0,37.0,-38.0,114.0,0.7679885241861679,0.12245211646524305,-0.5860693535345409,-0.22742431430948568
-9579.389621019363,-1020.0,-5480.0,-15196.0,135.0,169.0,501.0,0.7840869896227369,0.10907937344974789,-0.582367657873471,-0.1848166498320216
-9579.405243396759,-976.0,-5540.0,-15388.0,201.0,-241.0,66.0,0.7705203446569858,0.11550939771812488,-0.6027436761362306,-0.17220928658541804
-9579.420876979828,-1264.0,-5396.0,-15140.0,-9.0,-325.0,-355.0,0.7473476152761014,0.12854951001909515,-0.620583723349929,-0.19955552542616703
-9579.436516523361,-1008.0,-5552.0,-15352.0,-97.0,-683.0,-1145.0,0.6866706863126028,0.17115544590352463,-0.6464530654322702,-0.28510983162592934
-9579.452111721039,-596.0,-5660.0,-15532.0,-128.0,-856.0,-1377.0,0.5998409844966249,0.21768808413340407,-0.667537133635392,-0.38366243829998836
-9579.467730760574,-272.0,-5560.0,-15344.0,-149.0,-452.0,-267.0,0.56659877961585,0.2100918246889686,-0.6805854400497935,-0.4142833654986863
-9579.483311891556,-236.0,-5676.0,-15252.0,-245.0,195.0,1202.0,0.6223417667364756,0.13287144749403532,-0.6803554889447209,-0.3635275952097062
-9579.498880147934,-616.0,-5528.0,-15324.0,112.0,588.0,1979.0,0.7071661363804523,0.039452219314307604,-0.6644146897544169,-0.23856382371696994
-9579.51449227333,-1052.0,-5624.0,-15360.0,83.0,689.0,2046.0,0.775592405112031,-0.05874372908392525,-0.6199704535695301,-0.10316119486822922
-9579.530083179474,-1436.0,-5440.0,-15304.0,-60.0,763.0,927.0,0.8202411349805361,-0.10562359130741414,-0.5601949703099265,-0.04722004536874735
-9579.545659303665,-1580.0,-5604.0,-15380.0,-180.0,103.0,-40.0,0.8231451640271038,-0.11625533599573576,-0.5525827024779523,-0.05974188408038459
-9579.561239004135,-1400.0,-5684.0,-15372.0,-252.0,-455.0,-559.0,0.7937998035942595,-0.10968201849965041,-0.588539465221773,-0.10711220522436592
-9579.576876401901,-1000.0,-5432.0,-15168.0,-67.0,-420.0,-520.0,0.7652344085334152,-0.09152113499994997,-0.6211397803626004,-0.1422165781332677
-9579.592504024506,-708.0,-5632.0,-15172.0,-209.0,-61.0,-509.0,0.7528897573246001,-0.07867797371830741,-0.6261791359075515,-0.18672567986583538
-9579.60811829567,-608.0,-5400.0,-15608.0,-101.0,19.0,398.0,0.7590568321385373,-0.1067984559828369,-0.620378468207332,-0.16600413117815757
-9579.623744010925,-780.0,-5504.0,-15224.0,-53.0,469.0,1170.0,0.7959222243701124,-0.16598420182178755,-0.5743880461148624,-0.09505487877887804
-9579.639336109161,-1112.0,-5504.0,-15324.0,-105.0,747.0,1261.0,0.8352968177160108,-0.22857845088097445,-0.49948941659628754,-0.023268880820946806
-9579.654919624329,-1372.0,-5396.0,-15544.0,-31.0,214.0,268.0,0.8440034925494586,-0.24217224410083166,-0.4784606333893679,-0.009280681447387458
-9579.670506238937,-1396.0,-5272.0,-15304.0,-178.0,-89.0,-510.0,0.8349951821906451,-0.23399814428747598,-0.4952732820444355,-0.05227131413463834
-9579.686097621918,-1228.0,-5352.0,-15420.0,-271.0,-255.0,-1176.0,0.8082429042580309,-0.20310590286748037,-0.5337419136992021,-0.14356520991397068
-9579.701704025269,-1024.0,-5580.0,-15340.0,-280.0,-174.0,-1124.0,0.7768877486513585,-0.17196804757345824,-0.5597149000193274,-0.23149869828046746
-9579.717358827591,-840.0,-5656.0,-15252.0,-232.0,-97.0,-832.0,0.749558804792088,-0.14875736786941787,-0.5726559527410132,-0.29681307830603004
-9579.732936620712,-776.0,-5520.0,-15384.0,-130.0,170.0,-214.0,0.75042395801227,-0.14226642482876825,-0.5609696388062779,-0.3192760748086104
-9579.74849653244,-928.0,-5420.0,-15328.0,-174.0,485.0,117.0,0.7743172929605757,-0.14587435164944776,-0.5225754066283019,-0.3256813592152986
-9579.764081001282,-1192.0,-5484.0,-15108.0,-218.0,355.0,-269.0,0.7792411526592137,-0.13828750256360364,-0.49557282921781604,-0.3578650074792317
-9579.779666423798,-1244.0,-5380.0,-15340.0,-208.0,144.0,-1024.0,0.7477120548489772,-0.10338304361919681,-0.48979823091701435,-0.43627551193725556
-9579.795280218124,-1180.0,-5436.0,-15316.0,-227.0,-140.0,-1001.0,0.698622729191596,-0.08056476734264559,-0.49752742802499034,-0.5078405841233539
-9579.810886383057,-948.0,-5332.0,-15360.0,-279.0,-76.0,-1248.0,0.6340151276857567,-0.04660011657014786,-0.49572729658890785,-0.591698989704998
-9579.826496362686,-924.0,-5496.0,-15444.0,-310.0,-246.0,-1266.0,0.5529709192689617,-0.02164954650384621,-0.49542270318733844,-0.6695601576748481
-9579.842089653015,-808.0,-5504.0,-15572.0,-348.0,172.0,-985.0,0.5000055379180636,0.014054334081770693,-0.4669187255020472,-0.7292351071638897
-9579.857685089111,-852.0,-5872.0,-15272.0,-225.0,193.0,-393.0,0.4826454769498286,0.032448019246195316,-0.44354310962639076,-0.7544998207619553
-9579.873347043991,-948.0,-5496.0,-15600.0,-168.0,90.0,-266.0,0.46885151819152165,0.0415472557085469,-0.4280271582564123,-0.7715211152181994
-9579.888932228088,-920.0,-5284.0,-15292.0,-255.0,140.0,-669.0,0.42904577256463,0.06538124622754643,-0.402156842569101,-0.8061729911507852
-9579.904519081116,-896.0,-5472.0,-15428.0,-345.0,98.0,-695.0,0.38461813072497886,0.08357053549044677,-0.3696523664787391,-0.8416899589944811
-9579.92025589943,-864.0,-5460.0,-15468.0,-137.0,24.0,-407.0,0.3562016908190816,0.09384781217821611,-0.3558217027186522,-0.8588968852437345
-9579.935943603516,-848.0,-5432.0,-15268.0,-216.0,150.0,-299.0,0.33997023904990986,0.10766944100466608,-0.33256802285367404,-0.8730555756704654
-9579.951534032822,-888.0,-5424.0,-15176.0,-166.0,147.0,-234.0,0.3277936891606651,0.12079381549540619,-0.3134717495827944,-0.883003745007916
-9579.967120170593,-864.0,-5572.0,-15568.0,-188.0,187.0,-172.0,0.321468810164978,0.13461431844091368,-0.2919314779263748,-0.8906810885819482
-9579.98283958435,-888.0,-5532.0,-15400.0,-109.0,74.0,-31.0,0.3221528158297351,0.13825533881907306,-0.2811975943415761,-0.8933257734317904
-9579.998520851135,-788.0,-5444.0,-15612.0,-92.0,134.0,149.0,0.3380572822007253,0.1426084674416851,-0.2722013447957554,-0.8895428752209618
-9580.01419711113,-868.0,-5436.0,-15404.0,-90.0,186.0,739.0,0.40002605860649965,0.13671743551855786,-0.26850719902672887,-0.8655584205192616
-9580.029834270477,-936.0,-5420.0,-15304.0,-71.0,232.0,577.0,0.44918206798961136,0.13820669907479036,-0.2617296267580431,-0.8429899053989448
-9580.045428991318,-1008.0,-5620.0,-15244.0,-5.0,165.0,661.0,0.5007138577168515,0.13497499572978122,-0.2625848564730448,-0.8137054604518053
-9580.061022281647,-1076.0,-5292.0,-15328.0,-94.0,135.0,402.0,0.5330344301728153,0.13129667114350854,-0.25476645247853835,-0.7960713128159286
-9580.076610803604,-1016.0,-5316.0,-15288.0,-158.0,79.0,-7.0,0.5360062983420089,0.1297109349595964,-0.24021123076452952,-0.7988559858348654
-9580.092240095139,-904.0,-5432.0,-15456.0,-115.0,129.0,38.0,0.5425556297511502,0.13264934129181996,-0.22675754092244826,-0.7978838001331919
-9580.107891321182,-876.0,-5524.0,-15312.0,-170.0,174.0,445.0,0.578352958909493,0.12792950718449397,-0.21179751344761896,-0.7773568739064269
-9580.123474359512,-804.0,-5408.0,-15608.0,-33.0,150.0,460.0,0.6121205450419742,0.12795871113192683,-0.207116912315419,-0.7523546977429593
-9580.139093399048,-880.0,-5596.0,-15312.0,-87.0,395.0,590.0,0.6576665770463133,0.13843134205803093,-0.1866880182219948,-0.716560549307972
-9580.154667139053,-1012.0,-5452.0,-15296.0,-133.0,362.0,488.0,0.6946362786981227,0.14542143145938877,-0.1633739170933033,-0.6853043198479903
-9580.170239448547,-1088.0,-5472.0,-15220.0,-80.0,212.0,340.0,0.7185195615133244,0.1484768071796041,-0.15002280181505187,-0.6627046373672155
-9580.185816049576,-1092.0,-5388.0,-15300.0,-121.0,79.0,57.0,0.7243151763050213,0.144876295651055,-0.138837431289545,-0.6596230378068787
-9580.201406955719,-908.0,-5244.0,-15300.0,-146.0,67.0,-132.0,0.719219468797565,0.14125426371466157,-0.12453702830522279,-0.668775834839957
-9580.21703696251,-816.0,-5412.0,-15412.0,-160.0,150.0,-96.0,0.7170311328643352,0.14113624823718235,-0.10453712232962079,-0.6745508905871095
-9580.232715845108,-1016.0,-5432.0,-15404.0,-116.0,212.0,265.0,0.7356040354834652,0.14403439945168675,-0.08751891789372193,-0.6561106871296525
-9580.248289346695,-728.0,-5412.0,-15384.0,-53.0,278.0,579.0,0.7703053713813701,0.1520292418574963,-0.07361997683225482,-0.6148957988573859
-9580.263917207718,-784.0,-5348.0,-15356.0,-53.0,412.0,732.0,0.8107245484055342,0.16557263189837015,-0.05244869274868775,-0.559071144674668
-9580.27949166298,-888.0,-5324.0,-15348.0,-95.0,410.0,264.0,0.8260378135543177,0.17763068018731692,-0.022371797602423273,-0.5344234039660216
-9580.295105695724,-1000.0,-5412.0,-15152.0,-178.0,263.0,239.0,0.8399069632836103,0.17662530793482464,0.0014471861439218881,-0.5131838844672517
-9580.310731887817,-1060.0,-5580.0,-15108.0,-155.0,172.0,-25.0,0.8409344923802508,0.17302454234003825,0.02166695771611553,-0.5122716371384604
-9580.326337099075,-1012.0,-5424.0,-15420.0,-121.0,90.0,-84.0,0.8386918341875061,0.16808259090235653,0.03524462189368273,-0.5168191816586525
-9580.341998577118,-936.0,-5416.0,-15300.0,-130.0,114.0,-140.0,0.8337258887108571,0.16332058553752513,0.051803561220608446,-0.5249227751563406
-9580.357598304749,-772.0,-5412.0,-15248.0,-144.0,26.0,-321.0,0.8205148358014083,0.15256484213466562,0.06515042290370567,-0.5470235786231533
-9580.373182058334,-960.0,-5348.0,-15376.0,-203.0,-12.0,-641.0,0.7912689939039784,0.13362559536227533,0.08269339685205589,-0.5909309449227816
-9580.388765335083,-956.0,-5364.0,-15484.0,-198.0,-70.0,-838.0,0.7486883533059417,0.11000309417300427,0.09788880240670116,-0.6463612389831126
-9580.404361963272,-1008.0,-5608.0,-15312.0,-175.0,-84.0,-625.0,0.7146159567560078,0.08833630615635969,0.10842025638883812,-0.6853946158009444
-9580.41998553276,-744.0,-5408.0,-15400.0,-191.0,59.0,-423.0,0.6896041301933717,0.07585713629189808,0.1270025531057817,-0.7089162080235215
-9580.435554265976,-772.0,-5432.0,-15400.0,-208.0,168.0,-124.0,0.681169005805931,0.07229615440355917,0.15107290585589656,-0.7127124446114799
-9580.45114850998,-884.0,-5540.0,-15356.0,-185.0,113.0,-100.0,0.6744228509620268,0.06695619701069029,0.1702101280360103,-0.7153315301984683
-9580.466735363007,-1052.0,-5420.0,-15108.0,-133.0,15.0,-231.0,0.6603188983711383,0.056583398147871417,0.18101518845897055,-0.7266434979101714
-9580.482321739197,-1088.0,-5320.0,-15360.0,-175.0,-99.0,-594.0,0.6240882901303905,0.030756315103835752,0.18937513109104157,-0.7574331092100541
-9580.497890233994,-1068.0,-5344.0,-15560.0,-253.0,-151.0,-982.0,0.5600629754068194,-0.009244979662581624,0.2000251141352426,-0.8038867753886004
-9580.513515472412,-952.0,-5284.0,-15348.0,-230.0,-135.0,-825.0,0.502874440051643,-0.0443023862423103,0.20860828650257104,-0.8376378566650656
-9580.529147148132,-908.0,-5368.0,-15248.0,-101.0,-74.0,-687.0,0.4527348139368183,-0.06661524745020421,0.21000109849296975,-0.8639983424107298
-9580.54472565651,-756.0,-5280.0,-15416.0,-146.0,128.0,-617.0,0.40234639020245017,-0.07402130972014967,0.22242340021768034,-0.8849666993926818
-9580.560306310654,-568.0,-5260.0,-15140.0,-212.0,287.0,-418.0,0.3626768935378633,-0.06743544264052456,0.24618502432419925,-0.8962761102294846
-9580.575867891312,-856.0,-5412.0,-15132.0,-240.0,329.0,-361.0,0.3255643308961705,-0.057067315394146466,0.2732354648324876,-0.9033789729231073
-9580.591440200806,-912.0,-5480.0,-15328.0,-176.0,135.0,-473.0,0.2838570351069276,-0.06269746925871805,0.28859155119203456,-0.9122549684980794
-9580.607007741928,-904.0,-5428.0,-15248.0,-143.0,29.0,-613.0,0.23316900471792887,-0.07930337795456667,0.2971920536819054,-0.9225074919544975
-9580.622633218765,-840.0,-5344.0,-15304.0,-230.0,-155.0,-864.0,0.16550996506588148,-0.11855331837778543,0.30591580893792747,-0.9300360638208389
-9580.638236522675,-688.0,-5276.0,-15248.0,-169.0,-127.0,-529.0,0.12406165013992135,-0.14531579553310403,0.31223315039808885,-0.9305925458145607
-9580.653823375702,-608.0,-5300.0,-15344.0,-153.0,-13.0,-308.0,0.09742342025291324,-0.156431635649455,0.32075669996029826,-0.929060256379983
-9580.669405698776,-568.0,-5268.0,-15420.0,-167.0,264.0,130.0,0.09825785399542787,-0.13283702480854367,0.33845505511997315,-0.9263627230366968
-9580.68498635292,-700.0,-5520.0,-15536.0,-125.0,373.0,427.0,0.12015977924998324,-0.09109660277560042,0.356541070645524,-0.9220311824207917
-9580.700565099716,-520.0,-5544.0,-15408.0,-19.0,435.0,880.0,0.17662372638635113,-0.02886342789018183,0.3685695847147346,-0.9122101857746577
-9580.716168880463,-980.0,-5392.0,-15336.0,20.0,411.0,898.0,0.23404814265784926,0.03290308161528612,0.3744822969409279,-0.8966057458083099
-9580.731789588928,-1116.0,-5300.0,-15276.0,6.0,329.0,272.0,0.2443543358961459,0.0676179953132158,0.37998375535375095,-0.8895679349582224
-9580.747354269028,-1220.0,-4892.0,-15264.0,-94.0,133.0,-505.0,0.20104158360240748,0.05916103737897853,0.39296823941222914,-0.8953536821458502
-9580.762947320938,-1012.0,-5248.0,-15420.0,-212.0,-35.0,-1138.0,0.11380977832419202,0.013640550713207905,0.41297949291746944,-0.9034983166357691
-9580.778530836105,-792.0,-5524.0,-15512.0,-156.0,-193.0,-984.0,0.043186718258644945,-0.03842589671106794,0.4231667432834794,-0.9042058754547289
-9580.794126033783,-536.0,-5504.0,-15280.0,27.0,-109.0,-338.0,0.020624190570897136,-0.05938802276773313,0.41957955329753027,-0.9055389025158882
-9580.809725522995,-404.0,-5260.0,-15296.0,136.0,166.0,240.0,0.034208123032537514,-0.037246101846734186,0.41050498472815344,-0.9104549355839376
-9580.82538318634,-500.0,-5152.0,-15532.0,-64.0,398.0,354.0,0.04781680785648593,0.006843937179597466,0.4177621040455386,-0.9072714796761453
-9580.84097313881,-676.0,-5252.0,-15436.0,-103.0,437.0,489.0,0.07053842366228034,0.05874858878282456,0.42702117301541576,-0.8995698149114418
-9580.85656118393,-892.0,-5504.0,-15360.0,-253.0,312.0,428.0,0.09366896070135065,0.09753501163370333,0.44630452491718076,-0.8846046113067645
-9580.872148513794,-1028.0,-5428.0,-15564.0,-250.0,17.0,96.0,0.10249397770615426,0.10056204191429094,0.4650736640900497,-0.8735495104628325
-9580.88776087761,-940.0,-5468.0,-15384.0,-156.0,-151.0,-225.0,0.09277920365392409,0.07854046557428701,0.4776867405400715,-0.8700797621763882
-9580.903340816498,-836.0,-5636.0,-15340.0,-119.0,-441.0,-539.0,0.07089697719991264,0.02162071862361632,0.48619853914158495,-0.8706992268784336
-9580.919313907623,-596.0,-5584.0,-15368.0,232.0,-347.0,-99.0,0.0775917739640012,-0.0074922485337543384,0.4665670417882019,-0.8810440274708375
-9580.934934616089,-608.0,-5448.0,-15612.0,-20.0,-162.0,644.0,0.13344915050484576,0.006125611667340183,0.46692728036309483,-0.8741468503426411
-9580.950548410416,-688.0,-5352.0,-15404.0,60.0,-10.0,553.0,0.17577488127048793,0.028559378973405602,0.461678338164163,-0.8689882997238663
-9580.966158151627,-808.0,-5244.0,-15408.0,3.0,-55.0,779.0,0.2364698752555942,0.05569552494991387,0.45788809685732074,-0.8551716186553071
-9580.981722831726,-864.0,-5296.0,-15116.0,-60.0,-94.0,627.0,0.28681226339862825,0.07239508220294089,0.45695741950478647,-0.8388608909685273
-9580.997348070145,-884.0,-5400.0,-15324.0,-78.0,-76.0,782.0,0.3466919210867981,0.09584702677796664,0.4550303273758205,-0.8145952740344269
-9581.012934923172,-960.0,-5396.0,-15352.0,8.0,-242.0,547.0,0.3945023340505439,0.10048713925527046,0.4422498599497323,-0.7991778929921719
-9581.028524398804,-1092.0,-5272.0,-15316.0,248.0,14.0,727.0,0.4414137822392003,0.13776581553794578,0.4184129849917328,-0.7817320684919845
-9581.044084072113,-1168.0,-5632.0,-15348.0,-75.0,23.0,22.0,0.4428689015774481,0.1372732935818043,0.42442731403576733,-0.7777432956864191
-9581.059657812119,-1160.0,-5496.0,-15112.0,-128.0,-47.0,89.0,0.452040069498432,0.1324471058848276,0.43047519103652654,-0.7699406792816262
-9581.075290203094,-1096.0,-5552.0,-15260.0,30.0,-160.0,95.0,0.4639259594360265,0.12645523865591524,0.42128243971832546,-0.7689622115311087
-9581.090871810913,-988.0,-5296.0,-15428.0,-35.0,-41.0,-179.0,0.4536496782480407,0.11571321860520689,0.4241793023358649,-0.7751672980301294
-9581.106463432312,-964.0,-5276.0,-15364.0,-62.0,79.0,-56.0,0.44744444053571203,0.11654111965197889,0.43233252169293745,-0.7741448383542789
-9581.122080802917,-772.0,-5152.0,-15376.0,-140.0,146.0,-96.0,0.43669245934499057,0.11730921468016095,0.4486672160597417,-0.7708670270127974
-9581.137660741806,-1012.0,-5400.0,-15388.0,-50.0,94.0,-194.0,0.42029684942734796,0.11412686942548655,0.45779663492335354,-0.7750792585854926
-9581.15324807167,-944.0,-5420.0,-15288.0,-29.0,80.0,-272.0,0.3987723461301969,0.1075896834224176,0.46553910074500576,-0.7827377732423635
-9581.16887331009,-952.0,-5364.0,-15416.0,-116.0,91.0,-187.0,0.3832151930926433,0.10216477284653605,0.47856101217155517,-0.78338230296677
-9581.184479951859,-924.0,-5136.0,-15460.0,-36.0,100.0,-280.0,0.3600054474234137,0.09608643437677832,0.4869744993417427,-0.7899489299600854
-9581.200082302094,-920.0,-5412.0,-15612.0,13.0,169.0,-126.0,0.34388345685390254,0.1027848040069619,0.49263744960851635,-0.7927722216441977
-9581.215666532516,-948.0,-5324.0,-15472.0,-41.0,136.0,-166.0,0.3267760561510749,0.10382463102996813,0.5012276415305741,-0.7944864419759088
-9581.23126077652,-944.0,-5424.0,-15272.0,-55.0,96.0,-189.0,0.30983206208731257,0.10064393275950173,0.5096702904523398,-0.7963109236546063
-9581.246812582016,-940.0,-5408.0,-15388.0,-35.0,152.0,-8.0,0.3027144727066097,0.1099106930747612,0.5165056461115517,-0.7934138296605834
-9581.262413740158,-920.0,-5444.0,-15324.0,255.0,108.0,-15.0,0.2941968726172594,0.12343204906661527,0.5019744392678936,-0.8038870515981236
-9581.278024196625,-868.0,-5420.0,-15380.0,-243.0,179.0,-101.0,0.28169898073396993,0.12530346823821625,0.5247694865781652,-0.793449249200858
-9581.293619155884,-936.0,-5616.0,-15536.0,-29.0,180.0,35.0,0.276080196657202,0.13866294402241483,0.5310160209807286,-0.7890337752153272
-9581.309199094772,-928.0,-5368.0,-15348.0,0.0,197.0,-21.0,0.26538536399765084,0.15126189495436612,0.5362002510791174,-0.7868797484071757
-9581.324788331985,-924.0,-5304.0,-15356.0,-241.0,143.0,-242.0,0.24504933628382314,0.14413673794064097,0.5592207211346355,-0.7787474613867753
-9581.340374231339,-928.0,-5340.0,-15188.0,-18.0,203.0,-505.0,0.20074889191941925,0.13278592561448335,0.5707482596618109,-0.7850568160616428
-9581.355988740921,-928.0,-5412.0,-15284.0,-46.0,158.0,-313.0,0.17182433547343698,0.1271866565923137,0.5802717142179087,-0.7858655672585423
-9581.37156510353,-904.0,-5500.0,-15264.0,-243.0,132.0,-329.0,0.1451165051484251,0.11588590805124682,0.6023910203854903,-0.7762967955669872
-9581.38713812828,-876.0,-5528.0,-15304.0,26.0,124.0,-13.0,0.13739651773816872,0.12395258262448441,0.6025431214648727,-0.7763373886072429
-9581.402737855911,-884.0,-5492.0,-15448.0,-27.0,-22.0,-316.0,0.11734521830496221,0.10551571780711534,0.6075404245653294,-0.7784543439120813
-9581.41834974289,-776.0,-5448.0,-15380.0,31.0,-1.0,-520.0,0.08166555810514763,0.07814544278517178,0.6098311382732378,-0.7844297350200664
-9581.43398475647,-792.0,-5408.0,-15284.0,-35.0,82.0,-49.0,0.07415791430343521,0.08092265815993752,0.6133693979253813,-0.7821317720379027
-9581.449555158615,-680.0,-5452.0,-15404.0,-14.0,285.0,366.0,0.08388759846248331,0.11979738806800883,0.6133292265767961,-0.7761692576126609
-9581.46512889862,-784.0,-5536.0,-15176.0,18.0,321.0,289.0,0.08599980332306102,0.15705833500672076,0.6112483179802034,-0.7709164721289093
-9581.480713367462,-880.0,-5504.0,-15460.0,70.0,284.0,517.0,0.10449473551085671,0.2040339065037439,0.6010209476410674,-0.7656532085376322
-9581.496300458908,-1016.0,-5504.0,-15604.0,-19.0,202.0,278.0,0.11271528948648907,0.23188752828565232,0.5991506167300409,-0.7579854722971673
-9581.511964559555,-1280.0,-5456.0,-15172.0,72.0,101.0,228.0,0.12097732002782063,0.25119673858110836,0.5908521999952635,-0.7570722319078
-9581.52754855156,-984.0,-5180.0,-15380.0,50.0,47.0,148.0,0.12716620864474087,0.2625019565429744,0.5849779262046396,-0.7567841859099276
-9581.54312491417,-896.0,-5132.0,-15376.0,-71.0,158.0,63.0,0.12481094417281026,0.27539757420986904,0.5901336037888549,-0.7485457461058677
-9581.558702468872,-788.0,-5584.0,-15444.0,-110.0,264.0,131.0,0.12230394568405657,0.29814246162641367,0.5970502969706503,-0.7346317174834696
-9581.57428073883,-848.0,-5732.0,-15332.0,31.0,223.0,295.0,0.1286527578691499,0.3280340315155727,0.5896859658176934,-0.7267135637773362
-9581.589852333069,-880.0,-5528.0,-15508.0,111.0,228.0,694.0,0.15735139796297987,0.37874015898617297,0.5643943591602479,-0.7164184788783142
-9581.60542678833,-944.0,-5332.0,-15288.0,51.0,190.0,355.0,0.16830660751175283,0.4086347373568047,0.5519548118388337,-0.7071325356545106
-9581.621055603027,-1024.0,-5356.0,-15368.0,245.0,163.0,203.0,0.16406974291837895,0.4319546728160974,0.5319492736756963,-0.7095958359002217
-9581.636715888977,-984.0,-5388.0,-15248.0,3.0,220.0,50.0,0.15671138832036363,0.44795474009252967,0.5331350598547469,-0.7003892485989588
-9581.652339935303,-980.0,-5584.0,-15488.0,-18.0,187.0,93.0,0.15427246807835127,0.4634871954456277,0.533274278321503,-0.6906505406728072
-9581.667959213257,-876.0,-5572.0,-15132.0,-43.0,168.0,213.0,0.1608791273373768,0.4829065240131041,0.5295646539807966,-0.6785871150463618
-9581.6835501194,-848.0,-5512.0,-15352.0,48.0,292.0,347.0,0.16566827292836211,0.516599662839057,0.5159903526532813,-0.662897252723413
-9581.699122428894,-936.0,-5580.0,-15280.0,53.0,390.0,440.0,0.17082449844007566,0.5591008651101832,0.4982589077979144,-0.6402837450425952
-9581.714772701263,-976.0,-5516.0,-15356.0,85.0,381.0,261.0,0.16442684143475056,0.5926153904097116,0.4862288093545532,-0.6207675553852585
-9581.730337619781,-1084.0,-5436.0,-15308.0,24.0,308.0,198.0,0.16062669602000737,0.6178403927150344,0.4790357267248243,-0.6024923951193472
-9581.745990276337,-1112.0,-5444.0,-15344.0,242.0,174.0,-190.0,0.130115638298708,0.6222550276615767,0.47893397412803884,-0.6053848772854614
-9581.76156449318,-980.0,-5444.0,-15472.0,6.0,107.0,-282.0,0.1102550028974218,0.6160895886347376,0.4951364297045793,-0.6025922079577295
-9581.777166843414,-844.0,-5528.0,-15368.0,-240.0,72.0,-41.0,0.11774021850397923,0.615751753425803,0.5106924736153233,-0.5883708154661875
-9581.792746782303,-772.0,-5532.0,-15216.0,7.0,149.0,-226.0,0.09896335708169571,0.6133318900481449,0.5240244368393431,-0.5826050430611636
-9581.80834722519,-672.0,-5520.0,-15304.0,-28.0,327.0,35.0,0.08712942152824117,0.631149280619799,0.5263406868072525,-0.5630493147927044
-9581.824001550674,-752.0,-5660.0,-15384.0,-51.0,418.0,359.0,0.0881508595141884,0.6671024951035842,0.5118108927658077,-0.5340910943273153
-9581.839600086212,-892.0,-5700.0,-15296.0,70.0,320.0,231.0,0.0803644632332799,0.6925391799047216,0.49740568403767765,-0.5162544167686436
-9581.855164766312,-960.0,-5496.0,-15172.0,121.0,204.0,164.0,0.07142615792677103,0.7095651252073031,0.48346190862150873,-0.5076221232032861
-9581.870781183243,-888.0,-5388.0,-15196.0,251.0,158.0,-402.0,0.031247087492699027,0.7005961960554331,0.49788123347147706,-0.5101988504032534
-9581.886363506317,-868.0,-5576.0,-15292.0,-72.0,166.0,-495.0,0.006279575597779193,0.6856479939251728,0.5313726959657589,-0.49748412370524864
-9581.901945590973,-784.0,-5568.0,-15220.0,-180.0,248.0,-339.0,-0.009257580013906988,0.680135639921486,0.5592911700844823,-0.4738387864943179
-9581.917649745941,-648.0,-5620.0,-15108.0,-140.0,335.0,-175.0,-0.024613362017965153,0.6852054632681953,0.5749668207356091,-0.44643119354585464
-9581.933393001556,-668.0,-5640.0,-15336.0,-115.0,480.0,-232.0,-0.050887310692004126,0.6917892442302801,0.5917358216757281,-0.41071503566777806
-9581.948996305466,-520.0,-5752.0,-15404.0,-66.0,547.0,338.0,-0.06301007324567892,0.7280358956851649,0.5704748512097706,-0.37490253320118283
-9581.964569807053,-1032.0,-5564.0,-15336.0,-33.0,439.0,97.0,-0.07959624725179221,0.74688358758994,0.5626441513435281,-0.34534171912923173
-9581.980126857758,-1092.0,-5512.0,-15456.0,-49.0,150.0,-427.0,-0.09660744894057263,0.7302568093300005,0.5905363517920629,-0.32963435871960145
-9581.995749235153,-1068.0,-5320.0,-15288.0,-102.0,-133.0,-1150.0,-0.11575517522638613,0.6646761957929751,0.6645533046729752,-0.3212089653211991
-9582.011348485947,-780.0,-5356.0,-15312.0,-249.0,-239.0,-1525.0,-0.1289765868257565,0.5668584467497985,0.7554831344825155,-0.3021287389700911
-9582.0269343853,-440.0,-5416.0,-15396.0,-321.0,-18.0,-1280.0,-0.14462782451536352,0.4824704499712745,0.8221097375336327,-0.26540654990570745
-9582.042514801025,-344.0,-5760.0,-15332.0,-164.0,376.0,-76.0,-0.16619272579341973,0.48752167017646203,0.8238922603741987,-0.23644056821366247
-9582.058134317398,-480.0,-5708.0,-15512.0,82.0,679.0,948.0,-0.19768576705616525,0.5656244548693181,0.7681087356070367,-0.225827996141669
-9582.07372379303,-756.0,-5512.0,-15316.0,139.0,519.0,976.0,-0.21881537035716328,0.6359483262917045,0.704983565423648,-0.2251393623176504
-9582.089376688004,-1084.0,-5368.0,-15244.0,3.0,560.0,509.0,-0.24264507671630006,0.6768143845631202,0.6645948146685636,-0.20337007623896708
-9582.1049554348,-1160.0,-5392.0,-15212.0,-184.0,490.0,-752.0,-0.2723915863607242,0.6438337004356804,0.6997118089458161,-0.1472561519426631
-9582.12055516243,-1028.0,-5480.0,-15136.0,-273.0,-185.0,-1465.0,-0.2620353632766452,0.5538580289243303,0.78326153572523,-0.10526214344144104
-9582.136131763458,-712.0,-5540.0,-15224.0,-122.0,-225.0,-1040.0,-0.24892534897858884,0.4814881312998604,0.8361777471788532,-0.08373843308871887
-9582.15175318718,-280.0,-5472.0,-15480.0,-164.0,-241.0,-889.0,-0.22988564076376153,0.41711404369386895,0.8770761134644874,-0.06249766326842677
-9582.16734957695,-120.0,-5528.0,-15392.0,-85.0,274.0,144.0,-0.24661014993875024,0.4312437398814029,0.8664905085649538,-0.049055777714104666
-9582.182928800583,-228.0,-5596.0,-15400.0,-152.0,1052.0,998.0,-0.313378209920073,0.5104563337616664,0.8005307285773052,-0.01946744650378764
-9582.198487520218,-624.0,-5780.0,-15468.0,96.0,1088.0,1334.0,-0.38678478705658365,0.5962672067584562,0.7033216474211358,-0.014198834983237294
-9582.214083909988,-1000.0,-5868.0,-15264.0,164.0,825.0,920.0,-0.44194317456358934,0.6445455306735953,0.623772447358684,-0.01245886276944565
-9582.22965836525,-1064.0,-5264.0,-15124.0,-9.0,486.0,-105.0,-0.4672973520861056,0.6392473588260991,0.610429307232092,0.01928885272167841
-9582.24523115158,-944.0,-5364.0,-15352.0,-88.0,355.0,-934.0,-0.4776437605895241,0.5903805231961694,0.6455041897105012,0.08143473992531791
-9582.260775566101,-696.0,-5388.0,-15304.0,-324.0,384.0,-743.0,-0.47561029809526656,0.5577499660378543,0.6635219244318934,0.14982815332473665
-9582.276355981827,-752.0,-5832.0,-15604.0,-71.0,713.0,-450.0,-0.5059761489275282,0.524051142622935,0.6532120564862253,0.2065733426488044
-9582.291966438293,-440.0,-5856.0,-15464.0,78.0,1235.0,803.0,-0.5893746210944205,0.5398349011436419,0.558851497186291,0.22113534228992743
-9582.307554721832,-844.0,-5772.0,-15420.0,288.0,1389.0,769.0,-0.678654888300476,0.5306897941419059,0.4523814461915251,0.23053614059655422
-9582.323143005371,-1164.0,-5492.0,-15364.0,260.0,1249.0,-237.0,-0.7304104533047725,0.4779905180421589,0.3922117336233517,0.2901647641824733
-9582.33872795105,-1176.0,-5340.0,-15288.0,187.0,888.0,-1282.0,-0.7291943841076294,0.39625928379465686,0.3902754968962967,0.39867175309368147
-9582.35431098938,-904.0,-5188.0,-15428.0,-61.0,668.0,-2075.0,-0.6656006978050313,0.3010863868477766,0.410166922879429,0.5459723382297191
-9582.36989569664,-444.0,-5356.0,-15596.0,-197.0,943.0,-2711.0,-0.5479480356249168,0.16566581760695046,0.40484169365714995,0.7130294455408037
-9582.385529518127,68.0,-5544.0,-15424.0,-263.0,1376.0,-1884.0,-0.46584018916884284,0.02573131114400914,0.3430031902775993,0.8152788659356599
-9582.401126623154,508.0,-5676.0,-15352.0,62.0,2174.0,-1070.0,-0.4450961805580385,-0.15982845405743829,0.2560160815457555,0.8430895689760446
-9582.416757106781,748.0,-5456.0,-15504.0,97.0,3553.0,361.0,-0.52474950158984,-0.39819215854295964,0.12446906486112483,0.7420164535565974
-9582.432335615158,424.0,-5652.0,-15340.0,44.0,4890.0,1486.0,-0.61409780207412,-0.6401685286500024,-0.04110054296757671,0.4597595999885116
-9582.447941303253,-272.0,-6120.0,-15480.0,-106.0,6250.0,1949.0,-0.5865526980441678,-0.7748333070237793,-0.23572269061137957,0.004908347444190372
-9582.463510036469,-1416.0,-6340.0,-15184.0,71.0,6868.0,1118.0,-0.376652659201853,-0.6876530838592632,-0.4373982932640066,-0.4403961212644272
-9582.479061126709,-2240.0,-6068.0,-15492.0,332.0,6234.0,-1488.0,-0.1533659522771461,-0.3509905187062935,-0.6495612173442992,-0.6567760389833077
-9582.494671821594,-2184.0,-5452.0,-15468.0,-594.0,5946.0,-6870.0,-0.1786860385661727,0.3031346201807054,-0.7091200032048764,-0.6110069743662044
-9582.510262727737,-1252.0,-5764.0,-16652.0,-1937.0,5483.0,-8763.0,-0.18814183082799968,0.8605624119975588,-0.33862158027700545,-0.33071197728587864
-9582.525878429413,436.0,-6200.0,-18024.0,-2899.0,5828.0,-11304.0,-0.08211129296146943,0.9308206052717694,0.32883598633187955,0.1367392791513563
-9582.541487693787,2460.0,-6900.0,-20484.0,-4196.0,7906.0,-9006.0,0.09323929012182688,0.40747515973229576,0.6390077849443109,0.6457085099015524
-9582.557066202164,3772.0,-7784.0,-21156.0,-4732.0,12551.0,-5336.0,-0.08570158837176503,-0.39529378646064395,0.413075479727997,0.8159452850428445
-9582.572714328766,3620.0,-8760.0,-21768.0,-4399.0,17028.0,2227.0,-0.5481742004832424,-0.8114206414667114,0.026815313963636372,0.20095404316246118
-9582.588302612305,2244.0,-10528.0,-24988.0,-3139.0,21515.0,7404.0,-0.4242549883810479,-0.45593587272316544,-0.23802809450692547,-0.7453004837133572
-9582.604034423828,-516.0,-11124.0,-24428.0,-2138.0,23514.0,10471.0,0.2678067943001003,0.3791658930057867,-0.22424995967879724,-0.8568691277504902
-9582.619676589966,-4332.0,-11176.0,-24152.0,-108.0,22985.0,7685.0,0.5538098795059815,0.8314279653068811,0.028530515815783013,0.03475867567262984
-9582.63528084755,-7476.0,-10308.0,-22012.0,2148.0,18276.0,5856.0,0.17064829521483538,0.4564494975384846,0.25183683551351305,0.8361287124693633
-9582.650868654251,-10196.0,-9936.0,-17192.0,2076.0,14288.0,-4543.0,0.06360576121994196,-0.39543583065676297,0.48117163681392855,0.7797811660320045
-9582.666454792023,-10564.0,-7836.0,-13712.0,4976.0,5907.0,-12208.0,0.5083756795860438,-0.7969950346316195,0.2680012973780257,0.18581815783627503
-9582.682035684586,-8632.0,-3396.0,-10920.0,5343.0,1080.0,-13455.0,0.6646800417088854,-0.5529143424545702,-0.3303185603992224,-0.37864999764649393
-9582.69761300087,-6484.0,-592.0,-7768.0,2583.0,874.0,-5677.0,0.5493422071194598,-0.18462943455245287,-0.5599833445570321,-0.5920758103424612
-9582.713202476501,-6544.0,-1980.0,-6772.0,-3870.0,3758.0,12847.0,0.8476004811437194,-0.5106122868424263,0.01724898406921552,-0.1433561628918095
-9582.728774309158,-10752.0,-9984.0,-7484.0,-1616.0,539.0,15669.0,0.5707809328420687,-0.3527952801061,0.4561191618246851,0.584551047604179
-9582.74433851242,-12680.0,-10672.0,-7248.0,5031.0,-7237.0,21866.0,-0.044435451503978964,0.4971135012470013,0.44835813672955965,0.7415380224614129
-9582.759948730469,-12248.0,-8440.0,-7496.0,7032.0,-12997.0,22862.0,-0.5122918555812397,0.8556343047567475,-0.01477114357393211,-0.07231047328074759
-9582.775503396988,-11292.0,-5308.0,-7744.0,5499.0,-18046.0,24756.0,-0.2728390810548991,0.16028665744108925,-0.37702910815797536,-0.8704688822106641
-9582.791095256805,-10184.0,-4448.0,-10920.0,2465.0,-21557.0,20411.0,0.19167571772471653,-0.7925326980574438,-0.12087150655988915,-0.566164658598933
-9582.806663036346,-8496.0,-6384.0,-14324.0,-1443.0,-25844.0,15548.0,0.20842102769540466,-0.8009604393177441,0.21057789574933616,0.5202691608043853
-9582.822266101837,-7140.0,-9704.0,-18764.0,-2452.0,-29449.0,7286.0,0.0872011341236806,0.2202993007361192,0.025674224556591303,0.9711874250092711
-9582.837837219238,-5284.0,-12204.0,-21964.0,-1264.0,-32768.0,-2998.0,0.14425483942738748,0.9797824966268244,-0.0898742996691932,0.10554340748932362
-9582.85341835022,-1968.0,-12516.0,-22712.0,1919.0,-32768.0,-9977.0,-0.0586823971294419,0.43842739537195397,0.11669376121618052,-0.8892245843136186
-9582.868996143341,2892.0,-9516.0,-23356.0,4218.0,-32768.0,-13080.0,-0.27668877370953665,-0.6933663754718272,0.14052554967373498,-0.6503375752307939
-9582.884567260742,8000.0,-5756.0,-23972.0,4296.0,-32768.0,-11604.0,-0.08498415465703846,-0.8703465318559467,-0.004381578630394108,0.48503134920565694
-9582.900133609772,12788.0,-5224.0,-23420.0,2324.0,-28633.0,-5116.0,0.10865328688268383,0.11930341320994434,-0.030068795949169162,0.9864365293095211
-9582.916086673737,13552.0,-7924.0,-22200.0,2058.0,-17916.0,9340.0,-0.3752987759401113,0.8140975473392771,-0.05905844046005172,0.43921306083090694
-9582.931837320328,10964.0,-11772.0,-21172.0,6299.0,-11925.0,20756.0,-0.7056340635297862,0.4025254354018047,-0.37878541702204377,-0.4433683007302908
-9582.947464227676,6784.0,-9612.0,-20704.0,10926.0,-8559.0,21677.0,-0.2170072362145557,-0.5360054442107395,-0.4213778864059374,-0.6986033925304347
-9582.963077545166,3092.0,-3412.0,-17364.0,9504.0,-6748.0,23882.0,0.5683583248475087,-0.7941531241514945,0.09661095957947978,-0.19223931040785266
-9582.97867178917,-136.0,-1264.0,-15796.0,3665.0,-6309.0,12510.0,0.6733664812506447,-0.3803479029571672,0.3656180395823158,0.5179155372994662
-9582.994277238846,-2628.0,-2992.0,-14628.0,-1942.0,-8490.0,-1446.0,0.7487227857518655,-0.12448626103794715,-0.21300835507217922,0.6152599463464223
-9583.00984954834,-2488.0,-6724.0,-14400.0,-3634.0,-11574.0,-9656.0,0.6017725036239796,0.260754640865096,-0.7544782008946281,0.025288644175745615
-9583.025433063507,-112.0,-9344.0,-14652.0,-2926.0,-12049.0,-10568.0,-0.05863755323300588,0.47718077570400635,-0.6635159462504359,-0.5732422993122175
-9583.041006088257,1476.0,-10220.0,-14140.0,264.0,-11352.0,-7759.0,-0.7139105261837245,0.22871230156129116,-0.18917621138152874,-0.6342198394610072
-9583.056619882584,3084.0,-7752.0,-14004.0,3610.0,-9171.0,-3057.0,-0.8223651460518144,-0.336673793366258,0.18094569847635836,-0.4214557837098157
-9583.072257041931,3912.0,-4304.0,-12828.0,3522.0,-3905.0,1427.0,-0.5459710674715805,-0.6417391094793349,0.33757732298432863,-0.4196761368666883
-9583.087905406952,2860.0,-3376.0,-12484.0,303.0,1163.0,4826.0,-0.354351766487115,-0.4325777474377912,0.49672564092269555,-0.6637582057188031
-9583.103501796722,560.0,-4868.0,-12588.0,-922.0,4300.0,5448.0,-0.22172728970790695,0.06916632995521914,0.5316846314050122,-0.8144719028468863
-9583.11913394928,-2000.0,-6608.0,-12768.0,-626.0,5696.0,6843.0,0.00330816871271208,0.6340230698075773,0.33523668165041925,-0.6968645279016286
-9583.134727239609,-4168.0,-6972.0,-12632.0,173.0,5903.0,6694.0,0.17988749558633294,0.937959205634667,-0.034515892044167405,-0.29441751084685364
-9583.150321006775,-6388.0,-6548.0,-12336.0,716.0,6116.0,6389.0,0.240026089771844,0.8595779060987725,-0.3793751114440383,0.24410617442521182
-9583.165998458862,-8156.0,-6172.0,-11456.0,-426.0,4973.0,5714.0,0.2624166978371842,0.4632189966186851,-0.5945217155150937,0.6025857346874357
-9583.181596517563,-9620.0,-6864.0,-11492.0,-658.0,2014.0,-2510.0,0.505043460262511,0.4541902541389266,-0.4630733436296945,0.5693903711083473
-9583.197162389755,-8844.0,-6808.0,-11160.0,-2149.0,-1779.0,-11845.0,0.75877068473833,0.6352343902690973,-0.12262810042407293,-0.07554248068178114
-9583.212756633759,-5540.0,-7692.0,-12384.0,-4999.0,-2853.0,-17506.0,0.46980673248178356,0.2496784899956362,0.36539746446200294,-0.7638239186573226
-9583.228371858597,-2156.0,-10416.0,-11644.0,-6244.0,-1727.0,-19001.0,-0.3002440665463931,-0.36051229267268947,0.5577079931309606,-0.684723434485342
-9583.243995904922,404.0,-14092.0,-13068.0,-3450.0,-1915.0,-21847.0,-0.7434692450867496,-0.6641038120279135,0.058245586047321204,0.05317010594437917
-9583.259577274323,3020.0,-11824.0,-14132.0,955.0,-2979.0,-17451.0,-0.3212139296038637,-0.4348040251532886,-0.4100706511942001,0.7345809228179746
-9583.275168895721,5428.0,-6488.0,-14968.0,1740.0,2538.0,-17555.0,0.5197853067005476,-0.009785295019585126,-0.560246668499119,0.6448652210929317
-9583.290773153305,5484.0,-3628.0,-23976.0,757.0,2477.0,-16307.0,0.8889461712218925,0.38909115210567724,-0.23918910360278467,-0.03422503090884144
-9583.306373596191,10936.0,3912.0,-3748.0,-7076.0,32767.0,32767.0,0.45379492079542283,-0.177100650796358,0.2875595311092956,0.8246302476964961
-9583.321950912476,-7440.0,-7208.0,-32768.0,7249.0,32767.0,32767.0,-0.6204720553821099,-0.3384311768448058,0.6202310101439333,0.34028261942858
-9583.337545871735,-23580.0,448.0,-21748.0,18100.0,24833.0,24964.0,-0.6036191253148959,-0.19596643749338674,0.1530060413014211,-0.7575158468675742
-9583.35317826271,-23152.0,11388.0,-19396.0,744.0,2270.0,-25750.0,-0.9412400467845086,-0.17373781957708237,-0.18489188154307096,0.22292899433936478
-9583.368777751923,-13736.0,2704.0,-16996.0,-19747.0,-149.0,-30104.0,-0.1993816910231859,0.5873861417277926,-0.3073913477357982,0.7216197205786731
-9583.384389162064,-8244.0,-25888.0,-21600.0,-27782.0,2904.0,-32768.0,0.8656811360386508,0.454436674074176,-0.11008029130816996,0.17878984710754878
-9583.399998426437,1040.0,-29664.0,-14792.0,-5283.0,-7657.0,-16185.0,0.6560375925623678,0.17270329484417127,-0.06758892852949998,-0.7315873056820861
-9583.415583133698,9476.0,-22844.0,-14416.0,10384.0,-1442.0,30055.0,0.8162729345346181,0.16854666563255666,-0.4288108242751378,0.34844195332202293
-9583.431183099747,6000.0,-8400.0,-12076.0,13749.0,14324.0,14208.0,0.3050548348359785,0.07676500873727848,0.3400529206360125,0.8862351224949716
-9583.446810007095,-492.0,2188.0,-8788.0,10910.0,15105.0,14953.0,-0.5936192019767815,-0.15446763573169153,0.6426326351439491,0.45910705592906575
-9583.462405204773,-4412.0,10132.0,-10476.0,-255.0,13811.0,2580.0,-0.9320763351102571,-0.34768354300557985,-0.030402131024907155,0.09708537417996196
-9583.478009223938,-7540.0,3916.0,-14592.0,-9338.0,10353.0,-11440.0,-0.5850579388794491,0.18995791484191163,-0.6965593498546337,0.3693619781097313
-9583.493609666824,-9400.0,-5336.0,-18508.0,-15679.0,-1784.0,-14558.0,0.016831431297117876,0.9100846354627945,-0.40953966284667076,0.06115491615952341
-9583.509197235107,-5692.0,-13792.0,-19252.0,-14138.0,-5365.0,-32768.0,0.3397335881759137,0.6321985885240211,0.6384750096458799,-0.27794908848752775
-9583.524799585342,1316.0,-16276.0,-15504.0,-2119.0,-8695.0,-9562.0,0.4668168970727031,-0.11486212391266852,0.6319587357552375,-0.6078789627880916
-9583.540398597717,4072.0,-8800.0,-14776.0,3411.0,4304.0,4595.0,0.43017551619264005,0.42883520641865297,0.5704477896310292,-0.5528460095807332
-9583.556059122086,-1108.0,-3096.0,-12824.0,2886.0,8394.0,2448.0,0.017343712129185198,0.8293967762043986,0.510474082680305,-0.22631039344897932
-9583.571645736694,-5428.0,-3348.0,-14416.0,-3683.0,3274.0,-10352.0,-0.047059621524869755,0.30212730171749747,0.9454264028118508,0.11257620727793319
-9583.587297677994,-6284.0,-5444.0,-13564.0,-8877.0,-4187.0,-21430.0,0.32492285295207474,-0.6070704667499099,0.6297704600911023,0.35955494103985325
-9583.602878808975,-3932.0,-11228.0,-15832.0,-5670.0,-8967.0,-32534.0,0.48840939337581607,-0.7222484789594151,-0.48454231586427365,0.07093760103051945
-9583.618462085724,452.0,-7536.0,-14340.0,-3569.0,-13380.0,-19854.0,-0.07684717856400508,0.02042974293759977,-0.9962035750100675,-0.03543407805229634
-9583.634067296982,3996.0,-3752.0,-15944.0,-2922.0,-8346.0,-16610.0,-0.4412592273549521,0.7585120887971369,-0.46893178351334985,-0.10026309307867856
