programtime,ax,ay,az,gx,gy,gz,q0,q1,q2,q3
-3586.9254019260406,1132.0,-1492.0,16584.0,430.0,905.0,-739.0,0.9941747247747017,0.03704462294561114,0.07831778981259907,-0.06411424435204272
-3586.941022872925,916.0,-1076.0,16452.0,274.0,878.0,-577.0,0.979722557706159,0.06132963215089916,0.15387569354425248,-0.11271493724530234
-3586.956709623337,928.0,-1120.0,16208.0,2.0,1023.0,-367.0,0.9581368878887216,0.06618967150281144,0.24194361623123073,-0.13804317447168582
-3586.972317457199,892.0,-1076.0,16492.0,226.0,1144.0,-156.0,0.9260232538792296,0.09497800125156523,0.33378081452623226,-0.1484940416561775
-3586.9880096912384,880.0,-968.0,16276.0,193.0,1130.0,130.0,0.8888048576173815,0.12827993373446972,0.4191940747013994,-0.13359083580868691
-3587.0036351680756,700.0,-812.0,16016.0,199.0,805.0,224.0,0.8574425705034077,0.16078057796894543,0.47529376925804107,-0.11418264728479786
-3587.019284725189,596.0,-408.0,16252.0,281.0,703.0,292.0,0.8252935597718479,0.20037105046104509,0.5195424446721424,-0.09390223916575532
-3587.0348930358887,568.0,-512.0,16388.0,275.0,540.0,240.0,0.796789028376418,0.23505268527540335,0.5509564717156075,-0.07952638353700472
-3587.0505151748657,580.0,-408.0,16696.0,396.0,520.0,100.0,0.7631948931174238,0.27050805703695247,0.5812281942940379,-0.08082532001340388
-3587.066164255142,556.0,-568.0,16808.0,452.0,564.0,-245.0,0.7206941310017951,0.29146942639587026,0.6199149986506644,-0.10654077840891085
-3587.0817906856537,720.0,-872.0,16556.0,472.0,676.0,-55.0,0.6699612682919135,0.3235858794372706,0.6576524175524653,-0.1180566614168671
-3587.0973920822144,916.0,-944.0,16612.0,474.0,755.0,-193.0,0.6094140283187807,0.3468695773458628,0.7000845182597517,-0.13482472211426952
-3587.113014936447,1004.0,-1024.0,15996.0,472.0,517.0,-178.0,0.5604109142607998,0.36642443638217836,0.7259212321114721,-0.1571976601897736
-3587.1286537647247,808.0,-1072.0,15816.0,403.0,481.0,-114.0,0.5147633483887767,0.3848902838141156,0.7463624117575448,-0.17268849092086527
-3587.1442527770996,936.0,-980.0,15828.0,266.0,-56.0,0.0,0.5094065876885934,0.39586070803684054,0.7395826152784504,-0.1918770007841544
-3587.159925699234,900.0,-1068.0,16268.0,152.0,-198.0,219.0,0.5204604300387193,0.4132401082437569,0.7203155042271766,-0.19874387555984593
-3587.1755311489105,816.0,-1192.0,16636.0,65.0,-233.0,494.0,0.5407890284981149,0.44267115895350373,0.6899389752817191,-0.18860986738248423
-3587.191148519516,756.0,-1036.0,16956.0,147.0,-109.0,273.0,0.5460227767947315,0.46403180949710965,0.6714982301884608,-0.18874250673860893
-3587.206807374954,656.0,-1064.0,17384.0,139.0,-20.0,527.0,0.5497056681544223,0.5006146518127006,0.6461272251526441,-0.1724188438248348
-3587.222452878952,472.0,-1016.0,16804.0,103.0,68.0,497.0,0.5483841041828806,0.534040176838071,0.6254503946758745,-0.15128703712510982
-3587.238061904907,372.0,-664.0,16628.0,253.0,113.0,301.0,0.5341385443870189,0.5636792633529762,0.6130523636640377,-0.1453564682836616
-3587.2536900043488,520.0,-472.0,16128.0,-23.0,100.0,93.0,0.5311413080391846,0.5687731175124239,0.6133456433864741,-0.13488207230189883
-3587.2693712711334,504.0,-440.0,16228.0,42.0,162.0,-173.0,0.518312428822099,0.5632041171205012,0.628774165211193,-0.1370999553246483
-3587.284989118576,544.0,-468.0,16340.0,113.0,297.0,-305.0,0.49252098294305124,0.5546869657358577,0.6553340672598367,-0.14241738549853383
-3587.3006176948547,604.0,-716.0,16600.0,188.0,227.0,-424.0,0.4647638979458883,0.5407572720402772,0.6825606894993891,-0.16027163520667015
-3587.3161911964417,612.0,-876.0,16692.0,194.0,111.0,-432.0,0.4426195460505255,0.5239417608776578,0.704076971564543,-0.1839798542638505
-3587.3318128585815,660.0,-948.0,16696.0,154.0,29.0,-378.0,0.4275160009983078,0.5067765854302373,0.7195235505931741,-0.20662386476851297
-3587.347457408905,628.0,-1092.0,16484.0,185.0,-67.0,-278.0,0.41840365188576456,0.4947672974303589,0.7256333767019503,-0.23151653957814827
-3587.363105773926,696.0,-1040.0,16248.0,178.0,-141.0,-115.0,0.41728084459729425,0.4909880165540039,0.7216429505294196,-0.2530591161838035
-3587.3787047863007,696.0,-1088.0,16172.0,136.0,-163.0,-29.0,0.4210659312697847,0.49040185502993433,0.7137858022489612,-0.26966521951285277
-3587.394307613373,576.0,-1280.0,16176.0,85.0,-289.0,-3.0,0.4352732748874836,0.48633843323102555,0.7010125033451379,-0.2873909787813449
-3587.4099817276,624.0,-772.0,16140.0,6.0,-400.0,-70.0,0.45751543123535476,0.4719197990236001,0.6881618873826658,-0.3072532346859503
-3587.425595998764,672.0,-736.0,16544.0,-110.0,-433.0,-100.0,0.4850544659285714,0.4495116059445221,0.6773510656370325,-0.3222685449812027
-3587.4412093162537,804.0,-896.0,16552.0,-78.0,-555.0,-137.0,0.5164902011119197,0.4219202640943571,0.6605302374352533,-0.3448491965129753
-3587.456882953644,836.0,-808.0,16496.0,-15.0,-554.0,-98.0,0.5454495135625844,0.3983906995938624,0.6387795622310591,-0.36841600061255353
-3587.4725239276886,880.0,-872.0,16536.0,-10.0,-518.0,-175.0,0.5684800855010056,0.37102387460578806,0.6197442181139071,-0.3938131295115232
-3587.488137483597,1032.0,-956.0,16404.0,0.0,-439.0,-104.0,0.5882740225687504,0.3499784516810367,0.6007793418650657,-0.4129321253158976
-3587.5037837028503,1132.0,-1056.0,16868.0,48.0,-460.0,-119.0,0.6061920001847698,0.32927384215491573,0.5784687633930592,-0.43529746790330925
-3587.5194358825684,1096.0,-1068.0,16716.0,95.0,-491.0,-164.0,0.6214442997834463,0.3069711175597831,0.5529058326599434,-0.4624617340509102
-3587.535059928894,1156.0,-1080.0,16728.0,68.0,-504.0,-63.0,0.6408392477045309,0.28691228847639894,0.5238709709976379,-0.48225056046490883
-3587.5506930351257,876.0,-964.0,16492.0,139.0,-576.0,32.0,0.6642306037079785,0.2714588847832947,0.4842205361187811,-0.5006378445251464
-3587.566286087036,1012.0,-884.0,16464.0,118.0,-531.0,129.0,0.6887723982579036,0.2601474935754892,0.4445499268721337,-0.5101874434974142
-3587.5818803310394,692.0,-632.0,16332.0,-250.0,-619.0,193.0,0.7258059623599119,0.2245266708866166,0.4131706060913289,-0.5020792062269646
-3587.5975291728973,596.0,-476.0,16396.0,-23.0,-619.0,130.0,0.7532050070458641,0.2002209669050058,0.37167297479601047,-0.5044333271889839
-3587.613166332245,616.0,-380.0,16372.0,21.0,-785.0,116.0,0.781608089071461,0.1702803115373409,0.31616008903407117,-0.5100354974928445
-3587.628800392151,660.0,-380.0,16084.0,89.0,-1042.0,46.0,0.8077803644327702,0.1305631165052449,0.23921512000335718,-0.5227047749993092
-3587.6444001197815,592.0,-468.0,16108.0,194.0,-1049.0,-87.0,0.8199736751207998,0.09400914020634239,0.1564777435090148,-0.5425128288371439
-3587.660080909729,488.0,-536.0,16260.0,328.0,-983.0,-17.0,0.8265502498090269,0.07023869177546789,0.0702046915876859,-0.554032952086231
-3587.67573595047,376.0,-1004.0,16824.0,415.0,-725.0,-183.0,0.8173371948774129,0.06354675145974244,-0.0012033189796736188,-0.5726432329751825
-3587.6913509368896,292.0,-1108.0,17084.0,391.0,-639.0,-165.0,0.8050706343139556,0.05906407024326188,-0.06521794276862948,-0.5866168505188476
-3587.7069613933563,224.0,-1072.0,17504.0,325.0,-369.0,-190.0,0.7907646486164772,0.06378034123013139,-0.10647593814138,-0.5994048825025873
-3587.7226469516754,484.0,-652.0,17408.0,236.0,-34.0,-193.0,0.7787998876287783,0.0798527788951353,-0.11980565922709023,-0.61052507954161
-3587.7382593154907,88.0,-276.0,17060.0,79.0,276.0,-346.0,0.762149493613961,0.10328430766457339,-0.10251031604592171,-0.6308344761333179
-3587.753885984421,-140.0,-88.0,16708.0,-84.0,367.0,-524.0,0.7362064750689388,0.12218006901890303,-0.06841558816288461,-0.6621112928333355
-3587.7694902420044,232.0,204.0,17188.0,-399.0,582.0,-1253.0,0.6663349541408379,0.13630320351798234,0.005490527089440252,-0.7330682230960112
-3587.785104751587,-36.0,96.0,17240.0,-565.0,910.0,-1735.0,0.5529660242817126,0.15803869281826646,0.113400464804163,-0.8101806478462503
-3587.800766468048,568.0,116.0,17376.0,-683.0,1441.0,-2303.0,0.37430387615261307,0.19810738067663597,0.25531706900413836,-0.8691738999151483
-3587.816347837448,808.0,-304.0,17676.0,-788.0,1691.0,-2655.0,0.14322924153461541,0.23218976678109216,0.4003273080291373,-0.8748207490781784
-3587.8319675922394,1396.0,-476.0,18392.0,-1101.0,1676.0,-2854.0,-0.10614077482532752,0.23587772255760858,0.5386374999003596,-0.8018512827336531
-3587.847596883774,1496.0,-608.0,19632.0,-1504.0,1721.0,-2925.0,-0.3432842458600518,0.22134779837287097,0.6545669833866968,-0.6361628273954855
-3587.863296031952,1736.0,-764.0,20364.0,-2165.0,2081.0,-3094.0,-0.5542827070568576,0.2105407804422856,0.7226375332313174,-0.35530023359664664
-3587.8789105415344,620.0,-596.0,19824.0,-2616.0,2418.0,-3277.0,-0.7004961587515317,0.18917567755006137,0.6880273637243521,0.011663677136397798
-3587.894522190094,292.0,-1232.0,18340.0,-2900.0,2935.0,-3134.0,-0.7523991367556793,0.15969086013039102,0.5077292293488057,0.3880791128945131
-3587.910171508789,312.0,-1388.0,17400.0,-3056.0,3378.0,-3108.0,-0.6796487520798347,0.09747564114197256,0.20318039270652521,0.6980643245431662
-3587.9258687496185,-44.0,-1724.0,16152.0,-2935.0,3618.0,-3039.0,-0.4801053884857119,-0.0025324631931372263,-0.14813325736602997,0.8646091259287567
-3587.9415419101715,340.0,-1720.0,15008.0,-2655.0,3588.0,-2881.0,-0.19681336917282852,-0.11311471079976465,-0.45289436131632754,0.8621811047589719
-3587.9572472572327,548.0,-2388.0,14932.0,-2373.0,3586.0,-2466.0,0.09829306083710919,-0.22455515139128712,-0.6583067300149624,0.7117202451749673
-3587.972897529602,644.0,-2996.0,14516.0,-2299.0,3201.0,-1848.0,0.3290668635346561,-0.3149510806181981,-0.7570122539035827,0.46845839044755155
-3587.988489627838,756.0,-3400.0,14396.0,-1830.0,2664.0,-938.0,0.4732220306804073,-0.3976466074714039,-0.7493868103137744,0.2373973331209558
-3588.0041065216064,776.0,-3548.0,14584.0,-1495.0,2065.0,-144.0,0.5460788488365582,-0.4809521636733169,-0.6832409344424704,0.06053703505685105
-3588.0197343826294,1256.0,-3064.0,14632.0,-1271.0,1532.0,313.0,0.5737215518694615,-0.5596778221661356,-0.5946011515871871,-0.06366935547858947
-3588.0353314876556,416.0,-2716.0,15252.0,-1091.0,1105.0,304.0,0.5741091887958694,-0.6180453318211404,-0.5134133380090076,-0.1575606280410614
-3588.050925016403,980.0,-1540.0,15516.0,-813.0,949.0,181.0,0.5718984419236265,-0.6498575386606628,-0.44217801875571033,-0.23472526770782082
-3588.066533088684,808.0,-1676.0,15124.0,-676.0,567.0,-131.0,0.5511781681663789,-0.6648557155268019,-0.40617379137516285,-0.2986508926288772
-3588.0821719169617,700.0,-1304.0,15904.0,-539.0,458.0,-616.0,0.5184306917411656,-0.6547498946580956,-0.40443768128155916,-0.3727765487065747
-3588.0978095531464,436.0,-1544.0,16328.0,-460.0,584.0,-921.0,0.48031468740320343,-0.6206746966142638,-0.4134283097111575,-0.46166844680672064
-3588.113403081894,396.0,-1948.0,16772.0,-366.0,807.0,-1101.0,0.4419657705266944,-0.5594479274812739,-0.42123971339458277,-0.5605723664067847
-3588.12900185585,68.0,-2512.0,16744.0,-287.0,956.0,-1159.0,0.4028866860635556,-0.4768108008322132,-0.4230777368273149,-0.6567640421061026
-3588.144611597061,-140.0,-2912.0,16828.0,-155.0,1151.0,-1267.0,0.3623173524079772,-0.36530852596511043,-0.42162042664410104,-0.7466672838940503
-3588.1602280139923,156.0,-2588.0,16072.0,14.0,1276.0,-1447.0,0.3110915805960964,-0.22518672987247404,-0.4222288374965101,-0.8211186113820035
-3588.1758658885956,400.0,-2320.0,15896.0,156.0,985.0,-1496.0,0.24034433633170518,-0.09399887414565491,-0.4306115770278524,-0.8648540231635669
-3588.1914567947388,432.0,-1888.0,15820.0,225.0,685.0,-1736.0,0.13511612551349952,0.027342525088838922,-0.4413609423757944,-0.8866772453904167
-3588.2070817947388,316.0,-2016.0,15440.0,143.0,548.0,-1859.0,0.011858278981138233,0.14102530316204567,-0.4351079852063621,-0.8891863057297491
-3588.222666978836,-40.0,-2264.0,15956.0,116.0,463.0,-1705.0,-0.10309852368656197,0.2389476422601593,-0.4174948331926996,-0.8706163236060778
-3588.238249063492,-400.0,-2532.0,15916.0,149.0,428.0,-1714.0,-0.21829108212918907,0.3286102632837346,-0.39207711447823035,-0.8310474322383092
-3588.2538771629333,-612.0,-2852.0,15732.0,224.0,357.0,-1427.0,-0.3134289153843774,0.3956658078772299,-0.3709246759296831,-0.7795035396098542
-3588.2695014476776,-576.0,-2880.0,15824.0,311.0,316.0,-1285.0,-0.3986377198940621,0.44703039655413496,-0.3537324279817018,-0.7184185146754544
-3588.2851207256317,-328.0,-2728.0,15844.0,494.0,158.0,-1025.0,-0.47500280277911083,0.46894221096097255,-0.3483464262794639,-0.6581187639243768
-3588.300719976425,-56.0,-2584.0,15972.0,649.0,126.0,-1046.0,-0.5546800259000868,0.47818932811978837,-0.34591390060117705,-0.5865224707636557
-3588.3162834644318,84.0,-2832.0,16180.0,735.0,66.0,-856.0,-0.624249971352697,0.4694428759348202,-0.3492033674681063,-0.5176797925833467
-3588.3319268226624,-428.0,-3008.0,16532.0,790.0,149.0,-619.0,-0.6774970104126853,0.45012764136399586,-0.3661081533568644,-0.45204836843814233
-3588.347508430481,-608.0,-2720.0,16340.0,971.0,186.0,-544.0,-0.7277496679306464,0.4153122156978802,-0.3920318941485083,-0.37974620246854895
-3588.3631262779236,-244.0,-2600.0,15868.0,1072.0,146.0,-283.0,-0.7674532352534204,0.35992753680741985,-0.4244345805376163,-0.3183127185499494
-3588.3787240982056,-172.0,-2416.0,15192.0,1142.0,-115.0,-465.0,-0.8158625463587877,0.29564608815469307,-0.4311936589560484,-0.2470500444927656
-3588.394338130951,-244.0,-2460.0,15248.0,1182.0,-323.0,-431.0,-0.8623917432576573,0.21924345374323165,-0.4196994654828883,-0.17906743932143665
-3588.4099786281586,-268.0,-2600.0,15776.0,1205.0,-588.0,-471.0,-0.9074923432398131,0.1355017162355374,-0.38213046537206363,-0.1098782930922541
-3588.4255735874176,-392.0,-2488.0,16132.0,1172.0,-728.0,-475.0,-0.9426594281579068,0.05108315751495794,-0.3272115697784484,-0.04142827689433424
-3588.4411668777466,-504.0,-2372.0,16632.0,1108.0,-831.0,-768.0,-0.9650037631475115,-0.020932601179128315,-0.2567181598350083,0.04924783985053847
-3588.4567873477936,-272.0,-1888.0,16852.0,1163.0,-987.0,-672.0,-0.9719277053258145,-0.09846280584229129,-0.16777755486737927,0.1323340605002493
-3588.472373008728,-268.0,-1616.0,16156.0,1204.0,-1066.0,-871.0,-0.9550904065751222,-0.17312518219475742,-0.06983034265392152,0.23011673081945946
-3588.487997531891,-448.0,-1720.0,16016.0,1265.0,-1268.0,-931.0,-0.9110411024452226,-0.2433885762407423,0.046546101200158424,0.3295444902800866
-3588.503603219986,-24.0,-2336.0,15536.0,1243.0,-1570.0,-712.0,-0.8434791998336131,-0.294666435268424,0.18873289520912268,0.4075468385845112
-3588.5192670822144,244.0,-2532.0,15560.0,1217.0,-1637.0,-190.0,-0.7664039151646033,-0.32382419596919687,0.3421184930827599,0.436712566359216
-3588.5348625183105,316.0,-2864.0,15708.0,1319.0,-1630.0,363.0,-0.6827194413243908,-0.33325295113076314,0.5029841797690471,0.4121207952802281
-3588.55046916008,368.0,-2992.0,15900.0,1455.0,-1797.0,1073.0,-0.5858790743916371,-0.30077186513196086,0.676988638988715,0.3285854196632096
-3588.566077709198,560.0,-2928.0,16572.0,1296.0,-2140.0,1553.0,-0.45523160993062634,-0.20712072958176925,0.8371148113314055,0.22159417263788989
-3588.5816712379456,296.0,-2652.0,16896.0,1040.0,-2498.0,1896.0,-0.2792555359624144,-0.05915028232885963,0.9519531382635458,0.11091804309916035
-3588.5973312854767,460.0,-2068.0,17380.0,646.0,-2748.0,1839.0,-0.06275554853334792,0.10028943172489578,0.992649201263402,0.025521250825664376
-3588.612932443619,732.0,-1216.0,17148.0,9.0,-2859.0,1829.0,0.17337019589402053,0.25417870957381405,0.9514400915170518,-0.009884888926216112
-3588.6285231113434,668.0,-1020.0,17156.0,-671.0,-2920.0,1484.0,0.4147788243984782,0.3501458562585101,0.8398482362190114,0.0033684262537417857
-3588.6441049575806,756.0,-588.0,16516.0,-975.0,-3060.0,1210.0,0.6404912967752631,0.38742145994406907,0.6626432426088552,0.024071646282916012
-3588.659721136093,736.0,-1084.0,16252.0,-956.0,-2812.0,865.0,0.8049024773179579,0.37638068239996986,0.45768661844767333,0.03150465390194532
-3588.675315618515,484.0,-1428.0,15644.0,-770.0,-2488.0,771.0,0.9025347217254713,0.35010835652869987,0.24842624391935797,0.03375820049733667
-3588.690901517868,600.0,-1684.0,15708.0,-566.0,-2441.0,733.0,0.9464076728545847,0.3202082729142959,0.03114082801595401,0.028450440237261416
-3588.7064826488495,656.0,-1584.0,16108.0,-465.0,-2378.0,853.0,0.9404707972584023,0.2827415769197389,-0.18571269950026564,0.032904003242893935
-3588.72207736969,800.0,-1928.0,16540.0,-258.0,-2446.0,1011.0,0.8809717917732042,0.24545032017563675,-0.40142150152737643,0.05003619227213727
-3588.7376794815063,872.0,-1732.0,16688.0,-431.0,-2377.0,1098.0,0.7815601531773068,0.17934685005466372,-0.5937589946950023,0.06669850492863225
-3588.7533490657806,756.0,-1440.0,16712.0,-5.0,-2373.0,992.0,0.6371406214473107,0.13792486912785323,-0.7523782251350515,0.09463384870345934
-3588.7689650058746,804.0,-1064.0,16736.0,34.0,-2385.0,777.0,0.4628154427627288,0.10595811078236907,-0.873346774839068,0.10881247896252043
-3588.784567832947,1028.0,-644.0,16556.0,366.0,-2309.0,602.0,0.2717906044631492,0.0946970417653714,-0.9478793073164756,0.13670097427480857
-3588.8001537323,1324.0,-480.0,16520.0,586.0,-2158.0,375.0,0.08236086626472876,0.10135598670883275,-0.9762389607992501,0.17291946993905155
-3588.815770149231,1420.0,-636.0,16448.0,687.0,-1953.0,282.0,-0.09285870638982567,0.1099303059279701,-0.9664552536546311,0.2127365299368059
-3588.8314237594604,1528.0,-1004.0,16672.0,758.0,-1626.0,383.0,-0.2413578675505044,0.10039124352450503,-0.9309990657821128,0.25477189308852377
-3588.8470191955566,1428.0,-1160.0,16496.0,744.0,-1306.0,708.0,-0.365965207900171,0.05564013251330964,-0.8838652334304272,0.2859298714605776
-3588.862646341324,1388.0,-1508.0,17316.0,599.0,-1143.0,939.0,-0.47595297762813776,-0.007342363214529136,-0.8289089416482645,0.2938108562406932
-3588.8782398700714,1276.0,-1616.0,17140.0,496.0,-1148.0,1279.0,-0.5844854422807172,-0.08995395987917852,-0.7584150986156986,0.27402844935464266
-3588.893823862076,1152.0,-1368.0,17084.0,538.0,-1037.0,1037.0,-0.6676174834036421,-0.15975383667742502,-0.6781304382433762,0.2624970785522707
-3588.9094111919403,1064.0,-1108.0,16936.0,731.0,-1014.0,1200.0,-0.7366485992691691,-0.24730654748889574,-0.5788589288861192,0.2472056900896672
-3588.9250824451447,1108.0,-952.0,16956.0,876.0,-578.0,1032.0,-0.7630352851455514,-0.3404507087006122,-0.4963086653891286,0.235686608078949
-3588.940726995468,1120.0,-752.0,16944.0,896.0,-418.0,882.0,-0.7676462692823701,-0.42681169476571557,-0.4209001531810349,0.22670254414156385
-3588.9563760757446,1124.0,-736.0,17144.0,741.0,-264.0,995.0,-0.7648595537275051,-0.5046121628098003,-0.34924227606557157,0.19592412006875573
-3588.972050666809,1164.0,-772.0,16764.0,635.0,-152.0,712.0,-0.7511410467413034,-0.5640025973651523,-0.2957437046783804,0.1738501055761766
-3588.9876606464386,1312.0,-728.0,16724.0,752.0,-77.0,761.0,-0.7245945232059073,-0.6289289346250838,-0.24070269246659443,0.14653800179712115
-3589.003296852112,1444.0,-780.0,16696.0,285.0,-38.0,614.0,-0.7164511358308456,-0.6581162742993422,-0.20054852500103032,0.11558991560233577
-3589.018885374069,1468.0,-952.0,16492.0,191.0,84.0,322.0,-0.7069641033233175,-0.6760672357789088,-0.18523588426547602,0.09392825186763631
-3589.0344982147217,1180.0,-1212.0,16936.0,232.0,26.0,59.0,-0.6932852610796739,-0.6913028294502016,-0.1813859585720574,0.09249366895485152
-3589.0500943660736,1368.0,-1376.0,16008.0,239.0,-25.0,238.0,-0.6809835512178425,-0.7089337950052023,-0.1634813125223381,0.08335549007852935
-3589.065710067749,1140.0,-1580.0,16176.0,511.0,-215.0,31.0,-0.6519887015048375,-0.7372375351743902,-0.14487106715378467,0.10199962618436105
-3589.0813522338867,1448.0,-1660.0,16168.0,178.0,-446.0,73.0,-0.6463360834647788,-0.7435724982338017,-0.11308301997821087,0.1286928035064938
-3589.0969285964966,1776.0,-1464.0,16132.0,156.0,-681.0,117.0,-0.6431112589691581,-0.7443761268161797,-0.06517079306597945,0.16752569398274025
-3589.112521648407,1508.0,-1324.0,16252.0,128.0,-525.0,47.0,-0.6378463760200801,-0.7432349530636531,-0.030724923991425183,0.19952389377776544
-3589.128109931946,1460.0,-1100.0,16304.0,63.0,-810.0,-169.0,-0.6314255791084444,-0.7301807432248705,0.004505303718236307,0.2609933380558737
-3589.1437196731567,1760.0,-992.0,16552.0,82.0,-754.0,-309.0,-0.6173786425174992,-0.7157241589322489,0.028172112733876615,0.3252520132882876
-3589.159341573715,1596.0,-1084.0,16584.0,-21.0,-645.0,-404.0,-0.6043890782315978,-0.6956393855959626,0.0370158145315454,0.3865611423780168
-3589.1749522686005,1620.0,-1216.0,16696.0,-42.0,-272.0,-508.0,-0.58825737561802,-0.6849110745871387,0.019076319855622432,0.42951853738768525
-3589.1906321048737,1772.0,-1368.0,16476.0,-17.0,-376.0,-765.0,-0.5585030200816945,-0.6692543798310068,-0.007967239050579281,0.49000966800518503
-3589.2062401771545,1512.0,-1308.0,16580.0,66.0,-143.0,-598.0,-0.5284764777951875,-0.664857184821313,-0.03305677233899473,0.5268631568170232
-3589.2218449115753,2024.0,-1720.0,16652.0,171.0,-48.0,-102.0,-0.5139902926483866,-0.6700238194481021,-0.0288869150168945,0.5348341860578938
-3589.23744225502,1640.0,-1916.0,16980.0,276.0,114.0,85.0,-0.501415122998406,-0.6875814385841953,-0.016136378044637363,0.5249326214349633
-3589.253043651581,1704.0,-1804.0,17080.0,414.0,306.0,288.0,-0.488756487908126,-0.7190756683259254,0.006719052999979576,0.4939657205476113
-3589.268713951111,1748.0,-1608.0,16976.0,469.0,569.0,356.0,-0.4738655343732749,-0.7613820204414068,0.02494827618236658,0.4417312053695324
-3589.2843012809753,1728.0,-1412.0,16844.0,429.0,668.0,374.0,-0.45995359974923766,-0.8016507451594481,0.03860237703270117,0.3798797511719263
-3589.2999017238617,1436.0,-1060.0,16836.0,330.0,659.0,323.0,-0.4487578294506525,-0.8335520261812227,0.045576231466375454,0.31895177892785087
-3589.3154797554016,1324.0,-1244.0,16368.0,325.0,682.0,244.0,-0.43364515191732306,-0.862185194246634,0.045552698053045584,0.25790216117858356
-3589.3311076164246,1400.0,-1184.0,16388.0,324.0,647.0,117.0,-0.4136872105013054,-0.8866985938628112,0.03708513259865309,0.20310880938428622
-3589.346690893173,1352.0,-1180.0,16224.0,320.0,519.0,6.0,-0.39021524098266674,-0.9061226280298808,0.024446960353748715,0.16148125218279596
-3589.362270116806,1368.0,-1096.0,16196.0,298.0,326.0,-80.0,-0.36599003085079457,-0.9203070407590866,0.011207831614181448,0.13769761275198428
-3589.377883911133,1340.0,-1196.0,16012.0,268.0,192.0,-194.0,-0.3421792922547145,-0.9308260356208852,-0.007284811098451808,0.12815285751643996
-3589.3935170173645,1344.0,-1128.0,15960.0,210.0,25.0,-289.0,-0.3217600849061513,-0.9367177071810804,-0.02914920416891409,0.1348358584017058
-3589.409149646759,1372.0,-1204.0,16024.0,143.0,-54.0,-326.0,-0.306262695445291,-0.9387879552230598,-0.05257853684595181,0.14871393334126537
-3589.4247579574585,1400.0,-1128.0,16068.0,89.0,-168.0,-365.0,-0.2948558564161324,-0.9366898133972562,-0.07679211813338574,0.1725548840442093
-3589.440360546112,1344.0,-1528.0,16224.0,97.0,-327.0,-296.0,-0.28447708758633494,-0.9315359007069142,-0.09104505366900938,0.20742336062980476
-3589.4559893608093,1284.0,-1456.0,16460.0,167.0,-445.0,-330.0,-0.26815539260610194,-0.9238060937174617,-0.10367136916064351,0.25283835516612047
-3589.471606016159,1552.0,-1372.0,16628.0,119.0,-424.0,-287.0,-0.25582866367454377,-0.9136536587544374,-0.11414192551506995,0.29455102703409364
-3589.4872567653656,1472.0,-1320.0,16772.0,77.0,-399.0,-240.0,-0.2473165171263658,-0.9019329686910128,-0.12228690140706405,0.3322610029614666
-3589.502854824066,1424.0,-1272.0,16432.0,90.0,-288.0,-506.0,-0.22835970100215452,-0.8889186115997606,-0.1530930206684547,0.3663851469865673
-3589.5184395313263,1380.0,-1144.0,16640.0,70.0,-511.0,-273.0,-0.22076909555142551,-0.8691630056854963,-0.16163804330528905,0.4119342410550462
-3589.5340156555176,1424.0,-1148.0,16548.0,63.0,-203.0,-280.0,-0.20871511632899178,-0.8586856661320399,-0.17661678878601825,0.43347830039583923
-3589.5496039390564,1440.0,-1180.0,16608.0,36.0,-131.0,-322.0,-0.19578700116159983,-0.8489861513978257,-0.19690713354338968,0.4495748499088682
-3589.5652322769165,1460.0,-1220.0,16592.0,100.0,-104.0,-206.0,-0.18205884483255744,-0.8428293609863452,-0.20641591450367663,0.4624778000263304
-3589.580857515335,1408.0,-1488.0,16616.0,120.0,-103.0,-179.0,-0.16784291861906672,-0.8371288825088011,-0.21305162218822934,0.47502946753013453
-3589.5964953899384,1508.0,-1232.0,16520.0,150.0,-35.0,-128.0,-0.15222017709976124,-0.8353244271815734,-0.2156322581748594,0.4822497778868378
-3589.6120977401733,1560.0,-1168.0,16496.0,214.0,70.0,-132.0,-0.12972397159011187,-0.8383702741924483,-0.21711511567005398,0.4828747260863277
-3589.6277227401733,1604.0,-1116.0,16472.0,282.0,177.0,-125.0,-0.10042701439363978,-0.8462071820273418,-0.21626952297540697,0.47652420011717633
-3589.643321752548,1592.0,-1092.0,16576.0,279.0,255.0,-184.0,-0.06731275989554181,-0.8551731134475873,-0.22033668700215234,0.4643271290292231
-3589.658913373947,1624.0,-1224.0,16648.0,340.0,2.0,-128.0,-0.03668850888764342,-0.8543237551699681,-0.21600857520528138,0.4713015702346745
-3589.674527645111,1688.0,-1264.0,16624.0,469.0,375.0,-73.0,0.008354039007225908,-0.8686316530325136,-0.20307069314668494,0.4518534662555921
-3589.690161705017,1636.0,-1168.0,16628.0,539.0,494.0,-32.0,0.05913292398088058,-0.8853198086795665,-0.18349897382808245,0.4231314928779089
-3589.7058012485504,1564.0,-1124.0,16784.0,721.0,605.0,75.0,0.1213809404135185,-0.9020585388036929,-0.14744599728259256,0.38706167177985734
-3589.721391439438,1568.0,-800.0,16784.0,817.0,646.0,197.0,0.18660224693202343,-0.913834273094183,-0.09706742269875826,0.34736787158424276
-3589.736986875534,1696.0,-1244.0,16756.0,912.0,793.0,338.0,0.25434137603044377,-0.9203567352612582,-0.029357824111496424,0.2956214851150327
-3589.7525668144226,1508.0,-1212.0,16740.0,1058.0,923.0,591.0,0.3236557132238368,-0.9141261125108746,0.0653417699854253,0.23526768332794293
-3589.768172264099,1588.0,-1296.0,16816.0,1235.0,966.0,796.0,0.3957703506251907,-0.8841468643650788,0.179409503092454,0.17164609520618687
-3589.7838022708893,1624.0,-1256.0,17020.0,1454.0,1099.0,1007.0,0.4680868396984378,-0.8211192685061076,0.31176455209867204,0.09726624000051604
-3589.79941034317,1296.0,-1096.0,17172.0,1480.0,1182.0,1255.0,0.5212675580070615,-0.722412117143399,0.4537259268852996,0.02310084946105591
-3589.814994573593,1392.0,-1116.0,16792.0,1461.0,1313.0,1506.0,0.5458447291966371,-0.5853802050950353,0.5975663177976197,-0.04793790697286168
-3589.830636024475,1404.0,-1216.0,16544.0,1486.0,1384.0,1578.0,0.5427628402660479,-0.41607704195856143,0.7199645842124802,-0.11806520173656762
-3589.8462092876434,1752.0,-1028.0,16144.0,1329.0,1366.0,2004.0,0.5112310378159642,-0.2071112040271456,0.8201632934274314,-0.15192085852280895
-3589.8618535995483,1600.0,-896.0,16244.0,1127.0,1489.0,2233.0,0.44068705979040396,0.022107642956222667,0.883904022734146,-0.1549833734650372
-3589.877428293228,1632.0,-612.0,16612.0,840.0,1593.0,2408.0,0.3373659302811522,0.2531960139284965,0.8987011172045564,-0.1200512788417338
-3589.8930394649506,1580.0,-956.0,16444.0,449.0,1561.0,2402.0,0.22316086865890838,0.45680902457339057,0.8597499161550421,-0.0485265230477815
-3589.908710002899,1696.0,-864.0,16388.0,251.0,1451.0,2272.0,0.11084954655201097,0.6212464685759379,0.7749977586644774,0.03381829942762002
-3589.924425125122,1644.0,-616.0,15988.0,-368.0,1189.0,2113.0,0.04316056349767381,0.7403520911977371,0.6559606937177402,0.14046891156067814
-3589.9400753974915,1684.0,-316.0,15652.0,-757.0,907.0,1638.0,0.019757552296187728,0.8077121769228859,0.5359619378050807,0.24485808053233396
-3589.9556727409363,1756.0,-140.0,15620.0,-1188.0,711.0,1275.0,0.042432241991192644,0.8388581097866132,0.41630378579628086,0.3481490117988496
-3589.9713129997253,1584.0,-172.0,15772.0,-1572.0,466.0,825.0,0.11408445401814973,0.8381377666986871,0.3059248756115289,0.43694369416068757
-3589.9869072437286,1532.0,-276.0,16096.0,-1870.0,41.0,536.0,0.22613576107161465,0.8204720896071422,0.19300807405461018,0.48829914098837096
-3590.0024979114532,1396.0,-652.0,16204.0,-2087.0,-245.0,207.0,0.36479640857112583,0.7800055421198064,0.08297042349813752,0.5016281923701406
-3590.018090248108,1324.0,-716.0,16440.0,-2154.0,-581.0,-53.0,0.5084758517392172,0.7228008327858795,-0.025773271884709504,0.4672761525891018
-3590.0336894989014,1048.0,-820.0,16328.0,-2184.0,-781.0,-350.0,0.6454648826892722,0.6450164003630006,-0.12485266317326663,0.3895391392096877
-3590.0493466854095,1328.0,-616.0,16480.0,-2072.0,-692.0,-673.0,0.7625159889018793,0.5481990057886393,-0.19259215463039128,0.28452676270635746
-3590.064971446991,556.0,-448.0,16460.0,-1794.0,-341.0,-1182.0,0.8567641463513076,0.4489528740270313,-0.1996684596881498,0.1566174340089416
-3590.080577135086,368.0,-156.0,16012.0,-1829.0,21.0,-1790.0,0.9304222179089994,0.3346465678725113,-0.14920079723803906,-0.008080416819730134
-3590.096164703369,-76.0,112.0,15404.0,-1298.0,92.0,-2366.0,0.9421215099585579,0.25295446735748667,-0.06969239979612396,-0.20872006929846104
-3590.1117947101593,-276.0,-224.0,14728.0,-582.0,-93.0,-2985.0,0.8699347197967432,0.21387696675576462,-0.0007259614481889035,-0.4443756286785891
-3590.127417564392,-396.0,-720.0,14148.0,246.0,-564.0,-3429.0,0.7006939075064432,0.20149520110625618,0.010477866389659751,-0.6843375966804849
-3590.143023252487,-76.0,-1468.0,14120.0,822.0,-1218.0,-3656.0,0.4435276428598512,0.16584230372917752,-0.04612219407005306,-0.8795750698645045
-3590.158654689789,648.0,-1708.0,15232.0,848.0,-1819.0,-3514.0,0.145390574478981,0.06873068964102211,-0.1231923056699407,-0.979265709078933
-3590.174257993698,1168.0,-1772.0,16696.0,430.0,-2007.0,-3310.0,-0.15304472479922335,-0.05863014518628801,-0.1564957932488701,-0.9739860804867653
-3590.189845085144,2144.0,-1868.0,17904.0,244.0,-1882.0,-3022.0,-0.4147327859226673,-0.17241807034030576,-0.15968933606791202,-0.87907226167542
-3590.20543217659,3028.0,-2080.0,17936.0,-167.0,-1642.0,-2756.0,-0.6273990608467483,-0.2443958500530264,-0.12387423842019958,-0.728900720250222
-3590.221028804779,3336.0,-2916.0,18060.0,-237.0,-1496.0,-2359.0,-0.7758505320968428,-0.2922807147137331,-0.07478250511269946,-0.5541078528414338
-3590.2366456985474,3192.0,-3984.0,18624.0,-673.0,-1294.0,-1562.0,-0.8621821754144016,-0.2938010264318084,0.005595423112984952,-0.41266396075438033
-3590.2522671222687,2884.0,-4380.0,18960.0,-1029.0,-859.0,-659.0,-0.9042760740055998,-0.24529071214303594,0.08972528038103142,-0.3377375054356957
-3590.2679574489594,2480.0,-4960.0,18764.0,-1779.0,-368.0,210.0,-0.9216419172629599,-0.11237655509775646,0.17352345791087836,-0.32838589458572714
-3590.283574104309,2476.0,-4424.0,18208.0,-2006.0,371.0,987.0,-0.9011761237350115,0.07342443949039593,0.20674108837494062,-0.3738295976417669
-3590.299145936966,1988.0,-3632.0,16884.0,-1909.0,732.0,1284.0,-0.8418194893239829,0.2648109892522682,0.19856565666764533,-0.42636459439978197
-3590.31476688385,1860.0,-2640.0,15216.0,-1761.0,757.0,1500.0,-0.7419771508953027,0.4383743460183181,0.16991016579828735,-0.47794181221221843
-3590.3303360939026,1768.0,-2012.0,14832.0,-1614.0,411.0,935.0,-0.6386160823531993,0.5659269563747862,0.17243630262644227,-0.49209948277227933
-3590.3459842205048,1816.0,-2040.0,14204.0,-1398.0,250.0,682.0,-0.5390629138824545,0.6585275649737501,0.1831244769133358,-0.4921565269317456
-3590.3615894317627,1696.0,-1860.0,14552.0,-1108.0,-497.0,294.0,-0.4522101080476007,0.6898142549423346,0.23580330071746586,-0.5138668263555041
-3590.3772089481354,1608.0,-2216.0,14720.0,-863.0,-1000.0,153.0,-0.3703942018061093,0.6775284090917587,0.3027285179515185,-0.558675965619502
-3590.3927838802338,1556.0,-2896.0,14828.0,-460.0,-1294.0,45.0,-0.3046882969578214,0.6259024885523247,0.3617228979124718,-0.6201351962650989
-3590.4083817005157,1820.0,-3212.0,14980.0,99.0,-1381.0,133.0,-0.2574659572844401,0.5485780867654952,0.38297939152039,-0.6972088275624366
-3590.4240090847015,2120.0,-3216.0,15076.0,423.0,-1412.0,398.0,-0.204545657119358,0.4622323185677046,0.3666183779330927,-0.7810847090980864
-3590.439609527588,2364.0,-3760.0,15112.0,336.0,-1293.0,806.0,-0.12071367986402831,0.3901165554274947,0.33115507922058585,-0.8506312915602617
-3590.4552533626556,2556.0,-3616.0,15496.0,127.0,-1464.0,1213.0,0.007196655576080686,0.31069244804468577,0.2917621269337268,-0.9045956401418414
-3590.470850944519,2696.0,-3312.0,15952.0,-243.0,-1232.0,1440.0,0.1566622017175433,0.24632750823205693,0.2673388277235886,-0.918318933939933
-3590.4864645004272,2740.0,-2764.0,15772.0,66.0,-1085.0,1513.0,0.29790114923499816,0.19281502921932936,0.21178173176739631,-0.9106183436990597
-3590.502064228058,2780.0,-2400.0,15836.0,233.0,-917.0,1510.0,0.42581609508541174,0.15183255553153838,0.14216761267543582,-0.8805770256786973
-3590.5176491737366,3192.0,-2216.0,15268.0,316.0,-698.0,1376.0,0.5310471316625177,0.12554835613663898,0.0729034622922268,-0.8348123378401916
-3590.5332243442535,3268.0,-2516.0,14804.0,79.0,-885.0,1024.0,0.606189915838855,0.07044658720070525,0.014739710718238904,-0.7920566931823743
-3590.5488023757935,2840.0,-3148.0,14852.0,-335.0,-1491.0,1188.0,0.6825990979161138,-0.04844750782165796,-0.0475912767009625,-0.7276306624187511
-3590.564429998398,2652.0,-4172.0,15764.0,-351.0,-1937.0,1535.0,0.752880880055948,-0.19441338446516312,-0.13091133850116274,-0.6150089737872253
-3590.580066204071,2444.0,-4592.0,16356.0,-49.0,-2270.0,1322.0,0.7770121411670501,-0.32605624597478616,-0.24828313137916957,-0.47780220134735696
-3590.5956773757935,2820.0,-3888.0,16884.0,472.0,-2245.0,1230.0,0.7735065102210442,-0.40390731540931435,-0.37548427226698206,-0.3123429533135607
-3590.6113061904907,3448.0,-3180.0,16400.0,827.0,-1940.0,1129.0,0.753734260793197,-0.42861672263849676,-0.4787663900742092,-0.13767756867579045
-3590.6268997192383,3656.0,-2628.0,15868.0,870.0,-1570.0,1047.0,0.7216053013318282,-0.4269481126749687,-0.5443638327155466,0.025867272842803397
-3590.642496109009,3588.0,-2464.0,15676.0,671.0,-1390.0,999.0,0.6698569486846262,-0.42352095149102537,-0.5855916980851685,0.1703057106523083
-3590.6580901145935,3300.0,-2836.0,15972.0,261.0,-1215.0,901.0,0.598769665883758,-0.43232593449211604,-0.613879991700366,0.27878401922084806
-3590.6737093925476,2852.0,-3216.0,16328.0,655.0,-993.0,835.0,0.545685567770929,-0.415280795204419,-0.6133367676940191,0.39190194137763223
-3590.689353942871,2740.0,-3672.0,16432.0,1131.0,-655.0,897.0,0.5161042271292804,-0.3833043361190534,-0.5678326387899517,0.5140820041359743
-3590.7049419879913,2696.0,-4016.0,16912.0,1681.0,-501.0,951.0,0.4974319436226815,-0.3272157178296494,-0.4758811329590327,0.6473240940692816
-3590.7205226421356,3184.0,-4336.0,17192.0,2116.0,209.0,1179.0,0.4891121436404955,-0.28954538668065444,-0.30661377889621566,0.7634924823377975
-3590.7361068725586,3396.0,-3836.0,17280.0,2422.0,281.0,1441.0,0.4483835051599929,-0.23611672290184546,-0.09386162608928066,0.8569662307316479
-3590.7517280578613,3540.0,-3468.0,17248.0,2538.0,789.0,1723.0,0.3646678380819967,-0.20205807286133612,0.15643731732988528,0.8953866588277908
-3590.7673473358154,3620.0,-3628.0,17036.0,2409.0,870.0,2135.0,0.21937480478041743,-0.15751257822071787,0.3935217445267803,0.8787520237896556
-3590.7829406261444,2804.0,-3920.0,17036.0,2339.0,416.0,2536.0,0.040909182817719374,-0.05497389475877644,0.5890898158761759,0.8051568160844264
-3590.798575401306,2140.0,-4256.0,17572.0,2290.0,388.0,3020.0,-0.17110244659065854,0.07710379553497979,0.7266678578106025,0.6608576109191304
-3590.814178466797,2288.0,-3924.0,18228.0,2311.0,313.0,3503.0,-0.38357708996949497,0.23161340536770614,0.7806476311550713,0.43567547839703374
-3590.8298120498657,2136.0,-3160.0,19268.0,2336.0,706.0,3734.0,-0.5786764162495389,0.35502772605226607,0.7177897799772498,0.15448867521911996
-3590.845394849777,1812.0,-2152.0,19964.0,2320.0,1336.0,3374.0,-0.7299801415809781,0.4036058063443052,0.540035093982878,-0.11222051171458182
-3590.860992670059,1644.0,-1324.0,19700.0,2206.0,1785.0,2845.0,-0.8153521942466824,0.3911822139061501,0.28718834314101305,-0.31575327460617586
-3590.876601934433,1564.0,-752.0,19584.0,2011.0,2593.0,1835.0,-0.8537149499534283,0.3471293445201368,-0.014765514930565986,-0.38788398003510116
-3590.892192363739,1756.0,-56.0,19400.0,1928.0,3428.0,807.0,-0.8309383619115627,0.30033081467196887,-0.33963981920103603,-0.3224711361894083
-3590.9078249931335,1844.0,-168.0,18384.0,1695.0,3433.0,530.0,-0.7189975695114155,0.24464737186974805,-0.6159997753582558,-0.20912779641281776
-3590.923493862152,1728.0,-752.0,17460.0,1647.0,3236.0,222.0,-0.5492103679815754,0.17954798650521603,-0.8137831050009253,-0.06235022260199609
-3590.9391083717346,1360.0,-1868.0,16660.0,1808.0,3056.0,355.0,-0.3423859785190606,0.08046568007965568,-0.9315180108745715,0.0925813774964804
-3590.9547107219696,664.0,-2196.0,15908.0,2255.0,2980.0,614.0,-0.1148066154445951,-0.05786283688435438,-0.9557827808374428,0.26448177444295917
-3590.9703285694122,532.0,-1128.0,16524.0,2519.0,2994.0,958.0,0.11847545315608342,-0.2190139013557292,-0.8705172247936278,0.4244952760043437
-3590.986031770706,372.0,348.0,17172.0,2412.0,3268.0,847.0,0.3587514629103913,-0.35683308263593316,-0.6874030839894072,0.5210033964553815
-3591.001624584198,500.0,1004.0,17344.0,2099.0,3688.0,745.0,0.5724467673827782,-0.4712578303195443,-0.42415558844749696,0.5199161400305634
-3591.0172398090363,212.0,1260.0,16860.0,1925.0,4205.0,30.0,0.74741669143159,-0.5256853807179366,-0.11623199542515512,0.3892470849067213
-3591.03288602829,-164.0,772.0,15664.0,1858.0,4220.0,-135.0,0.8164594678616633,-0.5067699618345468,0.20042260475702522,0.19081122247831922
-3591.048502922058,-744.0,872.0,14852.0,1768.0,3891.0,-345.0,0.7796374437678977,-0.4228109868847316,0.4606612837025262,-0.03446022841128586
-3591.064103603363,-824.0,792.0,14756.0,1819.0,3577.0,-426.0,0.6619081566940048,-0.2879504022783587,0.6440287579932578,-0.25335571200850787
-3591.0797622203827,-992.0,672.0,14872.0,1843.0,3260.0,-757.0,0.4822146457240061,-0.144072299313148,0.7328363244088689,-0.4578898662853256
-3591.0953707695007,-1256.0,828.0,14884.0,1941.0,2871.0,-496.0,0.2899800476255632,0.019780385656031293,0.7361736075261985,-0.6112026897063177
-3591.1109676361084,-1528.0,704.0,15196.0,1938.0,2634.0,-419.0,0.0913562281947954,0.17533459726331865,0.672769200024027,-0.7129469980801948
-3591.12664270401,-1308.0,300.0,15220.0,1885.0,2390.0,-45.0,-0.07792535421470997,0.32515792284354,0.5558013670633418,-0.761107617064175
-3591.142231464386,-1456.0,480.0,15388.0,1742.0,2345.0,324.0,-0.21272321603514383,0.4695585671130706,0.4017843708429224,-0.7568572552051954
-3591.157806634903,-1636.0,540.0,15928.0,1539.0,2356.0,756.0,-0.2989848601440263,0.603824283941322,0.2183185130348311,-0.7059329390201784
-3591.173433303833,-1552.0,1508.0,15980.0,1339.0,2427.0,991.0,-0.343615516192793,0.7140154243036108,0.019536175900842067,-0.6096955705261985
-3591.1890065670013,-1440.0,1168.0,15784.0,1261.0,2166.0,1369.0,-0.3426049754042296,0.7701418820132603,-0.19201258826105885,-0.502627574200451
-3591.2045855522156,-1552.0,748.0,15596.0,1225.0,1774.0,1238.0,-0.333203086200521,0.7725444250071131,-0.3733463961320649,-0.3908494380603309
-3591.22017455101,-1972.0,536.0,15584.0,1331.0,1418.0,1272.0,-0.32675074238190654,0.7259266039449421,-0.5348754963225278,-0.2831478791578096
-3591.2358243465424,-2224.0,520.0,15756.0,1330.0,1192.0,1280.0,-0.31799774373220685,0.6458860768974821,-0.6706209369816822,-0.1788188176144111
-3591.251451253891,-2552.0,1400.0,16552.0,1301.0,1042.0,1063.0,-0.3092417678184923,0.5555753878870399,-0.7684176147734532,-0.07238706180344433
-3591.267102956772,-2096.0,1680.0,16432.0,1139.0,1258.0,771.0,-0.27170563448877294,0.47480271345901787,-0.8359641861548524,0.04361548974232029
-3591.282704114914,-1744.0,2284.0,16836.0,1079.0,1465.0,628.0,-0.20902648976858704,0.39229624132197805,-0.8802870137580575,0.1658504116021204
-3591.2982919216156,-1456.0,1748.0,16604.0,1279.0,1436.0,633.0,-0.14936478123100524,0.2949474659768551,-0.8957594752844252,0.29717186421297864
-3591.313896894455,-1564.0,1124.0,16364.0,935.0,1401.0,616.0,-0.07893574971431697,0.19584909864381442,-0.8947150055510992,0.39356998973389806
-3591.329536676407,-1856.0,876.0,16272.0,1002.0,1453.0,615.0,-0.003683720697372741,0.08979298054843356,-0.8692917758643793,0.48606116822947915
-3591.3451590538025,-2224.0,692.0,15916.0,836.0,1255.0,509.0,0.06278491430656978,-0.002339403670872904,-0.8301939210990104,0.5539229505050602
-3591.360740184784,-1696.0,1376.0,15972.0,990.0,1154.0,640.0,0.11449015953427026,-0.09808846881745742,-0.7678846219518827,0.622594461125923
-3591.3763790130615,-1864.0,1228.0,16476.0,899.0,1047.0,733.0,0.15113744689023006,-0.19334666578094548,-0.6957591922078699,0.6750508761842671
-3591.391984462738,-1776.0,1172.0,16884.0,995.0,1150.0,1019.0,0.17551146015688016,-0.30597295854241213,-0.5970792152219613,0.7204669921268636
-3591.407574415207,-2044.0,1416.0,16692.0,1005.0,1144.0,712.0,0.21490798105248196,-0.39535585434360926,-0.4919467139612848,0.7453165359354873
-3591.4231424331665,-2112.0,1508.0,16432.0,935.0,771.0,606.0,0.23920233471233662,-0.4507865667689954,-0.39288081566255817,0.7649956725192062
-3591.4387345314026,-2320.0,1824.0,16304.0,810.0,1051.0,451.0,0.27496461603241584,-0.5155854209786833,-0.29677074135796255,0.7553100427494827
-3591.4543368816376,-2288.0,2288.0,16176.0,583.0,1057.0,145.0,0.3172595821906551,-0.5717171715889726,-0.2250746661624722,0.7223760986289399
-3591.4700248241425,-2388.0,2520.0,15900.0,590.0,1073.0,-332.0,0.38638071291030557,-0.6126551146894941,-0.17358451074824924,0.6672571264243027
-3591.4856326580048,-2220.0,2672.0,16072.0,797.0,1199.0,-515.0,0.4730086060814619,-0.6420002244563799,-0.1131996504243267,0.5926925084009753
-3591.5012397766113,-2168.0,2572.0,16204.0,1007.0,1385.0,-1009.0,0.5866182748640083,-0.6522492825459971,-0.05952456932057292,0.47634724588372224
-3591.5168657302856,-2044.0,2212.0,16188.0,1205.0,1430.0,-1069.0,0.6949969561054263,-0.6332355067980427,0.0029237589412413174,0.3405634677531805
-3591.5325009822845,-1984.0,1928.0,16524.0,1518.0,1396.0,-997.0,0.7925799624913717,-0.5714504407764054,0.0761446932187266,0.19865392643553131
-3591.548089981079,-2248.0,1900.0,16668.0,1084.0,1294.0,-326.0,0.8344520008695598,-0.5151321859410064,0.16634673591795898,0.10323493934647042
-3591.563727617264,-2528.0,1680.0,16512.0,816.0,1008.0,-131.0,0.8522872090792446,-0.4635182493972018,0.2396628318761911,0.03631904091176028
-3591.579351425171,-2832.0,1976.0,16372.0,668.0,644.0,-64.0,0.8633048883215448,-0.415658944046924,0.2861144681538663,-0.00841564893226731
-3591.5949335098267,-2576.0,2432.0,15888.0,662.0,287.0,-294.0,0.8780112809249412,-0.37186884521446395,0.29583738224404266,-0.05735848493812626
-3591.6105711460114,-2488.0,2464.0,15568.0,752.0,-133.0,-642.0,0.8993322695038166,-0.3300461012711766,0.2599726807116894,-0.12118269409609872
-3591.6261644363403,-2304.0,1980.0,15952.0,743.0,-500.0,-747.0,0.9195172572393273,-0.29224562458133685,0.1902654105640049,-0.18132727896000614
-3591.6417672634125,-2064.0,1672.0,16164.0,631.0,-474.0,-695.0,0.928660825485068,-0.2593187735850749,0.12389901785644278,-0.23450347172256059
-3591.6573684215546,-2436.0,1820.0,16588.0,522.0,-234.0,-633.0,0.9275537374362034,-0.2277423547607769,0.07965005205863925,-0.2853652978608351
-3591.673002719879,-2568.0,1996.0,16128.0,479.0,-114.0,-544.0,0.9224912824875668,-0.19489698628848007,0.047563250102226284,-0.3297919582249168
-3591.688605070114,-2604.0,2416.0,16152.0,436.0,-66.0,-618.0,0.9104503732136379,-0.1635987874194643,0.019151571503675156,-0.37940581437158827
-3591.7041940689087,-2880.0,2260.0,15632.0,332.0,-119.0,-812.0,0.8859090743585987,-0.1417867111364362,-0.012807179228018382,-0.44147210180760577
-3591.719861268997,-2752.0,2260.0,15828.0,237.0,-190.0,-972.0,0.8478793177679191,-0.12888365953524017,-0.048391584646405,-0.5120038274677465
-3591.735462665558,-2704.0,2000.0,15768.0,99.0,-254.0,-864.0,0.8068352291644895,-0.12856510879846478,-0.08096226059745357,-0.5709054546399734
-3591.751090526581,-2864.0,1892.0,15628.0,-37.0,-318.0,-874.0,0.7581702780685203,-0.14010274343772197,-0.11080995551228781,-0.6271125931554008
-3591.7666788101196,-2924.0,1728.0,15592.0,-151.0,-416.0,-695.0,0.712467860927089,-0.16545520993642918,-0.13805805567179583,-0.6677979439283964
-3591.782271385193,-2816.0,2064.0,15620.0,-282.0,-545.0,-679.0,0.6601990542806129,-0.20566563796251344,-0.16464971806164164,-0.703369976918747
-3591.797871351242,-2900.0,2480.0,16120.0,-394.0,-731.0,-651.0,0.600167422443335,-0.26253525998649774,-0.1933285564494492,-0.7304097285515285
-3591.8134989738464,-2732.0,2392.0,15668.0,-489.0,-818.0,-708.0,0.5272512829770551,-0.3263821132114829,-0.2199435713898026,-0.7530641580761596
-3591.829089641571,-2708.0,2440.0,15748.0,-727.0,-888.0,-715.0,0.4394933041597933,-0.4014952601489144,-0.23169731856772255,-0.7693916715465475
-3591.844707250595,-3020.0,2536.0,15704.0,-843.0,-1145.0,-749.0,0.33327049648591645,-0.4906043885390694,-0.24281664630944266,-0.7676445703535404
-3591.8602957725525,-3076.0,1776.0,15444.0,-882.0,-1328.0,-513.0,0.23056056133174735,-0.5879859765684204,-0.2417012099028153,-0.736678250017459
-3591.875932455063,-2884.0,1792.0,15420.0,-944.0,-1516.0,-677.0,0.1051568422995373,-0.6806854882816566,-0.242875424922699,-0.6830965030864754
-3591.8915185928345,-3052.0,1752.0,15496.0,-777.0,-1604.0,-526.0,-0.006300970272678493,-0.762269433526743,-0.23937848668676864,-0.6013348057413554
-3591.907119035721,-3032.0,1792.0,15988.0,-1242.0,-1520.0,-318.0,-0.1353928043630947,-0.8223756786353023,-0.19163441491989522,-0.5183080963424476
-3591.9228060245514,-3088.0,1884.0,16064.0,-1427.0,-1470.0,-197.0,-0.2670995400366005,-0.8549881419959041,-0.12188632716476887,-0.4275474663811155
-3591.938469648361,-2876.0,2048.0,16176.0,-1596.0,-1472.0,-86.0,-0.3980477322708884,-0.8564813367877028,-0.03381859284629351,-0.3268853397542466
-3591.9540724754333,-2908.0,1948.0,16052.0,-1676.0,-1499.0,-34.0,-0.5189175660402345,-0.8251176892119869,0.062349967712641396,-0.2145176918824697
-3591.9697020053864,-2728.0,1652.0,15688.0,-1653.0,-1416.0,-24.0,-0.6197160525201184,-0.7631663192653578,0.15296214583896042,-0.10065667055982173
-3591.9865429401398,-2832.0,1756.0,15788.0,-1725.0,-1509.0,279.0,-0.6980875124891597,-0.6659116334817771,0.2630148559958128,0.0076620379684873875
-3592.002297639847,-2484.0,1772.0,15432.0,-1746.0,-1477.0,511.0,-0.7505646892283393,-0.5356094486373423,0.37375614857261064,0.10040670902951289
-3592.017984867096,-2560.0,1380.0,15396.0,-1558.0,-1541.0,673.0,-0.7639825931007586,-0.3902421572218491,0.4828629677057282,0.17574131723728256
-3592.0335776805878,-2436.0,1360.0,15520.0,-2012.0,-1907.0,835.0,-0.741729597210849,-0.18570988424287094,0.5889772296757857,0.2616388091231267
-3592.049192428589,-2300.0,1544.0,16016.0,-2219.0,-2177.0,779.0,-0.6583929318529002,0.04598637153474292,0.6661737934392761,0.34729883076960616
-3592.0648000240326,-2240.0,1620.0,16344.0,-2227.0,-2323.0,748.0,-0.5161032031196725,0.2766062538648357,0.7005131566441009,0.4079310988647391
-3592.0804603099823,-2000.0,1476.0,16532.0,-2132.0,-2600.0,237.0,-0.3013719272516423,0.4601965278834555,0.706019446904913,0.44601643218689085
-3592.096091032028,-1896.0,1096.0,16532.0,-2028.0,-2730.0,-81.0,-0.04652426782050362,0.5893847634854243,0.6730547460329788,0.44436291690180324
-3592.1117148399353,-1724.0,472.0,16556.0,-2027.0,-2853.0,230.0,0.20698582675125926,0.6901536064258477,0.5681273906381824,0.3975878960282165
-3592.12730717659,-1500.0,-952.0,15468.0,-2124.0,-3162.0,733.0,0.4417223555067075,0.7556923042190242,0.3723276413298922,0.3085168220558919
-3592.1428949832916,-1312.0,-1580.0,15540.0,-2344.0,-3567.0,1379.0,0.6287259679418806,0.7506456386726215,0.07511549093761835,0.18865960192504996
-3592.158480644226,-1652.0,-1832.0,15608.0,-2528.0,-4175.0,1714.0,0.7232816382479829,0.6305029959569138,-0.2806755452564765,0.023470878927934855
-3592.1741321086884,-1376.0,-1432.0,15732.0,-2485.0,-4801.0,1640.0,0.6629369950762449,0.39746590889791356,-0.6090698742612798,-0.17767746084009337
-3592.189712524414,-1040.0,-936.0,16140.0,-2233.0,-5341.0,1165.0,0.42186919966211717,0.10970002045131169,-0.8211963503037732,-0.3682782075241333
-3592.2053620815277,-784.0,-1104.0,17316.0,-1803.0,-5585.0,751.0,0.05595649862929734,-0.16889679377911013,-0.867220690572672,-0.4650494781794128
-3592.220970392227,-596.0,-1048.0,18576.0,-1209.0,-5327.0,-68.0,-0.33206939076160175,-0.34832398374622026,-0.7628289234152325,-0.4318476069952674
-3592.236567258835,-12.0,-852.0,19404.0,-1030.0,-4911.0,-383.0,-0.6453641869182544,-0.4376931383799447,-0.543131765391671,-0.31134814642291064
-3592.2521600723267,980.0,-896.0,20008.0,-1144.0,-4232.0,-496.0,-0.8429111074062052,-0.4336233473834211,-0.27294473108461687,-0.16423407499172618
-3592.26780462265,1844.0,-832.0,20676.0,-1400.0,-3153.0,-796.0,-0.9386918170211012,-0.3407895778489743,-0.04863763721794316,-0.01882860942813869
-3592.2834384441376,2364.0,-368.0,21032.0,-1859.0,-2134.0,-1267.0,-0.9702638498461842,-0.17988611748403494,0.08846143222631539,0.13565994776149082
-3592.299073457718,2640.0,-596.0,20896.0,-2391.0,-1142.0,-1942.0,-0.9381991787127782,0.020583699997906758,0.12143050916183981,0.32343970659422877
-3592.314680337906,2592.0,-1684.0,20064.0,-2672.0,-222.0,-2627.0,-0.814320411724841,0.20710434598423672,0.06520791189506522,0.5382731510571678
-3592.3302795886993,2712.0,-3016.0,19232.0,-2531.0,119.0,-3310.0,-0.5768368347788074,0.3404716381186572,-0.00230351884642197,0.7425180290606345
-3592.3459231853485,2380.0,-3952.0,18340.0,-1952.0,87.0,-3833.0,-0.25321128207323806,0.40596405755877996,-0.018098125761886543,0.8779235094500807
-3592.3615283966064,2396.0,-4856.0,18624.0,-1114.0,186.0,-3115.0,0.02420561723995756,0.4044588066612248,0.0026311459542173554,0.9142320487049107
-3592.3771862983704,2456.0,-4356.0,19248.0,-738.0,552.0,-2642.0,0.2534781095437909,0.3478013552433887,0.037010714931432154,0.9018942688881176
-3592.3927943706512,2604.0,-3520.0,19660.0,-811.0,1353.0,-2311.0,0.4426238665447807,0.20949456455884377,0.07105968350937764,0.8689917499981203
-3592.4083919525146,3376.0,-2864.0,19192.0,-981.0,2475.0,-2075.0,0.5780047716332688,-0.027994083250410355,0.12468606065692323,0.8059653848336166
-3592.424059152603,3196.0,-2512.0,17924.0,-1218.0,3118.0,-1757.0,0.6312631977940372,-0.31130195398327287,0.1820537449827165,0.6866252999233359
-3592.439644575119,2592.0,-2720.0,16648.0,-1403.0,3490.0,-1543.0,0.59398659959858,-0.5863292900020893,0.23389503470699055,0.4986892779300331
-3592.455271959305,1892.0,-2924.0,15252.0,-1414.0,3634.0,-1500.0,0.4817983514857393,-0.7970398585963817,0.266742832746069,0.24788318517577285
-3592.470863342285,1652.0,-2836.0,14400.0,-1184.0,3764.0,-1216.0,0.318148356671831,-0.8999041958398404,0.29615165830711926,-0.03533067702163485
-3592.4864909648895,1484.0,-3004.0,14136.0,-1057.0,3795.0,-1063.0,0.12603330210618766,-0.8902351995882183,0.30266696282911926,-0.3162113308945967
-3592.5020849704742,1252.0,-2808.0,14752.0,-899.0,4019.0,-1077.0,-0.07472031951852805,-0.7664051576636153,0.2699583714618099,-0.5780678903341246
-3592.5176775455475,1224.0,-1836.0,14652.0,-834.0,3896.0,-1194.0,-0.2656068519457763,-0.5568501336410577,0.1943159349093525,-0.7626350675806186
-3592.533301115036,1316.0,-1800.0,14656.0,-749.0,3831.0,-1548.0,-0.44132842973693603,-0.29157182839356605,0.07518450842035722,-0.8453179139748266
-3592.5489132404327,1496.0,-1404.0,14992.0,-624.0,3629.0,-1927.0,-0.5858240275033374,-0.011432859473729007,-0.06355654045207373,-0.8078614142845212
-3592.564553499222,1608.0,-1552.0,15276.0,-280.0,3256.0,-2381.0,-0.6940109161644499,0.23165183244631682,-0.20023653247282328,-0.6516069427439403
-3592.5801515579224,1476.0,-1940.0,15168.0,-39.0,3056.0,-2943.0,-0.7570650377651506,0.43054620564731577,-0.3033078110947829,-0.38663531282753016
-3592.5957844257355,1088.0,-2060.0,15144.0,202.0,2382.0,-3252.0,-0.765359819661532,0.550414726254994,-0.32558786180165883,-0.07252944103418385
-3592.6114180088043,1156.0,-2172.0,15252.0,247.0,2186.0,-3490.0,-0.6937018783448545,0.608583500056808,-0.2873670129691467,0.2565619365701313
-3592.627016067505,872.0,-2384.0,14952.0,351.0,2096.0,-3670.0,-0.5417483172281891,0.5930073601154022,-0.1982517493106192,0.5617359482218193
-3592.6426384449005,1012.0,-2352.0,14904.0,477.0,1976.0,-3444.0,-0.3431373440235621,0.5032316025041808,-0.0849586550022285,0.7885408957801378
-3592.658230781555,984.0,-3020.0,14692.0,580.0,1900.0,-3051.0,-0.13779068029782485,0.35977888900386135,0.030565487758270216,0.9223007266658251
-3592.673837661743,864.0,-3088.0,15124.0,554.0,1751.0,-2726.0,0.05723541540672381,0.19671597877719177,0.13419593533415533,0.9695454511557167
-3592.6894261837006,828.0,-3120.0,15368.0,633.0,1602.0,-2313.0,0.2165565759509904,0.03593430292601331,0.22812465557597955,0.9485626583436357
-3592.7050070762634,640.0,-3088.0,15744.0,692.0,1513.0,-2497.0,0.3782526822766598,-0.12188847477231364,0.3110732946040533,0.8633084694663727
-3592.720599412918,128.0,-2952.0,16600.0,776.0,1403.0,-2552.0,0.5229846026923695,-0.2623090567053256,0.37569810484789345,0.7187016057660982
-3592.7361867427826,72.0,-2768.0,16616.0,879.0,1420.0,-2507.0,0.632411992950341,-0.3804704672731886,0.4236864796654113,0.5251543217514545
-3592.7518558502197,-28.0,-2540.0,16684.0,1041.0,1462.0,-2536.0,0.7038508508747972,-0.46687125960959935,0.45145632340789016,0.28777142792223226
-3592.767464160919,312.0,-2196.0,16412.0,1189.0,1499.0,-2538.0,0.7295428656101485,-0.5120728144717501,0.4527885036166669,0.023048013122465454
-3592.7830979824066,4.0,-2360.0,16556.0,1161.0,1776.0,-2436.0,0.68937017048549,-0.5177214633338486,0.4420126776490987,-0.2477055656333525
-3592.79870057106,-260.0,-2652.0,16596.0,1266.0,1563.0,-2350.0,0.6135879118527816,-0.4810921334661063,0.38849192203427313,-0.49105423331775633
-3592.814296245575,-732.0,-2832.0,16032.0,983.0,1667.0,-2136.0,0.4915470221414578,-0.4163244668912424,0.3353973040499598,-0.6874329870813641
-3592.829926252365,-656.0,-3408.0,15712.0,883.0,1552.0,-1778.0,0.3629041388580102,-0.32933200210624425,0.27765245996285703,-0.8262869537061523
-3592.84552693367,-560.0,-3532.0,15568.0,872.0,1516.0,-1399.0,0.24573257999572867,-0.22187665805859674,0.21832173852475076,-0.9179988378124024
-3592.861175775528,-328.0,-3164.0,15116.0,792.0,826.0,-1147.0,0.15195642915032628,-0.15874765826956744,0.14875304241903442,-0.9641477879479325
-3592.8767940998077,60.0,-2616.0,14552.0,880.0,366.0,-1013.0,0.0736451710722653,-0.12821287230920417,0.06492674869695922,-0.9868750505791514
-3592.8923625946045,428.0,-2140.0,14132.0,925.0,-147.0,-922.0,0.005410172037571204,-0.13892703188177308,-0.025807367968470704,-0.9899515087162526
-3592.907979249954,680.0,-2224.0,14336.0,1033.0,-544.0,-632.0,-0.03761841459874273,-0.18256485494633745,-0.12194949098640014,-0.9748760178964595
-3592.9236328601837,-28.0,-2532.0,15420.0,1163.0,-566.0,-274.0,-0.048093459179226875,-0.2299104814705522,-0.22172835353520204,-0.9463956503137171
-3592.93927693367,-540.0,-3156.0,16456.0,1172.0,-702.0,-255.0,-0.05878737677968445,-0.28564092415307707,-0.3181847486659303,-0.9020597388736172
-3592.954862356186,-556.0,-3320.0,17324.0,1013.0,-1090.0,208.0,-0.047020684563664476,-0.3790800568184196,-0.38371965556595283,-0.8407416914118478
-3592.970486164093,52.0,-3612.0,17496.0,812.0,-1815.0,480.0,-0.04499899434798118,-0.5233290608682789,-0.41331966519470303,-0.7438203001543681
-3592.9861736297607,-48.0,-3116.0,16696.0,628.0,-2773.0,436.0,-0.08539372635087158,-0.6997951262275193,-0.4104734843131777,-0.5783651195256523
-3593.0017986297607,68.0,-2116.0,15284.0,717.0,-2635.0,-23.0,-0.13343786968470497,-0.8144955661580245,-0.416730002952167,-0.38095591908042775
-3593.01739859581,404.0,-1244.0,13600.0,1278.0,-2313.0,-725.0,-0.14670075266232352,-0.8557746796267849,-0.47055246601189027,-0.15719085090459428
-3593.032973766327,692.0,-1488.0,13104.0,1554.0,-1999.0,-451.0,-0.11603683349428094,-0.8630963788814708,-0.4878242602009828,0.06022943793260006
-3593.048576116562,572.0,-2188.0,13372.0,2103.0,-2137.0,209.0,-0.04806913315913621,-0.8531825418594691,-0.42498889236449067,0.2985855824890881
-3593.0641629695892,584.0,-2684.0,14992.0,1891.0,-2142.0,815.0,-0.007678624941391133,-0.8087349714500639,-0.2962041255041808,0.5080865090779102
-3593.0798015594482,240.0,-2600.0,16244.0,1388.0,-2352.0,1710.0,-0.0446029139198099,-0.7215012934506403,-0.10813646650027148,0.6824609646212381
-3593.095422744751,-436.0,-2180.0,18352.0,445.0,-2963.0,1885.0,-0.1498409945448087,-0.5392382392649426,0.04646456090549465,0.8274121356664564
-3593.1109952926636,64.0,-924.0,20776.0,-940.0,-3222.0,1835.0,-0.2974074320072871,-0.2718573641545879,0.10154975911007802,0.9095768463227478
-3593.1266145706177,988.0,620.0,21748.0,-1829.0,-2545.0,1280.0,-0.40265883802452646,-0.010288522104230334,0.05054647229821859,0.9138955414115194
-3593.1422011852264,1176.0,836.0,19524.0,-1813.0,-1582.0,771.0,-0.44802194090766984,0.1789566580605086,-0.03705109025488247,0.875144600458726
-3593.1578176021576,692.0,40.0,16080.0,-1270.0,-1720.0,295.0,-0.44844000453711463,0.35256258837747556,-0.07008932827102599,0.8183450798225916
-3593.1734099388123,136.0,-940.0,14220.0,-148.0,-2346.0,131.0,-0.45809381019227696,0.5141608944324483,0.007018669711684928,0.7250788743132881
-3593.189024448395,-200.0,-1708.0,14228.0,74.0,-2773.0,279.0,-0.4639242367575885,0.6672514425029901,0.10692082171257751,0.5728156360565546
-3593.2046904563904,-164.0,-1832.0,15244.0,-141.0,-2569.0,645.0,-0.45211604449905457,0.7865378546957084,0.16202516007489598,0.388197286105797
-3593.220288515091,-220.0,-1484.0,16292.0,-435.0,-2789.0,923.0,-0.4009132119157993,0.8820661659297526,0.1877619646034594,0.16116240281651528
-3593.2359046936035,228.0,-76.0,17052.0,-551.0,-3005.0,1014.0,-0.3115029394170209,0.9244229438770405,0.1993745457402462,-0.09304799879165729
-3593.251499414444,712.0,628.0,17504.0,-530.0,-3389.0,731.0,-0.19493011038260807,0.8835331474516553,0.22646716126380206,-0.3606716710382321
-3593.267092227936,992.0,804.0,17648.0,-269.0,-3236.0,233.0,-0.09898179365553306,0.7606754395262291,0.26165979721670435,-0.5857556066712677
-3593.282673597336,1220.0,548.0,17648.0,239.0,-2409.0,-102.0,-0.06364861023480534,0.6193257557686361,0.27100506469521896,-0.7341258186212536
-3593.2982869148254,1188.0,176.0,17800.0,515.0,-1683.0,-225.0,-0.0653263411067204,0.49724375347576233,0.2564104295956712,-0.8262776835795018
-3593.3138751983643,1508.0,-440.0,17292.0,474.0,-1254.0,-316.0,-0.08006247270582131,0.3940284194327761,0.24128298025455175,-0.8832406968561964
-3593.329503297806,1228.0,-804.0,16612.0,297.0,-1114.0,-181.0,-0.08037195071591138,0.30051246275933713,0.23110681307388808,-0.921858042333671
-3593.345093727112,1268.0,-1228.0,16008.0,-63.0,-1342.0,72.0,-0.04556419899867772,0.19288633039240025,0.24192016722923532,-0.9498386178741847
-3593.3607001304626,1268.0,-1524.0,15592.0,-328.0,-1582.0,300.0,0.018026005308609986,0.06846397341109704,0.26744397511713863,-0.9609690253337626
-3593.376285791397,1084.0,-1320.0,15520.0,-557.0,-1782.0,520.0,0.10505921883166627,-0.0688758258392236,0.30368453229607356,-0.9444545441669281
-3593.391897201538,1088.0,-868.0,15848.0,-585.0,-1957.0,575.0,0.19745932704896757,-0.2166132408256475,0.331524940936764,-0.8967606880306773
-3593.40749502182,1224.0,-384.0,16484.0,-666.0,-1999.0,358.0,0.26616301042281476,-0.3677587131546665,0.3497431733525019,-0.8195062498082673
-3593.423095226288,944.0,52.0,16976.0,-691.0,-1988.0,92.0,0.30615573590201184,-0.5144742132520566,0.3499461815985696,-0.7205016441740824
-3593.4386920928955,1324.0,284.0,17300.0,-679.0,-1900.0,-358.0,0.30636615659802474,-0.6526015040414718,0.32062849516971687,-0.6143683122519963
-3593.454288482666,1144.0,96.0,17512.0,-729.0,-1704.0,-855.0,0.2625868969719869,-0.7751344863902111,0.26128873323590407,-0.5118035242465445
-3593.4698696136475,1056.0,-612.0,17260.0,-699.0,-1515.0,-1097.0,0.1978942895042858,-0.8706872778223542,0.18081754935403221,-0.4123669825113242
-3593.485525369644,1244.0,-1220.0,16812.0,-568.0,-1606.0,-1161.0,0.13613037672387462,-0.9414848492207353,0.08392262922020875,-0.29670151925056365
-3593.5011513233185,1496.0,-1928.0,15824.0,-450.0,-1551.0,-1040.0,0.08245333435705308,-0.9809155809167964,-0.008213066476035731,-0.17589376426447825
-3593.516744375229,1284.0,-2276.0,15368.0,-277.0,-1876.0,-785.0,0.04465068646071328,-0.9953017882751467,-0.08335321358502829,-0.02080644707610737
-3593.5323209762573,1928.0,-2320.0,15696.0,-220.0,-1974.0,-474.0,0.01017142583440808,-0.9808358559976604,-0.12978590376120713,0.14495925244950222
-3593.5479266643524,2212.0,-2288.0,16288.0,-333.0,-2161.0,-28.0,-0.041702346989179025,-0.936553848812835,-0.13586423635285919,0.32041958711931734
-3593.563519716263,2096.0,-1888.0,16724.0,-620.0,-2111.0,282.0,-0.12302610851783445,-0.8625513703609992,-0.12023299491199127,0.47582952519343896
-3593.5791330337524,2132.0,-1612.0,17084.0,-520.0,-1930.0,311.0,-0.19238621162931951,-0.7681304925988948,-0.09619704676707065,0.6030830955249799
-3593.5947320461273,2188.0,-1180.0,16804.0,-672.0,-1706.0,190.0,-0.2584676841966588,-0.6600517990317237,-0.08903138073131743,0.6997138644232204
-3593.6103179454803,2052.0,-1116.0,16624.0,-464.0,-1582.0,90.0,-0.2999202618027904,-0.5478675748952474,-0.07569853027844399,0.7772764562575079
-3593.625987291336,2488.0,-1208.0,16184.0,-506.0,-1515.0,-65.0,-0.32658093288586054,-0.427092599618075,-0.07275297887082735,0.8400260767930343
-3593.6415843963623,2056.0,-1500.0,16544.0,-143.0,-1205.0,-179.0,-0.3246058329538324,-0.33141272087415635,-0.05522420553470705,0.8841645484739804
-3593.6571803092957,2500.0,-1688.0,16708.0,42.0,-905.0,-158.0,-0.31456451476227487,-0.26090496061282076,-0.03079468252547502,0.9121564860856674
-3593.672785758972,2472.0,-2012.0,17080.0,99.0,-447.0,-277.0,-0.2911535553201056,-0.22676317021048786,-0.016932774186517938,0.9292584963393663
-3593.6884026527405,2312.0,-1984.0,17144.0,272.0,-219.0,-338.0,-0.2584583500503749,-0.21492961269987057,0.003980726211880405,0.9418007733553564
-3593.7040491104126,2448.0,-1764.0,17192.0,315.0,80.0,-522.0,-0.20937976740918937,-0.22817298530172578,0.018215215681363344,0.9506657707606041
-3593.719650030136,2300.0,-1504.0,16760.0,341.0,499.0,-681.0,-0.1464274655764687,-0.2757391661487952,0.023708323414225036,0.9497182871658868
-3593.735293865204,2232.0,-1436.0,16404.0,420.0,159.0,-744.0,-0.0747679152962295,-0.2947118433528566,0.03843013238774409,0.9518811969749574
-3593.750885486603,2148.0,-1616.0,16456.0,344.0,32.0,-882.0,0.007228915444208292,-0.3012872912732432,0.04390354267812721,0.9524947190609733
-3593.766466856003,1784.0,-1712.0,16356.0,320.0,-27.0,-801.0,0.08211807770207588,-0.30080396621551625,0.049215078609117634,0.9488685215882275
-3593.7820720672607,1636.0,-2032.0,15732.0,47.0,-443.0,-655.0,0.13918972439950236,-0.2657051433440206,0.03256924487792213,0.9533972108781344
-3593.7976608276367,1568.0,-1968.0,15432.0,-156.0,-716.0,-455.0,0.1749975963159421,-0.2084564352452408,0.0002456541856653712,0.9622482504751622
-3593.8132882118225,1940.0,-2392.0,15820.0,-214.0,-919.0,-118.0,0.1804401243664424,-0.13380191552424123,-0.03389020272086323,0.9738531013865516
-3593.8288815021515,2156.0,-2212.0,16092.0,-208.0,-1037.0,205.0,0.1568523647116247,-0.049022364048477034,-0.06529254002354394,0.98424134627882
-3593.8445394039154,2348.0,-2236.0,16568.0,-166.0,-898.0,483.0,0.10911868144582215,0.023316231494685563,-0.08944913492436994,0.9897213339974507
-3593.8601438999176,2556.0,-2068.0,16992.0,-65.0,-715.0,616.0,0.05032391322226946,0.07966676455760097,-0.10263076235224879,0.9902462506881394
-3593.875783920288,2784.0,-1768.0,17172.0,-68.0,-425.0,580.0,-0.00310247043021446,0.1106664333760995,-0.11386160642452861,0.9873088927906346
-3593.8914403915405,2892.0,-1776.0,16900.0,-40.0,-197.0,476.0,-0.04562505779580719,0.12267610814241492,-0.1214417314165113,0.983931314911117
-3593.90705537796,2736.0,-1524.0,16476.0,-120.0,-184.0,221.0,-0.0652291619767578,0.13642695918833467,-0.13305383034852875,0.9795047317210975
-3593.9227356910706,2596.0,-1352.0,15820.0,-154.0,-217.0,37.0,-0.06904649406459024,0.1552366847988395,-0.14511845655678546,0.9747177986046169
-3593.9383499622345,2600.0,-1392.0,16276.0,-90.0,-193.0,-216.0,-0.05186845054486763,0.1747059512612124,-0.1483875425196497,0.9719920944416002
-3593.9539983272552,2516.0,-1428.0,16076.0,-49.0,-317.0,-150.0,-0.04247519801644806,0.20347428767426792,-0.14853230865631253,0.9668155072681338
-3593.9695901870728,2512.0,-1552.0,15848.0,9.0,-303.0,-268.0,-0.023931737950180842,0.23212191169959095,-0.14161922608182417,0.9620242641594838
-3593.9852390289307,2756.0,-1672.0,15876.0,72.0,-410.0,-494.0,0.01100273225297473,0.271838592091566,-0.12436368548981229,0.9542098267488319
-3594.0008597373962,2476.0,-1756.0,16072.0,106.0,-396.0,-188.0,0.01982510508245401,0.30647323275837657,-0.11128020454918544,0.9451443481747065
-3594.016435623169,2512.0,-1748.0,16252.0,153.0,-461.0,-18.0,0.012720449289497554,0.34438400255614454,-0.09882541925716216,0.9335263174982958
-3594.0320506095886,2384.0,-1676.0,16492.0,116.0,-259.0,-169.0,0.020752261774383017,0.36667988792074285,-0.08450466530318905,0.9262689485066823
-3594.047641992569,2216.0,-2016.0,16468.0,140.0,-486.0,-158.0,0.025420861700732916,0.40672044121826667,-0.06891966260238107,0.9105944995399351
-3594.0632832050323,2176.0,-1856.0,16200.0,33.0,-451.0,-194.0,0.036910137778370676,0.44317597022066374,-0.06034989109349529,0.8936389605389632
-3594.078889608383,2272.0,-1596.0,16456.0,47.0,-470.0,-233.0,0.05072968121874298,0.48050043329183095,-0.04912946860227306,0.8741465142438455
-3594.0944945812225,2220.0,-2292.0,16404.0,17.0,-398.0,10.0,0.04750604598332676,0.5103976200799648,-0.04999817325836187,0.8571683776730011
-3594.110093832016,2380.0,-1980.0,16516.0,82.0,-318.0,322.0,0.018348677198090513,0.5325121901907722,-0.05948738216936615,0.8441299335445597
-3594.1256923675537,2348.0,-1684.0,16460.0,104.0,-380.0,357.0,-0.014757141175858749,0.5580496091136037,-0.06895236941131201,0.8268061630787689
-3594.141337156296,2516.0,-1628.0,16416.0,143.0,-321.0,349.0,-0.04880940195732523,0.578226975692701,-0.07514309412456228,0.8109406404091659
-3594.1569480895996,2588.0,-1592.0,16200.0,118.0,-296.0,348.0,-0.08128732994213811,0.5957324457222469,-0.08301503211405602,0.7947350046070516
-3594.172559738159,2376.0,-1548.0,16336.0,102.0,-296.0,358.0,-0.11349318556189208,0.6122722413797133,-0.0923645837175817,0.7769882772227352
-3594.1881668567657,2420.0,-1660.0,16208.0,114.0,-266.0,361.0,-0.1461194310696238,0.6256205761005336,-0.10119586822113014,0.7596100334240573
-3594.2037765979767,2632.0,-1804.0,16396.0,190.0,-283.0,342.0,-0.1815390412800291,0.6382366906381334,-0.10355789842766727,0.7409273006764269
-3594.219418287277,2452.0,-1748.0,16508.0,228.0,-261.0,341.0,-0.21849087103505146,0.6477059991575645,-0.10356450631614508,0.7225047203729114
-3594.235013484955,2424.0,-1588.0,16172.0,232.0,-270.0,300.0,-0.25279664202767177,0.6569266679100775,-0.10064433789525103,0.7031443152139697
-3594.2506334781647,2424.0,-1604.0,16320.0,0.0,-287.0,325.0,-0.27511018639690016,0.6710822916864239,-0.11285016659097688,0.6791375288010145
-3594.266209602356,2520.0,-1616.0,16352.0,222.0,-209.0,310.0,-0.3083724816057137,0.6744819660899931,-0.11272912153934378,0.6612659337699764
-3594.2818319797516,2364.0,-1652.0,16556.0,173.0,-182.0,339.0,-0.3397348578415467,0.6764180949524149,-0.11770370806146555,0.6427943872630743
-3594.297443628311,2228.0,-1728.0,16352.0,174.0,-138.0,1.0,-0.35146936646075033,0.678745973677626,-0.10386708719775459,0.6363841731636198
-3594.313043117523,2360.0,-1804.0,16236.0,161.0,-83.0,272.0,-0.3767718745659418,0.6755577050171233,-0.10843024968368278,0.6244258344123805
-3594.3287076950073,2424.0,-1992.0,16324.0,193.0,-125.0,499.0,-0.41611510801866497,0.670410296798282,-0.12306450165238614,0.6018748867152576
-3594.344301700592,2624.0,-1668.0,16324.0,178.0,-48.0,163.0,-0.4355706852632575,0.6644428408930593,-0.12145289376073488,0.5950151963793872
-3594.3599061965942,2700.0,-1732.0,16492.0,177.0,71.0,163.0,-0.45350298336941003,0.6520183418197819,-0.12435487745137806,0.5947629699802092
-3594.375496149063,2808.0,-1792.0,16376.0,194.0,90.0,200.0,-0.4738591105498111,0.637159881019172,-0.1291549651333073,0.5939729155020376
-3594.3911526203156,2696.0,-1784.0,16236.0,193.0,53.0,113.0,-0.48982095704247464,0.6248977721108424,-0.12756499508270805,0.5943949667371421
-3594.406785964966,2796.0,-1732.0,15928.0,181.0,14.0,101.0,-0.5047610871269872,0.6150713822182996,-0.12422349460218757,0.5928507089371426
-3594.422381401062,2376.0,-1696.0,16088.0,202.0,-89.0,90.0,-0.5211848189831972,0.6095303588485814,-0.11461997576404652,0.5862605114274887
-3594.4380276203156,2336.0,-1672.0,16056.0,114.0,-193.0,113.0,-0.534907254419953,0.6128026078823473,-0.10595795406283294,0.5719441449235408
-3594.453630924225,2324.0,-1568.0,16160.0,120.0,-165.0,145.0,-0.5500333247174305,0.6138094709074274,-0.09996218155171005,0.55741262757858
-3594.4692285060883,2304.0,-1472.0,16348.0,78.0,-139.0,68.0,-0.5587451006520749,0.6160240656696245,-0.0930937788974596,0.5474046139226081
-3594.4848716259003,2524.0,-1560.0,16328.0,119.0,-25.0,-3.0,-0.5652469215748354,0.6112635590908018,-0.0859900441727819,0.5472280066672219
-3594.500521659851,2664.0,-1636.0,16616.0,113.0,-46.0,-76.0,-0.568021927645741,0.6082644290469936,-0.07423010454558152,0.5494136562271671
-3594.516109228134,2696.0,-1576.0,16364.0,135.0,1.0,-50.0,-0.5728150913715035,0.6016530194584262,-0.06511575389971093,0.5528620568167857
-3594.531721830368,2680.0,-1844.0,16344.0,169.0,35.0,236.0,-0.5927639385274972,0.5898296932554028,-0.07105476753670263,0.5437674743361469
-3594.5473153591156,2612.0,-1740.0,16292.0,136.0,-58.0,26.0,-0.6013860425662113,0.5851808681226296,-0.0629014350708642,0.5403161934051417
-3594.5629045963287,2504.0,-1540.0,16300.0,112.0,-132.0,52.0,-0.6102872506819513,0.5850140255425458,-0.05331051157171545,0.5314753530781391
-3594.578489780426,2508.0,-1792.0,15116.0,72.0,-229.0,147.0,-0.6217435555850089,0.5907842630728435,-0.04523823596201027,0.5122132442655435
-3594.594165802002,2336.0,-1432.0,16368.0,-248.0,-213.0,73.0,-0.6128833780887297,0.6130667470052568,-0.04848766332682002,0.496157308808451
-3594.609803676605,2352.0,-1648.0,16212.0,13.0,-254.0,126.0,-0.6200062540619878,0.6225037132409319,-0.041045007171165035,0.47581160064839984
-3594.625412940979,2452.0,-1664.0,16324.0,-37.0,-334.0,68.0,-0.6218259570053242,0.6377094192087986,-0.028168175456800695,0.4537242882392613
-3594.641017436981,2532.0,-1720.0,16340.0,-47.0,-353.0,72.0,-0.622705619608971,0.6536011410568334,-0.014853179040614364,0.42991004034448915
-3594.656661272049,2520.0,-1836.0,16380.0,10.0,-302.0,93.0,-0.6270098005405635,0.6638874597486951,-0.0033547723332010967,0.40755477707554844
-3594.6722671985626,2612.0,-1828.0,16404.0,85.0,-282.0,114.0,-0.6359236726399101,0.6688530341201703,0.008504369265613296,0.3849212608155135
-3594.6879284381866,2660.0,-1800.0,16420.0,89.0,-236.0,78.0,-0.6434873841344678,0.6715962660891258,0.020044605698197708,0.36671604221431037
-3594.7035422325134,2652.0,-1788.0,16136.0,81.0,-192.0,71.0,-0.6501467653760112,0.6730677420925409,0.029261387464765604,0.3513300004684989
-3594.719158887863,2568.0,-1712.0,16428.0,87.0,-44.0,-66.0,-0.6531815922718338,0.6691511007674896,0.03830704201156804,0.3523112010584007
-3594.734788417816,2612.0,-1576.0,16244.0,125.0,61.0,-133.0,-0.6565972246761443,0.6594833664369251,0.04643906013349692,0.36304984180484445
-3594.750378847122,2660.0,-1560.0,16344.0,121.0,24.0,-154.0,-0.6587750762516441,0.650936561239348,0.05775689450937448,0.37277490968165505
-3594.765944957733,2604.0,-1716.0,16188.0,90.0,-40.0,-162.0,-0.6584199479050994,0.6460245428258362,0.07217890720112524,0.37937536507075265
-3594.7815520763397,2656.0,-1856.0,15884.0,80.0,-127.0,7.0,-0.6624013697826026,0.6454869715684799,0.08171985418138669,0.37133927920172577
-3594.79718208313,2304.0,-1836.0,16340.0,15.0,-110.0,-222.0,-0.6552092076939504,0.6463175680849862,0.10104109283436043,0.377842815065489
-3594.812783241272,2720.0,-1940.0,16204.0,187.0,-30.0,246.0,-0.67345586965333,0.6384138821489473,0.09499791096357048,0.3603613514537103
-3594.8283956050873,3292.0,-1692.0,16996.0,222.0,-77.0,266.0,-0.6933178869797543,0.6295520563821093,0.091633644927212,0.3384934135494217
-3594.8440742492676,2672.0,-1960.0,16424.0,307.0,-119.0,388.0,-0.7200888144378744,0.6168431044160256,0.08648864972151164,0.3057718059684484
-3594.8596980571747,2464.0,-1788.0,16460.0,329.0,-205.0,377.0,-0.7455882167267911,0.6036638256067383,0.08774940093677353,0.2683062417597443
-3594.875304222107,2392.0,-1688.0,16396.0,277.0,-176.0,372.0,-0.7669322375346774,0.5919029923665012,0.08599988989824829,0.23252915859118342
-3594.8909413814545,2360.0,-1756.0,16348.0,509.0,-243.0,427.0,-0.7986539028157893,0.564733575574888,0.0903566680181522,0.1872527828369107
-3594.9065799713135,2068.0,-1828.0,16248.0,212.0,-511.0,549.0,-0.8122786284977479,0.5611767422065422,0.10213448193868305,0.12187141293751524
-3594.9222555160522,2360.0,-2012.0,16200.0,225.0,-283.0,666.0,-0.8261661022926368,0.552798765315241,0.09175779294728818,0.05868222833175714
-3594.9378628730774,2468.0,-1988.0,16368.0,264.0,-245.0,744.0,-0.8386830864510052,0.5394026845903044,0.07467859444727042,-0.008861822000484099
-3594.9535145759583,2680.0,-1956.0,16340.0,273.0,-188.0,870.0,-0.8469562748825468,0.5230428664240508,0.047117841609794556,-0.08289232366164442
-3594.969136238098,2696.0,-1780.0,16568.0,196.0,-161.0,1022.0,-0.8443993960155074,0.5092635349761685,0.01091459123276307,-0.16589509833158053
-3594.9849071502686,2600.0,-1480.0,16492.0,173.0,-81.0,665.0,-0.8409598800860318,0.4948870241601298,-0.015120920752425968,-0.21827659324631493
-3595.0005288124084,2464.0,-1496.0,16580.0,108.0,-8.0,481.0,-0.8358064779682651,0.4855354716284913,-0.037291471889034526,-0.2535590331680807
-3595.0161015987396,2564.0,-1404.0,16332.0,162.0,83.0,346.0,-0.8343659121347347,0.4739643103257686,-0.06150556134204473,-0.2746059415398555
-3595.031726360321,2500.0,-1492.0,16552.0,210.0,128.0,169.0,-0.8381373559042498,0.4604869778545121,-0.08275944220534091,-0.2804075437467973
-3595.047326564789,2408.0,-1560.0,16564.0,240.0,149.0,-43.0,-0.8476009302550955,0.44655919177620834,-0.09769932440565073,-0.269466868615709
-3595.062930583954,2412.0,-1500.0,16500.0,269.0,125.0,-137.0,-0.8599956834718613,0.43040132077954796,-0.10780518378891857,-0.25207175531825193
-3595.0785734653473,2456.0,-1308.0,16328.0,208.0,95.0,-387.0,-0.8748591355701122,0.4200047927207232,-0.10480002690348039,-0.21733481396722526
-3595.094199180603,2604.0,-1396.0,16356.0,256.0,179.0,-207.0,-0.8861611678821002,0.40533434123101114,-0.11557610006035475,-0.1925217428019327
-3595.109803199768,2512.0,-1540.0,16272.0,264.0,7.0,-161.0,-0.8979076414395248,0.3863202081270988,-0.11470688683269208,-0.17709007411567962
-3595.125401496887,2440.0,-1644.0,16140.0,287.0,394.0,-187.0,-0.9056914324891295,0.3712064973376618,-0.14345125662992544,-0.1461181112025072
-3595.140996694565,2452.0,-1688.0,16444.0,315.0,488.0,-134.0,-0.9103658218560088,0.3535396605723106,-0.18132677337701508,-0.11560441192069398
-3595.1565828323364,2380.0,-1932.0,16244.0,429.0,588.0,-66.0,-0.9132088947201501,0.32559477165260003,-0.22972123598082564,-0.08523915189591642
-3595.172189474106,2448.0,-2064.0,16212.0,477.0,615.0,115.0,-0.911533909120351,0.28901614845999957,-0.28471271748017674,-0.06718829480030052
-3595.18785572052,2568.0,-2144.0,15884.0,539.0,664.0,290.0,-0.9042303022943885,0.2419555208301637,-0.3467501860639746,-0.05991155829222044
-3595.2034504413605,2652.0,-2024.0,16192.0,571.0,725.0,409.0,-0.8888741131049827,0.1874955680533563,-0.41379398377852605,-0.059352860090114014
-3595.219055891037,2660.0,-1864.0,16240.0,580.0,789.0,532.0,-0.8631534234323518,0.12672251841087537,-0.48424473647226834,-0.0664425025380602
-3595.2346584796906,2592.0,-1568.0,16256.0,591.0,857.0,533.0,-0.8261992697449476,0.0642795486114145,-0.5550793429936011,-0.07176231103455691
-3595.250241279602,2592.0,-1404.0,16456.0,558.0,796.0,538.0,-0.7838311490612607,0.0029381922020511697,-0.6159609325426691,-0.07869070065168147
-3595.265831708908,2456.0,-1424.0,16532.0,499.0,1022.0,491.0,-0.7215458598288212,-0.05028291786969077,-0.685323597666973,-0.08470399527291378
-3595.2814304828644,2552.0,-1344.0,16176.0,410.0,675.0,269.0,-0.6756922012263639,-0.08696596927393141,-0.7276650928855579,-0.07987791926414407
-3595.297049999237,2788.0,-1276.0,16200.0,392.0,703.0,457.0,-0.6229435748357969,-0.13376601216063808,-0.7658197070706505,-0.08699501608518137
-3595.312721014023,2528.0,-1512.0,16300.0,482.0,527.0,503.0,-0.5766812587302875,-0.18903800130251025,-0.7899073678698912,-0.08803243764467528
-3595.328325033188,2428.0,-1352.0,16280.0,572.0,702.0,476.0,-0.513220339131306,-0.2442752952492966,-0.8184800344186635,-0.08381465797126236
-3595.3439435958862,2432.0,-1428.0,16468.0,571.0,680.0,542.0,-0.4467290600175136,-0.30235134430389415,-0.8380802750929317,-0.08147554254899302
-3595.3595468997955,2464.0,-1668.0,16564.0,507.0,745.0,606.0,-0.3729230449305413,-0.35953806266581045,-0.8509053227467003,-0.0872978566494223
-3595.375141143799,2376.0,-1616.0,16844.0,498.0,862.0,818.0,-0.28528075442537837,-0.4272419317450721,-0.851702866313713,-0.10335110268512691
-3595.39079785347,2356.0,-1692.0,17036.0,434.0,1059.0,874.0,-0.18108196515497055,-0.48962082343808544,-0.8427537134063674,-0.13132764252511145
-3595.4063992500305,2364.0,-1644.0,17020.0,472.0,1161.0,839.0,-0.06532908898055433,-0.5408279099102421,-0.8235456485124115,-0.15814501829448016
-3595.4220139980316,2068.0,-1452.0,16744.0,258.0,1111.0,767.0,0.03704765746152521,-0.5779557817823551,-0.7915492418199668,-0.1950496940658867
-3595.437607526779,2100.0,-1196.0,16348.0,572.0,1062.0,631.0,0.14900247903587358,-0.5974169076765673,-0.7606569319285702,-0.20565099458146666
-3595.4531729221344,1964.0,-1308.0,16092.0,506.0,978.0,735.0,0.2518852814687687,-0.6179611463072354,-0.7139217669886916,-0.21211680097010563
-3595.468767642975,1780.0,-1500.0,16000.0,402.0,879.0,486.0,0.33590666210741826,-0.6203582395189235,-0.6728051076499161,-0.22283549118805016
-3595.4843759536743,1796.0,-1632.0,16112.0,267.0,738.0,395.0,0.4002811822805399,-0.6195298177257571,-0.6330789676491967,-0.23488039675760702
-3595.500052690506,1668.0,-1440.0,16160.0,209.0,661.0,10.0,0.447570796233222,-0.5981009086556239,-0.6125695278138512,-0.2582910354975414
-3595.515618085861,1812.0,-1248.0,16288.0,127.0,698.0,129.0,0.4935342042261548,-0.5831055228098427,-0.5802343085670916,-0.28238287074322577
-3595.5312876701355,1852.0,-1320.0,16312.0,125.0,701.0,175.0,0.5386960712477464,-0.5680929044116031,-0.5430428421600448,-0.30361400883057527
-3595.546897172928,1952.0,-1504.0,16412.0,142.0,1011.0,237.0,0.5975335991374031,-0.5435238943906863,-0.48542027272843136,-0.3345183596643672
-3595.5624928474426,1888.0,-1708.0,16892.0,228.0,816.0,16.0,0.6417322152300468,-0.5070188267985923,-0.4474567381155788,-0.3617929528372304
-3595.57812833786,1888.0,-1528.0,16396.0,8.0,843.0,201.0,0.6795114888987681,-0.4863158619985393,-0.39038516510268384,-0.38647178641001373
-3595.593773126602,1744.0,-1216.0,16444.0,175.0,788.0,-24.0,0.7113093666172897,-0.4473110340389977,-0.34960333523584003,-0.414402379073105
-3595.6093702316284,1800.0,-996.0,16208.0,94.0,646.0,-174.0,0.7272265627592311,-0.4119493917720275,-0.3190264970993956,-0.4468347783963778
-3595.624962568283,1664.0,-944.0,15912.0,91.0,528.0,-403.0,0.7283267248295333,-0.37357215542290506,-0.3029144404335525,-0.48808489873033145
-3595.6405506134033,1700.0,-1100.0,16192.0,126.0,480.0,-623.0,0.7169404349036452,-0.3276969648747259,-0.29723013380666363,-0.5387628045525577
-3595.6561255455017,1748.0,-1524.0,16332.0,154.0,430.0,-666.0,0.699530416695445,-0.2797195621496753,-0.29571808166883695,-0.5873371934781535
-3595.6717731952667,1700.0,-1420.0,16548.0,187.0,417.0,-629.0,0.6811263436148233,-0.230021132240737,-0.2943384551367437,-0.6296999734669727
-3595.6873967647552,1560.0,-1644.0,16408.0,196.0,393.0,-540.0,0.6643304080864687,-0.18244312915141334,-0.2918362346776764,-0.6634841562888015
-3595.7030255794525,1472.0,-1736.0,16600.0,181.0,377.0,-423.0,0.6515156260874392,-0.13906416984390793,-0.2865699444491463,-0.688524663732484
-3595.718653202057,1380.0,-1728.0,16208.0,136.0,260.0,-311.0,0.6406052679016966,-0.10779208079992066,-0.28327970308148465,-0.7055199273411665
-3595.734257698059,1296.0,-1804.0,16180.0,144.0,175.0,-181.0,0.63500771923891,-0.08442829863526286,-0.28370880790251257,-0.7135449328634377
-3595.7498404979706,1392.0,-1612.0,16324.0,80.0,91.0,-196.0,0.6255859804267924,-0.06944368820370268,-0.28476495037870386,-0.7229997775227393
-3595.7654314041138,1508.0,-1504.0,16452.0,119.0,121.0,-114.0,0.6220892654970792,-0.052466471616581585,-0.28604218229873885,-0.7269333429243606
-3595.781028985977,1612.0,-1356.0,16964.0,105.0,277.0,-89.0,0.623676491364726,-0.02696984590596983,-0.2776983814961239,-0.7301944059257276
-3595.7967183589935,1632.0,-1452.0,17072.0,162.0,531.0,-86.0,0.6307517584848344,0.01771470099831165,-0.2587355183377848,-0.7313647107205183
-3595.8123202323914,1640.0,-1448.0,16868.0,179.0,609.0,-214.0,0.629553365072536,0.07106673332618725,-0.23563308128919158,-0.7369458127585448
-3595.827929496765,1392.0,-1376.0,16640.0,268.0,665.0,-230.0,0.6254843015958537,0.13287142219135012,-0.21419264441057376,-0.7384010324358986
-3595.8435344696045,1320.0,-1392.0,16364.0,343.0,604.0,-316.0,0.611140766891888,0.19581114813873263,-0.1990079345006734,-0.7406489042138401
-3595.8591208457947,1200.0,-1484.0,15912.0,364.0,545.0,-264.0,0.5962511285515432,0.2543524266388905,-0.18842693378976924,-0.7377565488604658
-3595.8747119903564,1172.0,-1468.0,16136.0,254.0,391.0,-177.0,0.5851549589111456,0.29516467207311925,-0.1801962194768686,-0.7334853869763922
-3595.8903379440308,1004.0,-1360.0,15932.0,168.0,218.0,-184.0,0.5722996819718446,0.3202473893988953,-0.17488489741688965,-0.7343908742989677
-3595.905987262726,1164.0,-1228.0,16160.0,102.0,147.0,-187.0,0.5596261269829864,0.3373190601334553,-0.16870562707379225,-0.7379518013138414
-3595.92165851593,1180.0,-1188.0,16132.0,39.0,95.0,-221.0,0.5455804121993982,0.34830477025170936,-0.15993842025694835,-0.7452821630563492
-3595.937347650528,1152.0,-1180.0,16448.0,23.0,66.0,-277.0,0.527679425785728,0.35723526540882833,-0.14973407943732497,-0.7559874960644422
-3595.9529480934143,1120.0,-1408.0,16472.0,25.0,43.0,-207.0,0.5137711381725528,0.36365302842917285,-0.1428381279751727,-0.7638016507521563
-3595.9685938358307,976.0,-1452.0,16416.0,4.0,-47.0,-172.0,0.5015843353917481,0.3625859086165319,-0.13965172484915073,-0.7729437295877362
-3595.984183549881,792.0,-1524.0,16516.0,33.0,-72.0,-86.0,0.49388554604500207,0.35998917832409144,-0.14221415135672746,-0.7786269928863637
-3595.9998099803925,1104.0,-1428.0,16584.0,95.0,-123.0,65.0,0.49379010714647187,0.3546649047846799,-0.15591460016526237,-0.7785080428959333
-3596.015450000763,1276.0,-1392.0,16444.0,132.0,-200.0,112.0,0.4945144187269399,0.34493444363847664,-0.17683623717807573,-0.7779490114934724
-3596.03107714653,1356.0,-1476.0,16428.0,161.0,-173.0,180.0,0.4991066857868285,0.337036856555479,-0.2004897420622593,-0.7727241013802394
-3596.046653032303,1384.0,-1448.0,16528.0,143.0,252.0,233.0,0.51481320664462,0.3557988433246354,-0.20579566103779245,-0.7523447954569454
-3596.0622351169586,1364.0,-1420.0,16628.0,143.0,88.0,177.0,0.5235193401052612,0.3645466475174819,-0.2165786729449459,-0.7390040059058697
-3596.077801465988,1356.0,-1348.0,16536.0,140.0,159.0,103.0,0.5286671091381626,0.3789839587716249,-0.22147443806772446,-0.7265200066012436
-3596.0934069156647,1252.0,-1312.0,16152.0,88.0,143.0,106.0,0.5352275089368511,0.3898211363541888,-0.2238322332753954,-0.715171396712516
-3596.108993768692,1192.0,-1300.0,16128.0,79.0,137.0,6.0,0.5356061322177401,0.4017276618478724,-0.22245224144595813,-0.7087001884525383
-3596.1245732307434,1100.0,-1384.0,16424.0,128.0,21.0,-71.0,0.5271559402038137,0.4101776640797442,-0.22678870873973378,-0.7088214021783499
-3596.140159845352,1032.0,-1272.0,16452.0,74.0,-132.0,-65.0,0.5178832104451421,0.4064852384136436,-0.23499912458813055,-0.715081913303398
-3596.1557986736298,952.0,-1140.0,16600.0,38.0,-253.0,-87.0,0.5058373520068449,0.3939123892017927,-0.24555840164438006,-0.7270919297653468
-3596.1714243888855,916.0,-1048.0,16648.0,58.0,-306.0,-107.0,0.49035240754117626,0.3790165872969088,-0.2588634668839804,-0.7408715465485117
-3596.187013864517,920.0,-1260.0,16552.0,-26.0,-309.0,-137.0,0.4752212728558178,0.36068851829668375,-0.26564909469554,-0.757297229020204
-3596.2026529312134,1128.0,-1288.0,16504.0,-53.0,-288.0,-171.0,0.4587643126859636,0.3430957150941049,-0.2684747354386265,-0.7744300821384713
-3596.2182383537292,1348.0,-1440.0,16548.0,-43.0,-253.0,-194.0,0.440890757822174,0.32851503773784424,-0.26966120278576516,-0.7905542646518493
-3596.233845472336,1400.0,-1304.0,16552.0,-14.0,-298.0,-148.0,0.4239395085057991,0.31059013274782094,-0.275675748640194,-0.8048676563132731
-3596.2494213581085,1428.0,-1668.0,16428.0,-51.0,-346.0,11.0,0.4176241981767371,0.28382561321293254,-0.2849242639675129,-0.8147706512780829
-3596.2650027275085,1316.0,-1684.0,16364.0,-1.0,-437.0,123.0,0.4152508130524001,0.2492882777080598,-0.30344095706808266,-0.8205764452080474
-3596.2805922031403,1140.0,-1684.0,15996.0,-25.0,-662.0,236.0,0.41443155746836635,0.1941947467767757,-0.3299895524361477,-0.8256160001972098
-3596.296238422394,1276.0,-1604.0,16000.0,251.0,-822.0,303.0,0.4071025123140759,0.13474889330970594,-0.3815551813874764,-0.8188564732453102
-3596.3118484020233,1512.0,-1288.0,16244.0,95.0,-940.0,385.0,0.4006674956236967,0.057786282621172184,-0.4243961759471712,-0.8099470287203223
-3596.3274540901184,1344.0,-1520.0,16348.0,144.0,-943.0,477.0,0.39707386188297983,-0.02147930271938036,-0.46773455822279564,-0.7893639026508317
-3596.3430576324463,1484.0,-1472.0,16524.0,182.0,-919.0,261.0,0.3765880342928307,-0.08884847054019096,-0.5096107253118681,-0.7684948343074548
-3596.3586411476135,1680.0,-1420.0,16704.0,212.0,-779.0,658.0,0.3861916413731938,-0.16273127004775897,-0.5419256485538422,-0.7284855120876593
-3596.3742229938507,1820.0,-1284.0,16788.0,6.0,-566.0,710.0,0.4034527050287249,-0.23135790045330748,-0.5494217550991686,-0.6941434806483394
-3596.3898124694824,2032.0,-1452.0,16820.0,363.0,-347.0,816.0,0.4421136576428094,-0.27772889890350483,-0.5650427502421497,-0.6388496402427812
-3596.405394077301,2148.0,-1556.0,16904.0,456.0,-86.0,945.0,0.499597684050352,-0.3101884956179409,-0.5683564014108125,-0.5754617730598225
-3596.4209620952606,2204.0,-1588.0,16864.0,647.0,155.0,1138.0,0.5782390237408622,-0.32843127269853345,-0.559468865172543,-0.49473944601111314
-3596.436548948288,2176.0,-1524.0,17128.0,526.0,346.0,1397.0,0.6647168723966131,-0.3519734814064758,-0.5199160214118392,-0.4049116923690321
-3596.4521231651306,2116.0,-1508.0,16784.0,728.0,477.0,1665.0,0.7575556820678524,-0.36350897051481307,-0.4605350567621926,-0.28614345775330224
-3596.467737674713,1944.0,-1748.0,16676.0,636.0,432.0,1798.0,0.8281335272908976,-0.3773903994142974,-0.38509777698137176,-0.15320264217910473
-3596.4833421707153,2280.0,-1380.0,16284.0,510.0,289.0,1907.0,0.8672019452525308,-0.3946940771423242,-0.30351124390514633,-0.0076352106812003235
-3596.498916387558,2108.0,-1144.0,15956.0,295.0,160.0,1887.0,0.8708653823227651,-0.4163010060853545,-0.2233748859763668,0.1356120146564865
-3596.5145094394684,2020.0,-728.0,15856.0,44.0,18.0,1469.0,0.8485813858795926,-0.43803400413912646,-0.16666908039592324,0.24547354317011608
-3596.530123233795,2304.0,-336.0,15724.0,-22.0,85.0,1058.0,0.8228911727695121,-0.45473154202021077,-0.11984147560846484,0.31891591869005903
-3596.5457105636597,2536.0,-272.0,16072.0,-512.0,6.0,608.0,0.7839359258485679,-0.4966462752501315,-0.10925509739349087,0.3561604485869512
-3596.56134390831,2584.0,-440.0,16488.0,-802.0,292.0,509.0,0.7334924884106028,-0.5631685090346934,-0.09179112588615033,0.3693296482621116
-3596.5769441127777,2576.0,-756.0,16708.0,-977.0,342.0,193.0,0.6792370825526297,-0.635467934699042,-0.09152077136707473,0.35558604874643474
-3596.5925376415253,2380.0,-1200.0,17180.0,-1114.0,648.0,339.0,0.6081125236384667,-0.7193725244894096,-0.06841506666185339,0.32866656090549207
-3596.608120918274,1680.0,-1780.0,17280.0,-1260.0,732.0,367.0,0.5184989265478914,-0.8024899498922871,-0.042303209791676455,0.2921971627717837
-3596.6237275600433,1492.0,-1988.0,17128.0,-1534.0,867.0,324.0,0.40119623815539024,-0.8844264666627119,-0.019263996825997453,0.23761376639993467
-3596.639306306839,1068.0,-1624.0,16492.0,-1215.0,723.0,130.0,0.30366267064437863,-0.9350085597039014,-0.009043250352658055,0.18293768163125562
-3596.6548891067505,712.0,-1024.0,15824.0,-1087.0,361.0,-220.0,0.2176691190226552,-0.9644119315939368,-0.034612760661311665,0.14605388602346647
-3596.670488357544,692.0,-272.0,15264.0,-1268.0,-10.0,-874.0,0.1209807327095313,-0.9769408274034453,-0.12344076259117323,0.1253501503638739
-3596.686088323593,308.0,-192.0,14584.0,-908.0,28.0,-1629.0,0.06089094514420706,-0.9566813842845869,-0.2684703463993756,0.09474542135096076
-3596.7017171382904,240.0,-128.0,13992.0,-792.0,-7.0,-2412.0,0.014199887548291979,-0.882882857901984,-0.4652059733809335,0.062446975484317054
-3596.717344522476,344.0,-448.0,14080.0,-534.0,-84.0,-3101.0,-0.012976397208644389,-0.7300920480669024,-0.6819426800097759,0.04184967916296983
-3596.732938528061,600.0,-888.0,14828.0,-208.0,-246.0,-3557.0,-0.026615385940945653,-0.4937655813588903,-0.8679184971631075,0.0469537450973237
-3596.748522758484,980.0,-1164.0,16304.0,-178.0,-634.0,-3929.0,-0.06254168122986838,-0.18235866666941908,-0.9790151978114027,0.06605374519126932
-3596.7641141414642,1376.0,-1496.0,17704.0,-310.0,-824.0,-4013.0,-0.10802403580760847,0.15724349070678903,-0.9791189695702077,0.07022347005065252
-3596.7797377109528,1684.0,-2228.0,18684.0,-421.0,-743.0,-4217.0,-0.1309779429361568,0.4926053280788245,-0.8582623652587473,0.05975350695170412
-3596.7953627109528,2092.0,-2592.0,18620.0,-136.0,-93.0,-4468.0,-0.10136333317580842,0.7726325188510749,-0.6202047344855766,0.09005860771191836
-3596.810942173004,2484.0,-2740.0,17260.0,317.0,206.0,-4727.0,-0.06878690500412951,0.946254044082149,-0.2778431368896193,0.15058166236785767
-3596.8265612125397,2624.0,-2916.0,16012.0,514.0,29.0,-4529.0,-0.047413667411833595,0.9780431741378324,0.09556358516889092,0.17902819569727443
-3596.8421688079834,3000.0,-3536.0,16068.0,682.0,-568.0,-3767.0,-0.03984623637957362,0.902549452152655,0.4075591901066742,0.13308745404776978
-3596.8577797412872,2924.0,-3932.0,16980.0,116.0,-870.0,-2616.0,0.011987269609597173,0.7964035209089124,0.600855247565912,0.06760701682296745
-3596.8733789920807,2772.0,-4224.0,17508.0,-701.0,-832.0,-1405.0,0.11130202863575882,0.718297207995866,0.6853299807162553,0.04453983541017486
-3596.888962984085,2476.0,-4260.0,17988.0,-1371.0,-803.0,-409.0,0.24440283589812659,0.6767250264617036,0.6907944637184716,0.07150874954345918
-3596.904571533203,2208.0,-3708.0,17404.0,-1729.0,-476.0,34.0,0.37054074127704834,0.6370896101183859,0.6597918073575508,0.14659863122456196
-3596.9202802181244,1804.0,-2712.0,15824.0,-1760.0,-33.0,67.0,0.464052778061174,0.5776328838924611,0.6251058023607169,0.24543432212050006
-3596.93595290184,1600.0,-1956.0,14140.0,-1662.0,-145.0,-143.0,0.5530121846504534,0.5002604234015698,0.584580449548919,0.31966033599963395
-3596.9515628814697,1664.0,-1812.0,14004.0,-1484.0,-433.0,-636.0,0.6508324324176963,0.4039210968404261,0.5442104242780118,0.34219863609844814
-3596.9671697616577,1948.0,-1944.0,14176.0,-1236.0,-632.0,-1146.0,0.7495438612833447,0.2944612638091139,0.5054890875423281,0.3097698282661145
-3596.982797384262,2524.0,-2408.0,14992.0,-961.0,-896.0,-1441.0,0.8407300342612911,0.18943268768551283,0.45129188459360453,0.23156835109143084
-3596.9984617233276,3056.0,-2876.0,15852.0,-841.0,-1139.0,-1472.0,0.9149088079093317,0.0912359544214741,0.36904976619725394,0.13572083075372193
-3597.014060974121,3188.0,-3392.0,16144.0,-621.0,-1184.0,-1291.0,0.9607923814109333,0.013817896827226181,0.2736215328945981,0.04264179037505288
-3597.02965426445,3424.0,-3608.0,16236.0,-501.0,-1253.0,-979.0,0.9846352810565276,-0.046507946927763714,0.16584855396767373,-0.0287163945879183
-3597.0452721118927,3720.0,-3856.0,16140.0,-397.0,-1209.0,-560.0,0.9918540681165955,-0.09117352804220416,0.05993586373500732,-0.06573117664576014
-3597.060885667801,3720.0,-3884.0,15876.0,-491.0,-1057.0,-142.0,0.9874702418271823,-0.13981502543390634,-0.030029896597740538,-0.06672694717286978
-3597.0764951705933,3680.0,-3892.0,15532.0,92.0,-1012.0,180.0,0.9829785109620942,-0.1376438084384686,-0.11542902024010834,-0.03851714256933819
-3597.0920786857605,3548.0,-4028.0,15256.0,411.0,-816.0,479.0,0.9774170618779104,-0.10932316377552367,-0.18009250993314443,0.016462711746351392
-3597.1076669692993,3676.0,-4204.0,15300.0,696.0,-768.0,635.0,0.9657171747268875,-0.058592186392077784,-0.2369247204596003,0.0884532134320433
-3597.1233048439026,3804.0,-3960.0,14884.0,740.0,-562.0,1001.0,0.94353447685696,-0.01263591356499404,-0.2712790109557434,0.1897122106916536
-3597.138905286789,3600.0,-3856.0,15320.0,887.0,-685.0,1267.0,0.8976540836468444,0.041155975145727,-0.3080235252842522,0.3124817429761459
-3597.1544954776764,3276.0,-3632.0,15392.0,1111.0,-745.0,1426.0,0.8229187371014195,0.10846419944803895,-0.336132600039645,0.4450338692235558
-3597.170090198517,3248.0,-3104.0,15668.0,1121.0,-858.0,1677.0,0.7092034339285459,0.16988077183826372,-0.3633015933146597,0.5798128706389882
-3597.1856801509857,3200.0,-3236.0,15400.0,955.0,-921.0,2037.0,0.5505551785881427,0.2062714785752967,-0.3932559874479025,0.70688811051857
-3597.2014265060425,3248.0,-2956.0,15324.0,895.0,-631.0,1814.0,0.39422375362282897,0.22205592292463786,-0.39415610346459123,0.7999498517252347
-3597.2170152664185,3384.0,-2996.0,15128.0,900.0,-209.0,1886.0,0.23404022357998294,0.19929345682138833,-0.3687335848979338,0.877235906232258
-3597.232655763626,3336.0,-3076.0,15060.0,902.0,79.0,2040.0,0.06352538067006618,0.1432184835971431,-0.3271815640422908,0.9318826192808292
-3597.248252391815,3124.0,-2860.0,14896.0,832.0,287.0,1918.0,-0.09309171443768449,0.06850934580966606,-0.2769846640745914,0.9538972156932161
-3597.263907432556,3296.0,-2668.0,15276.0,729.0,215.0,1753.0,-0.23492546466332545,0.0023363811274002776,-0.225136361039731,0.9455782285531621
-3597.279498577118,3204.0,-2788.0,15396.0,763.0,-34.0,1251.0,-0.3362211684035307,-0.03462142741424027,-0.16017783608884403,0.9274156260852308
-3597.2951130867004,3112.0,-3252.0,15384.0,1051.0,-460.0,858.0,-0.40573231517733355,-0.03963891834618304,-0.058408186743744143,0.9112620524824313
-3597.310712814331,3692.0,-3488.0,15808.0,1473.0,-819.0,816.0,-0.46354217489138005,-0.030095898621823724,0.08937580983287913,0.8810419136453334
-3597.3263001441956,3880.0,-3836.0,16524.0,1972.0,-613.0,1008.0,-0.5207645170128926,-0.05354804477747794,0.2630301210535254,0.8104024186411375
-3597.3419721126556,3488.0,-3964.0,17040.0,2585.0,-44.0,1268.0,-0.5794380060497623,-0.13448507125977024,0.43991096339038827,0.6727880104774984
-3597.3575518131256,2780.0,-4064.0,17008.0,3109.0,405.0,1482.0,-0.6179505892050593,-0.24742515871644158,0.5927012011056535,0.45345688476764745
-3597.3731575012207,3096.0,-3568.0,17064.0,3293.0,812.0,1446.0,-0.6151197688801364,-0.36393216478954504,0.6762347423719236,0.1785710574914676
-3597.388732433319,3348.0,-2760.0,16876.0,2850.0,663.0,1668.0,-0.5658718212305555,-0.41137217970157536,0.7080282868195988,-0.0962182766842814
-3597.4043498039246,3496.0,-3272.0,16712.0,2368.0,410.0,1894.0,-0.4737486625503856,-0.393978009045266,0.7109258299938217,-0.33901032044473983
-3597.4199624061584,2572.0,-4648.0,16952.0,2058.0,-24.0,2234.0,-0.3242282342088561,-0.32971037181382945,0.7034764196461997,-0.5397110799881336
-3597.435546398163,1828.0,-5168.0,18048.0,2190.0,-97.0,2786.0,-0.11847801436352415,-0.2150628710746106,0.6526110106703124,-0.7168052666864939
-3597.451135635376,2032.0,-4584.0,19216.0,2543.0,292.0,3198.0,0.10612810849341145,-0.03848323092583638,0.5182433077060318,-0.8477498095210819
-3597.466721057892,1704.0,-2132.0,20552.0,2566.0,-113.0,3465.0,0.35212450931071726,0.12508868949414634,0.3170356697419832,-0.8716934861604598
-3597.482307910919,-704.0,1096.0,23360.0,1993.0,-346.0,2888.0,0.5349293084969584,0.2292412740927356,0.11754742116669183,-0.8046624614957288
-3597.4979009628296,1088.0,4228.0,24920.0,226.0,1687.0,1142.0,0.5841105672099702,0.3640235394437146,0.1549322805376346,-0.7087296356523584
-3597.513532400131,4680.0,2700.0,22616.0,-1112.0,3741.0,-1158.0,0.4686222713947899,0.4927596061157067,0.4251114049055942,-0.5973788000529259
-3597.5291538238525,6136.0,-1896.0,18848.0,-718.0,4313.0,-2173.0,0.2080905985980518,0.5589423119699433,0.673777824348026,-0.4362398859362127
-3597.544762611389,6424.0,-5128.0,17360.0,818.0,3450.0,-1654.0,-0.09248769633120857,0.5752418312517,0.7438070357600897,-0.3275575600704793
-3597.5603511333466,4228.0,-7608.0,17388.0,1248.0,3004.0,-22.0,-0.33753935717109623,0.6248961006647676,0.6589030003038686,-0.2478283315624985
-3597.5759568214417,1648.0,-8096.0,15872.0,1742.0,3311.0,1889.0,-0.5467657690747683,0.7079118458781714,0.3949689708787327,-0.2095412233342929
-3597.591531276703,-364.0,-4736.0,14396.0,2734.0,3702.0,2499.0,-0.7255019637265749,0.6650162257050577,0.012549122836060975,-0.17675644173248378
-3597.60710978508,140.0,1320.0,15224.0,3332.0,3297.0,2318.0,-0.8067690971810522,0.4614724967043275,-0.34770269335180465,-0.1235702053694395
-3597.6226937770844,652.0,5132.0,17340.0,3070.0,3136.0,1267.0,-0.7632479610683145,0.223407319637676,-0.6062205090223309,0.006197894648646634
-3597.6382603645325,1272.0,5340.0,18816.0,2329.0,3410.0,241.0,-0.5911112861433252,0.050388423635434436,-0.7870369648024663,0.1691782202059156
-3597.653838157654,28.0,2388.0,18784.0,2278.0,4340.0,-656.0,-0.26934688105489046,-0.07913818904716746,-0.8946147855904187,0.34764031714308763
-3597.6694202423096,-1036.0,476.0,16864.0,2409.0,4258.0,-17.0,0.07383943811874014,-0.24248449715699058,-0.8476504827976061,0.4660876151860455
-3597.685016155243,-2064.0,-1204.0,14820.0,2483.0,3434.0,783.0,0.3263105437282293,-0.3969654338876247,-0.6625355149913732,0.544964737139306
-3597.7006974220276,-2836.0,-880.0,13260.0,2050.0,2790.0,1585.0,0.45865413050258313,-0.5341887491041934,-0.4085516993793812,0.5808306791463723
-3597.716289997101,-2624.0,-80.0,12500.0,1800.0,2621.0,1841.0,0.5168289020555782,-0.6290166936536115,-0.12037388095250377,0.568098595218767
-3597.731900691986,-2248.0,1648.0,12624.0,1343.0,2434.0,1948.0,0.4981868399827038,-0.6802418381960513,0.15632784402789232,0.5144341738427727
-3597.7474801540375,-1940.0,3036.0,13660.0,948.0,2262.0,1613.0,0.4371129637540755,-0.6959940159525259,0.38075392225221744,0.42373463083155716
-3597.7630932331085,-1636.0,3188.0,15428.0,849.0,1905.0,1510.0,0.36058483257907337,-0.6671666885442784,0.5625403620697796,0.3292651351922709
-3597.7786993980408,-1028.0,2852.0,16820.0,919.0,1832.0,819.0,0.29522553270188856,-0.6388961800300249,0.6817671712219651,0.19961733448758356
-3597.7942752838135,-552.0,1888.0,17580.0,1074.0,1651.0,650.0,0.2416558534554437,-0.5916698510804268,0.7668086705584354,0.05944492046921672
-3597.8098826408386,-1220.0,864.0,17536.0,1123.0,1540.0,510.0,0.19115429256091468,-0.5339645786939232,0.819395191480384,-0.08326695211536524
-3597.825483560562,-1104.0,512.0,16812.0,1063.0,1499.0,460.0,0.13502557009533783,-0.46609225210731814,0.8466207491550666,-0.21853927575168533
-3597.841055393219,-892.0,488.0,16084.0,1061.0,1151.0,261.0,0.09720500573516139,-0.4084302608201694,0.8425078919594592,-0.33751497876749703
-3597.8566930294037,-1468.0,1640.0,15720.0,1105.0,851.0,531.0,0.08892681543024718,-0.3321089729517903,0.8290785763974737,-0.44093578414671725
-3597.872275352478,-1060.0,2000.0,15460.0,1258.0,765.0,522.0,0.08931294850892596,-0.2527632531049908,0.794341713247843,-0.5451194160024992
-3597.887919187546,-908.0,2484.0,15688.0,1326.0,605.0,504.0,0.09971724052909788,-0.17707098789359818,0.7403457463628756,-0.6407733710369398
-3597.9034974575043,-928.0,2644.0,15676.0,1516.0,367.0,-100.0,0.09299349322861504,-0.14841056409891445,0.6510808253616386,-0.7385257433071573
-3597.9191641807556,-816.0,2512.0,15652.0,1586.0,28.0,-394.0,0.08569533487043388,-0.15452666896633996,0.5383863766114402,-0.8239647611632528
-3597.934820175171,-668.0,1924.0,15840.0,1515.0,-272.0,-555.0,0.07821339526570763,-0.18689212025151986,0.4155233639013093,-0.8867323915596191
-3597.9504528045654,-928.0,1120.0,15360.0,1030.0,-708.0,-650.0,0.06987073031173258,-0.256211569295849,0.31778390277934176,-0.9102126696212227
-3597.966051340103,-1040.0,1068.0,15016.0,451.0,-1038.0,-655.0,0.056353993279655484,-0.351672635816915,0.2591225984924999,-0.8977784045127811
-3597.9819219112396,-856.0,1428.0,14948.0,-76.0,-1150.0,-658.0,0.028281528801390073,-0.4538572532900557,0.23750738741170024,-0.8583728733420756
-3597.9976840019226,-564.0,1216.0,15144.0,-500.0,-1449.0,-637.0,-0.009122053296090832,-0.5707663079191584,0.24352880179369726,-0.7841149995918468
-3598.013345003128,-528.0,1776.0,15428.0,-835.0,-1463.0,-920.0,-0.08147191877899564,-0.6802113277169655,0.25243219080576523,-0.6833394947908348
-3598.028950214386,-524.0,1980.0,15804.0,-1078.0,-1525.0,-936.0,-0.16501471079293287,-0.7713473068259294,0.26755393262821064,-0.5533609767678683
-3598.044525384903,-468.0,1568.0,15736.0,-1232.0,-1711.0,-1316.0,-0.26543975302854317,-0.8472315650462835,0.2570967621771446,-0.3816302760256317
-3598.060122013092,-420.0,892.0,15928.0,-1246.0,-1894.0,-1326.0,-0.35022227645370746,-0.8881446153211311,0.23823082766226836,-0.1782963042326274
-3598.0757265090942,-516.0,524.0,16040.0,-1329.0,-1956.0,-1444.0,-0.42292080142160865,-0.8825140131492265,0.20095857305074147,0.043848195374050714
-3598.0913145542145,-332.0,340.0,15856.0,-1373.0,-2014.0,-1503.0,-0.4731179443976891,-0.825056154299328,0.14965387615071138,0.27026925517856465
-3598.106906414032,88.0,644.0,16036.0,-1480.0,-2236.0,-1535.0,-0.4966071809052166,-0.7059360009999921,0.09318889154999488,0.49633809128173484
-3598.1224670410156,272.0,860.0,16252.0,-1507.0,-2509.0,-1626.0,-0.4786517981847895,-0.523123229174374,0.03498860648899114,0.7042800157668831
-3598.1380388736725,412.0,432.0,16664.0,-1630.0,-2690.0,-1780.0,-0.41530707120236254,-0.2812325894176785,-0.03252876245605857,0.8645057240249023
-3598.153606891632,472.0,-76.0,16448.0,-1742.0,-2657.0,-2015.0,-0.29793075917033,-0.011032203390008651,-0.11123471854379859,0.9480202480005552
-3598.16916179657,300.0,120.0,16248.0,-1926.0,-2566.0,-1704.0,-0.1751325031380408,0.2554143878893716,-0.1955980502457645,0.9305017461261194
-3598.1847298145294,608.0,228.0,16280.0,-2175.0,-2069.0,-1495.0,-0.03892857366772531,0.46264549032818153,-0.2947708119774158,0.8351969138097722
-3598.2003078460693,-28.0,756.0,15944.0,-2429.0,-2085.0,-1380.0,0.10153201623699613,0.629796596701548,-0.3912523501578425,0.6633016621100561
-3598.2159469127655,-356.0,352.0,16040.0,-2430.0,-2267.0,-1131.0,0.21341391426579212,0.7439523829217283,-0.4683379655746645,0.42620288964789943
-3598.231498479843,-328.0,-88.0,16704.0,-2379.0,-2368.0,-982.0,0.29426668400010203,0.7917833500589267,-0.5137686316829628,0.1500934320870275
-3598.2470824718475,-680.0,-572.0,17716.0,-2144.0,-2535.0,-824.0,0.3254071068889059,0.7731325226744518,-0.5270223673075871,-0.1364688298723822
-3598.2626695632935,-664.0,-824.0,18164.0,-1659.0,-2418.0,-729.0,0.3069921242596161,0.7065520977778088,-0.5093092265883562,-0.38359363978084526
-3598.2782571315765,-116.0,-708.0,18640.0,-882.0,-2549.0,-385.0,0.22883233081207446,0.5979565898247137,-0.5100781966969611,-0.5743726267108212
-3598.2938373088837,192.0,-764.0,18532.0,-154.0,-1896.0,171.0,0.1588614150327032,0.48544229629258495,-0.5416265712699038,-0.6676447296866778
-3598.3094148635864,164.0,-868.0,18160.0,241.0,-1306.0,421.0,0.11064332368367666,0.389828902057008,-0.5872222066899069,-0.700686493387373
-3598.324993133545,216.0,-524.0,17244.0,411.0,-864.0,533.0,0.0845996999013051,0.3121501622137784,-0.6358572707296651,-0.7007786371363945
-3598.34056019783,40.0,-132.0,16560.0,210.0,-718.0,435.0,0.06546061358226077,0.24489080659279527,-0.6638741596850984,-0.7035726693229127
-3598.3560993671417,460.0,248.0,15788.0,-107.0,-516.0,342.0,0.05877418254794147,0.19244017647454081,-0.6664617025027224,-0.7178726718864854
-3598.3717551231384,656.0,196.0,15588.0,-697.0,-602.0,56.0,0.03885649998559,0.14736840861210887,-0.6246801696285652,-0.7658638326914463
-3598.38734126091,916.0,56.0,15456.0,-982.0,-448.0,-159.0,0.01636787609772926,0.12216566390271276,-0.5558567956481667,-0.8220893296515963
-3598.40291762352,1032.0,-320.0,15368.0,-1110.0,-745.0,-368.0,-0.0340921281479629,0.08431323566564984,-0.46975386224701665,-0.8781004008619642
-3598.4185042381287,1528.0,-396.0,16064.0,-1265.0,-942.0,-301.0,-0.08563277789399494,0.027890755146708336,-0.3640204459076375,-0.927026562774071
-3598.4340822696686,1136.0,-924.0,16780.0,-1694.0,-998.0,-236.0,-0.13037720640710487,-0.032259776167827436,-0.215474809734684,-0.9672288753241821
-3598.449653863907,868.0,-992.0,16660.0,-2010.0,-970.0,-229.0,-0.17036734112258892,-0.08533030878748023,-0.034451690724346985,-0.9810743032448085
-3598.465222597122,796.0,-980.0,16792.0,-2303.0,-1004.0,-356.0,-0.21577499248511822,-0.13253688961347035,0.1710860394539286,-0.9521579136958338
-3598.4807641506195,624.0,-1024.0,16620.0,-1707.0,-546.0,-269.0,-0.24667542535034204,-0.14775378682721332,0.31597570300516425,-0.9041456785921385
-3598.496351957321,624.0,-1036.0,16664.0,-1201.0,-318.0,-806.0,-0.3144159122476285,-0.1677190770574574,0.40363584480917225,-0.8426690038809259
-3598.5119693279266,828.0,-884.0,16840.0,-710.0,-160.0,-1046.0,-0.3937234524297821,-0.19556897202332255,0.44201853345951303,-0.7818914478793174
-3598.527536869049,972.0,-864.0,16964.0,-459.0,75.0,-1264.0,-0.48741376464295616,-0.22183752755692257,0.44594185557225013,-0.717183236594938
-3598.543156147003,1064.0,-780.0,16744.0,-341.0,308.0,-1380.0,-0.5877373699438383,-0.23975364425807583,0.42389024758814653,-0.6460650370017955
-3598.5587918758392,972.0,-948.0,16856.0,-267.0,351.0,-1185.0,-0.6691421755140616,-0.24849429399692294,0.393584510024855,-0.5793017937722741
-3598.574406147003,824.0,-1268.0,16388.0,-159.0,140.0,-1174.0,-0.7328758629610641,-0.2708730711455241,0.3658427683271081,-0.5056479186944461
-3598.5899987220764,568.0,-892.0,16548.0,-57.0,112.0,-1104.0,-0.782934698147609,-0.2960144236564309,0.3333695374077727,-0.4338818628986365
-3598.6055941581726,604.0,-740.0,16820.0,-85.0,157.0,-1146.0,-0.8289498965164521,-0.31584221918268224,0.2945945699430715,-0.35538683291193957
-3598.6211681365967,624.0,-808.0,17064.0,-127.0,370.0,-1186.0,-0.873665909449584,-0.3235851267066354,0.2375226003757582,-0.2749246419486985
-3598.636743068695,628.0,-1068.0,16664.0,-45.0,292.0,-1195.0,-0.904549047388066,-0.3357915959758274,0.1814225147635338,-0.19005498172430116
-3598.652323961258,752.0,-1516.0,16356.0,82.0,0.0,-968.0,-0.9150148381793184,-0.3560984068826756,0.1510647385865448,-0.11454787332410411
-3598.6679396629333,824.0,-1920.0,15924.0,190.0,-7.0,-685.0,-0.9142064398450771,-0.3794234759872168,0.12812631728520635,-0.062032717452147945
-3598.6835215091705,1184.0,-2172.0,16164.0,291.0,-357.0,-358.0,-0.9014518583580884,-0.4078336177910403,0.14295798419000802,-0.02488577944428927
-3598.6991028785706,1288.0,-2312.0,16400.0,274.0,-286.0,110.0,-0.8874256277062722,-0.4281600556986036,0.1686344532743021,-0.026779528807930875
-3598.7147221565247,1576.0,-2188.0,16852.0,205.0,-126.0,468.0,-0.8759977422416512,-0.43678895944349705,0.1951571006382601,-0.06129491468518849
-3598.7302877902985,2016.0,-1964.0,16984.0,175.0,65.0,659.0,-0.8654655567420928,-0.4376250403966829,0.2139477940504322,-0.11696168403308423
-3598.7459015846252,1692.0,-1572.0,16836.0,144.0,208.0,698.0,-0.8550313796919482,-0.43225340208881496,0.22290293288082333,-0.1799794950483414
-3598.761510848999,1628.0,-1200.0,16496.0,136.0,508.0,611.0,-0.8481849648990933,-0.4213080217786373,0.20533376969204348,-0.2468194869295162
-3598.7771060466766,1612.0,-1084.0,16360.0,37.0,185.0,458.0,-0.8395833133597651,-0.4112760286929219,0.20742699165541362,-0.28796862899142744
-3598.792699813843,1460.0,-1132.0,16232.0,-29.0,40.0,339.0,-0.8325485371231043,-0.40163382531860975,0.21723089407279014,-0.313630263773214
-3598.8082756996155,1456.0,-1148.0,16336.0,-34.0,-101.0,117.0,-0.8286368065571961,-0.3994784987522653,0.2295092598908081,-0.3179677208109368
-3598.823916196823,1296.0,-1196.0,16476.0,-37.0,-68.0,-59.0,-0.8302659587064873,-0.3996685703555107,0.23331110185948772,-0.31062743187344477
-3598.8394927978516,1180.0,-1268.0,16616.0,-256.0,31.0,-166.0,-0.8441173505635382,-0.3833302359728831,0.23205115406715998,-0.2944080341340323
-3598.855093717575,1532.0,-944.0,16552.0,5.0,68.0,-297.0,-0.8527517662830008,-0.38763743279687,0.21681385911951906,-0.2748515895707645
-3598.8706822395325,1220.0,-896.0,16376.0,95.0,1.0,-380.0,-0.8582683290038459,-0.40144771932046147,0.2014043725842139,-0.24829716628529103
-3598.8862628936768,1196.0,-964.0,16436.0,98.0,-245.0,-257.0,-0.8557560629220204,-0.4182073729194095,0.20845120705418937,-0.22210864072723557
-3598.9018580913544,948.0,-1116.0,16436.0,110.0,-66.0,-528.0,-0.8599117318779086,-0.4366333714413582,0.1916894125829523,-0.18209415538696347
-3598.9175288677216,1264.0,-1372.0,16416.0,141.0,-116.0,-538.0,-0.8601956409696899,-0.4573138666651466,0.17737840530064128,-0.1395148305576094
-3598.9331936836243,1152.0,-1468.0,16540.0,143.0,-56.0,-448.0,-0.8584489874849264,-0.4750810600921839,0.16177364538771943,-0.1057951316732472
-3598.9487867355347,1420.0,-1636.0,16696.0,125.0,87.0,-257.0,-0.8566818275522992,-0.48692697264808094,0.14335817921248112,-0.09190648563790084
-3598.9643824100494,1456.0,-1692.0,16672.0,160.0,155.0,-182.0,-0.8531185728314689,-0.4995886770770002,0.1226817913859771,-0.0868851684050733
-3598.979999780655,1480.0,-1716.0,16716.0,251.0,249.0,-165.0,-0.8457082012684318,-0.5176817477720235,0.09496544780056726,-0.08811815962135199
-3598.99560713768,1380.0,-1672.0,16552.0,311.0,278.0,-96.0,-0.8342245040006906,-0.5387500510740617,0.06765476881006612,-0.09612851631932338
-3599.011281490326,828.0,-1520.0,16976.0,443.0,269.0,-100.0,-0.8150660368183281,-0.5685759480174769,0.039596052485398124,-0.10402355304864706
-3599.026843547821,1368.0,-1332.0,16392.0,417.0,322.0,-42.0,-0.795129055971551,-0.5946801662453363,0.010809317063277828,-0.1183572680017363
-3599.0424406528473,1384.0,-1340.0,16472.0,389.0,379.0,51.0,-0.7739988428563847,-0.6168742404344179,-0.016836834966293193,-0.1418043854531844
-3599.0580036640167,1288.0,-1236.0,16356.0,309.0,442.0,12.0,-0.7558309618177393,-0.6314639289806835,-0.049807277371547096,-0.16580741441438318
-3599.073572397232,1224.0,-1264.0,16452.0,256.0,460.0,0.0,-0.7390443782974501,-0.6408929024159089,-0.08375272069218172,-0.1898820062999792
-3599.089156627655,1152.0,-1164.0,16608.0,260.0,561.0,-55.0,-0.7203550773710713,-0.6468951925861088,-0.12711853882600202,-0.21553665442666822
-3599.1047551631927,1160.0,-1000.0,16424.0,245.0,520.0,-104.0,-0.7018958979732738,-0.650403773231871,-0.17004622075523632,-0.23537494127646197
-3599.120324611664,1256.0,-1120.0,16336.0,193.0,763.0,-167.0,-0.6814631106264357,-0.6423832878382073,-0.22963865288821703,-0.26498647033613315
-3599.1359395980835,1208.0,-1200.0,16188.0,163.0,338.0,-163.0,-0.6689863412520961,-0.640485376958757,-0.2624436185467305,-0.2708488585987232
-3599.1515271663666,1180.0,-1244.0,16460.0,178.0,212.0,-204.0,-0.6587979938939333,-0.6408113208485148,-0.29026026729232385,-0.26663651577587677
-3599.1671040058136,1164.0,-1092.0,16808.0,160.0,157.0,-326.0,-0.6531616158786159,-0.6376289025956783,-0.3210095792813314,-0.2525116554281983
-3599.1826865673065,1132.0,-1084.0,16512.0,166.0,164.0,-324.0,-0.6461689474235535,-0.6339308416699143,-0.3517905997708435,-0.23841298890387919
-3599.198257446289,1088.0,-1120.0,16340.0,115.0,191.0,-403.0,-0.641900677164301,-0.6234845994192727,-0.38689640889057714,-0.22257952226244118
-3599.213855266571,1112.0,-1024.0,16380.0,13.0,104.0,-471.0,-0.6463504914967593,-0.6056737992213971,-0.4181884169520086,-0.2012678290382972
-3599.229407787323,1160.0,-1160.0,16328.0,-22.0,-251.0,-525.0,-0.665132462400981,-0.5888452738896914,-0.43078636871386405,-0.1590067778697016
-3599.244960784912,1236.0,-1308.0,16572.0,-38.0,56.0,-481.0,-0.6711472341023224,-0.5671925301191802,-0.45776654809886175,-0.13529157910031891
-3599.2605159282684,1192.0,-1416.0,16520.0,-101.0,74.0,-507.0,-0.6785684281025903,-0.5395114777804683,-0.48544804559871235,-0.11319208784144555
-3599.2760951519012,1120.0,-1304.0,16584.0,-202.0,82.0,-179.0,-0.6862629510665446,-0.5189244433079436,-0.4965250007301899,-0.11499351190768549
-3599.2917239665985,1004.0,-1716.0,16620.0,-206.0,-51.0,-175.0,-0.6994551903749856,-0.4992964408284033,-0.49911893967067633,-0.11111158758473917
-3599.3073246479034,776.0,-1412.0,16256.0,-149.0,-134.0,-134.0,-0.7130269629057044,-0.48547956646651164,-0.49515132305479215,-0.103572718367551
-3599.3229031562805,1156.0,-1200.0,16292.0,-80.0,-227.0,-251.0,-0.728261037119498,-0.4714123817778478,-0.4906328368556966,-0.08176580898579375
-3599.338474750519,1044.0,-1264.0,16600.0,-30.0,-238.0,-270.0,-0.7413477865791681,-0.45933438418836237,-0.48607701902248557,-0.05607597002888737
-3599.354048013687,1356.0,-1116.0,16564.0,-58.0,-136.0,-293.0,-0.7506717558629261,-0.44355414972779,-0.4884542861680713,-0.03411805288946851
-3599.3696262836456,1120.0,-1244.0,16492.0,-109.0,-111.0,-320.0,-0.7603136616274617,-0.42281305925605345,-0.49291996633309454,-0.013496653487418069
-3599.3851923942566,1128.0,-1400.0,16576.0,-166.0,-100.0,-271.0,-0.7708390504521337,-0.40000152781575465,-0.495787112031201,0.001037105045843911
-3599.4007647037506,1200.0,-1640.0,16596.0,-250.0,-166.0,-344.0,-0.7861987629504206,-0.3679006245944196,-0.4961592033471468,0.01914890315889891
-3599.4163818359375,1108.0,-1668.0,16740.0,105.0,-202.0,-322.0,-0.7906733036023985,-0.36052378343089164,-0.49206445812830285,0.052257990757819214
-3599.4319891929626,1072.0,-1580.0,16540.0,93.0,-90.0,-215.0,-0.7905473360841223,-0.3571244173726497,-0.4919686755791573,0.0739180774603434
-3599.4475457668304,1072.0,-1512.0,16448.0,19.0,99.0,-182.0,-0.7845065254068835,-0.35111405013986424,-0.5041600991091028,0.0842082528894854
-3599.4631094932556,964.0,-1532.0,16292.0,-51.0,114.0,-137.0,-0.7800495451318278,-0.3423015950641287,-0.5163655816722839,0.08785733447143562
-3599.478650331497,956.0,-1344.0,16256.0,-90.0,88.0,-81.0,-0.778190282086264,-0.33308908288793504,-0.5253144946354145,0.08669619053519173
-3599.494213819504,936.0,-1396.0,16584.0,-78.0,61.0,-27.0,-0.7775309453130508,-0.3269235177253938,-0.5307027670894987,0.08319384377582861
-3599.509805202484,1088.0,-1476.0,16432.0,6.0,84.0,14.0,-0.77365437129306,-0.3285047809418173,-0.5358369504269981,0.0801391616789397
-3599.5253846645355,1180.0,-1560.0,16724.0,6.0,140.0,2.0,-0.7669965739377222,-0.3298844669073248,-0.5450446623622882,0.07628112539446108
-3599.5409364700317,1176.0,-1560.0,16600.0,42.0,166.0,-255.0,-0.7560254290199215,-0.32148281038672655,-0.5629156239402641,0.09055580392795724
-3599.5567061901093,1020.0,-1332.0,15816.0,135.0,174.0,-59.0,-0.7431793136105599,-0.3287374359535723,-0.5747711610779387,0.0961993680703056
-3599.572294473648,924.0,-1316.0,16232.0,133.0,42.0,-123.0,-0.7362293774532008,-0.3314395728125484,-0.5797333346377954,0.10965114709135307
-3599.587910890579,848.0,-1204.0,16364.0,107.0,-87.0,-193.0,-0.7356333934353696,-0.3275831813209476,-0.5784792110494571,0.12997912202352882
-3599.6034717559814,960.0,-1192.0,16372.0,90.0,-56.0,-256.0,-0.7328703342974078,-0.31964353285666286,-0.5809129236721854,0.15254265016824234
-3599.619117975235,1060.0,-1288.0,16536.0,-9.0,-60.0,-12.0,-0.736093900028677,-0.31759285954956146,-0.5774201437499874,0.15455265606080149
-3599.634699821472,1064.0,-1408.0,16488.0,-38.0,-88.0,-346.0,-0.7366530907465213,-0.2963141225632659,-0.5814831886454024,0.17724972774572834
-3599.6502673625946,1064.0,-1436.0,16480.0,-28.0,-171.0,-391.0,-0.7395904907025963,-0.2717681974752146,-0.5805231334595973,0.20528235292303193
-3599.6658284664154,1032.0,-1552.0,16828.0,64.0,-94.0,-419.0,-0.7348983940598607,-0.25273799588611107,-0.5827178049724375,0.23767165504496746
-3599.681385040283,1120.0,-1792.0,16640.0,75.0,-73.0,-373.0,-0.7288983328184776,-0.23686265349224947,-0.5842599399900884,0.26691501703319825
-3599.6969492435455,1160.0,-1404.0,16420.0,122.0,-11.0,-279.0,-0.7202782422016312,-0.22999872390196596,-0.5861612016309174,0.2910582184323173
-3599.712530374527,1064.0,-1556.0,16524.0,128.0,23.0,-237.0,-0.7104075705621355,-0.2263815720588399,-0.5888314948296504,0.3120095162280343
-3599.728086233139,1012.0,-1544.0,16436.0,160.0,252.0,-173.0,-0.6893647662195249,-0.23411024255845483,-0.6031300133161612,0.3258877114307447
-3599.743714570999,1032.0,-1600.0,16524.0,219.0,42.0,-69.0,-0.6806655749124219,-0.24474292259887148,-0.600600977535669,0.3406959682034757
-3599.759293079376,848.0,-1588.0,16472.0,230.0,45.0,-67.0,-0.6713387855586647,-0.25611761900155844,-0.5976198611928366,0.35575061735637875
-3599.7748699188232,1092.0,-1504.0,16600.0,264.0,86.0,-73.0,-0.6585659066069525,-0.27030670034522297,-0.5957977751494882,0.37182017902523845
-3599.790453195572,1104.0,-1416.0,16308.0,230.0,72.0,-11.0,-0.6489811337449316,-0.28516976784665377,-0.5924938427508869,0.3826914394805768
-3599.806030035019,1064.0,-1380.0,16500.0,198.0,52.0,35.0,-0.6425130841046668,-0.29982261172031033,-0.5877534724964051,0.38965265791976716
-3599.821613073349,1120.0,-1396.0,16320.0,236.0,55.0,70.0,-0.6358269864668786,-0.31837997720059685,-0.5807367406915412,0.3963622981681795
-3599.8371863365173,1084.0,-1336.0,16196.0,212.0,42.0,251.0,-0.6363093436223389,-0.34411400688893334,-0.5684205516119741,0.3919107627852164
-3599.8527612686157,1036.0,-1380.0,16428.0,216.0,-55.0,18.0,-0.6331295438670063,-0.35498560288038855,-0.5572330079018464,0.40326613710435005
-3599.868339061737,1112.0,-1320.0,16388.0,201.0,-101.0,-19.0,-0.6311057445991487,-0.3614717579860383,-0.5449621663938997,0.4172049190885751
-3599.8839614391327,1208.0,-1240.0,16396.0,162.0,-72.0,-249.0,-0.6202129124243148,-0.3557271154488483,-0.5426624432914824,0.44080793463538004
-3599.899540424347,1216.0,-1248.0,16476.0,145.0,-59.0,-62.0,-0.6161336959713207,-0.35825501449186664,-0.5356573443879213,0.45288389536771156
-3599.9151515960693,1212.0,-1032.0,16140.0,160.0,-81.0,-109.0,-0.6105862725266681,-0.35842396905272667,-0.528195246912306,0.46874987290635883
-3599.930816411972,1284.0,-1180.0,16476.0,181.0,-77.0,-138.0,-0.602772695390453,-0.3583983602955584,-0.5207870546768469,0.48682290076597484
-3599.9464416503906,1180.0,-1228.0,16608.0,206.0,-3.0,-127.0,-0.5910130098001727,-0.3631725850547368,-0.5156312895857682,0.5029251126278331
-3599.962046146393,1212.0,-1312.0,16768.0,181.0,16.0,-113.0,-0.5795682738243565,-0.36797768270519693,-0.5119026753096267,0.5163803753223161
-3599.977619409561,1060.0,-1368.0,16476.0,138.0,61.0,-128.0,-0.5666294348246002,-0.3718474071079563,-0.5127035755450484,0.5270632154123138
-3599.993221282959,1020.0,-1444.0,16444.0,165.0,21.0,-66.0,-0.5573007141074893,-0.3778879483049975,-0.5081327203360599,0.5370453901720018
-3600.0088999271393,936.0,-1348.0,16320.0,181.0,-33.0,-91.0,-0.5485098687491713,-0.38096059606220595,-0.5008650098066864,0.5505816833895254
-3600.0245072841644,704.0,-956.0,16560.0,194.0,-106.0,-183.0,-0.5377991985801378,-0.37694740010494243,-0.4922950862941503,0.5712514573909824
-3600.0400834083557,1104.0,-1152.0,16372.0,73.0,-230.0,-75.0,-0.5414746711890357,-0.3655006979279206,-0.48010557481695787,0.5854169943763223
-3600.055683374405,1116.0,-1208.0,16376.0,26.0,-247.0,-61.0,-0.5478072149237115,-0.35136593936068694,-0.46882377287427285,0.5972047403718769
-3600.071293592453,1152.0,-1240.0,16284.0,-30.0,-304.0,-55.0,-0.5581593699058235,-0.33160904641714,-0.45725617541709634,0.6077913689446227
-3600.0868713855743,1112.0,-1256.0,16320.0,-51.0,-382.0,-54.0,-0.5717502759456125,-0.3064186250479658,-0.44253582119940743,0.6191698435285721
-3600.1024420261383,1168.0,-1372.0,16620.0,-21.0,-345.0,-116.0,-0.5791377792331759,-0.28198831843365596,-0.4292062625733604,0.633138219585291
-3600.1180114746094,1308.0,-1508.0,16392.0,13.0,-349.0,246.0,-0.6051271613510246,-0.27226704729756546,-0.40436876192119464,0.629426467455442
-3600.133581638336,1224.0,-1588.0,16828.0,38.0,-285.0,75.0,-0.6182570480654154,-0.26104867628195805,-0.3851687115710106,0.6334483994419782
