programtime,ax,ay,az,gx,gy,gz,q0,q1,q2,q3
-3586.9332327842712,-2700.0,10748.0,-12252.0,-516.0,-1005.0,1730.0,0.9841505061274465,-0.04400081699088507,-0.08623362326901986,0.14857816667035076
-3586.9488792419434,-2984.0,11244.0,-11972.0,-574.0,-770.0,1824.0,0.9374980351914274,-0.0952044201389863,-0.1503176174406364,0.29906214452047114
-3586.964513063431,-3156.0,12036.0,-11188.0,-846.0,-1068.0,2064.0,0.8432381911902335,-0.15968324499498618,-0.23709108228347048,0.4552344812157216
-3586.9801642894745,-3504.0,11628.0,-11072.0,-967.0,-1034.0,1836.0,0.7208518335598725,-0.2231029846429538,-0.31949396141516617,0.5731677772834233
-3586.9958431720734,-3696.0,11536.0,-10848.0,-1071.0,-972.0,1966.0,0.5619083850729873,-0.29017858834821253,-0.3872456616431501,0.6708920562858567
-3587.011463880539,-3776.0,11400.0,-11044.0,-843.0,-770.0,1812.0,0.401391735202709,-0.341856919163621,-0.4211965482932188,0.7379783123078849
-3587.027104139328,-3584.0,11436.0,-11388.0,-542.0,-654.0,1227.0,0.27967194777899096,-0.36092546016478294,-0.43871969099945024,0.7739776783342603
-3587.042712688446,-3036.0,12204.0,-11300.0,-310.0,-275.0,588.0,0.21911520973758233,-0.3718561113076256,-0.44698249249801403,0.7835293285800403
-3587.058336496353,-2460.0,12252.0,-11284.0,-136.0,154.0,-69.0,0.22528596934487716,-0.3823920904114577,-0.45551228416368755,0.7717066023969696
-3587.073994398117,-2412.0,11760.0,-11264.0,158.0,88.0,-624.0,0.2755477582283805,-0.35999106122931307,-0.46325152761515986,0.7614971378360709
-3587.0896003246307,-2084.0,12496.0,-10648.0,114.0,402.0,-1431.0,0.3871605479351758,-0.323515248926574,-0.48689830875786466,0.7130039486308911
-3587.105217933655,-2640.0,12724.0,-10280.0,-175.0,619.0,-1571.0,0.5007744038990477,-0.2980286643803397,-0.5156505232189892,0.6280990761903784
-3587.120859861374,-3076.0,11464.0,-11064.0,-95.0,809.0,-1125.0,0.5920005626200026,-0.29382322220387586,-0.5111087345082496,0.5495189800732161
-3587.1364719867706,-3576.0,11424.0,-11420.0,58.0,530.0,-804.0,0.6533284981380397,-0.2794480599789837,-0.49989128587483833,0.49515589222090123
-3587.1521112918854,-3988.0,11224.0,-11364.0,-70.0,48.0,-4.0,0.6538139475258429,-0.2853743646348119,-0.5003675146067431,0.49063341137372857
-3587.167738199234,-3848.0,10864.0,-11536.0,-131.0,-220.0,229.0,0.6307864382170043,-0.293346307427078,-0.5127091432318909,0.5031756628920202
-3587.183343887329,-4128.0,11000.0,-11368.0,-84.0,-261.0,379.0,0.5997400959401498,-0.30327228212673085,-0.5207346297904751,0.5264723977117145
-3587.198963165283,-3812.0,11644.0,-11672.0,-93.0,-188.0,498.0,0.5651496035444765,-0.3218385285540494,-0.5211899275135152,0.5526182648177151
-3587.2146508693695,-3136.0,11056.0,-11680.0,-247.0,-131.0,441.0,0.5303490588833449,-0.3474790782259126,-0.5267368300386226,0.5661594102526988
-3587.2302634716034,-2672.0,11536.0,-11448.0,-345.0,25.0,258.0,0.5078448418217594,-0.3763578222389297,-0.5345219101292988,0.5610122403890382
-3587.2458713054657,-2492.0,12200.0,-11208.0,-747.0,190.0,-57.0,0.49375565163814195,-0.41524893529620904,-0.5633577253308949,0.5161412127710389
-3587.26153755188,-2748.0,11464.0,-11328.0,-744.0,307.0,-230.0,0.49083442496336327,-0.44872493541337205,-0.590498820016244,0.4572074399750873
-3587.2771878242493,-3008.0,11912.0,-11240.0,-761.0,444.0,-232.0,0.4915062669244284,-0.485636106515382,-0.609098297408469,0.38933074078050567
-3587.2928099632263,-3324.0,11576.0,-11244.0,-654.0,185.0,-76.0,0.4752254280453173,-0.5151007728249916,-0.6255820761738231,0.34275217336187697
-3587.308432817459,-3540.0,11240.0,-11644.0,-375.0,45.0,137.0,0.4562965485598472,-0.5392312427380778,-0.6284771361126165,0.3256372460441269
-3587.3240242004395,-3612.0,11500.0,-11404.0,-244.0,56.0,161.0,0.44300977105147116,-0.5592636368786321,-0.6254758642156566,0.31582664628223855
-3587.339626312256,-3464.0,11956.0,-10924.0,-190.0,-104.0,173.0,0.4230179673495837,-0.5730968764040816,-0.6261829880062609,0.3170341229061349
-3587.3553013801575,-3060.0,12124.0,-10828.0,-210.0,-155.0,252.0,0.39672278030872693,-0.590113848291958,-0.6248711451988355,0.32235498062860085
-3587.370913028717,-3104.0,11456.0,-11068.0,-169.0,-293.0,136.0,0.3678670814121368,-0.594919288215097,-0.6325163212244342,0.3326679339937454
-3587.386521577835,-2860.0,11744.0,-11124.0,-81.0,-309.0,127.0,0.34260463336437114,-0.5953719212195113,-0.6379751625548261,0.34805464022735844
-3587.4021558761597,-2724.0,12164.0,-11244.0,-353.0,-23.0,-152.0,0.327260064685616,-0.596506851737735,-0.6569769916730112,0.3247486078556498
-3587.417802333832,-2956.0,11868.0,-11096.0,-280.0,121.0,-277.0,0.327103469054745,-0.5917428089935188,-0.6755046139782275,0.2941722030222045
-3587.433417081833,-3012.0,12208.0,-10812.0,-322.0,393.0,-851.0,0.3540182964483861,-0.5588289006367965,-0.7139032623285028,0.229615847949511
-3587.4490468502045,-3496.0,11816.0,-10868.0,-324.0,481.0,-827.0,0.3831135686980266,-0.5249626598020886,-0.7430627173278254,0.15967466114060597
-3587.464731693268,-3564.0,11824.0,-11080.0,-129.0,247.0,-577.0,0.4004707200263432,-0.49455809075845436,-0.7619325418517511,0.12039227107362067
-3587.480341911316,-3520.0,11424.0,-11316.0,-123.0,83.0,-418.0,0.4045943907244006,-0.47160235551065943,-0.7778754536035454,0.09383163620137701
-3587.495992898941,-3376.0,11180.0,-11408.0,-157.0,59.0,-280.0,0.40408542985070367,-0.45844977772805234,-0.7883775926324719,0.07070741204781661
-3587.5116052627563,-3096.0,11812.0,-11288.0,-309.0,52.0,-353.0,0.39696196278072854,-0.44500595347448096,-0.8019867183732715,0.03475924381240522
-3587.527272939682,-3120.0,11652.0,-11088.0,-444.0,56.0,-269.0,0.38386829101174635,-0.44126789987640863,-0.8110886892943178,-0.007931821556921577
-3587.5428681373596,-3340.0,11108.0,-11300.0,-416.0,145.0,-348.0,0.3772164116079944,-0.42994530733694797,-0.8184529556905517,-0.054676968038889044
-3587.558501958847,-3572.0,11452.0,-11212.0,-407.0,173.0,-374.0,0.3718356563333625,-0.41525446983138176,-0.8238860493913108,-0.10253656705085289
-3587.5740880966187,-3396.0,12184.0,-10880.0,-401.0,223.0,-757.0,0.3652666347331708,-0.3706980723839383,-0.8380830721713871,-0.16364592515949314
-3587.589706659317,-3224.0,11692.0,-11232.0,-301.0,74.0,-287.0,0.35637289259169413,-0.35795322434509397,-0.840232156657209,-0.19717447483372427
-3587.6053700447083,-3292.0,11776.0,-10964.0,92.0,-1.0,-464.0,0.3506592032138544,-0.3207521189528271,-0.8557067573097751,-0.2047489850599646
-3587.620994091034,-3208.0,12580.0,-10404.0,-38.0,186.0,-527.0,0.3534270467365727,-0.27883105838692723,-0.8631405883377916,-0.22875945505657597
-3587.636608839035,-3488.0,12040.0,-10700.0,45.0,84.0,-424.0,0.3518991035112121,-0.24357396935874756,-0.8712274852433991,-0.24041924081756028
-3587.652248620987,-3224.0,11988.0,-10836.0,181.0,-153.0,-295.0,0.337499967497905,-0.21859133190729274,-0.885598365715225,-0.23243738123725213
-3587.6679253578186,-3204.0,11952.0,-11612.0,118.0,-134.0,-332.0,0.3222384787188862,-0.19198491673992932,-0.8978677441732561,-0.23051609173879517
-3587.6835463047028,-2968.0,11492.0,-11964.0,-86.0,-38.0,-544.0,0.3062647056595049,-0.15227563831841934,-0.9053441760404709,-0.2517260076980837
-3587.6991608142853,-3080.0,10612.0,-12368.0,-29.0,67.0,-329.0,0.30354348636759015,-0.12543967145632293,-0.9069760660527706,-0.26366770055541244
-3587.7148106098175,-3192.0,10944.0,-12456.0,110.0,-194.0,-85.0,0.28710123489105965,-0.12014040072576536,-0.9154545206993969,-0.2551121039239782
-3587.73046708107,-3772.0,10660.0,-12216.0,-15.0,-497.0,450.0,0.2565464600747967,-0.1671594603168693,-0.921348893201428,-0.2394949804195638
-3587.746072292328,-3500.0,11500.0,-11860.0,-243.0,-617.0,755.0,0.21807580122192266,-0.24518542750995034,-0.9156119375487627,-0.2323399037539182
-3587.7616877555847,-3636.0,10716.0,-12324.0,-386.0,-521.0,708.0,0.18163466439047157,-0.3184891687308683,-0.8994556072338256,-0.2378089752480157
-3587.777314901352,-3384.0,10616.0,-12680.0,-373.0,-222.0,599.0,0.1656525970998206,-0.3751889607840212,-0.8768172996284904,-0.25096590177172046
-3587.792915582657,-3092.0,10884.0,-13224.0,73.0,-216.0,297.0,0.15765444289662336,-0.40131855971519165,-0.8714145169815037,-0.2339342425917423
-3587.808583021164,-2100.0,11100.0,-14156.0,401.0,213.0,-279.0,0.18172509531001663,-0.3697766867691607,-0.885552756750063,-0.21456352595199216
-3587.824158191681,-2172.0,12628.0,-14952.0,178.0,1351.0,-1364.0,0.26239102384781277,-0.23289711151574605,-0.8989064515824404,-0.2624444271749435
-3587.83980178833,-3208.0,14004.0,-13524.0,-1513.0,1862.0,-1965.0,0.32090465196621293,-0.06818988386096839,-0.8316808465499246,-0.4479702150450097
-3587.855466604233,-3952.0,13804.0,-13016.0,-229.0,1864.0,-5118.0,0.2297787614659939,0.3339765300164005,-0.7233598610026138,-0.5589381984330982
-3587.871121406555,2608.0,7448.0,-23920.0,-447.0,2287.0,-3813.0,0.1873888291730852,0.6310251532785909,-0.5075559211846263,-0.5559493407688302
-3587.886729478836,-6860.0,5128.0,-17240.0,2247.0,2189.0,-3232.0,0.0034402487432839525,0.853620868283059,-0.3749390037373363,-0.36158031112978817
-3587.9023451805115,-4564.0,2072.0,-17708.0,926.0,2555.0,-684.0,-0.003424611259140195,0.9295396415959516,-0.34237352595162196,-0.13683820908959562
-3587.918029308319,-2436.0,3032.0,-17816.0,5039.0,796.0,1053.0,-0.34190450125682315,0.8249016747909174,-0.4444934454745915,0.07116260167805134
-3587.9337022304535,-6008.0,568.0,-16424.0,7785.0,2220.0,-839.0,-0.661117051060345,0.49856453467208717,-0.32786310843912536,0.4548224177512722
-3587.9494020938873,-4992.0,2896.0,-15308.0,10093.0,2547.0,-665.0,-0.7402551412807643,-0.12254968780017779,-0.03362171244191997,0.6602071495219871
-3587.965064048767,-17740.0,-8260.0,-14276.0,24596.0,-22745.0,32767.0,-0.5776616690972526,-0.11812923125867485,0.760840415007299,-0.2710615127042787
-3587.9807348251343,13568.0,16668.0,-11340.0,8190.0,6214.0,-7856.0,-0.7237463317108804,-0.6005575414288394,0.11460627906649695,-0.3199801362061781
-3587.9963104724884,-3292.0,-6076.0,-18424.0,11128.0,2268.0,69.0,-0.11436951405215634,-0.880356978354156,-0.23844021996032905,-0.39374797323146093
-3588.01194190979,-3448.0,6216.0,-16180.0,16086.0,520.0,-1678.0,0.6209961709504944,-0.5710795709877563,-0.5347804767286263,-0.04734681589260008
-3588.0275418758392,-3888.0,6596.0,-15544.0,11995.0,3087.0,-5650.0,0.8625365649277356,0.22888233595146376,-0.4500047186447718,0.03375357239616827
-3588.0431406497955,-6824.0,5108.0,-15868.0,14469.0,221.0,-1429.0,0.3628155285129652,0.850181395298622,-0.22423559820063854,0.30866629854512445
-3588.058737039566,-4208.0,7488.0,-14916.0,14571.0,272.0,-2097.0,-0.40322420792554486,0.8262681830699927,0.2042227908710708,0.3361311938482665
-3588.074339866638,-3132.0,9768.0,-14556.0,14084.0,660.0,-3025.0,-0.8347273754729339,0.16014863917512814,0.5054333631499205,0.1487270567898895
-3588.0900111198425,-2360.0,11340.0,-13572.0,13144.0,1035.0,-3796.0,-0.6503707424632676,-0.6271285414365547,0.4191396344208379,-0.08971987918518384
-3588.1056118011475,-1700.0,11828.0,-12776.0,12065.0,2462.0,-5833.0,-0.08087745806456838,-0.9693501266955794,-0.08641597592123944,-0.21529386372550804
-3588.1212089061737,-2356.0,12752.0,-11916.0,9874.0,3029.0,-5691.0,0.46706863597993825,-0.6545223892459084,-0.5400238473862112,-0.24863944882874353
-3588.136808156967,-3560.0,12944.0,-12048.0,8863.0,2004.0,-3839.0,0.7459831522759314,-0.05212085404311381,-0.659415722170902,-0.07722343198867009
-3588.1524300575256,-3208.0,13244.0,-12320.0,7034.0,1835.0,-3713.0,0.6991076673679146,0.51476450376511,-0.4922347995906854,0.06301489635610788
-3588.1680750846863,-3000.0,12360.0,-12608.0,5772.0,1161.0,-2833.0,0.43875943366651043,0.8533860480863324,-0.22793826861408664,0.1651258853161656
-3588.1836726665497,-2240.0,11000.0,-12872.0,5885.0,506.0,-1037.0,0.022513137766839126,0.9676318924301213,-0.04114341885332819,0.24796955148778485
-3588.1992938518524,-1556.0,10312.0,-13032.0,4836.0,-157.0,216.0,-0.36011496855842035,0.9025379958324994,0.04147714072439012,0.23242638037914762
-3588.2148809432983,-1348.0,11120.0,-12140.0,4172.0,869.0,-794.0,-0.6319275076425596,0.7024461327926257,0.15095734761427648,0.29060098900487275
-3588.230467557907,-2504.0,10656.0,-12968.0,3206.0,1474.0,-1511.0,-0.7675357127112062,0.44420059815657487,0.2310892688872945,0.4002155770523898
-3588.2460556030273,-2416.0,10048.0,-13552.0,2557.0,2184.0,-2292.0,-0.7826432939925351,0.14177848836941098,0.24799276429852338,0.5530532736181715
-3588.2616806030273,-2860.0,9300.0,-14336.0,1802.0,2139.0,-2298.0,-0.7058238962500699,-0.1281692044769117,0.20746766438500397,0.6650883029649204
-3588.277326107025,-4124.0,8764.0,-14280.0,3914.0,-456.0,1570.0,-0.6984629641015542,-0.29502217267791964,0.4505238412738212,0.4713169568886226
-3588.2929363250732,996.0,8712.0,-15064.0,523.0,4854.0,-7285.0,-0.45749328475798356,-0.6457182507590865,-0.008843992881218846,0.6112852188854996
-3588.30850481987,-1424.0,6224.0,-15032.0,1068.0,3690.0,-4389.0,-0.1428347332817242,-0.7860360251592504,-0.3087206323298507,0.5161755295382008
-3588.324106693268,-3072.0,8464.0,-13968.0,1748.0,1228.0,-357.0,0.02568474932982242,-0.838836600427918,-0.2650352842506351,0.47481548999225237
-3588.3397221565247,-3112.0,9460.0,-12536.0,981.0,-68.0,1588.0,0.02953996851125395,-0.8593348422255321,-0.10680227042050473,0.4992637521697315
-3588.3553421497345,-3564.0,9524.0,-11820.0,1073.0,-1643.0,5043.0,-0.11325196689354726,-0.7523870221223492,0.2839478179372781,0.5834907005473736
-3588.370940923691,-2264.0,10552.0,-11436.0,432.0,-2490.0,7541.0,-0.3345834111285169,-0.364010542021986,0.6784079632397741,0.5434269975878335
-3588.3865456581116,-856.0,11224.0,-11592.0,-1657.0,-901.0,5331.0,-0.5259932121538616,0.03813963726512889,0.7135193302293085,0.46126638098442213
-3588.4021692276,-1136.0,11516.0,-13092.0,-4612.0,873.0,1880.0,-0.5859912578678347,0.3034256826004648,0.4407853023186667,0.6084861691943019
-3588.417788028717,-1864.0,9620.0,-14508.0,-6996.0,1977.0,-1279.0,-0.34360421600253016,0.42625194557667195,0.0019550849872348912,0.8368043972638295
-3588.433380842209,-2856.0,5480.0,-15424.0,-6918.0,-147.0,-7861.0,0.36018923597480434,0.47485788068865487,-0.15228731849771135,0.7884048960150757
-3588.448965072632,-10064.0,4040.0,-17200.0,-6774.0,-4858.0,10921.0,-0.11217572489952457,0.28899990595421193,-0.7837829919174868,0.5381262702030033
-3588.4645957946777,-500.0,8976.0,-13680.0,-4031.0,-2788.0,-1944.0,-0.09978987326172803,0.5381616722500133,-0.8147036542356207,0.19152532858764107
-3588.4801754951477,-1664.0,6432.0,-18736.0,-5820.0,-386.0,-2018.0,0.1584293227390749,0.6503773928662698,-0.7164688673516311,-0.19642239857201294
-3588.4958033561707,-3704.0,3176.0,-14416.0,-141.0,3140.0,-460.0,0.34168528002911575,0.7045548976852741,-0.6211457308094064,-0.032117700047887054
-3588.5114471912384,-1200.0,2880.0,-13804.0,8801.0,988.0,15389.0,-0.0558754005264188,0.07358517065483926,-0.8473156414917451,0.5229907895547905
-3588.52707362175,-4256.0,7516.0,-13908.0,-1568.0,1264.0,1374.0,-0.014753493382815184,-0.07639424142936738,-0.9135323515303294,0.39925542828733307
-3588.5426771640778,-7544.0,5192.0,-15848.0,-1339.0,980.0,213.0,0.046413234621963805,-0.12454564425724736,-0.9500333534277705,0.2824372877706815
-3588.5582916736603,-4236.0,4792.0,-16472.0,-1085.0,995.0,-395.0,0.1256147309561454,-0.11969648594220955,-0.9685719983849929,0.17821889508243205
-3588.5738849639893,-2908.0,6448.0,-15968.0,-992.0,1521.0,-753.0,0.2517018053928093,-0.08927643918494312,-0.9612077894326958,0.06896016315502614
-3588.5895092487335,-1692.0,7624.0,-16788.0,-841.0,1296.0,3.0,0.3504700375931721,-0.11473436564948482,-0.9294457163604457,-0.011723413652561698
-3588.605143547058,-1684.0,7272.0,-17764.0,-1000.0,1547.0,-702.0,0.45823390625201893,-0.08550047155869235,-0.8753933557414904,-0.12805400910518092
-3588.6207349300385,-1596.0,6680.0,-16528.0,-1147.0,601.0,171.0,0.4940266238498369,-0.1367791036049228,-0.8320345425949555,-0.21200870659802745
-3588.6363241672516,-2364.0,5540.0,-15120.0,-610.0,-1861.0,4948.0,0.4016841048261195,-0.5049604700368586,-0.7637476027934883,-0.018825590492562945
-3588.651938199997,168.0,9008.0,-14140.0,-1788.0,-344.0,2565.0,0.29307737855719046,-0.7128130741346894,-0.6363861914831335,-0.03187141054756462
-3588.6675288677216,-2140.0,5380.0,-15220.0,-1867.0,-832.0,3986.0,0.1317913434017325,-0.9167220993955757,-0.37678473682719127,0.01687887372424708
-3588.683117866516,-3328.0,4812.0,-15312.0,-841.0,-2465.0,6669.0,-0.022629804681420878,-0.968527584679693,0.10786021582614068,0.22317791892689332
-3588.6987011432648,-2648.0,6252.0,-14864.0,-1979.0,-1771.0,5817.0,-0.2504229296162995,-0.7643786835885987,0.4929633271460835,0.3316635983746392
-3588.714292526245,-2552.0,6708.0,-14904.0,-2241.0,-1440.0,5403.0,-0.4374216699796636,-0.3907734732547203,0.7258818170571414,0.3592408146333981
-3588.7298951148987,-3336.0,6520.0,-14924.0,-2727.0,-1905.0,7415.0,-0.5236640377864549,0.1978779240490657,0.7880848593885706,0.2560128065267737
-3588.745536804199,-1928.0,6436.0,-14888.0,-1878.0,-1572.0,6668.0,-0.4520301959944253,0.6607472882045605,0.5975198378026471,0.0452964289084615
-3588.7611808776855,-1940.0,6856.0,-14776.0,-1286.0,-1893.0,7789.0,-0.25267436769377494,0.918123894073896,0.17791142637786456,-0.2480961575787298
-3588.776784658432,-1400.0,7272.0,-15028.0,-1047.0,-1865.0,7512.0,0.019087237229743755,0.84077040706055,-0.29766174756168917,-0.451816648680296
-3588.7923674583435,-840.0,7064.0,-14700.0,-1390.0,-1278.0,6650.0,0.2998687155494151,0.5269393356611993,-0.6276308123840034,-0.48835771040690434
-3588.8079833984375,-1768.0,6484.0,-14972.0,-355.0,-2684.0,8739.0,0.42315884906713414,-0.058762488874601025,-0.8477082463363047,-0.3144428206381371
-3588.823595762253,-2196.0,6800.0,-14728.0,1385.0,-4280.0,11908.0,0.2944672447646631,-0.6730145398881365,-0.6575872053537164,0.1670914067657494
-3588.8392391204834,-2012.0,7740.0,-14448.0,1442.0,-4082.0,10524.0,-0.006263583798562018,-0.8375851236306739,-0.08751496208088518,0.5392152256776215
-3588.8548514842987,-816.0,8996.0,-14640.0,-830.0,-386.0,3694.0,-0.23142613431396142,-0.804101867454429,0.13641091137066916,0.5303340403668425
-3588.8704500198364,-1936.0,7404.0,-14440.0,-1835.0,80.0,3308.0,-0.48828429848449145,-0.6946341755775164,0.2678620328084006,0.4553149869628757
-3588.886043071747,-2272.0,6500.0,-14568.0,-760.0,-1208.0,4678.0,-0.6362992405723485,-0.4645886997334968,0.5268017267455154,0.3189993059944397
-3588.9016330242157,-832.0,7848.0,-14556.0,-796.0,-237.0,1864.0,-0.6983788463049923,-0.32322262792999784,0.5843200832356105,0.2576124223620897
-3588.917242527008,-1088.0,7748.0,-14440.0,-1103.0,747.0,550.0,-0.7736616117746641,-0.24303430799052145,0.5255492597461655,0.2572547593069071
-3588.932920217514,-1500.0,7508.0,-14608.0,-263.0,94.0,1059.0,-0.8034884849800953,-0.17821171899127256,0.5335144945498693,0.19495928247653205
-3588.9485368728638,-1284.0,7684.0,-14572.0,310.0,-252.0,843.0,-0.7984550925308573,-0.15608747764776013,0.5678819550373988,0.12496499380227036
-3588.964179992676,-812.0,8128.0,-14308.0,177.0,706.0,-990.0,-0.8153773611114424,-0.2240788167737103,0.5044364018073291,0.1746206155982425
-3588.979858636856,-1064.0,7456.0,-14648.0,-64.0,1053.0,-1432.0,-0.8310371391456037,-0.29527418011003287,0.3959803279612945,0.25571470780677413
-3588.9954705238342,-1732.0,7096.0,-14836.0,574.0,281.0,-340.0,-0.816572098873608,-0.3544419658664805,0.3790436426315791,0.25279797695875433
-3589.0110890865326,-1516.0,7196.0,-14748.0,410.0,482.0,-876.0,-0.7967991786230213,-0.4216255037787246,0.32533826268946814,0.285478577723818
-3589.0266988277435,-1532.0,7276.0,-14788.0,125.0,863.0,-1719.0,-0.7629883656525557,-0.4939161929948354,0.20247393753145365,0.36455432077653316
-3589.04230761528,-1600.0,7080.0,-14992.0,-91.0,703.0,-1541.0,-0.7222855567841882,-0.53190177846917,0.08551310749097904,0.433672204515721
-3589.0579159259796,-1636.0,7028.0,-14968.0,65.0,428.0,-960.0,-0.6831154534232664,-0.5572646121306858,0.01643200542231173,0.4717408383413105
-3589.0735442638397,-1412.0,7152.0,-14720.0,-317.0,812.0,-1564.0,-0.6275778280402134,-0.5674105983561045,-0.11956747975023997,0.5195141003011098
-3589.089153289795,-1572.0,7020.0,-14728.0,-619.0,1065.0,-1803.0,-0.5552868832272795,-0.5532882773194333,-0.2899850825884475,0.5490329784018432
-3589.104736328125,-1776.0,7040.0,-14772.0,-678.0,934.0,-1616.0,-0.47973469703374116,-0.5168422576053726,-0.43922743650568713,0.5566039527671077
-3589.1203265190125,-1652.0,7112.0,-14796.0,-870.0,1108.0,-1984.0,-0.37178705345888796,-0.4484271627440862,-0.6039503115242901,0.5439958527446322
-3589.135941505432,-1676.0,7336.0,-14704.0,-1082.0,1302.0,-2541.0,-0.21725715515209856,-0.32988158313457777,-0.7702189133986503,0.500739747859948
-3589.151531934738,-1576.0,7448.0,-14824.0,-1501.0,1684.0,-3505.0,0.005553226078241801,-0.13111551915307923,-0.9103886745265892,0.39239054984933397
-3589.167152404785,-1480.0,7496.0,-14680.0,-1758.0,1957.0,-4383.0,0.2657411740032809,0.1362894493308429,-0.9313895310712709,0.20813542670889024
-3589.182808160782,-1416.0,7424.0,-14436.0,-1985.0,2283.0,-4909.0,0.503764715431154,0.40006488830206954,-0.7647753924424826,-0.03588587115938221
-3589.1984524726868,-1492.0,7248.0,-14392.0,-1953.0,2066.0,-4764.0,0.625240406413561,0.5749329855726261,-0.45146725904946194,-0.27331997785510986
-3589.2140600681305,-2312.0,6428.0,-14708.0,-1232.0,445.0,-2056.0,0.6409836403669653,0.586416487284377,-0.2883009113265706,-0.4026639551179544
-3589.229660511017,-1736.0,7600.0,-14452.0,-765.0,-880.0,2680.0,0.7286727819760845,0.43170284907219036,-0.4339836446917364,-0.3071267214852264
-3589.245260477066,-996.0,8072.0,-14400.0,-2731.0,1050.0,-4638.0,0.6736994264049297,0.41680383891474376,-0.10775491059130264,-0.6006600718967937
-3589.2608971595764,-2384.0,6260.0,-14908.0,-1495.0,-137.0,-3212.0,0.533414344918091,0.3364903048232297,0.07574397611289241,-0.7723381781824484
-3589.276525259018,-1368.0,7352.0,-14528.0,-47.0,20.0,-1782.0,0.409626855739443,0.32032108053681835,0.1305242886204394,-0.8441348556367465
-3589.292109966278,-1404.0,8072.0,-14436.0,-547.0,386.0,-1516.0,0.3056920771455831,0.30902433738001395,0.22458410581669058,-0.8721343315635383
-3589.3076848983765,-2080.0,7468.0,-14520.0,-753.0,205.0,-2082.0,0.1605694341701771,0.2592098683372017,0.3372217181834489,-0.8906790745000593
-3589.323324918747,-2504.0,9896.0,-13660.0,-2477.0,1395.0,-5609.0,-0.22828058514412025,0.1473979177438084,0.5928400622377267,-0.7580913460111626
-3589.3389098644257,-2432.0,6260.0,-14908.0,-2547.0,-305.0,-4663.0,-0.4427378522997507,-0.05733787432826242,0.7505874857579181,-0.487148836119032
-3589.3544912338257,-992.0,6500.0,-14944.0,192.0,426.0,-558.0,-0.4923137348573701,-0.08309728390260088,0.7219105886002782,-0.4791316415616879
-3589.3700783252716,-1428.0,7364.0,-14556.0,799.0,769.0,1575.0,-0.46253618345502984,0.01368791704140704,0.657856808487533,-0.594219941981519
-3589.3856916427612,-2932.0,7560.0,-14444.0,597.0,6.0,447.0,-0.4394008972094472,0.015502812801098777,0.6250022602106838,-0.6450261150204101
-3589.4013516902924,-2232.0,8132.0,-14268.0,-394.0,-61.0,-787.0,-0.47836451355027915,-0.015743338369573895,0.6488608844014118,-0.5915226894774229
-3589.4169578552246,-1796.0,7708.0,-13604.0,-1262.0,147.0,-1518.0,-0.5584396465717746,-0.040888789119044124,0.6956643842961636,-0.4500270352801144
-3589.432567834854,-1640.0,7064.0,-14520.0,-246.0,-251.0,-148.0,-0.5494687456808253,-0.04779637938739947,0.7168272199862249,-0.42656575146654296
-3589.448158979416,-1696.0,7328.0,-14508.0,507.0,239.0,1219.0,-0.513310472127558,0.012883783561675667,0.687086131759251,-0.5140612948563903
-3589.463807582855,-2488.0,7540.0,-14528.0,435.0,76.0,1018.0,-0.470387396241168,0.057541335783529685,0.6601377847883262,-0.5827888101434883
-3589.4794421195984,-2440.0,8076.0,-14396.0,-14.0,-87.0,-749.0,-0.502231568354776,0.010491744912283293,0.6669350305958041,-0.5503190347432765
-3589.495062828064,-2128.0,8160.0,-14224.0,-784.0,-86.0,-1827.0,-0.5755516700826016,-0.0647070204595497,0.6997371325376764,-0.4182358448487239
-3589.510663509369,-2024.0,7604.0,-14444.0,-742.0,56.0,-1438.0,-0.6292750960593442,-0.11218774026608073,0.7090176584050363,-0.2978602432069993
-3589.526237010956,-1620.0,7336.0,-14584.0,-115.0,213.0,-508.0,-0.6558503585041077,-0.13172971526755345,0.6946789515482152,-0.2644404349592463
-3589.5418207645416,-1684.0,7564.0,-14820.0,352.0,381.0,485.0,-0.6622990943755475,-0.11359632476222221,0.6692298013373925,-0.31715494256240007
-3589.557419538498,-1960.0,7588.0,-14428.0,425.0,422.0,655.0,-0.6625002987882825,-0.08809347238690153,0.6378540849727944,-0.38272060371996386
-3589.5730390548706,-2004.0,7560.0,-14476.0,341.0,328.0,941.0,-0.6438919020718922,-0.044408057231253135,0.6123592971840385,-0.45656021952362075
-3589.5887022018433,-2248.0,7324.0,-14520.0,667.0,424.0,1640.0,-0.5911217239332335,0.022274598139929522,0.5614906064117743,-0.5786253094043196
-3589.6043100357056,-1828.0,7248.0,-14640.0,1063.0,430.0,2670.0,-0.46465233477889417,0.11625795245309477,0.4659210807089471,-0.743975700427738
-3589.61994099617,-1852.0,7364.0,-14432.0,1347.0,484.0,3774.0,-0.23850937141105988,0.2325738565497207,0.30251828807930603,-0.8930315595634104
-3589.6355373859406,-1796.0,7300.0,-14664.0,1483.0,530.0,4492.0,0.06243065370024965,0.3341646621209443,0.07828724970945018,-0.9371806115157766
-3589.6511328220367,-1584.0,7244.0,-14672.0,1719.0,436.0,4608.0,0.3546993025625649,0.37738396511823136,-0.17854603091198604,-0.8365949213800234
-3589.666736602783,-1252.0,7572.0,-14548.0,1679.0,752.0,6274.0,0.667996783920793,0.33587778168675264,-0.4209157464612546,-0.5136110851818022
-3589.68234539032,-4740.0,8856.0,-14204.0,254.0,-229.0,1477.0,0.7119732069275958,0.2839349871116419,-0.4848432064705093,-0.42119133520354085
-3589.6980147361755,-976.0,7296.0,-14812.0,-962.0,505.0,547.0,0.7727876841489972,0.2185563199328329,-0.42945144205187097,-0.4130421154853529
-3589.7136120796204,-1996.0,6864.0,-14780.0,51.0,-160.0,2066.0,0.8267249295646332,0.13679805836392744,-0.4739882376405412,-0.27045763557833885
-3589.7291939258575,-2156.0,6664.0,-14584.0,1593.0,-2038.0,5542.0,0.7534525198293271,-0.022419985070654465,-0.639589354708078,0.15077168824541728
-3589.7447896003723,-1316.0,7180.0,-14352.0,1812.0,-2064.0,5200.0,0.5099643327152412,-0.14792842498787,-0.6597111773175764,0.5318220782942019
-3589.7603924274445,-652.0,7880.0,-14808.0,982.0,-1003.0,2388.0,0.34404335510747314,-0.18969771496873822,-0.6105690904032578,0.6876440449725213
-3589.7760212421417,-1688.0,7520.0,-14972.0,233.0,-660.0,2545.0,0.15581440127520768,-0.2716693872470608,-0.559799992951963,0.7671646396172317
-3589.7916083335876,-1696.0,7136.0,-14952.0,1371.0,-2175.0,4656.0,-0.20842554174729533,-0.30388428953886326,-0.35134368176635095,0.8606803991039136
-3589.8072140216827,-292.0,8136.0,-14616.0,1050.0,-1714.0,2282.0,-0.39107376728286203,-0.2556265053960644,-0.17478243519241465,0.8666991973172672
-3589.822810649872,208.0,8004.0,-14112.0,-162.0,370.0,-1008.0,-0.3114497446178217,-0.2618387684747328,-0.22108687027447405,0.8863182902847978
-3589.8384346961975,-1516.0,7296.0,-14620.0,61.0,239.0,-695.0,-0.25120927888240896,-0.26832732471357695,-0.2382497540460983,0.8989612893291948
-3589.8540234565735,-1572.0,6972.0,-15092.0,654.0,-1435.0,384.0,-0.2929863280437168,-0.17661690925064769,-0.1450653834379615,0.9283972821342193
-3589.8696551322937,56.0,9452.0,-14352.0,-849.0,1430.0,-6474.0,0.20430794314556205,-0.1633312887070688,-0.3023767602798314,0.9165966666640192
-3589.8852376937866,-3624.0,6856.0,-14764.0,-769.0,1819.0,-5945.0,0.629005034633004,-0.1455918708023473,-0.3652617896526874,0.6706261988487492
-3589.9008796215057,-2224.0,9304.0,-16012.0,-685.0,-463.0,-721.0,0.6447502516375029,-0.13252300677569964,-0.43810415490793037,0.6122087186090317
-3589.916553258896,-1812.0,7764.0,-14760.0,2428.0,-1121.0,-962.0,0.661287655767683,0.09784418218793232,-0.37153823743569453,0.6442705103172384
-3589.932258605957,-1600.0,7452.0,-14168.0,2129.0,-558.0,-1416.0,0.6869137076752782,0.2907474246991984,-0.265248896212803,0.6109488655333407
-3589.94788646698,-1280.0,7896.0,-14820.0,2336.0,-468.0,-1579.0,0.6800927895755654,0.47791354272214953,-0.12488372344552659,0.54173471263015
-3589.963531255722,-1604.0,7192.0,-14888.0,2729.0,-188.0,-1649.0,0.6184944493895678,0.6424736645788032,0.059517709283069965,0.4484973229336768
-3589.979121685028,-1092.0,8180.0,-14504.0,3731.0,-244.0,-2087.0,0.4609785792924733,0.7893822380458251,0.28985867829001766,0.28347200622146373
-3589.99471783638,-1736.0,7428.0,-14648.0,4745.0,-417.0,-1643.0,0.16948012735470092,0.8687713168400548,0.46107159231208095,0.06265678120230483
-3590.0103006362915,-884.0,7920.0,-14448.0,5762.0,-458.0,-1308.0,-0.21459945085877266,0.8028877936305888,0.5196306865536722,-0.19824786536524752
-3590.025906562805,-1196.0,8308.0,-14544.0,6563.0,-871.0,-1304.0,-0.5664796800243355,0.5220831181270428,0.4427755636167637,-0.45878076479962426
-3590.0415432453156,352.0,11460.0,-14312.0,4830.0,-2709.0,2288.0,-0.5229838468262693,0.23334695503239997,0.2473749363911806,-0.7815642874270572
-3590.0571632385254,-1200.0,5728.0,-16408.0,6629.0,-2942.0,1250.0,-0.4284199903913151,-0.20423045941101156,-0.08066787596186026,-0.8764923987517945
-3590.0727882385254,-1760.0,6256.0,-15476.0,10068.0,-3495.0,492.0,-0.17267944625213516,-0.6232018946607967,-0.5207038434426914,-0.5573766363575517
-3590.0883865356445,-1712.0,8220.0,-15372.0,10168.0,-5122.0,3051.0,0.206240600278818,-0.8114837232207166,-0.5383123188471741,0.0958062060717085
-3590.104004383087,-2380.0,9576.0,-16324.0,8330.0,-8053.0,9113.0,0.2095267040362323,-0.6274798047215129,0.019515504834318572,0.7496577886165307
-3590.1196064949036,-3848.0,10476.0,-18432.0,3855.0,-10923.0,10513.0,-0.14697442817687575,0.10359441929626435,0.38283725382103195,0.9061469808146584
-3590.1352355480194,-5156.0,5420.0,-21240.0,8515.0,-9348.0,-3073.0,0.21899710740733963,0.41688503703630775,0.7956964483825931,0.3809387022524513
-3590.1508367061615,-3580.0,11124.0,-22940.0,11481.0,-6630.0,-17825.0,0.39155296627174074,-0.174619573519458,0.7789546766832668,-0.45762855114268264
-3590.166486978531,-208.0,9792.0,-26068.0,14286.0,904.0,-20050.0,-0.10674870597239272,-0.427401325134796,-0.027885677911394766,-0.8973044132364791
-3590.182064294815,-1588.0,7080.0,-24544.0,21278.0,1606.0,-11874.0,-0.10154161505985965,-0.20017416439709496,-0.9141495293538494,-0.3375651674878435
-3590.197648048401,-5172.0,13560.0,-16252.0,20724.0,30.0,-16175.0,-0.08546536304328825,0.36261692276967494,-0.7221832785863579,0.5828000953767848
-3590.2132449150085,-7348.0,16820.0,-8392.0,14889.0,-4939.0,-26543.0,0.16796140317793132,0.7579410434385647,0.31773366351198185,0.5443892548397835
-3590.2288613319397,-3916.0,21348.0,-6192.0,7597.0,-6161.0,-26830.0,0.41375223597202554,0.15560945944035662,0.8799578033059903,-0.1739800211568139
-3590.244470357895,1836.0,22600.0,-4824.0,1586.0,-4345.0,-10909.0,0.3894788782308644,-0.48030880345155674,0.5888761170904455,-0.5204176932613278
-3590.2601013183594,400.0,22712.0,-2720.0,-2641.0,1883.0,723.0,0.20626233727420323,-0.4296946498186104,0.7714003432392745,-0.42161578076463657
-3590.2757749557495,-2456.0,21036.0,-3592.0,-7783.0,1573.0,7674.0,0.06537453993375629,0.003454656069707672,0.9892399463043139,0.13083792842951888
-3590.2913608551025,-5296.0,15496.0,-6936.0,-10759.0,2497.0,2764.0,-0.12659682539738076,0.10795595289895032,0.6239441265431217,0.7635525410771191
-3590.306953430176,-5988.0,13484.0,-9576.0,-11050.0,3525.0,3060.0,-0.2888900717086608,0.1116713309533297,-0.12424691314124237,0.9426742517360646
-3590.322564601898,-7300.0,14640.0,-12072.0,-17518.0,3464.0,5585.0,-0.28208923840004063,0.10842585999414908,-0.89159667602118,0.33723116963204525
-3590.3381781578064,-8824.0,12400.0,-15952.0,-24109.0,1929.0,4828.0,-0.01934802709882774,0.11351192788993583,-0.7138306735025813,-0.6907868453010263
-3590.3537912368774,-7776.0,6856.0,-18356.0,-25617.0,1472.0,-1083.0,0.10625621087534462,0.1275824919216514,0.34166044936947265,-0.9250407897720652
-3590.3694138526917,-4476.0,4988.0,-18608.0,-24491.0,2545.0,-1276.0,0.08432403274826081,0.028706254183404833,0.9931904643406942,-0.07508734923104138
-3590.385007619858,-2028.0,3584.0,-20568.0,-21317.0,5486.0,7623.0,-0.12705662695697462,0.25091917942570774,0.5093858716399132,0.8132786808445747
-3590.4005925655365,-972.0,3460.0,-20620.0,-17790.0,8286.0,19991.0,-0.5772632754215434,0.2835348231160304,-0.48561536900309726,0.5920750191640738
-3590.4161789417267,-1952.0,3812.0,-21136.0,-16835.0,9276.0,27081.0,-0.3805418180399788,-0.16152449818710016,-0.8131448736746534,-0.4097476975223476
-3590.4318146705627,-32768.0,9796.0,-21456.0,-18212.0,6299.0,-12093.0,-0.2801546384495003,0.6868162725611785,-0.2436616947054955,-0.6248405915380696
-3590.4474363327026,5124.0,2264.0,-18768.0,-17751.0,-83.0,-7646.0,0.18626566030942268,0.6522746104301655,0.6040883055402552,-0.41823468948327785
-3590.463060617447,-600.0,988.0,-21456.0,-18981.0,-1322.0,2823.0,0.7366121397506266,0.22745014369319475,0.5705158465017304,0.2831618911442048
-3590.478684425354,-1736.0,-132.0,-16748.0,-13167.0,-11391.0,21345.0,0.39852474063891014,0.2786167431664797,-0.3497478234075195,0.8007666336378508
-3590.4942712783813,2840.0,2784.0,-18648.0,-12229.0,-3232.0,5064.0,0.15660128434287565,-0.04836855340044274,-0.926819491552941,0.33784930199966107
-3590.5098638534546,1396.0,1432.0,-17988.0,-14470.0,220.0,259.0,0.06553255659380494,-0.16976696240508785,-0.8375073491892392,-0.5152340269780743
-3590.525449514389,1136.0,-348.0,-17484.0,-12465.0,1127.0,-2446.0,-0.09810715433666162,-0.007792131682877541,-0.205227928174179,-0.973753442329799
-3590.541033744812,-968.0,1504.0,-16784.0,-10749.0,967.0,-118.0,-0.07144234952355494,0.12270757411801009,0.5092688611650373,-0.8488133298884349
-3590.556605577469,-1840.0,2188.0,-16224.0,-9550.0,157.0,649.0,0.05521797402281311,0.17097694113754597,0.9276789888686314,-0.3273065146857572
-3590.5722403526306,-3296.0,3680.0,-15216.0,-9153.0,-85.0,1740.0,0.19272702332692768,0.20585855098567396,0.9020775504321599,0.32670268513119793
-3590.587884426117,-3804.0,3384.0,-14212.0,-7563.0,-728.0,2770.0,0.2507638037224305,0.25940769872237485,0.5103935310691826,0.7805918293378116
-3590.603493452072,-3176.0,4276.0,-14028.0,-5799.0,-1826.0,3091.0,0.21726806234456905,0.3391465837932074,0.004922845226494246,0.9152868126337828
-3590.619120121002,-1844.0,5132.0,-13632.0,-4674.0,-366.0,-190.0,0.34332950009825286,0.2590736913234637,-0.3420179945073544,0.8354815188018737
-3590.634715795517,-1744.0,6320.0,-13572.0,-3618.0,-438.0,1920.0,0.2560318238798944,0.11813075315056228,-0.6234120427176589,0.7292806423561585
-3590.650302886963,16.0,4696.0,-14720.0,-2625.0,623.0,1159.0,0.23556784134049227,-0.04180036279538717,-0.7640205570284654,0.599193716784704
-3590.66592001915,-272.0,2268.0,-14724.0,-1172.0,1158.0,1177.0,0.243100953911012,-0.20180228102809367,-0.7852353006566869,0.5325253873591537
-3590.6815328598022,-3616.0,3460.0,-14272.0,2750.0,-2550.0,7485.0,-0.1867165694485154,-0.4343869180102162,-0.4682052846884942,0.7464775546154951
-3590.6971526145935,-1684.0,4768.0,-14164.0,2385.0,409.0,1623.0,-0.1796279775172953,-0.5489681340026004,-0.2501299133331754,0.7770474914692712
-3590.7127392292023,-1404.0,1624.0,-16380.0,1440.0,4585.0,-5850.0,0.32215297844214125,-0.6298927253653792,-0.42105370800026753,0.5675970295833636
-3590.728325843811,-3628.0,-696.0,-17184.0,5390.0,1415.0,-2999.0,0.7168398761763156,-0.383861282389283,-0.24446607641972434,0.5282304850024517
-3590.7439348697662,-2968.0,2628.0,-16220.0,8553.0,56.0,-1989.0,0.8701434762400598,0.15145683702866947,0.06875250640350664,0.4638795642592714
-3590.7595291137695,-2796.0,3820.0,-15488.0,8510.0,2164.0,-4730.0,0.7060238014226643,0.5142820732475399,0.48290593923132724,0.06201769760328095
-3590.7751574516296,-3600.0,2324.0,-15700.0,9603.0,2944.0,-7438.0,0.12909885278604155,0.5248437393964895,0.7096670560015821,-0.45193495666045275
-3590.790780067444,3928.0,-9704.0,-32768.0,13366.0,-2383.0,-4917.0,-0.32923503939221294,0.1721840547164286,0.23687710041439122,-0.8976893557557025
-3590.806381702423,10232.0,12028.0,-6588.0,11228.0,3021.0,-10175.0,-0.808664660712434,-0.07407259747058548,-0.3435644011504399,-0.47173956700805175
-3590.822016954422,1220.0,19712.0,-13392.0,83.0,8436.0,-14172.0,-0.6496620619283056,0.3948573124419632,-0.5900634167215981,0.27175737772690856
-3590.837597131729,208.0,15000.0,-14224.0,2061.0,5557.0,-12617.0,-0.08577990313279543,0.5054377180405065,-0.26768949100738065,0.8157921658147639
-3590.853197813034,-4292.0,4412.0,-22716.0,-1429.0,5819.0,-8598.0,0.5353004561425945,0.22355094922472568,-0.024960404793141128,0.814159304403516
-3590.8688023090363,-5408.0,-320.0,-20352.0,9034.0,-1252.0,4575.0,0.02330355938856594,0.5412948542801235,0.35045335840238223,0.7639628711096993
-3590.8844032287598,-1260.0,20444.0,-10552.0,5429.0,3287.0,-3311.0,-0.09562774964412027,0.19670232125401615,0.7426695957514848,0.6329339632675826
-3590.9000351428986,-2776.0,13760.0,-12928.0,3211.0,6479.0,-9319.0,-0.03885129273150748,-0.5517942868252861,0.7149715939730292,0.4275853854983007
-3590.9156699180603,-7252.0,7228.0,-16900.0,4623.0,3434.0,-2914.0,0.06824217929815683,-0.7644844933980756,0.6408580885358802,-0.014400509597366962
-3590.9313168525696,-5472.0,8556.0,-14392.0,4839.0,3163.0,-3230.0,0.1818532159533828,-0.7899895644010569,0.3793510351616758,-0.4460254343718592
-3590.9469182491302,-4892.0,7836.0,-13584.0,3889.0,3560.0,-1954.0,0.22979758157471672,-0.5875976897705093,0.1344600433431516,-0.7640958861444874
-3590.9625146389008,-1548.0,9592.0,-13452.0,3644.0,3743.0,-3072.0,0.14829099546581315,-0.26621471169494904,-0.16895164775478602,-0.9373339045728989
-3590.978234052658,640.0,12260.0,-14224.0,-224.0,6300.0,-8808.0,-0.35214480528649256,0.2732234815767155,-0.19914045460457983,-0.8727462658554991
-3590.9938428401947,-2376.0,6788.0,-15508.0,1973.0,3822.0,-5675.0,-0.649640429772304,0.5116685600740578,-0.2818174426345643,-0.48656091670407575
-3591.009442090988,-1872.0,6540.0,-14668.0,1468.0,3085.0,-5314.0,-0.7573020005505344,0.6044957994884302,-0.2469391973389582,-0.009977032654692783
-3591.0250582695007,-1428.0,7384.0,-13488.0,2552.0,2655.0,-4011.0,-0.7569434286875046,0.473957603631604,-0.1925393850341229,0.40660720718806004
-3591.0407061576843,-2300.0,8080.0,-14400.0,3107.0,3644.0,-8056.0,-0.41661537624576,0.21279519878521888,0.007849170040228096,0.8837919563897617
-3591.056317090988,-1904.0,10064.0,-12764.0,6476.0,3063.0,-1114.0,-0.3827679017445815,-0.21943982803251477,0.35234155692889596,0.8253425485990845
-3591.071969985962,352.0,7724.0,-14596.0,3961.0,5198.0,-7189.0,0.038934638687363396,-0.7224931172472018,0.2491050996388628,0.643765826038178
-3591.0875821113586,-2108.0,9300.0,-13048.0,2570.0,4355.0,-5858.0,0.3606870136016578,-0.8998920686584189,0.0324147084046039,0.24299882646595958
-3591.1031873226166,-520.0,7408.0,-14756.0,3814.0,4807.0,-4543.0,0.6181060424067049,-0.7446139152801087,-0.07667863388547497,-0.24003213246772812
-3591.1188254356384,-168.0,3124.0,-16428.0,6101.0,5964.0,-1648.0,0.8126313401233423,-0.22293982626223036,0.008051391487306313,-0.5383895560006953
-3591.1344423294067,-1800.0,5956.0,-16868.0,7527.0,2517.0,959.0,0.8220609609892283,0.35245785565066806,-0.12187929337738844,-0.43027279051019224
-3591.1500282287598,-3712.0,8812.0,-15928.0,4749.0,1947.0,-1013.0,0.5990282044374943,0.7069941371125708,-0.11772058597508894,-0.35702431851979577
-3591.165613889694,-3896.0,6644.0,-15764.0,5428.0,1579.0,-1265.0,0.2148698265566634,0.93975279881394,-0.11267439500001598,-0.24083213130364528
-3591.1812195777893,-3272.0,7272.0,-14572.0,4461.0,2393.0,-1241.0,-0.1397225960158049,0.9884547651998468,-0.05448932898774437,-0.021579766977083685
-3591.196804046631,-2064.0,5760.0,-15072.0,5140.0,2062.0,-310.0,-0.5163650161839477,0.83822208657953,-0.056340684679926624,0.1660621295822958
-3591.2123980522156,-1148.0,6788.0,-14312.0,4232.0,2395.0,-1154.0,-0.7308166700683807,0.5670718668277855,-0.016976838815362463,0.37953692777706266
-3591.2280213832855,-1132.0,6604.0,-15172.0,4145.0,1928.0,-1715.0,-0.8060845465372642,0.2222657729586176,0.07568543309709526,0.543228630708863
-3591.243628025055,-1508.0,5288.0,-15692.0,3539.0,1286.0,-1403.0,-0.7706339824266947,-0.09137380056795649,0.17031326008478748,0.607262288585609
-3591.259281873703,-1884.0,5928.0,-15496.0,2893.0,1553.0,-1875.0,-0.6373779769848464,-0.37633912570038897,0.194126579063194,0.6437647460237262
-3591.2749104499817,-784.0,6396.0,-15016.0,2052.0,2606.0,-2249.0,-0.4603489904750921,-0.6373110442853095,0.08566339827138506,0.6120255076360216
-3591.290489435196,-1100.0,5516.0,-15284.0,2186.0,2933.0,-1967.0,-0.24025606852911502,-0.842972544465883,-0.02323874427523284,0.48076425779810056
-3591.306100845337,-864.0,6556.0,-14688.0,1449.0,3122.0,-2144.0,-0.03523766124332011,-0.942799911028069,-0.1749085187511195,0.2815912730605397
-3591.321702480316,-740.0,5160.0,-16124.0,1542.0,2330.0,-1775.0,0.16398236117196796,-0.9393655629033222,-0.27878569388849295,0.11393270530845111
-3591.3373782634735,-1508.0,5776.0,-15576.0,1674.0,2154.0,-1555.0,0.3557075328929041,-0.8671189301975698,-0.34605355395938947,-0.04270655369309595
-3591.3529527187347,-1636.0,5652.0,-15364.0,1895.0,1464.0,-1709.0,0.5198476252003388,-0.727749547242511,-0.42334482862575745,-0.14463125228565352
-3591.3685841560364,-2404.0,4552.0,-15828.0,1910.0,666.0,-903.0,0.6422483317885488,-0.5885877394903084,-0.4660815810587099,-0.15443287549718274
-3591.3841812610626,-2612.0,4772.0,-15760.0,1925.0,5.0,194.0,0.7333641345248818,-0.48184685052962395,-0.4752166328783784,-0.06457407113532354
-3591.3998000621796,-1444.0,3836.0,-15484.0,1787.0,-528.0,795.0,0.7788169693148862,-0.39740952235455873,-0.47842531886073447,0.08135732371521183
-3591.4153509140015,-2332.0,5056.0,-15580.0,1156.0,-1079.0,581.0,0.7613644189424189,-0.3319893048610093,-0.5180417326815114,0.20430390653806496
-3591.430937051773,-1860.0,4428.0,-15888.0,1455.0,-1406.0,612.0,0.7167691249985714,-0.23406616121078885,-0.5585885909966521,0.3455920132659348
-3591.44654917717,-1528.0,5760.0,-15540.0,1189.0,-542.0,289.0,0.7010150318425596,-0.15641316358564186,-0.5472512310558462,0.4296846954404675
-3591.462188720703,-1104.0,5060.0,-15560.0,1956.0,-372.0,203.0,0.6917533312663772,-0.032023169596915646,-0.4867859644787498,0.5324389824922012
-3591.4778451919556,-496.0,5604.0,-15452.0,1750.0,30.0,954.0,0.6438533401022557,0.03130983247737231,-0.39532502454769713,0.6543628166359782
-3591.4934504032135,-360.0,5708.0,-15024.0,864.0,658.0,866.0,0.6102504287650927,0.012459118427992555,-0.30936262472341247,0.729200898918987
-3591.509055376053,-680.0,4736.0,-15844.0,889.0,767.0,1128.0,0.552645398324376,-0.019141481612814946,-0.21131003064182521,0.8059557918041838
-3591.5247163772583,-868.0,5388.0,-15188.0,220.0,1199.0,595.0,0.5295994959008274,-0.10296807517037768,-0.1362284775270681,0.8308813100244548
-3591.540297985077,-1632.0,4488.0,-15628.0,775.0,756.0,835.0,0.48152843734066497,-0.131236046938624,-0.03727815484205859,0.8657469625633994
-3591.5559322834015,-1348.0,4712.0,-16008.0,629.0,752.0,973.0,0.4146055843912377,-0.16380828950930992,0.052849551566694734,0.8935748309900147
-3591.571562051773,-1324.0,4756.0,-16164.0,426.0,329.0,627.0,0.3692692376168239,-0.17089231770525048,0.10692531014081738,0.9071951410531846
-3591.5871510505676,-1232.0,4940.0,-16092.0,636.0,-252.0,594.0,0.33298683631181264,-0.12466944917558918,0.1578017297479004,0.921236076895535
-3591.6027817726135,-424.0,5120.0,-16044.0,390.0,-587.0,367.0,0.3150070759695054,-0.061025469586563366,0.17597863402518438,0.9306330933926172
-3591.618373632431,-676.0,5988.0,-15252.0,-61.0,-304.0,-269.0,0.3409436629490133,-0.04213160815115519,0.16145297030393727,0.925156897325823
-3591.633990049362,-652.0,4436.0,-15652.0,251.0,-529.0,173.0,0.33484803709748007,0.010454187202246588,0.16669940905127345,0.9273504240813509
-3591.6495831012726,-1344.0,4820.0,-15160.0,-518.0,-292.0,375.0,0.30862839367414086,0.024379379161333956,0.11601157543479627,0.9437666421605311
-3591.6651747226715,-2340.0,5292.0,-15812.0,-435.0,-328.0,541.0,0.2677190058058082,0.04505856893229606,0.07037029151636434,0.9598668039723143
-3591.6808094978333,-1596.0,5044.0,-15788.0,-440.0,-213.0,648.0,0.21594535671368065,0.05651105153093365,0.0262489334277227,0.9744152592517096
-3591.6964066028595,-1196.0,4644.0,-15524.0,-563.0,-629.0,1002.0,0.1341008459341062,0.10111445580322202,-0.037856223501132144,0.9850683916813125
-3591.712065219879,-1080.0,4384.0,-15640.0,-644.0,-1107.0,1330.0,0.021545038198608802,0.18220685710904994,-0.11616031487954269,0.9761369032049492
-3591.7276673316956,-1144.0,5064.0,-15412.0,-1230.0,-874.0,1178.0,-0.06713185772962743,0.23938505468735302,-0.2379373389562924,0.9389216857653786
-3591.7432949543,-1008.0,5864.0,-15308.0,-1432.0,-684.0,1008.0,-0.13219841851014358,0.2794152611993799,-0.36749754240733895,0.8771523506648463
-3591.7588877677917,-1300.0,5188.0,-15576.0,-1385.0,-265.0,702.0,-0.15912422351323183,0.29061171284636983,-0.4832173243596043,0.8103859150346552
-3591.7744977474213,-944.0,5376.0,-15548.0,-1575.0,-536.0,605.0,-0.1823556321489219,0.3211998240428032,-0.5956271258944202,0.7133059815795685
-3591.7900726795197,-1416.0,4708.0,-15648.0,-1259.0,-1364.0,830.0,-0.26543272948165164,0.3772017256275711,-0.6653439343085368,0.5870108801226261
-3591.805675268173,-1544.0,5196.0,-15492.0,-1656.0,-1349.0,751.0,-0.32141330797474604,0.43276466427303634,-0.7296909416769952,0.42066537823775957
-3591.8213090896606,-1636.0,5056.0,-15368.0,-2043.0,-1501.0,674.0,-0.35524481646698136,0.48962817856846585,-0.768282538605842,0.20930195411995112
-3591.836894273758,-1920.0,5436.0,-15428.0,-1906.0,-1520.0,611.0,-0.3776867687284886,0.5230975412383336,-0.7640125606443984,-0.002544455822469073
-3591.8525099754333,-1296.0,5316.0,-15688.0,-1831.0,-1762.0,852.0,-0.4003074464129455,0.5124366124946855,-0.7249645650950871,-0.22713222113520026
-3591.868100643158,-1512.0,6316.0,-15072.0,-2305.0,-1308.0,-137.0,-0.37254826252865686,0.5608790106235614,-0.611426815448306,-0.4156678684714003
-3591.8837444782257,-784.0,5148.0,-15416.0,-2230.0,-1400.0,185.0,-0.32270671128351847,0.5581959233492827,-0.4816495378537027,-0.5935414158541361
-3591.8993334770203,-2272.0,5628.0,-15308.0,-2642.0,-1699.0,-43.0,-0.2579726375590589,0.5271007243486513,-0.284578339928366,-0.7580436089734974
-3591.91495013237,-1564.0,5688.0,-15408.0,-2877.0,-3434.0,662.0,-0.15533213439832985,0.32409037742144303,-0.04427673530582948,-0.9321356800363043
-3591.930675983429,-2188.0,5816.0,-14960.0,-4245.0,-3016.0,-3093.0,-0.2638975113084177,0.13130958279317528,0.37949711445686146,-0.8769822330645138
-3591.946286916733,488.0,5264.0,-15604.0,-3290.0,-1640.0,150.0,-0.15266938389055285,0.08245138353250185,0.6356163943065921,-0.7522536991366292
-3591.961888074875,-1384.0,5796.0,-15488.0,-2033.0,-1428.0,2239.0,0.08469471513881899,0.13442214881605977,0.7412585600913102,-0.6521451051925369
-3591.9776227474213,-3060.0,6304.0,-15536.0,-2981.0,-2226.0,510.0,0.2781686331780015,0.017839822546375853,0.8444251967968316,-0.45743856337439276
-3591.994478225708,-2580.0,6356.0,-15348.0,-3287.0,-2453.0,81.0,0.43988379082049855,-0.1448515537549456,0.8624771356974117,-0.20409181352360567
-3592.0101475715637,-2896.0,7228.0,-14068.0,-4318.0,-2777.0,-1195.0,0.5204423391010314,-0.4087897624155932,0.742949055919806,0.10028659991802868
-3592.0257983207703,-2324.0,5892.0,-15164.0,-4814.0,-3745.0,-966.0,0.5279364398024982,-0.5786442599798371,0.43702873086779265,0.44210838525992247
-3592.0413913726807,-1448.0,6044.0,-15080.0,-4107.0,-3408.0,1574.0,0.3504484329803348,-0.5185771025666729,0.1810294321851983,0.7586119094753832
-3592.0570001602173,-1944.0,6424.0,-15324.0,-3794.0,-3381.0,2846.0,0.03888893741928445,-0.32630761735657465,-0.03971829731526624,0.9436278113005415
-3592.0726566314697,-1532.0,7476.0,-14984.0,-4097.0,-2635.0,3275.0,-0.31746315742593006,-0.12002033733425413,-0.26045122404391646,0.9038680336184904
-3592.088258266449,-2036.0,6788.0,-14816.0,-4238.0,-2336.0,5692.0,-0.7237457500755569,0.0435543292444195,-0.3941201111691947,0.564769375607088
-3592.103933095932,-3148.0,6616.0,-14644.0,-4349.0,-2660.0,3974.0,-0.8662131412513068,0.27218829603741257,-0.3970042159512995,0.13407452383166527
-3592.119528532028,-3368.0,7644.0,-14660.0,-4785.0,-3152.0,3616.0,-0.7780895917170783,0.469552054299377,-0.2589926493712233,-0.32713951631751814
-3592.135108947754,-2616.0,8216.0,-13632.0,-4896.0,-3191.0,2459.0,-0.5067883007585239,0.5735001057655933,-0.0030840128644863286,-0.6436254623348838
-3592.150703907013,-2068.0,7360.0,-14696.0,-4996.0,-3013.0,898.0,-0.18395440251185682,0.5557912965356938,0.3251299629442027,-0.742662318747612
-3592.1662912368774,-3472.0,8284.0,-14444.0,-4844.0,-3181.0,-229.0,0.11293402674967508,0.37572840508333605,0.6256834645697305,-0.6742360665076106
-3592.1819376945496,-3588.0,8612.0,-14344.0,-5366.0,-3775.0,-1482.0,0.3517712608254987,0.017201110961933885,0.8217869219398402,-0.4479144525102502
-3592.1975286006927,-3692.0,7392.0,-15352.0,-5262.0,-5074.0,854.0,0.6368340993826722,-0.23673085761961724,0.7324695687637667,-0.043464488368813205
-3592.213180541992,4892.0,6140.0,-15112.0,2873.0,-2048.0,1720.0,0.7884968178127334,0.02378012726979094,0.6087639106313658,-0.08434319746744474
-3592.2287838459015,-8460.0,12408.0,-14188.0,-9119.0,-6183.0,4745.0,0.8086780783907226,-0.27419735803302864,0.16633930844286085,0.4931397457564603
-3592.2443749904633,-7272.0,11484.0,-16036.0,-2891.0,-3839.0,6295.0,0.43125808100740115,-0.18235683234138056,-0.0642140732483501,0.8812712443175978
-3592.2600162029266,-6140.0,12956.0,-16188.0,-7009.0,-4593.0,8160.0,-0.23351587052983547,-0.09712029317867778,-0.45209190587798415,0.8553659424498925
-3592.275638818741,-5524.0,13292.0,-16136.0,-7891.0,-3847.0,8751.0,-0.7504123074337684,0.003662965876680192,-0.6031976705339125,0.2702230963396271
-3592.291290283203,-4276.0,13564.0,-16080.0,-10962.0,-1358.0,5967.0,-0.6464757773029187,0.296131599585466,-0.5223402443821495,-0.47067591205237663
-3592.306888103485,-3716.0,12172.0,-16172.0,-13234.0,-356.0,4158.0,-0.0953468270073363,0.5339598166758246,-0.04228596120026697,-0.8390517232212341
-3592.322503089905,-1120.0,2284.0,-18484.0,-12562.0,3066.0,-4359.0,0.11715801190207956,0.5654753640224964,0.678472955756817,-0.4540771533972898
-3592.338137626648,-5116.0,-6832.0,-22772.0,-8743.0,-762.0,4698.0,0.5886149641434011,0.5466496616931885,0.5929315642622478,0.05602438271600309
-3592.3537335395813,-1356.0,-4984.0,-24152.0,-5303.0,575.0,5241.0,0.6582664099053523,0.4545490200703297,0.29034763797148977,0.5251369069755031
-3592.3693737983704,-3308.0,2804.0,-19660.0,-1129.0,-3920.0,12855.0,0.13803461423048502,0.5796978642907141,-0.3213562324155451,0.735953125748313
-3592.3850078582764,-268.0,2280.0,-17580.0,-1398.0,-304.0,3335.0,-0.013320893833179286,0.4662565955088478,-0.5563750814989569,0.6876584251058173
-3592.400608778,-1456.0,304.0,-16540.0,-720.0,462.0,-894.0,0.09151583005208794,0.4801170884661907,-0.5606622643132796,0.6684087518784682
-3592.4162442684174,-3620.0,724.0,-15836.0,4213.0,-2867.0,3242.0,-0.3666579577794581,0.46221772102190756,-0.4191593290630592,0.6900885285452275
-3592.431872367859,-2572.0,3148.0,-15108.0,5228.0,-1498.0,-930.0,-0.5192630890357671,0.3778491762671911,-0.01714047125153164,0.7663563457064303
-3592.4474532604218,-1972.0,328.0,-15652.0,4161.0,2281.0,-5075.0,-0.2681698753584235,0.03816345089399358,0.27800711337501505,0.9215967197635856
-3592.463084459305,-3548.0,-1140.0,-16808.0,9132.0,-1981.0,2952.0,-0.3707350025131921,0.04203507909567808,0.7973470926806501,0.4743692905645121
-3592.478701353073,-1448.0,3088.0,-16044.0,9787.0,-280.0,-237.0,-0.286664668642418,-0.21246645116698304,0.9217039825967263,-0.15212870651515562
-3592.494292974472,-3016.0,2196.0,-16448.0,10292.0,1201.0,-2935.0,-0.16844117637469266,-0.5029108148995712,0.5106056636081091,-0.6767496868487501
-3592.5098974704742,-2884.0,1576.0,-16872.0,11460.0,365.0,-1951.0,0.14255400674183383,-0.5172211636762868,-0.18043342438008972,-0.8243812239332428
-3592.5255098342896,-1640.0,3236.0,-16336.0,12430.0,2469.0,-5195.0,0.23656508109163235,-0.06634096503278335,-0.8204341815843733,-0.5162592298977403
-3592.5411093235016,-2324.0,3132.0,-16676.0,13211.0,2335.0,-5014.0,0.15877252820886203,0.4188992244728721,-0.8724339854604327,0.19538082054239095
-3592.5567548274994,-2080.0,4596.0,-16952.0,12985.0,1559.0,-4532.0,-0.07658432680553177,0.5850436193418048,-0.2957784501296865,0.751248236466526
-3592.5723547935486,-1084.0,2804.0,-17216.0,13332.0,3913.0,-7282.0,-0.10547911730944767,0.25223914135861264,0.5449863471056309,0.7926155769644895
-3592.587988138199,-2768.0,4220.0,-16884.0,15045.0,2885.0,-5120.0,-0.12707239598413403,-0.1904876096562155,0.9673632629584532,0.10851448854732394
-3592.603593111038,-3116.0,5112.0,-16812.0,16285.0,1856.0,-2619.0,0.006857719254486999,-0.34645271127423327,0.6007819904227494,-0.7204057818487014
-3592.619221687317,-3500.0,7404.0,-15992.0,16283.0,1005.0,-1695.0,0.1946974244996454,-0.2076112877566131,-0.27121217777684864,-0.9194750788981638
-3592.6348173618317,-2980.0,8472.0,-15092.0,15245.0,1811.0,-3964.0,0.11456650142670279,0.1701471834776633,-0.8994807426409294,-0.3858222988936566
-3592.6504497528076,-3568.0,9240.0,-14560.0,14774.0,2148.0,-3875.0,-0.03989773073908339,0.41409844524285044,-0.7859311738014042,0.45743069286665977
-3592.666038274765,-3532.0,10724.0,-13656.0,14168.0,1760.0,-3099.0,-0.1897724680009813,0.3129818003647206,-0.07063850599989328,0.9279218741356288
-3592.681638479233,-3328.0,12328.0,-12784.0,12423.0,2593.0,-4548.0,-0.09370770727952102,-0.048345530054686545,0.6585640831125096,0.7451006131753796
-3592.6972308158875,-3188.0,12624.0,-13308.0,10530.0,3551.0,-6012.0,0.09243022853738812,-0.477519670661961,0.8658898823022436,0.1169030739973311
-3592.712809085846,-3476.0,12508.0,-14028.0,9161.0,4229.0,-7677.0,0.1561197924888794,-0.6885964276490195,0.451618740777736,-0.5454375153952742
-3592.7283997535706,-2944.0,12992.0,-14668.0,5887.0,6309.0,-12285.0,-0.19640305020170207,-0.48073901792738677,-0.29183559963308403,-0.8032109444600949
-3592.744064092636,-4688.0,10412.0,-14956.0,6550.0,4010.0,-7005.0,-0.22999780538357112,-0.09897818488132348,-0.8248615521824132,-0.5068606792478179
-3592.7596759796143,-3744.0,11720.0,-14188.0,7402.0,2894.0,-5754.0,-0.16114997053392974,0.22374112606939145,-0.9571481910816834,0.08853211739914225
-3592.7753088474274,-4292.0,12396.0,-12428.0,5259.0,2548.0,-4613.0,-0.012828872080447562,0.4322420366076163,-0.7231116934883708,0.5386202006709591
-3592.790913581848,-3516.0,12664.0,-11804.0,4298.0,1136.0,-1898.0,-0.012912768364306007,0.4550760911537833,-0.4153526987889116,0.78754120354565
-3592.8065106868744,-2272.0,13504.0,-11124.0,2755.0,927.0,-609.0,-0.045291949942510124,0.39735288989248274,-0.19632206947051506,0.8952747987089282
-3592.8221418857574,-2896.0,13312.0,-11004.0,551.0,529.0,426.0,-0.08826632478222864,0.3456855705108238,-0.1694815094606069,0.9186874115829597
-3592.837739467621,-3008.0,13212.0,-11012.0,-515.0,4.0,919.0,-0.14565420375812144,0.33445691332194605,-0.23735069440784246,0.90032664845758
-3592.85338306427,-4208.0,12072.0,-11552.0,-2497.0,-181.0,1165.0,-0.16332301988130996,0.34648001726778804,-0.4522596365403149,0.8054429898927574
-3592.868977546692,-4424.0,10056.0,-12132.0,-3561.0,-1001.0,2079.0,-0.2262539217564479,0.3616138624863317,-0.7045287529728185,0.5671717672646522
-3592.884578227997,-3876.0,8412.0,-13152.0,-3588.0,-1902.0,4297.0,-0.3933325375496106,0.23319000384021984,-0.8711337641976332,0.17899134584846438
-3592.9001705646515,-2060.0,7324.0,-14668.0,-5106.0,-851.0,2466.0,-0.35093941282738234,0.2094621537377752,-0.8691538481418979,-0.27845775790240734
-3592.91579914093,-1032.0,5068.0,-15360.0,-11493.0,3294.0,408.0,0.08243211922150537,0.4223134484206752,-0.48309007212691585,-0.762548542203118
-3592.9314556121826,1020.0,-1196.0,-20432.0,-1097.0,-886.0,-515.0,0.05078466085479617,0.3741556840556925,-0.39431933413980824,-0.8378190168731064
-3592.9470777511597,-1844.0,10928.0,-13432.0,2975.0,-2469.0,7182.0,0.32081577654748683,-0.03271837398705393,-0.6985536821868424,-0.6387718674339691
-3592.9626858234406,584.0,12072.0,-14016.0,855.0,-2132.0,-1612.0,0.10033266595631446,-0.028449045434216044,-0.787391347131189,-0.6075679998312221
-3592.9783363342285,3008.0,15208.0,-9796.0,-5514.0,-3794.0,-2766.0,-0.2710976242918731,-0.07424572531184093,-0.452593649553225,-0.8462580213860978
-3592.9940061569214,5316.0,11476.0,-17508.0,-20044.0,5992.0,-10700.0,-0.4183936321571614,0.554501377026823,0.35782835556536097,-0.6240463599758312
-3593.009608745575,-9000.0,-10392.0,-18980.0,-9760.0,545.0,8352.0,0.32715377110074056,0.7993552958717829,0.3096142173243479,-0.3976689042997077
-3593.025181531906,-12400.0,-1084.0,-14184.0,3359.0,-3362.0,6834.0,0.3403107170230474,0.7794620813937079,-0.3070315425670704,-0.4270352578154797
-3593.0407814979553,-1216.0,8972.0,-11128.0,-4100.0,1246.0,6395.0,0.7394429084563714,0.4423933306575962,-0.45849182153334134,-0.2174800581899402
-3593.0563774108887,-5168.0,2364.0,-15756.0,-3636.0,-137.0,1624.0,0.8548268547431126,0.13263299507824647,-0.4355914312744854,-0.2488767607206757
-3593.07200050354,896.0,6344.0,-18576.0,-3564.0,-942.0,1401.0,0.8421230337940252,-0.19553099477931146,-0.4207246867423979,-0.2749311986655408
-3593.0876049995422,3996.0,9940.0,-21944.0,-2073.0,-548.0,5847.0,0.8143172991385283,-0.505827007843742,-0.27395615597611067,0.07729423692858516
-3593.1032240390778,-576.0,12656.0,-24304.0,-2404.0,596.0,10039.0,0.48592413447823596,-0.6836726091531707,0.14495546452657734,0.5248403684256359
-3593.118804216385,-14708.0,5428.0,-19004.0,-1494.0,-3558.0,2514.0,0.3029030120941317,-0.5125989198173763,0.07034121990071474,0.8003400686266061
-3593.134423017502,-9100.0,6500.0,-12556.0,-4548.0,-5447.0,-9226.0,0.5452802649185917,-0.2169967060063405,-0.5639823405745121,0.5809524780847426
-3593.150032520294,-864.0,5796.0,-11020.0,-5990.0,-1729.0,-4805.0,0.4864634620368045,-0.14663337920275926,-0.8581077246876795,0.0741827812775981
-3593.165620326996,236.0,3888.0,-15652.0,-3922.0,822.0,-4081.0,0.46881311292654215,-0.011478498845400335,-0.806109391268223,-0.36092957557057603
-3593.181238412857,-1416.0,5348.0,-17044.0,-3080.0,-161.0,-4577.0,0.27928744178524423,0.16169579175439874,-0.6490960459397502,-0.6888594333645681
-3593.19686627388,-728.0,5376.0,-15660.0,-4734.0,-1573.0,-3946.0,0.017225573861991448,0.1533341804184893,-0.30379797179729695,-0.9401588701131122
-3593.212508201599,336.0,4376.0,-15212.0,-3178.0,-997.0,1967.0,0.18449481409972435,0.013936389096316351,-0.06745244805633999,-0.9804170581341752
-3593.228098154068,588.0,3792.0,-15908.0,1818.0,1370.0,11798.0,0.8279833617893654,0.06280442564035314,-0.1488016898984365,-0.5369890257755143
-3593.243719100952,640.0,5568.0,-15908.0,6555.0,2935.0,20923.0,0.8328006851360016,0.1851210149126431,-0.16504937688835733,0.49490598285278803
-3593.259310722351,-1496.0,6984.0,-15860.0,7614.0,2640.0,27840.0,-0.16714074962821043,0.08228391076664514,-0.03460075565137488,0.9818839623657271
-3593.2748880386353,-12484.0,3124.0,-12444.0,-1785.0,-164.0,5018.0,-0.5302980707100645,0.09693213132176282,-0.20057443333943267,0.8180207911839217
-3593.290493249893,3284.0,2944.0,-16696.0,-4628.0,3566.0,-4734.0,-0.0758121175607731,0.11676419954968029,-0.548504376478359,0.8244765572886598
-3593.3060960769653,-4240.0,2204.0,-15820.0,235.0,-2197.0,7315.0,-0.5904713862047326,-0.06396802300057709,-0.4923983990742329,0.6362353736597736
-3593.3216848373413,1480.0,9412.0,-14628.0,-4180.0,2265.0,-2855.0,-0.3221368058137373,0.13341118706412142,-0.771696481532945,0.5318964879522495
-3593.3373034000397,-3560.0,1848.0,-16816.0,-1874.0,-1388.0,6054.0,-0.5871198126421872,-0.13678552878470346,-0.7747473687309347,0.19064773631644663
-3593.3528904914856,-1236.0,6156.0,-15792.0,-1847.0,-1752.0,5060.0,-0.7275614646334758,-0.318435955937364,-0.5875994228937208,-0.15485404535114614
-3593.3685054779053,-1172.0,5556.0,-15604.0,-2959.0,-1246.0,4684.0,-0.7259547116556647,-0.347437247471602,-0.3033516604826517,-0.5101518262014905
-3593.3840861320496,-2480.0,4880.0,-15000.0,-1702.0,-3249.0,8965.0,-0.3546713325078394,-0.4748768683827252,0.1907976066820856,-0.7824937565607265
-3593.399693965912,-1492.0,6012.0,-15028.0,-124.0,-3970.0,9182.0,0.2510828593895149,-0.44409434392826086,0.5293046076093336,-0.677919053999253
-3593.4153020381927,-84.0,8100.0,-14764.0,-1303.0,-1287.0,3725.0,0.4516110513001979,-0.35431958903223376,0.679478200584001,-0.4569622108037899
-3593.430900335312,-580.0,7188.0,-14360.0,-1590.0,-400.0,1798.0,0.48686762523963345,-0.31923780104039107,0.765794713596678,-0.27314025427936756
-3593.446495771408,-872.0,7660.0,-14756.0,-563.0,-373.0,1156.0,0.5199578880181555,-0.2729385531474394,0.790352039309514,-0.17461957179186402
-3593.462072134018,-884.0,7484.0,-15156.0,-1663.0,1201.0,-1788.0,0.3600289432677101,-0.4411402000783194,0.8053476918849198,-0.16489262888324768
-3593.4776837825775,-1760.0,5856.0,-15076.0,-274.0,-637.0,1446.0,0.41084833739841525,-0.35384805393395785,0.8369043518178401,-0.07474158342227934
-3593.4933562278748,-724.0,7036.0,-14764.0,-368.0,-11.0,-138.0,0.3989192758874991,-0.376965577663449,0.8342827360111386,-0.05227505118146088
-3593.5089581012726,-652.0,6456.0,-14480.0,-1235.0,1557.0,-2462.0,0.2250158048181308,-0.5707447106307661,0.7838919641970846,-0.0955601974479365
-3593.5245320796967,-2496.0,5688.0,-15708.0,-1313.0,1135.0,-2770.0,0.056407059597907865,-0.7467743912254604,0.6531531876565366,-0.11196948553720346
-3593.5401182174683,-4032.0,5456.0,-15532.0,399.0,-1421.0,2898.0,0.1843628941012334,-0.5709558715233785,0.7995734026964212,-0.026496976281515722
-3593.5557413101196,-1684.0,7436.0,-15172.0,281.0,-782.0,1012.0,0.25341458344535117,-0.49440496694262626,0.8314195500081795,0.009290286533583679
-3593.5713176727295,-980.0,7172.0,-14864.0,-2082.0,1888.0,-1801.0,0.026676323344721094,-0.6457807277544392,0.7621267008180653,0.03766320928872355
-3593.5869421958923,-1704.0,4712.0,-15108.0,-1988.0,824.0,-1930.0,-0.1299391013442445,-0.7577012403427528,0.6290024028189104,0.11558822419667784
-3593.6025397777557,-1736.0,5668.0,-14896.0,-1726.0,471.0,-1266.0,-0.2524100066936132,-0.7979323401079711,0.5131797589865182,0.19036728736126463
-3593.6181633472443,-1204.0,6716.0,-15244.0,-2472.0,763.0,-1995.0,-0.40901744405933244,-0.81323618311524,0.30434317499857855,0.2805830942147281
-3593.633800268173,-1264.0,6844.0,-14836.0,-3300.0,1104.0,-2374.0,-0.5765012200650922,-0.7374892501218078,0.014785468451514667,0.3514787890341362
-3593.649395465851,-932.0,6708.0,-14408.0,-3569.0,1600.0,-3237.0,-0.6480849396343149,-0.5590453958878336,-0.35058459922215973,0.3801902091638336
-3593.66499710083,-1336.0,6444.0,-14696.0,-3073.0,1404.0,-3066.0,-0.6068801532039838,-0.31429734833185174,-0.6332426945881823,0.3632042761716525
-3593.6806168556213,-1380.0,7028.0,-15816.0,-2635.0,-245.0,-6329.0,-0.4221214510954298,0.15667198883210276,-0.7529604470971543,0.47991450649853834
-3593.6962406635284,-2856.0,7140.0,-15548.0,-5550.0,442.0,-6464.0,-0.03717677742242346,0.6154814531964824,-0.7326811914823673,0.28806030556049994
-3593.7118628025055,-3900.0,5408.0,-15632.0,-4052.0,-1524.0,-6074.0,0.19757600425974278,0.8844340073379697,-0.4218438016655738,-0.028071626265506446
-3593.7274680137634,-680.0,7580.0,-14816.0,-3295.0,-860.0,-4100.0,0.37192728951753334,0.8852963062779196,-0.1016041123278391,-0.2599945110206844
-3593.743105173111,-1312.0,7332.0,-14256.0,-2722.0,-680.0,-3315.0,0.4683342725658298,0.7584798316140218,0.1815181061268395,-0.415237921345252
-3593.758691072464,-1748.0,8088.0,-14128.0,-2251.0,-766.0,-3787.0,0.4585005541949204,0.5393859438119637,0.4494173294176138,-0.5448523739878243
-3593.774262905121,-1500.0,8352.0,-14304.0,-2159.0,-87.0,-3856.0,0.35469997499483774,0.27791907036026803,0.6812493657338115,-0.5769299955419424
-3593.7898807525635,-1712.0,7912.0,-14520.0,-1639.0,312.0,-3533.0,0.18739756984428219,0.031225366382183102,0.8132935623815064,-0.5499642794759988
-3593.8055036067963,-2404.0,7468.0,-14448.0,-1164.0,-134.0,-3184.0,0.04529752690134154,-0.21113748451809403,0.8397657647323878,-0.49815916841048075
-3593.821094751358,-2964.0,7128.0,-14976.0,-940.0,-605.0,-3414.0,-0.07262846975793195,-0.46889223257492196,0.778109411376166,-0.41159558250710493
-3593.836734056473,-2632.0,7280.0,-15092.0,-1110.0,-790.0,-3559.0,-0.18242210640961712,-0.6945756639634246,0.642782420587286,-0.26667879913258125
-3593.852347612381,-2152.0,7316.0,-14304.0,-1019.0,-889.0,-3088.0,-0.2553430204483677,-0.8368598999697964,0.4733848314144422,-0.10184424931024356
-3593.8679847717285,-1880.0,7520.0,-14156.0,-325.0,-338.0,-2550.0,-0.2806098469531201,-0.9148841862269466,0.2901784965619048,-0.00644047497291455
-3593.8836145401,-2364.0,7860.0,-14192.0,45.0,32.0,-2528.0,-0.27256501310307063,-0.956989952066923,0.08540371901695648,0.050840437184821244
-3593.8992738723755,-2444.0,8096.0,-14568.0,-618.0,266.0,-3648.0,-0.2947258481486965,-0.9234913938160199,-0.21728034502251936,0.11440966588392598
-3593.9148757457733,-2704.0,7700.0,-14340.0,-1175.0,16.0,-4425.0,-0.3202088426232765,-0.7518841834971604,-0.5441636366248125,0.1897957014474493
-3593.9305584430695,-2160.0,7240.0,-14620.0,-1265.0,18.0,-3649.0,-0.32393355362103055,-0.5152225750765165,-0.7628991260332021,0.21816891269782432
-3593.946167230606,-2072.0,6908.0,-15040.0,-857.0,145.0,-2169.0,-0.3051391598433019,-0.34242672003894203,-0.8631311008386843,0.21127881412601934
-3593.961804151535,-1852.0,6824.0,-14524.0,-464.0,-36.0,-619.0,-0.3094972840484865,-0.28223551693474325,-0.8872667343526415,0.19316388445666524
-3593.977417945862,-2424.0,6684.0,-14760.0,-62.0,-69.0,1153.0,-0.33399253554364605,-0.3669049296529047,-0.8537669480196304,0.15783458830931
-3593.993048429489,-2712.0,7120.0,-14816.0,611.0,-92.0,2164.0,-0.3443821712889445,-0.5345704629045726,-0.7589200739075382,0.14026996010721615
-3594.0086691379547,-2692.0,7484.0,-14584.0,538.0,-37.0,2531.0,-0.34392166514030853,-0.7003758723358566,-0.6176015873456672,0.09879172538739153
-3594.0242393016815,-2676.0,7512.0,-14096.0,780.0,120.0,2386.0,-0.30299687698599176,-0.8336887448414053,-0.4577487831814463,0.06018322654530354
-3594.039852619171,-2324.0,7896.0,-14340.0,594.0,281.0,2013.0,-0.25468365499517187,-0.9158338452083142,-0.3103042465174259,0.009791753801351393
-3594.0554552078247,-2544.0,7852.0,-14184.0,262.0,183.0,943.0,-0.2288601841143622,-0.9437788263166443,-0.23779599292434803,-0.01891054924218369
-3594.071100950241,-2568.0,7756.0,-14320.0,-147.0,81.0,20.0,-0.2394147715552892,-0.9409692732478636,-0.23754712922600674,-0.02878811145245574
-3594.0867099761963,-2524.0,7572.0,-14628.0,-299.0,97.0,-213.0,-0.26240150044033433,-0.9295296068084973,-0.25624881306425284,-0.03816684996516294
-3594.102308511734,-2480.0,7248.0,-14512.0,126.0,194.0,273.0,-0.246688758713484,-0.9374452567766473,-0.23893431179164634,-0.057021412820264454
-3594.1179094314575,-2484.0,7328.0,-14408.0,655.0,194.0,1402.0,-0.18041191793376013,-0.9708820312440353,-0.130557767960984,-0.088285279067148
-3594.1335184574127,-2464.0,7344.0,-14536.0,934.0,416.0,1938.0,-0.08028256483445219,-0.9866160085876288,0.019492074501385733,-0.14058314413133088
-3594.1491606235504,-2120.0,7496.0,-14512.0,1103.0,678.0,2556.0,0.04338080087008959,-0.9524165137172842,0.21465767953125772,-0.2119975734123852
-3594.164774417877,-2156.0,7388.0,-14528.0,1314.0,723.0,3217.0,0.18952206082941653,-0.8347604277000886,0.43987898010858834,-0.27159326144726814
-3594.1803679466248,-1724.0,7188.0,-14720.0,1711.0,769.0,4123.0,0.3554544124571491,-0.5859297749786417,0.6625985853110932,-0.30216150350757676
-3594.1960031986237,-1944.0,6860.0,-14596.0,1848.0,901.0,5839.0,0.48537398546605776,-0.14713244143970153,0.8274973063838655,-0.24085752393528215
-3594.2115948200226,-1772.0,6712.0,-14748.0,2617.0,893.0,7549.0,0.5017884496347097,0.43198033019586873,0.7427895821988739,-0.09932261934667774
-3594.227226257324,-1164.0,7728.0,-14540.0,2569.0,1272.0,10147.0,0.30185525812092584,0.8928156189485869,0.28975304996688267,0.1667538417581132
-3594.2428245544434,-1704.0,6804.0,-14756.0,2477.0,1486.0,10003.0,-0.055061769219176444,0.8803816172152225,-0.30664105406602393,0.3575858968153546
-3594.258441925049,-1444.0,7536.0,-14756.0,2610.0,664.0,13379.0,-0.4213376836280825,0.3145462245016723,-0.8078925858283185,0.2661668626450303
-3594.2740309238434,-5660.0,9264.0,-14588.0,-501.0,-1443.0,2591.0,-0.5507443718302253,0.17773326297434702,-0.8102607799678078,0.092568853162292
-3594.28964471817,-336.0,6648.0,-15080.0,1282.0,-621.0,3191.0,-0.6122575120178513,-0.10000403185443621,-0.784073544267483,0.019199212754563624
-3594.305249929428,-784.0,6664.0,-14760.0,1138.0,-1191.0,4013.0,-0.645590043026408,-0.4054220762100107,-0.6393895700331412,-0.10013697718405408
-3594.3208770751953,-1440.0,6968.0,-14960.0,1333.0,-1374.0,3629.0,-0.6054931714630873,-0.654456905290753,-0.419314789965421,-0.17099498631561594
-3594.3365190029144,-1292.0,7280.0,-14616.0,1258.0,-1335.0,3213.0,-0.508474741114392,-0.8170252207319975,-0.17525595310903452,-0.2078667295079394
-3594.352098941803,-528.0,7768.0,-14724.0,499.0,-234.0,317.0,-0.46978475874324915,-0.8470987315453582,-0.1511550977977515,-0.19717544440559737
-3594.3677089214325,-1040.0,7328.0,-14856.0,-119.0,318.0,-74.0,-0.4752320743921167,-0.8355375727995231,-0.16760446333339335,-0.2189524692255662
-3594.383350610733,-1528.0,6468.0,-14700.0,392.0,-409.0,938.0,-0.43253270422525397,-0.869500128616755,-0.08941360788418809,-0.22111126799909667
-3594.3989634513855,-1216.0,7168.0,-14884.0,153.0,-184.0,410.0,-0.4139101585771166,-0.8814026257296484,-0.05433858211607014,-0.22103192185103637
-3594.4145941734314,-1232.0,7064.0,-14816.0,-129.0,105.0,-246.0,-0.42776291403802796,-0.8733935902490833,-0.07460853885659662,-0.2205359195577782
-3594.4301970005035,-1380.0,6948.0,-14824.0,-43.0,-228.0,271.0,-0.42692215418690677,-0.8776517221403721,-0.04466712224373681,-0.2132364346890861
-3594.4458360671997,-1348.0,7416.0,-14788.0,-242.0,33.0,-140.0,-0.4476236220814157,-0.8673536850459899,-0.05217147761936867,-0.2112079897041481
-3594.461431503296,-1472.0,7144.0,-14820.0,-374.0,155.0,-370.0,-0.48130936203710806,-0.8473826401691636,-0.07931558227223985,-0.2097450775684276
-3594.4770274162292,-1408.0,7056.0,-14976.0,-396.0,161.0,-764.0,-0.5217409080140366,-0.8202836024249666,-0.13499558501443107,-0.19156572899143348
-3594.4927191734314,-1224.0,7212.0,-14596.0,-531.0,346.0,-1184.0,-0.5713427763162653,-0.7712687435196727,-0.2251446860613286,-0.1673972149085915
-3594.508325815201,-1208.0,7152.0,-14912.0,-875.0,800.0,-1966.0,-0.6304845551347935,-0.6643235073305321,-0.37713725215142335,-0.13758995742500937
-3594.523940563202,-1488.0,6812.0,-14896.0,-753.0,524.0,-1358.0,-0.6661946155946944,-0.5663445071827242,-0.4709504847094576,-0.11680870810227127
-3594.5395317077637,-1248.0,7256.0,-14788.0,-900.0,655.0,-1539.0,-0.6898141309327976,-0.4383206415594436,-0.5682695148910997,-0.09540041086798891
-3594.555119037628,-1192.0,7260.0,-14788.0,-1378.0,1173.0,-2897.0,-0.678753669739238,-0.19372078706741983,-0.7075932976482585,-0.03282434457471634
-3594.5707070827484,-1488.0,7176.0,-14868.0,-1458.0,1190.0,-2956.0,-0.6102769048050487,0.07500195572848135,-0.7880345971026614,0.030631354323936835
-3594.58634185791,-1708.0,7048.0,-14808.0,-1280.0,574.0,-1937.0,-0.5452715776689134,0.26897804869321307,-0.7924593825288824,0.04835124558465679
-3594.6020107269287,-1316.0,7504.0,-14676.0,-805.0,508.0,-2130.0,-0.47233739258490026,0.44333372751497124,-0.7547187184103582,0.10369305519081672
-3594.6176252365112,-1108.0,7564.0,-14388.0,-1036.0,951.0,-3195.0,-0.3256954208068456,0.6580410251409753,-0.6503050477196487,0.19495601300604148
-3594.633228778839,-1956.0,7816.0,-13812.0,-1752.0,-657.0,-460.0,-0.25081497855488655,0.7348412370416644,-0.6262938288521769,0.0696867477880009
-3594.648869037628,-1124.0,7236.0,-14816.0,-2557.0,114.0,-3372.0,-0.056126108313374064,0.9140428107265366,-0.4015860605337174,0.010209608696599842
-3594.6644818782806,-2296.0,6704.0,-14628.0,-1318.0,-443.0,-3783.0,0.03499932618025801,0.9937756887440723,-0.09320825361525052,-0.04997148272933132
-3594.680111169815,-1212.0,7884.0,-15568.0,-994.0,-1454.0,-7156.0,0.0659993755031499,0.8768695018704458,0.4435237748790928,-0.1732934512313442
-3594.6957569122314,-2268.0,7116.0,-15260.0,-2640.0,-292.0,-6046.0,0.16296473361226907,0.5399934138219707,0.8182565788552306,-0.11093141929908719
-3594.711371898651,-1776.0,6652.0,-14864.0,-1526.0,-633.0,-3862.0,0.22787936733599598,0.22198298866223182,0.9445703781171043,-0.08112550444120711
-3594.7269699573517,-764.0,7296.0,-14616.0,-942.0,121.0,-1710.0,0.22073062093208473,0.062300458669733605,0.9727364399536986,-0.034357884374356155
-3594.7425973415375,-2304.0,6992.0,-14636.0,-321.0,-509.0,-1171.0,0.260334351472359,-0.044469110840862906,0.9639647787427084,-0.031944153894112766
-3594.7581675052643,-1972.0,7976.0,-14468.0,-919.0,-279.0,-2068.0,0.2690387069074478,-0.23543500834410705,0.9339103041499688,-0.0002735582050397787
-3594.7737646102905,-2000.0,7528.0,-14528.0,-1229.0,-175.0,-2174.0,0.2518475694376562,-0.431274626074607,0.8648280834657924,0.05145274260364767
-3594.789381980896,-1856.0,7136.0,-14592.0,-873.0,-175.0,-1337.0,0.235642962832702,-0.5452317355903084,0.7989975290598778,0.09379604004869159
-3594.8049886226654,-1780.0,7204.0,-14768.0,-571.0,51.0,-208.0,0.2060471752408681,-0.5710656819771648,0.7844338684974702,0.12685446147971396
-3594.820597410202,-2012.0,7340.0,-14580.0,-287.0,-61.0,316.0,0.1919985924448346,-0.5534985290387486,0.7954120607037449,0.15522748641321832
-3594.8362414836884,-2076.0,7716.0,-14584.0,-290.0,-24.0,91.0,0.1780690083328218,-0.5514858766809985,0.795262287057526,0.17808046180530132
-3594.8518958091736,-2044.0,7876.0,-14112.0,-498.0,-67.0,-358.0,0.1637831000205563,-0.5821488601023831,0.7682053569215462,0.2100912430973554
-3594.8675122261047,-2020.0,7704.0,-14172.0,-295.0,-30.0,-358.0,0.1569352684563939,-0.6092818779724756,0.7436460113230428,0.22613607525598833
-3594.883143186569,-1908.0,7764.0,-14296.0,-40.0,65.0,-372.0,0.15753586164114103,-0.6348788706816306,0.723654682832742,0.22007992155861034
-3594.898779153824,-1956.0,7888.0,-14388.0,-116.0,167.0,-656.0,0.15258016827663853,-0.6798668473078573,0.6862283388856749,0.2087846476409476
-3594.9144115448,-2284.0,7864.0,-14404.0,-202.0,63.0,-1432.0,0.16132869296463148,-0.763386098388123,0.5937861780877053,0.1965520092140467
-3594.930075407028,-2096.0,7924.0,-14212.0,-495.0,-38.0,-1906.0,0.1603627357146085,-0.8559290916995765,0.45123924021626816,0.1950700670669631
-3594.9456803798676,-2528.0,7252.0,-14668.0,-312.0,-128.0,-1587.0,0.16714449512542887,-0.9115491513690929,0.3224504293932068,0.19278636614576428
-3594.9613523483276,-2036.0,7536.0,-14344.0,-102.0,-7.0,-865.0,0.17298494982825677,-0.9346055516614431,0.2511631424567604,0.18304574785492878
-3594.9770600795746,-2020.0,7320.0,-14396.0,81.0,80.0,-354.0,0.18310154721059752,-0.941971739784887,0.2247363477494484,0.16928271871622824
-3594.992755651474,-1824.0,7556.0,-14404.0,184.0,76.0,-245.0,0.19998947395514516,-0.9446536580713576,0.20850856445300317,0.15542797415296547
-3595.0083105564117,-1920.0,7384.0,-14608.0,-251.0,163.0,181.0,0.17349730144818903,-0.9475547865394125,0.22282242425141152,0.14962880787859165
-3595.0239458084106,-1904.0,7260.0,-14656.0,272.0,173.0,1122.0,0.1767621903195267,-0.9191579217823881,0.32017958669167385,0.14624935953389337
-3595.0395362377167,-1812.0,7260.0,-14664.0,449.0,394.0,1793.0,0.17620445554479347,-0.8556250365988793,0.469538885906563,0.12802742367536984
-3595.055145740509,-2020.0,6936.0,-14588.0,933.0,451.0,3272.0,0.1825210287277913,-0.6822912262039569,0.700543227467864,0.10199972140235443
-3595.0707862377167,-1548.0,7432.0,-14420.0,1231.0,669.0,4012.0,0.16775571603949968,-0.396907011673785,0.9011347984339363,0.04773802333245101
-3595.086410522461,-1880.0,7496.0,-14600.0,1437.0,708.0,4670.0,0.13057397117751715,-0.010558654565469675,0.9911908655344519,-0.019483863727818185
-3595.102019071579,-1820.0,7328.0,-14492.0,1702.0,586.0,5161.0,0.08136568564319047,0.4118783814221636,0.9023341364259878,-0.09761624023306183
-3595.117614030838,-1936.0,7284.0,-14684.0,2006.0,312.0,5664.0,0.029235023347937043,0.7745863987663663,0.6054597651017909,-0.18049846841145634
-3595.133215904236,-1848.0,7404.0,-14660.0,2278.0,2.0,6022.0,-0.026001808839385934,0.9578479282567687,0.1416309460322724,-0.24857982097768894
-3595.1488132476807,-2468.0,8260.0,-13992.0,1070.0,-34.0,1756.0,-0.07547542402208672,0.9610885083254386,-0.027912590045893963,-0.2642597715324817
-3595.164404153824,-372.0,7084.0,-14624.0,101.0,165.0,1193.0,-0.055478750363552695,0.956073758396189,-0.13072535295369964,-0.25642924727771355
-3595.1800644397736,-2464.0,7520.0,-14412.0,587.0,-391.0,1678.0,-0.07020742145199056,0.9139157594211064,-0.2785626541557334,-0.28676078944743855
-3595.195662498474,-1076.0,7324.0,-14704.0,637.0,-232.0,1773.0,-0.08091517100989037,0.8495634782975848,-0.42873659197564135,-0.296444878762413
-3595.2112741470337,-1588.0,7588.0,-14700.0,383.0,-33.0,957.0,-0.0851637024331248,0.8069544722883616,-0.5074094743420738,-0.29001249764379844
-3595.2268731594086,-1556.0,7284.0,-14728.0,519.0,-274.0,1156.0,-0.1036432783321155,0.7402624578411757,-0.5962106003843626,-0.2929206110140279
-3595.24245429039,-1452.0,7224.0,-14728.0,596.0,-335.0,988.0,-0.133301288157294,0.6712277798080178,-0.6686802065757815,-0.2907762292956134
-3595.2580263614655,-1356.0,7220.0,-14644.0,447.0,-287.0,582.0,-0.16079013104955603,0.6233088399612537,-0.709209213959767,-0.28749767758678024
-3595.273637533188,-1456.0,7112.0,-14820.0,239.0,-187.0,577.0,-0.17031363215385079,0.5786094165997512,-0.7428740440465343,-0.29041791337072526
-3595.2892549037933,-1792.0,7148.0,-14848.0,369.0,-514.0,1118.0,-0.19242818018450034,0.4845717363189549,-0.7961622282603323,-0.3070624270783669
-3595.304892539978,-1384.0,7260.0,-14804.0,278.0,-447.0,886.0,-0.2103557373609826,0.40471401849327643,-0.8303387054955875,-0.32014787388057603
-3595.320531129837,-1256.0,7344.0,-14788.0,115.0,-267.0,523.0,-0.21856496250248816,0.35673320040594525,-0.8460918690250562,-0.3303018771731471
-3595.33612203598,-1532.0,7300.0,-14656.0,18.0,-129.0,142.0,-0.22424170693661094,0.34210835319563326,-0.848578294497998,-0.33554792452166304
-3595.3517496585846,-1056.0,7308.0,-14772.0,-120.0,34.0,-299.0,-0.2265249106603219,0.3674157984305806,-0.8366008945612786,-0.3373292740531434
-3595.367349624634,-1476.0,7148.0,-14744.0,-200.0,-57.0,-99.0,-0.22686344940459707,0.37681836028331217,-0.8263794498723033,-0.3516218188713452
-3595.3829402923584,-1516.0,7244.0,-14836.0,-77.0,-190.0,57.0,-0.23597101900517323,0.3683185573579599,-0.8221270922363675,-0.36437091363936674
-3595.39862203598,-1308.0,7452.0,-14652.0,-175.0,59.0,-299.0,-0.23523904191026943,0.3950401345786067,-0.807930546092089,-0.368583936064221
-3595.4141998291016,-1532.0,7428.0,-14548.0,-3.0,8.0,-1209.0,-0.27168337182447977,0.47793176421048494,-0.7622438511717228,-0.34169238443903815
-3595.4298181533813,-1440.0,7216.0,-14752.0,-298.0,273.0,-1645.0,-0.286750248582458,0.5960843806077583,-0.6839430294995663,-0.3077005663503389
-3595.4453892707825,-1744.0,7132.0,-14960.0,-427.0,413.0,-1696.0,-0.28169637129163316,0.7104254188906262,-0.5875479546584879,-0.2659516489361025
-3595.460985183716,-1840.0,6912.0,-14776.0,-175.0,82.0,-984.0,-0.2880842029708204,0.7642032138813677,-0.5226224218747543,-0.2446768155053152
-3595.4765832424164,-1608.0,7172.0,-14660.0,-45.0,3.0,-747.0,-0.2999655187325025,0.7978190259423596,-0.4710291570207754,-0.22723781078909996
-3595.49223613739,-1648.0,7296.0,-14628.0,-131.0,129.0,-1077.0,-0.3052252177710355,0.8443089429273555,-0.3951349429700694,-0.19454652958497023
-3595.5078263282776,-1632.0,7156.0,-14744.0,-26.0,-49.0,-633.0,-0.31497390269645387,0.8647394508556671,-0.34630702091105925,-0.18190263885307284
-3595.5234711170197,-1632.0,7332.0,-14908.0,36.0,-85.0,-464.0,-0.3270616379010395,0.8757553283103492,-0.30934792345927675,-0.17431911025746838
-3595.539106607437,-1492.0,7392.0,-14604.0,-101.0,221.0,-1011.0,-0.3271293499121474,0.9056567722481322,-0.23595827760749874,-0.1307512544324252
-3595.554710626602,-1660.0,7216.0,-14760.0,-283.0,292.0,-1284.0,-0.31097420995808767,0.9371432492964146,-0.13868336092138875,-0.07631838862717741
-3595.5703110694885,-1768.0,7084.0,-14828.0,-223.0,177.0,-989.0,-0.2957054819424169,0.9525952163823713,-0.060905844558992624,-0.037564607986534236
-3595.585953474045,-1656.0,7180.0,-14692.0,-385.0,347.0,-1192.0,-0.2637842003318444,0.9639016993491392,0.030287235683188092,0.019851775784604446
-3595.601592063904,-1752.0,7040.0,-14808.0,-446.0,213.0,-916.0,-0.22403179890625882,0.9674646237880317,0.10125128510005099,0.05975058211512398
-3595.617173433304,-1712.0,7068.0,-14740.0,-319.0,73.0,-796.0,-0.1927621772852619,0.9636321967181983,0.16492017388417526,0.08400636108247034
-3595.632770061493,-1704.0,6928.0,-14692.0,-302.0,19.0,-554.0,-0.16304108973747272,0.9591955188087786,0.20868427237811304,0.09905773173454346
-3595.6483504772186,-1716.0,7328.0,-14772.0,-244.0,6.0,-415.0,-0.13872808317080737,0.9542572109867473,0.2410465635672261,0.10974629110807937
-3595.6639778614044,-1792.0,7284.0,-14780.0,-198.0,-246.0,-342.0,-0.11340746962671161,0.9510643704491697,0.2704195179637475,0.0974094112457592
-3595.6795752048492,-1760.0,7220.0,-14780.0,-215.0,50.0,-305.0,-0.09380849338461306,0.9450859844920688,0.2932850775387493,0.10952767585709053
-3595.69522690773,-1808.0,7232.0,-14672.0,-243.0,248.0,-376.0,-0.07615513975634314,0.9341720511944792,0.31966051533760115,0.13906879013599785
-3595.710832118988,-2028.0,7164.0,-14672.0,-174.0,-59.0,-307.0,-0.05628813079546724,0.9270458943037868,0.34284360081273624,0.14098163556932403
-3595.726456642151,-1760.0,7220.0,-14540.0,-154.0,-84.0,-481.0,-0.03507752581777819,0.9135411348745862,0.3799404928166605,0.1409162304093801
-3595.742062330246,-1740.0,7256.0,-14676.0,-106.0,-69.0,-481.0,-0.01811990240956051,0.8979209393751033,0.4168473161186817,0.14017121963175003
-3595.757635116577,-1768.0,7368.0,-14712.0,-81.0,-25.0,-452.0,-0.005041691133701694,0.8811969993359573,0.4509960865049134,0.14166495568442392
-3595.773234605789,-1836.0,7328.0,-14744.0,47.0,-108.0,-299.0,-0.0004203944013837459,0.8703922387064013,0.47447529416875617,0.13149284882334236
-3595.7888798713684,-2048.0,7404.0,-14640.0,50.0,19.0,-447.0,0.0004142818717844563,0.8509947777393637,0.5086507909189243,0.13069846796506304
-3595.804527282715,-1676.0,7368.0,-14696.0,-129.0,183.0,-836.0,0.011670657359988214,0.8094667123978863,0.5676955855906003,0.14949635238857448
-3595.8201220035553,-1948.0,6972.0,-14368.0,-35.0,18.0,-448.0,0.019374768566310898,0.7863731094064019,0.5984870753666519,0.15183929585117492
-3595.8357536792755,-1544.0,6932.0,-14720.0,-49.0,33.0,-495.0,0.027845349628581078,0.7592527238665931,0.6313079751609029,0.1555962027282856
-3595.85133433342,-2100.0,7996.0,-14708.0,-534.0,34.0,-1251.0,0.0780930676186655,0.6837175101678431,0.7021282702308562,0.18288720901806593
-3595.8669259548187,-1772.0,6896.0,-14928.0,-431.0,131.0,-233.0,0.0996797915633107,0.6637201366652775,0.7093988931663929,0.2151574533062174
-3595.882521867752,-1824.0,6860.0,-14728.0,497.0,-310.0,641.0,0.07804609673154635,0.7114728968607866,0.6770344998784741,0.1712875062338033
-3595.898160457611,-1664.0,7560.0,-14516.0,359.0,-83.0,228.0,0.057505453893105886,0.7280681870413146,0.6672421769204407,0.14627957864784974
-3595.9138107299805,-1704.0,7456.0,-14680.0,334.0,98.0,-44.0,0.03142492050738994,0.7255559541156227,0.6745102615369055,0.13272881714190013
-3595.9295275211334,-1780.0,7188.0,-14792.0,425.0,240.0,22.0,-0.009557892226265631,0.7245540354415031,0.6781169913636657,0.12283095068228697
-3595.9451615810394,-1756.0,7252.0,-14576.0,358.0,78.0,-194.0,-0.0344079591143577,0.711453106204087,0.6937378650914408,0.10666932342764289
-3595.9607994556427,-1880.0,7404.0,-14744.0,302.0,-18.0,-171.0,-0.05015585805102108,0.7000237548981162,0.7069288041261913,0.08776558766521708
-3595.9764251708984,-1804.0,7120.0,-14696.0,340.0,-13.0,13.0,-0.06989809733776281,0.6991205609084464,0.7085158124527058,0.06595483915606425
-3595.9920291900635,-1936.0,7012.0,-14724.0,314.0,-30.0,120.0,-0.0875618736648219,0.7044922010718554,0.7029126099445908,0.04401726581833358
-3596.0076208114624,-1940.0,7080.0,-14732.0,451.0,-72.0,291.0,-0.1115814587235121,0.7183817595145598,0.6865725660435431,0.009764078158390447
-3596.023288488388,-1788.0,7184.0,-14856.0,312.0,39.0,-11.0,-0.13314266410250272,0.7143995007839472,0.6869257384350552,-0.006278069033489237
-3596.0388782024384,-1924.0,7020.0,-14736.0,293.0,-78.0,430.0,-0.1460690224896141,0.7359808469585561,0.6602038836092305,-0.033568819556019626
-3596.0544509887695,-2008.0,7132.0,-14748.0,172.0,-5.0,125.0,-0.15616428157154502,0.7408799337390597,0.6516589641453614,-0.04527952509738388
-3596.0700285434723,-1940.0,6828.0,-14728.0,72.0,253.0,343.0,-0.17345843969159172,0.7599025364329516,0.6253399486514111,-0.03755334130508124
-3596.085601091385,-1916.0,6876.0,-15080.0,173.0,-149.0,513.0,-0.17463164423932445,0.783892447265923,0.592334377977382,-0.06447018392916377
-3596.10120511055,-1828.0,6988.0,-14748.0,121.0,-185.0,730.0,-0.16859404095322744,0.816983586962475,0.5433611950765819,-0.09419384095543905
-3596.116794347763,-1864.0,6932.0,-14788.0,188.0,-270.0,992.0,-0.1601064352945675,0.8555432018279291,0.47311693965106993,-0.13627956779535252
-3596.13237285614,-1832.0,6928.0,-14932.0,216.0,-301.0,939.0,-0.15178584960500144,0.884356586545124,0.4030932587421827,-0.17997307701584775
-3596.1480095386505,-1876.0,7168.0,-14660.0,192.0,-245.0,944.0,-0.14236622836278595,0.9078373993590445,0.3292267464245116,-0.21719314626730762
-3596.1635987758636,-1776.0,7124.0,-14772.0,414.0,-339.0,1095.0,-0.14360947102337732,0.9226098629446249,0.23748239229516677,-0.26789825303545955
-3596.179216861725,-1596.0,7260.0,-14712.0,511.0,-161.0,746.0,-0.16320999316790696,0.9250329697061224,0.1669248074733063,-0.299687523492059
-3596.1948533058167,-1776.0,6920.0,-14724.0,112.0,-30.0,2.0,-0.17150777779467313,0.9227378029118386,0.16421908650711134,-0.3035986180142061
-3596.210455417633,-2068.0,6852.0,-14788.0,9.0,-311.0,821.0,-0.14534494762446776,0.9235217529994936,0.10218274904326578,-0.33991337681054007
-3596.226052761078,-1908.0,6672.0,-14844.0,353.0,-414.0,989.0,-0.1398508173963192,0.9112816212276807,0.017117926140132352,-0.386929621883479
-3596.2416467666626,-1784.0,7104.0,-15052.0,165.0,-289.0,639.0,-0.13047788879743263,0.8988030307978971,-0.03574286337241057,-0.4169545299926847
-3596.2572271823883,-1804.0,7004.0,-14604.0,-7.0,-114.0,293.0,-0.1193564622869059,0.8935994276643866,-0.05723121752101293,-0.4289040516587572
-3596.272810935974,-1992.0,6920.0,-14804.0,58.0,-1.0,749.0,-0.09542799889469304,0.8874221452655964,-0.11763394125480757,-0.4353592642680544
-3596.288390636444,-1804.0,6936.0,-14736.0,100.0,-488.0,604.0,-0.08482944321475691,0.8599584731954242,-0.1638592367701909,-0.47584192802690234
-3596.304071187973,-1868.0,6984.0,-14600.0,-105.0,-17.0,152.0,-0.07067946249803972,0.8578593280936048,-0.17086480222548206,-0.47946533362092425
-3596.3196494579315,-2144.0,6692.0,-14612.0,-88.0,-47.0,359.0,-0.04956287438889877,0.8507484550766481,-0.19377240112810562,-0.48602761673392103
-3596.335283756256,-2160.0,6900.0,-14804.0,198.0,-381.0,942.0,-0.030455790285818723,0.8146015415704816,-0.26947164926096523,-0.5127200050257804
-3596.350859642029,-1732.0,7204.0,-14848.0,249.0,-167.0,464.0,-0.031132089189616383,0.7947456277287087,-0.3129148225746968,-0.5191285910464156
-3596.366446495056,-1572.0,7332.0,-14520.0,-322.0,675.0,-1346.0,-0.05073296503103919,0.85537262163302,-0.2051028159525427,-0.4729658331297844
-3596.3820264339447,-2256.0,6740.0,-15060.0,-496.0,260.0,-434.0,-0.026744387357217823,0.8745076835772899,-0.15320174278837032,-0.4594020843615923
-3596.397612810135,-1924.0,6820.0,-15088.0,144.0,-109.0,-186.0,-0.04646988314641871,0.8721844708837616,-0.14458960806936197,-0.46500391820706094
-3596.4131922721863,-1588.0,6852.0,-14524.0,-325.0,197.0,-1375.0,-0.07429465465194122,0.8920847984850002,-0.02743296698001389,-0.44487352014342146
-3596.4287629127502,-1420.0,7584.0,-14820.0,-928.0,941.0,-2707.0,-0.10125526967051827,0.910305569548195,0.20615687379304248,-0.3443696905962641
-3596.4443447589874,-2460.0,6872.0,-14968.0,-147.0,231.0,-604.0,-0.11147310453306161,0.9062695534794187,0.2560504148294423,-0.3173128243037874
-3596.459967136383,-1664.0,7280.0,-14964.0,979.0,446.0,-1862.0,-0.24593073700096654,0.8527253016993727,0.36547896117637435,-0.28071829540896237
-3596.475551366806,-1304.0,7736.0,-14560.0,718.0,141.0,-1105.0,-0.3285243072862446,0.8003107428840552,0.42429301186586754,-0.2674881949325153
-3596.491151332855,-1252.0,7012.0,-14624.0,865.0,-204.0,-1280.0,-0.407301819911907,0.7168826000293419,0.49485345823781257,-0.2744168729172764
-3596.506733417511,-1292.0,7048.0,-14892.0,711.0,-90.0,-1061.0,-0.47017436477210794,0.6397804624142741,0.5441062990455198,-0.27122935306325124
-3596.5223224163055,-1420.0,6476.0,-14788.0,831.0,125.0,-2443.0,-0.5659325083759015,0.48068787997264256,0.6397744384920196,-0.19836387237344383
-3596.537927865982,-1964.0,7044.0,-14408.0,1390.0,-204.0,-2075.0,-0.6336135135034027,0.28595829794330874,0.6965414045286127,-0.17774093259726825
-3596.5535287857056,-2288.0,6840.0,-14736.0,2702.0,-929.0,-1219.0,-0.6401895065506883,0.046368484084902746,0.7109614723312362,-0.28729974633935074
-3596.56915807724,-2140.0,7076.0,-14912.0,3308.0,-1014.0,-1534.0,-0.5972277567921329,-0.24605800437541225,0.656210422883094,-0.3900799224510503
-3596.5847432613373,-2264.0,6820.0,-14880.0,3618.0,-944.0,-1391.0,-0.4841817162926328,-0.5161914783807265,0.5217996785611079,-0.4762767249284443
-3596.6003444194794,-2012.0,7408.0,-14620.0,5014.0,-1246.0,-956.0,-0.21926150298479896,-0.748617337176199,0.29363027777499673,-0.5525194437862276
-3596.615943670273,-1236.0,9120.0,-13520.0,5838.0,-400.0,-1670.0,0.0811024097066119,-0.814810809701363,-0.07893921321877377,-0.5685721978341808
-3596.6315281391144,-1624.0,6316.0,-15648.0,6906.0,-1189.0,-1728.0,0.4045515237290634,-0.6880586487729903,-0.4679071286318236,-0.37944206339400777
-3596.6471123695374,-1920.0,7764.0,-15016.0,8081.0,-1762.0,-1149.0,0.6300271032505292,-0.3347868778305463,-0.7005846118180248,0.012837339522237886
-3596.6626963615417,-2152.0,6744.0,-15128.0,8429.0,-2361.0,-375.0,0.581616133444455,0.12253374233778999,-0.6610279056852125,0.4579850032601942
-3596.6782941818237,-2724.0,7816.0,-15460.0,6956.0,-3735.0,2339.0,0.1608968226520015,0.39798662286090475,-0.4854215853348358,0.7616329463562332
-3596.693925142288,-2520.0,6364.0,-16292.0,9056.0,-3535.0,2874.0,-0.37034979596430734,0.4782672115437249,-0.024750396753104937,0.79592017241175
-3596.7095165252686,-2784.0,7332.0,-17796.0,10373.0,-4900.0,-1189.0,-0.5153261158346955,0.3426314558240893,0.6370442067459292,0.4595838970961025
-3596.725145816803,-3448.0,9660.0,-18808.0,7267.0,-7459.0,5054.0,-0.36608946088345046,0.41923323173101806,0.7829964498678115,-0.27773830044996467
-3596.7407410144806,-3980.0,6996.0,-21420.0,6025.0,-8127.0,3439.0,0.03833978396431338,0.1936687046303118,0.5638020275709011,-0.8019661885137851
-3596.7563247680664,-4692.0,6896.0,-23592.0,8381.0,-7038.0,-7329.0,-0.1771848000062964,-0.414436480831583,0.05103447796821486,-0.8912033617874057
-3596.771944284439,-3224.0,8868.0,-22960.0,10058.0,-4134.0,-18026.0,-0.5722079498026669,-0.46466275702394727,-0.630702853387338,-0.24265303448875877
-3596.7875423431396,-356.0,6672.0,-23532.0,16551.0,-1878.0,-15698.0,-0.15069695866664343,-0.20907864722367092,-0.6822692153918509,0.6841675698630648
-3596.803166627884,176.0,11084.0,-18732.0,20151.0,1468.0,-8483.0,0.3758069042961272,-0.026288878399721903,0.16069303357159256,0.9122805569107593
-3596.8187849521637,6484.0,5820.0,-15440.0,2865.0,32767.0,-32768.0,0.6066285897596241,-0.718941661897356,0.3327103756668002,-0.06654657615666056
-3596.834367990494,1524.0,30236.0,-7744.0,-113.0,19141.0,23202.0,0.06347099690923376,0.02139146414868583,0.9976728787283315,-0.012754013597592422
-3596.8500003814697,-14340.0,2328.0,-9104.0,11010.0,6065.0,22085.0,-0.18924554611966993,0.827108909483209,0.40186708382593006,-0.34435421017407025
-3596.8655738830566,-15740.0,29932.0,-760.0,-6155.0,-2431.0,-9124.0,0.04725616088468589,0.38185131228811575,0.916527605682053,-0.10924091992018232
-3596.881187438965,1136.0,14164.0,-7360.0,-8852.0,-2773.0,-4451.0,0.38816075541279443,-0.027657283868845587,0.846507726262343,0.3633056178818669
-3596.8967850208282,-1608.0,18812.0,-5684.0,-11235.0,244.0,6955.0,0.08011488450891364,0.06417995093746354,0.33750767056520303,0.935708881804292
-3596.912427186966,-6620.0,15800.0,-7612.0,-15238.0,-1357.0,7691.0,-0.23503117663259995,0.16403639523819086,-0.5334337700592591,0.7958019979921644
-3596.928118467331,-7640.0,12236.0,-10276.0,-16416.0,-3313.0,9280.0,-0.4101922737487164,0.15339434905852742,-0.8927332684694037,-0.10601784567564193
-3596.943774700165,-8584.0,10644.0,-13220.0,-18275.0,-3351.0,10175.0,-0.1580841026129881,-0.007732176439802928,-0.35202066582033903,-0.9225134583213166
-3596.95938372612,-11680.0,10144.0,-15288.0,-21463.0,-4392.0,1482.0,-0.08709422716819157,-0.051179659561597604,0.6649705806554909,-0.7400063276106723
-3596.974988222122,-8736.0,8280.0,-17872.0,-23549.0,-5129.0,-5513.0,-0.10535520406993572,-0.22003025871792975,0.9251503338390605,0.2908329864739861
-3596.9906392097473,-3508.0,7620.0,-18848.0,-21829.0,-4841.0,-1684.0,-0.04125969126528012,-0.014799087547382291,0.17448833563396585,0.9836831022296496
-3597.006285429001,-1340.0,6156.0,-19304.0,-18829.0,-3022.0,4167.0,-0.19101643811703026,0.19028053542417636,-0.7216392991639137,0.6376070577636253
-3597.021866798401,-2424.0,2904.0,-20420.0,-12466.0,-3456.0,15313.0,-0.5228633533737361,-0.18556248861415328,-0.7999953889436461,-0.22844661123990967
-3597.037504196167,-728.0,5800.0,-19204.0,-10350.0,-1311.0,24702.0,-0.1136842481364558,-0.5753215279744981,-0.052672255358815534,-0.8082738797524964
-3597.053073167801,-4308.0,5816.0,-11036.0,-17880.0,-7330.0,4909.0,-0.34827056710987997,-0.4672601217223663,0.7612081194857244,-0.2844956758229714
-3597.068720817566,4020.0,3908.0,-18376.0,-18796.0,-3618.0,5985.0,-0.3599727012167128,0.20419264349316602,0.7847911501031708,0.4613327101363597
-3597.084303379059,-4304.0,2596.0,-19760.0,-18861.0,-3220.0,6667.0,-0.03522142550231544,0.6808174213713685,0.003927642287040797,0.7315952867322822
-3597.09988117218,-4548.0,1740.0,-19868.0,-16889.0,-3538.0,7286.0,0.26316313625593746,0.5016583810900817,-0.7808740411963431,0.2632864679084534
-3597.1154732704163,-3556.0,780.0,-19316.0,-13660.0,-3714.0,9815.0,0.2117629423051544,-0.21905834262321916,-0.8915703935538428,-0.3350703390807335
-3597.1311132907867,-1028.0,-184.0,-19428.0,-11505.0,-3201.0,5708.0,-0.0592358175978671,-0.6345527037296936,-0.3307694011807261,-0.6960068874266919
-3597.146705389023,-1136.0,416.0,-18948.0,-11226.0,-1220.0,-1420.0,-0.5693158426277201,-0.4327168519191481,0.19771469893743274,-0.6704807940741865
-3597.1622977256775,-2996.0,-304.0,-17408.0,-9894.0,-1736.0,-187.0,-0.6946546830404166,-0.03473876970085331,0.6436056509414133,-0.31940547159679206
-3597.1778926849365,-3676.0,1036.0,-15672.0,-6993.0,-3058.0,3846.0,-0.3500038720846379,0.4167727593351585,0.8302184279079416,-0.12056167950051283
-3597.1936144828796,-5532.0,3336.0,-14396.0,-5237.0,-4793.0,7856.0,0.19880708073455228,0.8045538972092895,0.5478627799040273,-0.11408394072340232
-3597.209225177765,-2656.0,6148.0,-13044.0,-6528.0,-1217.0,2594.0,0.6293243263832977,0.6819640371402517,0.3477134257745976,0.13405714380692843
-3597.2248680591583,-2148.0,5016.0,-14248.0,-6581.0,-157.0,-119.0,0.8905018950951668,0.2766211954933898,0.233534145716758,0.2755882650260498
-3597.240458250046,-1080.0,4772.0,-14252.0,-4907.0,-59.0,-1881.0,0.9593182890928129,-0.12849714038260243,0.1422957089172286,0.20724101029785516
-3597.2560873031616,1076.0,6796.0,-12992.0,-4671.0,2159.0,-6609.0,0.8070652612871421,-0.5171210174983912,0.13296929527949497,-0.25209260956604856
-3597.2717185020447,-160.0,5240.0,-12864.0,-4134.0,2460.0,-6080.0,0.3792941810348761,-0.6832161948153187,0.10174022925274527,-0.61563014962456
-3597.2873129844666,-236.0,4948.0,-11964.0,-2195.0,1795.0,-4375.0,-0.0025102545031020092,-0.6357634660174389,0.016555640212551237,-0.7717022901851301
-3597.3029310703278,-2388.0,6192.0,-11900.0,-1355.0,1361.0,-3504.0,-0.29813969530397644,-0.5184562167312455,-0.08216436611212238,-0.7972232374675043
-3597.3185222148895,-3572.0,4048.0,-13156.0,-434.0,663.0,-1286.0,-0.39905826859670407,-0.448171719327575,-0.1264688552889125,-0.7898735575403688
-3597.3341608047485,-2796.0,3980.0,-14064.0,767.0,1416.0,-2593.0,-0.5142146600342388,-0.33713049657186817,-0.31910772120809366,-0.7211772139720274
-3597.3497772216797,-2392.0,-96.0,-16656.0,3453.0,669.0,-2769.0,-0.52919869003356,-0.3474377552377561,-0.6036584968498071,-0.48459485333951346
-3597.365380048752,-988.0,1240.0,-17216.0,5672.0,948.0,-4260.0,-0.4132466056212959,-0.2925754654387761,-0.862207910230345,-0.014978634850414124
-3597.380954027176,-1364.0,856.0,-17024.0,7880.0,1036.0,-4341.0,-0.10943177688898646,-0.19520541056646495,-0.8008699989120937,0.5554518689634955
-3597.39657330513,-272.0,1900.0,-17140.0,9098.0,2494.0,-4293.0,0.3174555387394078,-0.07639498227938724,-0.33895292879201605,0.8823245999458016
-3597.4121420383453,596.0,-3244.0,-18064.0,10149.0,6007.0,-8759.0,0.7610181212663724,0.0007746909953387897,0.3384344196143695,0.5534554747930023
-3597.4277617931366,5664.0,-12212.0,-23004.0,20593.0,-8144.0,-10714.0,0.6407677637538235,0.6102343870132965,0.3348496148772661,-0.3238925767241
-3597.4433422088623,5248.0,56.0,-16492.0,15233.0,-3093.0,8739.0,0.0901264511342219,0.881238519787313,-0.396799200634956,-0.24051255356940507
-3597.458931207657,-1056.0,32767.0,-10444.0,4763.0,811.0,-871.0,-0.24474446577555686,0.887836863415239,-0.38923755845447067,-0.018438370904993593
-3597.47452044487,-2104.0,28808.0,-17524.0,2880.0,2002.0,-5020.0,-0.35967385310512096,0.8820616566241695,-0.04201598882944411,0.3013911246016143
-3597.490078687668,-11700.0,2052.0,-32768.0,2822.0,12444.0,-26350.0,0.05903933734576838,0.2051665156133829,0.6086748491653879,0.7641570424397908
-3597.505705356598,-18920.0,3272.0,-23308.0,12603.0,3443.0,-4582.0,-0.0279372091106256,-0.1294113204979395,0.98758928220244,0.08449634402125428
-3597.521364212036,-3920.0,10384.0,-1532.0,13408.0,9677.0,-11069.0,-0.313863183254636,-0.5926395528253434,0.4679501049250991,-0.5755788060073378
-3597.536939382553,-1884.0,8708.0,-1840.0,5727.0,5576.0,-6291.0,-0.4198930145970977,-0.5432155305335149,-0.2228815488102119,-0.6920480900051054
-3597.5525665283203,1088.0,2512.0,-11772.0,6049.0,3094.0,-1625.0,-0.14602325631673144,-0.46672212133069696,-0.6648335028678444,-0.5646628051675656
-3597.5681471824646,1484.0,6336.0,-17148.0,6717.0,1749.0,-2123.0,0.10511376162822605,-0.2897972008154771,-0.933150462750295,-0.18492942811999577
-3597.5837585926056,-1972.0,11944.0,-14504.0,5106.0,2768.0,-2593.0,0.36514607135358645,0.011342708866724178,-0.9231426986611183,0.11977999598962262
-3597.5993275642395,-852.0,6800.0,-15612.0,4182.0,2881.0,-1860.0,0.553816721077004,0.23913076745693737,-0.7107554259650273,0.36184283877430096
-3597.6149089336395,-2088.0,5748.0,-14956.0,3636.0,1249.0,-226.0,0.5331200520282331,0.36929370959224433,-0.5033680598913992,0.5709866569913715
-3597.630494594574,-4120.0,5780.0,-15436.0,3495.0,819.0,-537.0,0.46059116646139897,0.4908591363546209,-0.2611320670703176,0.6918982072404195
-3597.6460542678833,-4844.0,7488.0,-15868.0,4543.0,2498.0,-1741.0,0.38627722649358776,0.5077045863891312,0.16985859483310642,0.7511151809231293
-3597.661640405655,-3052.0,8032.0,-14344.0,6304.0,5849.0,-1569.0,0.09789555366765418,0.24945439053664356,0.6757280746304614,0.6867172174704119
-3597.677238702774,-3556.0,8160.0,-13384.0,2624.0,3322.0,-2192.0,-0.02187502704701333,-0.0521093321109649,0.8394839801789792,0.5404375521015364
-3597.6928718090057,-2808.0,3228.0,-19528.0,4542.0,2450.0,-6519.0,0.10261738583037855,-0.5292269968389494,0.8251344409232143,0.1689426303349768
-3597.708512544632,1312.0,6184.0,-16348.0,8446.0,3234.0,-2954.0,0.23317169920259784,-0.5493101960518602,0.6480039921387954,-0.47326535197141134
-3597.7240982055664,1604.0,10252.0,-13876.0,2947.0,3683.0,4550.0,0.3072732427352243,-0.06940480841114834,0.7113553256269841,-0.6282831587513064
-3597.7396969795227,-2588.0,4672.0,-16196.0,3459.0,3647.0,3661.0,0.265880372880792,0.3960870007875985,0.5641742490079993,-0.6738917805405524
-3597.755317211151,-3180.0,7444.0,-14140.0,3756.0,3106.0,2270.0,0.10559797515343433,0.7041915141638736,0.305052747494758,-0.6323813724873505
-3597.77091383934,-6468.0,7252.0,-15712.0,2359.0,831.0,-1018.0,-0.11444088920514622,0.725050354607508,0.2385321614058225,-0.6358519278389657
-3597.7864952087402,-2004.0,6068.0,-15268.0,3523.0,1765.0,538.0,-0.325092737007529,0.7550369567749524,-0.008171492411863967,-0.5693567712434225
-3597.8021037578583,-3076.0,4636.0,-15744.0,2883.0,582.0,-1216.0,-0.5539224434527327,0.6776096344490813,-0.08467899604560698,-0.4762820357412661
-3597.8176774978638,-1624.0,6280.0,-15516.0,1776.0,441.0,-197.0,-0.6552905809305141,0.604017597462892,-0.16615349597425383,-0.4220782063485851
-3597.833275794983,-1108.0,5408.0,-15500.0,1607.0,191.0,114.0,-0.7256169188794683,0.5126048998826083,-0.24003118040681243,-0.39128165825236494
-3597.8488845825195,-604.0,6108.0,-15168.0,2019.0,898.0,3225.0,-0.650011230248437,0.3293805007014879,-0.4829652215875488,-0.4855290733266552
-3597.864499568939,-2560.0,6808.0,-14308.0,1664.0,2004.0,1186.0,-0.5461281194976593,0.26189810027056115,-0.6805383392388854,-0.4123360656001378
-3597.8801126480103,56.0,5976.0,-15256.0,1467.0,1654.0,2087.0,-0.39249420205626934,0.12328351203340107,-0.8312566601517773,-0.373847351155836
-3597.8957171440125,-1000.0,6840.0,-14968.0,1454.0,1668.0,1019.0,-0.24808652299268555,0.05275650368028941,-0.9261941985561998,-0.2789876968428357
-3597.911310195923,-644.0,6096.0,-15308.0,337.0,1482.0,894.0,-0.10655287899293807,0.00912654801015772,-0.9593715018704951,-0.26109291736560986
-3597.9269800186157,-636.0,5484.0,-15180.0,-175.0,1404.0,1352.0,0.04153468071588368,-0.06946618401621105,-0.9557362328264921,-0.2828737754523754
-3597.9426572322845,-2056.0,5160.0,-15640.0,509.0,1682.0,762.0,0.20072028786574536,-0.08838362526708962,-0.9445875510360177,-0.24424180488097874
-3597.958256483078,-2160.0,5488.0,-15676.0,346.0,1180.0,1084.0,0.3202142998397638,-0.14500510631594118,-0.9137546502246361,-0.2036878997714036
-3597.9738368988037,-2572.0,5492.0,-15764.0,1198.0,506.0,1425.0,0.39520332510283135,-0.21313206851106542,-0.8904832726527957,-0.07367899514398177
-3597.9898273944855,-1892.0,4884.0,-15892.0,1427.0,46.0,1672.0,0.42798344290500373,-0.28829034474476134,-0.851586273711978,0.09230204846846068
-3598.0055220127106,-2600.0,5612.0,-15572.0,1368.0,-13.0,1251.0,0.4453290882226527,-0.3258513383935838,-0.7993373347105499,0.2378292113843992
-3598.0211520195007,-1948.0,6256.0,-15156.0,1687.0,-315.0,612.0,0.45274547543706234,-0.292805035996484,-0.7499079028255348,0.3833078170950525
-3598.0367243289948,-1088.0,5992.0,-15076.0,1712.0,86.0,201.0,0.48972982810466187,-0.23855241010870046,-0.6766670076685573,0.4953576524379022
-3598.0523324012756,-548.0,5844.0,-15032.0,2130.0,-44.0,854.0,0.4848187434073301,-0.19227746520125621,-0.5578316406461631,0.6456036114449231
-3598.0679371356964,-332.0,5040.0,-15228.0,1951.0,-88.0,1636.0,0.4109814426699897,-0.1800846579320096,-0.4143119033285448,0.791839261794137
-3598.0835242271423,-420.0,5512.0,-15292.0,1493.0,88.0,1692.0,0.3145913265609285,-0.19024794964278494,-0.27630878999261294,0.8879704203869462
-3598.0991241931915,-812.0,5076.0,-15740.0,1840.0,-99.0,2224.0,0.16517066196236668,-0.18027813048423436,-0.09664546979532976,0.9648202429800398
-3598.1146972179413,-3008.0,5444.0,-15520.0,1764.0,22.0,1406.0,0.07326061221323305,-0.16568013905255474,0.07302888278866992,0.9807393927544193
-3598.130265712738,-1044.0,5444.0,-16160.0,1787.0,761.0,845.0,0.02153041284314969,-0.21061240148976115,0.2392415872050566,0.9475981852099151
-3598.1458275318146,-2152.0,4596.0,-16492.0,2146.0,41.0,634.0,0.00753342281270099,-0.19325092569251462,0.420702091482995,0.8863447847658071
-3598.1613965034485,-1840.0,4008.0,-15892.0,2026.0,-128.0,472.0,0.009729613201738133,-0.16214281347664175,0.5760562530276061,0.8011081300377734
-3598.1769547462463,-872.0,5488.0,-16140.0,2150.0,443.0,547.0,-0.019980085161460714,-0.16073651589733856,0.7207602951447057,0.6739949299490627
-3598.1925213336945,-344.0,6480.0,-13940.0,1897.0,1078.0,-501.0,-0.031125060176111555,-0.2541643264120872,0.8083037227550751,0.5301667828040623
-3598.2081179618835,-1808.0,4744.0,-15036.0,2001.0,1369.0,-278.0,-0.06886547931761222,-0.3350643091704538,0.87155233421021,0.3512634100090939
-3598.2237555980682,-716.0,5648.0,-15644.0,2220.0,1035.0,-573.0,-0.06354745041254527,-0.41386064485558405,0.8953582269255659,0.15170607655098048
-3598.2393007278442,-20.0,4500.0,-16600.0,2331.0,457.0,-643.0,-0.006331345100694117,-0.4722920322436215,0.8803855909421686,-0.04267741334493947
-3598.2548925876617,768.0,5668.0,-15644.0,669.0,1071.0,-2688.0,-0.0689283979638663,-0.6536311523954427,0.7419998261934133,-0.13210393825047392
-3598.2704792022705,-260.0,1844.0,-17212.0,1107.0,-530.0,-27.0,0.028132615835001724,-0.6643915983149982,0.7267582121817854,-0.1720896889446236
-3598.286064863205,-3012.0,4388.0,-16236.0,1012.0,-532.0,178.0,0.12256288199819589,-0.6553199462110432,0.7169786656898828,-0.20365583959171787
-3598.301645755768,-3044.0,2928.0,-16812.0,822.0,-783.0,1105.0,0.2358682314078098,-0.5857726019254154,0.7501278799928642,-0.19632829623742917
-3598.317209005356,-1152.0,7616.0,-13860.0,165.0,1096.0,-127.0,0.16939699457464188,-0.5692596059861227,0.7598582021082527,-0.2643173696721744
-3598.332789182663,-608.0,5624.0,-14196.0,-1926.0,663.0,-179.0,0.025058242019129838,-0.5850943914051717,0.7927120928602059,-0.16924590242104723
-3598.3483538627625,-296.0,4152.0,-15924.0,-124.0,-1068.0,964.0,0.10591055428391898,-0.5302881336654267,0.8348573911707488,-0.1029105737642289
-3598.363968372345,0.0,5304.0,-15924.0,-2877.0,-1555.0,1770.0,0.09678870120084541,-0.4202902774343445,0.8828874978693817,0.1857355542699297
-3598.37956738472,1608.0,5252.0,-15432.0,-6465.0,-689.0,1071.0,-0.0909555309275326,-0.33043935603990787,0.7035758198352238,0.6225094289380799
-3598.395143032074,-428.0,2052.0,-16376.0,-5961.0,-206.0,185.0,-0.23082295906185102,-0.23122518495610167,0.34322226895958974,0.8805987448901904
-3598.4107308387756,-3348.0,1508.0,-17652.0,-3205.0,-2476.0,2820.0,-0.4023022460584603,0.09906495949098042,0.18731491574892564,0.8906470451056026
-3598.426305294037,-4984.0,7132.0,-15008.0,-3393.0,-13.0,1601.0,-0.47249313944597116,0.23307949591917262,-0.08505907236474111,0.845688557311144
-3598.4418802261353,-3732.0,6152.0,-15952.0,-4840.0,-641.0,2361.0,-0.49984966709931844,0.41814091730304087,-0.4192919684303474,0.6320622823642277
-3598.457446336746,-1632.0,5380.0,-14928.0,-4808.0,-329.0,1918.0,-0.4027376584346589,0.5246884493702539,-0.6743894243734974,0.3281818304982611
-3598.4730083942413,-1312.0,5696.0,-15004.0,-3629.0,-887.0,1722.0,-0.3180067030313375,0.542425387621775,-0.777490294281399,0.012461058892789905
-3598.4885692596436,-612.0,5924.0,-15444.0,-3080.0,-759.0,1114.0,-0.21554225364387378,0.5307529573367106,-0.7796900347835498,-0.2528364784434446
-3598.504158973694,-696.0,6104.0,-15572.0,-3221.0,-761.0,543.0,-0.10158724905553027,0.5159499535839097,-0.6905881468645328,-0.49655179753606915
-3598.519753217697,-476.0,5984.0,-15144.0,-3600.0,-384.0,337.0,0.04966679895690688,0.4870593824696337,-0.520960974558707,-0.6992181562406082
-3598.5353384017944,-876.0,5960.0,-14800.0,-2888.0,-106.0,185.0,0.173465235077877,0.44579632350792886,-0.3425223459289455,-0.8086123253485088
-3598.550957918167,-1036.0,6724.0,-14592.0,-2056.0,364.0,60.0,0.2642150272688549,0.43163920949644835,-0.19133587485136144,-0.8409926249292936
-3598.566624403,-1096.0,7172.0,-14504.0,-1866.0,496.0,180.0,0.35100743636547904,0.4163189550035424,-0.049231212755773926,-0.8372864474070317
-3598.582194328308,-2236.0,5688.0,-15408.0,-1489.0,-622.0,520.0,0.43567487249728454,0.31983722320202546,0.021278801608055033,-0.8410937930641371
-3598.597795724869,-1608.0,6172.0,-15528.0,166.0,-578.0,1069.0,0.5076662458037378,0.2843806347590036,-0.04256669090438724,-0.8121519034460583
-3598.6133959293365,-780.0,7488.0,-14800.0,996.0,-215.0,852.0,0.5388950332690187,0.3082962568575807,-0.14301665696386062,-0.7707735056139835
-3598.6289625167847,-568.0,7528.0,-14372.0,798.0,137.0,610.0,0.5579310168844552,0.3462992828262762,-0.20602966694140382,-0.7254940133814329
-3598.644555091858,-1120.0,7312.0,-14452.0,322.0,465.0,79.0,0.5607925057752867,0.3897349642603783,-0.20607811859202824,-0.7008211127932765
-3598.6601231098175,-1652.0,6212.0,-14988.0,315.0,349.0,-114.0,0.5488087909712536,0.42839810313643023,-0.20435017880914502,-0.6881315140308935
-3598.6757442951202,-2012.0,5624.0,-15480.0,1158.0,359.0,-397.0,0.48498348787556883,0.5095717790452114,-0.2404877868619766,-0.6687998526158441
-3598.6913273334503,-1608.0,6252.0,-15308.0,1167.0,-63.0,-126.0,0.4221022025214508,0.5552213227385914,-0.30418486401305067,-0.6488686938883019
-3598.706940174103,-1592.0,6140.0,-15112.0,873.0,-342.0,457.0,0.39487294969701436,0.5537848971210921,-0.3868806689881055,-0.6226724574617672
-3598.7225301265717,-1500.0,5932.0,-15336.0,659.0,-450.0,471.0,0.3721057247245604,0.5345722583439398,-0.45958887836844675,-0.6037780164235055
-3598.738128423691,-1432.0,5992.0,-15008.0,329.0,238.0,-231.0,0.3537260625642764,0.5667446802925716,-0.45818394825369557,-0.5862983963695443
-3598.7537021636963,-1492.0,5772.0,-14856.0,370.0,218.0,-481.0,0.3189183850618111,0.6077416239438844,-0.44602850732714194,-0.5744560495348087
-3598.7693343162537,-1376.0,6000.0,-15348.0,167.0,173.0,-575.0,0.28745043986333657,0.6426418036912835,-0.41860851260455795,-0.5737165414608401
-3598.784895658493,-1192.0,5948.0,-15396.0,-360.0,34.0,-584.0,0.2790681262615825,0.6556289800644067,-0.36646445373240344,-0.5983104758861961
-3598.800501346588,-1340.0,5124.0,-15848.0,-673.0,-101.0,-422.0,0.2915298223985792,0.6460681182219812,-0.3090226860166857,-0.634122487218671
-3598.8161108493805,-1360.0,5164.0,-15584.0,-764.0,-45.0,-190.0,0.3220535326117581,0.6279779686241099,-0.2567035454764279,-0.6603245283910447
-3598.831713438034,-1096.0,5832.0,-15412.0,-231.0,160.0,-164.0,0.32865832802656314,0.634321807309725,-0.22994721004687813,-0.6608659688482721
-3598.8473138809204,-1088.0,6460.0,-14944.0,-121.0,316.0,-189.0,0.3305590833591173,0.6526887972345208,-0.20345868437083572,-0.6506401387306374
-3598.862898826599,-1064.0,6572.0,-14972.0,-217.0,557.0,-676.0,0.3134096054422762,0.6881214511349116,-0.13627305532549874,-0.6400726068945254
-3598.878480911255,-1224.0,5988.0,-15268.0,-164.0,564.0,-625.0,0.2941867297407809,0.7207567946769802,-0.074053080360588,-0.6232815994881437
-3598.8940625190735,-1116.0,6208.0,-15040.0,-279.0,604.0,-665.0,0.27850015738045747,0.7484267374459284,-0.0016328165532522602,-0.6019073142313582
-3598.909655570984,-1424.0,5776.0,-15392.0,-182.0,384.0,-640.0,0.25621862350602415,0.7627563268652058,0.05885932288037831,-0.5908387114144107
-3598.9253885746,-2248.0,5348.0,-15528.0,495.0,-542.0,367.0,0.24432299201728228,0.7460642637585934,-0.0032424457958560252,-0.6194222117904168
-3598.940995693207,-1780.0,6500.0,-15124.0,24.0,-63.0,314.0,0.2596072595517433,0.7429921178966259,-0.026390847630508734,-0.6163361961566622
-3598.9565856456757,-1544.0,6124.0,-15308.0,233.0,-107.0,92.0,0.24911279562469868,0.7422978108969532,-0.04737333631194586,-0.6202358760990156
-3598.9721822738647,-1252.0,6208.0,-14968.0,175.0,147.0,-145.0,0.2304608170955345,0.7546446353949958,-0.04432943578986143,-0.6127268454831772
-3598.9878268241882,-952.0,6496.0,-15228.0,-102.0,198.0,-231.0,0.22550475611644874,0.763968441119041,-0.019761959530152983,-0.6042427417011574
-3599.0034794807434,-836.0,5836.0,-15196.0,114.0,234.0,-430.0,0.19544197699663016,0.7787383707066312,0.007415744262778891,-0.596082201004072
-3599.019077062607,-1504.0,6176.0,-15292.0,124.0,348.0,-327.0,0.16963495546464252,0.7981914055601301,0.02902365225306043,-0.5772972281107416
-3599.034668445587,-1472.0,6136.0,-15436.0,189.0,236.0,-337.0,0.13881117597603862,0.8115750041404319,0.04636627577829052,-0.5656214622422476
-3599.0502355098724,-1420.0,5860.0,-15408.0,340.0,-29.0,-23.0,0.11370027650206684,0.8139889864634644,0.03078737910857089,-0.5688113169823192
-3599.065789937973,-1528.0,6072.0,-15128.0,124.0,-162.0,34.0,0.1070529734547502,0.8073196230774924,0.020538273958628506,-0.5799593661381051
-3599.0813796520233,-1332.0,5728.0,-15432.0,194.0,-143.0,340.0,0.11082579424610448,0.8021568970599843,-0.014625408613034104,-0.5865560955711907
-3599.0969593524933,-1256.0,6228.0,-15208.0,208.0,-12.0,188.0,0.10589713398168715,0.8032515821879977,-0.038616255762854136,-0.5848773183478743
-3599.1125571727753,-1244.0,6016.0,-15244.0,298.0,-4.0,234.0,0.09693890552522483,0.8047481171357439,-0.0703085278952796,-0.5814120977991818
-3599.1281249523163,-1528.0,6208.0,-15116.0,204.0,100.0,220.0,0.09441268413386109,0.8100563087656407,-0.09531567291364024,-0.5707976385731155
-3599.143752336502,-1484.0,5808.0,-15120.0,279.0,-60.0,-5.0,0.07397478886860524,0.8093251208688391,-0.10940887591611508,-0.5723200828323745
-3599.1593356132507,-1324.0,5952.0,-15592.0,321.0,-131.0,107.0,0.05543497988553055,0.803597282744353,-0.13386871516008306,-0.577267301405832
-3599.174910068512,-1268.0,6376.0,-15424.0,265.0,-108.0,-96.0,0.03082490704855312,0.8004457997662523,-0.14106292298171855,-0.5817538985704062
-3599.1904816627502,-1140.0,6376.0,-15280.0,239.0,-45.0,-306.0,-0.0018630305398217556,0.8022676094098607,-0.1319727672511745,-0.5821910345522869
-3599.2060792446136,-1028.0,5780.0,-15236.0,130.0,-89.0,-385.0,-0.03142815789249095,0.8017997595793998,-0.1116356734819851,-0.5862310916661835
-3599.2216362953186,-1252.0,5968.0,-15284.0,31.0,20.0,-317.0,-0.049484471389984325,0.8056827315683368,-0.09115944140609097,-0.5831951469159928
-3599.237197637558,-1288.0,6000.0,-15152.0,22.0,15.0,-317.0,-0.06689391719224386,0.8087316641541634,-0.07012449790765764,-0.5801386506950849
-3599.2527372837067,-1316.0,5984.0,-15316.0,-64.0,-246.0,-416.0,-0.0847353220559815,0.7986528467490192,-0.03614682277393035,-0.5946990522769539
-3599.2683157920837,-1396.0,5864.0,-15412.0,-82.0,-18.0,-399.0,-0.0995883262911617,0.7992608591725612,-0.0040299190281216386,-0.592661795642246
-3599.283936023712,-1340.0,5764.0,-15604.0,-250.0,-53.0,-439.0,-0.10463612907497975,0.7982496428130496,0.039868215923781286,-0.5918270977237335
-3599.299520254135,-1244.0,5936.0,-15208.0,-369.0,175.0,-564.0,-0.10832800743905177,0.8073903503087319,0.09637394377565951,-0.5719247572834681
-3599.31511759758,-1624.0,5816.0,-15400.0,-534.0,-255.0,-35.0,-0.07006482443795434,0.7985332829825286,0.12768154374375734,-0.5840658693442327
-3599.330694437027,-1508.0,5720.0,-15292.0,-43.0,-187.0,78.0,-0.060870704843057254,0.7901955254023839,0.12551758538043675,-0.5967672282274091
-3599.3462657928467,-1536.0,6092.0,-15276.0,-195.0,-177.0,-34.0,-0.047115611186727045,0.7816241425792649,0.13887300125244303,-0.6062657077906264
-3599.361845254898,-1456.0,6096.0,-15204.0,8.0,-87.0,184.0,-0.03674558278653116,0.7792896741425892,0.12619165855039585,-0.6127259022048243
-3599.377414226532,-1420.0,6040.0,-15172.0,-220.0,107.0,-192.0,-0.03310147556780127,0.7835077501962343,0.15056629541411207,-0.6019548889933034
-3599.392980337143,-1596.0,5616.0,-15300.0,-53.0,45.0,-117.0,-0.03610220229070522,0.7846265771321685,0.16117175875976303,-0.59756290850914
-3599.4085931777954,-1484.0,5964.0,-15356.0,-228.0,95.0,-201.0,-0.03218027400903188,0.787358876051634,0.18641573236023828,-0.5867534448096641
-3599.424172639847,-1348.0,5980.0,-15292.0,-238.0,59.0,-296.0,-0.03181023255305547,0.7859801021986854,0.2186216821367681,-0.5774322022128265
-3599.4397835731506,-1356.0,5980.0,-15268.0,-184.0,53.0,-396.0,-0.040010331710972076,0.7812190710523033,0.2546987274801276,-0.5685283586599336
-3599.4553356170654,-1312.0,5852.0,-15296.0,-499.0,47.0,-238.0,-0.018703550834124016,0.7792713517024431,0.29515918864154733,-0.5525100822270179
-3599.470887899399,-1488.0,5768.0,-15212.0,-56.0,30.0,-35.0,-0.017243347963976575,0.780071519340555,0.3001793060721919,-0.5487107397078433
-3599.4864411354065,-1560.0,5924.0,-15256.0,-13.0,-40.0,115.0,-0.009688999904383183,0.7813221428968338,0.29301037341967356,-0.5509870718704897
-3599.502002954483,-1596.0,6084.0,-15220.0,31.0,3.0,153.0,-0.004408752478673428,0.7854580964798794,0.28104863674009,-0.5514053004481579
-3599.5176107883453,-1436.0,6220.0,-15324.0,-104.0,138.0,-130.0,-0.006807762860554713,0.7889865931120528,0.2948452885853237,-0.5389991336294593
-3599.5331857204437,-1528.0,5860.0,-15260.0,-75.0,86.0,-160.0,-0.011270260134706786,0.7890181172218791,0.3092852319839215,-0.5307221845832232
-3599.548880815506,-1508.0,5692.0,-15036.0,-44.0,143.0,-89.0,-0.016108037322949638,0.7933615713623577,0.31726910291179616,-0.519286303070471
-3599.564522743225,-1300.0,5632.0,-15264.0,41.0,24.0,85.0,-0.015646300652138963,0.7968849002515294,0.3094799939771308,-0.5186056135011732
-3599.580101251602,-1624.0,5936.0,-15240.0,89.0,126.0,-6.0,-0.025388573612023485,0.8023988700607959,0.3056616775974954,-0.5119398524274016
-3599.595715522766,-1636.0,6068.0,-15272.0,240.0,58.0,193.0,-0.034979770127719405,0.8094708106649989,0.2811809331384821,-0.5142671535326104
-3599.6113426685333,-1420.0,6256.0,-15404.0,230.0,153.0,-87.0,-0.05873804160791718,0.8134081999177095,0.2764349694721146,-0.5084295923996252
-3599.6269183158875,-1312.0,5772.0,-15176.0,105.0,151.0,-56.0,-0.07217364611692753,0.8182687690304389,0.27492744876086,-0.49964195615805074
-3599.6424882411957,-1360.0,5776.0,-15140.0,115.0,112.0,245.0,-0.07222309379562263,0.8281968822284673,0.2516172213912847,-0.4955426549641963
-3599.6580560207367,-1384.0,5836.0,-15400.0,93.0,141.0,250.0,-0.07105943565268183,0.8390658722821632,0.2285401948532925,-0.48855746633585906
-3599.6736178398132,-1444.0,5904.0,-15396.0,28.0,80.0,208.0,-0.06567499943063065,0.8464451162900942,0.21155460006597854,-0.4842128775129381
-3599.6891791820526,-1520.0,5964.0,-15244.0,30.0,102.0,-48.0,-0.07164766468974369,0.8498084630156307,0.21320791547080126,-0.47669127652193627
-3599.7047436237335,-1312.0,5972.0,-15084.0,-2.0,232.0,-172.0,-0.08279093320002318,0.8561512308400056,0.22449692887829306,-0.45798674678993434
-3599.72030377388,-1564.0,5656.0,-15256.0,57.0,98.0,-109.0,-0.09315657654053154,0.8575893513832616,0.2296091955639767,-0.45071273995056793
-3599.735927581787,-1476.0,5904.0,-15216.0,250.0,187.0,-18.0,-0.11611121058092347,0.8623782297181738,0.21949696171751293,-0.44118370264818435
-3599.751506090164,-1624.0,5692.0,-15360.0,-147.0,95.0,-125.0,-0.11148201407750492,0.8651215689020906,0.2335362921835254,-0.4296477997043382
-3599.767087697983,-1388.0,5900.0,-15328.0,-91.0,119.0,-91.0,-0.1102569104255941,0.8686512998389859,0.2426107461757395,-0.41764621251903317
-3599.7826659679413,-1456.0,5816.0,-15308.0,-215.0,30.0,-85.0,-0.09748905137133332,0.8699680650459914,0.25652826401264756,-0.4096885407544475
-3599.7982501983643,-1672.0,5984.0,-15236.0,-573.0,-39.0,-61.0,-0.05503846129777207,0.871102498356077,0.2815972455643526,-0.3985651721191204
-3599.8138284683228,-1556.0,5300.0,-15284.0,-113.0,221.0,143.0,-0.046730126846955516,0.8826939336743385,0.2734921142794267,-0.37930169802725516
-3599.8294043540955,-1608.0,6040.0,-15344.0,228.0,18.0,-49.0,-0.06616071515657754,0.8811317675365536,0.269567764867915,-0.3828351971175001
-3599.844986438751,-1392.0,6056.0,-15304.0,-1.0,87.0,-107.0,-0.07152417062104444,0.8815856572484153,0.2772857424942593,-0.3752381096853819
-3599.860557794571,-1448.0,6060.0,-15240.0,-44.0,46.0,-282.0,-0.07828104416939013,0.8763851307398739,0.30002099437231083,-0.36852216171846963
-3599.876127719879,-1412.0,6116.0,-15240.0,-170.0,-48.0,-58.0,-0.06569441488519688,0.8744863620270608,0.310195368741422,-0.3670649529619265
-3599.8917672634125,-1600.0,5784.0,-15424.0,-331.0,-241.0,-233.0,-0.04116019497141438,0.8617467119153027,0.3396614906494472,-0.37460447757985377
-3599.9073457717896,-1284.0,5736.0,-15244.0,-17.0,125.0,-335.0,-0.05435440968379568,0.8556675751052002,0.36477568019119383,-0.3630665258634627
-3599.9230210781097,-1780.0,5732.0,-15276.0,-271.0,-23.0,-89.0,-0.03602066045388698,0.8532388410477962,0.37999004282102977,-0.35537805152365737
