programtime,ax,ay,az,gx,gy,gz,q0,q1,q2,q3
-10174.709111452103,216.0,-4896.0,15984.0,-648.0,756.0,106.0,0.996186283108953,-0.056661429169143664,0.0657073524745645,0.00921496721983147
-10174.72472333908,160.0,-4596.0,16136.0,-468.0,935.0,114.0,0.9842891784769983,-0.09728621526170249,0.14634990725366703,0.01708537678755705
-10174.740302085876,-220.0,-4148.0,15988.0,-385.0,1158.0,50.0,0.9607800761749671,-0.13077718475250483,0.24399215647644734,0.01633403659253878
-10174.755918264389,-44.0,-3932.0,15632.0,-329.0,1194.0,-95.0,0.9264052350919691,-0.16114691054483682,0.3402971132869041,0.0016995012937740272
-10174.771508932114,-60.0,-3840.0,15548.0,-321.0,1094.0,-175.0,0.8850619991943147,-0.19147593092828316,0.42387418262250715,-0.018245623130273007
-10174.787117958069,-236.0,-3892.0,15376.0,-397.0,850.0,-317.0,0.8434464863898911,-0.2316323367201343,0.48287635904142523,-0.04212964586860681
-10174.80270576477,-184.0,-4012.0,15516.0,-598.0,557.0,-498.0,0.8033660730314994,-0.29354793744024743,0.5140541092899462,-0.06466014111215797
-10174.81829214096,-48.0,-4348.0,15628.0,-706.0,264.0,-572.0,0.767702012586145,-0.36594739552488625,0.5199770933828742,-0.07962377745895172
-10174.833993673325,28.0,-4676.0,16012.0,-876.0,98.0,-588.0,0.7281913025767621,-0.4486940558091882,0.5115398962641489,-0.08208535596026471
-10174.84959244728,160.0,-5028.0,16092.0,-947.0,18.0,-603.0,0.6828187374763397,-0.5330766039391173,0.4933825551063547,-0.07849560752475383
-10174.865189790726,228.0,-5220.0,16112.0,-1003.0,140.0,-656.0,0.6222938462525758,-0.6166851509448078,0.47536188980147304,-0.08050383372689561
-10174.88077378273,136.0,-5248.0,15924.0,-919.0,171.0,-625.0,0.5587598445014655,-0.6879794942036598,0.45521561220696516,-0.08514926970334079
-10174.89635014534,176.0,-4964.0,16032.0,-790.0,295.0,-522.0,0.4939692063544472,-0.7422388905814821,0.4424293063510397,-0.0966031125982292
-10174.912157535553,372.0,-4624.0,16192.0,-704.0,434.0,-347.0,0.4274536392044009,-0.7799121930498861,0.4432101607073396,-0.11218338071570594
-10174.927937746048,428.0,-4444.0,16192.0,-721.0,649.0,-218.0,0.3498917182500578,-0.8058351614121915,0.45790256699051685,-0.13612757720353574
-10174.9435172081,308.0,-4536.0,15884.0,-843.0,850.0,-188.0,0.25304303800134353,-0.8243763270796097,0.47797569942048584,-0.16706921629456553
-10174.959114074707,64.0,-4736.0,15404.0,-920.0,855.0,-175.0,0.14776851405972433,-0.8344187668999598,0.49465612490034166,-0.1929380879875955
-10174.974723100662,-308.0,-4784.0,15392.0,-960.0,812.0,-161.0,0.03987001829843518,-0.8349707370313435,0.5064773274324911,-0.21145913727966087
-10174.990355730057,-612.0,-4764.0,15272.0,-960.0,763.0,-179.0,-0.06672254208918749,-0.8273051081124312,0.5108260817950451,-0.22398900559214246
-10175.00600361824,-764.0,-4588.0,15544.0,-904.0,755.0,-113.0,-0.16698537494451965,-0.8080065031691721,0.5132136180869027,-0.23633272647078682
-10175.021607875824,-408.0,-4688.0,15500.0,-802.0,779.0,-156.0,-0.2604152928119402,-0.7834223773836371,0.5049531364334734,-0.2519039179731818
-10175.037207365036,-440.0,-4856.0,15728.0,-805.0,783.0,-381.0,-0.3564739754668724,-0.7606102792813771,0.47625009244881045,-0.25996953150099816
-10175.0527946949,-284.0,-4912.0,15872.0,-823.0,715.0,-688.0,-0.45362741658741357,-0.7426548020927715,0.4243106722215792,-0.2502927591594436
-10175.068392515182,-40.0,-4904.0,15776.0,-856.0,565.0,-944.0,-0.5466902332043306,-0.725976978747671,0.35679857397471226,-0.2162914534996931
-10175.084010601044,216.0,-4704.0,15636.0,-885.0,304.0,-1165.0,-0.6289754908646816,-0.7082269272052586,0.28276193569376495,-0.15116262499588085
-10175.099595785141,380.0,-4408.0,15632.0,-858.0,97.0,-1444.0,-0.6960786335726191,-0.6880230879757165,0.19735242329194597,-0.05613187433919596
-10175.115253925323,356.0,-4600.0,15376.0,-1021.0,-23.0,-1565.0,-0.7547788255169903,-0.6444456225907372,0.1083133309761765,0.05715755774764469
-10175.13083744049,252.0,-4500.0,15360.0,-574.0,28.0,-1712.0,-0.7693838061468994,-0.6152395914759694,0.007192992651279011,0.17168886037280112
-10175.146446704865,52.0,-4892.0,15572.0,-426.0,99.0,-1701.0,-0.7580651351644994,-0.582245987042062,-0.09607870164673893,0.2776612045484951
-10175.162031173706,-36.0,-5148.0,15956.0,-155.0,397.0,-1499.0,-0.7197404987307201,-0.5637059004593077,-0.20044416232898796,0.3521809337009113
-10175.177612543106,-160.0,-5664.0,16220.0,37.0,857.0,-1362.0,-0.6547055348942863,-0.562880011896237,-0.3170420307464048,0.39244248690308015
-10175.19320678711,-320.0,-5452.0,15952.0,118.0,1199.0,-1300.0,-0.5645498997608052,-0.5678478628284708,-0.4401382558061985,0.40633795187882765
-10175.208851337433,-688.0,-4936.0,15548.0,-9.0,1125.0,-1389.0,-0.4669201022565865,-0.547230807588599,-0.5579680231936401,0.4137580771755519
-10175.224477291107,-720.0,-4628.0,15164.0,-119.0,878.0,-1636.0,-0.36600777300530224,-0.48794673249354836,-0.6674233489738074,0.4271912564568194
-10175.24009847641,-708.0,-4588.0,15080.0,-200.0,455.0,-1545.0,-0.28757105655631576,-0.40441962317536767,-0.7477213190910619,0.441203450574109
-10175.255729913712,-660.0,-4556.0,15172.0,-174.0,35.0,-1913.0,-0.21478254706677308,-0.27268699891910503,-0.8114580807541015,0.470155337388476
-10175.271327972412,-416.0,-4536.0,15152.0,-57.0,-351.0,-1994.0,-0.1567569636434432,-0.11416796873930697,-0.8415731294212655,0.5041305357735502
-10175.28695511818,-88.0,-4720.0,15188.0,59.0,-602.0,-2031.0,-0.10918023292250761,0.059724165340343686,-0.8367196489762421,0.5333037875643303
-10175.302632808685,296.0,-5112.0,15188.0,120.0,-536.0,-1972.0,-0.05627431630893815,0.22401801287160775,-0.8029545772556319,0.5494661755715696
-10175.318217992783,660.0,-5188.0,15464.0,128.0,-912.0,-1769.0,-0.037303365273835716,0.3853113215237499,-0.746447845540925,0.5412571092671019
-10175.33380317688,752.0,-5352.0,15524.0,150.0,-910.0,-1773.0,-0.017623363140057413,0.5352288511301181,-0.6666391960306627,0.5184705163316032
-10175.349383354187,1000.0,-5720.0,15856.0,148.0,-945.0,-1202.0,-0.024925818760291603,0.6419314055704057,-0.5969462926517609,0.48058079215762556
-10175.364958763123,988.0,-6128.0,15632.0,178.0,-1060.0,-964.0,-0.04933131590385654,0.7304264578513674,-0.5289451301021852,0.4292559379706713
-10175.380520105362,588.0,-5988.0,15832.0,221.0,-1160.0,-667.0,-0.09138565946648432,0.7981302188718893,-0.4698455417258592,0.3658988683881376
-10175.396147727966,800.0,-5960.0,16120.0,336.0,-1112.0,-329.0,-0.14910900886677664,0.8397810909016266,-0.42495858668242453,0.3032233870329227
-10175.411811113358,960.0,-5796.0,15936.0,346.0,-1068.0,-48.0,-0.2118531338328068,0.8611687655089182,-0.3964698348597681,0.2373147215057107
-10175.427440404892,1080.0,-5412.0,16004.0,399.0,-947.0,245.0,-0.2785717941965583,0.8612498573881232,-0.3874555915628378,0.17471291650516074
-10175.4430539608,1044.0,-5608.0,16204.0,306.0,-773.0,546.0,-0.3348551070890964,0.8439300047804843,-0.4035102764913732,0.11328574956020279
-10175.458657741547,876.0,-5580.0,16152.0,247.0,-613.0,518.0,-0.37882320810526743,0.8222922266304361,-0.420166258092399,0.06155312002347509
-10175.474258184433,736.0,-5516.0,16372.0,193.0,-484.0,1013.0,-0.4139095633255195,0.7774918381034807,-0.4734819351651435,0.0004149004938698355
-10175.489872455597,552.0,-5432.0,16176.0,250.0,-347.0,1168.0,-0.4427425364787425,0.7159582455567539,-0.5370237771198938,-0.05466534386196782
-10175.505500555038,472.0,-5268.0,15944.0,309.0,-185.0,1277.0,-0.46163342319586864,0.6389697071842017,-0.6070663342198377,-0.10041295606787067
-10175.52109670639,424.0,-5096.0,15976.0,397.0,-69.0,1283.0,-0.473026667234093,0.550572510782271,-0.6746555730692696,-0.13399828425352428
-10175.53671336174,440.0,-4940.0,15920.0,546.0,-6.0,1526.0,-0.4771071601307225,0.4337485851622871,-0.7466558415147658,-0.1635113970143616
-10175.552294015884,344.0,-4964.0,15900.0,681.0,155.0,1307.0,-0.4703014205805734,0.31973710782925957,-0.805560333796079,-0.16630485348066293
-10175.567921638489,324.0,-4996.0,15712.0,731.0,197.0,1356.0,-0.4531038777893039,0.19544310928390277,-0.8542494414066786,-0.16357493335506418
-10175.583533525467,504.0,-5048.0,15564.0,829.0,219.0,1397.0,-0.4266995326902886,0.06098997591408173,-0.8894865231537762,-0.15172823325833498
-10175.59912776947,104.0,-5012.0,15404.0,785.0,140.0,1473.0,-0.39635519017322324,-0.07990953490417435,-0.903306285440867,-0.14336939749182767
-10175.614711523056,44.0,-4932.0,15560.0,775.0,-25.0,1512.0,-0.37001165003397024,-0.22380258254530697,-0.89181308679539,-0.13294059239249842
-10175.630301713943,56.0,-4756.0,15376.0,707.0,-191.0,1611.0,-0.348296654925406,-0.3698722385942195,-0.8522490247463811,-0.12472195918889309
-10175.645876407623,132.0,-4676.0,15612.0,599.0,-359.0,1575.0,-0.3347992879900384,-0.5034932968706635,-0.7881260910461827,-0.11515728973859081
-10175.66151213646,236.0,-4632.0,15464.0,534.0,-477.0,1510.0,-0.32556250021803157,-0.6211951781650917,-0.7057062495177917,-0.1005201396126994
-10175.67713546753,380.0,-4812.0,15456.0,567.0,-536.0,1395.0,-0.31260321129113167,-0.7209562517746733,-0.6138487532163039,-0.07543887255437538
-10175.692755699158,584.0,-5000.0,15980.0,661.0,-758.0,1392.0,-0.2991426853080657,-0.8095224591083371,-0.504271033858508,-0.02996275082734546
-10175.708361387253,612.0,-5364.0,15992.0,775.0,-467.0,1372.0,-0.2587213875210584,-0.8823364103967923,-0.39312079655937493,0.0013197877876276018
-10175.723986148834,484.0,-4872.0,15956.0,950.0,-428.0,1362.0,-0.19820522740851812,-0.9400046792383778,-0.2753702859320578,0.035736486447170895
-10175.739571809769,316.0,-5192.0,16040.0,1065.0,-418.0,1375.0,-0.1236603294743943,-0.9783235852661385,-0.1501676523335524,0.07099832124016679
-10175.755157232285,64.0,-4980.0,15900.0,1100.0,-420.0,1513.0,-0.04398379974018631,-0.9936082196676318,-0.009471821243189836,0.10352978205169515
-10175.770776510239,-28.0,-4976.0,15708.0,1183.0,-476.0,1561.0,0.04347534129676255,-0.9800803196578808,0.13634666847246268,0.13770275129748297
-10175.786396503448,-108.0,-4808.0,15368.0,1205.0,-429.0,1648.0,0.12976408003465875,-0.9353455781898246,0.2854996714298563,0.16364556366411467
-10175.802063465118,-32.0,-4788.0,15536.0,1144.0,-434.0,1704.0,0.20626096379268458,-0.859416952926023,0.42891765917909164,0.18678478921740696
-10175.817650794983,-100.0,-4724.0,15444.0,1096.0,-574.0,1704.0,0.2775964000857105,-0.7538769669867914,0.5549776951491998,0.2158923694648153
-10175.833231687546,44.0,-4660.0,15600.0,1016.0,-689.0,1851.0,0.33674512977637605,-0.6151260824465633,0.6668009070879056,0.25218875980618505
-10175.848861455917,192.0,-4508.0,15460.0,959.0,-791.0,1917.0,0.38457412977883304,-0.44907786020559304,0.752738611340841,0.28951061668733613
-10175.864499092102,144.0,-4576.0,15596.0,837.0,-865.0,1964.0,0.4163282476785431,-0.2647556284089238,0.8056750936148644,0.3278153305435683
-10175.880089521408,164.0,-4628.0,15704.0,890.0,-846.0,1978.0,0.4310558509028788,-0.06770243597445655,0.829112762410233,0.3495415007892369
-10175.895735740662,120.0,-4640.0,15920.0,931.0,-822.0,1823.0,0.4325529476304417,0.12210135938383943,0.8222088579138566,0.34923029579466064
-10175.91163611412,368.0,-4488.0,16108.0,790.0,-811.0,1708.0,0.4236149241626419,0.2945532416583272,0.7849594060758688,0.3429686788443952
-10175.927320957184,468.0,-4408.0,15744.0,1174.0,-517.0,1474.0,0.37930819284482403,0.44795809658400854,0.7521891847270239,0.2994499439394186
-10175.942913532257,592.0,-4308.0,15904.0,1306.0,-720.0,1532.0,0.32982424234145025,0.600236928033895,0.6906322419076334,0.23229013286396252
-10175.958522558212,260.0,-4376.0,15876.0,1393.0,-624.0,1173.0,0.26696672951141764,0.7136982150620949,0.6305979290201763,0.1473427129742844
-10175.974154949188,500.0,-4460.0,15880.0,1432.0,-649.0,1234.0,0.19468965843656288,0.8110906707317224,0.5487180141071647,0.056003586886099896
-10175.989809274673,440.0,-4568.0,15796.0,1433.0,-659.0,1214.0,0.11711572186801775,0.8835784627356246,0.4517982605934764,-0.038096451354331685
-10176.00541639328,352.0,-4556.0,15360.0,1486.0,-694.0,1223.0,0.03340433574071171,0.9299803498856933,0.34004905312016687,-0.13559992865884163
-10176.0210044384,252.0,-4512.0,15460.0,1622.0,-795.0,1523.0,-0.05549575198701757,0.950494301633756,0.19087309013398251,-0.23884779156579644
-10176.036600589752,168.0,-4396.0,15152.0,1849.0,-950.0,1394.0,-0.1602695453481458,0.9231580987019292,0.040310514308653685,-0.34708480242025785
-10176.052177667618,132.0,-4276.0,15016.0,1950.0,-1117.0,1469.0,-0.26192311897373144,0.8442855728175993,-0.11831055868515253,-0.45230605012838104
-10176.067818403244,44.0,-4328.0,15136.0,2029.0,-1353.0,1570.0,-0.3523868304983864,0.7059218130569915,-0.2745090161250553,-0.549675100043367
-10176.08345079422,196.0,-4136.0,15460.0,2093.0,-1483.0,1699.0,-0.420540286130239,0.5114629323015069,-0.41910219157067596,-0.6212124351972499
-10176.099100112915,212.0,-3676.0,15984.0,2066.0,-1462.0,1722.0,-0.4569286401967335,0.2833248889451978,-0.5354559676398796,-0.6513295109167062
-10176.114698648453,348.0,-3404.0,16216.0,2027.0,-1242.0,1710.0,-0.4533882025954181,0.05027722822264192,-0.623281571416549,-0.6351625152683854
-10176.1302921772,336.0,-3260.0,16448.0,2049.0,-968.0,1552.0,-0.4172486874826183,-0.16426879983846057,-0.6858318735581396,-0.5731962451075513
-10176.145931243896,260.0,-3132.0,16128.0,2055.0,-873.0,1213.0,-0.37041840172984813,-0.346964541559428,-0.7218416706216247,-0.4704789231352906
-10176.161536455154,128.0,-2904.0,15980.0,2108.0,-854.0,867.0,-0.3177418067467144,-0.4937885495649458,-0.7380246755118721,-0.3324644205016178
-10176.177179336548,4.0,-2716.0,15512.0,2050.0,-957.0,352.0,-0.2754161902295326,-0.5894314605587518,-0.7411270307219275,-0.16567196442465962
-10176.192850112915,-72.0,-2544.0,15212.0,2011.0,-1280.0,-169.0,-0.2518146497877073,-0.6317509982709126,-0.732359128764431,0.0336179245552617
-10176.20845580101,192.0,-2544.0,15296.0,1985.0,-1308.0,-369.0,-0.22011364797889266,-0.634115245837595,-0.7027947496926222,0.23564247659162593
-10176.224073886871,460.0,-2324.0,15864.0,1919.0,-1522.0,-609.0,-0.19019744732596172,-0.5881907660910286,-0.6521300533531966,0.43884273632987714
-10176.2396774292,632.0,-3192.0,16244.0,1833.0,-1551.0,-1023.0,-0.14156979684894114,-0.48841038689085337,-0.5934416670497097,0.6238912360392137
-10176.255284547806,628.0,-3768.0,16428.0,1764.0,-1376.0,-719.0,-0.0964766243807077,-0.3898303634570042,-0.5005320981762481,0.7669368731325719
-10176.270869493484,600.0,-3920.0,16944.0,1764.0,-1532.0,-524.0,-0.06685108025542941,-0.27321052693910375,-0.3790714846583885,0.8815847948763774
-10176.286499500275,380.0,-3884.0,16936.0,1635.0,-1138.0,-375.0,-0.036080082322236445,-0.17981851724306247,-0.25150587927818013,0.9503201151215502
-10176.302138328552,272.0,-3588.0,16704.0,1549.0,-952.0,-6.0,-0.031747688256153865,-0.10408000731883159,-0.11847124986466323,0.9869772030408841
-10176.317737102509,300.0,-2644.0,16604.0,1372.0,-952.0,-392.0,0.004609623173310484,-0.02129010214889962,-0.0010996436739183545,0.9997621085580708
-10176.333362102509,600.0,-1900.0,17068.0,1033.0,-906.0,-679.0,0.06510892055665606,0.05791088450286912,0.08636212084601197,0.9924458383221832
-10176.348964691162,1220.0,-1168.0,17640.0,721.0,-702.0,-1108.0,0.16134556416220955,0.11343255097385405,0.148844574020457,0.9689922384051439
-10176.364565372467,1836.0,-840.0,17696.0,264.0,-396.0,-1501.0,0.2881037353970692,0.12981917913783736,0.17849274184828137,0.9318173423400727
-10176.380164861679,1896.0,-888.0,18132.0,-115.0,-93.0,-1811.0,0.4327353617013248,0.10486025235645878,0.184738502908442,0.8761370439332599
-10176.395808696747,1756.0,-1588.0,17152.0,-372.0,111.0,-2022.0,0.5796947995250843,0.04884995574882365,0.17588920379275946,0.7941225404281504
-10176.411411523819,1316.0,-2456.0,16632.0,-396.0,208.0,-2147.0,0.7140589658640764,-0.01829630816427983,0.16483111312212154,0.6801586157093109
-10176.42702293396,932.0,-3284.0,15772.0,-171.0,187.0,-2192.0,0.826077336261496,-0.0703398025864599,0.15959489459819773,0.5358899292815635
-10176.442640304565,696.0,-4096.0,15564.0,122.0,251.0,-2125.0,0.9070368424497178,-0.101164546089152,0.1671442546058978,0.37297814842918114
-10176.458232402802,744.0,-4408.0,15700.0,448.0,-23.0,-1830.0,0.958083109571055,-0.09045881011745048,0.16127588075760477,0.21882424251588706
-10176.47382760048,980.0,-4252.0,16012.0,607.0,-408.0,-1446.0,0.9864567880495813,-0.051795494448748,0.12577666242433594,0.09165404112807925
-10176.489479541779,1208.0,-3920.0,16408.0,618.0,-398.0,-1068.0,0.9958339142320626,-0.007197275125462137,0.0907483426030692,-0.005268093660241562
-10176.50508093834,1400.0,-3580.0,16732.0,624.0,-272.0,-623.0,0.9948969835089496,0.04164132548470834,0.06595931525959162,-0.06399500720490102
-10176.520717144012,1520.0,-2688.0,16876.0,484.0,-32.0,-317.0,0.9903188513402857,0.0813101837765376,0.06134134966983039,-0.09431047404698253
-10176.536313533783,1496.0,-2132.0,16592.0,369.0,196.0,-208.0,0.9841668071189308,0.11334159525672827,0.07647872154294097,-0.11278467848580574
-10176.551943540573,1468.0,-2032.0,16548.0,263.0,311.0,-206.0,0.9767408874171079,0.137244029710716,0.10239183739247813,-0.12906287921705786
-10176.56753540039,1264.0,-1700.0,16368.0,181.0,510.0,-392.0,0.9640265954710052,0.15440222767137166,0.14810006414762117,-0.15773093011255404
-10176.583131790161,1100.0,-1868.0,16116.0,32.0,8.0,-642.0,0.9532171499684068,0.14844132268924806,0.1565554566009562,-0.21173716663080341
-10176.598776817322,1040.0,-2128.0,16256.0,-1.0,-267.0,-882.0,0.9376054776157484,0.13071739292919496,0.14513655121640415,-0.28765311232758545
-10176.614391326904,972.0,-2420.0,16268.0,-57.0,-371.0,-1049.0,0.9123583392430824,0.10272001035900406,0.12739899318940417,-0.37526038535898887
-10176.630028247833,1056.0,-2732.0,16580.0,-29.0,-293.0,-1240.0,0.8699299985946686,0.07629581601407334,0.11525426425211177,-0.4734101821629218
-10176.645612716675,1132.0,-2800.0,16612.0,29.0,-165.0,-1524.0,0.8013088180247439,0.05558614625093437,0.11052369694678404,-0.585319460563181
-10176.661219358444,1388.0,-2984.0,16708.0,125.0,250.0,-1209.0,0.7322679013824783,0.06478253335802334,0.1265833254122028,-0.6660057099636654
-10176.676852941513,1448.0,-2876.0,16480.0,185.0,173.0,-1099.0,0.662245687876788,0.073893927432609,0.13229304721442256,-0.7338043922162818
-10176.69245147705,1464.0,-2848.0,16332.0,241.0,306.0,-923.0,0.5957876763110431,0.09612432183162956,0.13980628068596718,-0.7850167917879551
-10176.708087444305,1448.0,-2712.0,16312.0,270.0,335.0,-780.0,0.5343958844324984,0.12295478478919507,0.14468681126792018,-0.8236315233429156
-10176.723728656769,1408.0,-2640.0,16212.0,217.0,291.0,-685.0,0.47807128964592516,0.14473858478479282,0.14953789155439687,-0.853309441574534
-10176.739337205887,1372.0,-2632.0,16280.0,135.0,228.0,-649.0,0.4242723528902521,0.158311302724535,0.1567822274355768,-0.87769575318727
-10176.754906654358,1328.0,-2672.0,16256.0,81.0,46.0,-646.0,0.3724383439586187,0.15547030847493262,0.16083018168950652,-0.900695462289997
-10176.770519256592,1256.0,-2652.0,16192.0,111.0,-29.0,-639.0,0.32059172721735063,0.14732142274496424,0.15945737993342274,-0.9220036262536951
-10176.78614282608,1384.0,-2656.0,16216.0,196.0,-36.0,-575.0,0.27191276521457275,0.14143343887453885,0.14974003558035043,-0.9400201871374264
-10176.80183172226,1408.0,-2664.0,16172.0,312.0,15.0,-439.0,0.23158249532771388,0.1438910554676167,0.1296641436777375,-0.9533373599406055
-10176.817416667938,1464.0,-2796.0,16164.0,397.0,166.0,-350.0,0.1953544850097733,0.16128228747122952,0.10418366994469712,-0.961753820814593
-10176.83302617073,1480.0,-2744.0,16452.0,420.0,321.0,-167.0,0.17229170739107572,0.19334195714227229,0.076624130295364,-0.9628412111190209
-10176.848661184311,1324.0,-2748.0,16400.0,404.0,466.0,-12.0,0.16110559165149524,0.23785556162405944,0.049814130649365906,-0.9565501934194425
-10176.864259719849,1256.0,-2640.0,16428.0,399.0,263.0,82.0,0.15837517181196173,0.26525775555895215,0.018508517077943716,-0.9509011845953995
-10176.87990808487,1136.0,-2604.0,16364.0,337.0,760.0,140.0,0.16052713114628245,0.3320527453948726,-0.00213954097461184,-0.929498486715331
-10176.89554810524,1208.0,-2320.0,16348.0,287.0,466.0,167.0,0.16563979620620503,0.3731390243392185,-0.023658657541235636,-0.9125628714512165
-10176.911471366882,1172.0,-2376.0,16140.0,195.0,427.0,110.0,0.16878647881748812,0.40915384121466913,-0.036515267817991345,-0.89597482888966
-10176.92713546753,1172.0,-2340.0,16276.0,152.0,400.0,70.0,0.16999147221969657,0.4419243258611376,-0.044926530422642344,-0.8796518609364404
-10176.942715883255,1264.0,-2372.0,16308.0,165.0,404.0,69.0,0.1703896648361919,0.47457161595928626,-0.054174414519902105,-0.861866739266708
-10176.958293437958,1144.0,-2316.0,16400.0,185.0,414.0,133.0,0.1745499910824143,0.5072247129140773,-0.06734158088337139,-0.8412612571053592
-10176.97387123108,1120.0,-2716.0,16468.0,219.0,398.0,329.0,0.1911321097143165,0.5370427197440397,-0.09176831067535392,-0.8164754809312224
-10176.98953962326,1200.0,-2812.0,16400.0,182.0,350.0,506.0,0.2211319803375951,0.5599400172398761,-0.12238062394240258,-0.7890442365601875
-10177.005161046982,1152.0,-2836.0,16212.0,149.0,238.0,708.0,0.2645893340483959,0.5702458865777658,-0.1622466038854431,-0.7605840865260096
-10177.020749807358,1132.0,-2804.0,16168.0,128.0,106.0,896.0,0.31822671355225396,0.5656320156626616,-0.21217444424371856,-0.7305985127612808
-10177.03632903099,1188.0,-2720.0,15956.0,42.0,-80.0,1036.0,0.37921788010968166,0.5401626682356183,-0.2670718684309405,-0.7022041785282275
-10177.051959514618,1476.0,-2608.0,16044.0,-40.0,-494.0,1118.0,0.43568682133147024,0.47964433918912985,-0.331737871046999,-0.6856152612909859
-10177.067555189133,1408.0,-2596.0,15836.0,-120.0,-443.0,1217.0,0.49757633831956793,0.4105651985457431,-0.3897709540626235,-0.6572158006748604
-10177.083162784576,1364.0,-2504.0,15952.0,-195.0,-581.0,1180.0,0.5488730176207406,0.32630693572262576,-0.44303218202467065,-0.6292731361798879
-10177.098817110062,1436.0,-2352.0,15952.0,-311.0,-697.0,1091.0,0.5868286659474913,0.22927576112597903,-0.48701727599616546,-0.604879256598923
-10177.114451169968,1504.0,-2320.0,16028.0,-290.0,-810.0,977.0,0.6059666506256639,0.12919510955109256,-0.5292015477941086,-0.5797057562332081
-10177.13004732132,1296.0,-2344.0,16400.0,-231.0,-938.0,867.0,0.605330934438306,0.029211388331543603,-0.5730850662232777,-0.5516290977419996
-10177.145644426346,1560.0,-2352.0,16168.0,-93.0,-894.0,728.0,0.5929825372852553,-0.054924752802541124,-0.6144292150522654,-0.5175246097477659
-10177.161290168762,1424.0,-2496.0,16636.0,158.0,-847.0,715.0,0.5779579026948553,-0.1227860241591323,-0.6587097838768173,-0.4658215061680964
-10177.176892518997,1312.0,-2612.0,16156.0,344.0,-798.0,716.0,0.5622651902090277,-0.17819196057517497,-0.7017893833460997,-0.39949611072985725
-10177.192546606064,1236.0,-2632.0,15956.0,477.0,-755.0,819.0,0.5490300532517093,-0.2299940259395329,-0.7385286177520822,-0.31661369114387594
-10177.208133459091,1132.0,-2632.0,15668.0,496.0,-797.0,833.0,0.5275704319071335,-0.28026768637354726,-0.7690345739073161,-0.22738796689212132
-10177.22377038002,1032.0,-2816.0,15760.0,263.0,-936.0,914.0,0.4861198274256583,-0.3457473704848236,-0.789601821558286,-0.14378884719725338
-10177.239337444305,1060.0,-2328.0,16176.0,481.0,-1088.0,951.0,0.4338517929374341,-0.4010036732309601,-0.8059716330911827,-0.0371268430193487
-10177.25493144989,1068.0,-2540.0,16724.0,449.0,-995.0,1029.0,0.3797365427572553,-0.45571951544697387,-0.8022080808569119,0.06769103591623399
-10177.270554304123,1268.0,-2432.0,17644.0,387.0,-686.0,992.0,0.33923410281477273,-0.5052139730671031,-0.7784273295591663,0.15404530989482815
-10177.286168336868,1428.0,-2336.0,17800.0,248.0,-135.0,1006.0,0.32618030484166466,-0.5620653890215356,-0.7316611998587034,0.20581738463694244
-10177.301834106445,1504.0,-2164.0,17240.0,140.0,464.0,968.0,0.34382412282808233,-0.6254344424362276,-0.6654497355098478,0.21861697163271268
-10177.317430019379,1216.0,-2300.0,16552.0,35.0,607.0,934.0,0.36152987622736055,-0.6869555860001507,-0.5927469369563778,0.21456756555232365
-10177.333022356033,836.0,-2304.0,16072.0,130.0,456.0,906.0,0.37452910368756265,-0.7353206033371741,-0.5195013231679863,0.2216978484910417
-10177.348695755005,608.0,-2636.0,15676.0,282.0,263.0,782.0,0.3883702297520141,-0.7644085452142101,-0.45391360963500693,0.24250891866894572
-10177.364304542542,888.0,-3144.0,15628.0,614.0,201.0,559.0,0.4243673899508905,-0.7678216548550545,-0.3956791032900634,0.27166205458526205
-10177.379916191101,1296.0,-3400.0,15184.0,930.0,129.0,138.0,0.4862981845035782,-0.7386088126838871,-0.3583462946870087,0.2992641486351378
-10177.39552116394,1824.0,-3456.0,14912.0,1182.0,-17.0,-116.0,0.5620793141262406,-0.6806347712414389,-0.3338532970931722,0.3306737498328329
-10177.41111111641,2300.0,-3500.0,15084.0,1368.0,-406.0,-128.0,0.6304011239525616,-0.5933410511282657,-0.3193704615396325,0.38541319160261456
-10177.426661252975,1852.0,-3776.0,15220.0,1408.0,-1013.0,143.0,0.6627617907551909,-0.48012854718777664,-0.3166537298419993,0.4795349854468153
-10177.442245960236,1912.0,-4184.0,16036.0,1195.0,-1414.0,613.0,0.638999357848571,-0.3633658279770924,-0.31809278720729534,0.5987170236884287
-10177.457831382751,2156.0,-4256.0,16712.0,1006.0,-1513.0,958.0,0.5698292099390742,-0.250608428574066,-0.31440199137612723,0.7166878503550714
-10177.47342634201,2392.0,-3772.0,16976.0,195.0,-1407.0,1251.0,0.45118845444634864,-0.1845372763374265,-0.34006450813791333,0.8041959354045497
-10177.48903465271,2480.0,-3352.0,16048.0,-298.0,-1292.0,1043.0,0.33132669203631687,-0.13492245246523635,-0.39067925924438773,0.8481675962693307
-10177.50470495224,2360.0,-2896.0,15224.0,-276.0,-1494.0,1298.0,0.17840303824309459,-0.07530360814480191,-0.4323154893588749,0.8806844157849073
-10177.520313978195,2224.0,-2872.0,14336.0,-455.0,-1918.0,1179.0,0.012206219449587635,0.020242183870145678,-0.47966675484849763,0.8771322970293747
-10177.535941362381,2392.0,-3272.0,14380.0,-169.0,-2372.0,1110.0,-0.16743096450159622,0.15130935515815053,-0.48435079159958827,0.8452672132790564
-10177.551549911499,2548.0,-3796.0,14588.0,164.0,-2782.0,1107.0,-0.3568682053381314,0.2973336063767365,-0.43148565425525065,0.7733420593176498
-10177.567152738571,3012.0,-4208.0,14840.0,473.0,-3157.0,1081.0,-0.5382376054208472,0.43642575807269707,-0.3157192513552765,0.648193020731609
-10177.582794427872,3524.0,-4100.0,15096.0,644.0,-3408.0,1194.0,-0.6898076544296201,0.5390111762593512,-0.1566837053865318,0.4572554736951357
-10177.598459482193,3844.0,-4232.0,15016.0,599.0,-3652.0,1475.0,-0.78102328941701,0.5935209537116465,0.016814887350535018,0.19352715173029267
-10177.614052057266,4128.0,-4136.0,14644.0,529.0,-3891.0,1954.0,-0.7805887873785459,0.5845258850344937,0.17727261630392266,-0.13260865074457007
-10177.629646539688,4548.0,-4160.0,14748.0,266.0,-4195.0,3067.0,-0.6317604218822183,0.5145622767200142,0.2763734736633766,-0.5096294102337071
-10177.645241737366,3788.0,-4644.0,14716.0,860.0,-4402.0,3224.0,-0.3791120833917401,0.3142958332198848,0.30268413225569424,-0.8160113194849751
-10177.660846233368,4396.0,-5260.0,14716.0,1524.0,-5092.0,3463.0,-0.034844852963036174,-0.006602475770366876,0.2340850128329773,-0.971569066151589
-10177.676431894302,4296.0,-5112.0,14236.0,1476.0,-5613.0,3602.0,0.3315487660773054,-0.35534212728588266,0.10989202004896688,-0.8670242973631807
-10177.69209599495,4032.0,-4872.0,14144.0,1816.0,-5973.0,3764.0,0.6159914333538954,-0.6061923023344893,-0.07058617665549548,-0.4980994261090687
-10177.70776128769,3564.0,-3952.0,14652.0,1879.0,-6517.0,3462.0,0.6878241886648315,-0.6743375665187932,-0.2660816874923498,0.03697657975397376
-10177.723341226578,3772.0,-2924.0,14892.0,1865.0,-6845.0,3435.0,0.5170745441611369,-0.5107300655306699,-0.38623361915737203,0.5679897071040885
-10177.738947868347,4148.0,-2152.0,15732.0,1886.0,-6649.0,3391.0,0.17343106866269245,-0.1744156966437023,-0.3665264125054263,0.8973066466502466
-10177.754612445831,4536.0,-1808.0,17052.0,1588.0,-5690.0,3520.0,-0.22297058412355034,0.15675064391368437,-0.2353817892269503,0.9329034074053796
-10177.770216941833,5152.0,-2500.0,17884.0,1441.0,-4527.0,3373.0,-0.5439898489942823,0.38150547261207735,-0.06757738749217151,0.7442861783332716
-10177.78580546379,6024.0,-2888.0,17456.0,1054.0,-3523.0,3294.0,-0.7474757884016258,0.49655905414272855,0.05381028652332229,0.4379651864777895
-10177.801424980164,5612.0,-3064.0,17352.0,882.0,-2947.0,3416.0,-0.8376404979548266,0.5267138551365925,0.12229207569176012,0.07730174135256987
-10177.817026138306,5044.0,-2596.0,16956.0,256.0,-2755.0,3355.0,-0.787907438292569,0.5256332136231142,0.1600733833259554,-0.2780073836610479
-10177.832736253738,4744.0,-3008.0,16888.0,203.0,-3220.0,3287.0,-0.6240373162400115,0.444692796861573,0.20949922341844257,-0.6074008723622853
-10177.848332643509,4956.0,-3200.0,16816.0,198.0,-3212.0,3035.0,-0.3845076619450101,0.29750365434716264,0.23894910391458862,-0.8405645479640937
-10177.863956689835,5568.0,-3360.0,17312.0,457.0,-2665.0,2646.0,-0.1393388915602133,0.13444290100874415,0.21470034772556465,-0.9572949077236576
-10177.8795440197,5852.0,-3844.0,17564.0,746.0,-2011.0,2401.0,0.08677108058348024,0.0019805613131107028,0.1430312208402374,-0.9859051307383544
-10177.89517378807,6076.0,-3932.0,17632.0,1098.0,-1036.0,2545.0,0.30831954501660314,-0.0458825349900611,0.03891394007957445,-0.9493785106116126
-10177.910949468613,5804.0,-3928.0,17160.0,1335.0,-72.0,2338.0,0.49413343308022706,-0.008095157967880198,-0.06252258078310137,-0.8670971950260503
-10177.926666021347,5344.0,-3596.0,16232.0,1550.0,66.0,2419.0,0.6582852423258748,0.04872672247175534,-0.1698751011360032,-0.7317299339696015
-10177.94226884842,5288.0,-3760.0,15260.0,1732.0,-413.0,2417.0,0.7731281802731038,0.08295010232470314,-0.30408125911473993,-0.5503877589909814
-10177.957866191864,5536.0,-3596.0,15592.0,1946.0,-812.0,2802.0,0.834009567567246,0.09626844031755019,-0.45179533154561036,-0.3017306862066127
-10177.973501443863,6432.0,-4604.0,16200.0,2004.0,-1037.0,2562.0,0.8087329116114295,0.10892493558607132,-0.5763991322636803,-0.043017164129523104
-10177.989132642746,7416.0,-4836.0,17428.0,2168.0,-414.0,3059.0,0.7398173036546448,0.10107492315025574,-0.6104691708869686,0.2641620875900209
-10178.004755973816,6936.0,-5264.0,18748.0,2182.0,670.0,3436.0,0.6370823640985219,0.04081280200061375,-0.5146965542843653,0.5723179479583864
-10178.020349740982,6520.0,-4308.0,19384.0,2185.0,2488.0,3752.0,0.5074062758848623,-0.11962326929491206,-0.25690643719297335,0.8137740639542802
-10178.0359852314,5596.0,-3040.0,19064.0,2128.0,4225.0,3780.0,0.3147182714532394,-0.3624726955934162,0.10693559379592267,0.8707070307182784
-10178.051572561264,4476.0,-1724.0,18484.0,2129.0,5308.0,3444.0,0.06120537286048522,-0.5832932500497872,0.4522840328016343,0.6719092501611029
-10178.06715798378,4588.0,-340.0,17964.0,2072.0,5788.0,2896.0,-0.19926143961533063,-0.6857517178956979,0.6469223142696039,0.26745276103563526
-10178.082772493362,4656.0,300.0,17756.0,1975.0,6109.0,2147.0,-0.40996416120691265,-0.6383343483100123,0.6157959924500901,-0.21272973928426836
-10178.09838604927,4248.0,256.0,17336.0,1975.0,6552.0,1202.0,-0.5385360569945583,-0.44690067478341816,0.3519071551940641,-0.6216269430438968
-10178.114002943039,3104.0,-160.0,16952.0,1991.0,7096.0,214.0,-0.5610828982427513,-0.12507247965316284,-0.06848561425353145,-0.8153849255248958
-10178.12958741188,1880.0,-700.0,16684.0,2077.0,7231.0,-656.0,-0.45246463408650206,0.24373663628783318,-0.4820253837250864,-0.7095912460541939
-10178.145196676254,1212.0,-768.0,16336.0,2267.0,7078.0,-1288.0,-0.23615372535091786,0.540205229325644,-0.7304083484554297,-0.3448381833827622
-10178.160796880722,664.0,-556.0,15748.0,2682.0,6655.0,-1534.0,0.013039242563764698,0.6594022975989154,-0.737661298765527,0.14447974383348816
-10178.176389932632,344.0,-488.0,15272.0,3138.0,5329.0,-1158.0,0.16668304486984814,0.5875345451287364,-0.5481178493769964,0.5714776846278613
-10178.192058801651,80.0,-912.0,15176.0,3438.0,4296.0,-476.0,0.19786889738819863,0.4017024511078026,-0.2608931558656357,0.8552296775970949
-10178.207701683044,184.0,-1352.0,15892.0,3335.0,3246.0,535.0,0.10637111173368115,0.18939223466093322,0.02356764715090628,0.9758382724849691
-10178.223299264908,296.0,-1688.0,16328.0,3527.0,2995.0,1930.0,-0.11219845698324811,-0.02679830039409165,0.292919340258067,0.9491531053783392
-10178.238880872726,60.0,-1612.0,16844.0,3369.0,2947.0,2900.0,-0.38071872618822455,-0.20831197012780067,0.4983624114645071,0.7505293341837953
-10178.254470348358,180.0,-1032.0,16420.0,3176.0,2876.0,3785.0,-0.6228735281905898,-0.30204551102840427,0.6080444924767087,0.3886887859402924
-10178.270035266876,48.0,-696.0,15856.0,3246.0,2666.0,4441.0,-0.7318973613811414,-0.29399114510882374,0.6089543326485098,-0.08408376626634606
-10178.285633563995,-216.0,76.0,14784.0,3631.0,2048.0,4686.0,-0.6256550946512596,-0.2296322720470652,0.501382453295667,-0.5517611418889921
-10178.301221609116,-204.0,772.0,14520.0,4143.0,1070.0,4488.0,-0.32834567645447177,-0.18281176535094695,0.2930317302390147,-0.8791480991710413
-10178.316800355911,156.0,1912.0,14696.0,4583.0,478.0,3885.0,0.027104846418764938,-0.15753482368926022,-0.00936557608839323,-0.9870969519810815
-10178.332393407822,752.0,2620.0,15408.0,4670.0,-341.0,3253.0,0.33236057262812163,-0.15957913846541308,-0.3293775102958281,-0.8692418558952769
-10178.348011732101,796.0,3056.0,16248.0,4519.0,-488.0,2124.0,0.49691861939713655,-0.11581738390698035,-0.6015073515490724,-0.6146927080369569
-10178.36361026764,740.0,3120.0,16488.0,4111.0,-190.0,1334.0,0.5614654314604262,-0.016549816865004733,-0.7640713720103375,-0.31729735471783066
-10178.379271268845,600.0,2860.0,16576.0,3761.0,214.0,1008.0,0.5766889689928644,0.10081417461490866,-0.8105520020141951,-0.016485971898616406
-10178.394859790802,316.0,2500.0,16064.0,3509.0,574.0,455.0,0.5603750788826737,0.23486611301744909,-0.7545668303467168,0.2478842037400152
-10178.410464763641,-232.0,2292.0,15792.0,3439.0,823.0,197.0,0.5158116303134849,0.35568234542234206,-0.6151283444588883,0.4785870360043968
-10178.426039218903,-564.0,1792.0,15504.0,3542.0,827.0,86.0,0.42576843624512567,0.45362100731519533,-0.4121986264729215,0.6656136362437031
-10178.441634654999,-1228.0,1524.0,15344.0,3605.0,655.0,-70.0,0.2959419537591141,0.5257175816383677,-0.1671758743656021,0.779802289937418
-10178.45721411705,-1344.0,1192.0,15228.0,3477.0,429.0,-124.0,0.1445157848897417,0.5622570680631153,0.0825551716284064,0.8100412464610526
-10178.47286105156,-872.0,1416.0,15540.0,3001.0,440.0,-72.0,-0.0007927071032100757,0.5493889000859822,0.29370627523750054,0.7822453783589117
-10178.48848938942,-620.0,1868.0,15656.0,2433.0,362.0,-65.0,-0.11957387076088696,0.5110560438599225,0.4525643544675272,0.7209086728087644
-10178.504073858261,-168.0,2056.0,16388.0,1897.0,511.0,129.0,-0.22915365750024802,0.4573971099067682,0.552687055776915,0.6578856310027149
-10178.519649744034,148.0,2276.0,16536.0,1492.0,227.0,145.0,-0.3053670853911679,0.4177968395168974,0.6225441048858567,0.5870567106517585
-10178.5352602005,24.0,2424.0,16740.0,1227.0,1.0,-193.0,-0.3383357233980609,0.37231050537363153,0.6883363848642967,0.5225962563328336
-10178.550839424133,-144.0,2596.0,16452.0,1064.0,279.0,-602.0,-0.36010900298761284,0.29020604633970853,0.743696300061024,0.48271914185236664
-10178.566453456879,-508.0,2580.0,16292.0,1069.0,235.0,-1267.0,-0.34543323038437174,0.1626817201404918,0.8048396914871934,0.45436066322377394
-10178.582032680511,-644.0,3116.0,15648.0,1031.0,123.0,-1861.0,-0.28997322243266216,-0.003990384460911034,0.8537454861491345,0.43245606942653714
-10178.597638368607,-700.0,3204.0,15472.0,1086.0,63.0,-2325.0,-0.20156110336091787,-0.20213010863884673,0.8706966705112078,0.40050449280160977
-10178.613276720047,-600.0,3036.0,15580.0,791.0,49.0,-2535.0,-0.10007708250555794,-0.3998281330489366,0.8306871125064413,0.3742739139927978
-10178.628868103027,-492.0,2760.0,16116.0,905.0,171.0,-2604.0,0.00405231062792413,-0.5853636381807447,0.7464595545036484,0.3164350223420151
-10178.644456148148,-64.0,2780.0,16892.0,745.0,414.0,-2443.0,0.08058982113918553,-0.7371470048404213,0.6265560758667733,0.239889678348153
-10178.660044670105,48.0,2300.0,17272.0,589.0,640.0,-2071.0,0.12448988132781151,-0.8436073619184741,0.5005894704033729,0.14912769858483851
-10178.6756067276,132.0,1768.0,17016.0,471.0,701.0,-1626.0,0.1478439554835663,-0.9071352426490272,0.389642598972145,0.0585359841234077
-10178.691278219223,-232.0,1644.0,16580.0,429.0,558.0,-1228.0,0.1678520675003992,-0.9390749885578761,0.2995150036437629,-0.015956562698245635
-10178.706918478012,-64.0,1552.0,16276.0,408.0,310.0,-862.0,0.19128132749773652,-0.9515600300568254,0.2319372242339521,-0.06442116859857941
-10178.722526550293,-68.0,1748.0,16108.0,591.0,176.0,-427.0,0.23393078142229717,-0.9473126448241218,0.19566252753025748,-0.09793527342051975
-10178.738139629364,-112.0,1792.0,16464.0,734.0,229.0,-120.0,0.2890553251977986,-0.930260858036047,0.1837143796798835,-0.131570443792169
-10178.753746509552,-124.0,2560.0,16948.0,950.0,274.0,7.0,0.36058219096391286,-0.8996686739170076,0.17961366354500907,-0.16827267336088092
-10178.769366264343,144.0,3156.0,17416.0,1069.0,914.0,-33.0,0.4265595872158153,-0.8467226430820534,0.1886641262412309,-0.25595611287103076
-10178.784965276718,428.0,3516.0,17212.0,1161.0,1345.0,-342.0,0.47671947649928825,-0.7694874787552272,0.18521662560368243,-0.38252106133539093
-10178.800605297089,516.0,3640.0,16820.0,1236.0,1548.0,-628.0,0.5055442615948791,-0.6655801855148024,0.16348594674316272,-0.5241186520589219
-10178.816185235977,404.0,3408.0,16324.0,1258.0,1621.0,-909.0,0.5043720615259849,-0.5385246031866286,0.12228642497702623,-0.6638117998205896
-10178.831801176071,276.0,2960.0,16028.0,1029.0,1728.0,-996.0,0.4677320477107916,-0.3960333835757134,0.09014704928292055,-0.7850208915331007
-10178.847416877747,60.0,2616.0,16200.0,1266.0,1864.0,-775.0,0.43444462896205943,-0.21784113256016188,0.051523510301978936,-0.872438211690138
-10178.863004922867,-328.0,2428.0,16088.0,1231.0,1987.0,-1004.0,0.3636065797156104,-0.02353771065948817,0.013591003905804972,-0.9311560105467064
-10178.87862110138,-700.0,2236.0,16068.0,1130.0,1813.0,-871.0,0.28722301630977165,0.1557084756215839,-0.02228039062727909,-0.9448605154809969
-10178.894208431244,-936.0,2180.0,15560.0,1167.0,1464.0,-896.0,0.19715919931048698,0.3022256065009656,-0.06862463642695198,-0.9300960123436933
-10178.90981388092,-924.0,2212.0,15576.0,1171.0,1037.0,-835.0,0.1035015660238081,0.4064714955701034,-0.12235852981511748,-0.8994980485254572
-10178.92572927475,-692.0,2204.0,16060.0,1175.0,647.0,-618.0,0.020064027626035562,0.4703843817595687,-0.18528065658355344,-0.86255843076748
-10178.941368341446,-264.0,2208.0,16732.0,1039.0,582.0,-469.0,-0.04817882847984974,0.5201990421743772,-0.24168844876038256,-0.8177153849249563
-10178.95695924759,-112.0,2176.0,16912.0,842.0,665.0,-388.0,-0.09957906910973975,0.5693505541406958,-0.28551090387766287,-0.7644654859847371
-10178.972552537918,-88.0,2124.0,17036.0,758.0,964.0,-274.0,-0.13072945463348198,0.6300257009168638,-0.3288429346295377,-0.6912595389719266
-10178.988152265549,-108.0,2152.0,16492.0,267.0,1253.0,-260.0,-0.12433642231579395,0.7053857470774848,-0.34269870077779424,-0.6078889720918279
-10179.003853321075,-692.0,2364.0,16092.0,100.0,1231.0,-312.0,-0.10955760527771055,0.7741207221523468,-0.34003856272974065,-0.5225973732395092
-10179.019469499588,-1184.0,2472.0,15656.0,37.0,770.0,-292.0,-0.10226458853664472,0.8154035802330566,-0.3284961533551059,-0.4655633496157557
-10179.03509092331,-1372.0,2220.0,16048.0,2.0,1079.0,-307.0,-0.08355034485727324,0.8638722110348962,-0.31484319207541894,-0.38421075893273887
-10179.050680875778,-1284.0,1944.0,16136.0,-37.0,1043.0,-142.0,-0.056623835037318174,0.8992101825025557,-0.30919247741856243,-0.3043267995053321
-10179.066257953644,-1388.0,2028.0,16364.0,-101.0,1099.0,163.0,-0.014634537570529082,0.9201391933345913,-0.3232060204634413,-0.22060726084118282
-10179.081841945648,-1208.0,2364.0,16492.0,-202.0,1025.0,376.0,0.03758241052462396,0.9251850401275351,-0.34919052793499544,-0.14382690688410438
-10179.097424030304,-1164.0,2712.0,16312.0,-341.0,1563.0,449.0,0.11719543639046805,0.9203691018220114,-0.3721500845710645,-0.026272812075249306
-10179.113050460815,-1408.0,3048.0,16240.0,-458.0,1544.0,418.0,0.2030113999828306,0.8962366687127644,-0.3848461326543247,0.08625345971419163
-10179.128726005554,-1668.0,2968.0,15924.0,-654.0,1511.0,296.0,0.29957660663841273,0.854254162452773,-0.38208934384182164,0.1857724845332349
-10179.144331216812,-1596.0,3064.0,15800.0,-791.0,896.0,19.0,0.3861008069108293,0.8139623381108351,-0.3708706779460778,0.2254915060035869
-10179.159931898117,-1564.0,2732.0,15456.0,-950.0,483.0,-365.0,0.47420455567411557,0.7804530263484426,-0.345663474207812,0.21573102614148285
-10179.175535917282,-1464.0,2580.0,15360.0,-979.0,501.0,-478.0,0.5620289461671282,0.7408182361445822,-0.3090732640792475,0.19946308454773562
-10179.191125869751,-1364.0,2384.0,15528.0,-1279.0,323.0,-411.0,0.6559428218541856,0.6785469089379228,-0.2867969061627282,0.16450118979583664
-10179.206775665283,-1340.0,2308.0,16032.0,-1237.0,457.0,-203.0,0.7386683701540119,0.6020760463964451,-0.2645256861673987,0.14798525145198968
-10179.22238779068,-1468.0,2224.0,16308.0,-1490.0,590.0,188.0,0.8201687689308339,0.48909430883400135,-0.2530398004960956,0.1551799178423776
-10179.23799610138,-1412.0,2008.0,16448.0,-1849.0,678.0,483.0,0.8937325491864955,0.33156890738973854,-0.24623191002679798,0.175140048708279
-10179.25357079506,-1496.0,1872.0,16476.0,-2235.0,567.0,718.0,0.9390591468027868,0.13010230761091934,-0.25125130042836374,0.19522830838121838
-10179.269166707993,-1456.0,1944.0,16244.0,-2489.0,453.0,878.0,0.9371079796325755,-0.09829011276378209,-0.259248404834559,0.21203290507035036
-10179.284727573395,-1516.0,2276.0,16184.0,-2687.0,280.0,894.0,0.8773028628605041,-0.3332412248293078,-0.2699666918483962,0.21542506396299202
-10179.300325632095,-1764.0,2284.0,15980.0,-2662.0,39.0,762.0,0.7645761091506638,-0.5400912667378535,-0.28649341277476315,0.20407430349312022
-10179.315965652466,-1712.0,2608.0,16048.0,-2634.0,-89.0,460.0,0.6135869908997557,-0.706700817603407,-0.3092867449076465,0.16860210088160676
-10179.331557035446,-1920.0,2772.0,16072.0,-2634.0,-108.0,135.0,0.4348884395735244,-0.828096546534353,-0.33666110635336016,0.10857004288529373
-10179.347164869308,-2104.0,2768.0,16012.0,-2769.0,-133.0,-95.0,0.2252620901420402,-0.9030566126698015,-0.36428429413426244,0.03229083624320337
-10179.362800121307,-2236.0,2584.0,15732.0,-2973.0,-302.0,-291.0,-0.017285890676774024,-0.920328681109945,-0.38842237875080765,-0.04271267253993469
-10179.378427505493,-2400.0,2256.0,15380.0,-3168.0,-520.0,-473.0,-0.2801916111648292,-0.8673160817787148,-0.39815799620678777,-0.1035648848667853
-10179.394026517868,-2420.0,1936.0,15196.0,-3367.0,-828.0,-400.0,-0.5429178272412309,-0.7447124607923437,-0.3613399355826139,-0.14169345276838147
-10179.409618616104,-2276.0,1540.0,15288.0,-3529.0,-1116.0,-340.0,-0.772179634820362,-0.5521257703012244,-0.27286863180014154,-0.15632803688875074
-10179.425242185593,-1948.0,1300.0,15672.0,-3537.0,-1327.0,-189.0,-0.9276375602714184,-0.31067526391736155,-0.1369378507621419,-0.15561960735143182
-10179.440884113312,-2028.0,1032.0,16124.0,-3453.0,-1408.0,-25.0,-0.9874620932735091,-0.047231928382475884,0.02219763585020286,-0.14897994580423876
-10179.45652961731,-1696.0,1316.0,15960.0,-3373.0,-1481.0,122.0,-0.9490695151016412,0.21369743946533035,0.18454846052049212,-0.13979386821393017
-10179.472119808197,-1928.0,1464.0,15824.0,-3314.0,-1583.0,77.0,-0.819856702965036,0.44754724433069165,0.33758470080092096,-0.11650330673615071
-10179.48776936531,-2000.0,1564.0,15408.0,-3287.0,-1814.0,-43.0,-0.606809829007827,0.6300134814707383,0.47744920530499874,-0.0831089702633628
-10179.503393173218,-2000.0,1636.0,15512.0,-3352.0,-1834.0,-57.0,-0.3287265355764554,0.7511739926927721,0.5710903268643177,-0.0391450644642087
-10179.518991708755,-1776.0,1648.0,15732.0,-3391.0,-1878.0,49.0,-0.011950497974828285,0.7999447004805195,0.5999333506792787,0.00506325132883367
-10179.534636497498,-1460.0,2032.0,15920.0,-3497.0,-1986.0,275.0,0.3170887400432777,0.7724420462371497,0.54829831423967,0.046443242185140024
-10179.550231218338,-1536.0,2024.0,15772.0,-3406.0,-2123.0,244.0,0.6108916500613883,0.659000236663343,0.43333162938209635,0.06894765362207379
-10179.565845012665,-1492.0,1820.0,15400.0,-3176.0,-2349.0,-31.0,0.8344798970995704,0.4750595141126569,0.27480221897375795,0.04945199525636553
-10179.581445932388,-1288.0,1472.0,15740.0,-3006.0,-2749.0,-444.0,0.9670412484164153,0.2421266997363257,0.07524464460917496,-0.023326564120226954
-10179.5970454216,-1084.0,1012.0,15904.0,-2855.0,-3162.0,-976.0,0.9774436652703051,-0.011182657248233816,-0.15439024899670398,-0.14367491226569856
-10179.612714767456,-672.0,4.0,16608.0,-2502.0,-3533.0,-1288.0,0.8478682177492717,-0.23403302983185248,-0.3957474617648579,-0.2640681214858565
-10179.628321647644,-216.0,-752.0,16684.0,-1727.0,-3585.0,-1889.0,0.6023648772785216,-0.35390009096245006,-0.6157653131686729,-0.3643409932141694
-10179.64394569397,264.0,-1052.0,16864.0,-1000.0,-3925.0,-1937.0,0.2783827371638695,-0.3977156943723046,-0.7915114789007643,-0.37126117069716924
-10179.659530162811,240.0,-1544.0,16752.0,114.0,-3965.0,-1794.0,-0.04646984380869589,-0.3734306485793924,-0.8916172312954467,-0.25181107436928113
-10179.675121307373,-88.0,-1552.0,16368.0,590.0,-4403.0,-1456.0,-0.3721548072240845,-0.33264901991405593,-0.8649337214083523,-0.05229805523077615
-10179.690722942352,-216.0,-1300.0,15668.0,724.0,-5251.0,-1250.0,-0.6803781093722743,-0.2580657581930266,-0.662818828298487,0.17651881936011438
-10179.706335306168,-108.0,-1436.0,16080.0,636.0,-6332.0,-1266.0,-0.8813827256166544,-0.10873735419256784,-0.2656992334899527,0.375159427591269
-10179.721992015839,488.0,-1320.0,16788.0,486.0,-7050.0,-831.0,-0.8605459562778683,0.08844873260076136,0.24199911490874887,0.4394017606001486
-10179.737592458725,1528.0,-1060.0,18244.0,381.0,-6735.0,-747.0,-0.5960200752306019,0.2601185925016042,0.6608127145520387,0.37473316378919297
-10179.753177642822,2768.0,-788.0,20260.0,105.0,-5512.0,-690.0,-0.23213228485314044,0.3555395507344017,0.8697516185930801,0.25147236855598576
-10179.768763065338,3644.0,20.0,21496.0,-622.0,-4330.0,-897.0,0.1263127179244218,0.3681141024328272,0.9053250720056355,0.1700694531025798
-10179.784369707108,4512.0,908.0,21048.0,-1663.0,-2490.0,-1062.0,0.3780396794670866,0.2917996352157352,0.8550223626315702,0.20217747905321728
-10179.799994468689,4080.0,1504.0,18816.0,-2348.0,-995.0,-2398.0,0.5302719926712288,0.05057996457064116,0.8050427471065498,0.26107366068536475
-10179.815628290176,2948.0,132.0,17120.0,-3088.0,-1097.0,-3426.0,0.6459995069165715,-0.2846985427121114,0.6458189146825303,0.29077363408573575
-10179.83125114441,2764.0,-1460.0,15652.0,-3307.0,-1702.0,-4019.0,0.6873615738011982,-0.5905150084458366,0.33014299118902896,0.2642568769786592
-10179.84686422348,2872.0,-3544.0,15184.0,-2524.0,-2081.0,-4253.0,0.6478895720926622,-0.7393485353346534,-0.06543311896315157,0.17123478798084252
-10179.862466573715,3740.0,-4896.0,15732.0,-1570.0,-2031.0,-4136.0,0.5493594824948438,-0.7124084278585479,-0.43322808086138925,0.05469753981914939
-10179.878064870834,4440.0,-6064.0,16548.0,-605.0,-887.0,-3425.0,0.47203096734121835,-0.579805562413072,-0.6599818033999297,-0.073731233861584
-10179.893681049347,5348.0,-5996.0,17560.0,-145.0,119.0,-2545.0,0.44437873881818063,-0.42787311410600987,-0.7641803867482995,-0.18836260568596952
-10179.909341573715,5104.0,-5600.0,18080.0,-227.0,870.0,-1106.0,0.4722034560007327,-0.34591233923240516,-0.7620766540053734,-0.27678100210763007
-10179.92558646202,4588.0,-5216.0,18056.0,-354.0,815.0,-243.0,0.5083134695284833,-0.32359253894976436,-0.7248563342754767,-0.3338990567412241
-10179.941205263138,3880.0,-4672.0,17812.0,-341.0,647.0,664.0,0.5570010235101742,-0.3605275984018278,-0.664899355607205,-0.34304308404681794
-10179.95678281784,3728.0,-3836.0,17516.0,-510.0,497.0,790.0,0.591010253590821,-0.4144825360669771,-0.5979323570095725,-0.34840781260898457
-10179.972356557846,3944.0,-2764.0,17184.0,-213.0,633.0,511.0,0.6302867780569852,-0.43167792950024264,-0.5387593508387032,-0.3551494114774617
-10179.988153219223,4232.0,-1816.0,17228.0,-180.0,919.0,199.0,0.670650626792218,-0.42090758090084285,-0.47336290798311054,-0.3859949513519301
-10180.003820896149,4192.0,-1112.0,16712.0,-221.0,1146.0,-377.0,0.6933092980883601,-0.37739818265217945,-0.4102201530846959,-0.45674090567654035
-10180.019432544708,3976.0,-744.0,16396.0,-385.0,1431.0,-920.0,0.6873474189420222,-0.30704167708076635,-0.3345853429356997,-0.5668611668669594
-10180.035028457642,3760.0,-920.0,15952.0,-703.0,1709.0,-1463.0,0.6328426015338451,-0.21724278742262393,-0.23145665921961645,-0.7062178331786999
-10180.050641536713,3240.0,-1472.0,15648.0,-1172.0,1652.0,-1925.0,0.5104284621179648,-0.13710810037220242,-0.10126241434786344,-0.8428582783081965
-10180.066226005554,3184.0,-2632.0,15076.0,-1624.0,1755.0,-2154.0,0.3351326619761078,-0.05902353488344501,0.06827383769808772,-0.9378384745214101
-10180.081816673279,3216.0,-4228.0,15092.0,-1654.0,1803.0,-1923.0,0.1529368204961608,0.027399636905021,0.23793455450360035,-0.9587735585669701
-10180.097419023514,3568.0,-5304.0,14952.0,-1342.0,1653.0,-1372.0,0.006797184527140318,0.1162381115078451,0.3665930541225333,-0.9230666456896313
-10180.1130361557,3288.0,-6172.0,15044.0,-746.0,1494.0,-696.0,-0.08847859577448867,0.2110833644075658,0.42918332204999243,-0.8737373904293496
-10180.12870168686,3508.0,-6332.0,15112.0,-56.0,1413.0,96.0,-0.13211920149786094,0.32026487035464724,0.4174742885867843,-0.8400536576798217
-10180.144299268723,3828.0,-5672.0,15604.0,424.0,1410.0,788.0,-0.13620158282159253,0.4426404178140461,0.3443756549866592,-0.8166541480986974
-10180.15991282463,3604.0,-4424.0,15516.0,528.0,1260.0,1357.0,-0.0964525330504682,0.5589815852952345,0.23597349869979722,-0.7890202811590787
-10180.175513505936,3640.0,-3472.0,15524.0,407.0,1037.0,1596.0,-0.027401878457822423,0.6504019187489382,0.11961049590612588,-0.749613107151798
-10180.191103935242,3388.0,-2728.0,15284.0,157.0,902.0,1730.0,0.06648164448199809,0.7166225935545155,0.008835195582684325,-0.6942292047106522
-10180.206743955612,3140.0,-2548.0,15512.0,-65.0,679.0,1584.0,0.16416341609750143,0.7500793108644163,-0.08144472386062125,-0.6354511446080086
-10180.222333908081,2944.0,-2144.0,15712.0,-285.0,554.0,1126.0,0.24768303806522143,0.7638440876357204,-0.13058969638500875,-0.5814994872197287
-10180.23798418045,3084.0,-2176.0,16356.0,-476.0,645.0,633.0,0.31767970544536367,0.7759333474478345,-0.1341451944915449,-0.5282159708503433
-10180.253568410873,3116.0,-2068.0,16452.0,-658.0,861.0,11.0,0.37122650461636014,0.7936519428699956,-0.0803057173724087,-0.4752456918335019
-10180.269177675247,3236.0,-1976.0,16796.0,-851.0,1070.0,-257.0,0.42396304017896985,0.8062832060969111,0.00742666006250029,-0.41244099802105944
-10180.284867048264,3084.0,-1856.0,16676.0,-1038.0,1267.0,-912.0,0.4573422536672878,0.8021649017058974,0.15382913593831105,-0.3517188229511844
-10180.30050778389,2804.0,-2548.0,16380.0,-1111.0,1443.0,-1304.0,0.466945078385295,0.7699726359080636,0.33059181810030835,-0.2825128024172914
-10180.316136837006,2408.0,-3044.0,15364.0,-1138.0,1363.0,-1483.0,0.45833277476660367,0.700223751859683,0.5037113446615071,-0.21422568978904252
-10180.33177280426,2148.0,-3412.0,15060.0,-1052.0,1143.0,-1580.0,0.4348266940440286,0.5989001823971617,0.6535654971439167,-0.15841861826948267
-10180.347346067429,2028.0,-3816.0,15344.0,-728.0,897.0,-1581.0,0.39418090668017514,0.4863909711786932,0.7691659309604442,-0.12817568651813702
-10180.362957000732,2268.0,-3804.0,15444.0,-334.0,910.0,-1393.0,0.32813848804140766,0.3873031022595747,0.8540275905508083,-0.1138345915088622
-10180.378635406494,2052.0,-3800.0,15908.0,-85.0,1113.0,-1132.0,0.23457541218726644,0.30856581395876875,0.9162361633903275,-0.10135485853628123
-10180.394230365753,2424.0,-3468.0,15944.0,186.0,1483.0,-813.0,0.10265256006272579,0.2576369319698504,0.9563629389860011,-0.09195429371046039
-10180.409842967987,1924.0,-3180.0,15568.0,289.0,1595.0,-723.0,-0.04230344604571312,0.21015882690997725,0.9729851921345449,-0.08569423441155564
-10180.42544388771,1544.0,-2984.0,15584.0,356.0,1454.0,-659.0,-0.17550038573925375,0.16210229351745625,0.9672280710604311,-0.08597859963078618
-10180.441030979156,1292.0,-2756.0,15788.0,328.0,1154.0,-659.0,-0.2805651553247508,0.10931846474279748,0.949643720117594,-0.08665720815427187
-10180.456658363342,1188.0,-2464.0,15800.0,175.0,931.0,-892.0,-0.3638726897278911,0.03788644580811184,0.9280409539959206,-0.07000907513001775
-10180.472253799438,1200.0,-2468.0,15980.0,57.0,617.0,-1176.0,-0.4184880011435342,-0.05505144387090303,0.9058756407346796,-0.035020778834170777
-10180.487928390503,1476.0,-2500.0,15816.0,72.0,293.0,-1577.0,-0.44188560275982475,-0.17972636509057205,0.8787496234362735,0.015318194264484655
-10180.50351023674,1944.0,-2592.0,15424.0,153.0,235.0,-1949.0,-0.4484064155582043,-0.33058618983886967,0.8271469029638989,0.07397606701692018
-10180.519112825394,2188.0,-2792.0,15292.0,430.0,210.0,-2087.0,-0.4303083462420676,-0.4909419811791881,0.7484855364622359,0.11653368601871934
-10180.534708976746,1964.0,-3040.0,15272.0,648.0,13.0,-2046.0,-0.37610068043127637,-0.6379754050893771,0.655481573197295,0.14791743602082683
-10180.550320625305,1588.0,-3484.0,15348.0,1019.0,-189.0,-1755.0,-0.2815107184951491,-0.757499180762058,0.5681741177881827,0.15532185420209305
-10180.56598854065,904.0,-3700.0,15884.0,794.0,-414.0,-1287.0,-0.18929315976211805,-0.8275086075801237,0.49935067004325034,0.1733392984162426
-10180.581587076187,140.0,-3716.0,17544.0,761.0,-365.0,-810.0,-0.10562104687981864,-0.8653645370755544,0.45600983910018733,0.17900681292018925
-10180.5971763134,432.0,-3176.0,19308.0,573.0,-244.0,-378.0,-0.04662782205898274,-0.8801008390967636,0.4377711286487625,0.17777738369319404
-10180.612800836563,1788.0,-1556.0,20024.0,185.0,969.0,-16.0,-0.06894700480497881,-0.8931944815507209,0.43386142426607927,0.09599058906773174
-10180.628406047821,2704.0,544.0,18732.0,-491.0,2219.0,-417.0,-0.18409019678724323,-0.906369494956894,0.37629874424876913,-0.054812344733817284
-10180.644074440002,1892.0,780.0,16012.0,-1103.0,2152.0,-1108.0,-0.33838586336059834,-0.8910235531645564,0.2526022045465406,-0.16662581265199972
-10180.659691095352,1152.0,-4.0,14048.0,-1272.0,1526.0,-1748.0,-0.48371204365098247,-0.8474468213241749,0.0877483177242368,-0.20039155818324356
-10180.675280332565,348.0,-1512.0,13044.0,-1052.0,295.0,-2129.0,-0.5884018706052482,-0.7969187701363872,-0.062454848130642386,-0.12166800901441169
-10180.690889835358,72.0,-2672.0,13244.0,-607.0,-911.0,-2293.0,-0.6443658013310944,-0.7447513314780175,-0.16471983263956536,0.05482285173036766
-10180.706513881683,588.0,-4020.0,14088.0,-178.0,-1954.0,-2279.0,-0.651143263046647,-0.6698459178978532,-0.1971305073618972,0.2974196703847752
-10180.722155332565,2012.0,-4356.0,15864.0,42.0,-2330.0,-1577.0,-0.6292061976060689,-0.5676268188293982,-0.15129490986422026,0.5089294702499624
-10180.737795829773,2756.0,-4344.0,17000.0,-29.0,-2130.0,-775.0,-0.61252426661988,-0.45225394614018205,-0.07256487349557787,0.6442163690383707
-10180.753408908844,3520.0,-3336.0,17904.0,-259.0,-1566.0,62.0,-0.6301748055745195,-0.3472125178464379,-0.0009223807022745675,0.6944942988129519
-10180.769002914429,3812.0,-2812.0,18400.0,-420.0,-801.0,1161.0,-0.7075800669098471,-0.2731545313988154,0.05243779803036878,0.6495901232514825
-10180.784600019455,3708.0,-2080.0,18196.0,-622.0,76.0,1764.0,-0.8120569538412983,-0.22768106737070942,0.053811895499658514,0.5346298861658035
-10180.800188779831,3276.0,-2036.0,17612.0,-697.0,524.0,1980.0,-0.9048222151432165,-0.1897867985457596,0.023083681878152063,0.38045351057918014
-10180.815937280655,2808.0,-1704.0,16776.0,-482.0,1533.0,2290.0,-0.9636847707239103,-0.19207101536145726,-0.07384067583695604,0.17019971305723408
-10180.8315346241,2376.0,-1368.0,15936.0,-240.0,1478.0,1888.0,-0.9651917066903147,-0.20134807410821948,-0.16628525355133128,-0.01459920684551054
-10180.847122192383,1916.0,-1044.0,15488.0,51.0,1302.0,1502.0,-0.9296831022380172,-0.22226795833293533,-0.2457732095507005,-0.16087825701054945
-10180.86272597313,1688.0,-956.0,15348.0,226.0,830.0,967.0,-0.8883649714277768,-0.24796588700701389,-0.2954641745970815,-0.24904119729598082
-10180.878332614899,1628.0,-988.0,15548.0,243.0,391.0,468.0,-0.8615343802617262,-0.26980119170949124,-0.32022681225111777,-0.287089911516704
-10180.893983364105,1704.0,-1132.0,15768.0,296.0,104.0,-309.0,-0.8588643353919165,-0.280482941719363,-0.34231623009592316,-0.2578778226392665
-10180.90960097313,1608.0,-1352.0,16228.0,84.0,-129.0,-718.0,-0.8751252702603476,-0.2675565097296983,-0.3512282714825407,-0.1980100420796938
-10180.9256939888,1668.0,-1724.0,16416.0,17.0,-90.0,-941.0,-0.89082165690546,-0.2406199574008607,-0.3652154062643107,-0.12311181387589627
-10180.941372156143,1540.0,-1952.0,16680.0,162.0,217.0,-999.0,-0.8877266335913438,-0.21803075827404644,-0.403001174436685,-0.044654964580401836
-10180.95696592331,1852.0,-2008.0,16664.0,351.0,377.0,-860.0,-0.8679317090158583,-0.21259299744173235,-0.44807017269748917,0.02705339650383049
-10180.972569465637,1880.0,-1948.0,16564.0,430.0,393.0,-833.0,-0.8394289391931684,-0.21259516588511637,-0.4902043360121321,0.0993079072492045
-10180.988147497177,1568.0,-1916.0,15996.0,421.0,215.0,-858.0,-0.8121235759193122,-0.20775534570318732,-0.5162011236979842,0.1755830676936608
-10181.00376701355,1248.0,-1836.0,15956.0,379.0,-94.0,-982.0,-0.7911771284747441,-0.18805992633114155,-0.5191896006083514,0.2628961279800914
-10181.019431352615,1088.0,-1892.0,16008.0,362.0,-384.0,-1110.0,-0.7728219062966161,-0.1529898114905731,-0.4995672743719798,0.360240138108865
-10181.035021781921,1060.0,-1872.0,16168.0,295.0,-522.0,-1170.0,-0.7500140499722908,-0.10469363371578419,-0.46746764373974664,0.45606158570960215
-10181.050634860992,1164.0,-2044.0,16148.0,201.0,-503.0,-1226.0,-0.7150903081753347,-0.047405195163261804,-0.4345884775664335,0.5454644386133042
-10181.06622004509,1060.0,-1740.0,16384.0,62.0,-432.0,-1251.0,-0.667275355120865,0.01669279437798123,-0.4069253036991559,0.6235998302385334
-10181.081816673279,1460.0,-1824.0,16392.0,-66.0,-358.0,-1311.0,-0.6043425208735894,0.08601676382559455,-0.38482448575780265,0.6923014870461927
-10181.097413778305,1692.0,-1928.0,16488.0,-120.0,-372.0,-1159.0,-0.5428614093857985,0.15288354493075554,-0.36146166007656444,0.7424779997978153
-10181.11303281784,1764.0,-2116.0,16468.0,-159.0,-301.0,-1068.0,-0.4787765434922043,0.21255829523375722,-0.3413907942969009,0.7804129151278237
-10181.128692388535,1740.0,-2292.0,16448.0,-143.0,-293.0,-1029.0,-0.41296995419596866,0.2678801553681278,-0.3181737136925021,0.8102231342083791
-10181.1442694664,1760.0,-2328.0,16128.0,-165.0,-235.0,-915.0,-0.34974282681461805,0.3146340049835533,-0.2987452679745873,0.8303232279435048
-10181.15991282463,1744.0,-2556.0,16420.0,-181.0,-81.0,-871.0,-0.2829359066940331,0.34753829598226477,-0.2844491572941311,0.8474981312331182
-10181.17551112175,1708.0,-2524.0,16448.0,-210.0,-251.0,-823.0,-0.22129003348958057,0.3904003821379031,-0.26788536633134186,0.852558322468488
-10181.191118717194,1464.0,-2388.0,16352.0,-304.0,51.0,-741.0,-0.1542488701621068,0.4086327734246073,-0.2654846130071985,0.8595024507198599
-10181.206708669662,1348.0,-2376.0,16164.0,-346.0,-45.0,-685.0,-0.09138055866712873,0.43140166285194254,-0.2657116769949281,0.8572861269697566
-10181.222340345383,1224.0,-2372.0,16040.0,-410.0,-173.0,-590.0,-0.035751240883027904,0.4601799174404946,-0.2721470269178359,0.8443294902462936
-10181.237993955612,1056.0,-2352.0,16112.0,-448.0,-279.0,-629.0,0.021901898956585054,0.49565445512283113,-0.27824269134384194,0.8224524136098821
-10181.253587722778,1388.0,-2392.0,15928.0,-456.0,-492.0,-558.0,0.06953161029401579,0.5419421587674549,-0.28688534014720285,0.7868677483090888
-10181.269171237946,1420.0,-2552.0,15924.0,-416.0,-530.0,-481.0,0.10869061931787376,0.5862069329615428,-0.29510234241339245,0.7466340392201839
-10181.284759044647,1380.0,-2632.0,16236.0,-340.0,-541.0,-324.0,0.13301223218429775,0.6252488961152783,-0.30517920550567945,0.7058592044614126
-10181.30034995079,1368.0,-2756.0,16244.0,-258.0,-412.0,-259.0,0.15190712199354084,0.6536792133085261,-0.3113310353084636,0.6728303640812788
-10181.316058635712,1368.0,-2652.0,16224.0,-141.0,-245.0,-166.0,0.1629869226034091,0.6703401524094871,-0.31323097216487017,0.6526604792727578
-10181.331649541855,1272.0,-2404.0,16244.0,-82.0,-243.0,-219.0,0.17355555593245622,0.688617915035445,-0.3083832627382784,0.6329167396744272
-10181.347280740738,1524.0,-2556.0,16272.0,253.0,-218.0,-224.0,0.1647671118904816,0.710001659013069,-0.28404337192911056,0.6229516882560798
-10181.362869262695,1364.0,-2216.0,16488.0,50.0,-134.0,-11.0,0.15894562776067003,0.7181411165358502,-0.2825260646931492,0.6157829543966051
-10181.378487586975,1308.0,-2308.0,16648.0,85.0,17.0,-291.0,0.16963180474691975,0.7252472319040612,-0.2593670925485767,0.6147928226131937
-10181.394064426422,1128.0,-2092.0,16876.0,54.0,131.0,-424.0,0.19180293423843878,0.7279796072113529,-0.22749419340226795,0.617659872316618
-10181.409657716751,800.0,-2272.0,16648.0,85.0,240.0,-553.0,0.22068846229265018,0.7263336037172696,-0.1834777100551251,0.6245574662390303
-10181.42533159256,928.0,-2232.0,16572.0,137.0,336.0,-731.0,0.2566066749593669,0.7204444403965681,-0.12286611999824351,0.632468765414191
-10181.440919160843,884.0,-2160.0,16568.0,135.0,292.0,-853.0,0.2974268654656994,0.7141402140391212,-0.0550502830843913,0.6312768653481092
-10181.456539154053,996.0,-2080.0,16316.0,154.0,283.0,-938.0,0.3396357775507856,0.7043142810780924,0.019179292407920434,0.6230739015715991
-10181.472130298615,1024.0,-2144.0,16456.0,127.0,242.0,-1011.0,0.38484190006805286,0.6902424593739976,0.09500488262044833,0.6053396827464896
-10181.487746477127,1164.0,-2192.0,16416.0,30.0,162.0,-973.0,0.4315499891412248,0.6720289402147124,0.1600355376703002,0.5801123486607374
-10181.503329515457,1140.0,-2248.0,16576.0,-44.0,199.0,-898.0,0.47534161095868893,0.6455656334566717,0.21724282501233735,0.556867058436341
-10181.518941879272,1132.0,-2512.0,16444.0,-99.0,167.0,-800.0,0.5153679972961585,0.6164795756064632,0.2637125445579464,0.5336707356280603
-10181.5345287323,1076.0,-2588.0,16268.0,-107.0,144.0,-714.0,0.5499999754718201,0.5872110591186249,0.3029468198761726,0.5107899992723955
-10181.550162315369,1104.0,-2648.0,16340.0,-92.0,115.0,-570.0,0.5763961045178404,0.5617536368800446,0.3330792127067034,0.4911808426754695
-10181.565793275833,1208.0,-2692.0,16284.0,35.0,82.0,-441.0,0.5908203946455579,0.546659584778476,0.35998271064021947,0.4717064846711474
-10181.581387758255,1264.0,-2636.0,16564.0,46.0,88.0,-327.0,0.5991329663650896,0.5348025993298883,0.3817760042984556,0.45746360610049536
-10181.596976041794,1312.0,-2804.0,16324.0,35.0,43.0,-209.0,0.6043802793541673,0.5277680660278684,0.3950336211133151,0.4473631462236069
-10181.612599372864,1328.0,-2804.0,16284.0,-237.0,63.0,-199.0,0.6207365705847235,0.5056614944641752,0.3980410884237485,0.4478346289440011
-10181.628275632858,1368.0,-2464.0,16256.0,-85.0,65.0,-200.0,0.6300033328328878,0.4913783569035768,0.40690491780786914,0.4427996147807336
-10181.643898248672,1376.0,-2272.0,16284.0,-81.0,37.0,-262.0,0.6421831427188245,0.4759577399503658,0.4168380334434543,0.432794518061525
-10181.659491539001,1388.0,-2268.0,15948.0,-24.0,7.0,-315.0,0.6546591990351034,0.462620271499063,0.42915757211669886,0.41620619386519303
-10181.67511510849,1312.0,-2320.0,16124.0,28.0,26.0,-342.0,0.6647650316325241,0.45017211575648375,0.44517922031800383,0.3965450550832711
-10181.690682649612,1212.0,-2372.0,16272.0,129.0,58.0,-323.0,0.6683945405422017,0.4428026086780163,0.4653909941310059,0.37494774369647377
-10181.706267118454,1256.0,-2380.0,16352.0,96.0,70.0,-319.0,0.6720737947472789,0.43288097123986746,0.48464279357303547,0.35503836664527655
-10181.721917390823,1236.0,-2428.0,16524.0,81.0,101.0,-399.0,0.6767433005008272,0.4172657715553376,0.5077250754075843,0.33184790027652544
-10181.737522125244,1332.0,-2460.0,16428.0,76.0,147.0,-351.0,0.6773312316294704,0.4016380442354313,0.5310006753751554,0.31296575984150643
-10181.75315785408,1260.0,-2396.0,16440.0,2.0,164.0,-314.0,0.6780062703778942,0.38247032813180426,0.5514071969911919,0.29995674443713494
-10181.768751382828,1224.0,-2428.0,16300.0,9.0,228.0,-371.0,0.6760509117413086,0.3588521364312515,0.5770167251308045,0.28501229417657253
-10181.784340143204,1144.0,-2476.0,16204.0,56.0,196.0,-395.0,0.6738393336892139,0.3370719216648427,0.6018083318791552,0.264858082148299
-10181.79996085167,1168.0,-2360.0,16236.0,70.0,232.0,-329.0,0.6668697915267793,0.31828614559741025,0.6262676672918962,0.2485305204085422
-10181.815540075302,1148.0,-2384.0,16260.0,51.0,204.0,-309.0,0.6607474910952534,0.29972851073016943,0.6474049828137509,0.23332886896980748
-10181.831147432327,1116.0,-2360.0,16272.0,69.0,161.0,-190.0,0.6536417393068263,0.2895733573663677,0.6628159428620299,0.22265393153374838
-10181.846786022186,1028.0,-2300.0,16156.0,30.0,121.0,-156.0,0.6489098382831914,0.2798230142889846,0.6740627537926049,0.215068608595116
-10181.862411022186,908.0,-2248.0,16188.0,-24.0,97.0,-115.0,0.6459839768641066,0.26981183728053654,0.6817752406726878,0.21234122375043765
-10181.878006696701,868.0,-2156.0,16276.0,-246.0,83.0,-134.0,0.6492033934763541,0.24630778318518848,0.6847478766097858,0.22133182175090435
-10181.893576860428,896.0,-2268.0,16212.0,-19.0,62.0,-191.0,0.6495892387341545,0.23254321228184535,0.6918108362183806,0.212967702324196
-10181.909158945084,1036.0,-2376.0,16280.0,13.0,-72.0,-206.0,0.6574762396766888,0.22210255701034579,0.6919422309381734,0.1990261225929172
-10181.924951791763,1084.0,-2456.0,16164.0,-29.0,-74.0,-160.0,0.665300635139936,0.21199825126215854,0.6901248248339564,0.19015659991724088
-10181.940561532974,1204.0,-2484.0,16248.0,-73.0,-137.0,-125.0,0.6769709604169737,0.2024365037343421,0.6830793545237077,0.18474949561882603
-10181.956166744232,1272.0,-2792.0,16348.0,-102.0,-178.0,-62.0,0.6903606520200914,0.19551120751274415,0.6718032441501698,0.18400526902404268
-10181.971853971481,1376.0,-2692.0,16308.0,-92.0,-217.0,-34.0,0.7051455032260734,0.1913793208180118,0.6575910877403889,0.18362389868341333
-10181.987459659576,1520.0,-2816.0,16376.0,-28.0,-217.0,113.0,0.7161897322199281,0.19953444914800197,0.6416491000642757,0.18853303013704645
-10182.003089666367,1612.0,-3060.0,16432.0,79.0,-140.0,284.0,0.7177889208366892,0.2225504290359579,0.6288929503870878,0.19935904447362404
-10182.018703699112,1680.0,-3144.0,16388.0,138.0,-37.0,487.0,0.7080693317923255,0.2582756750397538,0.6188075747396605,0.2213790471177173
-10182.034302711487,1728.0,-3232.0,16392.0,224.0,199.0,668.0,0.6780776180739532,0.30368997769803113,0.6190181528234193,0.25455778870033696
-10182.049938440323,1716.0,-2860.0,16632.0,313.0,435.0,833.0,0.6255280881382016,0.3561866650186599,0.6272125727967804,0.2974055465836084
-10182.065562009811,1644.0,-2904.0,16500.0,382.0,595.0,869.0,0.5559510546720444,0.40719162335643994,0.6394763139401679,0.34085693565905945
-10182.081191539764,1788.0,-2708.0,16352.0,401.0,663.0,866.0,0.476552297710302,0.45290638597096095,0.6494075694538144,0.38215641016453433
-10182.096774816513,1436.0,-2412.0,16372.0,402.0,687.0,655.0,0.3983192771431882,0.4818632269735104,0.662771338932616,0.41216954792448085
-10182.11236333847,1268.0,-2276.0,16172.0,373.0,669.0,412.0,0.3282089832026511,0.49315119341386476,0.6801206335632858,0.43187577795129656
-10182.128007888794,1248.0,-2104.0,16268.0,363.0,665.0,212.0,0.26452731423063924,0.4898889378571742,0.702037518132791,0.4440466774169642
-10182.14357495308,1136.0,-2188.0,16244.0,306.0,716.0,129.0,0.20211443564417803,0.47595704282804346,0.7231639062717956,0.45787401427940544
-10182.159165859222,948.0,-2268.0,16292.0,262.0,593.0,3.0,0.1534506643572839,0.45631800439966747,0.7427495103591318,0.46534926381190606
-10182.17482495308,692.0,-2300.0,16324.0,138.0,357.0,-201.0,0.13289259135028786,0.4303084555257769,0.7605678378376246,0.46766521820018475
-10182.190457344055,388.0,-2200.0,16140.0,-37.0,18.0,-6.0,0.13334555093330905,0.42872654243188135,0.7594515507903529,0.47079279716540345
-10182.20604467392,400.0,-2224.0,15992.0,-155.0,-15.0,-340.0,0.1540459642925884,0.40476552249852793,0.7651879227866161,0.4763634699503773
-10182.221667528152,588.0,-2344.0,16080.0,-199.0,-546.0,-312.0,0.210190820768996,0.40326933631640083,0.759299158699267,0.46546584069077557
-10182.23729801178,516.0,-2600.0,16396.0,-199.0,-559.0,-55.0,0.2561621854271034,0.41810244858218226,0.7418505947403302,0.45741553573333343
-10182.252892494202,1064.0,-2860.0,16608.0,-174.0,-500.0,56.0,0.29237073437692007,0.4373117724292602,0.7208590233309851,0.45126492868045687
-10182.268516302109,1516.0,-3064.0,16500.0,-160.0,-324.0,284.0,0.3074649356141983,0.4634692292247276,0.6948430476142636,0.45591087518474044
-10182.28409576416,1524.0,-3016.0,16636.0,-19.0,-94.0,427.0,0.29676013170220905,0.4922179761259592,0.6737523781567167,0.46444872821305133
-10182.29970908165,1480.0,-2848.0,16500.0,48.0,112.0,538.0,0.2660231739332528,0.5199353260393823,0.6546803719715569,0.4798880475923353
-10182.3152987957,1300.0,-2588.0,16384.0,119.0,247.0,484.0,0.22599369129622804,0.5393498843249289,0.6426332206344582,0.4950263604192962
-10182.330862522125,1412.0,-2468.0,16536.0,184.0,345.0,382.0,0.1812855010705956,0.548849413153753,0.6386353195719433,0.5079811191152735
-10182.346442937851,1352.0,-2352.0,16400.0,233.0,477.0,190.0,0.13495648306137853,0.5412947218915006,0.6465872614941799,0.5202996108066619
-10182.362026691437,1508.0,-2144.0,16764.0,229.0,733.0,-56.0,0.08512221306521306,0.5063699237437745,0.666720648038416,0.5402104096089214
-10182.377603530884,1144.0,-1976.0,16648.0,114.0,851.0,-356.0,0.04718908954039854,0.44487721670643277,0.691834537553693,0.5667648758804251
-10182.39315700531,1196.0,-1784.0,16772.0,35.0,1061.0,-679.0,0.015251138124076934,0.349387013004744,0.7199070222467394,0.5995248095361657
-10182.408753871918,1052.0,-1868.0,16536.0,-2.0,1261.0,-778.0,-0.023032479065385403,0.2325379219918963,0.7389877244905224,0.631896164568288
-10182.424373865128,636.0,-2180.0,16272.0,27.0,1185.0,-1181.0,-0.03452363738534781,0.08996276444520572,0.7539924862907995,0.649777000279388
-10182.44000172615,660.0,-2560.0,16292.0,190.0,1087.0,-1337.0,-0.031378147962939085,-0.05959053537110344,0.7632260220385586,0.6426121841420365
-10182.455598115921,616.0,-2996.0,16104.0,442.0,895.0,-1303.0,-0.015464595981970765,-0.195811716658685,0.7708481994113284,0.605979926527774
-10182.471257686615,504.0,-3304.0,15992.0,615.0,708.0,-860.0,-0.007058664035732715,-0.29016658875870155,0.7828544993012491,0.5503565743715251
-10182.48685002327,408.0,-3328.0,15888.0,552.0,644.0,-346.0,-0.020395710729200982,-0.3439809952601187,0.7976248981561472,0.495030919968748
-10182.502447843552,244.0,-3408.0,15672.0,396.0,586.0,300.0,-0.06212888824869992,-0.3483277740255017,0.8208265451978743,0.44838771814796824
-10182.518068313599,188.0,-3312.0,15768.0,39.0,528.0,919.0,-0.13417829926512198,-0.30205506162509393,0.8437979763905173,0.42280479986897973
-10182.533668994904,-28.0,-2912.0,15756.0,-312.0,150.0,1348.0,-0.20173998974096954,-0.2031409577599138,0.8597189405096608,0.4229870815387211
-10182.549272537231,-68.0,-2640.0,15788.0,-515.0,-422.0,1586.0,-0.23515722265350308,-0.0587934304974232,0.86651031890434,0.4363533893491998
-10182.564883708954,204.0,-2348.0,15936.0,-427.0,-987.0,1408.0,-0.21381977235951402,0.09297218086868136,0.8673802134102904,0.43964627135569584
-10182.580488443375,504.0,-2056.0,16240.0,-136.0,-1135.0,1064.0,-0.16611449680259505,0.21762186436265385,0.8666566024578534,0.4170767693357588
-10182.596096515656,812.0,-1900.0,16408.0,269.0,-849.0,673.0,-0.13091134925048775,0.2941517646997707,0.8718171415447098,0.36915014515809014
-10182.611727952957,1148.0,-1992.0,16716.0,451.0,-517.0,312.0,-0.11298631236513462,0.32868976961864854,0.8823174908548659,0.3173530745049457
-10182.62736916542,1236.0,-2012.0,16796.0,549.0,-235.0,72.0,-0.1125064256082255,0.3348677016899052,0.8965271457161715,0.26729198183970293
-10182.642942905426,1264.0,-2008.0,16856.0,463.0,11.0,-221.0,-0.12165118154021846,0.31245341539896804,0.9127546342804131,0.23335130347829264
-10182.658555984497,1256.0,-2100.0,16640.0,312.0,167.0,-545.0,-0.13218254599503682,0.2618918584783374,0.9306946052069837,0.218513113646869
-10182.67415714264,1352.0,-2284.0,16432.0,150.0,275.0,-795.0,-0.14242516468660446,0.1897988377802302,0.9459189510257136,0.22119857985909613
-10182.68976521492,1380.0,-2504.0,16468.0,116.0,452.0,-912.0,-0.1634405608752075,0.10390806891701124,0.9538312386180473,0.22955666949818015
-10182.705359458923,1364.0,-2684.0,16276.0,172.0,714.0,-963.0,-0.2040517741656129,0.0069264995031083736,0.9505151602705991,0.23417050873296721
-10182.720984220505,1292.0,-2572.0,16136.0,176.0,859.0,-991.0,-0.2535298997083607,-0.09535782292350216,0.9331894326577951,0.23619262972620714
-10182.736581087112,780.0,-3052.0,16332.0,202.0,790.0,-902.0,-0.2959870391221993,-0.18853021880028645,0.9072466058343436,0.23184396794579967
-10182.75217461586,820.0,-3236.0,16004.0,316.0,581.0,-803.0,-0.3192841406747401,-0.27092476845978103,0.8817662850762684,0.2171304351107963
-10182.767795085907,628.0,-3172.0,16092.0,374.0,376.0,-547.0,-0.3283386501636176,-0.3298399510461795,0.8635117383231922,0.19428539646778992
-10182.78341293335,636.0,-3168.0,16104.0,426.0,232.0,-336.0,-0.3274797654456624,-0.37080854600758695,0.8532638388716053,0.16492072855006618
-10182.799005508423,584.0,-2872.0,16188.0,391.0,179.0,-236.0,-0.32451217626613627,-0.4017615958050244,0.8453460644711043,0.13663637463879078
-10182.814682245255,616.0,-2744.0,16136.0,305.0,180.0,-230.0,-0.3241850197973955,-0.42921797418991026,0.8352365846289511,0.11426220402494047
-10182.830316781998,780.0,-2532.0,16576.0,189.0,217.0,-355.0,-0.3291733779112379,-0.46223495825365174,0.8170153157071871,0.1023215741798151
-10182.845924139023,780.0,-2140.0,16792.0,78.0,295.0,-467.0,-0.3425403463547534,-0.4998131419340332,0.7894408761506827,0.0981633196852987
-10182.861535072327,960.0,-2020.0,16688.0,71.0,420.0,-680.0,-0.36172735990146976,-0.5510318026425601,0.7459776786550152,0.09505036835109022
-10182.877141952515,1024.0,-2048.0,16584.0,52.0,443.0,-784.0,-0.3804480929353329,-0.605511861204851,0.6925485826621077,0.09482138564064232
-10182.892742395401,1008.0,-2388.0,16164.0,114.0,431.0,-844.0,-0.3921913487021653,-0.6615775632882891,0.6323593816922556,0.09285841987937644
-10182.908306598663,940.0,-2752.0,15900.0,158.0,291.0,-752.0,-0.3920846699880845,-0.7090145470360223,0.5787476643365297,0.09283924103874677
-10182.92436170578,836.0,-3128.0,15776.0,240.0,111.0,-746.0,-0.37595142831340006,-0.7539997094692444,0.5294485581824463,0.09914225087185553
-10182.940065860748,880.0,-3320.0,15912.0,282.0,-80.0,-510.0,-0.34887072021818866,-0.7850806251799609,0.5002795135049247,0.10797240809003043
-10182.955661058426,908.0,-3368.0,16100.0,220.0,-72.0,160.0,-0.3321032170973136,-0.7838618095180013,0.5153496808082649,0.09840133771244523
-10182.971283197403,892.0,-3264.0,16220.0,210.0,-124.0,516.0,-0.3162393332194769,-0.7647081205945516,0.5553625570620649,0.08238085114354063
-10182.986890077591,852.0,-3056.0,16364.0,243.0,-132.0,520.0,-0.29700842522871806,-0.7442613523981182,0.594676121308878,0.06497188172363047
-10183.002469539642,884.0,-2856.0,16456.0,262.0,-27.0,970.0,-0.2830394900021789,-0.6978534483104208,0.6573527661002327,0.027866694833326405
-10183.01806640625,840.0,-2476.0,16592.0,321.0,20.0,1041.0,-0.2660044748348827,-0.6431836071845001,0.717811233616871,-0.017421243077883636
-10183.033658027649,736.0,-2396.0,16300.0,305.0,-38.0,1043.0,-0.24385454730328962,-0.5823407770516393,0.7733091316943432,-0.058370934381259156
-10183.049332141876,504.0,-2164.0,16232.0,254.0,-98.0,970.0,-0.21857564203641233,-0.5207477656535123,0.8202390338832771,-0.09085362166404184
-10183.064925909042,464.0,-2104.0,16236.0,239.0,-150.0,891.0,-0.18930680992596616,-0.46115993010835304,0.8588490620469236,-0.11778259293814441
-10183.080517053604,372.0,-1824.0,16320.0,211.0,-221.0,654.0,-0.15723539773150255,-0.4170534540861265,0.8848981163902048,-0.13527294535166695
-10183.096093654633,380.0,-2100.0,16228.0,196.0,-340.0,756.0,-0.11461455360555227,-0.3643486929740392,0.9122493746359126,-0.14803584872015202
-10183.111720323563,764.0,-2124.0,16580.0,155.0,-411.0,355.0,-0.07229746776997016,-0.34252055715220964,0.9245208793322751,-0.15071127283938354
-10183.127334594727,540.0,-2168.0,16236.0,141.0,-436.0,233.0,-0.02980864027835496,-0.3300069763798715,0.931441835162726,-0.15040926904304602
-10183.14293050766,664.0,-2224.0,16308.0,63.0,-483.0,102.0,0.012602302376635293,-0.32790762471874313,0.9339243302498269,-0.14178546115004761
-10183.158514976501,664.0,-2256.0,16248.0,44.0,-493.0,58.0,0.054723399774148064,-0.3289199798877666,0.9336100543962458,-0.13110782843914795
-10183.174127101898,752.0,-2344.0,16304.0,12.0,-552.0,87.0,0.10094056697935852,-0.32769900232437615,0.9322199407854848,-0.11571667042998413
-10183.189705848694,716.0,-2396.0,16312.0,-33.0,-553.0,53.0,0.1453795296431689,-0.32887431860366995,0.9280963812188235,-0.09666220612124865
-10183.205347537994,796.0,-2484.0,16368.0,-68.0,-537.0,76.0,0.18738603053584846,-0.32773786993046433,0.9229799312091902,-0.07471553224422998
-10183.220955610275,860.0,-2460.0,16340.0,-91.0,-545.0,67.0,0.22889123125572072,-0.32699661123109813,0.9154864864903774,-0.050660769349885074
-10183.236532211304,844.0,-2608.0,16144.0,-77.0,-502.0,33.0,0.26673173544049794,-0.3277940306813192,0.905833502418092,-0.02951136485436037
-10183.252099752426,876.0,-2428.0,16444.0,-83.0,-487.0,-44.0,0.3025121023380336,-0.33414621730218635,0.8925983494948632,-0.010045888746604212
-10183.267722606659,932.0,-2432.0,16308.0,-43.0,-442.0,-99.0,0.3353951534549166,-0.3431108317343543,0.8773667069303844,0.003565074423497915
-10183.2833173275,984.0,-2416.0,16176.0,-37.0,-384.0,-114.0,0.3635620768368979,-0.352585519201525,0.8621453725406075,0.014540445049906073
-10183.298907995224,920.0,-2448.0,16324.0,33.0,-323.0,-115.0,0.3889154140739421,-0.3596164033920575,0.8479887359621604,0.018328851255674735
-10183.314493179321,880.0,-2384.0,16356.0,17.0,-389.0,-56.0,0.41815001611377844,-0.36234284129466,0.8325322687783872,0.027354173891216294
-10183.330148220062,896.0,-2496.0,16412.0,40.0,-365.0,-51.0,0.445896839281339,-0.36352019764709065,0.8172307283826836,0.034102950145707335
-10183.345758199692,816.0,-2524.0,16420.0,30.0,-297.0,48.0,0.46780231391641947,-0.35791072787419675,0.8069646269957765,0.04323189499170251
-10183.36138176918,968.0,-2560.0,16516.0,30.0,-269.0,80.0,0.4873132464067771,-0.3499194174032665,0.7983094352675069,0.05276596216805637
-10183.376949071884,928.0,-2784.0,16588.0,35.0,-152.0,187.0,0.49807884747336356,-0.33461371625285097,0.797492536168242,0.0629029200515166
-10183.392535924911,952.0,-2436.0,16480.0,254.0,-65.0,158.0,0.5090526002465702,-0.31209206809554496,0.8003447832966782,0.05396497997632005
-10183.408110618591,984.0,-2340.0,16336.0,45.0,-73.0,158.0,0.5146510230344519,-0.29866349829032085,0.8014713058004228,0.059817934243375455
-10183.423768043518,844.0,-2344.0,16292.0,53.0,-3.0,85.0,0.51586049019755,-0.29029961730545223,0.8037500189186788,0.05999994944726907
-10183.439342975616,912.0,-2176.0,16320.0,122.0,-21.0,48.0,0.5202200452106729,-0.28129987546725116,0.8045569039369938,0.0541264533332202
-10183.454919576645,888.0,-2276.0,16380.0,143.0,-43.0,42.0,0.5265862055036934,-0.27161938555154025,0.804187420332229,0.0470369062037526
-10183.470515966415,772.0,-2328.0,16264.0,133.0,-70.0,7.0,0.5346613733569623,-0.26469557773505653,0.8015607364599191,0.03967181283208194
-10183.486153841019,784.0,-2352.0,16388.0,91.0,-130.0,-25.0,0.5459763998429167,-0.2617132070500799,0.7950986343628408,0.035130182243694026
-10183.501774072647,904.0,-2420.0,16412.0,79.0,-129.0,-51.0,0.5569213681716273,-0.26105828764299954,0.7878946959041006,0.03015142273479988
-10183.51736330986,924.0,-2456.0,16572.0,49.0,-162.0,-43.0,0.5693126931107668,-0.26116767638135596,0.7790184145905795,0.028369208753667736
-10183.532988786697,892.0,-2376.0,16328.0,34.0,-100.0,-90.0,0.5771562161431198,-0.2653211256237786,0.7719627416963334,0.023852209494455975
-10183.54858827591,940.0,-2528.0,16476.0,61.0,-71.0,-20.0,0.5834634662660849,-0.2634282421328864,0.7679590973237403,0.020365893480235906
-10183.564171075821,888.0,-2392.0,16568.0,61.0,-41.0,-33.0,0.5877485313525456,-0.2624430706248513,0.7651367310336284,0.015526796098941748
-10183.579775810242,860.0,-2312.0,16500.0,96.0,34.0,-29.0,0.5877816484471233,-0.25947805447413896,0.7662487478199154,0.006835894931157786
-10183.595362663269,832.0,-2208.0,16516.0,131.0,81.0,-122.0,0.5854081468769934,-0.2609151972185176,0.7675414775067718,-0.010032035545601335
-10183.610948562622,848.0,-2232.0,16396.0,165.0,132.0,-137.0,0.5801520620447556,-0.26147233358280364,0.7707713211671786,-0.03110263882989963
-10183.626588582993,540.0,-2276.0,16164.0,123.0,103.0,-219.0,0.5753633665701916,-0.2696112934192429,0.7703741714375305,-0.05282407454709188
-10183.642172574997,764.0,-2072.0,16196.0,172.0,36.0,-490.0,0.5742262563074045,-0.2934428319020454,0.7590096191352341,-0.0897769961219337
-10183.657786130905,768.0,-2352.0,16096.0,196.0,-49.0,-10.0,0.5824116849290332,-0.28460590117874934,0.7545778187962661,-0.1020216920709801
-10183.67336177826,812.0,-2500.0,16160.0,233.0,-131.0,-267.0,0.5942155834314713,-0.291341111370952,0.7387378017172996,-0.12765052896963072
-10183.688935279846,988.0,-2812.0,16300.0,332.0,-190.0,-7.0,0.6145780940187748,-0.27651889313405004,0.7245255409932945,-0.1445469077515794
-10183.704506874084,1008.0,-2728.0,16280.0,329.0,-209.0,-139.0,0.6336593708930525,-0.27010426798760334,0.7052641337242556,-0.1676961173565967
-10183.720102787018,852.0,-2620.0,16456.0,311.0,-177.0,-61.0,0.6507603542225798,-0.25909880635319454,0.6890473069118601,-0.1859908028800487
-10183.735751390457,872.0,-2604.0,16468.0,304.0,-179.0,50.0,0.668982905669598,-0.24159130237244283,0.6746513331090589,-0.19733497732033828
-10183.751351118088,920.0,-2532.0,16620.0,248.0,-165.0,77.0,0.6851029319174937,-0.22531499122157259,0.6620254458147917,-0.2039348829960258
-10183.766935825348,892.0,-2516.0,16452.0,231.0,-144.0,154.0,0.7005432518631982,-0.20506824432714402,0.6519773723367658,-0.20521128964646296
-10183.782550096512,852.0,-2528.0,16620.0,227.0,-179.0,181.0,0.7178139016484343,-0.18399269979719135,0.639804841565928,-0.20381279089004792
-10183.798186540604,840.0,-2500.0,16608.0,195.0,-194.0,207.0,0.7352282575157091,-0.16357515911388584,0.6270976799303808,-0.19857259754864165
-10183.813791513443,704.0,-2508.0,16288.0,154.0,-181.0,258.0,0.7515534464888622,-0.14262609610898008,0.6160764621272885,-0.18781641725937753
-10183.829405784607,812.0,-2396.0,16240.0,143.0,-164.0,311.0,0.7669308947416109,-0.11913334791784087,0.6063759946035958,-0.17300982999014503
-10183.844980716705,792.0,-2456.0,16252.0,96.0,-201.0,309.0,0.7829026298665808,-0.09932670936674588,0.5942128930575474,-0.15526981251532923
-10183.860543251038,532.0,-2484.0,16204.0,107.0,-219.0,301.0,0.7989143918275751,-0.0793237186155608,0.5799257524748944,-0.1383100278801324
-10183.87611746788,812.0,-2448.0,16368.0,137.0,-217.0,228.0,0.8133370839189172,-0.060824650355029035,0.5643092233998399,-0.1278211649819016
-10183.891736984253,840.0,-2428.0,16404.0,141.0,-245.0,296.0,0.8290292426344745,-0.03895151906772462,0.5464032119878981,-0.1124136288380307
-10183.907297372818,832.0,-2468.0,16256.0,153.0,-226.0,267.0,0.8425825362615297,-0.017369558178957856,0.5289925605334416,-0.09959838822003671
-10183.92306804657,836.0,-2432.0,16324.0,169.0,-198.0,310.0,0.8542457291051495,0.007624529317638298,0.5129356723988029,-0.08427987208749277
-10183.938686847687,876.0,-2436.0,16388.0,167.0,-189.0,269.0,0.8642303748523773,0.030681725542158884,0.4969979791282714,-0.07181573394938866
-10183.954272270203,836.0,-2404.0,16288.0,140.0,-181.0,255.0,0.8730178516350403,0.05110547294923833,0.4813842839414023,-0.059137403860812024
-10183.969856739044,812.0,-2436.0,16360.0,162.0,-206.0,235.0,0.8818493086063844,0.07217553197327878,0.46339583820132674,-0.04895698757588828
-10183.98550271988,800.0,-2456.0,16392.0,88.0,-238.0,279.0,0.8917308951803906,0.08910623456356556,0.44251201689040864,-0.032545421341024706
-10184.001091957092,888.0,-2392.0,16288.0,107.0,-277.0,367.0,0.9019737083977839,0.1106571112288828,0.41724428281953146,-0.010278207433341648
-10184.016709804535,1020.0,-2440.0,16140.0,91.0,-267.0,295.0,0.9106030626073078,0.1281581979809919,0.39284612754807496,0.007032690163638698
-10184.032331705093,768.0,-2396.0,16392.0,77.0,-236.0,327.0,0.9171412381483954,0.14544272538679745,0.3700411614833181,0.02771103981747481
-10184.047949552536,784.0,-2368.0,16484.0,29.0,-247.0,508.0,0.9224936504082031,0.16445676158257896,0.3432720474003018,0.06421635305686285
-10184.063527584076,844.0,-2380.0,16436.0,20.0,-231.0,214.0,0.927669492164397,0.1735804801948719,0.32139276711342274,0.07749722220792628
-10184.07909488678,804.0,-2336.0,16260.0,6.0,-134.0,189.0,0.9299612119879309,0.18009878196208165,0.30746030292552395,0.09057999259581796
-10184.094664096832,784.0,-2300.0,16484.0,-36.0,-143.0,97.0,0.9335772406082369,0.18074254667859802,0.2938126689359329,0.09715854677375965
-10184.110238552094,844.0,-2376.0,16376.0,28.0,-157.0,34.0,0.9368676214175669,0.1850557287479292,0.2804960045030942,0.09672346486123988
-10184.125830411911,920.0,-2352.0,16388.0,-5.0,-92.0,-82.0,0.9399265855468975,0.18324598740872122,0.27404421331739826,0.08864925847406845
-10184.141424894333,888.0,-2416.0,16412.0,41.0,-28.0,-19.0,0.9401662163864357,0.18620650671061728,0.27217097520219113,0.08565969111391106
-10184.15701174736,864.0,-2528.0,16364.0,36.0,-29.0,-66.0,0.9408288291525934,0.18763833112131906,0.2709348980581944,0.07891293901232085
-10184.172632932663,816.0,-2436.0,16392.0,69.0,3.0,-43.0,0.9399899252274518,0.19209497544822834,0.2721631619528846,0.07379481116069057
-10184.188246488571,820.0,-2480.0,16324.0,23.0,-245.0,-87.0,0.9458248260020797,0.1932741294460663,0.25341391083772075,0.06198305574052145
-10184.203863620758,888.0,-2400.0,16292.0,53.0,-26.0,-143.0,0.9462801095274193,0.1944323804310595,0.2537558291156431,0.04855906653262487
-10184.219449281693,856.0,-2416.0,16320.0,103.0,-27.0,-87.0,0.9455186562987765,0.20093457848356203,0.2532346606226575,0.03862605881936405
-10184.235091686249,904.0,-2432.0,16312.0,62.0,-34.0,-110.0,0.9455796822776343,0.20354176816333117,0.25236777857142545,0.027573853840132945
-10184.250687122345,944.0,-2392.0,16148.0,72.0,-38.0,-75.0,0.9453618314558065,0.20773377574254476,0.2505439758407285,0.01911549665035403
-10184.26625418663,900.0,-2520.0,16400.0,103.0,-38.0,-43.0,0.94443550952834,0.21516097417196148,0.2481695475307845,0.012617417076529568
-10184.281814098358,864.0,-2508.0,16356.0,72.0,-35.0,-87.0,0.9439755156672456,0.21905235838920356,0.24681150660250378,0.003220297111763833
-10184.297576904297,948.0,-2420.0,16280.0,51.0,-45.0,-144.0,0.9440072452628839,0.2199576625218676,0.24567531554505306,-0.010610698418862101
-10184.313209295273,896.0,-2252.0,16260.0,56.0,-13.0,-212.0,0.9429297859364358,0.21978737816753763,0.24840438088958286,-0.029532875697604884
-10184.328801870346,1016.0,-2248.0,16376.0,16.0,-13.0,-184.0,0.9423954023188665,0.2168689778628913,0.2506166273407695,-0.045277568721214724
-10184.344390392303,980.0,-2352.0,16328.0,26.0,-7.0,-503.0,0.9392485793273984,0.20759177830739078,0.25903581725402974,-0.08728233034340976
-10184.360070228577,960.0,-2400.0,16348.0,15.0,-23.0,-1.0,0.9395732828028456,0.20844158250337017,0.2568767519276651,-0.08813902226407697
-10184.375658988953,932.0,-2400.0,16316.0,69.0,5.0,-306.0,0.9355883523181568,0.20701733301298392,0.2620494880665834,-0.11466614427471356
-10184.391293048859,992.0,-2808.0,16468.0,102.0,-232.0,-300.0,0.9355825384265773,0.20585644418215152,0.2471860915598133,-0.14562786244172582
-10184.406867265701,1052.0,-2592.0,16308.0,122.0,75.0,-344.0,0.9269954803732569,0.20904939594141053,0.2576329605547873,-0.1749370945793419
-10184.42246556282,1044.0,-2488.0,16284.0,128.0,98.0,-324.0,0.9171385932331882,0.21332487943884637,0.2692140103846743,-0.20217099996599486
-10184.438056468964,1012.0,-2476.0,16176.0,99.0,138.0,-332.0,0.9058021475613227,0.21558861070140417,0.2843759685640996,-0.22841700661807998
-10184.453669548035,940.0,-2452.0,16240.0,94.0,141.0,-322.0,0.8937515532877214,0.21755467966087605,0.29938934242329246,-0.25346428544626814
-10184.469331026077,936.0,-2308.0,16364.0,88.0,91.0,-251.0,0.8839719554665579,0.21964104063429493,0.3090448912911264,-0.27357384813715235
-10184.484914302826,900.0,-2312.0,16284.0,71.0,82.0,-288.0,0.8732948002185915,0.21906625499781288,0.3189142894098159,-0.296074051282168
-10184.500534534454,928.0,-2520.0,16324.0,18.0,59.0,-262.0,0.8643851455525886,0.21444910728212255,0.32769939047790836,-0.3153775673923855
-10184.516124010086,944.0,-2436.0,16372.0,18.0,96.0,-312.0,0.8524529280761297,0.20928429625912737,0.33997986538121533,-0.33754670771483664
-10184.531740427017,888.0,-2508.0,16304.0,-18.0,76.0,-282.0,0.842028001500278,0.2015982579876261,0.3510327241282788,-0.35654314417315913
-10184.547318220139,860.0,-2532.0,16180.0,17.0,-252.0,-416.0,0.8358278269652955,0.18194693174896773,0.338823513637299,-0.39177261811423636
-10184.5629093647,844.0,-2436.0,16316.0,-2.0,-4.0,-397.0,0.8219864502592024,0.16967308037191206,0.34451629719115073,-0.4205446972166947
-10184.57849764824,952.0,-2480.0,16352.0,-50.0,-39.0,-408.0,0.8084726947715337,0.15214244954936085,0.34918292647234994,-0.44866007256516605
-10184.594081878662,956.0,-2596.0,16388.0,-58.0,-25.0,-405.0,0.793708038354235,0.1345012889901175,0.35464966140268095,-0.47556342455957756
-10184.609683275223,908.0,-2608.0,16284.0,-79.0,-249.0,-363.0,0.7867409831940206,0.10724093967060273,0.3444781878071598,-0.5008720239208486
-10184.62534403801,924.0,-2696.0,16272.0,-82.0,-25.0,-346.0,0.7728233528847839,0.08994115846422618,0.34920651063703173,-0.5222159191165493
-10184.640946149826,964.0,-2664.0,16324.0,-61.0,-77.0,-306.0,0.7614627564918618,0.0728421567949454,0.34884181034345296,-0.541459030791415
-10184.65654706955,972.0,-2620.0,16252.0,-35.0,-121.0,-186.0,0.7564918618155019,0.05901240428168632,0.3433475305943502,-0.5534889993329335
-10184.67213177681,1052.0,-2596.0,16228.0,-13.0,-170.0,-220.0,0.7508586523266213,0.04323027043288824,0.33355597478703025,-0.568403764614929
-10184.687749624252,992.0,-2600.0,16412.0,-22.0,-187.0,-113.0,0.750694261575962,0.029117161068990156,0.3225217047347091,-0.5758385768105683
-10184.703343868256,1076.0,-2676.0,16196.0,37.0,-203.0,29.0,0.7576957916217298,0.02205447097258132,0.306992794702713,-0.5754703395219058
-10184.718923330307,1100.0,-2648.0,16572.0,92.0,-52.0,126.0,0.7652114380465038,0.028804339348850846,0.29841009369578525,-0.5697132446221965
-10184.73462677002,1168.0,-2616.0,16744.0,184.0,106.0,300.0,0.7765581166145364,0.054047042987926536,0.29518583338450377,-0.5539871229852199
-10184.750220298767,1312.0,-2576.0,16416.0,233.0,243.0,422.0,0.788784686615255,0.0922364785483034,0.29783163994654943,-0.5297239511604427
-10184.76581120491,1368.0,-2484.0,16576.0,238.0,221.0,540.0,0.8049365703946637,0.13253718267746345,0.2970253545197614,-0.49627306155140755
-10184.78140115738,1312.0,-2612.0,16252.0,194.0,69.0,705.0,0.8298033842524284,0.16693045480628427,0.28452910644369683,-0.4501152678234045
-10184.797004699707,1332.0,-2680.0,15968.0,73.0,-74.0,778.0,0.8591967988774462,0.1880140907616398,0.2641623229377253,-0.3957901332953715
-10184.81258893013,1332.0,-2628.0,15924.0,25.0,-238.0,865.0,0.8914935572433638,0.20080663233672685,0.2303742645150272,-0.33443030970938653
-10184.828188419342,1412.0,-2720.0,15788.0,-69.0,-329.0,873.0,0.9218007285169167,0.20250635694576366,0.19068806082545933,-0.270023435577104
-10184.843844652176,1564.0,-2456.0,16100.0,-110.0,-500.0,797.0,0.9476797073743988,0.19425207818459636,0.13833070006440037,-0.21221196896365743
-10184.859442472458,1624.0,-2444.0,16052.0,-119.0,-519.0,779.0,0.9671742563913204,0.18333394964786148,0.08396566156076982,-0.15463630996332683
-10184.875031471252,1772.0,-2328.0,15912.0,-207.0,-490.0,798.0,0.9814641430448482,0.1642505560298274,0.03238516705780214,-0.09327964255813104
-10184.890619754791,1840.0,-2304.0,16248.0,-260.0,-441.0,792.0,0.9895793125190401,0.13986214358566496,-0.0146775900513414,-0.030918172265701118
-10184.906217813492,1736.0,-2416.0,16244.0,-361.0,-453.0,1022.0,0.9909977134664343,0.10528929760050514,-0.06501384192113736,0.051096928222198815
-10184.922389030457,1780.0,-2524.0,16116.0,-328.0,-450.0,712.0,0.985245658427189,0.074336880251241,-0.11158172514411885,0.1063698237224718
-10184.93806886673,1720.0,-2460.0,16060.0,-324.0,-558.0,626.0,0.9731392311629836,0.04512057069923525,-0.16601572263656925,0.15298022979702328
-10184.953659296036,1712.0,-2424.0,16264.0,-310.0,-594.0,619.0,0.9545147158498183,0.017470365800284948,-0.22212718432974016,0.19813116243207826
-10184.969336509705,1472.0,-2532.0,16368.0,-284.0,-552.0,684.0,0.9294670622294747,-0.010008321855329043,-0.2729205857869575,0.24800235397643636
-10184.984929561615,1096.0,-2576.0,16564.0,-271.0,-487.0,788.0,0.8974702540308692,-0.04015038115916563,-0.31621797034060994,0.3048627318256625
-10185.000534296036,996.0,-2724.0,16628.0,-293.0,-413.0,856.0,0.8591184218076872,-0.07548360265962875,-0.3517846711962518,0.3639578384257399
-10185.016125679016,732.0,-2544.0,16172.0,-6.0,-402.0,1019.0,0.8107510106382471,-0.09401446552416638,-0.373458194549359,0.4408775974635132
-10185.031789779663,552.0,-2176.0,15644.0,-264.0,-504.0,638.0,0.7655649657245972,-0.11375505589017566,-0.4126705113113766,0.4802844153296315
-10185.047411680222,332.0,-1936.0,15108.0,-229.0,-847.0,348.0,0.7158608428568224,-0.10569113133714722,-0.47360078027942293,0.5020706517410823
-10185.062996387482,304.0,-1608.0,14956.0,-158.0,-1332.0,73.0,0.6517721223840961,-0.05977022315744886,-0.5590698558492523,0.508980861317335
-10185.078649759293,276.0,-1656.0,15228.0,-88.0,-1584.0,-200.0,0.5773964811247351,0.015216718305313752,-0.6477114283096318,0.4968416857570293
-10185.094231367111,492.0,-1844.0,15908.0,131.0,-2166.0,-268.0,0.4582008585216897,0.12858055190219692,-0.7374199601180855,0.4793024278490088
-10185.109806060791,948.0,-2116.0,17008.0,280.0,-2202.0,-875.0,0.34264387182862843,0.2821636649256723,-0.7869945932381477,0.4285071218870481
-10185.125416994095,1808.0,-2212.0,18104.0,550.0,-2013.0,-1342.0,0.23559953615558207,0.4555284072173743,-0.775549207839007,0.36811703981419436
-10185.141013145447,2520.0,-1980.0,17788.0,839.0,-803.0,-1682.0,0.19882490711433684,0.6029186175796908,-0.6873316725483181,0.3528922906478709
-10185.156636238098,2560.0,-2092.0,16756.0,987.0,-123.0,-1736.0,0.19013071333420847,0.7171176278031092,-0.5592037168346736,0.3699781382992141
-10185.172198057175,1876.0,-2636.0,15524.0,1263.0,-245.0,-1618.0,0.1489808111058451,0.8118332852426962,-0.41448084638398813,0.3833237050784995
-10185.187930107117,1324.0,-3520.0,14768.0,1171.0,-766.0,-1430.0,0.08485283319384995,0.8909192541688693,-0.2796779390407634,0.34762498423455296
-10185.203528881073,1288.0,-4428.0,14528.0,1356.0,-1381.0,-1026.0,-0.02278493761174834,0.9506744928271803,-0.165959983769528,0.26106730759141433
-10185.219130277634,1748.0,-5724.0,14916.0,1527.0,-1884.0,-409.0,-0.16378386802129208,0.9742852102007687,-0.09139298041740024,0.12486191128784109
-10185.23480272293,2348.0,-6060.0,16236.0,1644.0,-1752.0,376.0,-0.31472167380247007,0.9457842707480035,-0.07865048956081774,-0.016015047189515533
-10185.250443696976,2896.0,-5844.0,17452.0,1516.0,-1059.0,1256.0,-0.43722286270495464,0.8774487318218926,-0.15248747041461172,-0.12516973563441566
-10185.266037225723,3220.0,-4484.0,18272.0,1101.0,-57.0,1895.0,-0.49274698934169053,0.7951068233896325,-0.30199038829185826,-0.1838677494104947
-10185.281609773636,3300.0,-2828.0,17592.0,470.0,924.0,1977.0,-0.4606992532223426,0.7239478403634821,-0.4774886829747133,-0.18883929714045183
-10185.297190189362,2632.0,-1720.0,16268.0,-156.0,1263.0,1779.0,-0.3624008841636673,0.6648546679653617,-0.6267889612475938,-0.18376470743922313
-10185.312762975693,1864.0,-1276.0,15028.0,-430.0,321.0,768.0,-0.3065955112877387,0.63943721196851,-0.6723553804924972,-0.21226748863388895
-10185.328377008438,1676.0,-1436.0,14320.0,-512.0,-575.0,54.0,-0.31010934308781724,0.6378572914843067,-0.6490021190959012,-0.2752571896226804
-10185.344049930573,1784.0,-1828.0,14264.0,-353.0,-1386.0,-455.0,-0.37673829898586,0.6344456999888833,-0.5727428253034705,-0.3570890139814647
-10185.359631538391,2172.0,-2740.0,14400.0,-213.0,-1546.0,-706.0,-0.45919913218447844,0.6216135668426369,-0.4708810794206794,-0.4254453426255977
-10185.375279903412,2760.0,-3116.0,14924.0,-163.0,-2112.0,-830.0,-0.5571777494294363,0.5725877183699613,-0.3286479245938272,-0.5036733087754407
-10185.39086818695,3244.0,-3780.0,15572.0,-212.0,-2354.0,-700.0,-0.6305332232379904,0.4882110882788958,-0.16595811975159752,-0.5801169624852914
-10185.406450271606,3732.0,-4224.0,15164.0,-289.0,-2307.0,-405.0,-0.658397082674913,0.3849261917565135,-0.006829831762196394,-0.6467599723414332
-10185.422044754028,3876.0,-4532.0,14984.0,-216.0,-2569.0,95.0,-0.6315635347797716,0.24588074549821073,0.1462616325448524,-0.7206092529068989
-10185.437641143799,3868.0,-4760.0,14616.0,-251.0,-3204.0,679.0,-0.5216182125811819,0.06401003335474299,0.3115867784376776,-0.7916633346545534
-10185.453226566315,3836.0,-4932.0,14344.0,312.0,-3355.0,1391.0,-0.3202646628655279,-0.13755070734232958,0.4143179119115023,-0.840744322905928
-10185.468802690506,3712.0,-5000.0,14088.0,688.0,-3803.0,1802.0,-0.039614552167701655,-0.347352985410867,0.4607069693538856,-0.8157975724231277
-10185.484391212463,3808.0,-4532.0,14444.0,706.0,-4040.0,2692.0,0.30883530815532856,-0.48641807467816855,0.46505858517529486,-0.6721151102435802
-10185.500008106232,3112.0,-4212.0,14496.0,818.0,-4199.0,3130.0,0.6332121540448111,-0.5296298894254446,0.3963064965743669,-0.40184040236152596
-10185.515585899353,3404.0,-3560.0,14532.0,933.0,-4563.0,3308.0,0.8504345183898109,-0.4685665919754773,0.23643031924202287,-0.03615498525365701
-10185.53122973442,4080.0,-3252.0,14684.0,1142.0,-4832.0,3287.0,0.8937846716374985,-0.2937619260081967,0.007482939048435163,0.3388169080742595
-10185.546810150146,4556.0,-2980.0,15072.0,1466.0,-4922.0,3294.0,0.7389582134945962,-0.027776209968567223,-0.2196209660330437,0.6363457174738979
-10185.562434196472,5188.0,-2804.0,16032.0,1544.0,-4829.0,3144.0,0.4218463547275215,0.2483276926849723,-0.3880504313577492,0.7808942775894346
-10185.578016281128,5584.0,-2596.0,16620.0,1461.0,-3978.0,3054.0,0.04306630992817909,0.4274114666989012,-0.45583421217685666,0.7795382621094162
-10185.593600034714,5484.0,-2808.0,16128.0,1253.0,-3431.0,2833.0,-0.3087731296541921,0.5126306747573443,-0.45353003163206584,0.6604388360092118
-10185.609178304672,4984.0,-3080.0,16180.0,1012.0,-3211.0,2540.0,-0.5889996224596925,0.5347586140918666,-0.39620954836709116,0.45840011254321433
-10185.624764680862,4660.0,-3244.0,15780.0,356.0,-3086.0,2171.0,-0.7588417468273221,0.5361971011033089,-0.3081146592625021,0.2042479590792005
-10185.640377998352,4648.0,-3348.0,15508.0,197.0,-3681.0,1818.0,-0.8467155174972693,0.5080691699099603,-0.1371891224760373,-0.07821569977050917
-10185.656002521515,5016.0,-3348.0,15296.0,284.0,-3839.0,1571.0,-0.8409722867170483,0.4153921379543755,0.0705472132037792,-0.3394673407100787
-10185.671604156494,5192.0,-3496.0,15300.0,494.0,-3710.0,1326.0,-0.7528920841069346,0.26185839104613334,0.2647796827184833,-0.5426558876003705
-10185.687208652496,5568.0,-3628.0,15264.0,797.0,-3411.0,1323.0,-0.5985482148980307,0.07437577339941334,0.4000589001237573,-0.6900443139432348
-10185.702813148499,5024.0,-4092.0,15496.0,1141.0,-3186.0,1519.0,-0.3836954524718889,-0.11815634066694362,0.464002684219848,-0.7896318053050837
-10185.718400478363,4740.0,-4108.0,15600.0,1330.0,-2698.0,1563.0,-0.14674925626066623,-0.27360155785668144,0.4589464986954766,-0.8324511725383664
-10185.734129667282,4500.0,-4388.0,15748.0,1543.0,-2235.0,1813.0,0.10708408709979321,-0.36838127957643835,0.40256043057167523,-0.8311277464298596
-10185.74979519844,4484.0,-4432.0,15932.0,1720.0,-2185.0,2098.0,0.37445123673198,-0.41809001328137685,0.3106301418408331,-0.7671348819368161
-10185.765415430069,4952.0,-4192.0,16540.0,1918.0,-2015.0,2138.0,0.6141132330976472,-0.4132788671813625,0.18570418542243788,-0.6462038922756758
-10185.781044006348,5540.0,-4008.0,16796.0,1892.0,-1479.0,2286.0,0.8023826836374182,-0.3439504555071275,0.0787855021647588,-0.48132417122340887
-10185.796723365784,6352.0,-3868.0,16576.0,1595.0,-635.0,2626.0,0.9307148602590607,-0.23214264598990145,0.04431008870650136,-0.2791348363149725
-10185.812336206436,6188.0,-3952.0,16564.0,1207.0,198.0,2999.0,0.9887554010849604,-0.11313879619451113,0.08801190332540335,-0.04261777204425361
-10185.827968358994,5936.0,-4432.0,16840.0,782.0,1132.0,3299.0,0.9547505765843264,-0.015412602060075702,0.20529044989149267,0.21463834557921593
-10185.843595981598,5932.0,-4124.0,17464.0,1091.0,2251.0,3413.0,0.79929961745375,0.08858996304560596,0.39176257508670503,0.44698324884418306
-10185.859248399734,4996.0,-3064.0,17680.0,1440.0,3645.0,2736.0,0.5139573842656568,0.12955429505199106,0.6284210813844439,0.5693421082828777
-10185.874860048294,3984.0,-1732.0,18024.0,1727.0,4695.0,2081.0,0.12069904173461422,0.07941537154647668,0.8147401370098604,0.5615366855617135
-10185.890488147736,2232.0,-756.0,18684.0,1608.0,5402.0,1601.0,-0.3143874277691468,-0.04858769033775116,0.8362907416195053,0.4465619521296457
-10185.906126499176,1204.0,464.0,19056.0,1163.0,5528.0,801.0,-0.6662237857866306,-0.21260323516122867,0.6563435113004198,0.28312351867152397
-10185.921818256378,612.0,1432.0,19412.0,376.0,5012.0,-37.0,-0.865871389029178,-0.33004272819807196,0.3418881365614004,0.15636827460462882
-10185.937532186508,2008.0,1700.0,18216.0,-479.0,4501.0,-1682.0,-0.9132824222985847,-0.37348258037732,-0.049230275427249934,0.15492694812874055
-10185.953195810318,3448.0,696.0,16680.0,-976.0,3623.0,-2847.0,-0.8242203115937949,-0.30727640173389864,-0.41061656312384154,0.24007525691345138
-10185.968856096268,4532.0,-1816.0,15732.0,-732.0,2014.0,-3551.0,-0.6557191454031066,-0.15932191212626418,-0.626205349892253,0.39053270085176195
-10185.985958099365,6096.0,-4948.0,16492.0,56.0,135.0,-2767.0,-0.5377829141182205,-0.015365569451711001,-0.65160999073506,0.5347502749248422
-10186.00171160698,7216.0,-7444.0,18248.0,1412.0,868.0,-1052.0,-0.43115221888053484,-0.061366047210706265,-0.6187191775017339,0.6538566752704316
-10186.017378807068,6888.0,-8852.0,19924.0,2421.0,4018.0,931.0,-0.23469883878656522,-0.3986673851199946,-0.5782951789237847,0.6719787624228399
-10186.033331155777,5468.0,-7252.0,19864.0,2721.0,7599.0,2493.0,0.07836981207729332,-0.8257269914989517,-0.3924192675808418,0.3975427354340356
-10186.051352024078,2204.0,-3852.0,17968.0,2607.0,8988.0,2816.0,0.3625022542868989,-0.925288632462749,-0.028508857047451534,-0.10779752938718162
-10186.069411277771,-376.0,-500.0,16212.0,2304.0,7044.0,2971.0,0.48742323433385243,-0.650932204475179,0.3385595363940623,-0.47337437206216354
-10186.087437391281,-352.0,1840.0,15392.0,1632.0,4697.0,2585.0,0.49244398955694885,-0.2792893240256952,0.5549497971673564,-0.6095302398227801
-10186.105414628983,252.0,2372.0,14944.0,891.0,3395.0,1640.0,0.41399603296618737,0.018144786286512775,0.6568020701387588,-0.6299913428614058
-10186.123443841934,1036.0,1444.0,15220.0,604.0,2727.0,703.0,0.28649608618145483,0.2232943737919184,0.6991547975148042,-0.6158264238790153
-10186.140330314636,1400.0,140.0,16064.0,976.0,2450.0,-51.0,0.1123029486492355,0.36667220397647016,0.6908001716136907,-0.6129719940211139
-10186.155984401703,1436.0,-740.0,16880.0,1557.0,2581.0,-374.0,-0.10939782548970552,0.48083314703529545,0.6231672187073761,-0.6070372459897095
-10186.171573400497,1172.0,-1048.0,16900.0,2109.0,2760.0,-457.0,-0.3560212269294359,0.5565831610986702,0.4821333863931706,-0.5753359614017923
-10186.18721628189,960.0,-1040.0,16292.0,2463.0,2832.0,-294.0,-0.579217227634249,0.5793267014842055,0.2704169963630404,-0.5057297937012575
-10186.202809095383,872.0,-772.0,15888.0,2465.0,2687.0,172.0,-0.7239129201028796,0.5499912584390393,0.016193506273200153,-0.4161700014457354
-10186.218424081802,740.0,-268.0,15924.0,2408.0,2418.0,720.0,-0.7814556508756435,0.4654238372611169,-0.24742276825251291,-0.3339007205351988
-10186.234022140503,556.0,-52.0,15904.0,2206.0,2079.0,1219.0,-0.7604328443979105,0.3356793654712413,-0.48368624560667495,-0.27405997257652814
-10186.249603748322,352.0,120.0,16888.0,1936.0,2037.0,1412.0,-0.6726096494663474,0.1892034598667453,-0.6812732052102013,-0.21832345289003918
-10186.26516866684,92.0,344.0,17088.0,1646.0,1912.0,1352.0,-0.5437187438900465,0.04711907262895815,-0.8218860672269661,-0.16325750529579924
-10186.280750274658,-276.0,524.0,16988.0,1579.0,2160.0,1036.0,-0.36916971268226256,-0.06923885201067459,-0.9226314486119848,-0.08758375786919764
-10186.296345710754,-260.0,992.0,16612.0,1816.0,2294.0,427.0,-0.16482970922060303,-0.1400271039897324,-0.9758691771497731,0.03004873034797433
-10186.311976194382,-536.0,1144.0,15880.0,1968.0,2019.0,-17.0,0.030331302381945247,-0.16720335992479704,-0.9709876178768733,0.16824415132618667
-10186.32757139206,-872.0,1272.0,16096.0,2082.0,1648.0,-994.0,0.20870902263506783,-0.09866346779377662,-0.9227059890749245,0.3087389216132076
-10186.343262195587,-1004.0,1168.0,16452.0,2178.0,1327.0,-1376.0,0.3601189816596391,0.015596961539616847,-0.8256395844617018,0.43403954936049854
-10186.358843803406,-600.0,768.0,16816.0,1983.0,1036.0,-1376.0,0.47201905310062364,0.13436458168222626,-0.6978837995802706,0.5216343307171757
-10186.374452114105,-640.0,240.0,16572.0,1787.0,709.0,-1069.0,0.5332434643763312,0.2364893669532396,-0.5643410461883579,0.5841603980115515
-10186.390050888062,-764.0,-512.0,16528.0,839.0,451.0,-702.0,0.5709624110817016,0.28554400170152544,-0.4833706297169189,0.5990153441700123
-10186.405632257462,-864.0,-896.0,16200.0,309.0,227.0,-260.0,0.5860210427188232,0.29970727749808274,-0.4489183234217754,0.6043403215090093
-10186.421198368073,-936.0,-732.0,16212.0,97.0,252.0,117.0,0.5870604564232391,0.28659249360934264,-0.4336914982059002,0.6205936250839504
-10186.43685722351,-872.0,-96.0,16148.0,213.0,466.0,298.0,0.5825182406065852,0.2605310147856416,-0.4050368579052787,0.6547833484700045
-10186.452451705933,-820.0,300.0,16212.0,576.0,520.0,452.0,0.56031491284307,0.2432649755863892,-0.35469899301813207,0.7078544867771479
-10186.46808719635,-956.0,1004.0,16408.0,824.0,559.0,546.0,0.5238814526802277,0.2308750924024504,-0.28645063587356695,0.7682388615876207
-10186.483707427979,-1040.0,1276.0,16580.0,800.0,637.0,643.0,0.4779706957346835,0.2073761406826751,-0.21524188401910904,0.8259600968923173
-10186.499304533005,-1352.0,868.0,16580.0,679.0,535.0,611.0,0.429890127481513,0.18468935100365821,-0.1541732934626766,0.8702384256642818
-10186.51490354538,-1232.0,484.0,15980.0,415.0,203.0,627.0,0.3774678798678772,0.17578176472564405,-0.12466595395987998,0.9005982293904764
-10186.530491113663,-880.0,336.0,16004.0,303.0,-170.0,704.0,0.3149219994572777,0.19078249531420258,-0.11680245174686675,0.9223791850456284
-10186.54613661766,-472.0,324.0,16092.0,253.0,-313.0,861.0,0.23741417139977405,0.21318127846783885,-0.11880790623776119,0.9402515275950238
-10186.56173825264,-4.0,436.0,16228.0,326.0,-174.0,1040.0,0.14355420469455024,0.22216166023962944,-0.11432953775047096,0.9575829696855779
-10186.57735991478,-488.0,440.0,16244.0,481.0,165.0,1189.0,0.0362826987216696,0.20100739246176239,-0.09437875824918578,0.9743573492002496
-10186.592946767807,-324.0,548.0,15768.0,642.0,646.0,1316.0,-0.08078026677058561,0.13568572981327384,-0.06010179384430081,0.9856224964976242
-10186.608535766602,-764.0,304.0,15108.0,515.0,594.0,1336.0,-0.19689265653322155,0.07299664776172045,-0.03536600768239309,0.9770639778026059
-10186.624118804932,-1180.0,676.0,14676.0,755.0,241.0,1074.0,-0.2905744041501669,0.03561866746775785,0.018034650609450916,0.9560191303305556
-10186.63975596428,-992.0,828.0,14800.0,761.0,-728.0,652.0,-0.3441886773614162,0.07730663370026816,0.09738905906149528,0.9306305442748204
-10186.655361652374,-476.0,820.0,15516.0,800.0,-1115.0,351.0,-0.36585008305134464,0.14546446820123088,0.19184181164473726,0.8989941738004327
-10186.670958042145,100.0,812.0,16440.0,786.0,-1086.0,230.0,-0.373105633790205,0.2077837226843098,0.283080420185957,0.8587686454038721
-10186.686622858047,660.0,560.0,16988.0,785.0,-611.0,186.0,-0.3847336133161235,0.23156716290467877,0.3568659757270758,0.8191479544119972
-10186.702210903168,644.0,196.0,17008.0,675.0,-81.0,330.0,-0.4185881138209637,0.22436818710307713,0.40012769525216735,0.7837989123978644
-10186.717810869217,464.0,-116.0,16320.0,476.0,299.0,541.0,-0.4743196739519704,0.2048453926030851,0.4100429131756128,0.7516142769970787
-10186.733388900757,184.0,-132.0,15612.0,102.0,184.0,691.0,-0.527072968036599,0.21277146267737818,0.3957903671196691,0.7212990893731235
-10186.74896144867,-144.0,-4.0,15496.0,-222.0,-295.0,589.0,-0.5488955404817176,0.26132758525203026,0.3835596467983165,0.6952003856253077
-10186.76455783844,56.0,224.0,16060.0,-467.0,-920.0,288.0,-0.5227101687412138,0.3475450884823528,0.39086599827354035,0.6732089292039689
-10186.780121564865,536.0,412.0,16700.0,-584.0,-1063.0,-220.0,-0.45325503937124795,0.42657424123946847,0.409237151413648,0.6671725713024955
-10186.795740127563,1224.0,564.0,16988.0,-699.0,-706.0,-691.0,-0.3598273797013729,0.46794954762608965,0.41975666015677554,0.6894576302774603
-10186.811322450638,1312.0,1180.0,17008.0,-919.0,-61.0,-1093.0,-0.2523623932332258,0.45678688415694096,0.40776063401680324,0.7492597882510491
-10186.82689332962,1148.0,1172.0,16600.0,-1153.0,386.0,-1427.0,-0.12516244839662005,0.4007009031154817,0.37565235590321006,0.8262314780121661
-10186.84251666069,572.0,988.0,16040.0,-1399.0,447.0,-1674.0,0.029281975202980863,0.32268206396036736,0.3222720461624107,0.8894715171318205
-10186.858093738556,-56.0,544.0,15540.0,-1717.0,277.0,-2034.0,0.22179866158720085,0.2331371797153291,0.2403450076987126,0.9157983874340544
-10186.873688220978,-140.0,452.0,15536.0,-2154.0,-98.0,-2415.0,0.4433701020856102,0.1428265949583424,0.11089062829252556,0.8779104651990943
-10186.889344930649,8.0,332.0,14848.0,-2555.0,-617.0,-2878.0,0.6643131975167047,0.05976815323688953,-0.06916024592554822,0.7418440562862934
-10186.904935359955,136.0,228.0,15144.0,-2893.0,-1280.0,-3197.0,0.8179636930910333,-0.005564724911182228,-0.292050686434602,0.4955913913443397
-10186.92060828209,696.0,-148.0,15908.0,-3058.0,-1865.0,-3287.0,0.8388606507999636,-0.05469541679286896,-0.5144436745671862,0.1693190054870585
-10186.936289072037,1200.0,-292.0,16696.0,-3319.0,-1759.0,-3107.0,0.72700924518513,-0.12163633306990537,-0.6505343779526169,-0.18294038098368615
-10186.951935529709,1460.0,-1080.0,17552.0,-3002.0,-1353.0,-2858.0,0.535320110444988,-0.16023481539388176,-0.6716872205529152,-0.48640873864966094
-10186.96752500534,1592.0,-1388.0,17460.0,-3150.0,-1000.0,-2446.0,0.3095251617221766,-0.19432348428270485,-0.5823916843562322,-0.7261215350819726
-10186.98310804367,1068.0,-1268.0,16884.0,-3518.0,-849.0,-2116.0,0.06819772869076131,-0.22123117244512838,-0.392628304334347,-0.8900836212264052
-10186.998677492142,368.0,-956.0,16196.0,-3754.0,-988.0,-1964.0,-0.17829753667031573,-0.23645383082614863,-0.13516734800404737,-0.945531259313244
-10187.014274597168,-196.0,-776.0,15664.0,-3789.0,-1468.0,-1973.0,-0.4062047149550174,-0.25594768323596795,0.14866030305427258,-0.864516412389184
-10187.02984547615,-416.0,-852.0,15400.0,-3619.0,-1798.0,-2066.0,-0.5761126038262268,-0.2695090771214966,0.40836376881280956,-0.6547504542821506
-10187.045492887497,-244.0,-1412.0,16176.0,-3189.0,-2024.0,-2239.0,-0.6602166247228333,-0.2843499890670055,0.5972491848221139,-0.35574218668370533
-10187.061096191406,88.0,-1836.0,16632.0,-2587.0,-1835.0,-2095.0,-0.6586175059022225,-0.2860699084300768,0.6940437825090144,-0.05186729577029549
-10187.076716899872,124.0,-2784.0,16980.0,-1972.0,-1666.0,-1898.0,-0.5928704267160126,-0.2842763616129848,0.7235261689969077,0.2102415042999709
-10187.092303276062,288.0,-3196.0,17116.0,-1425.0,-1429.0,-1627.0,-0.49567785233841605,-0.27994704678901833,0.7128708580475928,0.4095708210331535
-10187.107916355133,676.0,-3036.0,16904.0,-973.0,-1116.0,-1531.0,-0.3886867941929863,-0.28824182317575103,0.6772842599766651,0.5541888293534608
-10187.123515605927,728.0,-2408.0,16976.0,-787.0,-890.0,-1050.0,-0.30225195345478373,-0.2778714604322818,0.636836860861316,0.6525871748343688
-10187.139117956161,956.0,-1796.0,16932.0,-752.0,-586.0,-905.0,-0.23486676203775708,-0.2731163622385532,0.5835801842762542,0.7277906466062696
-10187.154715299606,1352.0,-1576.0,16964.0,-712.0,-101.0,-976.0,-0.1837024962146594,-0.30008272741815345,0.5141639735435168,0.7822014816527305
-10187.170295238495,1596.0,-1300.0,16988.0,-566.0,558.0,-1193.0,-0.1410467995180185,-0.3796067141775489,0.4318311334706841,0.8059320164024215
-10187.185924768448,1428.0,-1852.0,17016.0,-490.0,1062.0,-1536.0,-0.08803628970818525,-0.49904728049370106,0.3286419043664583,0.7969917955792553
-10187.201533317566,1248.0,-1980.0,16732.0,-286.0,1429.0,-2066.0,0.002182725596216697,-0.6400243041474369,0.20280274370847598,0.7411040230317704
-10187.21713423729,940.0,-2144.0,16228.0,-165.0,1422.0,-2550.0,0.1286440864712986,-0.7529508701447652,0.048338027333119885,0.6435674955105707
-10187.232717514038,648.0,-1804.0,16008.0,-110.0,1116.0,-2999.0,0.27469100685795844,-0.7988435909302941,-0.13718455800238552,0.5172757147079726
-10187.24833202362,468.0,-2152.0,15840.0,-36.0,623.0,-3191.0,0.4076819323313079,-0.7595554158798563,-0.33322708930398337,0.3818778852096366
-10187.263926744461,272.0,-2512.0,15916.0,103.0,288.0,-3175.0,0.5094230540980307,-0.6484064235375441,-0.5106131887030527,0.24358044542037116
-10187.279522657394,676.0,-3028.0,16280.0,179.0,227.0,-2896.0,0.5731308940603965,-0.5002433603295887,-0.6402479184012007,0.10658405932699914
-10187.29511141777,848.0,-3452.0,16608.0,124.0,507.0,-2494.0,0.615148711565398,-0.35075763590152875,-0.705336726265241,-0.03257677236365878
-10187.310700416565,1016.0,-3640.0,16852.0,35.0,910.0,-2115.0,0.6532666305724244,-0.21180717212531386,-0.7071047750718977,-0.16847334592555013
-10187.326281547546,1004.0,-3596.0,16876.0,-16.0,1348.0,-1871.0,0.6948191358224611,-0.07587695144948138,-0.6514217007665225,-0.29515898174392813
-10187.34189915657,840.0,-3092.0,16548.0,-79.0,1639.0,-1714.0,0.7279759521497986,0.05778696591727296,-0.5495321341410109,-0.40586464887705614
-10187.357523202896,628.0,-2712.0,16328.0,-95.0,1606.0,-1590.0,0.735060947331455,0.18136848877033124,-0.42767108245426966,-0.4938505039197021
-10187.373153924942,432.0,-2232.0,16328.0,-186.0,1324.0,-1637.0,0.7050498102145754,0.2827451641280524,-0.3034879971215121,-0.5751999416566078
-10187.388740301132,308.0,-2036.0,16280.0,-365.0,854.0,-1646.0,0.6453918251984585,0.34198145911023203,-0.18927003910929924,-0.6562735145405483
-10187.40432047844,516.0,-1684.0,16584.0,-647.0,518.0,-1702.0,0.568125523989497,0.3582619670425486,-0.07114634953632651,-0.7374414884654363
-10187.419934749603,584.0,-1804.0,16188.0,-911.0,339.0,-1711.0,0.4815806238748293,0.3403127808262791,0.057031884798902074,-0.8056144723320826
-10187.43551325798,584.0,-2040.0,15868.0,-1046.0,173.0,-1718.0,0.38508285910603063,0.29515826032883163,0.18601411553933855,-0.8543954247317221
-10187.451080560684,580.0,-2488.0,15748.0,-1263.0,0.0,-1715.0,0.28485986294286286,0.2208402950664829,0.31883974480868543,-0.8765989046818703
-10187.466678857803,776.0,-2984.0,15692.0,-837.0,-184.0,-1693.0,0.1742080469173114,0.13678956474357978,0.40526652034470423,-0.8869606636453576
-10187.482242584229,796.0,-3384.0,15988.0,-582.0,-367.0,-1300.0,0.09273107133336457,0.05299121016156474,0.4563300393290297,-0.8833774817488533
-10187.497848272324,880.0,-3516.0,16304.0,-387.0,-479.0,-1324.0,0.011414404232796311,-0.03954581747725031,0.48429746482730035,-0.8739346687584352
-10187.513436794281,948.0,-3276.0,16312.0,-344.0,-450.0,-1086.0,-0.053295701741186204,-0.11944029837061507,0.5032779985056455,-0.8541690930496164
-10187.52902674675,872.0,-3044.0,16432.0,-390.0,-381.0,-808.0,-0.10051218568006855,-0.18083312979069718,0.523636449077741,-0.8264390775472628
-10187.544653177261,732.0,-2604.0,16324.0,-540.0,-403.0,-582.0,-0.13221341561902678,-0.23101428103222366,0.5551140914913364,-0.7880357606842875
-10187.56024646759,676.0,-2236.0,16364.0,-600.0,-475.0,-535.0,-0.15759108019797327,-0.28169362372997814,0.5889976203692437,-0.7408748591977445
-10187.575897693634,604.0,-2072.0,16312.0,-661.0,-576.0,-718.0,-0.18975866653228762,-0.3450257273150108,0.6188871749285371,-0.6796525293674777
-10187.591465473175,792.0,-1956.0,16224.0,-625.0,-575.0,-968.0,-0.2335045853051029,-0.4183940387353575,0.6322708596886164,-0.6088149119238343
-10187.607080936432,1272.0,-1832.0,16420.0,-599.0,-547.0,-1239.0,-0.2886720006079088,-0.49943441643235004,0.6247375560638472,-0.5262477798445109
-10187.622651338577,1304.0,-2184.0,16680.0,-514.0,-484.0,-1390.0,-0.3453981160187364,-0.5791346806672593,0.594417599217592,-0.4381448172003561
-10187.638216495514,1392.0,-2484.0,16532.0,-484.0,-273.0,-1521.0,-0.4098496376788269,-0.6474232338839503,0.5388740428038179,-0.3499731371320532
-10187.653800487518,1316.0,-2760.0,16520.0,-461.0,-30.0,-1484.0,-0.47552875558376567,-0.695236471575247,0.4658667289029174,-0.27108456633650624
-10187.669355869293,1116.0,-3052.0,16244.0,-445.0,120.0,-1442.0,-0.5369347650059159,-0.7262010219245625,0.38057193352526886,-0.19874138294930296
-10187.6849629879,864.0,-3240.0,16120.0,-476.0,77.0,-1156.0,-0.5863002436851804,-0.736511586508583,0.31007406288204054,-0.13287882721160824
-10187.70055270195,756.0,-3384.0,16044.0,-595.0,-89.0,-936.0,-0.6301148456270681,-0.7289319684188504,0.26011362096684054,-0.06288378904705594
-10187.716148376465,748.0,-3332.0,15904.0,-695.0,-368.0,-662.0,-0.6670199618325522,-0.7048496406553515,0.2410626726271193,0.012654740249904116
-10187.731783628464,840.0,-3320.0,16120.0,-709.0,-553.0,-418.0,-0.6960310404118085,-0.6691663392991835,0.24582174111639385,0.08560883556438718
-10187.747415781021,1088.0,-3220.0,16408.0,-617.0,-606.0,-170.0,-0.7157752657514238,-0.628843786292647,0.2672860867287192,0.14415064766019578
-10187.763017416,1256.0,-3160.0,16444.0,-453.0,-553.0,-90.0,-0.7252701281845811,-0.594401871939797,0.29059201249031263,0.19033112744481978
-10187.778643131256,1400.0,-3044.0,16628.0,-196.0,-335.0,-34.0,-0.7260572308865249,-0.5768461575713717,0.3065642658821211,0.21472717307479225
-10187.79423546791,1308.0,-2988.0,16576.0,70.0,-6.0,-110.0,-0.7203651746658771,-0.5839659901770275,0.302654559809813,0.22013167621106328
-10187.809822797775,1252.0,-2884.0,16608.0,282.0,153.0,-175.0,-0.7064132418622715,-0.6088453947831675,0.2893427019485874,0.21579716819748998
-10187.825407981873,964.0,-2608.0,16332.0,361.0,148.0,-234.0,-0.6861185063576662,-0.6391996252854873,0.27432580810615215,0.21309759565824285
-10187.840996742249,788.0,-2400.0,16352.0,314.0,76.0,-318.0,-0.664082537397063,-0.6664189124184672,0.2576362042224713,0.22023578948277847
-10187.856579780579,712.0,-2236.0,16080.0,136.0,-140.0,-466.0,-0.6435335915824884,-0.6813395477142807,0.2409939741151395,0.2521167223046373
-10187.872157335281,804.0,-2392.0,15960.0,27.0,-401.0,-574.0,-0.6197922992579946,-0.684738838190054,0.22951989811956644,0.30710070924992544
-10187.887781143188,912.0,-2436.0,16056.0,-27.0,-496.0,-624.0,-0.5933911353650806,-0.6807469478548694,0.21777973650113552,0.3701925712732715
-10187.903359413147,1160.0,-2664.0,16044.0,-34.0,-550.0,-751.0,-0.5589243163309248,-0.6731763513976978,0.19985679856346775,0.44101527025813186
-10187.919012069702,1284.0,-2756.0,16172.0,-70.0,-563.0,-1023.0,-0.5112494029371573,-0.6623932035703529,0.16363742797781206,0.5225725634062808
-10187.934653997421,1080.0,-2764.0,16316.0,-106.0,-527.0,-739.0,-0.4746969029414817,-0.6420336485113362,0.13911927271836383,0.5857486427430293
-10187.950305461884,1508.0,-3048.0,16336.0,-100.0,-516.0,-514.0,-0.4468917180958846,-0.6163652665715467,0.12629107281985757,0.6359498528873989
