programtime,ax,ay,az,gx,gy,gz,q0,q1,q2,q3
-10110.939296007156,-3496.0,2260.0,-15832.0,-235.0,-133.0,3219.0,0.962494469615461,-0.019566034304133662,-0.010904393247389576,0.2703750366974885
-10110.954878807068,-3656.0,2144.0,-15856.0,-269.0,-86.0,3458.0,0.8425911424479572,-0.04152113848793847,-0.01746039703021534,0.5366668391678947
-10110.970430612564,-3684.0,1864.0,-15400.0,-233.0,-174.0,3928.0,0.6218022506464582,-0.05355528096593391,-0.025189590325273715,0.7809348740521863
-10110.98605298996,-3740.0,1664.0,-15328.0,-83.0,-125.0,4587.0,0.28640064655611946,-0.05558643411090825,-0.014837666059895385,0.9563810232647684
-10111.00161409378,-3908.0,1896.0,-15124.0,119.0,-239.0,5222.0,-0.1357082528214287,-0.03613575794632621,0.013283805013470448,0.9900005139585352
-10111.017181873322,-3428.0,2296.0,-15460.0,230.0,-276.0,5582.0,-0.5543853747937306,-0.007947399104010168,0.04867343786770899,0.8307975634945222
-10111.032762050629,-3024.0,2152.0,-16224.0,125.0,-88.0,4519.0,-0.8200172954184056,0.010489601577031453,0.06070222138515611,0.5690139223185542
-10111.048344612122,-2548.0,1016.0,-16756.0,285.0,-50.0,3161.0,-0.9415152627568979,0.008680024394240054,0.07288129912301827,0.3288798920737872
-10111.063967704773,-2856.0,440.0,-17372.0,266.0,-243.0,2620.0,-0.9893620071870135,0.009894452825022477,0.09597741219594735,0.10887265444704898
-10111.079572439194,-3684.0,1068.0,-17088.0,432.0,-56.0,2617.0,-0.987999025012965,-0.005094029445257718,0.09996172879595704,-0.11764195770882563
-10111.095163345337,-3848.0,1760.0,-16408.0,227.0,-175.0,2558.0,-0.9367791962483526,-0.004307206355541848,0.11096884324391988,-0.33183143503713974
-10111.110771417618,-3696.0,1756.0,-16172.0,312.0,-510.0,1973.0,-0.8607676475244113,-0.025237451842056786,0.14198052052194327,-0.4881430730760491
-10111.126341581345,-3468.0,2132.0,-16652.0,312.0,-204.0,2107.0,-0.7547176299382398,-0.03091577792255825,0.14627366571995648,-0.638787545630545
-10111.141987800598,-3996.0,2280.0,-17452.0,129.0,-313.0,2109.0,-0.6220358876866794,-0.029485698144724896,0.162736927046944,-0.7653225729129389
-10111.157576322556,-3976.0,1732.0,-17112.0,-24.0,-100.0,1974.0,-0.48165053759454785,-0.0066020265863459245,0.17254045697497566,-0.8591850578232275
-10111.173166275024,-3620.0,1844.0,-15908.0,-72.0,-38.0,1280.0,-0.3826913334729315,0.012972902601314512,0.1793753066333972,-0.9062028175044375
-10111.18872499466,-3652.0,1812.0,-15208.0,-147.0,-311.0,1022.0,-0.29546689724606007,0.009487652748064887,0.19954459427385146,-0.9342329752118592
-10111.204337835312,-3280.0,1840.0,-15432.0,-162.0,-404.0,720.0,-0.22892361341615963,-0.006518550543256276,0.2222185607891818,-0.9477185230647802
-10111.219926595688,-2896.0,1380.0,-15636.0,49.0,-476.0,858.0,-0.14811043330053267,-0.02998459478648025,0.22761632253119754,-0.9619537584210548
-10111.235523700714,-2508.0,1988.0,-16156.0,308.0,-137.0,783.0,-0.0785949821586347,-0.02975936314527021,0.20531714127466053,-0.9750805508179685
-10111.251106739044,-2724.0,2592.0,-16496.0,269.0,-219.0,1619.0,0.06318418090877698,-0.02090644841821212,0.186485514554771,-0.9802009143837125
-10111.266696214676,-3152.0,2336.0,-16452.0,365.0,-205.0,1359.0,0.18207970411199176,-0.01403380086638281,0.15568525085368976,-0.9707791388623653
-10111.282270431519,-3092.0,1792.0,-16052.0,408.0,-231.0,432.0,0.22200259164465153,-0.02102219306211855,0.11805459454720699,-0.9676445780389678
-10111.297832727432,-2996.0,2300.0,-16120.0,408.0,-128.0,180.0,0.23910509050276768,-0.021804379556200053,0.08159048052422929,-0.9673139708572692
-10111.313404083252,-3152.0,2120.0,-16268.0,401.0,-193.0,-219.0,0.22257365400083032,-0.030965761779700344,0.04339650914895811,-0.9734571552645785
-10111.328979969025,-3356.0,1876.0,-16076.0,270.0,-79.0,-323.0,0.19604284010514203,-0.033307886602292044,0.018078604742200074,-0.9798627218055466
-10111.344567537308,-3320.0,2104.0,-15896.0,568.0,25.0,-734.0,0.1344514278995359,-0.022225185407482348,-0.0321923337368426,-0.9901477204528395
-10111.360135316849,-3436.0,1940.0,-15628.0,623.0,-55.0,-1237.0,0.02839919451071147,-0.015823509814274914,-0.08863184755631753,-0.9955337753622696
-10111.375769853592,-3452.0,1692.0,-15972.0,678.0,235.0,-1376.0,-0.08760763006906393,0.016945217411486774,-0.147770195082762,-0.9849881888661213
-10111.391375303268,-3412.0,1884.0,-15988.0,664.0,-253.0,-1790.0,-0.24232142545710797,0.01317775067770591,-0.19776937264592379,-0.9497336199665407
-10111.406968355179,-3396.0,1656.0,-16176.0,610.0,-78.0,-1588.0,-0.37189047626096394,0.021103849200897636,-0.24248170668254806,-0.895798371922844
-10111.422588586807,-3384.0,1536.0,-16136.0,545.0,-180.0,-1333.0,-0.47707287100232265,0.017508732776435675,-0.27489138958700265,-0.834583515270396
-10111.43817615509,-3148.0,1648.0,-16444.0,474.0,-123.0,-847.0,-0.5404289692643712,0.009168938512760134,-0.30220183470310497,-0.7851920216408697
-10111.453790903091,-3136.0,1768.0,-16164.0,180.0,-1.0,-1434.0,-0.6337834227997213,0.038172362538840716,-0.31118087490473306,-0.7071265140100446
-10111.469384431839,-3000.0,1540.0,-16164.0,-395.0,-709.0,-3927.0,-0.8438194983694547,0.11606328743457872,-0.2216452295411296,-0.4747329351362301
-10111.484983682632,-1268.0,2220.0,-16160.0,-1939.0,731.0,-6372.0,-0.9270965128456192,0.356054042817457,-0.1130169398316522,-0.030736717032328827
-10111.500565290451,-4044.0,596.0,-15708.0,98.0,-672.0,-2725.0,-0.9168560992740753,0.36272000057916065,0.024838497331975833,0.16490040465101977
-10111.516139507294,-2968.0,1864.0,-15784.0,-727.0,-593.0,-3239.0,-0.8114257288315709,0.40550273511379353,0.15761305440347356,0.39027419013687564
-10111.531786203384,-2452.0,244.0,-16252.0,-1047.0,-616.0,-5484.0,-0.519889594840336,0.3820411710709826,0.32299074930926647,0.6924134087697191
-10111.547369241714,-2180.0,-1792.0,-15804.0,269.0,160.0,-2515.0,-0.37231912350239893,0.2826843762219604,0.4061799655891244,0.7851661284520776
-10111.562947750092,-2684.0,-824.0,-15800.0,898.0,8.0,296.0,-0.4135529299363272,0.26270244688554983,0.45882451769497967,0.7412431858057067
-10111.57854127884,-2936.0,-2148.0,-15704.0,1738.0,242.0,-128.0,-0.44945618851340347,0.1772521859823961,0.5591255508283682,0.6737576831341812
-10111.594168424606,-4052.0,1680.0,-15396.0,888.0,514.0,-374.0,-0.46403122324490265,0.09353360141511756,0.5945274810794655,0.6499719713198894
-10111.609793186188,-5516.0,9496.0,-14732.0,-2248.0,649.0,-4554.0,-0.2016454167895923,-0.08092384625495906,0.4365465887082843,0.8730507046456211
-10111.62537908554,-4896.0,7612.0,-15360.0,-3086.0,-456.0,-8454.0,0.3443471821586215,-0.2468791794070655,0.11793963115359027,0.898090158234721
-10111.640967607498,-4328.0,5120.0,-14308.0,-3672.0,-563.0,-9735.0,0.7650080665049397,-0.3059554518636519,-0.29318705273306467,0.48496935136870384
-10111.656557321548,-2864.0,3288.0,-15024.0,-3867.0,-1642.0,-5000.0,0.7221261316420002,-0.3187791618718767,-0.6082432645358565,0.08338961028082849
-10111.67214512825,-1992.0,752.0,-16248.0,-3496.0,-2144.0,1715.0,0.46457578303518204,-0.572983955554952,-0.6724044504881432,0.06108177680443122
-10111.687814474106,-2240.0,1192.0,-16236.0,-3546.0,-2105.0,6426.0,0.10750145133372409,-0.9009379283456156,-0.3789660553709716,0.18204124836426192
-10111.703425884247,-2380.0,1616.0,-16028.0,-3365.0,-2399.0,8214.0,-0.2863418767454353,-0.9094398667032557,0.14886718578295885,0.26223275819341946
-10111.719030380249,-2636.0,1596.0,-16172.0,-2921.0,-2045.0,7633.0,-0.5366425789367026,-0.5564836736254509,0.595362589059902,0.21882424684750482
-10111.734616279602,-3480.0,1860.0,-15900.0,-2634.0,-1864.0,5534.0,-0.5875789053193354,-0.09617237347923827,0.7866746703918482,0.16323255670048883
-10111.750202655792,-4480.0,1952.0,-16024.0,-2227.0,-1462.0,3360.0,-0.5183991202843965,0.2523822904294934,0.80386311628105,0.1461835211261718
-10111.765800952911,-4796.0,1792.0,-15524.0,-1954.0,-1275.0,1534.0,-0.3936845787062358,0.45148270701807286,0.7801366162278989,0.1804513169057252
-10111.781406641006,-5248.0,1704.0,-15480.0,-1954.0,-890.0,-476.0,-0.24387366984854175,0.491301909685588,0.784474561718642,0.28939199835213714
-10111.796979665756,-5092.0,1056.0,-15752.0,-1763.0,-705.0,-2036.0,-0.06643038397580489,0.39576013710097263,0.8185349314033377,0.4110492477054053
-10111.81256890297,-4484.0,1284.0,-15440.0,-1785.0,-601.0,-2574.0,0.12584610268984672,0.23488213545206557,0.816002767132605,0.512964545475792
-10111.828155040741,-4344.0,1204.0,-15592.0,-1733.0,-615.0,-3039.0,0.325928921796496,0.025759630668450342,0.7585452293450659,0.5636629439676161
-10111.843803167343,-4268.0,1436.0,-15372.0,-1654.0,-576.0,-3052.0,0.49501632483417585,-0.186420212229649,0.6384753852058616,0.5590666553338205
-10111.859423160553,-4492.0,1504.0,-15780.0,-1588.0,-580.0,-3697.0,0.6425133077392512,-0.4078825728455816,0.4486598530624384,0.4685219230695893
-10111.875014543533,-4672.0,1600.0,-15792.0,-1628.0,-575.0,-4325.0,0.7260889078987011,-0.5976737580040219,0.18171334249632057,0.28733471418997786
-10111.890654563904,-4688.0,1376.0,-15980.0,-1449.0,-696.0,-4523.0,0.7146078911329143,-0.6862116997741999,-0.12403910979017803,0.0553476672140076
-10111.906243562698,-4672.0,1380.0,-16208.0,-1402.0,-843.0,-4339.0,0.5953497672856863,-0.6700453463385849,-0.41083901593660394,-0.16676088098570285
-10111.92217540741,-4804.0,1772.0,-16092.0,-1446.0,-955.0,-3626.0,0.39966254150693686,-0.5937568409812511,-0.6147996266493261,-0.3312764491720329
-10111.937806367874,-4716.0,2332.0,-15844.0,-1741.0,-913.0,-3937.0,0.13666351113141512,-0.4384873031550762,-0.7472140561578914,-0.4803364695472261
-10111.953388929367,-4360.0,3364.0,-15628.0,-1852.0,-560.0,-5378.0,-0.1756894697432538,-0.11935128703442979,-0.7894413922921601,-0.5759086460892693
-10111.968972921371,-2824.0,4620.0,-15608.0,-2030.0,65.0,-7085.0,-0.4612210746039668,0.3390379625696192,-0.6412482439823994,-0.5110078960909435
-10111.984600543976,-3228.0,3484.0,-15540.0,-1329.0,-195.0,-8112.0,-0.6454334124679326,0.6807465419144727,-0.27167470854580456,-0.2149248903176149
-10112.000192165375,-2928.0,2148.0,-16088.0,-589.0,-293.0,-5639.0,-0.6477859612462477,0.7547679001661729,0.08131201898488725,0.06393059408156941
-10112.015831947327,-3188.0,2004.0,-16112.0,-437.0,-803.0,-2236.0,-0.5876678992493343,0.7517672767551931,0.2657010568022798,0.13746035867153428
-10112.031448841095,-3760.0,2132.0,-15356.0,-512.0,-917.0,825.0,-0.538808112111345,0.8028877467327612,0.2507973781947887,0.046451690604521034
-10112.047063589096,-3948.0,2652.0,-14880.0,-564.0,-1178.0,2750.0,-0.4681345301045246,0.8645188361514706,0.10749633593838452,-0.14799250461744615
-10112.062660455704,-4284.0,3040.0,-15176.0,-520.0,-1411.0,2954.0,-0.3623597422455668,0.8601109082961433,-0.04903576743928307,-0.3556685762635635
-10112.07823395729,-4420.0,3356.0,-15172.0,-447.0,-1325.0,2250.0,-0.2575805968824272,0.8024680867640184,-0.1580508407228806,-0.5145066934275772
-10112.09384560585,-4092.0,3384.0,-15264.0,-209.0,-1191.0,1470.0,-0.19057579859437448,0.7236797092012429,-0.22189025065632892,-0.6250866021154129
-10112.109430789948,-4020.0,3208.0,-15264.0,-164.0,-1077.0,1103.0,-0.13952101824930235,0.640667533696793,-0.26240737963335503,-0.707969889082511
-10112.125009536743,-3868.0,2832.0,-15416.0,-126.0,-967.0,1127.0,-0.08421774932119962,0.5522211086454244,-0.3034219513597002,-0.7719419261179962
-10112.140595197678,-3652.0,2784.0,-15492.0,-47.0,-524.0,1119.0,-0.0202973279094356,0.4850425065324486,-0.3484434792826869,-0.8018160182247747
-10112.15618777275,-3612.0,3104.0,-15548.0,-122.0,-587.0,1131.0,0.04587664263382688,0.4074757345737744,-0.38450793751810547,-0.827050485387551
-10112.171822309494,-4028.0,3396.0,-15332.0,-168.0,-509.0,705.0,0.08538063876998749,0.34558876346721246,-0.39847994095303485,-0.845276457584439
-10112.187429189682,-4088.0,3504.0,-15280.0,-203.0,-278.0,133.0,0.0915684633970562,0.3189787836784574,-0.38958031013089645,-0.8591245160233925
-10112.203023910522,-4156.0,3604.0,-14960.0,-329.0,-120.0,-257.0,0.07729298818831196,0.3160607340419492,-0.358663129583691,-0.8749240914793798
-10112.218655586243,-4236.0,3924.0,-15120.0,-474.0,-16.0,-1098.0,0.005981756156685059,0.3443376837029641,-0.2909207778447975,-0.8926146308421891
-10112.234238862991,-4060.0,3616.0,-15180.0,-555.0,31.0,-1310.0,-0.07799158208080383,0.3770420113272071,-0.2069135170008666,-0.899412825848731
-10112.249821424484,-4152.0,3380.0,-15372.0,-585.0,125.0,-1388.0,-0.16397812000937542,0.41256436245513173,-0.11535018370621716,-0.8885922338784666
-10112.265399932861,-4308.0,3192.0,-15352.0,-573.0,205.0,-1177.0,-0.2309617386479785,0.4457984399294647,-0.031401152773408575,-0.8642536629032354
-10112.280988693237,-4292.0,3304.0,-15268.0,-646.0,245.0,-927.0,-0.2736074917253099,0.477683446502551,0.048098454649666826,-0.8334530605076348
-10112.296563148499,-4224.0,3236.0,-15316.0,-757.0,269.0,-931.0,-0.3090241270409694,0.5087714955229944,0.13470457948137085,-0.7921554964251714
-10112.312142372131,-4148.0,3080.0,-15368.0,-808.0,258.0,-894.0,-0.3359314110362924,0.5350760473418482,0.22199189556512536,-0.742673083492052
-10112.32776927948,-4312.0,2976.0,-15380.0,-851.0,214.0,-655.0,-0.341100808072156,0.5589189673609893,0.3001005000587103,-0.6936854593554339
-10112.343347072601,-4304.0,2660.0,-15444.0,-851.0,196.0,-438.0,-0.3298914733786735,0.5827717413395044,0.3658558432918382,-0.6462957645052206
-10112.35893368721,-4508.0,2588.0,-15572.0,-902.0,288.0,-473.0,-0.3183673002184338,0.6075149109849314,0.43070764998520594,-0.5865652694515913
-10112.374531269073,-4596.0,2452.0,-15604.0,-797.0,247.0,-167.0,-0.2929531703591629,0.63447477057778,0.4722495127236167,-0.5372156021646199
-10112.390171289444,-4712.0,2516.0,-15456.0,-656.0,267.0,-77.0,-0.27052325321763315,0.6594966721174155,0.49952722717014625,-0.4922944832621096
-10112.405791044235,-4572.0,2460.0,-15468.0,-553.0,298.0,-35.0,-0.25260263080692613,0.6829650720056953,0.517531891963663,-0.4493454819292019
-10112.421377897263,-4848.0,2796.0,-15572.0,-595.0,315.0,-246.0,-0.24032183262448348,0.6961148414147076,0.5475493164590681,-0.39731510211844917
-10112.436962127686,-4948.0,3036.0,-15328.0,-645.0,334.0,-338.0,-0.22802340011279557,0.7034901179268456,0.5820520327596379,-0.3381159773519233
-10112.452539920807,-4840.0,3004.0,-15224.0,-680.0,376.0,-703.0,-0.22492730185540935,0.6896476563876397,0.6351733503204589,-0.2652331690452104
-10112.468146562576,-4972.0,3088.0,-15404.0,-526.0,402.0,-1536.0,-0.24820795039937923,0.6176905093429054,0.7242662454118911,-0.17969322130565718
-10112.483808755875,-5212.0,3228.0,-15316.0,-841.0,509.0,-1807.0,-0.25895887543953866,0.5214124876646642,0.8109240039581922,-0.058920101347927786
-10112.499418973923,-4964.0,3272.0,-15396.0,-946.0,630.0,-2643.0,-0.26555072082860165,0.34821547496484784,0.8941327844826964,0.09357008803904836
-10112.514988183975,-4860.0,2916.0,-15364.0,-953.0,551.0,-2913.0,-0.24655729501647666,0.13364788628888924,0.9285130971601958,0.24333345673509663
-10112.530591964722,-4820.0,2784.0,-15416.0,-924.0,495.0,-3069.0,-0.20248216527995613,-0.10171022509170463,0.898832542785087,0.3751747098164136
-10112.546163797379,-4492.0,2924.0,-15496.0,-970.0,601.0,-2768.0,-0.16193317974437568,-0.31100181272657385,0.8049857096111405,0.47859536677710274
-10112.561762332916,-4740.0,2852.0,-15792.0,-952.0,662.0,-3064.0,-0.10204031438359332,-0.5197209463101149,0.6469249417987387,0.5486037111483248
-10112.577394247055,-4760.0,2920.0,-15452.0,-956.0,688.0,-3038.0,-0.03722131511211152,-0.6884922582705414,0.4399339173136475,0.5753704305922611
-10112.592983722687,-4584.0,2980.0,-15580.0,-883.0,676.0,-3175.0,0.041457636138935466,-0.8075253909771247,0.19454866820335753,0.5552790496978194
-10112.608573913574,-4588.0,2976.0,-15464.0,-857.0,714.0,-3174.0,0.11770628415555903,-0.8628512989717546,-0.06522161643166956,0.48721556551806366
-10112.624148368835,-4656.0,2988.0,-15444.0,-814.0,668.0,-3061.0,0.1830392627869464,-0.8491222793457855,-0.31122240822229663,0.38552379384072094
-10112.639758825302,-5072.0,2848.0,-15364.0,-1022.0,619.0,-2889.0,0.213283775800573,-0.7794569441942014,-0.53039215740418,0.2562051180047502
-10112.655336618423,-5144.0,2768.0,-15208.0,-793.0,278.0,-2431.0,0.22078821467610724,-0.6713067478432194,-0.6911303350886879,0.1514551896783186
-10112.670920610428,-6028.0,2960.0,-15140.0,-1009.0,-167.0,-1956.0,0.17395944773051344,-0.560325172864512,-0.8074594651557874,0.06150628691426198
-10112.686506986618,-5556.0,3796.0,-14856.0,-1521.0,-240.0,-1649.0,0.08949980083614942,-0.45716725830835375,-0.8829689615722821,-0.05791110844283884
-10112.702050685883,-6120.0,5096.0,-14696.0,-2233.0,-988.0,-1808.0,-0.08232193883586088,-0.3288828094513875,-0.9197357661914832,-0.19785175364861535
-10112.717633247375,-5196.0,5172.0,-14980.0,-2756.0,-813.0,-2259.0,-0.25335567378295987,-0.13503406911677399,-0.8871268346389973,-0.3613622586866839
-10112.733191490173,-3644.0,4920.0,-15392.0,-3177.0,-134.0,-4248.0,-0.3947422443660937,0.23577074430686412,-0.7570196550404845,-0.464232655598669
-10112.748771905899,-3488.0,3828.0,-15616.0,-2771.0,-107.0,-6589.0,-0.5188802711846734,0.6466965841813817,-0.42909981307682354,-0.3583575624999254
-10112.764337301254,-4576.0,2372.0,-15540.0,-1408.0,-710.0,-6475.0,-0.5776928997571988,0.8046917764504572,0.01065153392949624,-0.13648664150045983
-10112.779953479767,-4432.0,2384.0,-15368.0,-799.0,-528.0,-4600.0,-0.5325933382499007,0.7722074324915227,0.34213023539772397,0.05465271524247712
-10112.795571804047,-4004.0,2576.0,-15120.0,-885.0,-154.0,-4122.0,-0.42081088976021785,0.6485893287527367,0.5845454740215473,0.24608264158248286
-10112.811174631119,-4180.0,3452.0,-15268.0,-972.0,55.0,-3358.0,-0.28332369336481994,0.48959526423467575,0.7191030192354663,0.40362731540807845
-10112.82679605484,-5116.0,3368.0,-15244.0,-815.0,-226.0,-3185.0,-0.11714701869084024,0.3054716343888097,0.7997843602371216,0.5032977585046208
-10112.84241104126,-4320.0,1948.0,-15500.0,-680.0,611.0,-3707.0,0.020210144141423674,0.02547940566969769,0.8184226430438376,0.5736956748256351
-10112.85802412033,-4800.0,2692.0,-15088.0,-1118.0,764.0,-3051.0,0.11613057413389447,-0.22341348403018113,0.7400109440404975,0.6236857442695958
-10112.873610258102,-5444.0,1464.0,-15148.0,-423.0,154.0,-2038.0,0.2054992041216534,-0.36184257348054855,0.6679981015698048,0.6169429190950146
-10112.889203548431,-5508.0,1620.0,-15256.0,-356.0,363.0,-1498.0,0.2513236711060155,-0.4707470478685624,0.6024888724347884,0.593498768201827
-10112.904787778854,-5608.0,2404.0,-15312.0,-277.0,17.0,-852.0,0.2822301633966489,-0.5210353675684548,0.551989856262326,0.5866647076443263
-10112.920516252518,-5804.0,2636.0,-15204.0,-205.0,-7.0,-868.0,0.31661563609745996,-0.5659583644237975,0.5005000986986932,0.5735375488317564
-10112.936122655869,-5780.0,2896.0,-15128.0,-265.0,-59.0,-989.0,0.3540510831963952,-0.6112175801613257,0.4351828046838521,0.5582802402885926
-10112.95175075531,-5548.0,2752.0,-15356.0,-217.0,-145.0,-994.0,0.3946668833127565,-0.6461641355957345,0.36580169524596595,0.5412015159265444
-10112.967325925827,-5564.0,2724.0,-15500.0,-96.0,-501.0,344.0,0.38826691442722017,-0.6141112817213025,0.3630355352403322,0.5833706685946337
-10112.98290014267,-5488.0,2540.0,-15608.0,165.0,-432.0,951.0,0.3606959343675017,-0.554222889981275,0.4061834684902588,0.630674576209301
-10112.998512744904,-5536.0,3024.0,-15200.0,203.0,-716.0,1886.0,0.2875036030079654,-0.43499780999146853,0.4787603113210634,0.7063335953101926
-10113.014131784439,-5144.0,3108.0,-15104.0,117.0,-605.0,2199.0,0.17810395519614838,-0.29722441469153216,0.5437598889572209,0.7643702058662382
-10113.029713869095,-5068.0,3632.0,-14900.0,-71.0,-743.0,1948.0,0.08024450296618206,-0.153954094198877,0.5688685702105587,0.8038952086246741
-10113.04536819458,-5040.0,3656.0,-15172.0,-61.0,-396.0,885.0,0.03689042563161454,-0.08249515806198465,0.571890967346237,0.8153369652240916
-10113.060951948166,-4804.0,3328.0,-15232.0,196.0,-402.0,559.0,0.018594076592984475,-0.0254197379453221,0.5876646904965186,0.8084913782979237
-10113.076527833939,-4648.0,3288.0,-15216.0,182.0,-297.0,709.0,-0.015706816589266356,0.03202832203494042,0.6004216220522803,0.7988875754900472
-10113.092136144638,-4396.0,3204.0,-15324.0,195.0,-351.0,1204.0,-0.08123978215901488,0.11852793670716485,0.6076729192604734,0.7810792848438322
-10113.107762098312,-4236.0,3420.0,-15064.0,123.0,-225.0,1661.0,-0.18176802268014955,0.21870083808785235,0.5943751715032438,0.7522290109076549
-10113.123349428177,-4240.0,3708.0,-15004.0,0.0,-104.0,1603.0,-0.27876264783379306,0.30568770141509444,0.5602168597839422,0.7176374331025854
-10113.138916492462,-4128.0,3960.0,-15268.0,-165.0,121.0,1032.0,-0.343328760144477,0.35114036490333145,0.5174912012731655,0.7007343742089919
-10113.154485225677,-4104.0,3808.0,-15268.0,-340.0,306.0,210.0,-0.35908285215627067,0.3518257112979437,0.4808849468827285,0.7183507792287895
-10113.170049905777,-3904.0,3248.0,-15292.0,-286.0,535.0,147.0,-0.38127400282628143,0.3330096054872714,0.44127844673706673,0.7409507877500086
-10113.185623645782,-4068.0,2872.0,-15252.0,-502.0,724.0,284.0,-0.41147381372787756,0.31290887634216213,0.37551458963322515,0.7692633675764834
-10113.20117855072,-4584.0,2676.0,-15332.0,-65.0,570.0,1193.0,-0.5050090002043935,0.3140842591647062,0.31626826309593464,0.73911526409336
-10113.21674656868,-4740.0,2808.0,-15108.0,6.0,548.0,1672.0,-0.6207808634360249,0.3209798763678158,0.24406839477766631,0.6723344831474721
-10113.232317209244,-4912.0,2888.0,-15308.0,114.0,424.0,1921.0,-0.7348562457506986,0.326217997554976,0.17167038164629847,0.5692955262583964
-10113.247932195663,-4656.0,2980.0,-15396.0,75.0,809.0,1612.0,-0.8190372182690998,0.3018617692564102,0.07681317993222385,0.4818269842382268
-10113.263508319855,-4408.0,2908.0,-15400.0,53.0,1239.0,756.0,-0.8536516568222722,0.2493085657276253,-0.029206707860245495,0.45636723817052227
-10113.279065132141,-4324.0,3296.0,-15600.0,59.0,1659.0,-265.0,-0.8312177471821116,0.17780123686808888,-0.14336228049337535,0.5068639200706749
-10113.294656991959,-4868.0,3156.0,-15316.0,200.0,1294.0,-1267.0,-0.7526089170822745,0.12040357582384088,-0.20644420861356366,0.6135662845911581
-10113.310240507126,-5028.0,3060.0,-15264.0,460.0,884.0,179.0,-0.7481635215709344,0.03940547210004814,-0.24112246145566238,0.6168942472909866
-10113.325816392899,-4952.0,2868.0,-15128.0,423.0,715.0,1108.0,-0.7884433729269844,-0.0497899512579667,-0.2671811561595879,0.5518081534686445
-10113.341415166855,-4752.0,3272.0,-15192.0,254.0,719.0,2173.0,-0.8579858413386634,-0.149736755315724,-0.28943731312354964,0.3970708273617254
-10113.356973409653,-4828.0,3368.0,-15156.0,318.0,756.0,2110.0,-0.8905268503462397,-0.24842159780356715,-0.30183942729834706,0.23268347316759472
-10113.372541189194,-4664.0,3828.0,-15548.0,304.0,1161.0,1457.0,-0.8710560094667094,-0.3297462342149461,-0.34978349777905293,0.10089774068057814
-10113.388146877289,-4508.0,3160.0,-15732.0,480.0,1529.0,32.0,-0.8028572645524654,-0.37717123484743714,-0.45659451417768154,0.0684362621848889
-10113.403770446777,-4160.0,2236.0,-15556.0,967.0,2046.0,-1343.0,-0.6639832712887219,-0.39351845320414014,-0.6223266342553507,0.13030350238176786
-10113.419332265854,-4984.0,2284.0,-15532.0,1649.0,1703.0,-1228.0,-0.48760769970135387,-0.43030886146880865,-0.7251332068969236,0.2263953338493422
-10113.434895515442,-4472.0,2276.0,-15836.0,2317.0,1298.0,1743.0,-0.3398547635481796,-0.6407430588203131,-0.6449282230509011,0.24086232453334605
-10113.450465679169,-4376.0,2052.0,-15848.0,3021.0,24.0,4074.0,-0.23319131233320514,-0.8780470578078597,-0.3241160548998635,0.26382562249225766
-10113.466042280197,-3528.0,784.0,-15840.0,3341.0,53.0,4789.0,-0.07639503195062283,-0.9647436922284931,0.10567041731840787,0.22862014413072126
-10113.481616020203,-3780.0,3020.0,-14868.0,3039.0,-527.0,8179.0,0.016784079230524003,-0.7148958554300608,0.6824879707012296,0.1511700381074991
-10113.497226715088,-5288.0,2852.0,-15196.0,3797.0,-1414.0,10180.0,0.14731872427489906,-0.06093491008083864,0.9869975892366712,0.020491194510219735
-10113.512810707092,-6048.0,3404.0,-15448.0,3936.0,-1628.0,12300.0,0.1893598915809823,0.6951944513298575,0.6861722688565428,-0.10007559019501931
-10113.52839231491,-6792.0,3736.0,-15032.0,3816.0,-2012.0,13333.0,0.12343890445440955,0.9742538755424969,-0.11989292589643136,-0.14566368517071487
-10113.544012069702,-6892.0,4436.0,-15048.0,3419.0,-2113.0,14445.0,-0.0035216563556886107,0.5058186371102217,-0.8587735955925839,-0.08150469803303136
-10113.559594154358,-7312.0,5152.0,-14640.0,2493.0,-2178.0,13212.0,-0.11780198003250263,-0.32233592220651014,-0.93926157869254,0.003151753114993498
-10113.575198411942,-7328.0,5812.0,-14788.0,1397.0,-1999.0,10983.0,-0.17526500228327638,-0.8822705607626807,-0.4347374061416641,0.0434076524056048
-10113.59079861641,-7252.0,5912.0,-14912.0,499.0,-1558.0,6688.0,-0.1898640351378319,-0.9751784262594493,0.09084785077414471,0.06874120401216918
-10113.606410741806,-6848.0,5872.0,-14820.0,-668.0,-1131.0,2429.0,-0.2452499927759369,-0.9119466109035166,0.3035595575128119,0.12671785567795393
-10113.622015953064,-6040.0,4380.0,-14720.0,-955.0,-691.0,-1250.0,-0.2856553044837281,-0.9069023773274109,0.20594551775331643,0.23133432243296173
-10113.637586832047,-5312.0,3272.0,-15116.0,-1150.0,-621.0,-2601.0,-0.3030818543545504,-0.884479621282702,-0.00741873215045893,0.3546577949374508
-10113.653154373169,-5024.0,2744.0,-15448.0,-1306.0,-497.0,-3181.0,-0.2924164202407636,-0.79685185905526,-0.2681661281316765,0.4556387600025027
-10113.668734312057,-4392.0,2472.0,-15556.0,-1487.0,-294.0,-3148.0,-0.2653592634583395,-0.6444559626638645,-0.5153060722273431,0.49871898440852175
-10113.684321165085,-4036.0,3004.0,-15780.0,-1691.0,-143.0,-3037.0,-0.22454183421323773,-0.4427344022852529,-0.7238373225189831,0.47919384830131584
-10113.699965715408,-3428.0,3128.0,-15692.0,-1760.0,64.0,-4050.0,-0.11113610654198228,-0.1448469478416532,-0.8913696239961723,0.4148835028541978
-10113.715520143509,-3248.0,2724.0,-15676.0,-1590.0,225.0,-5056.0,0.06290250401082882,0.2320112790709494,-0.9212159103353895,0.3059007811660001
-10113.731095075607,-3056.0,2360.0,-15700.0,-1250.0,597.0,-5306.0,0.25054363713127553,0.5735082293441799,-0.7612725526789978,0.16964756793169106
-10113.74666261673,-2840.0,2148.0,-15828.0,-957.0,766.0,-5343.0,0.38629313909391033,0.8085302396127247,-0.4432238400371005,0.024679747639097298
-10113.762249231339,-2660.0,1928.0,-15960.0,-717.0,985.0,-4782.0,0.44544874537129475,0.8884494665087193,-0.06813143967498872,-0.08712673318405119
-10113.777833223343,-2624.0,1212.0,-15880.0,-186.0,1062.0,-3959.0,0.410276730736855,0.8595308480630081,0.2650439174753431,-0.1504375194334433
-10113.793446779251,-2812.0,1068.0,-15936.0,44.0,1075.0,-2216.0,0.34484955264191736,0.8056714848831203,0.45873517558142435,-0.14674564107044932
-10113.80901670456,-2744.0,1588.0,-15660.0,637.0,1062.0,-737.0,0.24589013786946273,0.8026899285475864,0.5302202106828143,-0.1187158240938395
-10113.82457947731,-2988.0,2128.0,-15604.0,781.0,1036.0,421.0,0.14630648064486448,0.8437481065099,0.5112872678980226,-0.07258702478851238
-10113.840135097504,-3472.0,2356.0,-15560.0,830.0,904.0,808.0,0.04931551227483296,0.8888605853710936,0.4543690036181451,-0.03230555020243058
-10113.855806589127,-3492.0,2032.0,-15588.0,1098.0,919.0,943.0,-0.06861318102815439,0.9233105430051198,0.3778748953951768,-0.0006602990781679487
-10113.871373653412,-3484.0,1860.0,-15716.0,1275.0,928.0,1226.0,-0.19861100976433588,0.9420141631447353,0.269399524107687,0.024225598974363573
-10113.8869638443,-3836.0,1624.0,-15776.0,1679.0,875.0,1576.0,-0.35223237436031274,0.9270390826696859,0.12535488993302918,0.02858400296182516
-10113.902616739273,-3492.0,1352.0,-15724.0,1963.0,1046.0,1802.0,-0.5110187728016402,0.8576019794356234,-0.046284836550787335,0.035162090635701276
-10113.91827082634,-3196.0,876.0,-15888.0,2441.0,1241.0,2248.0,-0.6643322551251644,0.7032124454642831,-0.2507318873591594,0.03589473507034133
-10113.934009552002,-3248.0,636.0,-16164.0,2825.0,1379.0,2636.0,-0.7678506110512822,0.4496976872631849,-0.4554213258944955,0.027728056167261216
-10113.949582576752,-3460.0,896.0,-16060.0,3681.0,1485.0,2932.0,-0.790054966121926,0.07630095776485862,-0.6073804765152607,0.03286747782143601
-10113.965173006058,-3372.0,1484.0,-15964.0,3945.0,1554.0,3497.0,-0.670627459725454,-0.34755808154646456,-0.655256089578635,0.010082027774284416
-10113.98174405098,-3872.0,1996.0,-15812.0,4089.0,1380.0,3610.0,-0.42244963200071955,-0.7131933478348761,-0.5593057715860817,-0.008283169504236952
-10113.9975771904,-4124.0,3080.0,-15616.0,3641.0,1469.0,3724.0,-0.10958077270069487,-0.9296759480090655,-0.3476011867931763,-0.05355465327812031
-10114.013157367706,-4196.0,4076.0,-15576.0,2885.0,1440.0,2945.0,0.16991056563273602,-0.971741243466559,-0.12704115107801878,-0.10348865331620515
-10114.028743505478,-3460.0,2872.0,-15608.0,2819.0,1682.0,2216.0,0.42288235070979996,-0.8879045367323734,0.05706406854360827,-0.1718712983295161
-10114.044315338135,-3156.0,2220.0,-16128.0,3172.0,1842.0,2044.0,0.6478445739938739,-0.6884615266251665,0.22150116105179768,-0.23928094357124804
-10114.059935569763,-3216.0,2012.0,-16356.0,3516.0,2242.0,2034.0,0.7953695694098293,-0.37425190310573353,0.368150482065318,-0.3029653175425092
-10114.075503826141,-3440.0,2780.0,-15700.0,3376.0,2048.0,1981.0,0.832384013467351,-0.02076690019660115,0.4534736648287352,-0.31791071905018375
-10114.091104269028,-3288.0,2212.0,-15724.0,3602.0,2101.0,2451.0,0.758790442040755,0.3650045526173242,0.4706585398076828,-0.26360819513498174
-10114.10667848587,-3016.0,1920.0,-16064.0,3589.0,2075.0,3774.0,0.5801416248864709,0.7235417283503999,0.36420920123874956,-0.0852919699786171
-10114.122246742249,-3140.0,1996.0,-16728.0,4557.0,1626.0,5650.0,0.2369695263954173,0.9612235614466774,0.04695460356946305,0.13300366041328188
-10114.137818574905,-3560.0,2172.0,-16572.0,4655.0,559.0,6868.0,-0.19075880677889054,0.8734424326085666,-0.3751485369219004,0.2448937928990468
-10114.153421401978,-2364.0,-508.0,-16572.0,5049.0,2509.0,5056.0,-0.5017720055025096,0.4758512116395139,-0.5794224342639729,0.43134686917469084
-10114.168999671936,-3616.0,3536.0,-15072.0,3478.0,3004.0,3232.0,-0.5529688125551842,0.042301645962031315,-0.6415213000939649,0.5299872494843263
-10114.184565067291,-4380.0,4708.0,-15052.0,2936.0,2372.0,1987.0,-0.48997744620336775,-0.3002832733739383,-0.5883170604952267,0.5688893515211146
-10114.200161933899,-4324.0,3504.0,-15296.0,2732.0,2417.0,-1129.0,-0.22595187700902625,-0.4547046655155196,-0.5557415890749312,0.6582861859457385
-10114.21579504013,-3708.0,3112.0,-15572.0,2167.0,2568.0,-1591.0,0.07227069745233362,-0.5402550742364288,-0.5185377642912531,0.6588019338582523
-10114.231355667114,-3880.0,2676.0,-15124.0,1969.0,2530.0,-1575.0,0.3532779540250746,-0.5749395353948709,-0.4427290080140117,0.5904491877399074
-10114.246939897537,-3868.0,3272.0,-14600.0,2182.0,1889.0,84.0,0.5151560014590589,-0.5900392915600559,-0.25980106212610604,0.5647754745862896
-10114.262533903122,-4040.0,3092.0,-14840.0,2165.0,949.0,2263.0,0.5158173629819547,-0.568326883814699,0.005845465038572016,0.6410170291952462
-10114.278145551682,-3540.0,2272.0,-14348.0,1840.0,493.0,3336.0,0.3982712561658968,-0.48510268373053256,0.28111093954420313,0.7259697186646624
-10114.293720722198,-2328.0,1792.0,-14152.0,886.0,256.0,4532.0,0.13194510973655407,-0.33343423328557964,0.49902622510849726,0.7889137638194873
-10114.309349775314,2448.0,252.0,-14756.0,2235.0,4458.0,-1256.0,0.08141654235259124,-0.6106846437001808,0.6093045601222118,0.49918289793863124
-10114.324933052063,-7500.0,12688.0,-14852.0,-3224.0,608.0,5011.0,-0.30236227371610264,-0.3488630036020571,0.6561231671156864,0.5969707276953039
-10114.340537309647,-2500.0,-1892.0,-14964.0,-925.0,741.0,2851.0,-0.50340598549197,-0.1930651223982182,0.6521191643301224,0.5329623512009101
-10114.356098890305,-2400.0,-3120.0,-15760.0,-962.0,739.0,2521.0,-0.6594311017160832,-0.04058182515670908,0.599998389538872,0.45111602732248723
-10114.371705293655,224.0,-3816.0,-16520.0,-54.0,2314.0,6280.0,-0.8875869304407331,0.17295617537215716,0.4207011608403878,0.0727058153037505
-10114.387306451797,-3636.0,-2600.0,-17088.0,203.0,1217.0,3039.0,-0.917636639986818,0.25118289291446927,0.2711854574745258,-0.1459746516185377
-10114.40289759636,-4240.0,308.0,-17892.0,39.0,1516.0,2485.0,-0.8941902902219807,0.3163949699059204,0.09203430118951654,-0.3030637479071342
-10114.418478488922,-4880.0,2196.0,-16292.0,-953.0,1149.0,-1534.0,-0.9019490633581065,0.40216596430550505,0.06866937611522415,-0.14154483758019343
-10114.434053897858,-4576.0,2560.0,-15440.0,-1544.0,372.0,-1318.0,-0.8523994674246624,0.5124222212412491,0.10298142534158856,-0.015278780937980137
-10114.449645519257,-3476.0,1084.0,-15856.0,-2130.0,569.0,-617.0,-0.7480918197310691,0.6534142117310954,0.0893053643641124,0.07370921960706091
-10114.465224981308,-3096.0,68.0,-16184.0,-2135.0,283.0,-333.0,-0.6151448434835867,0.7747007719030712,0.07472903882287162,0.12590117674171633
-10114.48081445694,-3552.0,340.0,-16444.0,-1972.0,551.0,-302.0,-0.47416865381322465,0.8588110927821013,0.043178300281766994,0.18905879783851617
-10114.4964158535,-3008.0,1560.0,-16164.0,-2205.0,455.0,-1493.0,-0.27810537145965386,0.9120452445564088,0.09718604395473117,0.2852818730795166
-10114.512056589127,-2064.0,2492.0,-16260.0,-2605.0,593.0,-2007.0,-0.024576582162935155,0.9058475355830085,0.17059378015365445,0.3869547726288763
-10114.527649641037,-1868.0,2224.0,-16800.0,-2588.0,716.0,-2075.0,0.22964260132090994,0.821199961522779,0.23563064082378674,0.46623288167880605
-10114.543235301971,-2456.0,2364.0,-17860.0,-2439.0,651.0,-1467.0,0.43673079027775435,0.6936887539245232,0.24678004582871563,0.5168769084441551
-10114.558808803558,-3368.0,1976.0,-18568.0,-2364.0,610.0,-1061.0,0.5985407680365539,0.5390934099867387,0.22184802832487335,0.5494640084986898
-10114.574407100677,-4192.0,1060.0,-17976.0,-2254.0,766.0,-390.0,0.6931960711150914,0.3692239429887498,0.16860097010764935,0.59558928784289
-10114.590011835098,-3796.0,908.0,-16796.0,-2036.0,585.0,64.0,0.7343816688031203,0.21321594400917576,0.09470690089736471,0.6373798935239776
-10114.605613946915,-2820.0,1920.0,-16140.0,-1956.0,552.0,317.0,0.7368107938125074,0.05906469540910823,0.015373399036277496,0.673338603140859
-10114.621178388596,-2096.0,2672.0,-16164.0,-2036.0,480.0,-42.0,0.7369823767160267,-0.09830975503200538,-0.07172138162704828,0.6648670633239779
-10114.636762619019,-1952.0,2288.0,-16180.0,-1737.0,291.0,-280.0,0.7312806630665574,-0.2227867982162956,-0.1542609282642855,0.6259378566411437
-10114.652347564697,-1820.0,1980.0,-15960.0,-1464.0,273.0,125.0,0.6936788405876525,-0.3303014449862878,-0.21266857843690098,0.6037240241257326
-10114.667965888977,-1592.0,2088.0,-15628.0,-1163.0,327.0,707.0,0.6242001826752588,-0.42813720803128136,-0.2321476447066799,0.6108847142501556
-10114.683533906937,-2024.0,1956.0,-15908.0,-936.0,222.0,905.0,0.5417419711709732,-0.5062007266422776,-0.23466580146363974,0.6286560447828736
-10114.699154138565,-2220.0,2120.0,-15848.0,-790.0,253.0,516.0,0.48181050720125124,-0.5661940425510873,-0.24242881368290034,0.6233066754226465
-10114.71473288536,-2476.0,2208.0,-16024.0,-709.0,295.0,638.0,0.41657248945001596,-0.6234265866822863,-0.23621696270646533,0.6180681180750408
-10114.730310440063,-2744.0,2244.0,-16216.0,-619.0,301.0,184.0,0.37827899404440846,-0.6649031771952163,-0.24820272723638243,0.5943098298134389
-10114.745915412903,-2528.0,2108.0,-16620.0,-541.0,346.0,750.0,0.31415167810914235,-0.7145181155658962,-0.2205362984359986,0.5849242059801585
-10114.761517047882,-2756.0,1636.0,-16608.0,-391.0,78.0,12.0,0.2903264569337449,-0.7292185730074943,-0.23748618960463716,0.5723208286724174
-10114.77710366249,-2296.0,1980.0,-16024.0,-209.0,200.0,715.0,0.24474925892087643,-0.7578070938762783,-0.19693578118418537,0.5718763037736796
-10114.792706489563,-2104.0,1976.0,-16004.0,72.0,-75.0,1139.0,0.19029039136220563,-0.7684852642166847,-0.11904427309722437,0.5992064975280094
-10114.808264493942,-1800.0,2228.0,-16200.0,294.0,52.0,1282.0,0.14245423926888806,-0.7747502460539593,-0.016718546808261188,0.615783514026051
-10114.823876619339,-1972.0,2432.0,-15996.0,-183.0,-86.0,-1134.0,0.18983617735280017,-0.7670943297285355,-0.10373386421127964,0.603960098418928
-10114.83944773674,-1984.0,2336.0,-16016.0,154.0,401.0,-257.0,0.21699112249440622,-0.7828081046943974,-0.10606502541381407,0.5734775796553425
-10114.855059146881,-2672.0,2008.0,-16204.0,716.0,187.0,-339.0,0.28374776900662974,-0.7737289380618144,-0.08961255149866645,0.559285548359151
-10114.870667934418,-2284.0,2436.0,-15892.0,802.0,209.0,-615.0,0.3679034572771468,-0.7564149703012517,-0.08645088888401876,0.5338629811467006
-10114.886238574982,-1716.0,2376.0,-16084.0,264.0,763.0,-2719.0,0.5024237521458462,-0.7408320896001769,-0.2224112591408094,0.3863565970780416
-10114.90180850029,-2588.0,1632.0,-15972.0,1265.0,377.0,-660.0,0.6085445065915415,-0.6798835589941161,-0.20424124996678827,0.35456655442773455
-10114.917448043823,-2076.0,2160.0,-15980.0,1614.0,486.0,56.0,0.7034711321457247,-0.6039510473459782,-0.12386807908163418,0.35359326581813566
-10114.93314909935,-2204.0,2552.0,-16332.0,1833.0,357.0,-368.0,0.804124579766917,-0.4919970216356702,-0.06391734510452214,0.327470859636546
-10114.948740243912,-2480.0,2148.0,-16024.0,1586.0,756.0,-2752.0,0.9184129935133815,-0.372430499709642,-0.08047472455587801,0.10647494982141037
-10114.964320421219,-2544.0,1680.0,-15772.0,2550.0,930.0,-1672.0,0.9858681435676785,-0.15921296032420804,-0.03524012910589043,-0.038384502912262766
-10114.979952573776,-2108.0,2196.0,-16100.0,2956.0,1031.0,-1305.0,0.9835832768022101,0.09809174945960569,0.024473950509866962,-0.149475656979394
-10114.995572805405,-2356.0,2080.0,-16344.0,3666.0,1153.0,-1121.0,0.8826871859666929,0.4018329833004981,0.08057842220893734,-0.23000152855218342
-10115.011174678802,-2100.0,2008.0,-16248.0,4241.0,1352.0,-1052.0,0.6530518542162645,0.6951191705913912,0.126822274240173,-0.2724861925631935
-10115.02676820755,-2148.0,2096.0,-15928.0,5199.0,1544.0,-820.0,0.27137431582979915,0.9192586373409046,0.1271481815127223,-0.25525061864775117
-10115.042344331741,-2236.0,2108.0,-16276.0,5904.0,1765.0,-571.0,-0.20651964159020486,0.960887731260461,0.0732504182941826,-0.16934810825723653
-10115.057952404022,-2084.0,2960.0,-16728.0,6542.0,1719.0,-112.0,-0.6609566076921387,0.7473338918069419,-0.03879517473044682,-0.05588695127151366
-10115.073531627655,-2164.0,1696.0,-17636.0,7422.0,1709.0,-671.0,-0.9502991057869711,0.27458222977509567,-0.10802786543985265,0.09932869132697088
-10115.089156866074,-1984.0,1396.0,-17500.0,7737.0,2208.0,-704.0,-0.9063118922214921,-0.31006312157202515,-0.16953082452649967,0.23177341131863025
-10115.10474228859,-2152.0,1532.0,-17932.0,7898.0,2511.0,-1705.0,-0.49940897489031744,-0.7726132007629808,-0.20484852449160795,0.3342104124939785
-10115.120322942734,-1376.0,1828.0,-18396.0,6499.0,3568.0,-7706.0,0.16630768989989234,-0.7473794162270915,-0.5047103467168231,0.3987897019698444
-10115.135933637619,-3456.0,1304.0,-19084.0,6975.0,3990.0,-6347.0,0.7589061958375787,-0.3770364685021944,-0.46091789458970706,0.2635518578680862
-10115.151510953903,-2264.0,1524.0,-19984.0,8111.0,4663.0,-5957.0,0.9702846215570677,0.21008737591465643,-0.11622774388018936,0.030035965169658604
-10115.167073488235,-3488.0,1976.0,-20888.0,8678.0,4378.0,-4240.0,0.6359827709590689,0.7167808024585294,0.2604585284389058,-0.11795147830176099
-10115.182671070099,-3344.0,848.0,-20144.0,9742.0,4679.0,-4214.0,-0.08666707072191925,0.8502512623011561,0.48030791150794183,-0.1971444139473692
-10115.198278903961,-3156.0,-256.0,-19056.0,10029.0,4355.0,-2940.0,-0.7567449460712988,0.5166270516481759,0.35073004928187607,-0.1934476896517325
-10115.213857889175,-2944.0,828.0,-17732.0,9641.0,3985.0,-1109.0,-0.9825350188854904,-0.06381885944953504,-0.018509948097670627,-0.17380872148333354
-10115.229434490204,-3296.0,3464.0,-15896.0,8201.0,3657.0,-109.0,-0.7339366484637988,-0.5599986008234552,-0.35987133742484073,-0.13502290034492354
-10115.24500656128,-3992.0,6328.0,-13404.0,6381.0,2340.0,767.0,-0.29143016277228556,-0.8288268289147542,-0.47013447197329944,-0.08419100997148468
-10115.260555505753,-7788.0,15128.0,-9072.0,237.0,432.0,3396.0,-0.22207888172473736,-0.9301630754127101,-0.2272082473957821,-0.18399466227582753
-10115.276126861572,-8908.0,15668.0,-8524.0,-4406.0,-2491.0,4169.0,-0.48811803805821435,-0.839583420786815,0.19984032357663237,-0.1300165586950224
-10115.291748523712,-7440.0,14036.0,-9100.0,-7783.0,-3957.0,2546.0,-0.7523240158120579,-0.3983424260725032,0.5037537638166932,0.14684696886080528
-10115.307346343994,-7584.0,13452.0,-11468.0,-11643.0,-5743.0,1467.0,-0.6088096142790181,0.33229224257684714,0.5160763954465063,0.5025911590424411
-10115.322911262512,-7460.0,10920.0,-14020.0,-14411.0,-7679.0,1468.0,0.05202170284926826,0.8597829478218502,0.14297406990377354,0.48746839938870196
-10115.338500022888,-6884.0,8976.0,-16408.0,-16519.0,-9039.0,2921.0,0.6596776000421563,0.6213692951077417,-0.42250731859813706,0.014602357033760014
-10115.354080677032,-5524.0,8004.0,-18272.0,-17732.0,-10005.0,4828.0,0.5984949566448478,-0.27114425648480395,-0.6162492690687948,-0.43419053123964013
-10115.369673728943,-3996.0,6772.0,-20124.0,-18701.0,-10253.0,6185.0,-0.07396108764336724,-0.9029269501641958,-0.13620587352970162,-0.4008748435581922
-10115.385338306427,-3064.0,6064.0,-21480.0,-19565.0,-9711.0,5304.0,-0.7019460480837267,-0.5356989895133812,0.46725169954714985,0.04443182963012594
-10115.40095090866,-2140.0,6096.0,-21616.0,-20135.0,-8236.0,2238.0,-0.6107762493878983,0.3809174389087781,0.4634317513654269,0.5168029505964553
-10115.416546583176,-1664.0,5224.0,-21264.0,-20279.0,-7941.0,405.0,0.17058795631399404,0.8549750107344962,-0.019145960308807237,0.4894393858119886
-10115.432111740112,-1436.0,3552.0,-21420.0,-19781.0,-8150.0,457.0,0.7615736865869863,0.42863292883083504,-0.4812307634526913,-0.06852944277423591
-10115.447732448578,-1872.0,1704.0,-20968.0,-19127.0,-7614.0,37.0,0.5628865899772504,-0.4326149235178908,-0.42530726483488984,-0.5613526033181436
-10115.463314056396,-2868.0,2556.0,-20008.0,-19022.0,-7396.0,950.0,-0.1875432643470496,-0.863219923194784,0.08751621579286815,-0.46045607843847614
-10115.478886604309,-2820.0,3560.0,-19236.0,-18667.0,-7751.0,2367.0,-0.7062214554950904,-0.4176436787190912,0.5606779606279645,0.11164782976147376
-10115.494457960129,-2088.0,2048.0,-19412.0,-18681.0,-7667.0,1213.0,-0.504498817619788,0.42761319533335146,0.44142080929398336,0.6064450241524633
-10115.510090351105,-1652.0,292.0,-17704.0,-17558.0,-5955.0,40.0,0.19879563472560816,0.7977928765178957,-0.11930614793815168,0.556572425525649
-10115.525683403015,-1792.0,3888.0,-18352.0,-17304.0,-5605.0,2977.0,0.6338676766794215,0.3901920371195307,-0.6675093587210386,0.01982923723623491
-10115.541337966919,-2324.0,3916.0,-18020.0,-15425.0,-5884.0,6010.0,0.440166633163384,-0.43859285588599284,-0.6689457940604709,-0.4079229908011875
-10115.55693435669,-3288.0,3600.0,-16812.0,-13817.0,-5123.0,7055.0,-0.07857949114900678,-0.8978451554931147,-0.05971120803554567,-0.4291082753376395
-10115.572535514832,-1924.0,4116.0,-14960.0,-12720.0,-4520.0,7760.0,-0.4790576482309719,-0.604822641426611,0.6256606697149949,-0.11507418677067152
-10115.588114976883,-2308.0,3768.0,-14004.0,-11379.0,-4487.0,7171.0,-0.4792373452868826,0.13654694202849701,0.820974738684631,0.27872383813866636
-10115.603721380234,-3932.0,1896.0,-15144.0,-10327.0,-4641.0,8250.0,-0.14186809148188387,0.8056206390229091,0.4214950610407844,0.3913958917998923
-10115.61931180954,-3404.0,1684.0,-14924.0,-9684.0,-3654.0,10353.0,0.19717672627155525,0.8821496265824933,-0.3647982652397218,0.223283677449314
-10115.634892463684,-3004.0,2168.0,-14112.0,-8448.0,-3019.0,10887.0,0.3399324260917213,0.28314079976158935,-0.8949765803813096,-0.057394719014395995
-10115.650469779968,-3380.0,3608.0,-13672.0,-6773.0,-2435.0,10227.0,0.24863708354833716,-0.4922946820282151,-0.8012794255255962,-0.23189831599364072
-10115.666042089462,-3684.0,4984.0,-13276.0,-6111.0,-1501.0,7476.0,0.024447426204510323,-0.8963812962146047,-0.29602810138714747,-0.3290444625544105
-10115.68160033226,-4440.0,5844.0,-12836.0,-5218.0,-598.0,2842.0,-0.28180227860714824,-0.8851515428255382,0.06634008260290591,-0.36427079960604614
-10115.697175741196,-4584.0,6968.0,-12404.0,-4806.0,184.0,-1307.0,-0.6379604034705494,-0.7049841735318473,0.10412994969462815,-0.29182322088878787
-10115.712752342224,-4620.0,6908.0,-12084.0,-4602.0,550.0,-5051.0,-0.9050175359647366,-0.41268722807884045,-0.10309268770998949,-0.0020997899062107036
-10115.728334665298,-4796.0,6368.0,-12100.0,-4379.0,695.0,-7068.0,-0.8550617147045663,-0.002769140210788336,-0.3329473328714294,0.3975020370297254
-10115.743968963623,-4752.0,5456.0,-12636.0,-4036.0,633.0,-7464.0,-0.46462991692875827,0.39591705447896997,-0.419305316667915,0.671976024632941
-10115.759562015533,-4256.0,4500.0,-12880.0,-3248.0,708.0,-7048.0,0.0718773706041777,0.6153016737886201,-0.32675948071156397,0.7137686849344549
-10115.775135993958,-3400.0,4376.0,-12700.0,-2351.0,953.0,-5866.0,0.5159183319049845,0.6188954421543994,-0.13298514476332488,0.5771582605812434
-10115.790723085403,-3272.0,3972.0,-12928.0,-1172.0,1181.0,-4378.0,0.752904940931832,0.5162425872459017,0.09040048958794242,0.39806468383461563
-10115.806320667267,-3628.0,3684.0,-12648.0,70.0,1444.0,-4075.0,0.8231284067670042,0.41051538351960526,0.3474956871052011,0.18216336983666317
-10115.82198023796,-3892.0,3536.0,-12684.0,1429.0,2000.0,-3895.0,0.717241737533405,0.33720183764090705,0.6063992835371204,-0.06433598959621856
-10115.837565898895,-3824.0,3132.0,-12984.0,3054.0,2272.0,-3978.0,0.4367908236437735,0.298094298239791,0.7649309222294257,-0.3677420970663553
-10115.853178739548,-4356.0,3304.0,-13664.0,4524.0,2528.0,-5117.0,-0.011791722974293541,0.1774261275056027,0.7168606668749391,-0.6741600023994903
-10115.868761777878,-3288.0,2688.0,-14356.0,6522.0,2961.0,-6621.0,-0.5235763198007154,-0.05269185515835346,0.32960843075168966,-0.7838684125038582
-10115.884331226349,-2984.0,1500.0,-15388.0,8667.0,3079.0,-7325.0,-0.7491894039844795,-0.3132647591304289,-0.3053016450876033,-0.49736438669363725
-10115.899938821793,-1784.0,-2732.0,-17096.0,11121.0,4137.0,-10144.0,-0.4586033350167562,-0.34948998539930737,-0.7904803846668214,0.20659257652223365
-10115.915603876114,956.0,-5404.0,-18196.0,14794.0,6766.0,-12841.0,0.3343972967891656,-0.08599567201662299,-0.5739833870472641,0.7425134771088393
-10115.931308746338,0.0,-4368.0,-18492.0,17556.0,8409.0,-14630.0,0.7815151282329882,0.261544279145122,0.2976105403681711,0.4819301408411799
-10115.946907997131,544.0,-1268.0,-18464.0,18479.0,10466.0,-19272.0,0.33329731360998505,0.21568748630218385,0.8268832043789824,-0.3983164261098936
-10115.962500572205,3344.0,-22676.0,-22176.0,29691.0,12137.0,-22600.0,-0.5290225221099234,-0.03637671733026151,0.16070917592071354,-0.8324568855572132
-10115.978086948395,-18792.0,32767.0,-14156.0,4831.0,13171.0,-18354.0,-0.902793710099061,0.19550520425441928,-0.38075405132388274,-0.04204265114690419
-10115.993700504303,-28480.0,26832.0,-4552.0,2653.0,2747.0,-18672.0,-0.47680044203909705,0.31784836201791183,-0.14870259927903182,0.8059288394154361
-10116.009370088577,-920.0,5212.0,-10752.0,5527.0,8930.0,3313.0,-0.538770117611943,-0.42046042417071766,-0.16110405727683624,0.7120289845248824
-10116.02496290207,-5060.0,-4952.0,-23848.0,12286.0,3155.0,12547.0,-0.4448192207810813,-0.7407675218438017,0.49400513843764865,0.09673811349361805
-10116.040555715561,-17664.0,6784.0,-32484.0,7133.0,8558.0,-5646.0,-0.20598629832646786,-0.9014462101313057,-0.09668071442678568,-0.368262426266367
-10116.056140184402,-17400.0,3224.0,-22516.0,5515.0,9528.0,-11670.0,-0.0387972233504817,-0.34635350338214327,-0.7924355911953617,-0.5005795241138675
-10116.071779489517,-3376.0,-816.0,-11276.0,8805.0,8581.0,-4835.0,0.3993384250137303,0.21821438697335144,-0.8860926096628342,-0.08804084691951886
-10116.087337493896,1572.0,5204.0,-10168.0,7283.0,8525.0,-2294.0,0.6382451313356363,0.5059527846989561,-0.4255466681803312,0.3944172475720951
-10116.102930784225,4196.0,5432.0,-15100.0,6382.0,5681.0,217.0,0.4487854882977876,0.5275066327083512,0.08080928207467067,0.7167971804301336
-10116.118519306183,44.0,2920.0,-16012.0,4249.0,4393.0,47.0,0.1934174023940702,0.3703436540298028,0.4557739280481717,0.7859423724946529
-10116.134150743484,-2604.0,2636.0,-16024.0,3656.0,5022.0,1571.0,-0.20268972145874642,0.13111206203819148,0.6465299499442656,0.7236888335660118
-10116.14977145195,-3972.0,3260.0,-17868.0,3561.0,4149.0,2786.0,-0.5759570943823069,-0.03237882567896332,0.6756167594036029,0.4590937066561855
-10116.16536808014,-5564.0,500.0,-17608.0,2968.0,3835.0,1817.0,-0.7894429799088785,-0.2079104720354317,0.5532613172954001,0.16569529828921747
-10116.180950641632,-5016.0,2132.0,-14736.0,2539.0,4782.0,-980.0,-0.8653512481675748,-0.45027267099612034,0.21899454933626014,0.021520371972817053
-10116.196527957916,-4388.0,3232.0,-14984.0,2058.0,3943.0,-3611.0,-0.7628368737101989,-0.6103225208683742,-0.19387326743727532,0.08943981664850106
-10116.212139844894,-1524.0,3004.0,-17276.0,1572.0,3675.0,-2108.0,-0.5583948919791066,-0.6588004776277645,-0.5009971354652258,0.05638213852550397
-10116.227757453918,504.0,3068.0,-17468.0,1203.0,2931.0,-35.0,-0.34758970099080405,-0.7040020364553619,-0.616806134958789,-0.055791794280402165
-10116.243324041367,1000.0,4476.0,-15676.0,523.0,2305.0,1436.0,-0.1789551767874639,-0.764058150632209,-0.5842733021185018,-0.20691760578790327
-10116.258893728256,-1152.0,3692.0,-15008.0,1009.0,1594.0,1357.0,-0.00568563973780936,-0.8039079083016678,-0.5262743039455821,-0.27701102049810616
-10116.274459123611,-2092.0,3080.0,-16324.0,876.0,2125.0,950.0,0.1722137595082735,-0.7785695558046964,-0.47099343797541593,-0.37727582641113117
-10116.290051937103,-2640.0,3116.0,-16704.0,537.0,1985.0,-762.0,0.26031026737085083,-0.6619362605977559,-0.5016328051907964,-0.4923854997495241
-10116.305656671524,-3088.0,3084.0,-15684.0,544.0,2800.0,-2864.0,0.27450658815159784,-0.3810016267384503,-0.5913070341871964,-0.6556217543711965
-10116.32125878334,-3476.0,4200.0,-14752.0,247.0,2885.0,-4217.0,0.1736439963795348,0.006885741783205116,-0.617994842924349,-0.7667351062787906
-10116.33687210083,-2608.0,1624.0,-15648.0,1103.0,2793.0,-4081.0,0.0461567014090222,0.3938209234718213,-0.5919712231471802,-0.7016727941971753
-10116.352463006973,496.0,3284.0,-16952.0,681.0,3465.0,-657.0,0.15412700485171113,0.6133089350100801,-0.5699635182391731,-0.5246318752121965
-10116.368074178696,248.0,3676.0,-16256.0,463.0,2317.0,689.0,0.2699243960716595,0.6760034374357784,-0.5836731709132501,-0.35984135745691254
-10116.383674621582,128.0,4440.0,-15644.0,102.0,2974.0,982.0,0.43025843614689985,0.6962928962853338,-0.5544890055934046,-0.1503190719205078
-10116.399300813675,-308.0,4452.0,-15752.0,170.0,2971.0,-776.0,0.5343280843402033,0.7527085404025141,-0.3845023790112209,0.009015099841757296
-10116.414868831635,-336.0,3320.0,-15896.0,285.0,2835.0,-3170.0,0.5745120125139987,0.8157156885798866,-0.04117840195574512,0.0533685496723244
-10116.430464029312,-2336.0,1344.0,-16012.0,379.0,2381.0,-5025.0,0.5208811585077353,0.7570653345783909,0.39358719392888053,-0.024980365620595354
-10116.446035861969,-3404.0,-288.0,-16004.0,82.0,2541.0,-6416.0,0.35456994981069134,0.4677869650686327,0.7991177927577119,-0.1298701632445433
-10116.461601495743,-4600.0,-836.0,-17080.0,560.0,2364.0,-4603.0,0.10416152759323419,0.17386676208391424,0.9595209443363071,-0.19555122753861962
-10116.47716641426,-2484.0,320.0,-17052.0,147.0,2672.0,-2077.0,-0.1508426409137688,0.044996929585237606,0.971312399563528,-0.17825261979618237
-10116.492763996124,-1876.0,1156.0,-16044.0,-49.0,2524.0,-1107.0,-0.37102916987252216,-0.008673946730002133,0.917149674824251,-0.1452535428882988
-10116.508385419846,-508.0,2456.0,-16064.0,-156.0,2403.0,-716.0,-0.5590511910472551,-0.02978677603649057,0.8214406108551499,-0.10867307210121342
-10116.52402305603,-468.0,2996.0,-16172.0,-315.0,2298.0,-1169.0,-0.717282128485966,-0.07457910850648544,0.6919418234336654,-0.034070775047159677
-10116.539606809616,-404.0,3000.0,-16408.0,-359.0,2059.0,-1874.0,-0.8249438209310797,-0.15464707981519288,0.5363228888407491,0.08893667363791748
-10116.555228948593,-792.0,2568.0,-16224.0,-301.0,1913.0,-2691.0,-0.8621457120916017,-0.26311187768434063,0.3460220449690068,0.26027995569953494
-10116.570819616318,-1152.0,2800.0,-16236.0,-245.0,2010.0,-3360.0,-0.8060945158232093,-0.37088514137114054,0.1062377112078199,0.4487420107223958
-10116.586430072784,-1496.0,3172.0,-16060.0,-376.0,1947.0,-4544.0,-0.6041464523441931,-0.42502140311729847,-0.1766138505338238,0.6505162709815525
-10116.602017402649,-852.0,2308.0,-15912.0,-112.0,2083.0,-5022.0,-0.2629176621904694,-0.4157896704021903,-0.4328459048966702,0.755405636402932
-10116.617643117905,212.0,2688.0,-16224.0,-172.0,2366.0,-5168.0,0.14416397471378314,-0.3339393903898157,-0.6146146082696866,0.6999643671232857
-10116.633223295212,-680.0,2368.0,-16212.0,-56.0,3737.0,48.0,0.3232088686965536,-0.5377245132612828,-0.5417079201127043,0.5594112121874019
-10116.648797512054,1280.0,-492.0,-17632.0,900.0,2387.0,-4389.0,0.6330896105935238,-0.3853984297130592,-0.5820070186542718,0.33456453124982444
-10116.66435432434,572.0,3276.0,-16280.0,91.0,2742.0,-2911.0,0.8121886467974403,-0.29521348566241906,-0.49659468792354733,0.08119307742967877
-10116.67996931076,240.0,1692.0,-16748.0,1016.0,2421.0,-2366.0,0.917278858189102,-0.13181611199751053,-0.3621849656431277,-0.10023003341934651
-10116.695557832718,-532.0,2860.0,-16492.0,416.0,2214.0,-2525.0,0.9301669776472368,0.000600258453997366,-0.20902770536497345,-0.30182188750030536
-10116.711145877838,-480.0,2464.0,-16148.0,602.0,1646.0,-2714.0,0.8552801529422945,0.1370940884138112,-0.08800620494668063,-0.4918902101037121
-10116.726738214493,384.0,1616.0,-16228.0,781.0,1848.0,-1739.0,0.7651573103748767,0.2808838844857105,0.03605718117517324,-0.5782200390005552
-10116.74233007431,-120.0,1688.0,-16528.0,570.0,1618.0,-515.0,0.7113752791764394,0.39447443696016876,0.12642098884247274,-0.5677612740771355
-10116.757952690125,-272.0,1560.0,-16776.0,580.0,1352.0,-145.0,0.6636846029665956,0.49206055218776557,0.1851306152953565,-0.5320956831680805
-10116.773544549942,-220.0,2024.0,-16396.0,225.0,1321.0,-320.0,0.6132636736680626,0.5574976980467715,0.26309762810458137,-0.49384574648107105
-10116.789145708084,-300.0,1732.0,-15968.0,37.0,1202.0,-568.0,0.5554974611973185,0.5944733762222538,0.3511843270338369,-0.46335034694282823
-10116.80475640297,-440.0,1304.0,-16096.0,7.0,1300.0,-89.0,0.5082381065008302,0.6407113805052701,0.41594870846126525,-0.39770545120841294
-10116.82033586502,-724.0,1700.0,-16496.0,-331.0,1266.0,350.0,0.4893324349745793,0.6781171510985754,0.46089240236407464,-0.2971348025911357
-10116.835964679718,-108.0,1692.0,-16492.0,-347.0,1066.0,685.0,0.48137186917347524,0.7139615368502887,0.47186150232281676,-0.1894380376071898
-10116.851532936096,148.0,2432.0,-16316.0,-480.0,1297.0,758.0,0.4657550951868018,0.7396143705326936,0.48256334877402385,-0.05635058676766502
-10116.86711716652,24.0,2468.0,-15896.0,-477.0,994.0,8.0,0.45234900573097325,0.7222486304322094,0.5224408713786043,0.028157215170582242
-10116.882694482803,16.0,2276.0,-16368.0,-418.0,985.0,-215.0,0.43206586264623476,0.6905262909081384,0.5713313954820165,0.10036417905301397
-10116.898272514343,-96.0,2372.0,-16304.0,-565.0,911.0,-665.0,0.42366784907575183,0.6244397231492819,0.6370382924805699,0.15736200216765864
-10116.914111614227,-60.0,2108.0,-16224.0,-265.0,949.0,-1078.0,0.3966652703481265,0.5374466072074073,0.7214851556083387,0.18239237357331006
-10116.929823637009,104.0,2316.0,-16196.0,-718.0,993.0,-1576.0,0.386801759543363,0.3917642147331527,0.806309179782453,0.21626535891636042
-10116.945420265198,40.0,2372.0,-16276.0,-614.0,843.0,-1776.0,0.3757043168005817,0.22661690668344947,0.8700762760640669,0.22462928965991616
-10116.96100950241,272.0,2896.0,-16152.0,-440.0,985.0,-1852.0,0.33974999945207784,0.05143759793263062,0.9146335595604413,0.21300132186686227
-10116.976606845856,260.0,2888.0,-16112.0,-193.0,820.0,-2070.0,0.3075617211975201,-0.1322150884462514,0.9272983429088123,0.16745967060680417
-10116.99219584465,504.0,2348.0,-16200.0,155.0,835.0,-1675.0,0.26245455771794646,-0.27215710684930916,0.9204687708110645,0.0989209597914349
-10117.007888555527,4.0,2244.0,-16340.0,115.0,980.0,-1745.0,0.19820065417419255,-0.41189262213993505,0.8890356374795443,0.026011609003507078
-10117.023476839066,-192.0,2360.0,-16144.0,-55.0,705.0,-1787.0,0.14326408879691932,-0.5454711843486526,0.8253991156707265,-0.02555166836919177
-10117.039108753204,304.0,1904.0,-16388.0,-148.0,680.0,-1785.0,0.0818164716615191,-0.6651600296465692,0.7390361755532978,-0.0685108104534607
-10117.054696321487,784.0,1988.0,-16140.0,-385.0,897.0,-1491.0,-0.007476995929947768,-0.749709063064428,0.6533502955456372,-0.10494668456578146
-10117.07027888298,-160.0,1300.0,-16400.0,-391.0,560.0,-1047.0,-0.07418365787720861,-0.7993104019839283,0.5846135591884369,-0.11758678751150578
-10117.085850954056,236.0,1652.0,-16584.0,-565.0,1014.0,-307.0,-0.16749635905571317,-0.7966082319205239,0.5593931098250007,-0.15633183687224686
-10117.101417541504,300.0,2056.0,-16244.0,-873.0,523.0,-832.0,-0.26317978683725796,-0.8120825187475399,0.5025541296218622,-0.13673964072265107
-10117.117002725601,-148.0,2068.0,-16100.0,-898.0,557.0,-989.0,-0.3599532980335296,-0.8217656633205112,0.4270382658541773,-0.11301830523610921
-10117.132580757141,268.0,1952.0,-16248.0,-1049.0,664.0,-816.0,-0.46382444818565516,-0.8060708892374738,0.3550949607635607,-0.09499564005524722
-10117.14816403389,184.0,2124.0,-16364.0,-1062.0,294.0,-323.0,-0.5473110459643693,-0.766985688309099,0.3276973958285403,-0.06926752241562381
-10117.163789272308,324.0,2284.0,-16368.0,-1043.0,316.0,-332.0,-0.6248312539038773,-0.7213909836011877,0.29530267082893885,-0.04446667881812858
-10117.179374456406,644.0,2204.0,-16284.0,-1020.0,389.0,-482.0,-0.6969340576320963,-0.6732588339505784,0.24645591341574305,-0.016277117754114688
-10117.19497179985,-132.0,2548.0,-16172.0,-931.0,189.0,-427.0,-0.7529839347351021,-0.6232196635323622,0.21040000166390227,0.018554900088190624
-10117.210642814636,428.0,2644.0,-16396.0,-639.0,184.0,244.0,-0.7898013606687565,-0.5761969719697172,0.21022104535714084,0.00423937113979133
-10117.226242780685,632.0,2852.0,-16204.0,-458.0,157.0,403.0,-0.814440715353204,-0.5367380159685667,0.21924893719594438,-0.022989713515763247
-10117.241824150085,536.0,2668.0,-16112.0,-103.0,60.0,767.0,-0.8168169856785787,-0.5136979014176373,0.2506336235801446,-0.07814899050635381
-10117.257423639297,824.0,3396.0,-16296.0,-108.0,269.0,877.0,-0.8187287710952806,-0.48366715355602546,0.2707344410094425,-0.1498404031065329
-10117.27299284935,672.0,3320.0,-16160.0,11.0,-82.0,94.0,-0.814874709176025,-0.48352362026215856,0.2805076124110932,-0.15329578067674413
-10117.288568973541,444.0,2596.0,-16296.0,-68.0,30.0,-376.0,-0.8228724008627366,-0.48746427061035624,0.26338804416088285,-0.12604100511267646
-10117.304144620895,408.0,2420.0,-16252.0,-21.0,96.0,-343.0,-0.8291670250287047,-0.49279449081485344,0.2421303926667893,-0.10492143429539683
-10117.319803714752,-96.0,1904.0,-16444.0,280.0,-58.0,380.0,-0.8115401459851661,-0.5053723473184858,0.259982248531195,-0.1356857121027964
-10117.335410833359,-604.0,1504.0,-16208.0,599.0,-53.0,1703.0,-0.7542568128398577,-0.5038109956646731,0.32780008875839617,-0.2642314189153483
-10117.350987672806,-1512.0,1060.0,-16228.0,817.0,-339.0,3143.0,-0.6116344747148448,-0.4575150227635296,0.45159858222654126,-0.4611312110635766
-10117.366609573364,1536.0,3768.0,-17020.0,474.0,16.0,4042.0,-0.4057320090024842,-0.3044687551714649,0.5589892797378236,-0.6559049467211967
-10117.38221669197,2160.0,3724.0,-15920.0,-84.0,-831.0,1517.0,-0.2773833911038434,-0.2721424693024031,0.6265895206630245,-0.6755608805555603
-10117.397810459137,1464.0,4028.0,-15584.0,-418.0,-726.0,-275.0,-0.26300883650190976,-0.31905889320960745,0.6604968132533249,-0.6267150343401492
-10117.41341805458,232.0,2292.0,-16048.0,-74.0,-871.0,-744.0,-0.2542105170335734,-0.40596161977221623,0.6606868959971852,-0.5779835653018573
-10117.42900633812,712.0,1568.0,-16672.0,-190.0,-260.0,1074.0,-0.1907888858257372,-0.35138439504269753,0.7108531141169044,-0.5786332673776634
-10117.444605350494,792.0,1744.0,-16400.0,-108.0,-829.0,1682.0,-0.05692524304558751,-0.28342751507023317,0.771549655629083,-0.5666917056953958
-10117.46019244194,-296.0,2448.0,-16792.0,-480.0,-851.0,1354.0,0.05489866190079761,-0.22960282570937515,0.82445431569628,-0.5143381773478911
-10117.475843429565,88.0,2152.0,-16320.0,-579.0,-632.0,743.0,0.12148650060987405,-0.20632364927908112,0.8582541745466321,-0.4539508275033861
-10117.491451978683,772.0,2572.0,-16028.0,-577.0,-271.0,1232.0,0.17880759579824326,-0.1299912573034919,0.8940299986441361,-0.38966713773921885
-10117.50705742836,216.0,2152.0,-15880.0,-242.0,-788.0,1837.0,0.2953724613866246,-0.016993265392108617,0.8971945072709149,-0.32788466586380716
-10117.522680282593,80.0,2720.0,-16188.0,-273.0,-666.0,2024.0,0.3979295965497562,0.1134272788875847,0.8757269706560028,-0.2487741173425541
-10117.538251161575,460.0,3248.0,-16388.0,-285.0,-731.0,1355.0,0.4813536277238884,0.18950344502949193,0.8355039742837541,-0.18525722214007923
-10117.553820610046,192.0,2912.0,-16108.0,-393.0,-777.0,493.0,0.5501532576322754,0.1957062992924243,0.7981961378439661,-0.14803162859617428
-10117.569405555725,396.0,2476.0,-16148.0,-292.0,-689.0,547.0,0.6079772070372618,0.2102785236129377,0.7572588038702979,-0.1127198393862391
-10117.58498263359,16.0,2068.0,-16252.0,-291.0,-1011.0,1433.0,0.6857894856627569,0.27637198377742217,0.6723469710530944,-0.035508568727461505
-10117.600572347641,300.0,2812.0,-15880.0,-449.0,-1021.0,1367.0,0.751686865990348,0.32286760457369984,0.5731192429320752,0.047515248030654614
-10117.61617231369,-96.0,2376.0,-15964.0,-436.0,-741.0,886.0,0.7925713702213959,0.3398393213989393,0.4950876978329249,0.10596239989251682
-10117.63180565834,-212.0,2536.0,-16296.0,-663.0,-645.0,290.0,0.8342620181113259,0.3115436215013156,0.43440600589869766,0.13505139420903162
-10117.647419214249,-196.0,2484.0,-16444.0,-721.0,-751.0,75.0,0.8776656426696471,0.26982303066391633,0.367892159251006,0.14681250274498683
-10117.66298866272,-20.0,2212.0,-16264.0,-765.0,-821.0,417.0,0.9116102391416664,0.23406896192660018,0.28407228489717656,0.18297931551947402
-10117.678635597229,-68.0,1980.0,-16136.0,-749.0,-906.0,994.0,0.9250940128152112,0.2119118947662483,0.17835542039480393,0.2597763659877883
-10117.69422197342,-424.0,1920.0,-16240.0,-1021.0,-982.0,1508.0,0.9102998302691317,0.17268447858010566,0.047477655072114294,0.3732025752032806
-10117.70980668068,-608.0,2120.0,-16632.0,-629.0,-909.0,1939.0,0.8444925201742827,0.15769620832208317,-0.07294486040115371,0.5065997795021068
-10117.725389003754,-512.0,2596.0,-16416.0,-689.0,-860.0,2102.0,0.7398427571783002,0.12914341570807905,-0.19166806467267983,0.6318370247260685
-10117.740966320038,-228.0,2896.0,-16244.0,-506.0,-976.0,2010.0,0.6063491860830398,0.11466671829295513,-0.29948123798498577,0.7276697027823402
-10117.75653886795,32.0,3088.0,-16236.0,-233.0,-938.0,1887.0,0.456538120507529,0.11089417650990428,-0.37664058454665705,0.7983841783327095
-10117.772100448608,-84.0,2808.0,-15968.0,-40.0,-1016.0,1685.0,0.3016630851122851,0.12303988070923619,-0.4301753326410142,0.8419084000191398
-10117.787719011307,148.0,2840.0,-15956.0,35.0,-818.0,1572.0,0.15322536458880104,0.1236974079019865,-0.46079893721091786,0.8653815796457925
-10117.803320169449,-76.0,3220.0,-15892.0,-46.0,-957.0,1375.0,0.011260338029918602,0.13868909544786293,-0.4869916063835356,0.862251538069541
-10117.818910360336,-288.0,2916.0,-16324.0,1.0,-885.0,1276.0,-0.1212705298789098,0.1497736584198439,-0.49893088130749774,0.8449433623055144
-10117.83449602127,184.0,3640.0,-16152.0,-179.0,-773.0,999.0,-0.2248339064031771,0.16424702178433404,-0.5140830987624395,0.8112898359607816
-10117.850091457367,268.0,3516.0,-15944.0,-98.0,-1126.0,826.0,-0.32992690370396843,0.20738323598676506,-0.5072474065963101,0.7686614990652828
-10117.865678310394,8.0,3092.0,-15728.0,7.0,-1094.0,712.0,-0.4234397351273172,0.2475513702285862,-0.48527511649920135,0.7238267549075149
-10117.881286144257,-436.0,2868.0,-16172.0,-21.0,-1045.0,429.0,-0.4918757325159646,0.29485435931077386,-0.4552919454720703,0.6810494952245199
-10117.896874666214,-416.0,2664.0,-16488.0,37.0,-971.0,355.0,-0.5501756717015196,0.33564786294852056,-0.41907703306787425,0.6395480300344147
-10117.912946462631,-608.0,2892.0,-16064.0,31.0,-917.0,50.0,-0.5854285300903319,0.3824448931336806,-0.37380396366368,0.6093274461416974
-10117.92863202095,-660.0,2196.0,-16192.0,241.0,-993.0,65.0,-0.626714130259764,0.41933636704920685,-0.3113870081686157,0.5782945109081694
-10117.944254398346,-880.0,2460.0,-15936.0,118.0,-920.0,124.0,-0.659976100502038,0.45464496923926734,-0.25896421487299326,0.539135450630696
-10117.959864616394,-584.0,2240.0,-16584.0,208.0,-1076.0,229.0,-0.6998585439424082,0.48604138193491814,-0.19549993974086025,0.48553225132727007
-10117.975444555283,-604.0,2796.0,-16552.0,10.0,-931.0,439.0,-0.7316789682464109,0.515567109388377,-0.15630585461694244,0.4176181544847495
-10117.99107170105,-912.0,2772.0,-16372.0,-33.0,-1263.0,252.0,-0.75171491309793,0.5570132003344931,-0.08772876399874596,0.34200094743516374
-10118.0066781044,-420.0,2620.0,-16036.0,32.0,-1150.0,6.0,-0.7582676483042053,0.5865040310890062,-0.01159902404730601,0.28444447207268025
-10118.022302389145,-588.0,2928.0,-15960.0,-82.0,-1262.0,-141.0,-0.7470650678077734,0.619843331504857,0.07662682719187916,0.22763206761094304
-10118.03788948059,-432.0,3028.0,-16392.0,235.0,-1339.0,-325.0,-0.7386869923557075,0.6245614214162336,0.18484874975386703,0.17348054045755404
-10118.053520679474,-328.0,2840.0,-16136.0,-77.0,-1415.0,-505.0,-0.6978042230560753,0.6375464076417044,0.29993458400647266,0.12900809937801794
-10118.069133996964,-656.0,2380.0,-15972.0,45.0,-1581.0,82.0,-0.6533919664280624,0.6487722856061849,0.3885644860999149,0.0345123134331128
-10118.084728240967,-600.0,2628.0,-16140.0,-212.0,-1303.0,440.0,-0.5939045264542291,0.6749070483643078,0.4342327501749773,-0.056743353803167536
-10118.100296258926,-1016.0,2692.0,-16268.0,-5.0,-2045.0,2.0,-0.5078065184894146,0.654910201058623,0.5318249831866139,-0.17431969363090194
-10118.115950584412,-836.0,2220.0,-16376.0,-386.0,-1868.0,280.0,-0.389046522314742,0.6476096111430597,0.5961912460684018,-0.27166264583366356
-10118.131534814835,-1632.0,1644.0,-16088.0,-420.0,-2015.0,577.0,-0.24235231248733954,0.633302204617117,0.6311422331783981,-0.37663398115109425
-10118.14713215828,-1988.0,1920.0,-16340.0,-657.0,-1784.0,807.0,-0.07977021917361687,0.6230794229412682,0.6356990579064963,-0.4486596177693757
-10118.162719249725,-1856.0,3140.0,-16404.0,-923.0,-1838.0,1051.0,0.11141149708332408,0.6038236116590994,0.6151882365352269,-0.49449768245087994
-10118.178300619125,-836.0,2668.0,-16240.0,-520.0,-1947.0,845.0,0.27484973534270474,0.5503472497647297,0.5641178641343114,-0.5507690650562953
-10118.193891525269,-692.0,3824.0,-15932.0,-636.0,-1654.0,701.0,0.41477397886475126,0.4836473881612933,0.5144047649569006,-0.5739647098655964
-10118.209525108337,-1152.0,2708.0,-15636.0,-344.0,-2339.0,436.0,0.5442140509409132,0.3658590826899099,0.4196007953111438,-0.6276251834861587
-10118.225170612335,-1360.0,3560.0,-16228.0,-709.0,-2180.0,911.0,0.6809240959139709,0.2408658886800024,0.31869168890963,-0.6138090962946553
-10118.240771770477,-1492.0,2324.0,-16488.0,-192.0,-2592.0,1594.0,0.8140767047849694,0.13063687420401834,0.1369024467196487,-0.5490636082521066
-10118.256355524063,-1032.0,3472.0,-16492.0,-392.0,-2115.0,2373.0,0.9221790604840597,0.02898860704890267,-0.020697295381064875,-0.38511954381725433
-10118.271970272064,-1936.0,3092.0,-15980.0,-942.0,-3121.0,81.0,0.8864883944606798,-0.1457456615130989,-0.23124030555356245,-0.3733958351724484
-10118.287555932999,-1840.0,2316.0,-15292.0,-736.0,-2809.0,66.0,0.7972285769400986,-0.2865487946928393,-0.41100906080176736,-0.3367312523496966
-10118.303143262863,-1828.0,3048.0,-16036.0,-1191.0,-2579.0,-525.0,0.6392972681307909,-0.41351169085559175,-0.5515315992521194,-0.3407638177868314
-10118.318798065186,-2164.0,3040.0,-17076.0,-1214.0,-3304.0,-471.0,0.4032740307956504,-0.5319284182784589,-0.6847728150833783,-0.29241820332597435
-10118.334379911423,-1468.0,2824.0,-16984.0,-1081.0,-3084.0,327.0,0.17002140842173086,-0.6423717014968746,-0.7215729956528951,-0.1943803738519091
-10118.349994897842,-1840.0,2520.0,-16060.0,-1005.0,-3772.0,1360.0,-0.09504029282336875,-0.758996159852285,-0.6436618415989148,-0.024322946758697648
-10118.36559009552,-1652.0,3452.0,-15864.0,-1542.0,-3621.0,1401.0,-0.37382315956700934,-0.7821475471860497,-0.4861883124295483,0.11010170143595631
-10118.381187438965,-2188.0,4100.0,-15476.0,-1747.0,-4208.0,794.0,-0.6296728643409577,-0.6663892835168377,-0.28895153151468184,0.2755801501594218
-10118.396770954132,-2728.0,2544.0,-15724.0,-1517.0,-4645.0,607.0,-0.7804810108374798,-0.44735087839059856,-0.03216109457079246,0.43553673475526045
-10118.41234922409,-2788.0,2728.0,-15988.0,-2036.0,-4257.0,1179.0,-0.8438180238702313,-0.13854749994834922,0.20840146331699794,0.4747047113070755
-10118.427971601486,-3244.0,2916.0,-16456.0,-2285.0,-4766.0,1655.0,-0.7682626218996329,0.2313738871493849,0.4365755757513253,0.406989477498724
-10118.443562030792,-2924.0,2712.0,-15916.0,-2480.0,-4854.0,1995.0,-0.5387157268472578,0.5763577730442143,0.5654554966458846,0.24053516252702126
-10118.459151268005,-3192.0,3764.0,-15648.0,-2876.0,-5141.0,2541.0,-0.16876208333839612,0.8244666775445547,0.5401479480954882,0.0037750515441682367
-10118.474773168564,-1888.0,2892.0,-16320.0,-2959.0,-5323.0,3671.0,0.2499325773734807,0.8860281216638503,0.30029500785166385,-0.24962127843524784
-10118.490347385406,-2808.0,3684.0,-15940.0,-3971.0,-6424.0,2313.0,0.6386258214153663,0.5930871392835032,0.05588552668423952,-0.4871155030845192
-10118.505985498428,-3260.0,2416.0,-15804.0,-3995.0,-6514.0,2113.0,0.7951911493574938,0.08565131061982599,-0.20284860440751332,-0.5649666650896654
-10118.521585941315,-3112.0,5280.0,-15160.0,-5039.0,-6162.0,1530.0,0.6524838731757397,-0.48550515981347603,-0.32139678546244366,-0.4850295262501902
-10118.537161827087,-4628.0,4404.0,-15840.0,-4631.0,-7660.0,2107.0,0.2576517970497803,-0.883318994668249,-0.36841784868361555,-0.1327832591354393
-10118.55273604393,-5532.0,4636.0,-16064.0,-5055.0,-7170.0,4312.0,-0.23800358363763136,-0.927092647146534,-0.10547968859860916,0.2696804647645384
-10118.568325519562,-6292.0,6488.0,-16532.0,-5775.0,-7772.0,6726.0,-0.65169494767973,-0.47841050564639653,0.32355922043268776,0.4916569069268371
-10118.58395767212,-8536.0,6428.0,-17208.0,-7375.0,-8153.0,7914.0,-0.6903570631254256,0.3319911356193269,0.517556661177889,0.38121399991792365
-10118.599548101425,-6824.0,5420.0,-17432.0,-7591.0,-8448.0,10864.0,-0.2651199772306073,0.9196760483644346,0.27063484618054506,-0.10326734125972752
-10118.615150213242,-6752.0,5832.0,-18244.0,-8422.0,-8056.0,14629.0,0.38301879940567074,0.7247445478841282,-0.3349542390634485,-0.46459401346497703
-10118.630741119385,-8060.0,6980.0,-17216.0,-9030.0,-8683.0,16749.0,0.6627469084488513,-0.20106350365541256,-0.633539916175079,-0.3449161890259337
-10118.64632487297,-6772.0,8484.0,-16520.0,-9780.0,-8282.0,16177.0,0.2523865872041334,-0.9273577630018311,-0.259454161468204,0.09482683215483358
-10118.661943912506,-3844.0,6336.0,-15984.0,-9326.0,-7980.0,13448.0,-0.42324202589775495,-0.7303229227498175,0.3067720363498005,0.43975622080184956
-10118.677541732788,-756.0,2208.0,-16884.0,-7760.0,-6758.0,10568.0,-0.7008522028100909,0.06033469247295545,0.5719525139131372,0.4219434044144779
-10118.693158626556,1316.0,-856.0,-16756.0,-5879.0,-5173.0,8299.0,-0.508149739093739,0.7260445833487792,0.4452999228185368,0.1278713587425583
-10118.708736419678,-168.0,-3480.0,-17304.0,-3481.0,-3036.0,3369.0,-0.18517845960463847,0.9352992963203995,0.29319493707524497,-0.07043360898365204
-10118.724350214005,-112.0,-3892.0,-16516.0,-221.0,-1533.0,2437.0,-0.10923899881463882,0.9617952190817561,0.11680130198111277,-0.22220318077149323
-10118.73994398117,-1456.0,1004.0,-15772.0,-142.0,166.0,2548.0,-0.04821544281508557,0.9685798419846828,-0.09359153668373445,-0.22531973956191495
-10118.755514144897,-2620.0,2732.0,-14948.0,-31.0,337.0,2384.0,0.004168886675608845,0.93547333844854,-0.289620230041941,-0.20246573978400043
-10118.771088600159,-3852.0,5180.0,-13932.0,-835.0,1166.0,1319.0,0.12364696799356703,0.9093289309357375,-0.3767640702227411,-0.12602046682368745
-10118.786662101746,-4480.0,6168.0,-13964.0,-656.0,1633.0,175.0,0.22866030782468225,0.9037540985208217,-0.36149737925179665,-0.016206104603545563
-10118.80225777626,-4392.0,6320.0,-13748.0,-48.0,1593.0,-407.0,0.27916171053474353,0.9086530941028903,-0.294472791864011,0.09850923205656938
-10118.817877531052,-3920.0,3504.0,-15372.0,697.0,2489.0,961.0,0.27165908275543016,0.8552659424082939,-0.29560255980855926,0.3276288100084581
-10118.833507061005,-5788.0,3808.0,-14232.0,2198.0,1713.0,-1033.0,0.17543853455225522,0.8568476889435293,-0.11134007692491849,0.4718439846142403
-10118.849123239517,-6184.0,5508.0,-13372.0,2930.0,1973.0,-1461.0,0.033849439448182056,0.7919123019881619,0.1411958634912803,0.5931212772627584
-10118.864742279053,-5748.0,5020.0,-13120.0,3239.0,1536.0,-3999.0,-0.0016728078393003654,0.6092223732668555,0.5341332649612001,0.5861287886522223
-10118.88032579422,-5212.0,3772.0,-13280.0,4247.0,2186.0,-4975.0,-0.06406671148253572,0.22698527334638566,0.870220776288126,0.4325377933547208
-10118.8959274292,-4620.0,4092.0,-13644.0,4363.0,2694.0,-5889.0,-0.10956895216740997,-0.2862066394716286,0.9392211624499806,0.15473852865204704
-10118.911542892456,-4444.0,3960.0,-14064.0,5094.0,2794.0,-7748.0,-0.08126507057045396,-0.7696978030885624,0.6016573200777965,-0.1974075718472418
-10118.927303314209,-5084.0,5700.0,-13664.0,5204.0,2870.0,-7806.0,-0.012805281282672151,-0.8865809792807938,-0.024872680933361254,-0.4617266958840127
-10118.942901849747,-4868.0,5704.0,-13240.0,4803.0,3056.0,-7983.0,0.0331845950354413,-0.5710494599055972,-0.6379362345816274,-0.5155954398573308
-10118.958481788635,-4836.0,4252.0,-13084.0,5163.0,2619.0,-8214.0,0.050029210277271655,0.01429712474739053,-0.9564109670550834,-0.2873512353196868
-10118.9740588665,-4072.0,4076.0,-14696.0,5553.0,3037.0,-6210.0,0.11119745415489864,0.5006421833113024,-0.8499137969794288,0.12099201702084181
-10118.989651203156,-4252.0,4032.0,-15900.0,6060.0,3320.0,-4604.0,0.11430746896502929,0.7012562068970961,-0.44748086813537963,0.5430786383940297
-10119.00524187088,-4240.0,3196.0,-15364.0,6754.0,3649.0,-2972.0,-0.012760919168273594,0.5782175722447439,0.07380191652729173,0.8124376131164004
-10119.020899057388,-4804.0,2784.0,-14948.0,7920.0,3669.0,-1991.0,-0.23234320092658445,0.233759371452492,0.5767103686502653,0.7475147784041463
-10119.036532402039,-4996.0,6044.0,-14492.0,7747.0,3739.0,-527.0,-0.4347532084788216,-0.15485129729382152,0.8129361297574041,0.3551697796531169
-10119.052120685577,-5972.0,6336.0,-14972.0,7465.0,3352.0,-1661.0,-0.4201800168540643,-0.5333359687466221,0.7231561803844444,-0.1266753198117181
-10119.06771826744,-5492.0,6416.0,-16048.0,6994.0,3529.0,-2136.0,-0.27804862425164717,-0.7226991383705778,0.34028437239543224,-0.5334805187198851
-10119.083313941956,-4924.0,5756.0,-16100.0,6687.0,3564.0,-2419.0,-0.06137436589851535,-0.6498561571758661,-0.17260737249056002,-0.7376495490089288
-10119.098911762238,-3708.0,3792.0,-15764.0,6666.0,3955.0,-2690.0,0.16508615643260172,-0.3176152833438263,-0.6306268486937701,-0.6886050177331678
-10119.114509820938,-2196.0,1932.0,-16320.0,7445.0,4474.0,-2735.0,0.35479788782767624,0.1635712303848072,-0.8529880161054018,-0.34608431886462404
-10119.130140304565,-1456.0,1532.0,-17352.0,8573.0,4900.0,-2124.0,0.3996639610256458,0.5514648576588985,-0.6976496419125915,0.22235153735419638
-10119.145704746246,-980.0,700.0,-17440.0,8987.0,5741.0,-1811.0,0.25568323091751094,0.6282378691654293,-0.17161930427505054,0.7144858847970416
-10119.161339044571,-316.0,-252.0,-17140.0,10176.0,6527.0,-1962.0,-0.05616418262369588,0.3265673314882561,0.4892149974714231,0.8067639362563792
-10119.176916837692,52.0,-292.0,-17064.0,10873.0,6985.0,-1211.0,-0.38315126974440045,-0.17871136644984256,0.8306834884423953,0.36224617875701143
-10119.19250202179,412.0,-1016.0,-17884.0,11710.0,7422.0,403.0,-0.4783660478645883,-0.4940256600339333,0.6108678417058739,-0.3923583202228014
-10119.208085775375,-32.0,-952.0,-17856.0,12170.0,8015.0,1518.0,-0.20256858956405907,-0.39853353360739263,-0.04609253545950579,-0.8933154354914882
-10119.22371673584,496.0,-980.0,-17652.0,12639.0,8346.0,3275.0,0.3127117120227879,0.009031932491740297,-0.6332716874228799,-0.7078818964119792
-10119.239311695099,-136.0,-312.0,-17804.0,12933.0,8490.0,4479.0,0.6076792489030454,0.3703602021782457,-0.6981032837360289,0.07881025524697378
-10119.254903554916,-56.0,-340.0,-18488.0,13057.0,8683.0,5313.0,0.3857887220709443,0.38671105925665594,-0.18197393376335347,0.8176228384788145
-10119.270492076874,-1716.0,312.0,-18608.0,13039.0,8201.0,4804.0,-0.15452264794255988,0.09526220719636025,0.49930008757190786,0.8471996728656017
-10119.286081552505,-2056.0,572.0,-18756.0,13069.0,8249.0,3555.0,-0.5185072526890225,-0.31385484555195664,0.7759776082892983,0.17465427640358527
-10119.301677942276,-2760.0,1400.0,-18404.0,12810.0,8440.0,1446.0,-0.4540950330211851,-0.5515769095615362,0.3753974940860722,-0.5904551932686606
-10119.31734752655,-2748.0,1692.0,-17216.0,12244.0,7957.0,-105.0,-0.08068244420639671,-0.3892071033805611,-0.3554831088181261,-0.8459550420796577
-10119.332957983017,-3112.0,2604.0,-16532.0,11432.0,7428.0,-624.0,0.3163146595459262,0.06293301103753553,-0.8186407615732777,-0.4751965654009066
-10119.348530292511,-3568.0,3872.0,-15612.0,10115.0,6540.0,-951.0,0.47363667220691236,0.4688451573371476,-0.7242381474877574,0.1770074204822174
-10119.364107847214,-3652.0,4556.0,-14680.0,8900.0,5861.0,-1243.0,0.36421609999355187,0.6021805174431007,-0.2144157170667651,0.6773117134615284
-10119.379713535309,-3920.0,5508.0,-14212.0,7071.0,4770.0,-1507.0,0.13635851984724084,0.45745010734028607,0.34654986521976877,0.8074954763189639
-10119.395307540894,-4472.0,6704.0,-13564.0,5367.0,3468.0,-817.0,-0.10907069189117748,0.21994319714752497,0.6963387623117644,0.6744189367900524
-10119.4108877182,-4848.0,7552.0,-12288.0,3014.0,2358.0,-112.0,-0.2878037813323227,0.04326557815702262,0.8096264246302903,0.5097078827504319
-10119.426503896713,-5076.0,9004.0,-11596.0,98.0,1028.0,707.0,-0.38969226918730443,0.0446398725226512,0.7810211647969659,0.48595592110396313
-10119.442090511322,-5844.0,11020.0,-11200.0,-2802.0,-998.0,2080.0,-0.38011744156434135,0.3087822736507614,0.6560748273641968,0.5742212631004578
-10119.457695007324,-6440.0,12840.0,-10368.0,-5664.0,-1121.0,-1038.0,-0.09884094925236277,0.4391186920740358,0.3894848309753964,0.8035588388302045
-10119.473365545273,-10020.0,24756.0,-12596.0,-12880.0,-4144.0,4507.0,0.13763784158629808,0.6226297323838021,-0.40747129393728104,0.6537240897597534
-10119.488958835602,-864.0,4936.0,-19672.0,-11598.0,-5242.0,6708.0,0.12380333232327792,0.3389088047033066,-0.9323563357495392,0.022917682865435992
-10119.50455379486,5648.0,-8440.0,-26024.0,-9567.0,-2691.0,1403.0,0.13907935713736,0.09533813432967136,-0.7689398078795369,-0.6166839907269989
-10119.520162582397,2768.0,-8892.0,-25152.0,-6393.0,-706.0,4059.0,0.3027497887545595,-0.24386250876215887,-0.3894516629511559,-0.8349856552383849
-10119.535786390305,-1344.0,1180.0,-18060.0,-7536.0,591.0,5531.0,0.4378242991604583,-0.4553122842415871,0.22666956031114946,-0.7413646318187239
-10119.551382780075,-2732.0,2452.0,-15204.0,-7805.0,-1354.0,10758.0,0.5536065800272891,-0.409168075349435,0.7209718481923109,-0.07937779777425975
-10119.566977977753,-3200.0,1248.0,-14764.0,-5968.0,-1433.0,10807.0,0.34248903890220905,-0.01866696567928237,0.7314626108571801,0.5893345836977216
-10119.5826253891,-3768.0,-1144.0,-16328.0,-5466.0,-853.0,7576.0,-0.0012849495192581069,0.26727220009712827,0.33850857624197556,0.90220610936227
-10119.598211050034,-7316.0,-668.0,-19448.0,-4983.0,-1469.0,2038.0,-0.0018599773913592224,0.39901539923391893,-0.09077364445727953,0.9124381607156965
-10119.613792657852,-6064.0,3008.0,-20592.0,-5009.0,623.0,-3253.0,0.38669639769277847,0.33325765598539303,-0.3334793319286181,0.792588648616035
-10119.629374742508,-3700.0,3940.0,-19484.0,-5186.0,785.0,-8466.0,0.8648882894146304,0.2645789399191983,-0.3167155802207956,0.285757716658838
-10119.644936800003,-2844.0,2864.0,-17880.0,-4116.0,823.0,-9101.0,0.9104320991813936,0.13939155741824205,-0.11085112810928052,-0.3733569523895035
-10119.66053390503,-1056.0,-1052.0,-17428.0,-2873.0,557.0,-5205.0,0.6927495252727321,-0.017821662758987812,0.0799670721140535,-0.7165094213954307
-10119.676124334335,-876.0,-2260.0,-16364.0,-2317.0,607.0,-1717.0,0.5592975713467654,-0.1278482300750825,0.25099246871779146,-0.779643403999051
-10119.691754102707,224.0,-36.0,-15584.0,-2031.0,928.0,2085.0,0.6358649071066147,-0.11432223752666358,0.44252619397182535,-0.6219138313030221
-10119.70734667778,-104.0,1580.0,-15936.0,-1609.0,368.0,4528.0,0.784640327863525,-0.00813064619248498,0.5491183257983747,-0.28764998306118955
-10119.722977876663,1016.0,1696.0,-16420.0,-1135.0,624.0,4009.0,0.8018964426777496,0.11445486006612439,0.5851404466373106,0.038377570755625305
-10119.738620519638,-596.0,2172.0,-16220.0,-1235.0,432.0,2610.0,0.7589817846094008,0.1549878678848264,0.5672892401923914,0.2794786743234341
-10119.75421500206,-632.0,2100.0,-16412.0,-1351.0,1100.0,320.0,0.7064180342798794,0.05397293436139056,0.5960369682411898,0.3778894225701783
-10119.769817829132,-828.0,2304.0,-16132.0,-1671.0,1190.0,-3422.0,0.7225229164415479,-0.2514141398254832,0.5956046831885207,0.24496250095987063
-10119.785417795181,464.0,2392.0,-15972.0,-3222.0,1099.0,-8858.0,0.6037166815323258,-0.7228502518691976,0.30955122614090946,-0.13111720027095375
-10119.801002264023,-688.0,572.0,-16464.0,-3289.0,454.0,-8217.0,0.22915417815206834,-0.8804383283909999,-0.11638964165829147,-0.39845973930896256
-10119.816629171371,-756.0,128.0,-17404.0,-2966.0,429.0,-6070.0,-0.1770077188209509,-0.7433034171826228,-0.4055814915557898,-0.5016691650777627
-10119.832305192947,-672.0,-452.0,-17724.0,-2575.0,10.0,-2419.0,-0.4295660848976607,-0.590236961383167,-0.43004729116627455,-0.5311804170744733
-10119.847926139832,-492.0,-156.0,-17300.0,-2677.0,-641.0,156.0,-0.5679616194968378,-0.5110805840901335,-0.26644359080912616,-0.5875576978147391
-10119.86349773407,-456.0,896.0,-17008.0,-2822.0,-713.0,977.0,-0.6377310400944433,-0.4160742394563293,-0.04151125069522225,-0.6468834236758702
-10119.879109621048,-408.0,2044.0,-16260.0,-4072.0,-711.0,-2402.0,-0.8525080320734593,-0.20414937642177633,0.12980761560544699,-0.46336062660487914
-10119.894671916962,-640.0,1728.0,-15872.0,-3078.0,-332.0,-1428.0,-0.9213910276654067,-0.00485468841986052,0.2431114217184269,-0.3031696600388587
-10119.91030216217,-684.0,2524.0,-16208.0,-2648.0,-586.0,-1687.0,-0.9195749967335904,0.15090726274175534,0.3466523502638489,-0.10696247702235388
-10119.926008701324,-360.0,2080.0,-16792.0,-2450.0,-693.0,-831.0,-0.851004796421136,0.3076838296440916,0.42490088474316157,0.024098456138206995
-10119.941614866257,-304.0,1584.0,-16120.0,-2138.0,-564.0,-192.0,-0.7579854560353556,0.45225065526947067,0.45913154726883115,0.10062611763224084
-10119.957196712494,-444.0,2136.0,-15592.0,-2120.0,-364.0,1021.0,-0.6544771919105142,0.6234097106076799,0.41559645806368534,0.10148656085362266
-10119.972784280777,-812.0,1908.0,-16048.0,-2260.0,-471.0,1107.0,-0.5113631530433869,0.7777693399133998,0.3536443483646554,0.09229439024089302
-10119.98856306076,-1212.0,1784.0,-16020.0,-2324.0,-8.0,931.0,-0.3522669367034531,0.8894058057159778,0.26587404487100924,0.1190643117319637
-10120.004167556763,-1432.0,2360.0,-16068.0,-2963.0,165.0,227.0,-0.12405522426340373,0.9524972395163958,0.20559448372242395,0.18732383273228262
-10120.019824266434,-1632.0,2640.0,-16444.0,-3252.0,135.0,-1641.0,0.16284855687271854,0.9110910746150657,0.2738714711241737,0.2615106471742951
-10120.035443782806,-1472.0,1668.0,-16640.0,-3362.0,135.0,-2697.0,0.45710316313463206,0.7449010523154947,0.38706803554739144,0.29386639203737813
-10120.051058769226,-592.0,2128.0,-16664.0,-3357.0,-103.0,-1895.0,0.6892480290652797,0.5211147014408594,0.39823490273991424,0.3078726759742776
-10120.066665649414,-88.0,1924.0,-17132.0,-2861.0,-280.0,329.0,0.7951512388137103,0.3570158597596374,0.28092137769072156,0.4016931202416287
-10120.082236528397,-12.0,2460.0,-17164.0,-2258.0,-915.0,1838.0,0.795683654208212,0.2683678365130085,0.07846444746655377,0.537316998833056
-10120.097854614258,-316.0,2408.0,-16156.0,-1749.0,-1309.0,2247.0,0.7139895144065354,0.2160571646620812,-0.14173745355224343,0.6507294131789554
-10120.113445520401,-384.0,3548.0,-15388.0,-941.0,-656.0,2916.0,0.5382416511684129,0.15329926000590713,-0.28077668145439394,0.7797177162156824
-10120.12907242775,-744.0,4540.0,-15264.0,-333.0,-529.0,2552.0,0.3470574125156552,0.1085568923387592,-0.3534272733513669,0.861890779620659
-10120.144707679749,-948.0,4716.0,-15432.0,190.0,-163.0,1080.0,0.2577750080790743,0.0929835987078104,-0.35289554718616967,0.8946344663365882
-10120.160330533981,-804.0,4308.0,-15848.0,732.0,193.0,426.0,0.22386877660137436,0.0811559453196591,-0.2942760364081669,0.9255798711068516
-10120.175946950912,-896.0,3616.0,-16016.0,1174.0,416.0,407.0,0.19210589146513682,0.059770002466401156,-0.19321355322256187,0.9603079694143247
-10120.191529750824,-844.0,3424.0,-15976.0,1299.0,565.0,856.0,0.1218573962188761,0.019717927524425784,-0.07876853152232753,0.9892206512010924
-10120.207116365433,-760.0,2972.0,-16136.0,1510.0,466.0,1559.0,-0.011912978975470407,-0.01478713131304721,0.05310919209163704,0.9984081507053286
-10120.222784996033,-384.0,3368.0,-16172.0,1161.0,393.0,1525.0,-0.14302943916988944,-0.04260604689500966,0.15391225653025892,0.9767488528728822
-10120.238383054733,-588.0,2968.0,-16252.0,995.0,121.0,891.0,-0.21541367968350408,-0.05310201727797922,0.23919291085852776,0.9452850753932628
-10120.254022836685,-860.0,3140.0,-16240.0,820.0,-254.0,838.0,-0.2739102214351383,-0.03000251309413651,0.3140702449152336,0.9085333901735669
-10120.26961350441,-580.0,3300.0,-16248.0,602.0,-192.0,1677.0,-0.39517774580452536,0.016530045375867913,0.36661971822998335,0.8421112094169589
-10120.285200595856,-284.0,2956.0,-16064.0,420.0,-554.0,2133.0,-0.5247714771471661,0.10890355591307047,0.40610099106077585,0.7401600484636588
-10120.300792217255,-416.0,1568.0,-15896.0,500.0,-607.0,2166.0,-0.6350978268473606,0.19804807335157174,0.4371466332670384,0.6052524531125703
-10120.31640791893,-1252.0,-60.0,-16844.0,896.0,-858.0,2535.0,-0.729801092965728,0.2820892790396403,0.4742916292694904,0.40356344453111354
-10120.332019329071,-1744.0,1316.0,-17000.0,587.0,-726.0,3835.0,-0.8028005830272644,0.40572784524736505,0.42266360038071077,0.1106870380633123
-10120.347596883774,-2056.0,1880.0,-16724.0,109.0,-1055.0,3669.0,-0.7617819746906441,0.5158853992109804,0.34902714319574313,-0.17813065774865416
-10120.363166809082,-1284.0,2392.0,-15936.0,-58.0,-893.0,3043.0,-0.6596515888392964,0.5770553265845199,0.2625551928769627,-0.4036479928050749
-10120.378735542297,-1056.0,2832.0,-15656.0,-305.0,-1008.0,1884.0,-0.5450517899895003,0.592093114671407,0.23244159777160617,-0.5461823810901782
-10120.394313097,-796.0,2776.0,-15900.0,-289.0,-1007.0,1151.0,-0.4505278935406773,0.5761425292703016,0.23256975916718006,-0.641089471313279
-10120.409934043884,-680.0,2804.0,-16076.0,-394.0,-882.0,877.0,-0.36127731130187446,0.5567393545108043,0.24368423708130954,-0.707204346759465
-10120.42553472519,-744.0,2916.0,-16008.0,-354.0,-859.0,719.0,-0.27985165944817936,0.5276640674870456,0.25640389254630747,-0.7599412638317703
-10120.441153764725,-1020.0,2700.0,-16060.0,-271.0,-721.0,481.0,-0.21855915956909813,0.4959338573398248,0.2690671750090103,-0.796168548892232
-10120.456749200821,-1188.0,2872.0,-16284.0,-180.0,-636.0,11.0,-0.19466622787906201,0.45494305957078435,0.292825609699621,-0.8181595410283719
-10120.472338914871,-1264.0,3008.0,-16424.0,-84.0,-464.0,-684.0,-0.22764119477474473,0.40496086845504053,0.33309108382803626,-0.8205099093465783
-10120.48794722557,-1000.0,3020.0,-16412.0,206.0,-443.0,-999.0,-0.29213564705768713,0.33876488607307453,0.3608920924007084,-0.8183226828853772
-10120.503530979156,-568.0,2872.0,-16148.0,181.0,-306.0,-4145.0,-0.5487578404035623,0.1710454869024751,0.4497733693283519,-0.6836023626706798
-10120.51915550232,-648.0,3424.0,-16868.0,954.0,79.0,-3250.0,-0.7287307559212621,0.0024809407842203064,0.4198930245164867,-0.5409576492385039
-10120.534793615341,-324.0,3388.0,-16756.0,1093.0,633.0,-6899.0,-0.9192438774801156,-0.2473604286503518,0.2813048711119503,-0.12112424010876396
-10120.550377130508,-2020.0,2480.0,-16832.0,3665.0,584.0,-3707.0,-0.8124038954506265,-0.569570061366841,0.10534298606078407,0.06702768934565756
-10120.565992116928,-2600.0,1884.0,-16532.0,5668.0,768.0,-2414.0,-0.4601746176926038,-0.8776865793888748,-0.03158785380559217,0.13002998532676532
-10120.58157157898,-1760.0,3424.0,-16348.0,8091.0,2110.0,761.0,0.12658792541533198,-0.9910596154488788,0.02722768846730427,-0.032171240978401065
-10120.597170829773,-1412.0,5244.0,-17660.0,8449.0,3063.0,-49.0,0.6686481897944341,-0.6998190647390492,0.02605517207720079,-0.2499680037933176
-10120.612745761871,-2524.0,6208.0,-19064.0,8323.0,3344.0,-2094.0,0.8757794697586819,-0.11390872559369868,-0.06879876497986147,-0.4640063065520415
-10120.628363370895,-3232.0,5088.0,-18076.0,6739.0,3749.0,-5813.0,0.5580149324568309,0.44965352513046125,-0.08652036514883378,-0.6920587178176868
-10120.643975257874,-3024.0,7668.0,-13104.0,3460.0,3575.0,-7327.0,0.005321081274077349,0.70384541323166,0.13133272865974258,-0.6980866957259784
-10120.659574508667,-6080.0,7012.0,-10876.0,219.0,-27.0,-7527.0,-0.389653763410035,0.5150519504041627,0.48491676326319016,-0.5897009121169948
-10120.67516708374,-7752.0,11544.0,-9520.0,-5437.0,-1393.0,-7087.0,-0.3539756763996374,0.2578416059486309,0.8876946743688551,-0.14218682026271728
-10120.690783500671,-6368.0,7964.0,-11028.0,-8626.0,-3114.0,-9176.0,-0.02134310446417596,-0.1490964935139814,0.8588346321113244,0.4896098264943959
-10120.70637178421,-1496.0,992.0,-14004.0,-8578.0,-3775.0,-6930.0,0.3127878351326636,-0.34444275413216924,0.2870215843054211,0.8373419668580296
-10120.722008228302,4884.0,-12408.0,-17828.0,-5460.0,-3392.0,-4953.0,0.48607847104858576,-0.30187186723598286,-0.28852122703495264,0.7676956410614661
-10120.7375934124,12468.0,-26016.0,-20956.0,-712.0,109.0,-534.0,0.5042838188382173,-0.3250020207495231,-0.34487167091516685,0.7218968396986176
-10120.753173828125,12944.0,-22980.0,-19488.0,6224.0,6273.0,-1516.0,0.760149376546729,-0.3156369014267762,0.22051172766001642,0.5233744832887036
-10120.76875925064,3084.0,26424.0,-12960.0,-7073.0,6064.0,-2782.0,0.4388999385095537,-0.8504294766328726,0.17028065569844475,0.23482130981909685
-10120.78432559967,-3436.0,8240.0,-21040.0,1195.0,-3526.0,3898.0,0.45230197945246553,-0.6104438659117332,0.31590613736975987,0.568317269072688
-10120.800060272217,-1088.0,-9524.0,-20728.0,2533.0,262.0,357.0,0.5486139657151221,-0.5013941168577939,0.4594821602939709,0.4863155360198823
-10120.815667152405,-4376.0,-6004.0,-18032.0,1565.0,3104.0,9048.0,0.08288005080813458,-0.1493674884785192,0.8173171594328755,0.5502843914379508
-10120.83130145073,-1124.0,2104.0,-14804.0,-2270.0,1016.0,5131.0,-0.23779050915839858,0.13549811915795662,0.7007967432838996,0.6587714763569578
-10120.846887588501,-1716.0,4188.0,-16380.0,-2970.0,657.0,-552.0,-0.2037258446762797,0.12126873554278562,0.5051638343892136,0.8298187599807426
-10120.862485170364,-2184.0,4860.0,-15368.0,-1648.0,1123.0,-7268.0,0.2427825338197198,-0.20983514937357378,0.37017633624493357,0.8717771111033626
-10120.87807559967,940.0,1692.0,-16848.0,-2258.0,763.0,-7145.0,0.6019391457972864,-0.45681786065530855,0.07020084773859553,0.6511977794187593
-10120.893656492233,1736.0,-928.0,-17628.0,-2287.0,-305.0,-205.0,0.5137870103816784,-0.5500259710877897,-0.08228544155283166,0.6532407253076361
-10120.909291267395,960.0,184.0,-16736.0,-1845.0,-522.0,5119.0,0.11692769501708349,-0.5776490127880396,0.031400554497199994,0.8072567976426485
-10120.925087451935,-580.0,2412.0,-16064.0,-1456.0,-855.0,6106.0,-0.33634704473986166,-0.45141271980488445,0.19950338747364144,0.8020571178411552
-10120.940742731094,-1832.0,3788.0,-16084.0,-1541.0,-763.0,2669.0,-0.5498244677798427,-0.29544944630777825,0.21135999634855884,0.7521500058170427
-10120.956342458725,-1556.0,2908.0,-16424.0,-2247.0,-416.0,104.0,-0.5951313204165741,-0.155613139351663,0.08501490295837026,0.7838212351010424
-10120.971997022629,-1156.0,2028.0,-16476.0,-2292.0,-464.0,395.0,-0.6363497333237803,-0.002156791439274115,-0.041275964810318706,0.7702925806980218
-10120.987593889236,-660.0,2112.0,-16080.0,-1513.0,-127.0,2467.0,-0.7784653506610434,0.07871219320935789,-0.1313569792250341,0.6087211450814121
-10121.003194332123,-428.0,2696.0,-16072.0,-958.0,113.0,3413.0,-0.9092919271758375,0.0942707938114899,-0.2041279505257602,0.35018993192431397
-10121.018812417984,-524.0,3020.0,-15700.0,-692.0,-53.0,2988.0,-0.9619164264946467,0.09425107188157204,-0.2375996696234283,0.09684999165607286
-10121.034435749054,56.0,3304.0,-16044.0,-778.0,79.0,1929.0,-0.9544759921276756,0.1169668008774593,-0.2626875958932705,-0.07930684023585745
-10121.050026893616,-456.0,3696.0,-15896.0,-1249.0,-595.0,-1580.0,-0.9504088184263767,0.2489640114861932,-0.18558440012658578,0.017275105549213382
-10121.065611600876,-940.0,3048.0,-16928.0,-657.0,-501.0,-1284.0,-0.9339652657568711,0.32234572410123963,-0.11634498874223859,0.10132107435234317
-10121.081211566925,-1188.0,2732.0,-16636.0,20.0,-143.0,-1199.0,-0.9201808512231918,0.3325752422587037,-0.07055092339262485,0.1941223235158038
-10121.096814632416,-572.0,3064.0,-16084.0,767.0,19.0,-82.0,-0.9387263360279126,0.2708436731221322,-0.05665881425754683,0.2054905096208848
-10121.112412691116,-652.0,2736.0,-15648.0,1101.0,-67.0,240.0,-0.9646614857850426,0.18008486825638864,-0.037013506357813315,0.18875290306422585
-10121.12805724144,-844.0,2156.0,-16244.0,1230.0,-59.0,711.0,-0.9882922470460417,0.07492670757753477,-0.022914603848275865,0.13091731684827929
-10121.14366889,-884.0,1692.0,-16324.0,1018.0,-155.0,1206.0,-0.9995119013978626,-0.013250843306109157,-0.006037628207757957,0.02763912374390779
-10121.159298658371,-556.0,1712.0,-16188.0,851.0,-187.0,2005.0,-0.9856604547616797,-0.0868289493132766,0.01428385904090534,-0.14397976542226532
-10121.174902915955,-276.0,1732.0,-15992.0,525.0,-351.0,2141.0,-0.9366984185064984,-0.1315804218153684,0.05309674218085857,-0.3200990492520934
-10121.19049501419,-716.0,1884.0,-16124.0,193.0,-401.0,1819.0,-0.8702282405066885,-0.1484846581235609,0.10006482334662192,-0.4589576743613418
-10121.206069231033,-972.0,1844.0,-15904.0,238.0,-464.0,1862.0,-0.7774799659617679,-0.1668388917626074,0.14788155726209992,-0.5880652444629333
-10121.221673965454,-984.0,2020.0,-16204.0,-218.0,-557.0,1925.0,-0.6644304918573818,-0.15372457096182876,0.22161093772029553,-0.6969859898559587
-10121.237308502197,-1220.0,2112.0,-16252.0,-669.0,-1082.0,42.0,-0.6458900674588113,-0.17906637266965225,0.32381119586263074,-0.6677631049788529
-10121.252899885178,-1256.0,1968.0,-16312.0,-789.0,-1274.0,-278.0,-0.6327504056440046,-0.21497596247431186,0.43366208898254416,-0.6044414382675022
-10121.26852440834,-484.0,2252.0,-16200.0,-1424.0,-589.0,-2566.0,-0.7473312002760671,-0.25608773189750794,0.4773636047699355,-0.384758547022124
-10121.284105062485,-824.0,1992.0,-16044.0,-541.0,-1.0,-1677.0,-0.8060642439664901,-0.28748274612580027,0.4530123455610738,-0.249787749995778
-10121.2997341156,-1172.0,1892.0,-16372.0,116.0,-273.0,-476.0,-0.8016100703862153,-0.32020637965075416,0.45740415971072823,-0.21370681824800758
-10121.315333604813,-1360.0,2128.0,-15992.0,730.0,-223.0,153.0,-0.7675093915208798,-0.36866213668153436,0.4627870160820563,-0.2466692940974229
-10121.330945968628,-1176.0,2100.0,-15884.0,1370.0,51.0,641.0,-0.7053874165495896,-0.4298955198246213,0.4467972592287063,-0.343497661933718
-10121.346586465836,-1700.0,2696.0,-15792.0,1767.0,64.0,1160.0,-0.5965773629399435,-0.4835627525833678,0.4263513096949355,-0.47800321658230815
-10121.36218214035,-1636.0,2140.0,-16452.0,2200.0,106.0,836.0,-0.46297743720682133,-0.5512515760247579,0.35700664178829544,-0.5952477217820055
-10121.377795934677,-1788.0,3696.0,-16564.0,2034.0,410.0,1180.0,-0.3098655640565654,-0.5635140590401378,0.28550527637537043,-0.7105786196036568
-10121.393404245377,-660.0,2964.0,-16604.0,2202.0,206.0,-64.0,-0.20681304612399123,-0.6010271938278952,0.1377684224953258,-0.759614729975289
-10121.409010887146,-688.0,3808.0,-16156.0,1894.0,344.0,-1153.0,-0.18453000881376372,-0.6148489252316813,-0.05345765995075294,-0.7648867586651168
-10121.424631118774,-392.0,2624.0,-16272.0,1931.0,64.0,-2168.0,-0.21840882924353242,-0.6124341122867722,-0.2905755906944341,-0.7019885095274445
-10121.440248012543,-276.0,2272.0,-16412.0,1979.0,134.0,-1903.0,-0.21954241180572964,-0.5774901850861561,-0.5019325929748497,-0.6052849640105264
-10121.455924749374,-936.0,1624.0,-16400.0,2177.0,-74.0,-2117.0,-0.21731530197749557,-0.5127860549555887,-0.6981916383804021,-0.4498365897358768
-10121.471520900726,-1744.0,1896.0,-16636.0,2710.0,319.0,-1542.0,-0.1321938382033381,-0.4415321836833237,-0.8485380966402053,-0.25991771479282255
-10121.487124919891,-1620.0,2752.0,-16540.0,3067.0,548.0,-1213.0,-0.0008504676313349136,-0.3596641692644538,-0.9323053842095128,-0.03804776768840562
-10121.502716779709,-1196.0,2928.0,-16484.0,3268.0,596.0,-1103.0,0.13989405080343278,-0.25649017914756894,-0.9352287882621175,0.19997388868656366
-10121.518333673477,-988.0,2196.0,-16464.0,3329.0,492.0,-1793.0,0.2710808209147367,-0.07412558625988655,-0.8647897491238866,0.4161241110583066
-10121.533993959427,-408.0,1660.0,-16552.0,3046.0,477.0,-2521.0,0.39503624448110153,0.16140319813838627,-0.717325868171814,0.5507621737451852
-10121.549592256546,-852.0,836.0,-16528.0,2577.0,353.0,-3208.0,0.5032251917211521,0.40844964979421344,-0.504580535189939,0.5703786229406119
-10121.565185308456,-908.0,292.0,-16624.0,1926.0,379.0,-3156.0,0.5785544922016994,0.5833876314736228,-0.26612387358248046,0.5040948868083134
-10121.580778598785,-712.0,-380.0,-16388.0,1567.0,192.0,-2212.0,0.5841738486105643,0.686605746159925,-0.07296136596434732,0.42660298055253987
-10121.59636926651,-720.0,-936.0,-16508.0,1267.0,-509.0,-573.0,0.5218055289155265,0.7676212826893429,-0.017289492588438572,0.3717225172108758
-10121.612014770508,-732.0,-1088.0,-16228.0,791.0,-368.0,314.0,0.4563665472588152,0.8126401285020726,-0.0293310469482058,0.36122747095995456
-10121.627596378326,-784.0,552.0,-15900.0,108.0,-431.0,424.0,0.4334127824665109,0.828437290604405,-0.07304916511800642,0.34714382466959126
-10121.643233299255,-288.0,1096.0,-16212.0,83.0,-693.0,907.0,0.39335349380174756,0.8427667228368572,-0.16151441064149066,0.3300460194395842
-10121.658828496933,-876.0,668.0,-16528.0,14.0,-788.0,733.0,0.3583189048918079,0.8520156779289284,-0.24102450369625908,0.2959460011191501
-10121.67445898056,-480.0,804.0,-16324.0,55.0,-546.0,1311.0,0.30632480424197656,0.8340120711196832,-0.3514872261566107,0.2950350985586342
-10121.690049171448,-1008.0,1044.0,-16088.0,-67.0,-726.0,781.0,0.26746743507975235,0.8235057280054779,-0.42764108489823127,0.25965860205487146
-10121.705633878708,-1144.0,880.0,-16024.0,89.0,-609.0,639.0,0.2229966607687047,0.813203120182042,-0.48434924956362424,0.2331930081699546
-10121.721221923828,-1176.0,604.0,-16248.0,138.0,-538.0,930.0,0.17057715608267593,0.7841157296664182,-0.5555719279756842,0.2177287054061272
-10121.736882925034,-1420.0,760.0,-16664.0,196.0,-576.0,1760.0,0.09438322005809802,0.7034850971084603,-0.6720769365590309,0.21098131970198913
-10121.752507686615,-1704.0,960.0,-16580.0,125.0,-755.0,1474.0,0.015010374936288933,0.6254726128280761,-0.7585974959243119,0.1819025519987429
-10121.768089294434,-1612.0,888.0,-16328.0,249.0,-443.0,1260.0,-0.047626389624032116,0.5456258802645809,-0.8183141987858926,0.17431579923312637
-10121.78372168541,-1592.0,516.0,-16104.0,-135.0,-479.0,16.0,-0.07555486201415522,0.5518272632773756,-0.8184133236199316,0.14134272549799384
-10121.799308776855,-1552.0,440.0,-16072.0,-216.0,-212.0,-323.0,-0.07617818525771676,0.5785172416684538,-0.8035699055828999,0.11743122252899574
-10121.814895391464,-1860.0,456.0,-15952.0,-81.0,-503.0,-496.0,-0.10201131175149888,0.6178132206250959,-0.774564629607743,0.08916362069927994
-10121.830514192581,-1480.0,848.0,-15632.0,14.0,-77.0,-299.0,-0.10544232755415457,0.6382821703523751,-0.7574165461999186,0.08830607064528828
-10121.846210718155,-1116.0,1452.0,-15716.0,-82.0,-145.0,94.0,-0.11097558342702234,0.6338707368203237,-0.7618824567957514,0.07367109957617013
-10121.861811876297,-948.0,1128.0,-16180.0,-75.0,-116.0,404.0,-0.11683403503502694,0.6080772699941315,-0.7830831034173916,0.05807490952300353
-10121.87740945816,-508.0,1164.0,-16492.0,-182.0,-13.0,722.0,-0.1112281494558923,0.5594945307563283,-0.8204889733471752,0.03730969630099434
-10121.892997026443,-668.0,848.0,-16420.0,-408.0,-58.0,500.0,-0.09665758476092383,0.5270083147193477,-0.8443456006476603,0.0002327913221668643
-10121.90855717659,-932.0,356.0,-16216.0,-338.0,-99.0,708.0,-0.08789936112006363,0.4765655157979152,-0.8740246628155973,-0.03521221743988223
-10121.924293994904,-1084.0,-4.0,-15972.0,-96.0,-142.0,1172.0,-0.09034379468771839,0.38543636592326047,-0.9165288494815556,-0.05702345704453514
-10121.939924001694,-1480.0,76.0,-15992.0,64.0,-176.0,1581.0,-0.09750923964597838,0.2551746837136127,-0.9594571499630086,-0.06942482524415712
-10121.95559167862,-1544.0,852.0,-15992.0,67.0,-160.0,2651.0,-0.09356919765912862,0.03086578056910974,-0.991283408921603,-0.08746034550613495
-10121.97121143341,-1956.0,348.0,-15772.0,354.0,-208.0,2488.0,-0.09121473264574406,-0.18440376973586903,-0.975683860455213,-0.07560507061552346
-10121.986820697784,-1660.0,284.0,-15652.0,504.0,90.0,2362.0,-0.05842770203234497,-0.3805462715318537,-0.9214754239621598,-0.051514870592695085
-10122.002424240112,-1340.0,1236.0,-15656.0,675.0,278.0,2285.0,-0.0032719378366812472,-0.5544495955508293,-0.8320286304729293,-0.01741546696636133
-10122.01802110672,-1224.0,1060.0,-15976.0,830.0,15.0,1528.0,0.03952826962202132,-0.6580799178234055,-0.7507751387703153,0.04129199271823059
-10122.033633470535,-704.0,708.0,-16152.0,1095.0,584.0,747.0,0.13662187839812645,-0.6998201005951364,-0.696407670549395,0.08125666462479078
-10122.049200296402,-1220.0,1032.0,-16228.0,1668.0,714.0,611.0,0.2734743585800756,-0.712333348109151,-0.6300804126688975,0.14419309949444625
-10122.064784526825,-1616.0,1584.0,-16612.0,2248.0,979.0,674.0,0.447428738202233,-0.6913723498754836,-0.5238769167296263,0.21763449675147953
-10122.08036851883,-1732.0,1784.0,-17068.0,2802.0,1171.0,671.0,0.6341272722831218,-0.6128934144526682,-0.37113802996186346,0.2906902609021228
-10122.095994472504,-1944.0,1520.0,-17348.0,3448.0,1138.0,131.0,0.8120957964356936,-0.4341404565131978,-0.2038022220862807,0.33239605247758724
-10122.111583471298,-2796.0,3024.0,-17112.0,3297.0,970.0,-2554.0,0.963239356017307,-0.17186552135965885,-0.1276362595960094,0.1622996328507146
-10122.127237319946,-2064.0,1708.0,-17356.0,3530.0,1116.0,-2168.0,0.9920957155293618,0.12450714468079696,-0.01542651690075905,0.002466724149434517
-10122.142838001251,-2108.0,248.0,-17280.0,3605.0,1248.0,-3590.0,0.8687723442055238,0.40148331431504347,0.12050412141153737,-0.2636750253495393
-10122.158450603485,-848.0,164.0,-17104.0,3151.0,1672.0,-3945.0,0.5894355557030057,0.5783316701764158,0.28395492448598236,-0.4873066855730652
-10122.174039840698,-768.0,-316.0,-17488.0,3802.0,1929.0,-3470.0,0.18213645991546284,0.6943473975789815,0.35768508393434056,-0.5973017513582581
-10122.18963432312,-408.0,896.0,-18664.0,4464.0,2220.0,-2362.0,-0.25302194503740616,0.7275324744345724,0.27344608217369826,-0.5761107828503569
-10122.205219268799,372.0,824.0,-18892.0,5665.0,3059.0,-549.0,-0.6212518236343142,0.6475146823519078,-0.03831602071498819,-0.4396621320131122
-10122.220789194107,172.0,2544.0,-17860.0,6131.0,4207.0,-242.0,-0.8075152140510132,0.4005845693611593,-0.4093253759906593,-0.14108124764115934
-10122.236390829086,104.0,3440.0,-18132.0,6824.0,4142.0,1038.0,-0.7242827384234294,-0.054206073248726915,-0.6724034874886003,0.14265260761016424
-10122.252054691315,-444.0,3328.0,-18920.0,7081.0,4315.0,2515.0,-0.373813135203355,-0.5607879816269982,-0.6742052556553952,0.30203948890633286
-10122.26764202118,-1376.0,4212.0,-18468.0,6885.0,4581.0,4190.0,0.09513054755658863,-0.8961465374880634,-0.33987901949063887,0.26898664349707146
-10122.283274412155,-3976.0,6644.0,-16520.0,5515.0,4056.0,6335.0,0.38607399955871735,-0.8791474813052461,0.24721276643172563,0.13012463676241534
-10122.298847198486,-6628.0,8968.0,-14524.0,3795.0,2690.0,8281.0,0.40412021482570176,-0.4643857457080598,0.7825347646120749,0.0931239675160067
-10122.314465284348,-7804.0,11160.0,-13760.0,935.0,1089.0,8942.0,0.23123275544421087,0.13376352128854832,0.9343397606133939,0.2358981664173589
-10122.330061912537,-7520.0,12428.0,-13032.0,-2320.0,-252.0,7289.0,0.10716542881238232,0.5708804090368402,0.6621040999297206,0.4735285527839295
-10122.34564948082,-6980.0,12420.0,-13360.0,-5602.0,-1639.0,5352.0,0.21390778780202946,0.7366824249936895,0.12239445842410637,0.629731736194174
-10122.36122584343,-6292.0,10684.0,-13876.0,-8121.0,-3229.0,3594.0,0.44215312128684925,0.6180297188311813,-0.47457776057477585,0.4442024686396717
-10122.3768491745,-5216.0,7844.0,-15064.0,-10065.0,-4443.0,3179.0,0.4793211710095253,0.19123262347974745,-0.8541890787944928,-0.06357921364192926
-10122.392465114594,-3996.0,5416.0,-16464.0,-11619.0,-5368.0,3817.0,0.19140815629421742,-0.39655790929296025,-0.7019596415544336,-0.5597833544417123
-10122.408094882965,-3028.0,3096.0,-17356.0,-12553.0,-5476.0,3641.0,-0.25198628312073373,-0.6896927804128101,-0.03419804180410076,-0.6779802915293406
-10122.423694610596,-2584.0,3224.0,-18304.0,-13788.0,-5741.0,4575.0,-0.4899293735396065,-0.43773716819480946,0.6998270957545145,-0.280352307947838
-10122.439321279526,-2684.0,1852.0,-18880.0,-13861.0,-6124.0,5400.0,-0.297656111194234,0.1942079946135457,0.8743917894885422,0.3303378464117238
-10122.454913377762,-2252.0,1972.0,-19208.0,-14016.0,-5731.0,6254.0,0.11299780364607526,0.6882167763940433,0.29424097339526456,0.6534611041495597
-10122.470505952835,-2920.0,2724.0,-19212.0,-13903.0,-5761.0,6174.0,0.4284038611754857,0.5980116047948142,-0.5333542443844655,0.41759490209740596
-10122.486076116562,-4204.0,4648.0,-18208.0,-14298.0,-6316.0,5428.0,0.3886352698804734,0.02341323752455214,-0.8960328331744367,-0.21340011524585095
-10122.50167131424,-2984.0,2360.0,-18228.0,-14946.0,-6288.0,2631.0,-0.013622318898943674,-0.46129866828357635,-0.4785600677654979,-0.746992792875471
-10122.517250537872,-3008.0,3176.0,-17592.0,-15336.0,-5274.0,-1679.0,-0.5524820087260669,-0.412241785502189,0.26430987277614937,-0.6745076956366274
-10122.532880067825,-3028.0,5692.0,-19020.0,-16273.0,-6069.0,-1328.0,-0.5913810560546794,-0.008678931067147662,0.8062937982318551,-0.009134201006787235
-10122.548501968384,-3652.0,3148.0,-19320.0,-15558.0,-6023.0,-3788.0,-0.10133322061181982,0.2909709215395399,0.6270475585735767,0.7154570989974061
-10122.564102888107,-2300.0,3080.0,-18748.0,-15146.0,-5620.0,-2086.0,0.4149319532977334,0.38076113392700284,-0.12411371138410471,0.8169750422562575
-10122.579716682434,-2676.0,3796.0,-18828.0,-14251.0,-6000.0,-93.0,0.49422950925638504,0.17492854583759362,-0.8063573203557441,0.2737244379664367
-10122.59530878067,-3320.0,4832.0,-18124.0,-14078.0,-6227.0,2938.0,0.11835408306756388,-0.2893160433361488,-0.8594299571979225,-0.4045598679556944
-10122.610898971558,-2348.0,3832.0,-17736.0,-14484.0,-6920.0,844.0,-0.427659708775487,-0.4333618009358901,-0.23126922901722322,-0.7588275605758181
-10122.626487016678,500.0,-2808.0,-17140.0,-12049.0,-4541.0,-658.0,-0.6766359640351357,-0.18029098996083098,0.47246069062239165,-0.535200735173074
-10122.642077207565,-1920.0,5516.0,-16088.0,-12524.0,-4016.0,-508.0,-0.4804374958174784,0.23017166124437682,0.8448703905185867,0.04893712494216833
-10122.657650709152,-3080.0,6988.0,-16792.0,-12298.0,-4780.0,1965.0,0.07228043741402837,0.5936100087692525,0.6211839806625822,0.5064910246237274
-10122.67323589325,-3288.0,3668.0,-15284.0,-10409.0,-4824.0,-1869.0,0.6709499195740045,0.4492753192848995,0.1598296354038307,0.5678312958544705
-10122.688860654831,-1952.0,5560.0,-15120.0,-9843.0,-3845.0,4092.0,0.6454606186489199,0.08591993446874584,-0.5072459302918377,0.564535136937116
-10122.704456090927,-3228.0,4424.0,-14884.0,-9255.0,-4919.0,6162.0,0.1326160732451393,-0.3194306664749759,-0.8824534538319665,0.3188305635481421
-10122.72007894516,-3080.0,4284.0,-13628.0,-9018.0,-5016.0,7175.0,-0.47485547431420916,-0.5637387254758442,-0.6678924392397545,-0.10310488600968007
-10122.735692024231,-3072.0,4428.0,-12652.0,-8867.0,-4887.0,6794.0,-0.7770554738789749,-0.43587984689197434,-0.03530745303876644,-0.45271065080033834
-10122.751294136047,-2076.0,4708.0,-12740.0,-8687.0,-4511.0,5117.0,-0.6618652988743887,-0.02958114923168386,0.5820263421467052,-0.4714919074632941
-10122.766868114471,-1932.0,4848.0,-12948.0,-8358.0,-3862.0,2901.0,-0.2812286734269432,0.3376740784661582,0.8845666927869652,-0.15629592440778314
-10122.78243803978,-1976.0,4348.0,-13344.0,-7619.0,-3372.0,1170.0,0.17716790296070248,0.45859320918331914,0.8356358784254352,0.2449826143619235
-10122.79800772667,-1956.0,3916.0,-12896.0,-6551.0,-2492.0,486.0,0.5205834461197375,0.3803147722350487,0.5437450747112869,0.5373033066835886
-10122.813568592072,-2064.0,3900.0,-12900.0,-5416.0,-1913.0,-232.0,0.71680429637,0.19049138783943437,0.18847056883484392,0.6437262434821076
-10122.829289913177,-2332.0,4416.0,-12984.0,-4386.0,-1467.0,-385.0,0.7744127112304657,-0.007046106979084983,-0.1325597697473304,0.6185977792602019
-10122.844885110855,-2816.0,4932.0,-12992.0,-3638.0,-1043.0,-654.0,0.7542685512579015,-0.17907204888893485,-0.37899870671491914,0.5053435803475138
-10122.86050915718,-2164.0,5744.0,-12336.0,-3034.0,-360.0,-943.0,0.7093121596731861,-0.31956925069697545,-0.5311531858137527,0.33560102405778663
-10122.876088142395,-2596.0,5576.0,-12784.0,-2238.0,-27.0,-2493.0,0.6895999654523909,-0.32809857108837004,-0.6412287293540736,0.07502620841273527
-10122.891705989838,-2028.0,6388.0,-12580.0,-1774.0,931.0,-3345.0,0.674601358235095,-0.2402542464725387,-0.6558429182257177,-0.23887438358361576
-10122.907306909561,-3052.0,5772.0,-12796.0,-682.0,1270.0,-4664.0,0.5846769321388972,0.01200395603328193,-0.6116591615270217,-0.5328056495423631
-10122.923106193542,-2564.0,5956.0,-11868.0,162.0,1802.0,-4460.0,0.43620490449217275,0.3155241542551579,-0.482007288041287,-0.6912588253712393
-10122.938779115677,-2684.0,6620.0,-11652.0,550.0,2133.0,-4674.0,0.20850901212751308,0.6033591522763598,-0.27848797426162664,-0.7175835654595335
-10122.954377174377,-3360.0,6516.0,-12216.0,1242.0,2468.0,-5394.0,-0.11903692630394269,0.8059637370433035,-0.024320403069819398,-0.5793627384823983
-10122.969984769821,-4352.0,6228.0,-12960.0,2051.0,2581.0,-5711.0,-0.4735740597723711,0.8038657343998249,0.21386401585204134,-0.2894644601538896
-10122.985583782196,-3960.0,6140.0,-12964.0,3106.0,2794.0,-6106.0,-0.7541727266610853,0.5311979917719596,0.3766306006886751,0.08486213833570977
-10123.001149177551,-3864.0,6108.0,-12948.0,4596.0,3287.0,-6370.0,-0.8251120337339617,-0.0039668756233592435,0.3931274483641418,0.40574031723245557
-10123.016738176346,-4164.0,6140.0,-13588.0,5387.0,3794.0,-7499.0,-0.5185273681920423,-0.590847100573089,0.23245265984815588,0.5727083316224113
-10123.032350063324,-4244.0,5500.0,-13772.0,6701.0,3852.0,-7952.0,0.10515572071947872,-0.8967968242254485,-0.012118963948158624,0.4295938327908585
-10123.04797911644,-2968.0,2608.0,-15068.0,8401.0,5290.0,-10139.0,0.7213582441113059,-0.6329576748104068,-0.27773807643232307,-0.04322529873731635
-10123.063574314117,-1500.0,-1804.0,-16864.0,11684.0,6663.0,-11934.0,0.7970934044542147,0.2239696776937515,-0.3018696093138774,-0.4726038796095878
-10123.07917046547,-1040.0,-4912.0,-18232.0,15569.0,8334.0,-12312.0,0.09602830832080884,0.9280385269369757,-0.058185515172532475,-0.3551584186610236
-10123.09478878975,-2744.0,-2080.0,-17472.0,17523.0,9837.0,-18500.0,-0.7143491112559498,0.5701232640602245,0.3788702325080419,0.14533464124031997
-10123.110392332077,3224.0,4776.0,-21800.0,23857.0,13597.0,-19480.0,-0.6778263644789454,-0.5585722598304198,0.2588075781463461,0.4019540865064277
-10123.126019716263,-11244.0,32767.0,-13744.0,6920.0,11979.0,-12743.0,-0.08533149608102636,-0.8720019968661028,-0.4308078878395572,0.2161842200839885
-10123.141627788544,-13168.0,13884.0,-10680.0,8100.0,6781.0,-29009.0,0.4639098733294395,0.010630281093826079,-0.8824838151785458,0.07679155226486745
-10123.157213449478,712.0,7892.0,-13624.0,7514.0,10702.0,-9271.0,0.7811070576821235,0.5567001102190607,-0.22701567561565522,0.16858420669217178
-10123.172799348831,-2864.0,-128.0,-20224.0,10727.0,7548.0,-1032.0,0.2787745022889835,0.7864745545030408,0.3253351197718572,0.44485909211322666
-10123.188387870789,-8488.0,-1104.0,-23904.0,10994.0,7078.0,3183.0,-0.5189214187034148,0.5637740892688077,0.45767943144722184,0.45100873107968725
-10123.203994989395,-18432.0,16504.0,-23792.0,6202.0,9793.0,-5249.0,-0.6748644096369266,-0.2089816989793618,0.3457437313091982,0.6175321452017659
-10123.219553232193,-13292.0,2944.0,-24652.0,8868.0,8362.0,-10065.0,-0.13080023616285133,-0.8719671429266993,0.08668952576756205,0.4637343269569191
-10123.235163211823,-3896.0,-4428.0,-13304.0,10366.0,9619.0,-1678.0,0.4095193045658911,-0.8727823860991215,0.16839113135049807,-0.20540027406381978
-10123.250784635544,216.0,3716.0,-9148.0,7578.0,8924.0,-4613.0,0.5202552752827463,-0.3433208601642053,7.973124326559986e-05,-0.7819624218333723
-10123.266393184662,5164.0,5680.0,-13456.0,4278.0,8073.0,-5290.0,0.21129824483710688,0.2953196577120334,-0.06178978002735312,-0.9296888590177774
-10123.28201341629,1348.0,1004.0,-16604.0,4808.0,5351.0,-773.0,0.04524754232778029,0.6954356535472297,-0.2818640271310757,-0.6594502118417169
-10123.297593355179,-2928.0,760.0,-18176.0,5262.0,6041.0,1137.0,-0.04907912742951186,0.8462336602692072,-0.5144703156040634,-0.12961529940710337
-10123.313176870346,-4724.0,2540.0,-19252.0,4086.0,5595.0,3122.0,-0.053331114425089525,0.6265894501342478,-0.6794363276032701,0.37803138751646126
-10123.328758239746,-2736.0,88.0,-17508.0,4261.0,5408.0,2742.0,-0.04714308680758269,0.22324288042835935,-0.5996805174789972,0.7670224394764629
-10123.34434890747,-2752.0,3320.0,-14092.0,3120.0,6057.0,-26.0,0.18120618535019556,-0.16645965248035233,-0.35713613504638797,0.9010600887460718
-10123.359953165054,-2900.0,2536.0,-14620.0,3217.0,4892.0,-2590.0,0.5098426828513963,-0.36645307252583775,-0.056430062812355165,0.7762655682112001
-10123.37553524971,-1580.0,884.0,-16668.0,3007.0,5166.0,-1900.0,0.6666996856555751,-0.5031085007943769,0.2774879192297931,0.47475659053530944
-10123.391120910645,-912.0,564.0,-17412.0,2643.0,5372.0,-308.0,0.5894137476846707,-0.5135129832754256,0.6079272268157042,0.1389976148861947
-10123.406703710556,-128.0,1628.0,-17068.0,2671.0,4681.0,680.0,0.4086411469578798,-0.3586584670368754,0.8237989235522926,-0.16041150391973513
-10123.422270536423,-256.0,3020.0,-15960.0,2366.0,3853.0,1079.0,0.20436610037157021,-0.13232765677578806,0.8914212461855698,-0.38221989759837444
-10123.437901496887,-1168.0,1380.0,-16104.0,2750.0,3204.0,668.0,0.008478046418742525,0.07078868794143287,0.8101875776772889,-0.581818849269993
-10123.453511953354,-1136.0,1236.0,-16644.0,2378.0,3407.0,138.0,-0.22569612708713946,0.24003136543092923,0.649894043152899,-0.6848970247428495
-10123.46912240982,-1704.0,984.0,-16708.0,2277.0,2789.0,-1452.0,-0.49088688501680394,0.2648645148294333,0.4636374314466152,-0.6884164343362622
-10123.484736919403,-364.0,1576.0,-16032.0,1315.0,2992.0,-2642.0,-0.7520163825996898,0.26432082875471485,0.2983476013012105,-0.5249710169008489
-10123.500329256058,-936.0,576.0,-15828.0,1187.0,2270.0,-3174.0,-0.9268758040974804,0.19596013263590378,0.1586751510767715,-0.2780702548399095
-10123.515917301178,-844.0,64.0,-16780.0,1135.0,2232.0,-2257.0,-0.989980862839584,0.12216041059970631,-0.01019976296573199,-0.07007631646246247
-10123.53152513504,124.0,248.0,-17388.0,988.0,2180.0,-917.0,-0.9799453790999222,0.05004345743076422,-0.19012781423500305,0.03246722352319248
-10123.547112226486,168.0,1000.0,-16480.0,467.0,1927.0,-635.0,-0.9328300468426112,0.014971150360289643,-0.3454713230623497,0.10125973190785771
-10123.562690496445,-500.0,1056.0,-15936.0,343.0,1681.0,-1271.0,-0.8564785523562886,0.010316072033996137,-0.4698227381858585,0.2135524822965263
-10123.578267335892,100.0,1440.0,-16744.0,43.0,1547.0,-2005.0,-0.7377446332173483,0.0590278471867437,-0.569369768319887,0.3578639913973701
-10123.593861579895,-188.0,816.0,-16708.0,-87.0,1317.0,-2472.0,-0.5774596961408719,0.1421473820286334,-0.6259488990445025,0.5045021277460313
-10123.609421253204,340.0,860.0,-16260.0,-266.0,1491.0,-2751.0,-0.35821920372099153,0.23168505596962022,-0.654756576000724,0.6239349830788947
-10123.625015258789,-1160.0,564.0,-16164.0,-766.0,1071.0,-2623.0,-0.1342806731955177,0.33638736069698094,-0.6559537153819897,0.6622212376887662
-10123.640702486038,-508.0,124.0,-16412.0,-568.0,1509.0,-1781.0,0.07021209637800122,0.3502683144617092,-0.6404547460648751,0.6798529897333216
-10123.656290531158,-228.0,-48.0,-16580.0,-682.0,1004.0,-579.0,0.18025890917730747,0.3168159873672238,-0.6527868827359145,0.6640810504288356
-10123.67192029953,-124.0,716.0,-16236.0,-1095.0,1247.0,-194.0,0.289693353421752,0.23598367570236645,-0.684231478857199,0.6262721047006249
-10123.687499761581,-140.0,680.0,-16304.0,-1200.0,838.0,-325.0,0.3788783815743505,0.17781543929098578,-0.7160414797145305,0.5586747182874666
-10123.70312333107,-24.0,900.0,-16616.0,-1370.0,849.0,-87.0,0.4528281529569769,0.09567891079636617,-0.7462542671764018,0.4784315819836783
-10123.718709945679,468.0,896.0,-16356.0,-1369.0,710.0,250.0,0.4953125099851945,-0.004263734021730598,-0.7705205873932263,0.401179962644642
-10123.734321117401,176.0,1268.0,-16200.0,-1459.0,681.0,155.0,0.5296910476624064,-0.10058158140252903,-0.7845293581218536,0.3063077304832203
-10123.749997854233,-260.0,1188.0,-16368.0,-1424.0,644.0,159.0,0.5516483035093331,-0.1927180552002124,-0.7842866883171493,0.20841854755189487
-10123.765583992004,-736.0,580.0,-16560.0,-1095.0,434.0,490.0,0.5503715624431472,-0.28514551262827986,-0.77049148341693,0.14874829028873893
-10123.781175374985,-36.0,1276.0,-16824.0,-1220.0,665.0,1524.0,0.5360732785510222,-0.4477061154685699,-0.705311208371384,0.12132919492562372
-10123.79676270485,-1844.0,-744.0,-13844.0,-1211.0,-2868.0,4962.0,0.2309666354333425,-0.6940380736460225,-0.5863494596620216,0.3480802735007762
-10123.812357664108,-452.0,716.0,-16676.0,-1347.0,1368.0,2059.0,0.15212944635738684,-0.8430985187328086,-0.4613288824714078,0.23068849442315242
-10123.82801437378,1408.0,284.0,-16796.0,-875.0,612.0,3227.0,0.04532789702463373,-0.955838377281811,-0.22379906471695432,0.18501988244082132
-10123.843621969223,260.0,1516.0,-16232.0,-1144.0,89.0,2061.0,-0.08008728215649474,-0.9815104651980887,-0.06856508810014293,0.15975626008778884
-10123.8592171669,364.0,1508.0,-16612.0,-1202.0,472.0,2143.0,-0.2051937153808283,-0.9697114981534828,0.09275831876042079,0.09460995623019777
-10123.874816179276,836.0,1408.0,-16540.0,-998.0,295.0,2768.0,-0.3046510574274632,-0.9023918016971162,0.30355094614664363,0.027084913358520608
-10123.890421390533,112.0,1388.0,-16804.0,-978.0,64.0,2807.0,-0.3772037295396936,-0.7765928584874964,0.5039377636368831,-0.025838129735374457
-10123.906009197235,0.0,1216.0,-16248.0,-883.0,10.0,2587.0,-0.4195852681188769,-0.616562206076449,0.6624082614261393,-0.07081344512274591
-10123.921723365784,-164.0,1336.0,-16292.0,-756.0,71.0,3517.0,-0.422037661220417,-0.3675604231500505,0.8146088369272765,-0.15230230019716257
