programtime,ax,ay,az,gx,gy,gz,q0,q1,q2,q3
-205.50147557258606,-3436.0,12376.0,8752.0,-1512.0,-1518.0,-2251.0,0.9651868306946328,-0.12704649893010667,-0.12777356586089847,-0.1895982194812047
-205.509263753891,-3088.0,12368.0,8940.0,-1518.0,-1360.0,-2099.0,0.8705951960555461,-0.24583424239571364,-0.23297386485758442,-0.35686511200179105
-205.51704597473145,-3300.0,12444.0,9064.0,-1461.0,-1357.0,-1797.0,0.735814876881176,-0.352780804610496,-0.3204541151229588,-0.4810731035502526
-205.52483773231506,-3204.0,12428.0,9040.0,-1369.0,-1531.0,-1571.0,0.5705425468949844,-0.4495515414466523,-0.39964029748974206,-0.559171035004348
-205.53261423110962,-3324.0,12332.0,9320.0,-1288.0,-1106.0,-1348.0,0.40836589685924535,-0.51143033760953,-0.4370193698921421,-0.6170011137704868
-205.54040265083313,-3224.0,12352.0,9408.0,-1210.0,-918.0,-1209.0,0.25059902465090556,-0.5499120218808008,-0.4521281215319518,-0.6560312940363234
-205.54821491241455,-3108.0,12132.0,9344.0,-1158.0,-664.0,-1064.0,0.10663017566451445,-0.5649105376008127,-0.4465090804389229,-0.6856644450683608
-205.55600786209106,-3108.0,11888.0,9488.0,-1271.0,-442.0,-852.0,-0.024122211754970233,-0.5644270536851244,-0.41261843902104406,-0.7145531776909364
-205.56378388404846,-3192.0,11724.0,9376.0,-844.0,-311.0,-619.0,-0.11510160738577743,-0.5570855938995627,-0.3880897086290507,-0.7251162935026357
-205.5715777873993,-3232.0,11812.0,9384.0,-664.0,-272.0,-364.0,-0.17932278969982832,-0.5537834001898396,-0.3601809331901556,-0.7289972415137933
-205.57938885688782,-3200.0,12176.0,9496.0,-581.0,-210.0,-275.0,-0.23123609091805236,-0.5482920540381914,-0.33268649751344614,-0.7315909978312712
-205.58717322349548,-3032.0,12648.0,9652.0,-550.0,-144.0,-152.0,-0.2712258213350709,-0.5410923594516206,-0.30159678384678246,-0.7366783506778732
-205.5949263572693,-3168.0,12804.0,9572.0,-540.0,-127.0,-131.0,-0.3082578132195149,-0.5321959897800681,-0.26980139845306117,-0.740912784640614
-205.60270357131958,-3236.0,13400.0,9888.0,-611.0,-153.0,-114.0,-0.34722045141113117,-0.5219770866316963,-0.23120715795099936,-0.7439900061597323
-205.61049032211304,-3328.0,13708.0,10040.0,-580.0,2.0,-96.0,-0.37948715144303313,-0.5014970610736468,-0.19784358514960762,-0.7518963462069075
-205.61829495429993,-3480.0,13808.0,10452.0,-586.0,81.0,-104.0,-0.4101458811740792,-0.47414876456747707,-0.16654197049968214,-0.7610696927858553
-205.62607097625732,-3612.0,13892.0,10472.0,-526.0,270.0,-43.0,-0.43041138917593147,-0.4360049150963399,-0.14303637509413997,-0.777294246395409
-205.63385462760925,-3480.0,13888.0,10372.0,-552.0,464.0,-115.0,-0.4526408301923792,-0.3814188222425565,-0.12735247622002482,-0.7958751834819848
-205.64166855812073,-3608.0,13972.0,10144.0,-477.0,650.0,-101.0,-0.46725343841747996,-0.3153715850932462,-0.12320754320897728,-0.8167220389454565
-205.64944624900818,-3672.0,13904.0,10164.0,-539.0,825.0,-89.0,-0.4778747536781641,-0.2326565927515296,-0.1207197804785439,-0.8384112142901567
-205.6572141647339,-3500.0,13756.0,9816.0,-517.0,997.0,-74.0,-0.4810231928942877,-0.13666365283694068,-0.12567982862102903,-0.856822218764685
-205.6650252342224,-3356.0,13772.0,9916.0,-487.0,1124.0,-102.0,-0.4793954475451296,-0.03090523605063938,-0.13719187984252343,-0.8662581943987218
-205.6728012561798,-3412.0,13804.0,9960.0,-471.0,1219.0,-70.0,-0.4682987841546984,0.08116518441515566,-0.15208722827831875,-0.8665898318078188
-205.68062162399292,-3480.0,13724.0,9976.0,-586.0,1280.0,-118.0,-0.4526091952531305,0.2017980515947019,-0.15833240039065352,-0.8540218461675494
-205.68841814994812,-3520.0,13668.0,9936.0,-696.0,1341.0,-136.0,-0.42815877146394365,0.32806374301757857,-0.15592931573407295,-0.8274903597205749
-205.69622015953064,-3524.0,13808.0,9508.0,-805.0,1527.0,-137.0,-0.38972756883763643,0.464828682380787,-0.14945339339365699,-0.7808395490285874
-205.70401787757874,-3348.0,13592.0,9804.0,-931.0,1275.0,-172.0,-0.34369487760058504,0.5799405523962012,-0.12139600610550284,-0.7285642020434031
-205.7117977142334,-3516.0,13588.0,9920.0,-1017.0,1268.0,-190.0,-0.2878759703646262,0.6860262656570079,-0.08441172325790189,-0.6628499449286818
-205.71957445144653,-3708.0,13488.0,10004.0,-1060.0,1171.0,-137.0,-0.22152559982418776,0.7739734830009168,-0.04397909030709565,-0.5915718856146931
-205.72735333442688,-3604.0,13272.0,9952.0,-1280.0,1160.0,-172.0,-0.13783734796312308,0.8495393713482386,0.011107606285321713,-0.5090779342284859
-205.73515224456787,-3596.0,12996.0,9952.0,-922.0,1094.0,-34.0,-0.07140828687397237,0.9021728019420157,0.041062993061741236,-0.42343703499177815
-205.74293112754822,-3532.0,12856.0,10024.0,-767.0,1085.0,230.0,-0.006271844853078798,0.9413622302426814,0.044189761843461926,-0.33443247507214713
-205.75071620941162,-3464.0,12744.0,10196.0,-540.0,1044.0,95.0,0.03673663105481591,0.9673751586216514,0.05127513445018931,-0.2453702977289473
-205.75849390029907,-3216.0,12756.0,9972.0,-436.0,1181.0,97.0,0.07000945845958986,0.985726547110019,0.05585085657235939,-0.14255711791730447
-205.76629066467285,-3248.0,12556.0,9876.0,-417.0,1201.0,117.0,0.1009564100922417,0.9925395602525672,0.0579424094780523,-0.036272603694869725
-205.77406787872314,-3196.0,12844.0,9840.0,-404.0,1252.0,200.0,0.1294836578553381,0.9873056985095321,0.05257125485005787,0.0754831319070482
-205.78189039230347,-3160.0,12748.0,9760.0,-404.0,1187.0,307.0,0.1559423681451559,0.9701719209032896,0.03664281753158385,0.18194978876450704
-205.78967094421387,-3256.0,12728.0,9696.0,-506.0,1196.0,327.0,0.1885920755276856,0.9389194397385444,0.017094951871305136,0.2873518354730575
-205.79744958877563,-3044.0,12604.0,9536.0,-624.0,1189.0,305.0,0.2287694265233056,0.8928199406994164,-0.003922978054246719,0.3879712788607865
-205.8052339553833,-3096.0,12448.0,9636.0,-722.0,1153.0,325.0,0.27251405223799696,0.8330138003043771,-0.030408596116155946,0.4805199445574866
-205.8132085800171,-3264.0,12528.0,9820.0,-676.0,1114.0,383.0,0.3065308102155112,0.7637865346204312,-0.0596322051802143,0.5649008692031547
-205.82147574424744,-3268.0,12284.0,9472.0,-653.0,1062.0,363.0,0.33566805275960776,0.6875908862296084,-0.08697218189322635,0.6379510726594059
-205.82939291000366,-3356.0,12340.0,9616.0,-565.0,996.0,449.0,0.3502496627844896,0.6085961201146539,-0.11542078847114326,0.7025766704705194
-205.8372049331665,-3424.0,12276.0,9524.0,-358.0,826.0,573.0,0.3410992691031013,0.5388193612540301,-0.1418012038380196,0.7571112224404137
-205.84503507614136,-3568.0,12436.0,9720.0,-146.0,658.0,741.0,0.30609497079193476,0.4799172625421105,-0.1659051227693544,0.8052706254476547
-205.85281562805176,-3316.0,12572.0,9744.0,28.0,561.0,785.0,0.25707253547634923,0.4282832628463245,-0.18100067587397833,0.8471870593928063
-205.86059403419495,-3220.0,13112.0,9836.0,119.0,524.0,775.0,0.2030109508830168,0.37861761416637746,-0.18857191549659552,0.8831058196787508
-205.86837720870972,-3096.0,13416.0,9892.0,109.0,536.0,790.0,0.14691277791414875,0.32502425328358575,-0.19587393736071887,0.9134600544773729
-205.87619614601135,-2948.0,13436.0,9824.0,13.0,563.0,1019.0,0.07461729596011128,0.26146733607854544,-0.21518833170191842,0.9379557949108985
-205.88398337364197,-2788.0,13316.0,9768.0,-73.0,561.0,799.0,0.021385517302146304,0.1992596891230733,-0.23465201625910942,0.9511974911688057
-205.89176273345947,-2820.0,13212.0,9644.0,-202.0,600.0,879.0,-0.03559675103153051,0.13041140412888275,-0.26416854138272056,0.9549558726626368
-205.89958381652832,-2748.0,12936.0,9764.0,-277.0,549.0,921.0,-0.09609420292307198,0.06390569894298972,-0.2978142305803182,0.9476226305186262
-205.90737223625183,-2784.0,12904.0,9812.0,-274.0,516.0,967.0,-0.1603726054984361,-0.0016764503704523848,-0.32836779045743913,0.9308342554450268
-205.9151656627655,-2776.0,12832.0,10100.0,-324.0,530.0,769.0,-0.2069790094594064,-0.062084228946838974,-0.3604279625918365,0.9074122116993891
-205.92294788360596,-2848.0,12880.0,9912.0,-217.0,503.0,1038.0,-0.27317243328616253,-0.13004793666701073,-0.378873177670894,0.8745967477087536
-205.9307403564453,-2932.0,12892.0,9796.0,-250.0,467.0,1120.0,-0.3441393315307058,-0.19570555654045155,-0.3938681857997136,0.8295392141711165
-205.93851017951965,-2956.0,12880.0,9808.0,-191.0,387.0,1136.0,-0.41412417865855183,-0.2556783911073119,-0.39747756439043325,0.7779082920096722
-205.94632983207703,-2940.0,12920.0,9756.0,-134.0,340.0,1215.0,-0.48496012178300674,-0.3142176240009981,-0.3891629215869289,0.717379387429904
-205.9541139602661,-2960.0,12792.0,9784.0,-35.0,363.0,1338.0,-0.5534456686587148,-0.3782103791617569,-0.36713142089785333,0.6448793071007561
-205.96190333366394,-2984.0,12556.0,9720.0,59.0,385.0,1406.0,-0.6134672856225716,-0.4442383473298808,-0.333087184038371,0.5615719972201949
-205.96968245506287,-3060.0,12792.0,9608.0,132.0,424.0,1422.0,-0.6602871517702614,-0.5091618323074879,-0.29150927820876815,0.4688256034461004
-205.97750186920166,-2928.0,12812.0,9708.0,217.0,408.0,1382.0,-0.6913704334430828,-0.5689228527760186,-0.24256059524079993,0.3734944028849016
-205.98528409004211,-2960.0,13036.0,9640.0,230.0,342.0,1397.0,-0.7126435547575211,-0.6184863323659358,-0.18465404363332383,0.2748030289297402
-205.99307537078857,-2904.0,13344.0,9480.0,176.0,223.0,1314.0,-0.7262166076354809,-0.6513853285304302,-0.1223804387074977,0.18256401833734304
-206.00084924697876,-2672.0,13496.0,9428.0,141.0,126.0,1181.0,-0.7318340561951344,-0.6711604161584869,-0.06055278161460934,0.1014690623474798
-206.00865006446838,-2632.0,13744.0,9668.0,60.0,251.0,1040.0,-0.7331441252460867,-0.6795959096043563,-0.015037998731953325,0.020565744827642327
-206.01642632484436,-2500.0,13820.0,9636.0,9.0,255.0,856.0,-0.7317315435985416,-0.679543244597078,0.019351386154813802,-0.049147234706122256
-206.02425456047058,-2348.0,13656.0,9384.0,-76.0,25.0,777.0,-0.7313897089441019,-0.6715719346251662,0.06395481244002439,-0.09984994862409519
-206.03204083442688,-2388.0,13404.0,9508.0,-238.0,99.0,656.0,-0.7389143761083807,-0.6504982414955466,0.09787929871536079,-0.1458671500871708
-206.03981733322144,-2480.0,13224.0,9636.0,92.0,127.0,672.0,-0.7250416315623224,-0.6477936208115519,0.12631682163261934,-0.1967793635266106
-206.04759645462036,-2576.0,13176.0,9524.0,195.0,159.0,644.0,-0.7035639647931775,-0.6490335570908398,0.14890770208078802,-0.24815254476941292
-206.05537700653076,-2892.0,13156.0,9616.0,243.0,155.0,531.0,-0.6795030208595649,-0.6527154158616922,0.16383480841467746,-0.29222660058754063
-206.0631468296051,-3156.0,13220.0,9232.0,4.0,115.0,411.0,-0.6701069016276121,-0.6436303428340193,0.1800540592297219,-0.3229198939819352
-206.07095289230347,-3384.0,13428.0,9012.0,305.0,39.0,356.0,-0.6431449265776737,-0.654172971296578,0.18886096953507314,-0.35036247120471825
-206.07874846458435,-3416.0,13668.0,8700.0,269.0,-116.0,314.0,-0.615975387416186,-0.6671322094767747,0.2047800353288419,-0.36547787115889085
-206.08652520179749,-3356.0,13928.0,8484.0,2.0,-9.0,146.0,-0.6111267253311646,-0.6648211140850554,0.21353777029551527,-0.3727447283462674
-206.094309091568,-3236.0,13824.0,8340.0,194.0,-362.0,149.0,-0.5879844824898891,-0.6836380025392274,0.2348659096188441,-0.36297566631137346
-206.10208415985107,-3128.0,14024.0,8380.0,248.0,-472.0,66.0,-0.5609389866818262,-0.7091564390654836,0.25475741977441163,-0.342845818440612
-206.10985159873962,-2724.0,13864.0,8584.0,247.0,-567.0,-101.0,-0.5353987646477678,-0.7393261167469571,0.2683559636424268,-0.3077826062126534
-206.11766839027405,-2428.0,14028.0,8636.0,225.0,-474.0,-4.0,-0.5094833863629586,-0.76183764147079,0.28380390153959795,-0.28193160966670316
-206.1254677772522,-2432.0,13520.0,8924.0,262.0,-603.0,-374.0,-0.4853991197807332,-0.7958272442029541,0.27860445616624685,-0.2311411882480724
-206.13324975967407,-2336.0,13192.0,9072.0,292.0,-674.0,-666.0,-0.46056562703965653,-0.8348358347066496,0.25397913472424855,-0.16255162688801908
-206.14105343818665,-2592.0,13120.0,9156.0,370.0,-805.0,-750.0,-0.4243494782264173,-0.8732486545817144,0.22522345920800135,-0.08147822422325549
-206.14883708953857,-2888.0,13100.0,9100.0,414.0,-942.0,-848.0,-0.3778743684721687,-0.9057985647336572,0.1911967692150465,0.013554232546876873
-206.1566355228424,-2928.0,13252.0,9040.0,488.0,-1040.0,-892.0,-0.3184406180791228,-0.9280595626471533,0.15428432579452803,0.11617817243651658
-206.16441321372986,-3148.0,13424.0,8920.0,497.0,-1056.0,-820.0,-0.2537984582759865,-0.934947183604938,0.12130270961467896,0.21620767582596037
-206.1722526550293,-3244.0,13516.0,8892.0,508.0,-1118.0,-801.0,-0.18399798430273454,-0.9259882990441648,0.08956322374876355,0.3172835337006225
-206.18007469177246,-3200.0,13776.0,8836.0,487.0,-1271.0,-637.0,-0.11617163943465067,-0.8958698283084428,0.07138807343389764,0.4228772208207289
-206.1878514289856,-2968.0,13804.0,8844.0,462.0,-1010.0,-560.0,-0.05287651382721489,-0.8616520793225833,0.05461108876139931,0.5017742495075288
-206.19563698768616,-2988.0,13816.0,9112.0,521.0,-402.0,-758.0,0.021240995924499025,-0.8467740075263746,0.022242926894571115,0.5310629458670804
-206.20343589782715,-3212.0,13808.0,9228.0,505.0,-55.0,-415.0,0.0776901851421056,-0.8426729221524107,0.014913419981515411,0.5325825488205159
-206.2112181186676,-3572.0,13512.0,9448.0,755.0,218.0,-386.0,0.15036426408053388,-0.8456871442181326,0.02309285449643071,0.5115374495214456
-206.219007730484,-3648.0,13224.0,9428.0,346.0,292.0,-394.0,0.19257484548636009,-0.8537744093553262,0.013329948064379466,0.48353541680053685
-206.2267942428589,-3400.0,13076.0,9068.0,226.0,277.0,-359.0,0.22396477175065727,-0.8612159734538857,0.0008246587890605887,0.4562303672712211
-206.23455667495728,-3504.0,13000.0,8740.0,179.0,140.0,-507.0,0.2572407237242215,-0.8622936329952472,-0.027339764010994402,0.43534978793783746
-206.24234127998352,-3700.0,12972.0,8556.0,226.0,-82.0,-353.0,0.2872171683369259,-0.8526493440111109,-0.04707931113920142,0.4339112038569625
-206.25012922286987,-4016.0,12984.0,8128.0,237.0,-373.0,-544.0,0.32327268591162356,-0.8287771737653347,-0.0877264844582239,0.4482490721837916
-206.25790691375732,-4216.0,13048.0,7856.0,287.0,-721.0,-704.0,0.3644921517250269,-0.7837880056483781,-0.14710249386331078,0.48081461066797093
-206.26569199562073,-4664.0,13244.0,7820.0,504.0,-770.0,-725.0,0.417299038361645,-0.7223405146289743,-0.19894827019069278,0.5143007673493458
-206.27347493171692,-5032.0,13480.0,7908.0,667.0,-1323.0,-520.0,0.4554340149988682,-0.6237624091208422,-0.24759289388680036,0.5849769857409205
-206.28128266334534,-5208.0,13684.0,8144.0,1017.0,-1510.0,-1019.0,0.5216053274769603,-0.4763346296228278,-0.3060437908779667,0.6382557489241908
-206.289071559906,-5232.0,13732.0,7996.0,737.0,-1686.0,-676.0,0.5370641705079775,-0.3260018176002051,-0.36443315411419985,0.6873669819392813
-206.29685020446777,-5176.0,13692.0,8512.0,545.0,-1673.0,-502.0,0.5228674026002721,-0.18174692423617744,-0.41898842604997405,0.7197405321814936
-206.30462622642517,-5116.0,13332.0,8860.0,419.0,-1639.0,-205.0,0.47724094559133967,-0.051540930195310045,-0.4654395676963661,0.7436064961982958
-206.31240510940552,-5104.0,13100.0,9380.0,347.0,-1546.0,175.0,0.40082413690315843,0.05564990753857149,-0.5015421580197397,0.7646558459828114
-206.32021379470825,-4956.0,12900.0,9740.0,243.0,-1410.0,585.0,0.2962390435597333,0.13147809840298408,-0.5325287432995727,0.7819009376327207
-206.32798624038696,-4784.0,12780.0,10012.0,144.0,-1300.0,997.0,0.16446820734575196,0.17578298606084602,-0.5618765897667028,0.7914197675419457
-206.33577275276184,-4452.0,12968.0,10176.0,101.0,-1128.0,1338.0,0.015010838866864787,0.18734198804308697,-0.5847157902177247,0.7891673453093704
-206.34358644485474,-4128.0,12916.0,10272.0,-14.0,-933.0,1398.0,-0.12732332885654288,0.1783049986403514,-0.603217470669276,0.766892939378186
-206.3513822555542,-3940.0,12908.0,10260.0,-101.0,-624.0,1452.0,-0.25342739096191375,0.14333921331334543,-0.6196693896971146,0.7288609434654557
-206.35916304588318,-4052.0,12928.0,10184.0,-163.0,-348.0,1636.0,-0.3703883685768961,0.07968130675681187,-0.635927309192806,0.6723539270349131
-206.36695432662964,-3908.0,12992.0,9832.0,-112.0,-112.0,1638.0,-0.46724012922790076,-0.0011114033775894458,-0.6435848235658109,0.6062045869979795
-206.3747341632843,-4292.0,13104.0,9668.0,-73.0,-48.0,1785.0,-0.5577441729345554,-0.09481236116336847,-0.6375133655923202,0.5229806520506551
-206.38254570960999,-4388.0,13080.0,9436.0,-46.0,44.0,1970.0,-0.6363585965495684,-0.20134341671865935,-0.6162839777273957,0.4179744297657679
-206.39033603668213,-4604.0,13456.0,9144.0,-7.0,89.0,2140.0,-0.6977800716156191,-0.31397309653121863,-0.5737923347923277,0.2920380503363713
-206.39815020561218,-4780.0,13812.0,8964.0,255.0,79.0,2398.0,-0.7319963870238112,-0.44199494847886006,-0.4953496771711465,0.15313540488632055
-206.40593314170837,-4912.0,13540.0,8912.0,-39.0,82.0,2627.0,-0.745782991760321,-0.5401553057388729,-0.38945189595190877,-0.01916234908964428
-206.41372632980347,-4808.0,13520.0,8812.0,-17.0,21.0,2945.0,-0.7177196966465202,-0.6189125069185064,-0.24385535002913752,-0.20581621434581807
-206.4215042591095,-4796.0,13204.0,8680.0,33.0,-243.0,2988.0,-0.645840975753732,-0.6663600829922137,-0.06560864070110208,-0.3668094602071096
-206.429297208786,-4536.0,13308.0,8576.0,110.0,-143.0,3217.0,-0.5173599660602816,-0.6695035771392593,0.12122409550065776,-0.5190456091576997
-206.43705368041992,-4812.0,12868.0,8516.0,271.0,-275.0,3293.0,-0.33579134924227516,-0.633342882174286,0.3013179086444964,-0.6287515258854868
-206.44486212730408,-4552.0,12948.0,8292.0,460.0,-387.0,3433.0,-0.10703490405098906,-0.5527641886396614,0.45645817210393147,-0.6889421007543887
-206.45264148712158,-4572.0,12904.0,8212.0,582.0,-441.0,3502.0,0.14239123695748465,-0.42495187224131276,0.5674732160985363,-0.6907349643148984
-206.46041750907898,-4360.0,12860.0,8356.0,742.0,-382.0,3640.0,0.3882159085770494,-0.2456982248839728,0.6208136428961808,-0.6352253233385254
-206.46822905540466,-4756.0,12976.0,8288.0,827.0,-540.0,4009.0,0.6186169754316218,-0.028492336526351452,0.6045137034844973,-0.5010632762102596
-206.47600626945496,-4664.0,12972.0,8108.0,928.0,-585.0,4097.0,0.779354449517069,0.1991281009274609,0.5086709137749711,-0.3069341019148984
-206.4837784767151,-4396.0,13016.0,8024.0,1004.0,-741.0,4600.0,0.8476350357763919,0.4172582943428688,0.3242854431693176,-0.04742692563211427
-206.49158239364624,-4352.0,12852.0,8108.0,958.0,-716.0,4920.0,0.7805340704014561,0.5711542284475971,0.0804212623370349,0.24100172786327168
-206.4993588924408,-4284.0,12584.0,8072.0,880.0,-844.0,5217.0,0.573430557616457,0.6208751062491827,-0.19791597499202968,0.4965085748249466
-206.5071358680725,-4364.0,12592.0,7824.0,769.0,-1019.0,5445.0,0.25011324723941747,0.5477014655241584,-0.458812501508861,0.6534198930834784
-206.51493549346924,-4224.0,12172.0,7668.0,664.0,-1142.0,5801.0,-0.14037437958761714,0.35056411762081696,-0.6417758995136612,0.6674754885353924
-206.5227177143097,-3960.0,11860.0,7584.0,594.0,-1371.0,5917.0,-0.5120127967546936,0.08089255147381652,-0.6808183710213521,0.5174800834383146
-206.530499458313,-3748.0,11652.0,7596.0,614.0,-1491.0,6456.0,-0.775325708091041,-0.22737687368124487,-0.54644344568264,0.2203845828513249
-206.53830456733704,-3512.0,11532.0,7452.0,603.0,-1557.0,7018.0,-0.8230487640325935,-0.48491431449204714,-0.24540820754490328,-0.1649959129637037
-206.5460798740387,-3476.0,11332.0,7624.0,626.0,-1632.0,7452.0,-0.6022787766189992,-0.5927235064484129,0.14825793425082648,-0.5137691165002988
-206.55386471748352,-3628.0,11460.0,7640.0,732.0,-1672.0,7741.0,-0.1608255274033555,-0.4978239927593575,0.49592003342009894,-0.6930871102691001
-206.561669588089,-3084.0,11700.0,7612.0,781.0,-1669.0,8060.0,0.35107270823399617,-0.21152109055778182,0.6667863231563804,-0.6224168868484283
-206.56944870948792,-3208.0,11808.0,7904.0,924.0,-1437.0,8323.0,0.7261034202935113,0.17928681472054375,0.5832441610227193,-0.31694843387896776
-206.5772476196289,-2988.0,11864.0,8168.0,989.0,-1174.0,8487.0,0.8030732408021224,0.51259665464585,0.27841332858035667,0.12167192783163307
-206.5850636959076,-2872.0,12104.0,8552.0,1064.0,-982.0,8737.0,0.5432517381412153,0.6406770281916181,-0.134638528906769,0.5256262560868952
-206.59285807609558,-2652.0,12096.0,8844.0,1279.0,-733.0,9194.0,0.03214637372211401,0.48647929956805375,-0.4848370403402263,0.7261112490950844
-206.60063767433167,-2576.0,12184.0,9128.0,859.0,-637.0,9698.0,-0.4917760445418879,0.09044857665974576,-0.6425081780543505,0.5806536128607487
-206.60842633247375,-2552.0,12100.0,9532.0,851.0,-729.0,10184.0,-0.7868369373428633,-0.35805864427866596,-0.4832940795901136,0.1382334037900085
-206.6162292957306,-2180.0,11884.0,9680.0,943.0,-873.0,10665.0,-0.6732366595164417,-0.628935665271018,-0.057225656850570454,-0.38460051148076435
-206.62402296066284,-1832.0,12264.0,9848.0,1001.0,-962.0,11033.0,-0.1814498551767435,-0.5561754690058485,0.4099681406750119,-0.6997649043528383
-206.63181138038635,-1648.0,12484.0,10224.0,1252.0,-876.0,11390.0,0.42809535128186876,-0.15665810112303277,0.6355961639911138,-0.6230651056536229
-206.63960433006287,-1628.0,12768.0,10400.0,1491.0,-772.0,11504.0,0.7840225193355317,0.34770295576721677,0.47929423663588056,-0.1862481636235248
-206.64739108085632,-1528.0,12912.0,10616.0,1723.0,-827.0,11321.0,0.6713043061706049,0.6539107750597746,0.03596053908042558,0.3470706936728784
-206.65518236160278,-1092.0,13044.0,10784.0,1967.0,-607.0,11238.0,0.1562286866039188,0.5825741645991117,-0.4116914362336444,0.6831618414076863
-206.66296529769897,-996.0,12804.0,11184.0,2165.0,-337.0,11244.0,-0.4500519249932747,0.16129963278039683,-0.6073606416534382,0.6344672917062633
-206.6707465648651,-932.0,13140.0,11604.0,2357.0,-388.0,10874.0,-0.7932062360593214,-0.3487905277538477,-0.4407328628457977,0.23435780002710377
-206.67851567268372,-1280.0,13480.0,11364.0,2552.0,-649.0,11007.0,-0.6869759188196202,-0.6656000564535124,-0.005902516567292477,-0.2915575622569112
-206.68642807006836,-1512.0,14192.0,11288.0,2562.0,-803.0,10834.0,-0.18836261953872682,-0.6053666622760576,0.4343730081582802,-0.6398209261572967
-206.69428396224976,-1396.0,14908.0,10464.0,2202.0,-1124.0,10760.0,0.41151852915833065,-0.21340034051295453,0.6469065378815784,-0.6054954385248409
-206.70207929611206,-332.0,16352.0,10288.0,1751.0,-1200.0,10454.0,0.7790286049093643,0.27550479723082955,0.5166191112660095,-0.22431280237759008
-206.70986795425415,-152.0,17352.0,10028.0,1331.0,-1575.0,10493.0,0.7481847581372812,0.5909359869968053,0.09573099865103434,0.2860940454823292
-206.71765041351318,-196.0,18040.0,9572.0,803.0,-2155.0,10378.0,0.34146847665047525,0.574588385159764,-0.41065337066091917,0.6201703606738428
-206.72543573379517,504.0,18672.0,9052.0,493.0,-2765.0,9918.0,-0.23727230567614954,0.2850826774161476,-0.716452267827901,0.5908687400096762
-206.73321342468262,1764.0,18676.0,9012.0,-22.0,-3207.0,9470.0,-0.6974702425185925,-0.10647528327559344,-0.6681250504626919,0.2362354583813854
-206.74104237556458,2664.0,18196.0,8552.0,-559.0,-3557.0,8618.0,-0.843120469006883,-0.3888955059248694,-0.29675740214868745,-0.22325591701680728
-206.74881505966187,3172.0,17568.0,8616.0,-754.0,-3939.0,7490.0,-0.6624051371055915,-0.4853700047905441,0.21057049421390786,-0.5303729440235999
-206.75662183761597,3948.0,16728.0,8680.0,-518.0,-4472.0,6695.0,-0.23909255353182035,-0.44112674259291956,0.6349405208576272,-0.5874457275255638
-206.76441073417664,4640.0,16228.0,8260.0,-735.0,-4695.0,5813.0,0.2432367093033969,-0.2880651393101359,0.831724166615071,-0.4075405371615839
-206.7722465991974,5448.0,15700.0,8820.0,-680.0,-4659.0,4755.0,0.6334093510118339,-0.10622628695188997,0.7568922678431044,-0.12092421134952425
-206.78004693984985,6196.0,15192.0,9036.0,-881.0,-4646.0,3196.0,0.8645941575799315,0.006485617373141858,0.48234148537552124,0.14064697270710608
-206.78786373138428,6548.0,14804.0,9076.0,-1001.0,-4469.0,2202.0,0.9381124819593449,0.07193379357711285,0.12013306163310074,0.3167626051735598
-206.79566359519958,6696.0,14340.0,9128.0,-1013.0,-4171.0,1639.0,0.8751039604698453,0.11304348841604545,-0.2410398295982807,0.40412130436782767
-206.80345916748047,6784.0,13852.0,9080.0,-1048.0,-3959.0,1332.0,0.7069664369782143,0.1356516203199819,-0.555457814231275,0.41624957837853305
-206.8112609386444,6696.0,13480.0,9688.0,-1012.0,-3842.0,875.0,0.47214284964563397,0.16069376222902215,-0.79117432524294,0.35397998726702257
-206.81916046142578,6460.0,13416.0,10104.0,-1117.0,-3749.0,430.0,0.20401812377026315,0.18997246756801595,-0.9327016291978504,0.22881157669806937
-206.8269648551941,6256.0,13704.0,10244.0,-1269.0,-3722.0,54.0,-0.07470542406658184,0.22448595785370895,-0.9696812920664427,0.06118289105533663
-206.83475136756897,6020.0,13944.0,10540.0,-1458.0,-3693.0,-194.0,-0.33789836351412017,0.25521061295941677,-0.8971121838884956,-0.12602368224334876
-206.84254217147827,5860.0,14164.0,10440.0,-1573.0,-3684.0,-186.0,-0.5600640472466337,0.2601334752113216,-0.7239175276735186,-0.30757478957687984
-206.85032963752747,5876.0,14200.0,10304.0,-1648.0,-3521.0,-106.0,-0.7082770756046789,0.239356199250281,-0.47828317894741357,-0.46075741425320565
-206.85811066627502,6212.0,14068.0,10128.0,-1630.0,-3189.0,-89.0,-0.7739632590210399,0.20558153586403538,-0.20393223366600505,-0.5631418559024971
-206.86589908599854,6736.0,13524.0,10276.0,-1705.0,-2682.0,-148.0,-0.7692806332170152,0.18431402489505103,0.061383300536446826,-0.6086606098635488
-206.87367630004883,7012.0,13592.0,10652.0,-1917.0,-2155.0,-98.0,-0.7099920887012641,0.19174482653506608,0.3000569969413604,-0.6075450222536485
-206.88160943984985,7292.0,13576.0,10580.0,-2039.0,-1422.0,-201.0,-0.6345358611951091,0.231786227828771,0.4881644416948944,-0.5525711386880449
-206.88952016830444,7148.0,13720.0,10632.0,-2223.0,-940.0,-179.0,-0.5461994420087527,0.29529193336845355,0.6369710014917097,-0.4568772120553797
-206.8973424434662,7084.0,13480.0,10860.0,-2393.0,-14.0,-451.0,-0.49085248241598584,0.3752843993056595,0.7284080671942254,-0.29605260983519033
-206.9051856994629,6500.0,13148.0,10948.0,-2447.0,624.0,-599.0,-0.4544014828909143,0.44679307031864385,0.7651369920039355,-0.09198167278837178
-206.91302275657654,6520.0,12712.0,10852.0,-2461.0,1177.0,-707.0,-0.4299384312096747,0.4919218089251683,0.7436079633532074,0.1421726981893822
-206.92081570625305,6676.0,12504.0,10904.0,-2490.0,1722.0,-972.0,-0.4073548009451496,0.4825941104048375,0.6646665182374492,0.399228518875603
-206.92861652374268,6804.0,11960.0,10668.0,-2486.0,2075.0,-1143.0,-0.36704914210221345,0.4140549772957671,0.529093647776348,0.6433454087357341
-206.9364275932312,6876.0,11460.0,10520.0,-2510.0,2870.0,-1369.0,-0.312964168584773,0.25446447779251335,0.32584251517198487,0.8550601815253825
-206.94425106048584,6428.0,11108.0,10096.0,-2484.0,3233.0,-1482.0,-0.22353397224631322,0.03617200158959243,0.07974971384758527,0.9707544142026938
-206.95203757286072,6040.0,11064.0,9752.0,-2468.0,3514.0,-1589.0,-0.09805598884571681,-0.20834287925372352,-0.17880224273387427,0.956560518581597
-206.95983505249023,5440.0,10828.0,9472.0,-2405.0,3641.0,-1733.0,0.05523179836373987,-0.4299226512903134,-0.4090557666920804,0.8029877596159042
-206.96762418746948,5016.0,10696.0,8996.0,-2536.0,3814.0,-1752.0,0.20137162325908828,-0.5947104636531377,-0.5829490155015377,0.5156931055320185
-206.9754183292389,4724.0,10724.0,9200.0,-2529.0,3750.0,-1925.0,0.31941351594112716,-0.6524798966061507,-0.6715875254303773,0.14565433754357235
-206.98323678970337,4540.0,10580.0,8716.0,-2335.0,3594.0,-1885.0,0.38979548708490924,-0.6042263875757707,-0.6557711571894107,-0.23007420586374774
-206.9910798072815,3892.0,10476.0,8652.0,-2281.0,3346.0,-1854.0,0.3949805831656124,-0.47388103575105056,-0.5535183037518623,-0.5595038787080261
-206.99890661239624,4092.0,10360.0,8556.0,-2177.0,3013.0,-1875.0,0.3373049304214333,-0.2923376092103412,-0.3955309567053039,-0.80269506566464
-207.00669384002686,4064.0,10588.0,8700.0,-1947.0,2780.0,-1709.0,0.2503387449688123,-0.09077709504245517,-0.20970973837311632,-0.9408038357779862
-207.01448583602905,3968.0,10512.0,8940.0,-1614.0,1877.0,-1441.0,0.14897897567459492,0.05283913871010148,-0.04649868800183983,-0.9863321764200084
-207.02230858802795,4532.0,11240.0,9420.0,-1523.0,1517.0,-1511.0,0.03131116121022287,0.165352072021152,0.10816841216588416,-0.9797846182051904
-207.03009152412415,4784.0,11736.0,9204.0,-1112.0,847.0,-1508.0,-0.08815377590751733,0.21691512987987005,0.22350574948643695,-0.9461616765484387
-207.03788113594055,5240.0,12472.0,8948.0,-1264.0,759.0,-1607.0,-0.208004488877159,0.25330668618289454,0.3460647660164934,-0.8790955767514372
-207.04566359519958,5168.0,13092.0,9220.0,-656.0,231.0,-1521.0,-0.31388746388142297,0.23441005462497763,0.42122948767793517,-0.8179806263105425
-207.05345630645752,5140.0,13776.0,9720.0,-349.0,-328.0,-1733.0,-0.4134111866518687,0.1548336921195944,0.48454402279376535,-0.7552051433289789
-207.06124806404114,5884.0,14408.0,9788.0,-88.0,-618.0,-1931.0,-0.5055796253052864,0.03493586447207462,0.5303755408417724,-0.6796105601935217
-207.06903529167175,6336.0,14900.0,9436.0,-185.0,-618.0,-2093.0,-0.5899758614608382,-0.08897714529082218,0.5646620099725854,-0.5702353593062758
-207.07681727409363,6420.0,15056.0,8688.0,-286.0,-558.0,-2815.0,-0.6835780330929621,-0.23361136213013814,0.5679174492141912,-0.39448266759707623
-207.08463716506958,6644.0,14740.0,8404.0,-995.0,-679.0,-3048.0,-0.7453490502174395,-0.3353793696777312,0.5579925318653061,-0.1435959822455834
-207.0924208164215,5828.0,14184.0,8384.0,-1296.0,-955.0,-3014.0,-0.7423127341266396,-0.3928024904257089,0.5250905345686343,0.1376878308900966
-207.10026955604553,5624.0,13752.0,8400.0,-1566.0,-1166.0,-3074.0,-0.6725337391100877,-0.3985549557832432,0.453851524378793,0.42763431901364884
-207.10807609558105,5584.0,13164.0,7952.0,-1974.0,-1377.0,-3208.0,-0.5352038979846789,-0.3380726479033246,0.3297016702044294,0.7004002291447724
-207.11586809158325,5472.0,12844.0,8396.0,-2249.0,-1526.0,-3408.0,-0.32664583776882766,-0.22208441880344268,0.15250086571571586,0.9059384601334658
-207.12367486953735,5256.0,12424.0,8832.0,-2426.0,-1549.0,-3655.0,-0.05946105491094624,-0.07316931646849152,-0.06087144948856633,0.9936826961930918
-207.13146305084229,4896.0,12004.0,9012.0,-2328.0,-1486.0,-3893.0,0.23574008459892476,0.08177198684354281,-0.2581166617473408,0.9333358150255245
-207.1392638683319,4784.0,11600.0,9408.0,-2531.0,-1596.0,-4036.0,0.500678539434487,0.22964590168366297,-0.4286731856454506,0.7161166524374554
-207.14708280563354,4824.0,11316.0,9556.0,-2462.0,-1635.0,-4004.0,0.6780341020662153,0.3431826844284259,-0.5260649703656284,0.38177355657244166
-207.15491366386414,4744.0,11052.0,9800.0,-2252.0,-1743.0,-4035.0,0.7346706893333206,0.4162778375983846,-0.5355702853905379,-0.01167088538261843
-207.16268301010132,4756.0,11036.0,9944.0,-1973.0,-1825.0,-3892.0,0.66290518416004,0.43425744353269713,-0.4704853171692232,-0.3880988996098355
-207.17048239707947,4616.0,11092.0,10196.0,-1773.0,-2031.0,-3857.0,0.47745135523223237,0.3895460532661473,-0.35301465024815676,-0.7040417121746724
-207.1782989501953,5096.0,11088.0,9900.0,-1782.0,-1644.0,-3916.0,0.2290831149199362,0.31054902405652896,-0.166035206867836,-0.9074759171440703
-207.1861023902893,4856.0,11088.0,9984.0,-1294.0,-1565.0,-3930.0,-0.06499639780580815,0.20288105071635493,0.010701548390344016,-0.9769852733764957
-207.1938807964325,4672.0,11084.0,10008.0,-1101.0,-1472.0,-3960.0,-0.35673000195675286,0.07449880147110062,0.17083283559647458,-0.9154287392065931
-207.20168042182922,4684.0,11148.0,10116.0,-906.0,-1311.0,-4058.0,-0.6126915655676625,-0.05863408889425393,0.28991330955616845,-0.7328856404951436
-207.20947694778442,4412.0,11108.0,10120.0,-721.0,-1205.0,-4122.0,-0.7941950441829768,-0.18848725216648982,0.35441572857468207,-0.45619763141077696
-207.21726870536804,4036.0,11276.0,10100.0,-606.0,-1170.0,-4162.0,-0.8725505054457445,-0.30086646848551096,0.3653224754301029,-0.12113823728722026
-207.22505807876587,3952.0,11428.0,10108.0,-490.0,-1123.0,-4210.0,-0.8350850256124931,-0.3826922953072758,0.3224172777834489,0.22853163040800525
-207.2328486442566,3744.0,11524.0,10016.0,-387.0,-1184.0,-4210.0,-0.6823973041956776,-0.41950302099565834,0.2429323842822954,0.5471151535727256
-207.2406358718872,3432.0,11608.0,9868.0,-315.0,-1320.0,-4108.0,-0.4396381469347056,-0.3972393557158809,0.1461776792757449,0.7921813429460502
-207.2484314441681,3132.0,11604.0,9624.0,-204.0,-1518.0,-4047.0,-0.1381518363575719,-0.31427151088271876,0.04699733967993054,0.9380504984389343
-207.25622701644897,3032.0,11668.0,9720.0,-160.0,-1788.0,-3750.0,0.1614162302603148,-0.17032005131230696,-0.044326275626065816,0.9710669709235529
-207.26401662826538,2624.0,11804.0,9372.0,-249.0,-2188.0,-3821.0,0.44147739145661913,0.024775765257927063,-0.1425871605336279,0.885524012062632
-207.2718141078949,2648.0,11844.0,9276.0,155.0,-2534.0,-3332.0,0.6265823736746273,0.2519003583030562,-0.20734013828187312,0.7077787829147716
-207.27960467338562,2680.0,12072.0,9272.0,289.0,-2798.0,-3576.0,0.7347500767162121,0.46968032546441785,-0.24498793922333892,0.42370228495048373
-207.28742146492004,3032.0,12896.0,9356.0,362.0,-2976.0,-3457.0,0.7282867925813603,0.6285876695820659,-0.26047825407163383,0.08140619483021884
-207.2952172756195,3320.0,13188.0,9476.0,333.0,-2980.0,-3819.0,0.6164552763376789,0.6975881434747073,-0.21904154075508928,-0.292189113045958
-207.30300068855286,3204.0,13828.0,10136.0,241.0,-2982.0,-4252.0,0.39745773523216016,0.6517111154691403,-0.11542658635602072,-0.6355915935884355
-207.31078100204468,3060.0,13992.0,10212.0,177.0,-2835.0,-4589.0,0.09442567364357382,0.494570786377672,0.03377796686378422,-0.8633322525964597
-207.31857419013977,2712.0,14184.0,10524.0,171.0,-2749.0,-4615.0,-0.2286171309752236,0.24907034031983324,0.17860710020953166,-0.9240117297698998
-207.32635927200317,2496.0,14016.0,10456.0,72.0,-2760.0,-5034.0,-0.5302793271369975,-0.047891363485246634,0.3013673992375466,-0.7910043888572645
-207.33415818214417,2116.0,13680.0,10296.0,-23.0,-2957.0,-4946.0,-0.7094456565638638,-0.34055417761164897,0.37422884279597096,-0.49057362924795506
-207.34194993972778,1804.0,13376.0,10748.0,-63.0,-3252.0,-4955.0,-0.7259594208552025,-0.566478181226905,0.38261056168879237,-0.07546222597845632
-207.34977531433105,1776.0,13132.0,10368.0,9.0,-3382.0,-4828.0,-0.5730701968191856,-0.6673466087268274,0.31831444259369124,0.3534331181067928
-207.35755801200867,1496.0,12948.0,10048.0,-16.0,-3724.0,-4629.0,-0.2910472250078746,-0.6037944309910855,0.20811324313498922,0.7123290503350287
-207.36535000801086,1564.0,12892.0,10172.0,40.0,-3912.0,-4639.0,0.062236358267272786,-0.3938621368687426,0.05795702904018609,0.9152268765916188
-207.37316489219666,1628.0,12704.0,10204.0,58.0,-4149.0,-4593.0,0.39770060262990514,-0.07494573461610106,-0.10350231114822016,0.908572858453102
-207.38095116615295,1680.0,12280.0,10332.0,150.0,-4277.0,-4497.0,0.6301023588674987,0.27273296267995717,-0.2366938294640901,0.6874327454457282
-207.38876080513,1652.0,11904.0,10532.0,314.0,-4391.0,-4345.0,0.6975451989549574,0.5660574139029697,-0.3129388665626292,0.3083487722934334
-207.39653635025024,1624.0,11180.0,10684.0,434.0,-4491.0,-4351.0,0.5883649107434258,0.7300327450365276,-0.31544009740619594,-0.14620693529611606
-207.40438079833984,1984.0,10460.0,10536.0,627.0,-4568.0,-3926.0,0.32945874553141125,0.7178328522596132,-0.27214615112566193,-0.5496447976986459
-207.4122076034546,1700.0,10392.0,10836.0,850.0,-4636.0,-3691.0,-0.0096679545923654,0.5383518497173898,-0.19055013987635386,-0.8208376579768784
-207.4199960231781,1996.0,11212.0,10892.0,1197.0,-4616.0,-3354.0,-0.34125447059727326,0.23371063931763383,-0.10240339053701154,-0.9046757811357845
-207.42777013778687,2240.0,11348.0,11188.0,1373.0,-4435.0,-2975.0,-0.580037674024801,-0.1180463374629485,-0.01641202862954028,-0.8058238047115172
-207.43560075759888,2380.0,11496.0,11172.0,1511.0,-4325.0,-2862.0,-0.6982033072803449,-0.4474990368532472,0.060158408820964175,-0.555551725374275
-207.44339656829834,2476.0,11192.0,11016.0,1593.0,-3659.0,-2772.0,-0.6916828357823431,-0.6780128471440656,0.08964435487296799,-0.23202871251442866
-207.45118117332458,2532.0,11100.0,11728.0,1878.0,-3147.0,-2560.0,-0.5663268065909145,-0.8152017525660682,0.08389483623399552,0.08764534900962473
-207.4589762687683,2456.0,11148.0,11808.0,2168.0,-2429.0,-2093.0,-0.35848413510002197,-0.8707070617503807,0.06786452520403705,0.3297768089457452
-207.46676230430603,2324.0,11420.0,12192.0,2398.0,-1831.0,-1601.0,-0.11442562372292088,-0.8648627342905979,0.0695150319714817,0.4838252657737243
-207.47456455230713,2228.0,11048.0,13004.0,2494.0,-1284.0,-1009.0,0.12018624770514877,-0.814506250017767,0.10793945821501674,0.5572108289550735
-207.48236870765686,2164.0,11068.0,13168.0,2811.0,-848.0,-684.0,0.34936990799812684,-0.7254623880204383,0.18101375679283097,0.5646937318625108
-207.4901773929596,1876.0,11440.0,13376.0,2622.0,-754.0,-85.0,0.5170280232925843,-0.5929912056666167,0.274239351500785,0.5530246208087339
-207.49797940254211,1756.0,11488.0,13284.0,2530.0,-200.0,330.0,0.621526843827674,-0.4500334956153503,0.3947175709868411,0.5053437190468353
-207.5058195590973,1668.0,11828.0,12900.0,2570.0,-29.0,870.0,0.6666687878781847,-0.2716746689480635,0.5261174143451468,0.4527096948859933
-207.51364064216614,2032.0,11960.0,12596.0,2598.0,57.0,1197.0,0.658155996321997,-0.06559734012864334,0.6407423201582273,0.3898422150456496
-207.5214409828186,1828.0,12452.0,12248.0,2628.0,94.0,1529.0,0.5953113503732186,0.16220025922765086,0.7192990717520119,0.3192245563862402
-207.5292272567749,2340.0,12288.0,11972.0,2653.0,286.0,1235.0,0.48956245532625403,0.35809230546846127,0.7656867097550667,0.2140615930139544
-207.5370271205902,2364.0,12700.0,11628.0,2505.0,256.0,634.0,0.3729134799830148,0.4903230601679611,0.7836764264051168,0.07981285492568999
-207.54480481147766,2528.0,12656.0,11012.0,2455.0,833.0,440.0,0.2025871348919636,0.5794856279437138,0.7885291259126934,-0.03710360319845431
-207.55260133743286,1800.0,12752.0,10392.0,2407.0,1106.0,270.0,0.005486725815489035,0.6275102491999146,0.766205013428479,-0.13831363051395434
-207.56038069725037,2244.0,12992.0,9748.0,2283.0,1342.0,-236.0,-0.2066528609193328,0.6127512424592398,0.7327444789993894,-0.21193404265107077
-207.56821489334106,2192.0,12512.0,9564.0,2185.0,1472.0,-48.0,-0.40791623847089975,0.5822942358645236,0.6513366266430968,-0.26513838662836736
-207.57599925994873,1848.0,11544.0,9128.0,2125.0,1289.0,-184.0,-0.5799415618232343,0.5139550416495453,0.5526806850228485,-0.30669538704668603
-207.58377861976624,1368.0,11380.0,8252.0,2133.0,1461.0,-44.0,-0.729010581320551,0.43203840308026836,0.4131747442459053,-0.3334261856901088
-207.59162282943726,772.0,11700.0,7764.0,2140.0,1115.0,357.0,-0.821192702119592,0.3335962371130547,0.2605838568482028,-0.3826906715869216
-207.59941291809082,824.0,11944.0,7236.0,2297.0,816.0,803.0,-0.8585893766853395,0.2091033930163901,0.09943727456737746,-0.4573972908738366
-207.60719227790833,632.0,12264.0,7340.0,1890.0,469.0,1230.0,-0.831436765027427,0.09471510974104985,-0.033065570297890166,-0.5464875312469105
-207.61498498916626,544.0,12964.0,7036.0,1566.0,263.0,1632.0,-0.7510713952342568,-0.011151108994562085,-0.13777163501847334,-0.645589953928494
-207.62277030944824,1072.0,13384.0,7396.0,1195.0,165.0,1892.0,-0.6293162203209046,-0.10128271792557234,-0.2102152296920008,-0.7412910785218982
-207.63055109977722,1700.0,14232.0,7624.0,841.0,248.0,2141.0,-0.4692966795856338,-0.16756417063142992,-0.25433366353476283,-0.8288529802344238
-207.6383318901062,2444.0,14940.0,8396.0,741.0,479.0,2125.0,-0.2883362734400706,-0.20649146352237283,-0.2908572245560549,-0.8886087687135605
-207.6461262702942,2960.0,15212.0,8800.0,205.0,630.0,2271.0,-0.09066588598534253,-0.21596841994590021,-0.2761178016951553,-0.9321460713276644
-207.65393495559692,3276.0,15488.0,9240.0,-60.0,524.0,2420.0,0.11493776072875696,-0.22592341985407186,-0.2248784543163042,-0.9408387748729373
-207.66172790527344,3172.0,16056.0,9396.0,-429.0,1017.0,2578.0,0.3283163470750631,-0.19155257631456177,-0.1252272933011104,-0.9164246350699103
-207.6695258617401,3060.0,16136.0,9600.0,-802.0,1010.0,2458.0,0.5077866268115455,-0.15597244595116916,0.008406696267343479,-0.8472040280789691
-207.67729377746582,3144.0,16032.0,9504.0,-1119.0,707.0,2232.0,0.6408415143253783,-0.14776627336304196,0.14881061493077866,-0.7384732106566075
-207.68508625030518,3200.0,15572.0,9372.0,-1223.0,562.0,1807.0,0.7204920925332616,-0.15339485279540882,0.2768345733637119,-0.6170281863281841
-207.69289207458496,3236.0,14948.0,9000.0,-1157.0,404.0,1760.0,0.7766235211526931,-0.1589700177573687,0.38130872700823215,-0.47559236174898345
-207.70068335533142,3040.0,14576.0,8820.0,-910.0,55.0,1244.0,0.806627605829095,-0.17525410044528458,0.43600488613784055,-0.358521470843051
-207.70844292640686,3128.0,14092.0,8520.0,-663.0,-111.0,1247.0,0.8334784930249454,-0.17647266689304042,0.4643668681192906,-0.2419388585936645
-207.71627020835876,3188.0,14056.0,8232.0,-404.0,-293.0,993.0,0.8561686605866815,-0.1708583599788392,0.46460336130242585,-0.14807552843409474
-207.7240538597107,3320.0,13852.0,8116.0,-152.0,-379.0,416.0,0.8735996411572969,-0.16987166406697804,0.44378619971880523,-0.10498139671436292
-207.73184084892273,2852.0,13752.0,7724.0,74.0,-257.0,43.0,0.8848779119059402,-0.16470015913990568,0.4239467125429592,-0.10066838393602243
-207.73961639404297,2756.0,14036.0,7740.0,238.0,-623.0,-146.0,0.9085337845741007,-0.1567332251042528,0.37089215463526143,-0.11153505308150667
-207.747403383255,2580.0,13920.0,7620.0,331.0,-678.0,-467.0,0.9277609173808218,-0.1515448482816071,0.3065004459500415,-0.14950356441378326
-207.75518107414246,2564.0,14264.0,7560.0,417.0,-649.0,-689.0,0.9379058917952217,-0.143867903071793,0.2383131781040547,-0.20698162658429353
-207.7629635334015,2324.0,14504.0,7668.0,454.0,-635.0,-769.0,0.9387041429069127,-0.1333170307777921,0.1675861129958655,-0.27014069690612813
-207.7707326412201,2124.0,14644.0,7520.0,429.0,-622.0,-772.0,0.9305184994192717,-0.12331891088910629,0.09696343829482625,-0.33094691430753176
-207.7785108089447,1944.0,14688.0,7524.0,291.0,-693.0,-604.0,0.9188604676944389,-0.12410277770802665,0.02554171199858024,-0.3736864493418118
-207.7862958908081,1860.0,14632.0,7788.0,215.0,-877.0,-419.0,0.9060898596335427,-0.13560511694707003,-0.056271919418077535,-0.39679451812247074
-207.79411458969116,1784.0,14504.0,7916.0,170.0,-781.0,-493.0,0.884237508951757,-0.1460074617274484,-0.1294524846845022,-0.42432051929138187
-207.8018980026245,1672.0,14084.0,7712.0,125.0,-1180.0,-565.0,0.8460243054036326,-0.17225322311182545,-0.2309476301024977,-0.44859212425535117
-207.80966424942017,1772.0,14260.0,7680.0,78.0,-1353.0,-766.0,0.7827246696491585,-0.2018815418635894,-0.3423685649560594,-0.47892556865062413
-207.81783747673035,1904.0,14144.0,7748.0,61.0,-1398.0,-768.0,0.7030992622675175,-0.23070022587790506,-0.44967637169968727,-0.5002199455377213
-207.82568883895874,1940.0,13876.0,7832.0,116.0,-1539.0,-469.0,0.6184213631598068,-0.2694695183499937,-0.5532060255773412,-0.48877836442779576
-207.83348536491394,2116.0,13824.0,7700.0,206.0,-1655.0,-426.0,0.5193191087518836,-0.3047757960433968,-0.6540162284696088,-0.4579106357463772
-207.84126782417297,2100.0,13744.0,8000.0,314.0,-1762.0,-378.0,0.4068042678765801,-0.3350109492358306,-0.7470217065624063,-0.40526105346319335
-207.84904766082764,2524.0,13572.0,8064.0,395.0,-1800.0,-280.0,0.2872899394539623,-0.36155791800750625,-0.8222721804460194,-0.33257904906828545
-207.85683679580688,2652.0,13928.0,8264.0,401.0,-1844.0,-25.0,0.16463635894975584,-0.3978250334755725,-0.8692188801229358,-0.24308157167863703
-207.86461925506592,2808.0,14012.0,8460.0,331.0,-1847.0,-311.0,0.028979735709537928,-0.40311469303931957,-0.901241737090205,-0.15627555951155706
-207.8724024295807,2808.0,14204.0,8200.0,253.0,-1847.0,-239.0,-0.10924607722740519,-0.4034641054918485,-0.9056604983884178,-0.07114121062316293
-207.8802366256714,3044.0,14348.0,8364.0,136.0,-1826.0,-265.0,-0.2472893243173169,-0.39010069036233525,-0.8869217356504276,0.006267079730388739
-207.8880476951599,2916.0,14520.0,8336.0,-33.0,-1808.0,-281.0,-0.3834225819477165,-0.362070408452824,-0.8467240268768904,0.07036025358634615
-207.8958580493927,2928.0,14616.0,8356.0,-207.0,-1766.0,-11.0,-0.5143255499604857,-0.339447148744107,-0.7798590477477957,0.10983955350073717
-207.9036509990692,2908.0,14364.0,8492.0,-338.0,-1732.0,-275.0,-0.632045591600477,-0.2855379272869763,-0.7049118194724564,0.14861288297819727
-207.91144323349,2804.0,14496.0,8336.0,-459.0,-1643.0,-291.0,-0.732574899517049,-0.21857849292830614,-0.6203461539143706,0.17529434774237354
-207.9192225933075,2884.0,14376.0,8528.0,-459.0,-1786.0,-283.0,-0.8229523912123741,-0.14475956208583837,-0.5117027467795332,0.19988579219352468
-207.92700457572937,2912.0,14264.0,8440.0,-258.0,-1424.0,-235.0,-0.8786287650539044,-0.09028485890217888,-0.4133629506150499,0.22133957741823787
-207.93479704856873,2952.0,14200.0,8344.0,-585.0,-1384.0,-233.0,-0.9206756890676017,-0.01036349127932555,-0.3174090653316891,0.22693690500591554
-207.94259810447693,2924.0,14004.0,8452.0,-619.0,-1417.0,-392.0,-0.9436959906694425,0.07734008386722734,-0.21392356270588295,0.24019387573593884
-207.95038485527039,3044.0,13944.0,8600.0,-656.0,-1419.0,-669.0,-0.9414947999764317,0.17148580025268423,-0.10497523306203456,0.27048172280693406
-207.95817756652832,3144.0,14008.0,8604.0,-647.0,-1337.0,-994.0,-0.9096612150635505,0.26190013013659913,0.004579595140843031,0.3223411592581425
-207.96595883369446,3048.0,14236.0,8888.0,-612.0,-1358.0,-1217.0,-0.8490630774459872,0.34316254162937754,0.12142498230085987,0.38286725403676314
-207.9738004207611,2952.0,14312.0,9184.0,-491.0,-1371.0,-1363.0,-0.7628374193542617,0.4046091391203357,0.24388100563029555,0.44146638747019795
-207.98158979415894,2988.0,14532.0,9284.0,-417.0,-1293.0,-1581.0,-0.6490142111969598,0.4410988540525835,0.36385076440260716,0.5018216574257475
-207.9894196987152,3300.0,14352.0,9636.0,-341.0,-1246.0,-1801.0,-0.5079834371033557,0.449280177072009,0.4799974442891549,0.5565093023433523
-207.99720358848572,2792.0,14480.0,9600.0,-429.0,-1069.0,-1813.0,-0.3521216111050517,0.4364974558358179,0.5677860848928655,0.60257721815853
-208.00502014160156,2596.0,14564.0,9552.0,-589.0,-903.0,-2051.0,-0.17347553369071025,0.3923502497951125,0.6299361812751776,0.6474163484318899
-208.01280879974365,2228.0,13988.0,9280.0,-847.0,-819.0,-2463.0,0.03873392028805783,0.3072851583390347,0.660272053432256,0.6841902734912451
-208.02058911323547,1920.0,13500.0,9088.0,-1103.0,-826.0,-2382.0,0.2510889238039588,0.209542213082997,0.6372548420441929,0.697819947816398
-208.0283932685852,2016.0,13304.0,9052.0,-1224.0,-883.0,-2151.0,0.44213521528104205,0.11388991027093436,0.5677820327073505,0.6849591981144382
-208.0362195968628,1732.0,12628.0,9112.0,-1155.0,-882.0,-1875.0,0.5967251234140235,0.02865659420624497,0.47313615047917484,0.6474875364088211
-208.04400396347046,1908.0,12288.0,9388.0,-1082.0,-855.0,-1571.0,0.7117164561993056,-0.0432920642604086,0.36526527924720703,0.5984703492434981
-208.05178928375244,2044.0,12304.0,9588.0,-935.0,-515.0,-1336.0,0.7856509335416141,-0.11549131547667223,0.2763016550038549,0.5413610275193336
-208.05959963798523,2268.0,12296.0,9968.0,-774.0,-556.0,-1084.0,0.8358669384201766,-0.1668193028036622,0.18918648132404195,0.487551286279104
-208.0673906803131,2308.0,12480.0,10284.0,-624.0,-364.0,-855.0,0.86508094134464,-0.20967736201682316,0.12306721304951183,0.43877651469986834
-208.0751657485962,2464.0,12652.0,10384.0,-598.0,-122.0,-667.0,0.8783089232231976,-0.2562398227693223,0.07853481995992945,0.3959127058677391
-208.08295011520386,2460.0,12740.0,10556.0,-557.0,161.0,-458.0,0.8788144597636949,-0.30673807036068973,0.06129121478457125,0.36033357946752254
-208.0907425880432,2384.0,13004.0,10748.0,-537.0,359.0,-333.0,0.8713155830511572,-0.3600340387355288,0.06292718163316503,0.3274520048735571
-208.09852027893066,2252.0,12740.0,10396.0,-566.0,583.0,-151.0,0.8525109862489278,-0.41926658576911185,0.08614447027857183,0.3000327959120747
-208.10631227493286,2208.0,12724.0,10452.0,-500.0,833.0,75.0,0.8230978376759764,-0.47582105484535775,0.13730430252640446,0.277942083691406
-208.11408877372742,2212.0,12604.0,10112.0,-445.0,1010.0,341.0,0.7803594257559111,-0.5253918044093773,0.21217589803980877,0.2645449050432916
-208.12187910079956,2104.0,12292.0,10136.0,-265.0,1170.0,623.0,0.7271739388812267,-0.5549458614914833,0.3121728515884778,0.2565175708534517
-208.12966322898865,2168.0,12180.0,10140.0,-97.0,1279.0,910.0,0.6610995969881156,-0.559591954280771,0.43123464564187036,0.25266746518796007
-208.13745403289795,2164.0,12096.0,10084.0,106.0,1340.0,1118.0,0.5844478469178176,-0.5346667805222052,0.5590499717028774,0.24498015670286355
-208.14522981643677,2128.0,12216.0,9904.0,190.0,1363.0,1203.0,0.49483689599666947,-0.48915341175606514,0.6802006549927133,0.23063489561483677
-208.1530225276947,2272.0,12384.0,9680.0,329.0,1398.0,1190.0,0.3967028774886853,-0.4267512336604617,0.7876585260563004,0.2002604751125085
-208.1608021259308,2484.0,12604.0,9376.0,459.0,1432.0,1169.0,0.2909078303498212,-0.35065323550570043,0.8767871281637907,0.1538157162218344
-208.16858553886414,2668.0,12620.0,9516.0,478.0,1398.0,1128.0,0.18101463399886733,-0.26742227293702203,0.9409292899722503,0.1018386050953645
-208.1763939857483,2696.0,13104.0,9252.0,497.0,1325.0,1100.0,0.07309758606972847,-0.17880250707589213,0.980040340255509,0.04698231418331963
-208.18418717384338,2680.0,13456.0,9700.0,763.0,1164.0,1051.0,-0.01869307200585796,-0.08777412590655358,0.9955328984512383,-0.029334620870238054
-208.19199013710022,2460.0,13856.0,9484.0,497.0,939.0,1014.0,-0.09315351688816235,0.0019224552925189004,0.9923790797528111,-0.08063800918908405
-208.19977283477783,2416.0,14196.0,9232.0,373.0,800.0,969.0,-0.15471452304688027,0.08788209465764678,0.9767182451176509,-0.11983999103495191
-208.2075834274292,2392.0,14324.0,9316.0,511.0,661.0,910.0,-0.2043148662691772,0.1645172396437293,0.9499649510369684,-0.16957625152935257
-208.21534729003906,2348.0,14432.0,9272.0,105.0,521.0,734.0,-0.2374466924615096,0.23048898071870666,0.9256944132321551,-0.18325870052228652
-208.2231194972992,2348.0,14228.0,9100.0,-66.0,400.0,540.0,-0.259378450817971,0.28138645222675157,0.9060313240583946,-0.18069787928889336
-208.23093056678772,2216.0,14036.0,9108.0,-175.0,260.0,437.0,-0.2684783255389507,0.3236388800329216,0.8911993815386169,-0.17012032915564151
-208.23871731758118,2176.0,13528.0,9160.0,-242.0,133.0,370.0,-0.26629934108720077,0.3597611815995693,0.8805185341777186,-0.15602456255386848
-208.24649238586426,2204.0,13352.0,9304.0,-276.0,231.0,341.0,-0.27050850135046045,0.39514809425802583,0.8673968491740596,-0.13529907739630745
-208.2542953491211,2184.0,13204.0,9516.0,-264.0,-75.0,336.0,-0.2515913151630494,0.4256173562353477,0.8600903836817577,-0.12568296664197187
-208.26207971572876,2144.0,13236.0,9584.0,-293.0,-179.0,282.0,-0.224014901811706,0.4509095333275314,0.8561267120301992,-0.11638285728147336
-208.26985692977905,2216.0,13188.0,9848.0,-276.0,-135.0,131.0,-0.20165175610029876,0.46451797329814837,0.8560614254725382,-0.10352998388183207
-208.27766585350037,2172.0,13212.0,9512.0,-261.0,-164.0,124.0,-0.17761844894499348,0.47668776956141146,0.8559300557882119,-0.09275880844065276
-208.28544116020203,1940.0,13224.0,9824.0,-220.0,-173.0,38.0,-0.15517898387524448,0.481384619135646,0.8585618403619464,-0.0840231973765778
-208.29325461387634,1920.0,13148.0,9852.0,-267.0,-166.0,52.0,-0.131078457136657,0.48748737241116125,0.8602601180147001,-0.07160327623558496
-208.3010425567627,1808.0,12936.0,9864.0,-243.0,-195.0,134.0,-0.10519911886719925,0.4988893839493306,0.8579401794253814,-0.06309656488087856
-208.3088276386261,1920.0,12880.0,9904.0,-213.0,-127.0,79.0,-0.08593933487332404,0.5059293190414711,0.8566250994613888,-0.05332348289946919
-208.3166127204895,1772.0,12872.0,9872.0,-138.0,-158.0,173.0,-0.06718653108863497,0.5190181017749206,0.8505790005077469,-0.05120101527778959
-208.32439804077148,1912.0,12840.0,9928.0,-65.0,-179.0,34.0,-0.05076998331845662,0.5210491580231329,0.8502633327736749,-0.054611799620876415
-208.33221817016602,1928.0,12880.0,9928.0,-12.0,-159.0,234.0,-0.037271991547926736,0.5375493116949472,0.8401303753294105,-0.06190709645269679
-208.34000539779663,1892.0,12940.0,9796.0,71.0,-174.0,-256.0,-0.02918759824111399,0.5174068409427918,0.8520033291616202,-0.07435436874879305
-208.34779715538025,1924.0,12940.0,9800.0,116.0,-227.0,-28.0,-0.01769461127122576,0.5134301194160126,0.8528850526339115,-0.09307792542847809
-208.35557961463928,2064.0,13028.0,9736.0,130.0,-244.0,-29.0,-0.005561715428645001,0.5089427047955146,0.8532595457139891,-0.11355412015806944
-208.36336946487427,2008.0,13016.0,9652.0,168.0,-290.0,-33.0,0.008273014854596264,0.5033175584297934,0.8528379132986421,-0.1388181769146426
-208.37114477157593,2064.0,13028.0,9660.0,141.0,-371.0,13.0,0.029867562902416867,0.4995994420102246,0.8497844070294116,-0.1654532798073629
-208.37893271446228,2100.0,13036.0,9680.0,182.0,-459.0,70.0,0.05696888043413055,0.4981755567025219,0.8421121032817365,-0.19855192487766035
-208.38670563697815,2204.0,12988.0,9620.0,149.0,-529.0,28.0,0.08979439270948324,0.49125181577959004,0.834720051354114,-0.2320583038776594
-208.39450240135193,2248.0,13092.0,9964.0,150.0,-568.0,12.0,0.12486873043230469,0.48117742915184736,0.8256274274224301,-0.26686219837748293
-208.402334690094,2252.0,13028.0,9680.0,129.0,-665.0,-32.0,0.16638657327240314,0.46398991374655024,0.8152849100854045,-0.303873959995209
-208.41014742851257,2260.0,13000.0,9676.0,139.0,-687.0,-69.0,0.2074783001662923,0.44205843878180634,0.8028874826135438,-0.3419192622891903
-208.4179208278656,2272.0,13024.0,9628.0,106.0,-722.0,-2.0,0.2534729852574419,0.4214545730017292,0.785115846883916,-0.3764579599535148
-208.42569756507874,2260.0,13156.0,9620.0,106.0,-818.0,-63.0,0.30283873908887976,0.3916040134963411,0.7638365874317422,-0.4141118960151293
-208.4334774017334,2240.0,13252.0,9632.0,55.0,-901.0,-65.0,0.3576402214751673,0.3550725582424772,0.7379169979422802,-0.44888245066407845
-208.44125080108643,2260.0,13380.0,9712.0,30.0,-973.0,-88.0,0.4145075653910903,0.31111253895356994,0.7064772810025476,-0.4819567592291467
-208.44902682304382,2300.0,13416.0,9632.0,32.0,-1038.0,-51.0,0.47364160233759584,0.2644017679112927,0.6661557028606212,-0.5118514601002222
-208.45680141448975,2376.0,13388.0,9604.0,37.0,-1094.0,-31.0,0.5326782329742036,0.21431084085389787,0.6170905848165579,-0.5380743199026823
-208.4645745754242,2344.0,13224.0,9696.0,10.0,-1084.0,13.0,0.5889545629966251,0.1638768896263223,0.563350261975706,-0.5557997572001628
-208.47237992286682,2360.0,13136.0,9632.0,4.0,-1099.0,4.0,0.6402909678921725,0.11051292756002319,0.5041537292915126,-0.5688966395746051
-208.48018646240234,2364.0,13000.0,9728.0,22.0,-1093.0,52.0,0.6877248952291948,0.05955886070069402,0.43931390112008395,-0.5748830375621473
-208.48796272277832,2468.0,12972.0,9784.0,51.0,-1076.0,61.0,0.7286488810192823,0.011013275149176487,0.3700257887914265,-0.5762208184273796
-208.4957630634308,2436.0,12892.0,9632.0,142.0,-1014.0,107.0,0.763650036454787,-0.027266883517172002,0.2968903878420102,-0.5726702685602636
-208.5035891532898,2400.0,12732.0,9500.0,281.0,-979.0,159.0,0.7944948517575419,-0.05298648997411684,0.2168734844042346,-0.5647444149111619
-208.51136326789856,2408.0,12640.0,9388.0,393.0,-939.0,140.0,0.8177558084284193,-0.06891055121009489,0.13227591289168605,-0.5559045390911773
-208.5191457271576,2416.0,12592.0,9340.0,467.0,-965.0,196.0,0.8374625758467091,-0.0795663364473469,0.041507683888321344,-0.5390758242944769
-208.52694010734558,2516.0,12652.0,9472.0,569.0,-994.0,238.0,0.8517864928766342,-0.08320838028919586,-0.056181636289463065,-0.5141787235450438
-208.53471755981445,2292.0,12772.0,9384.0,623.0,-1024.0,3.0,0.8467833901442836,-0.0821401475027056,-0.1595424061552572,-0.5007565346375209
-208.54250502586365,2340.0,12904.0,9300.0,640.0,-1072.0,343.0,0.8460134145216315,-0.08562935943153223,-0.2627338353982418,-0.4559603568181395
-208.55029034614563,2480.0,13148.0,9360.0,639.0,-1135.0,361.0,0.8333131921812272,-0.09095491871798972,-0.3667931636277509,-0.4034589218417193
-208.55807995796204,2476.0,13360.0,9348.0,616.0,-1119.0,390.0,0.8106055150491306,-0.09709164523971663,-0.4636398546938929,-0.34428185623991975
-208.5658631324768,2524.0,13548.0,9424.0,565.0,-1157.0,381.0,0.7747276515558502,-0.10632443820840659,-0.5554101392845866,-0.2828634952310035
-208.5736527442932,2576.0,13772.0,9396.0,559.0,-1093.0,437.0,0.7330240406368106,-0.11575029553949726,-0.6349216874928828,-0.21483034162378567
-208.58143162727356,2532.0,13688.0,9716.0,549.0,-1092.0,498.0,0.6829274138034349,-0.12770531751225234,-0.7053378347335751,-0.14071260870369184
-208.58921885490417,2644.0,13728.0,9236.0,520.0,-1275.0,568.0,0.6121120966821234,-0.14599233035377898,-0.7748392390263241,-0.06024262808340222
-208.59703636169434,2720.0,13632.0,9460.0,548.0,-952.0,632.0,0.5547132198645923,-0.1633822529913182,-0.8155330534428585,0.022479365140158202
-208.60482716560364,2848.0,13608.0,9328.0,482.0,-830.0,679.0,0.49861661973994126,-0.18570885659844916,-0.8406636440954343,0.10088768307477734
-208.61260604858398,3316.0,13376.0,9396.0,475.0,-706.0,589.0,0.44756499900928765,-0.2011655852582465,-0.8541759766410983,0.1720505155433986
-208.62039136886597,3140.0,13804.0,9244.0,362.0,-623.0,498.0,0.39888549488848973,-0.21412791445407334,-0.8618189396101806,0.22870879639466757
-208.62822151184082,3240.0,14064.0,9268.0,203.0,-556.0,338.0,0.3535329188377547,-0.22095806214317432,-0.8692742994338508,0.2656204103900502
-208.63600420951843,3344.0,14368.0,9684.0,104.0,-416.0,184.0,0.3194900595127901,-0.22184892445052962,-0.8754306975430404,0.28693248403058613
-208.64379239082336,3556.0,14460.0,9656.0,-55.0,-346.0,-99.0,0.2943604302956523,-0.20701740490505127,-0.887931889459298,0.28648331683324474
-208.65158081054688,3176.0,14384.0,9712.0,-138.0,-259.0,-241.0,0.2777072777603209,-0.18527847756858298,-0.9019027758490465,0.27408381299267637
-208.65935373306274,2876.0,14364.0,9748.0,-211.0,-189.0,-356.0,0.26776031589925364,-0.15769490575042192,-0.9165725052017357,0.25165764967135706
-208.66717100143433,2796.0,14152.0,9604.0,-287.0,-98.0,-470.0,0.2660157201854909,-0.12447265230379008,-0.9305323859108556,0.21875025534546208
-208.67495942115784,2664.0,13856.0,9388.0,-399.0,-120.0,-514.0,0.26135244314621114,-0.08952059932810383,-0.9449492765493649,0.1753619899130806
-208.68274545669556,2764.0,13492.0,9280.0,-475.0,-113.0,-548.0,0.2562248387523274,-0.05329000657927957,-0.9571165364736045,0.12424549413920542
-208.69053268432617,2400.0,13092.0,9344.0,-501.0,-139.0,-530.0,0.24755134406046234,-0.01864376122966834,-0.9660926287210946,0.07096319434632853
-208.6983242034912,2360.0,12864.0,9108.0,-469.0,-193.0,-446.0,0.2329121272928876,0.010034908258093474,-0.9721977229471057,0.02197337189909496
-208.7061047554016,2392.0,12724.0,9252.0,-433.0,-241.0,-436.0,0.21336319260964326,0.038651517496971655,-0.9759156909806235,-0.02389084201977511
-208.71389055252075,2404.0,13032.0,9204.0,-431.0,-251.0,-327.0,0.19253297937696406,0.05789728560706502,-0.9772497307437481,-0.06754198644424869
-208.72166776657104,2540.0,12848.0,9200.0,-354.0,-297.0,-315.0,0.1669709991839264,0.07699102234166341,-0.9773801611078474,-0.10450401228232764
-208.7294282913208,2508.0,12912.0,9368.0,-502.0,-271.0,-271.0,0.14457122726872973,0.09019674982457805,-0.9734291435577839,-0.1529686537806195
-208.73721718788147,2652.0,13048.0,9428.0,-194.0,-202.0,-297.0,0.12492820024573367,0.11022502382561662,-0.9704094275055029,-0.17478252748614911
-208.74503993988037,2328.0,13108.0,9536.0,-185.0,-153.0,-336.0,0.10858772064139663,0.1342523008184044,-0.965369772304808,-0.1955664321171547
-208.7528314590454,2592.0,13156.0,9588.0,-217.0,-21.0,-300.0,0.10422454683789333,0.15703551799273957,-0.9578188801565197,-0.21693336013831188
-208.76061177253723,2728.0,13112.0,9628.0,-230.0,96.0,-263.0,0.11041065909624787,0.17865811518283245,-0.9484798610562766,-0.23722714306739007
-208.76839447021484,2776.0,13152.0,9864.0,-227.0,175.0,-200.0,0.12428549506626933,0.19655665523403792,-0.9385030578133363,-0.25520698947003273
-208.77620840072632,2816.0,13204.0,9896.0,-201.0,13.0,-181.0,0.12478033900848008,0.20942887273653704,-0.9304822448794554,-0.27344506985009126
-208.78399896621704,2948.0,13516.0,9948.0,-146.0,353.0,-188.0,0.1515799192257189,0.23136600949183916,-0.9190415808640495,-0.2808128743171426
-208.7917559146881,2820.0,13448.0,9996.0,-118.0,482.0,-286.0,0.18544341019359523,0.26422513687695875,-0.9028249504577245,-0.28408260680500924
-208.799574136734,2896.0,13732.0,10048.0,-96.0,469.0,-257.0,0.21806127794980357,0.2942147091860498,-0.8858825724629854,-0.2847789524593245
-208.80734992027283,2740.0,13788.0,9980.0,-147.0,503.0,-333.0,0.25215027756551117,0.3291776200847125,-0.8627844367209173,-0.2892496287139704
-208.81573295593262,2716.0,13760.0,9804.0,-227.0,485.0,-495.0,0.28220111310426765,0.3729388298015345,-0.8304169820155315,-0.3027982776853112
-208.82358741760254,2656.0,13832.0,9516.0,-323.0,573.0,-561.0,0.31859459445031413,0.41958011586561655,-0.7872000258525234,-0.3205715677583121
-208.83139181137085,2392.0,13732.0,9556.0,-422.0,409.0,-587.0,0.34490625070041314,0.45839322962416096,-0.7405041908609417,-0.3500983698618107
-208.83917474746704,2344.0,13568.0,9320.0,-501.0,353.0,-617.0,0.36794555987560024,0.49252122771139656,-0.6878239816426913,-0.38592366537786266
-208.84696984291077,2192.0,13388.0,9300.0,-494.0,220.0,-616.0,0.3807637589719609,0.5196661449131407,-0.6359314853520956,-0.4249202320701318
-208.8547546863556,2056.0,13240.0,9216.0,-468.0,84.0,-587.0,0.384151858199602,0.5385688910038715,-0.5878040192804183,-0.4656794330893715
-208.86253356933594,1912.0,12884.0,9288.0,-452.0,-61.0,-570.0,0.37844207770990457,0.5489757239992452,-0.5435112316181269,-0.5099046865670701
-208.87031650543213,1844.0,13088.0,9288.0,-417.0,-201.0,-526.0,0.3649101448191708,0.5500736469018364,-0.5053855251364295,-0.5557382838843667
-208.87810349464417,2084.0,12948.0,9380.0,-362.0,-299.0,-599.0,0.33941876903821955,0.5491287244307813,-0.46751884551627154,-0.6038863074426637
-208.88587975502014,2088.0,13044.0,9484.0,-347.0,-409.0,-662.0,0.3037550158218304,0.542666154605443,-0.4284122732940243,-0.6555221270863916
-208.89368224143982,2128.0,13084.0,9588.0,-234.0,-546.0,-732.0,0.2518206067986007,0.530646685223814,-0.39350311000007404,-0.7072169256125258
-208.90146160125732,2256.0,13056.0,9748.0,-215.0,-566.0,-731.0,0.19667619675467032,0.5141632003144875,-0.3576201592065919,-0.7543623126863739
-208.9092423915863,2268.0,13208.0,9836.0,-218.0,-615.0,-805.0,0.13384888107182044,0.4928682358220765,-0.3164633171432955,-0.7993849811299419
-208.9169991016388,2256.0,13192.0,9728.0,-199.0,-620.0,-819.0,0.06799293687755005,0.46777772503726844,-0.2735397952901813,-0.8376974041301123
-208.9247977733612,2300.0,13072.0,9792.0,-170.0,-634.0,-828.0,-0.0006113916871636245,0.43813472238075785,-0.2302040851054531,-0.8689324890032036
-208.93257188796997,2068.0,13068.0,9848.0,-127.0,-612.0,-855.0,-0.07246660780343635,0.4069783030951474,-0.18718554495098952,-0.8911110050519288
-208.94038844108582,2556.0,12812.0,9788.0,-130.0,-610.0,-916.0,-0.14826123425970086,0.3733839574231213,-0.14018044947703204,-0.9049599263720224
-208.94819951057434,2264.0,12888.0,9764.0,-124.0,-595.0,-873.0,-0.21941995204253026,0.3370274476268164,-0.09400893246503429,-0.910730313983559
-208.95598459243774,2304.0,12856.0,9832.0,-109.0,-621.0,-836.0,-0.2864952800881617,0.2951822980092647,-0.04884630878310944,-0.9101658659538056
-208.96378111839294,2272.0,12856.0,9768.0,-95.0,-606.0,-773.0,-0.3467006013401622,0.25158065100652116,-0.0064105112891390615,-0.9035844035918928
-208.97158694267273,2088.0,12880.0,9820.0,12.0,-632.0,-659.0,-0.3979908402823405,0.2009053072604015,0.02593996091852102,-0.8947443584586078
-208.97937631607056,2060.0,12804.0,9636.0,49.0,-657.0,-613.0,-0.44384565978928564,0.1458567372469966,0.05528708345186404,-0.8824229036517927
-208.98715710639954,2508.0,12856.0,9668.0,68.0,-671.0,-760.0,-0.49804713014710883,0.08732586625936353,0.08515291645705082,-0.8585291084483618
-208.9949848651886,2288.0,12948.0,9672.0,47.0,-696.0,-471.0,-0.5271174009862548,0.02934687236418774,0.11492370007459939,-0.8414740339553561
-209.00276732444763,2332.0,12812.0,9636.0,33.0,-710.0,-441.0,-0.5510301067377404,-0.028858484701968515,0.145655067907159,-0.8211684422347595
-209.01055693626404,2364.0,13060.0,9568.0,9.0,-719.0,-396.0,-0.5688349214284316,-0.08582064148869453,0.17787620294553766,-0.7983869400758362
-209.0183346271515,2376.0,13160.0,9628.0,-255.0,-683.0,-363.0,-0.5840275344714423,-0.12624034345910845,0.2260002439304529,-0.7693497932708571
-209.02612280845642,2492.0,13228.0,9872.0,-35.0,-706.0,-333.0,-0.5915535793757418,-0.17817064214477243,0.259804384788247,-0.7421733400293139
-209.03390550613403,2476.0,13168.0,9928.0,-29.0,-665.0,-508.0,-0.6083023907442915,-0.23078516051589076,0.28709306412415503,-0.7030533291523748
-209.0416965484619,2608.0,13172.0,9760.0,-35.0,-593.0,-230.0,-0.6074310209664615,-0.27077824802715916,0.3153537267654055,-0.6769480941535729
-209.04948091506958,2572.0,13104.0,9880.0,-20.0,-544.0,-183.0,-0.6031027472692256,-0.3066101414322428,0.3403828979961447,-0.6529906432399769
-209.0572714805603,2588.0,13076.0,9844.0,-19.0,-515.0,-161.0,-0.5969485222360047,-0.33945103631405615,0.36363342206371685,-0.6294411728698676
-209.06505370140076,2704.0,13076.0,9912.0,52.0,-460.0,-102.0,-0.5860391844342981,-0.3704214902011095,0.3811785762958059,-0.6115953620473872
-209.07284450531006,2644.0,13024.0,9984.0,42.0,-415.0,-58.0,-0.5737149398869911,-0.3964397870712872,0.3978156810072114,-0.5961789554505487
-209.0806176662445,2596.0,12800.0,9928.0,65.0,-367.0,-45.0,-0.5608968795447387,-0.4201725529565677,0.4108407239272183,-0.5831463073894015
-209.08839321136475,2660.0,13072.0,9892.0,59.0,-346.0,40.0,-0.5441666522879328,-0.43906741139616495,0.4258595491031002,-0.574235236837064
-209.09625458717346,2584.0,13020.0,9840.0,88.0,-285.0,13.0,-0.5295042028542413,-0.4569254438157528,0.4351645098966585,-0.5669887893775969
-209.10403442382812,2512.0,12960.0,9904.0,96.0,-261.0,27.0,-0.5144073484415241,-0.473138726070971,0.443258668212941,-0.5612901021890452
-209.11182308197021,2444.0,13012.0,9936.0,79.0,-224.0,31.0,-0.5009840465003957,-0.48637605795013333,0.45047283292851453,-0.5563519948722541
-209.11960124969482,2328.0,12968.0,9812.0,42.0,-261.0,100.0,-0.48406894199865624,-0.49682407470260836,0.46380353690642534,-0.5511164825527256
-209.12737464904785,2504.0,12976.0,9716.0,77.0,-285.0,82.0,-0.4652141566896533,-0.5103049614831969,0.47538759852272733,-0.5451341723575598
-209.13515377044678,2188.0,12896.0,9644.0,64.0,-269.0,173.0,-0.44292091609605466,-0.5183328802749502,0.4906428263839527,-0.5426063989932965
-209.14292812347412,2244.0,12940.0,9516.0,74.0,-300.0,166.0,-0.4187955277257449,-0.5280648229876124,0.5058879968308224,-0.5383634305397
-209.1507043838501,2252.0,13060.0,9584.0,103.0,-326.0,238.0,-0.3883381549404179,-0.53630476525956,0.5234768597581665,-0.5362300378336605
-209.15847730636597,2244.0,13068.0,9516.0,106.0,-352.0,222.0,-0.35677314695033985,-0.5458662124507526,0.5403571904113376,-0.531749101071724
-209.16626238822937,2304.0,13188.0,9628.0,103.0,-375.0,199.0,-0.324823738923778,-0.5567085326438743,0.5562385984235165,-0.5245605493524302
-209.17404699325562,2368.0,13096.0,9624.0,92.0,-438.0,190.0,-0.29024000287454504,-0.5696539639940745,0.5730774028919644,-0.5126766937669612
-209.18182826042175,2396.0,13420.0,9648.0,127.0,-403.0,51.0,-0.26141253765085654,-0.5879691854538281,0.5796638190196856,-0.4999455760732505
-209.1896471977234,2416.0,13324.0,9652.0,91.0,-453.0,237.0,-0.22335492269053273,-0.5972288422499793,0.5975122543328875,-0.4862194920164002
-209.19744777679443,2452.0,13384.0,9660.0,50.0,-433.0,250.0,-0.18747390750063236,-0.6029818891035494,0.6162145388967424,-0.4706867508989758
-209.20523810386658,2492.0,13480.0,9672.0,20.0,-431.0,-65.0,-0.16588290074032028,-0.6240808797759378,0.6185242438682322,-0.447698200227899
-209.21308064460754,2484.0,13364.0,9520.0,6.0,-497.0,-144.0,-0.14429487701481702,-0.6507206266427198,0.616965954553191,-0.4184431448252615
-209.22087740898132,2440.0,13320.0,9568.0,-2.0,-478.0,-163.0,-0.1245877136547644,-0.676293913427319,0.6131644744481013,-0.3887592719694596
-209.22865557670593,2376.0,13072.0,9604.0,-255.0,-261.0,-210.0,-0.1327956815558875,-0.6931637969833647,0.6118092514296901,-0.3571816027971689
-209.23644185066223,2428.0,13216.0,9472.0,19.0,-497.0,-198.0,-0.11124425807362347,-0.7186849306967283,0.6043043747263824,-0.3254733600798128
-209.24423837661743,2368.0,13160.0,9760.0,44.0,-766.0,-219.0,-0.07420397364306326,-0.7506233649009098,0.5952835124362396,-0.2769401996496516
-209.2520351409912,2392.0,13056.0,9672.0,105.0,-455.0,-205.0,-0.048669144845025256,-0.7722031372076278,0.5816625771875371,-0.25100254087619084
-209.2598204612732,2516.0,13060.0,9584.0,71.0,-469.0,-175.0,-0.023959886767228915,-0.7909083610279111,0.5697306985373921,-0.2220288707045562
-209.2676124572754,2252.0,13040.0,9720.0,134.0,-493.0,-110.0,0.007595738055951534,-0.8053884624793121,0.5599745457537545,-0.19421698529343767
-209.27539563179016,2272.0,12944.0,9668.0,150.0,-467.0,-101.0,0.03914914530348753,-0.8173743284641894,0.5494868158788736,-0.1686143255035542
-209.28319311141968,2364.0,13000.0,9648.0,161.0,-498.0,-55.0,0.07357023267867509,-0.8259327381244074,0.5409144555692603,-0.14083353547410213
-209.29097390174866,2356.0,13024.0,9564.0,192.0,-506.0,48.0,0.1117080644514377,-0.8277348937620084,0.5381580047518462,-0.11296997790042289
-209.2987937927246,2444.0,13088.0,9616.0,194.0,-498.0,5.0,0.1489514673053708,-0.8296277443921157,0.5311732839267382,-0.08594305419818558
-209.3065676689148,2404.0,13076.0,9564.0,158.0,-514.0,58.0,0.184406028032618,-0.8278279523170873,0.5269222321683005,-0.05521104449752008
-209.31434893608093,2380.0,13088.0,9560.0,211.0,-508.0,85.0,0.22312140210904463,-0.8220087257383689,0.52326005938733,-0.02678441675387069
-209.32212567329407,2488.0,13096.0,9608.0,211.0,-464.0,154.0,0.2594969235230415,-0.8110802672543652,0.524223364786029,-0.00010278656587309465
-209.32990956306458,2580.0,13220.0,9532.0,211.0,-442.0,167.0,0.29432997078941464,-0.7978526760622583,0.5255090371593437,0.025322469454125758
-209.33767914772034,2652.0,13224.0,9724.0,158.0,-381.0,144.0,0.32223186871001175,-0.7857743992507801,0.5257295735130748,0.04830767851480217
-209.34545707702637,2660.0,13276.0,9560.0,166.0,-375.0,185.0,0.34975433530866656,-0.7704368069057023,0.5281787698708018,0.07159761557136547
-209.35323190689087,2640.0,13364.0,9500.0,171.0,-331.0,194.0,0.37503155358904305,-0.7536893319802872,0.5318479319024327,0.09187764691589792
-209.36101508140564,2696.0,13080.0,9480.0,181.0,-313.0,202.0,0.39957528396872194,-0.7353839000563843,0.5360093087381336,0.11065321018951522
-209.36877179145813,2728.0,13228.0,9472.0,217.0,-296.0,235.0,0.424766565534163,-0.7134286041866363,0.5424916242651415,0.127655117934174
-209.37657237052917,2676.0,13344.0,9516.0,247.0,-304.0,216.0,0.45178684711213124,-0.6901069492064107,0.5470250323226771,0.14284487196211998
-209.3843913078308,2752.0,13544.0,9564.0,222.0,-226.0,155.0,0.47379216325173396,-0.6707883460785505,0.5499753675042979,0.15195748071403925
-209.39219903945923,2752.0,13268.0,9432.0,243.0,-223.0,244.0,0.4951739769701968,-0.6456209531028652,0.5579229069044623,0.16339628942341933
-209.40000176429749,2744.0,13268.0,9672.0,270.0,-172.0,297.0,0.5141635752705651,-0.616547041307357,0.5706790538229518,0.17271647648060168
-209.40783190727234,2776.0,13256.0,9576.0,281.0,-160.0,302.0,0.5323159938053713,-0.5859979570935667,0.5835677277751323,0.1808169906854315
-209.415602684021,2776.0,13260.0,9536.0,328.0,-123.0,387.0,0.5486934732920827,-0.5484819591103685,0.6022137399426047,0.18825946011147268
-209.42339992523193,2724.0,13260.0,9456.0,323.0,-155.0,426.0,0.5646528175179856,-0.507413873752827,0.6197728974391108,0.19894700799981951
-209.4311807155609,3052.0,13292.0,9188.0,300.0,-157.0,408.0,0.578743615801113,-0.46726282910660333,0.6346442286956601,0.20963773202369343
-209.43896460533142,2568.0,13264.0,9332.0,243.0,-146.0,443.0,0.588034195567181,-0.42724951725370647,0.6491032357749916,0.22436270669736696
-209.4467432498932,2788.0,13408.0,9292.0,174.0,-154.0,422.0,0.5944756534946631,-0.3909652527568287,0.659760120913122,0.24178802987655262
-209.45451831817627,2828.0,13376.0,9152.0,131.0,-171.0,464.0,0.5984200475670383,-0.3533963925161571,0.6688139642203941,0.263993025836349
-209.46229720115662,2828.0,13404.0,9436.0,46.0,-175.0,427.0,0.5997398080312298,-0.32167445551865315,0.6733402525461761,0.2888781951454513
-209.47007489204407,2848.0,13384.0,9164.0,29.0,-193.0,338.0,0.6030366499901756,-0.2951508189289979,0.6730510556001318,0.31021777739149076
-209.47785115242004,2964.0,13432.0,9228.0,-61.0,-166.0,258.0,0.6040164928462857,-0.27849831948219284,0.6690374669595415,0.3316498608768408
-209.4856698513031,2924.0,13552.0,9328.0,-67.0,-193.0,168.0,0.6086416196319635,-0.26644873560760074,0.6608053031785187,0.3491372243631965
-209.4934561252594,2916.0,13500.0,9300.0,-58.0,-129.0,100.0,0.6116234250281041,-0.25968271857569714,0.6544084957575292,0.36087559118121887
-209.50127267837524,2964.0,13592.0,9368.0,-66.0,-141.0,13.0,0.6177214528835784,-0.25787620428276076,0.6450086418935623,0.36862436408183735
-209.50905799865723,2956.0,13644.0,9500.0,-17.0,-139.0,-82.0,0.6277479785048766,-0.2587856544408612,0.6350289911042581,0.36837567915887753
-209.51683902740479,2924.0,13748.0,9568.0,19.0,-152.0,-145.0,0.6411657600951068,-0.2607216506628536,0.6239020542576403,0.36287313988554915
-209.52463459968567,2920.0,13612.0,9588.0,-28.0,-114.0,-216.0,0.6534411627180718,-0.27024822725381725,0.6115508858783549,0.3549451457806159
-209.53241229057312,3064.0,13760.0,9504.0,-4.0,-61.0,-24.0,0.657348831304496,-0.26972990536104885,0.6073458069313964,0.35534400647736264
-209.54023122787476,2932.0,13724.0,9720.0,-21.0,-73.0,-367.0,0.6717663124641433,-0.2878400380868299,0.5935224821348756,0.33705963435711983
-209.5480194091797,2832.0,13572.0,9452.0,-32.0,-56.0,-368.0,0.6843484288173372,-0.3068383937340662,0.5797223331670336,0.31849559578322467
-209.5558066368103,2688.0,13392.0,9236.0,-20.0,-99.0,-314.0,0.6972878796400968,-0.32090522164867047,0.5645908546633062,0.3033918562786306
-209.5635895729065,2712.0,13200.0,9240.0,6.0,-82.0,-238.0,0.7076579545503668,-0.3298863684732326,0.5529415932965752,0.2909481013166752
-209.57137846946716,2664.0,13196.0,9212.0,-243.0,-101.0,-201.0,0.710375418022891,-0.3517545585687985,0.5345045614905783,0.2931558795941801
-209.57915616035461,2724.0,13076.0,8964.0,87.0,-125.0,-173.0,0.7231903675944586,-0.3510296342740658,0.5235505109474194,0.2822565332577857
-209.58694887161255,2752.0,13136.0,9280.0,102.0,-63.0,-121.0,0.7321304347238243,-0.3483957462979839,0.5183076098053221,0.27196075476154424
-209.59472608566284,2748.0,13088.0,9328.0,131.0,-19.0,-54.0,0.7382359782313523,-0.34185393051209145,0.518504636253544,0.2632422322155253
-209.60254502296448,2732.0,13072.0,9328.0,220.0,21.0,-20.0,0.7442092709308129,-0.3288663943379564,0.524199979285194,0.2514236215099566
-209.61033058166504,2708.0,12828.0,9312.0,207.0,68.0,21.0,0.7464842623787571,-0.3157559600776507,0.533643674718548,0.2414204799290408
-209.61812043190002,3056.0,13392.0,9348.0,188.0,88.0,255.0,0.7419265316859992,-0.29322384542401153,0.5501170452304873,0.24685225257634844
-209.62589383125305,2828.0,13432.0,9372.0,113.0,168.0,248.0,0.7311598869226048,-0.27736933199388447,0.5695302177320222,0.25319321577543336
-209.63367819786072,2840.0,13512.0,9548.0,41.0,177.0,-63.0,0.7246820883734375,-0.28162115784524744,0.5800981629138536,0.2429228594195854
-209.6414566040039,2892.0,13572.0,9516.0,-15.0,190.0,-62.0,0.7159364933779356,-0.28956384702435395,0.5901585055377842,0.23516091147886534
-209.64922952651978,2900.0,13460.0,9480.0,-73.0,183.0,-87.0,0.7063644610116975,-0.3021866633883675,0.5977676994029499,0.22892410585249423
-209.6570122241974,3024.0,13428.0,9444.0,-81.0,229.0,-121.0,0.6945411235816967,-0.31786401198419356,0.6068862177758829,0.2196911837395168
-209.6647710800171,2880.0,13488.0,9692.0,-102.0,222.0,-137.0,0.6824134516088973,-0.3353519127759429,0.6143861311312794,0.2106671724172651
-209.67255067825317,2836.0,13332.0,9512.0,-106.0,245.0,-141.0,0.6685705401151112,-0.35350669588109973,0.6226731473779087,0.2008098612914843
-209.6803696155548,2776.0,13252.0,9632.0,-94.0,273.0,-217.0,0.6543488333570042,-0.3752899842044356,0.6299375026612429,0.18483445236502463
-209.68812727928162,2788.0,13068.0,9556.0,-92.0,274.0,-211.0,0.6393987656824826,-0.3962870552910266,0.636873156164929,0.16887383222100022
-209.69591546058655,2808.0,12996.0,9368.0,-13.0,300.0,-198.0,0.6249178347901465,-0.41215918954239683,0.6462543604260871,0.1481816583360399
-209.7037489414215,2508.0,12980.0,9384.0,-23.0,230.0,-111.0,0.6124327131851909,-0.422470422753014,0.6543440186525995,0.1351991825902865
-209.7115707397461,2508.0,13128.0,9360.0,-19.0,251.0,-75.0,0.5981560716794132,-0.4305495946682308,0.6645981281442352,0.12306782077884329
-209.71935510635376,2608.0,13224.0,9660.0,-45.0,224.0,-137.0,0.584815720893932,-0.4430698945247485,0.6704815529345277,0.11015501956625932
-209.72714400291443,2640.0,13304.0,9708.0,-88.0,201.0,-141.0,0.5708865928594343,-0.45757000998044467,0.6742710494731856,0.10038294627162064
-209.73494148254395,2648.0,13444.0,9620.0,-137.0,190.0,-213.0,0.5559134850598548,-0.47836238602454784,0.6737794900607463,0.09028191147172622
-209.7427272796631,2784.0,13552.0,9656.0,-184.0,204.0,-273.0,0.5381009083412409,-0.5046192760226665,0.6704539115335104,0.0793621523026374
-209.75050830841064,2748.0,13620.0,9792.0,-236.0,237.0,-338.0,0.51575459284003,-0.5366240171913087,0.6645003869336759,0.06686628375251669
-209.7583155632019,2764.0,13576.0,9816.0,-237.0,246.0,-390.0,0.4921743004989252,-0.5707330417027446,0.6552647257217831,0.05154020044473295
-209.76610732078552,2792.0,13820.0,9764.0,-261.0,179.0,-434.0,0.470380907660802,-0.6068815057347768,0.6394700453413199,0.038919157447976804
-209.77388954162598,2700.0,13584.0,9972.0,-283.0,206.0,-429.0,0.44483732570228146,-0.6423765762879954,0.6235264243204581,0.026208511455242847
-209.78168416023254,2632.0,13440.0,9756.0,-258.0,217.0,-483.0,0.41911409845365005,-0.6782686092145889,0.6034960074220033,0.00936137047621558
-209.7894639968872,2604.0,13328.0,9592.0,-15.0,179.0,-498.0,0.40876533779445784,-0.7044365905565674,0.5799429247655143,-0.018606249413647778
-209.79725456237793,2512.0,13120.0,9632.0,-288.0,144.0,-271.0,0.38306349356127467,-0.7277005305255936,0.5685137999610451,-0.02250237825772507
-209.8050503730774,2504.0,12904.0,9616.0,-218.0,125.0,-426.0,0.36182999095963314,-0.7551788403557168,0.5455649098790845,-0.033806890270670464
-209.81325459480286,2440.0,12764.0,9540.0,-166.0,151.0,-310.0,0.3425770937990907,-0.7743074004919681,0.5301038254226957,-0.04559516004757721
-209.82108974456787,2460.0,12636.0,9664.0,-54.0,131.0,-220.0,0.3318873776049754,-0.7853781051119288,0.5192404399253803,-0.05849244518214458
-209.8289065361023,2540.0,12676.0,9648.0,-1.0,139.0,-174.0,0.3245506374012415,-0.7924378504218187,0.5112556073650077,-0.07298521027668614
-209.83668637275696,2608.0,12784.0,9476.0,52.0,103.0,-142.0,0.32258444084720345,-0.7965492814209877,0.503963194654252,-0.08642695890106229
-209.8444583415985,2560.0,12944.0,9640.0,55.0,111.0,-47.0,0.32112892181842595,-0.7961830854483939,0.5033791214810458,-0.09786812593782065
-209.8522708415985,2608.0,13096.0,9692.0,36.0,34.0,-253.0,0.31987350574837153,-0.8058030831741566,0.486323495182619,-0.10886592442371833
-209.86005353927612,2720.0,13232.0,9804.0,-28.0,34.0,-29.0,0.31615969017280615,-0.8074913736820439,0.48549848705499865,-0.11086907055724902
-209.8678436279297,2768.0,13268.0,9780.0,-82.0,-8.0,-16.0,0.3105324488822923,-0.8104955400970092,0.4849347686796437,-0.10726065354846712
-209.87562155723572,2824.0,13376.0,9868.0,-224.0,-40.0,-39.0,0.29592774842732783,-0.8184342457447794,0.483094669540764,-0.09597756698419845
-209.88339972496033,2768.0,13340.0,9500.0,-272.0,-22.0,-68.0,0.27674056509296013,-0.8282710353587975,0.47980743289563177,-0.08465564928460743
-209.89118456840515,2820.0,13336.0,9748.0,-380.0,-19.0,-125.0,0.24895334666220417,-0.8423200800089887,0.472834686377516,-0.07033116917565849
-209.8989975452423,2848.0,13252.0,9932.0,-418.0,255.0,-271.0,0.20574680084627334,-0.8600060777601737,0.46047156923957905,-0.07761271853971786
-209.90676712989807,2776.0,13236.0,9944.0,-412.0,60.0,-413.0,0.1693404885271482,-0.882452989910215,0.43277105025618895,-0.07286794634174781
-209.9145324230194,2784.0,13252.0,10024.0,-422.0,108.0,-665.0,0.1281630699462602,-0.910943572845653,0.38490006653485886,-0.07488640313573426
-209.92231583595276,2664.0,13268.0,10204.0,-447.0,142.0,-979.0,0.08102548660779356,-0.9436886701164748,0.31016935600855267,-0.08174065700132999
-209.93009686470032,2600.0,13344.0,10332.0,-524.0,215.0,-1264.0,0.022786111311848236,-0.9730008779928839,0.20976970101181897,-0.09352409900006214
-209.93789315223694,2400.0,13388.0,10144.0,-595.0,121.0,-1404.0,-0.041141466622606766,-0.990114773852394,0.09476691787742879,-0.09486488074823259
-209.94568824768066,2100.0,13288.0,9952.0,-684.0,30.0,-1453.0,-0.11153635805713137,-0.9897368818075908,-0.025024299190461133,-0.08575739076700517
-209.9534695148468,2012.0,13296.0,9840.0,-765.0,-136.0,-1436.0,-0.18688419291079122,-0.9703430637735854,-0.1406239268499278,-0.06110276772683688
-209.9612591266632,1816.0,13304.0,9664.0,-937.0,-312.0,-1548.0,-0.27493182507959885,-0.9258705673177864,-0.2583565771495075,-0.020689687688112707
-209.96903944015503,1752.0,13388.0,9548.0,-786.0,-446.0,-1965.0,-0.3460604331401497,-0.8484727814724606,-0.3979980454978707,0.04397353175619361
-209.97683787345886,1964.0,13852.0,9680.0,-1186.0,-532.0,-2474.0,-0.43037534847813885,-0.7039779286194764,-0.5534471440306834,0.11352706374795427
-209.98463225364685,1848.0,14160.0,9440.0,-1333.0,-567.0,-3259.0,-0.4845572240027693,-0.4686438987235772,-0.7118720539178102,0.19701617118077866
-209.99243068695068,1864.0,14588.0,9320.0,-1471.0,-661.0,-4029.0,-0.48311757662041543,-0.13533625774412109,-0.817308011902011,0.28335334510292326
-210.00028944015503,1636.0,14696.0,9384.0,-1671.0,-524.0,-4841.0,-0.38362813941311896,0.26765635461411885,-0.8151918288328747,0.3415432749875524
-210.00808453559875,1528.0,14964.0,8856.0,-1654.0,-1201.0,-5276.0,-0.2449276092132087,0.6583642343153802,-0.6285325419187325,0.3339368877027535
-210.0158703327179,1816.0,14584.0,8796.0,-1654.0,-1437.0,-5704.0,-0.05506398854768829,0.9251979191842866,-0.28075435669089327,0.24930655567266757
-210.02366590499878,1956.0,14004.0,8476.0,-1584.0,-1730.0,-6055.0,0.14121195229278413,0.9733460714500066,0.15844944432440533,0.08689294169140689
-210.03145480155945,2136.0,13276.0,8204.0,-1454.0,-2042.0,-6283.0,0.2934179367968343,0.7611757372738144,0.5649443714483182,-0.12391637712755514
-210.03924679756165,2512.0,12408.0,8220.0,-1092.0,-2470.0,-6053.0,0.3656190775169605,0.3531347234793319,0.7925599385945334,-0.3368490774276394
-210.04707098007202,2448.0,11436.0,7944.0,-623.0,-2810.0,-5504.0,0.36699460362246894,-0.11441196321100564,0.7831415153917292,-0.4887885334744836
-210.0548610687256,2844.0,11156.0,8416.0,-172.0,-2825.0,-5083.0,0.3045341827950559,-0.5242104964174866,0.5788179183620157,-0.5453733623290955
-210.0626449584961,2816.0,11000.0,8412.0,107.0,-3256.0,-4574.0,0.23002422202611403,-0.8148433626894753,0.24945051186795658,-0.4699931847282505
-210.07045888900757,3612.0,11484.0,8824.0,264.0,-3147.0,-3744.0,0.1504924585921812,-0.9380211937728439,-0.08361332724087857,-0.30079406817216214
-210.07826828956604,3748.0,11916.0,9240.0,353.0,-3110.0,-3284.0,0.06546251030570889,-0.9214352419018129,-0.3743841119446398,-0.0806739824803875
-210.08606338500977,3860.0,12456.0,9908.0,315.0,-3154.0,-2441.0,-0.027871680724220187,-0.8138681928824099,-0.5579360565612751,0.1598408296299202
-210.09383869171143,4260.0,12864.0,10400.0,206.0,-3304.0,-2296.0,-0.13411890012808644,-0.6192741521233279,-0.6699233307822355,0.38692941993857344
-210.10167407989502,4584.0,12816.0,10672.0,105.0,-2799.0,-1899.0,-0.21869534688408793,-0.39792210970217934,-0.7060842742767047,0.5433924341399632
-210.10945343971252,4812.0,12720.0,10848.0,-55.0,-2463.0,-1681.0,-0.2832840450364516,-0.17074488876272026,-0.6967974500556393,0.6364508200836502
-210.1172342300415,4564.0,12484.0,11200.0,-176.0,-2090.0,-1428.0,-0.32584204277003836,0.035711986371084976,-0.6601138825194318,0.6758707563565699
-210.12501573562622,4228.0,12172.0,11052.0,-148.0,-1769.0,-853.0,-0.37157198263578944,0.19063762205613058,-0.606883956638352,0.6762273448714353
-210.13279676437378,3960.0,11992.0,11180.0,-146.0,-1568.0,-524.0,-0.41695269878652824,0.31241256885189295,-0.5500886999552341,0.6526494127627425
-210.14057540893555,4048.0,11964.0,10892.0,-69.0,-1325.0,-269.0,-0.46019156634455344,0.4005167648837018,-0.4949214001243442,0.6187591219621726
-210.14838314056396,3816.0,12024.0,10568.0,-73.0,-1250.0,-104.0,-0.5030332395269224,0.4725929217876369,-0.44227335932878975,0.5727196223592323
-210.15618443489075,3736.0,12064.0,10292.0,-73.0,-963.0,-240.0,-0.5232566733550409,0.5311708290423581,-0.3921762133704284,0.538755809091932
-210.16397428512573,3504.0,12216.0,10220.0,-92.0,-795.0,-375.0,-0.527029553227116,0.5838237357392639,-0.34171052216082315,0.514415799385336
-210.17177033424377,3528.0,12108.0,9776.0,-44.0,-752.0,-273.0,-0.533675413125517,0.6261905668207111,-0.2943851243388086,0.48622353503104865
-210.17957854270935,3288.0,12116.0,9400.0,-7.0,-686.0,-24.0,-0.5489361493732609,0.6550366794158171,-0.2608775612774924,0.44893089730276403
-210.1873710155487,3064.0,12076.0,8968.0,175.0,-651.0,320.0,-0.5850876056347689,0.6634325110011832,-0.24055232409137345,0.3995802503296137
-210.19514846801758,3108.0,12228.0,9284.0,234.0,-703.0,611.0,-0.6325231126219737,0.660813955105646,-0.23100503233196748,0.3314756458232642
-210.20295977592468,3108.0,12224.0,9432.0,369.0,-612.0,822.0,-0.6868766059506041,0.6386457113850104,-0.23285464427468114,0.2571203962485757
-210.21073842048645,3400.0,12188.0,9196.0,429.0,-459.0,1020.0,-0.7390370830943066,0.5991692949050417,-0.25115461264062083,0.17816202289992583
-210.2185251712799,3448.0,12056.0,9464.0,489.0,-367.0,1051.0,-0.7846592612842425,0.5471425527930226,-0.2732677354714923,0.101339110684296
-210.22630405426025,3524.0,12020.0,9392.0,263.0,-367.0,1305.0,-0.8117140548148752,0.4975523350681812,-0.3058782099338189,0.0006984066699889166
-210.23408460617065,3732.0,12120.0,9484.0,583.0,-373.0,1892.0,-0.8343732154896211,0.3995051406038654,-0.35608445646603787,-0.13198802888096423
-210.24186825752258,3908.0,11948.0,9620.0,600.0,-274.0,2140.0,-0.8236269686275298,0.28067129226553,-0.4098667128977212,-0.27362660672134986
-210.24966835975647,4128.0,11908.0,10196.0,692.0,-242.0,2478.0,-0.7707183155487609,0.13296443128824845,-0.45812930325792905,-0.4224112682993646
-210.2574508190155,4348.0,11988.0,9956.0,834.0,-220.0,2802.0,-0.6644569867315034,-0.042145904378287684,-0.49068771394261496,-0.562090920504501
-210.26522493362427,4412.0,11800.0,9916.0,1091.0,-88.0,3123.0,-0.4908712978449825,-0.23411117954793684,-0.5067488585181078,-0.6689117422749064
-210.2730085849762,4696.0,11640.0,9952.0,1278.0,-7.0,3097.0,-0.2727722848050526,-0.4092092339095786,-0.4967642506312038,-0.7151002466928574
-210.2807812690735,4956.0,11928.0,9860.0,1492.0,151.0,3620.0,0.012296314717680041,-0.5603312496170061,-0.4390844666811434,-0.7021983498032048
-210.288560628891,5324.0,11812.0,9948.0,1627.0,369.0,3846.0,0.3208854101540714,-0.6416481962385792,-0.32896689782659044,-0.6140854386389413
-210.29638576507568,5540.0,11416.0,9520.0,1725.0,581.0,4039.0,0.6068666134317116,-0.6324312384207136,-0.16694695464022297,-0.45152226579419485
-210.3042185306549,5856.0,11704.0,9424.0,1876.0,857.0,4398.0,0.825173481835918,-0.5185824941642758,0.043474763221966466,-0.21970631894404066
-210.31200051307678,5580.0,11796.0,9356.0,1958.0,1109.0,4484.0,0.9120403864896534,-0.31065352537151386,0.26444980423243136,0.04174951050590408
-210.31978344917297,5868.0,12108.0,9216.0,1958.0,1485.0,4716.0,0.8287932172475008,-0.04639246417089874,0.46947314867673223,0.3009061398247699
-210.327574968338,5828.0,12384.0,9440.0,1963.0,1540.0,4958.0,0.5790386219426633,0.23265107346100594,0.5871003507620268,0.5156558255767971
-210.33535242080688,5936.0,12504.0,9208.0,1901.0,2164.0,5109.0,0.17763171669727784,0.43904300810072927,0.6036063293254781,0.6413638666617129
-210.3431272506714,6012.0,12540.0,9244.0,1827.0,2478.0,5119.0,-0.2744444435028673,0.5305066958155006,0.48593089500284287,0.6380549023454465
-210.35092854499817,5916.0,12568.0,9144.0,1745.0,2771.0,5287.0,-0.6742715133785347,0.49084424266634075,0.23898667019328132,0.49730798018677996
-210.35870456695557,6036.0,12356.0,8904.0,1687.0,3024.0,5478.0,-0.9116925601880462,0.325883291733478,-0.08734869587838663,0.2344929875178864
-210.36648535728455,5824.0,12180.0,8608.0,1634.0,3121.0,5772.0,-0.906476755410495,0.07559078121038733,-0.4015797882153549,-0.10639360597975826
-210.37430214881897,5548.0,11924.0,8444.0,1603.0,3173.0,6136.0,-0.6367734633857779,-0.20155563504720328,-0.6018855502220344,-0.4377541167622743
-210.38209772109985,5432.0,11688.0,8656.0,1663.0,3140.0,6586.0,-0.15981210681546648,-0.435439005962098,-0.6060718346111733,-0.6461655313408389
-210.3898801803589,5600.0,12024.0,8360.0,1688.0,3115.0,6953.0,0.3812466204834044,-0.5380853045321485,-0.3969928336250257,-0.638366594886434
-210.39766788482666,5460.0,11680.0,7952.0,1671.0,3169.0,7101.0,0.7928668903630981,-0.4533045672208074,-0.04204679043035088,-0.4051038520147812
-210.405424118042,5496.0,11776.0,8076.0,1757.0,3186.0,7437.0,0.9216490777720568,-0.19954391401112095,0.3326827690671634,-0.008208470554490017
-210.41322445869446,5244.0,11652.0,8340.0,1929.0,3084.0,7708.0,0.6990364481300395,0.1459113369105611,0.5724719782743014,0.4029066393563389
-210.4210159778595,5088.0,11552.0,8236.0,2137.0,3025.0,7941.0,0.1917298822974527,0.45024018949512473,0.5805488624330972,0.6507583593971236
-210.4288022518158,5244.0,11388.0,8620.0,2343.0,2968.0,7898.0,-0.3967490036939501,0.5728498843687714,0.359749703928337,0.6204944710229229
-210.43658113479614,5296.0,11476.0,8708.0,2600.0,2841.0,8019.0,-0.8295680347507755,0.45860677654163984,0.0010001536867906425,0.31858389777643426
-210.4443781375885,5288.0,11056.0,8732.0,3032.0,2729.0,8064.0,-0.9229202121487021,0.12853847125406473,-0.3415274154168202,-0.12269950258158954
-210.4521610736847,5228.0,10768.0,9004.0,3108.0,2637.0,8143.0,-0.620009347697457,-0.2634442752484008,-0.5311118220876778,-0.5139122055811924
-210.45995163917542,5776.0,11300.0,8912.0,3653.0,2767.0,7988.0,-0.038502331237160965,-0.5513537519149623,-0.5150568073958627,-0.6551664642621595
-210.46773219108582,6000.0,11184.0,9180.0,3982.0,2781.0,8008.0,0.5699063018262379,-0.5927597805390923,-0.2838868716501898,-0.4932047179606629
-210.4755539894104,5636.0,11444.0,8884.0,4212.0,3017.0,8004.0,0.9279004929409771,-0.3470874196036796,0.0760442874407855,-0.11290821360899282
-210.4833345413208,6240.0,11696.0,8692.0,4291.0,3249.0,7689.0,0.8603320791487786,0.06474840066589453,0.40976853583078077,0.296185930188871
-210.4911105632782,6520.0,12208.0,8456.0,4210.0,3546.0,7922.0,0.386234245758698,0.4381105520271709,0.5660050409688802,0.5818251844011857
-210.49891662597656,6652.0,12752.0,8740.0,4112.0,3823.0,7522.0,-0.26447315615200945,0.5833867081019408,0.47642840169348444,0.6022706007641148
-210.50672817230225,6708.0,12892.0,8860.0,4281.0,3995.0,7622.0,-0.8038601622766367,0.453067526580248,0.16941822643245744,0.34617354089461555
-210.51449251174927,6592.0,13088.0,9060.0,4401.0,4129.0,7533.0,-0.9686734904698554,0.09997607059331091,-0.21804311597897952,-0.06429349690167398
-210.52229738235474,6996.0,12972.0,9468.0,4396.0,4452.0,7230.0,-0.6769980008444934,-0.29522972684673227,-0.5236386379578624,-0.4246359524065265
-210.53006839752197,7396.0,13560.0,9072.0,4292.0,4549.0,6743.0,-0.0846426342783267,-0.5369307672338488,-0.6063633647044696,-0.5804002460409285
-210.53784942626953,7252.0,13444.0,9340.0,4107.0,4784.0,6147.0,0.5331646176573775,-0.5155036339912574,-0.4452764349840808,-0.5017174406654983
-210.5456473827362,7136.0,13796.0,9308.0,4393.0,4806.0,5739.0,0.9317578494435578,-0.2578555882163967,-0.1241911803195935,-0.22341521066552014
-210.55342054367065,7064.0,13884.0,9748.0,4368.0,4883.0,5615.0,0.952585910080011,0.10541727933914122,0.25079810485701814,0.13626295070157052
-210.5611972808838,6988.0,14308.0,9676.0,4317.0,5107.0,4844.0,0.6031692124432835,0.41362345892935126,0.5532449327897937,0.3987763530179354
-210.56900811195374,6860.0,14040.0,9476.0,4601.0,5232.0,4805.0,0.013796614463773706,0.567710800065309,0.6556990248784288,0.49756697005732015
-210.57677960395813,6876.0,14216.0,9992.0,4439.0,5157.0,4721.0,-0.5724577153895137,0.5018310446458895,0.5030347747260216,0.4091622931514761
-210.58455634117126,6784.0,14176.0,9732.0,4717.0,5093.0,4768.0,-0.9451206430234902,0.236441437371733,0.16773546223280075,0.1506891885106614
-210.59236812591553,7008.0,14016.0,10020.0,4835.0,5108.0,4791.0,-0.9494488168596853,-0.1282020173058032,-0.23182878539418564,-0.16842387356049895
-210.6001524925232,7244.0,14100.0,10144.0,4862.0,5128.0,4367.0,-0.5886715552836115,-0.4406593017676787,-0.5498358332289545,-0.3961890158283255
-210.60796403884888,7752.0,14508.0,10320.0,5098.0,5130.0,4237.0,0.00011117234344012816,-0.5880125873470581,-0.6671281557911369,-0.45736332222079734
-210.61573886871338,8480.0,14704.0,10524.0,4794.0,5415.0,3368.0,0.5711219773003609,-0.4659953559131372,-0.5625797414159902,-0.3743955793812641
-210.62355518341064,8304.0,14636.0,10396.0,4486.0,5945.0,2537.0,0.9301906190695489,-0.14220809205573554,-0.25522439797756025,-0.22222236031927334
-210.6313328742981,7636.0,15228.0,9748.0,4279.0,6336.0,1289.0,0.9519133223096694,0.24813538675640603,0.15903822201639267,-0.08364628256223278
-210.63911700248718,7448.0,15500.0,9148.0,3967.0,6796.0,599.0,0.6391682473103225,0.5236394457821182,0.5612120498039594,0.048028300054077946
-210.64692854881287,6564.0,15372.0,8320.0,3625.0,6892.0,253.0,0.11151487073563356,0.5866334693700167,0.7849533009411261,0.16514818061771858
-210.6547031402588,5968.0,14800.0,7684.0,3299.0,6864.0,-158.0,-0.4375438258103326,0.42382114661218806,0.7556089439085449,0.2408031562604628
-210.66248321533203,5792.0,14244.0,7804.0,3116.0,6550.0,-18.0,-0.8317561800568954,0.14013114447908195,0.4829209904171345,0.23522805168320757
-210.67030501365662,5928.0,14000.0,8060.0,3041.0,6349.0,-928.0,-0.9498105420719463,-0.21278074115018222,0.081419586321998,0.21437150306822425
-210.6780834197998,5564.0,14240.0,8392.0,2855.0,6047.0,-1640.0,-0.7792213775704966,-0.4923627684293305,-0.3399548100807865,0.18661102889346978
-210.68587064743042,5260.0,14740.0,8484.0,2716.0,5743.0,-2125.0,-0.3950322931319798,-0.6109067720779775,-0.6711923357033293,0.1422787816410624
-210.69367575645447,4688.0,14860.0,8508.0,2607.0,5449.0,-2959.0,0.08617149764600081,-0.5132251262633972,-0.8489732753351059,0.09175413087238932
-210.70147252082825,4556.0,15272.0,8948.0,2450.0,5176.0,-3942.0,0.5224148044805939,-0.20868446586384487,-0.8267003464389225,0.010005146894988309
-210.70928955078125,3660.0,15688.0,9268.0,2535.0,4887.0,-5090.0,0.774563486804733,0.2259351041474334,-0.5809315332392034,-0.10734657568423414
-210.71710538864136,2936.0,16316.0,9616.0,1973.0,4845.0,-5897.0,0.7628842238166512,0.5797970403685824,-0.1280193555218279,-0.2558399844498004
-210.72488927841187,2100.0,16852.0,9572.0,1589.0,4218.0,-7287.0,0.45411799014242826,0.6896033222927204,0.3892647123426872,-0.4082855528139694
-210.73267221450806,1496.0,17692.0,9564.0,1203.0,4053.0,-8303.0,-0.04019237469570341,0.46521177119710355,0.7811065671106211,-0.41452998899070576
-210.7404465675354,752.0,18976.0,9964.0,832.0,3819.0,-9885.0,-0.5073053011617955,-0.05389325444989359,0.834963524823125,-0.20633167656198978
-210.7482511997223,-628.0,20184.0,9696.0,365.0,2983.0,-10968.0,-0.6533143216899471,-0.5789361166534857,0.4574835348019082,0.16947620863748697
-210.75603342056274,-2152.0,20820.0,9124.0,-9.0,2249.0,-10326.0,-0.4342985100101878,-0.7526219904676439,-0.1417495650639377,0.4741856223797141
-210.7638120651245,-1228.0,21344.0,6796.0,-510.0,1019.0,-8072.0,-0.09880056659607445,-0.5504738295152601,-0.596179751854927,0.5760093007385357
-210.77159237861633,2496.0,20824.0,4308.0,-651.0,-564.0,-5139.0,0.09001481077236068,-0.22674872616723266,-0.7928209780614992,0.5584955199182544
-210.77935814857483,5236.0,19856.0,4216.0,-1042.0,-1810.0,-3827.0,0.1221641018741941,0.11044952024815523,-0.8725493268203603,0.45992880748607146
-210.7871332168579,6884.0,18332.0,5916.0,-1971.0,-1170.0,-3361.0,0.17626731887893074,0.3698115488898582,-0.8780177571698742,0.24749559328865098
-210.79495000839233,8044.0,16436.0,8432.0,-1990.0,51.0,-4229.0,0.31097920316436173,0.6131560544729022,-0.7255900178158566,0.029167003762243585
-210.80272769927979,8164.0,14480.0,10560.0,-1802.0,1242.0,-6313.0,0.43386841661797526,0.8300268193710272,-0.3096879866783816,-0.16403361574176756
-210.81050276756287,6812.0,13740.0,12192.0,-1847.0,1837.0,-8189.0,0.40015581738849265,0.8061000490735688,0.30371342725837286,-0.31278776637955347
-210.81835913658142,4256.0,13240.0,12616.0,-1847.0,2409.0,-9017.0,0.1693739508581556,0.43717929358396346,0.8252621662123824,-0.3148477204150792
-210.8262002468109,2796.0,13236.0,12304.0,-1782.0,2530.0,-9925.0,-0.16115493141686005,-0.17374609615074543,0.9555794333362533,-0.17524077361495513
-210.83400535583496,1204.0,13624.0,11852.0,-1567.0,2615.0,-9848.0,-0.4116050954524816,-0.6936559212918189,0.5897353351188358,0.040434425513738395
-210.84181308746338,-440.0,13552.0,11760.0,-1504.0,2644.0,-9541.0,-0.4556410118789047,-0.8583349115452443,-0.06650943264513448,0.22633811717385954
-210.8496527671814,-1028.0,13448.0,11060.0,-981.0,2456.0,-9093.0,-0.2584864461794008,-0.6281622889491771,-0.6665950528523645,0.3069982595983689
-210.85743880271912,-2292.0,13364.0,10444.0,-556.0,2531.0,-8222.0,0.06276362995665177,-0.16382462065931214,-0.9504109264287106,0.25679036458834886
-210.86523747444153,-3824.0,14052.0,9988.0,-205.0,1866.0,-7122.0,0.31481886362533107,0.32308629634492375,-0.8803822884423522,0.14639451634805867
-210.8730239868164,-4076.0,14660.0,8972.0,507.0,1324.0,-5781.0,0.4225476067363412,0.6782929848220859,-0.5984744366516269,0.05657292158845683
-210.88082027435303,-3244.0,14544.0,8044.0,739.0,1233.0,-5332.0,0.42303109466066025,0.8809732566851516,-0.21040038670190947,-0.025738905016501917
-210.88860702514648,-3196.0,14844.0,7528.0,680.0,1252.0,-4577.0,0.3538461498659637,0.9159421945292112,0.17187943069141257,-0.0793741759720522
-210.8964102268219,-3628.0,14388.0,7300.0,572.0,1119.0,-3338.0,0.2562061079435785,0.8509519041050361,0.44813885890888683,-0.09700953709949219
-210.90424990653992,-3452.0,13920.0,7244.0,470.0,886.0,-2535.0,0.16080360563214896,0.7488780278891569,0.634537985797791,-0.1033704229469418
-210.91205644607544,-3284.0,13736.0,7320.0,329.0,762.0,-1523.0,0.08251039966315293,0.6684013139885253,0.7334536523113222,-0.09207310854436057
-210.91984724998474,-2992.0,13652.0,7372.0,48.0,814.0,-632.0,0.02250872530067487,0.6322756180698699,0.7726722557044625,-0.05194694740098226
-210.92763257026672,-2060.0,13628.0,7872.0,-185.0,1036.0,-170.0,-0.03769620266825067,0.6224590788489346,0.7815512523264679,0.017358901170861057
-210.9354124069214,-1908.0,13400.0,8468.0,-256.0,1145.0,-28.0,-0.10127139627736705,0.6164270265878052,0.7748633144017324,0.09668851629077566
-210.94319200515747,-1320.0,13340.0,8732.0,-381.0,1259.0,-58.0,-0.1643086154533171,0.6012738848400625,0.7586469844227296,0.1895445787234545
-210.9509687423706,-764.0,13252.0,8872.0,-336.0,1530.0,-374.0,-0.23941219754429713,0.5505672280789573,0.7434626956314183,0.29465360550471653
-210.95875024795532,-608.0,13232.0,8912.0,-197.0,1727.0,-748.0,-0.31843234760082084,0.45549660110880197,0.7283762219268249,0.40073902444279585
-210.96652960777283,-536.0,13220.0,9008.0,-256.0,1922.0,-771.0,-0.3969194614061869,0.34067246720585187,0.6853549440739088,0.5066416997033992
-210.9743070602417,-772.0,13212.0,8860.0,218.0,1930.0,-1274.0,-0.4532528542119692,0.16801128876845578,0.652688922718406,0.5833791452869672
-210.98208856582642,-1152.0,13356.0,8368.0,417.0,1727.0,-1529.0,-0.47009593746443595,-0.023212263946908843,0.6151965613860305,0.6324588454917015
-210.98986744880676,-1016.0,13120.0,7708.0,583.0,1775.0,-1743.0,-0.45670489975386724,-0.23314715745830666,0.557189605685581,0.6531483605015544
-210.9976487159729,-1528.0,13380.0,7052.0,808.0,1300.0,-1707.0,-0.39821562915077563,-0.4143625383097066,0.5064522973831892,0.642832847652388
-211.00543975830078,-2100.0,13928.0,6704.0,777.0,921.0,-2015.0,-0.2917715312721343,-0.5701867819115776,0.4359682351648178,0.6322089094592918
-211.01322412490845,-2144.0,13724.0,6128.0,1180.0,613.0,-1880.0,-0.14977071782689996,-0.6916513308534022,0.38422877115753973,0.5929210908924554
-211.02101254463196,-2508.0,13532.0,6064.0,1041.0,257.0,-1580.0,-0.013711213484541605,-0.7609611605532823,0.3347777096978424,0.5555843768894606
-211.0287971496582,-2484.0,13404.0,6000.0,1025.0,-226.0,-1406.0,0.12756071666766863,-0.7831134033166729,0.28806004948380587,0.5361744762671905
-211.0365822315216,-2420.0,13220.0,5980.0,1189.0,-590.0,-1352.0,0.2830115185291333,-0.765798632880758,0.24150222700446927,0.5245317994265724
-211.04437637329102,-2204.0,13132.0,6004.0,1086.0,-835.0,-1040.0,0.4160923636713813,-0.714599047984196,0.19892050882881596,0.5259714599498044
-211.05217289924622,-2304.0,13204.0,6280.0,1129.0,-998.0,-1118.0,0.5478284375573647,-0.6386110272703811,0.14294605264931914,0.5211778821900476
-211.05996775627136,-1928.0,12784.0,6524.0,1243.0,-1052.0,-1077.0,0.669567870402714,-0.5369191322384012,0.08797244132269054,0.5056259110532828
-211.0677478313446,-2220.0,12936.0,6804.0,1030.0,-1035.0,-1300.0,0.7720103367551151,-0.43461360233664226,0.011946306170796188,0.4636467862242705
-211.07557034492493,-1704.0,12804.0,6852.0,1260.0,-998.0,-1281.0,0.8590058945155116,-0.3056047308779844,-0.051967394796820436,0.4074481703611296
-211.0833547115326,-1820.0,13000.0,6784.0,1195.0,-1115.0,-1619.0,0.9249779780321894,-0.1654889002698629,-0.1334608084706401,0.3149878992045834
-211.09114980697632,-2088.0,13108.0,6604.0,1180.0,-1166.0,-1747.0,0.9556080321934174,-0.017191565682777053,-0.215527514323199,0.20016400637093193
-211.0989363193512,-1820.0,13368.0,6168.0,1056.0,-1197.0,-1750.0,0.9452773003570241,0.12239061803555974,-0.2931862500143453,0.07425082389533445
-211.10674023628235,-2352.0,13096.0,5880.0,900.0,-1469.0,-1472.0,0.890372223554843,0.23943820981308422,-0.38518961977231064,-0.039186783781944685
-211.11452269554138,-2440.0,12972.0,5768.0,644.0,-1758.0,-1366.0,0.7970015071854366,0.3230603402283406,-0.4854418201135971,-0.15737488173304368
-211.12231969833374,-2152.0,12812.0,5584.0,370.0,-2043.0,-1229.0,0.6684716223925136,0.3649546863422943,-0.5849775043292078,-0.2788459904705284
-211.13009691238403,-2200.0,13008.0,5384.0,109.0,-2433.0,-1053.0,0.501870953708516,0.3565160837936444,-0.6779464998609626,-0.40175909590999664
-211.13790106773376,-2224.0,13080.0,5440.0,-199.0,-2865.0,-1156.0,0.2876789899480191,0.3048379996590372,-0.7340367587712642,-0.5343263323840041
-211.14567947387695,-2012.0,13456.0,5768.0,-410.0,-3155.0,-1298.0,0.03440218926964908,0.22083032413797005,-0.7274567256429102,-0.6487350534936969
-211.1534526348114,-1792.0,13596.0,6392.0,-264.0,-3276.0,-1413.0,-0.2372133873207992,0.11854401828479723,-0.6633914543914278,-0.6997062975599923
-211.16123056411743,-1472.0,14164.0,6776.0,-556.0,-3477.0,-1416.0,-0.4928596301395994,-0.0004296254637351997,-0.5151499643025512,-0.7012201613471323
-211.16902375221252,-1236.0,14432.0,6920.0,-637.0,-3712.0,-1232.0,-0.6946552878736361,-0.13711389751019418,-0.299157689881653,-0.639654974750789
-211.17680263519287,-1132.0,14340.0,7012.0,-794.0,-3939.0,-1179.0,-0.8196898087057498,-0.26140671052132974,-0.028497385517818365,-0.5088841206178455
-211.1845827102661,-660.0,14416.0,7212.0,-970.0,-3588.0,-1181.0,-0.8550328009337489,-0.330035212903127,0.2310319920782475,-0.32652700685813446
-211.19239377975464,-840.0,14336.0,7728.0,-1088.0,-4132.0,-1036.0,-0.777403338596826,-0.3619266709059494,0.5044370447463353,-0.10097723462755864
-211.20022416114807,-860.0,14180.0,7756.0,-1516.0,-4187.0,-1007.0,-0.6037420326271163,-0.316215871802238,0.7152467249079293,0.154677739083908
-211.2080478668213,-644.0,14180.0,7976.0,-1454.0,-4271.0,-1020.0,-0.337073588058183,-0.2277906028430243,0.8275322687621186,0.3868891076877386
-211.21582984924316,-640.0,14308.0,7996.0,-1476.0,-4344.0,-895.0,-0.02077279933849454,-0.09474086204427362,0.8218293889988441,0.5614170599870804
-211.2236201763153,-580.0,14092.0,8152.0,-1505.0,-4536.0,-851.0,0.3074112270059111,0.06375852947428373,0.6897761348790861,0.652412500785558
-211.2314088344574,-256.0,14056.0,7800.0,-1500.0,-4369.0,-712.0,0.5734338814982166,0.21250335523687996,0.4545507672098426,0.6476106141748306
-211.23918342590332,-128.0,13904.0,7596.0,-1475.0,-4734.0,-668.0,0.7571477962264546,0.3482373038959082,0.13431013899793842,0.5361145226601186
-211.24697017669678,-228.0,13880.0,7504.0,-1406.0,-4789.0,-649.0,0.8115510565453654,0.43209309799678985,-0.20865788167256005,0.33338015192803216
-211.25475597381592,-140.0,14280.0,7788.0,-1317.0,-4873.0,-567.0,0.7213802597322563,0.4488978147287004,-0.5215493351508182,0.07802284155399244
-211.2625367641449,-112.0,14372.0,7920.0,-1289.0,-4922.0,-596.0,0.5039004305151251,0.3911233867923554,-0.7456160791162981,-0.19277840904517166
-211.27032899856567,4.0,14956.0,7916.0,-1317.0,-4923.0,-818.0,0.19580029996641962,0.27681286137177397,-0.8314844011812045,-0.44008018917529645
-211.27811074256897,24.0,15108.0,7972.0,-1478.0,-4934.0,-1280.0,-0.15944637869954362,0.14054486585695095,-0.7513073560258049,-0.6247889641970061
-211.2858955860138,208.0,15284.0,7956.0,-1635.0,-5114.0,-1247.0,-0.48905234029460315,-0.0305592531990707,-0.5186459530311069,-0.7006427876605464
-211.29369688034058,164.0,15060.0,7860.0,-1695.0,-4833.0,-1362.0,-0.7219951941356453,-0.17458575150570646,-0.1926848479300469,-0.6411827386903006
-211.3014874458313,60.0,15088.0,7568.0,-1697.0,-4908.0,-1382.0,-0.8217893370950581,-0.28906929511602847,0.17223118957053646,-0.4598234937420069
-211.30928349494934,60.0,14508.0,7424.0,-1743.0,-5062.0,-1385.0,-0.7613223522619098,-0.34962587039474285,0.5133800318888719,-0.18598647680649236
-211.3170771598816,72.0,14356.0,7456.0,-1703.0,-5278.0,-1245.0,-0.5348899016146043,-0.338650559428682,0.7646860865484449,0.1202654596656243
-211.32485795021057,80.0,14204.0,7484.0,-1701.0,-5472.0,-1197.0,-0.18470286266788424,-0.2508664591808027,0.8609581571894583,0.4021217772631908
-211.3326451778412,56.0,14204.0,8152.0,-1689.0,-5631.0,-1252.0,0.2173129950777648,-0.10631201501085001,0.7659344297834312,0.5956653984469756
-211.34042525291443,-104.0,14132.0,8668.0,-1501.0,-5704.0,-1180.0,0.5719989779443247,0.07346728875042084,0.5034484642204663,0.643396744309733
-211.34825611114502,-192.0,14300.0,8752.0,-1318.0,-5674.0,-1224.0,0.7972098526426792,0.24203033028510826,0.13659427390782372,0.5359288893193885
-211.35604691505432,-24.0,14032.0,9068.0,-1058.0,-5494.0,-1292.0,0.8452553667236381,0.36672548246257347,-0.23923701884203524,0.30630284744523073
-211.36383438110352,192.0,13904.0,9296.0,-805.0,-5403.0,-1215.0,0.7105769054539676,0.4288603889090415,-0.5572956645681746,0.024099180769594008
-211.37161779403687,300.0,13812.0,9372.0,-610.0,-5139.0,-1145.0,0.4410284038419317,0.4152861071313918,-0.7572250275289364,-0.2442164079501904
-211.37940788269043,464.0,13644.0,9332.0,-393.0,-4893.0,-917.0,0.10301850457948687,0.3267643428693119,-0.8286024216294583,-0.442753067536737
-211.38717126846313,360.0,13672.0,9416.0,-299.0,-4722.0,-696.0,-0.2370207724697553,0.17707179345608867,-0.7747897262969335,-0.5587196196705533
-211.3949592113495,384.0,13684.0,9364.0,-334.0,-4468.0,-555.0,-0.5219912714862653,0.0032822970921257168,-0.6116122831730495,-0.5945121984364999
-211.40273642539978,364.0,13872.0,9468.0,-260.0,-4277.0,-573.0,-0.7296920714657157,-0.16502427981135714,-0.37701235251705195,-0.5460569145815972
-211.41056776046753,412.0,13868.0,9060.0,-644.0,-3967.0,-583.0,-0.8456080236050757,-0.27725593175753865,-0.09617012028210056,-0.44590080363787554
-211.41835284233093,404.0,13964.0,8964.0,-672.0,-3782.0,-644.0,-0.8697570596148066,-0.3499961067176141,0.18300728993636356,-0.2958609713410441
-211.42614316940308,944.0,14016.0,8932.0,-674.0,-3569.0,-428.0,-0.804483310538678,-0.37915422338111393,0.4363082867149248,-0.13668853975692385
-211.43392372131348,448.0,13832.0,8792.0,-583.0,-3562.0,-453.0,-0.6611188493221815,-0.379395622868345,0.646410918843729,0.033671240233483654
-211.44171476364136,500.0,13708.0,8652.0,-610.0,-2962.0,-457.0,-0.4955850253697237,-0.34909385253846287,0.7732238464508395,0.18615544050312624
-211.4494948387146,180.0,13660.0,8528.0,-582.0,-2779.0,-206.0,-0.31295718615832424,-0.2840469279307145,0.8517271068117599,0.3097354966532843
-211.45728302001953,244.0,13416.0,8768.0,-592.0,-2709.0,-61.0,-0.12112801359993337,-0.19357650444396587,0.8826475308175978,0.41083996591153
-211.46507239341736,172.0,13388.0,8864.0,-652.0,-2815.0,89.0,0.07904360746696001,-0.07646253901656015,0.8633973732547272,0.4923926929825294
-211.47285628318787,272.0,13160.0,9004.0,-712.0,-2489.0,38.0,0.2538307123092022,0.027794702997037218,0.7957189383075525,0.5492074245607129
-211.48063278198242,376.0,13216.0,9184.0,-773.0,-2368.0,755.0,0.3744383016534646,0.17227857057438253,0.6867413699844868,0.5987506518806864
-211.48840737342834,424.0,13232.0,9076.0,-881.0,-2256.0,640.0,0.4781761305894172,0.2928591269900419,0.5443173924476232,0.6239388561006464
-211.49622797966003,520.0,13308.0,9088.0,-917.0,-2160.0,807.0,0.547607433241525,0.40123580679358634,0.37471019802976097,0.6314492805426465
-211.504008769989,664.0,13312.0,9168.0,-928.0,-2079.0,955.0,0.5822069097379431,0.4912482893534125,0.18636335114571126,0.6204667064480419
-211.51182746887207,800.0,13216.0,8928.0,-841.0,-2059.0,1084.0,0.579862301564088,0.5644780425803669,-0.009885798894283478,0.5873895825171381
-211.51959562301636,920.0,13304.0,9020.0,-787.0,-2058.0,1234.0,0.5407892435556493,0.6142740519094297,-0.20996055857135298,0.5349120928243118
-211.52736949920654,968.0,13380.0,9052.0,-632.0,-2086.0,1336.0,0.46284838456770705,0.6415554606087114,-0.3995917850179845,0.4631461639831953
-211.53516030311584,1196.0,13552.0,9256.0,-260.0,-2146.0,1325.0,0.3408834658100367,0.655736489785293,-0.557422120706551,0.3782706677082051
-211.54294347763062,1280.0,13644.0,9724.0,-350.0,-2184.0,1493.0,0.20010693555076428,0.6279980307729057,-0.7006202734308534,0.27332566682898773
-211.55072355270386,1452.0,13796.0,9444.0,-307.0,-2256.0,1283.0,0.04722337020445229,0.5830385807317882,-0.7971880120128362,0.14942302428949067
-211.55849862098694,1536.0,13936.0,9604.0,-512.0,-2163.0,1530.0,-0.09454949357995053,0.4892903026527599,-0.8669263073059058,0.009704158628737055
-211.56630611419678,2140.0,13584.0,9284.0,-267.0,-2156.0,1048.0,-0.2418512345611463,0.4051233210833214,-0.874940355657621,-0.10891487087347103
-211.57409238815308,2116.0,13620.0,9092.0,-207.0,-2175.0,861.0,-0.3844474352266091,0.31644704006788227,-0.840032014068883,-0.21542436194482398
-211.5818736553192,2248.0,13616.0,8736.0,-151.0,-2076.0,709.0,-0.5098546444832849,0.2262989763298652,-0.7729807616670823,-0.30222137069283417
-211.5896668434143,2200.0,13564.0,8588.0,-85.0,-2075.0,688.0,-0.6188427552679788,0.1265411735368765,-0.6796579740586983,-0.3729423734984702
-211.5974452495575,2152.0,13476.0,8448.0,-83.0,-2082.0,616.0,-0.7087392934217683,0.026101556395120826,-0.5612210558052331,-0.42665940659339086
-211.60523390769958,2020.0,13072.0,8508.0,-100.0,-2178.0,729.0,-0.7726114593824385,-0.08306870513686784,-0.41602612426009894,-0.47232762674963613
-211.61303520202637,1596.0,12884.0,8500.0,-82.0,-2243.0,820.0,-0.8034655154927502,-0.19582091478144617,-0.2499674517933287,-0.5036006431609047
-211.62082862854004,1588.0,12868.0,8648.0,-123.0,-2376.0,788.0,-0.8036500999372583,-0.30194735317408794,-0.0630083380213096,-0.5089246133974947
-211.6286096572876,1504.0,12988.0,8660.0,-69.0,-2549.0,771.0,-0.7648247304774517,-0.40398217977819423,0.13530973469042895,-0.4832523210184899
-211.63639569282532,1448.0,13400.0,8740.0,-70.0,-2633.0,724.0,-0.6865429846907147,-0.4882221256075356,0.3300163074471912,-0.42589567156540314
-211.64419603347778,1352.0,13668.0,8788.0,-161.0,-2797.0,80.0,-0.5925384421062803,-0.5636656690892813,0.49231274171537975,-0.29800565843802485
-211.6519865989685,1356.0,13980.0,8792.0,-298.0,-2834.0,-459.0,-0.48241387084327697,-0.6222700336872862,0.6050378181946805,-0.11826284685838738
-211.65976881980896,1316.0,14124.0,8844.0,-560.0,-2814.0,-903.0,-0.36140137105675246,-0.6532850538726862,0.6578943759485708,0.09890741873136588
-211.66759133338928,1384.0,14540.0,8784.0,-789.0,-2932.0,-1234.0,-0.21868993178560753,-0.6479271582197099,0.6471908947992151,0.33691105215758166
-211.6753749847412,1320.0,14120.0,8828.0,-936.0,-2922.0,-1569.0,-0.05794179466107318,-0.6058869957620434,0.5617997496258629,0.5602898697265704
-211.68317246437073,1148.0,13860.0,9056.0,-878.0,-2949.0,-1626.0,0.11449822489005324,-0.5136752667040105,0.42843506231417344,0.7344870824278946
-211.69095540046692,900.0,13732.0,9320.0,-805.0,-2853.0,-1669.0,0.27991365461571693,-0.3844729750272996,0.26220135093029173,0.8396900195927428
-211.69873929023743,808.0,13588.0,9700.0,-682.0,-2603.0,-1436.0,0.4075517996075658,-0.23483151110456468,0.09717567718561279,0.8771046572630308
-211.70652151107788,776.0,13620.0,10300.0,-257.0,-2459.0,-1302.0,0.5078674746869968,-0.06466107629284258,-0.03539873868659524,0.8582753070356282
-211.7143406867981,772.0,13792.0,10688.0,-315.0,-2298.0,-1237.0,0.5766692416379743,0.09504837287450463,-0.16332033959048123,0.7948237913139254
-211.72211718559265,1172.0,13984.0,11188.0,-10.0,-1612.0,-1202.0,0.627622146919123,0.22027551536953222,-0.23135580642379625,0.7099603009037283
-211.72990345954895,1424.0,14324.0,11836.0,32.0,-1146.0,-1169.0,0.6695901852718316,0.31355701653027157,-0.26668849184323384,0.6182299163665979
-211.73766255378723,2032.0,14340.0,12468.0,375.0,-991.0,-1277.0,0.697987030528257,0.4144061435277736,-0.26637861020474907,0.5197346336796989
-211.7454469203949,2264.0,15100.0,12328.0,279.0,-345.0,-1344.0,0.7353607299853598,0.4747077131344397,-0.2241749373298731,0.4285356243758696
-211.75323128700256,2156.0,15488.0,12112.0,75.0,-41.0,-1357.0,0.7768606247766094,0.5040460811741772,-0.16636648360550801,0.3387437244546223
-211.7610170841217,2008.0,15692.0,11740.0,-189.0,144.0,-1440.0,0.8232825014501698,0.5037540207442698,-0.09780885514401849,0.24263395732120685
-211.7687873840332,2304.0,15740.0,10576.0,-277.0,306.0,-1468.0,0.861629891909595,0.48554857688226716,-0.01674108343648464,0.14682045150740114
-211.77658605575562,2272.0,15476.0,9844.0,-889.0,283.0,-1469.0,0.9081334531193433,0.4124482353417058,0.05504696150253865,0.0463671922633682
-211.78437972068787,1552.0,15008.0,9256.0,-1146.0,195.0,-1412.0,0.9421797263798481,0.31036837862892236,0.1150588525040323,-0.05225220767110123
-211.7922010421753,1540.0,14488.0,8956.0,-1335.0,-20.0,-1343.0,0.9593971920201703,0.18477566051712077,0.1536086250799013,-0.14771382306790468
-211.79997038841248,1368.0,14012.0,8336.0,-1443.0,-364.0,-1237.0,0.9580667193500995,0.04236118211248037,0.15925632886875835,-0.23441653789572237
-211.8077573776245,1492.0,13212.0,8104.0,-1422.0,-644.0,-1213.0,0.9337303752346116,-0.10474578185941139,0.13680482215548215,-0.3137839195718916
-211.81561875343323,1284.0,12712.0,7992.0,-1247.0,-993.0,-1127.0,0.8905701691836769,-0.24324905922393705,0.0784575946131924,-0.3762433717613359
-211.8234667778015,1060.0,12424.0,8116.0,-1053.0,-1250.0,-1146.0,0.8267655351933207,-0.36821266593654756,-0.00844962647897999,-0.42521381242002027
-211.8312704563141,1392.0,12272.0,8352.0,-1005.0,-1306.0,-1126.0,0.7406183196002567,-0.4809396584647226,-0.1001825331506602,-0.4584157606800242
-211.83909487724304,1556.0,11800.0,8656.0,-474.0,-1762.0,-1021.0,0.6536956591486535,-0.5636897282368779,-0.23420438632241145,-0.44730770272574627
-211.84691047668457,1792.0,11680.0,8720.0,-496.0,-1865.0,-842.0,0.5491073406803976,-0.6368085276352238,-0.35677634319746687,-0.4070217051664488
-211.85470843315125,1964.0,11684.0,8992.0,-15.0,-1850.0,-693.0,0.45926088998415554,-0.6716709607032884,-0.4764523228746898,-0.3330626660347798
-211.8624815940857,2116.0,11864.0,9084.0,112.0,-1742.0,-268.0,0.3810813920101074,-0.698371215414432,-0.5586906005267609,-0.234348951410615
-211.87028431892395,2080.0,12160.0,8920.0,211.0,-1691.0,-326.0,0.3013610366687078,-0.7020033012780934,-0.6319520149422451,-0.13042063250520167
-211.87808442115784,2128.0,12440.0,8984.0,299.0,-1634.0,-119.0,0.22580272200257417,-0.6988110918371129,-0.6785226526510238,-0.01682850263893038
-211.8858847618103,2292.0,12708.0,9108.0,337.0,-1777.0,61.0,0.13944993614590043,-0.6898326154802079,-0.7016405334588505,0.11128899198132618
-211.89365553855896,2344.0,12576.0,9460.0,341.0,-1435.0,246.0,0.0690919342492945,-0.6810359684976646,-0.6950972901435396,0.2196726461561553
-211.90144753456116,2516.0,13052.0,9512.0,395.0,-1240.0,344.0,0.010631132289413097,-0.6711422151663674,-0.6699455082369922,0.31721935949891933
-211.90927362442017,2508.0,13108.0,9596.0,443.0,-1045.0,480.0,-0.03764583999022296,-0.6660358854659931,-0.6269030893253414,0.40245683817933087
-211.91708087921143,2684.0,13180.0,9720.0,541.0,-823.0,500.0,-0.06852896519381207,-0.6632000214244484,-0.5734435663559102,0.47605880804485823
-211.9248616695404,2708.0,13120.0,9612.0,648.0,-660.0,767.0,-0.09546133405191078,-0.6743535855411993,-0.49541140689877333,0.5391677969642992
-211.9326512813568,2804.0,13156.0,9480.0,527.0,-531.0,761.0,-0.12275613238594307,-0.683706761707275,-0.4195191763476365,0.5843626071490177
-211.94042372703552,2564.0,12868.0,9436.0,927.0,-425.0,575.0,-0.11182153753733406,-0.6894220179654872,-0.3315675718965351,0.6342366830717203
-211.94825339317322,2552.0,13220.0,9380.0,1058.0,-350.0,543.0,-0.08791457936884514,-0.6920313416543163,-0.23544192235023054,0.6767058076465384
-211.9560329914093,2520.0,13408.0,9432.0,1166.0,-302.0,558.0,-0.056359389564763114,-0.6899577329440587,-0.12957849568261945,0.7099234884233734
-211.96382308006287,2352.0,13696.0,9368.0,1294.0,-247.0,596.0,-0.01810587115891404,-0.6822913122482949,-0.012078484629791272,0.7307563567079827
-211.97159838676453,2320.0,13920.0,9488.0,1518.0,-213.0,524.0,0.03817260372395689,-0.664963065684056,0.11525647663287084,0.7369415975470321
-211.9793860912323,2180.0,14200.0,9556.0,1281.0,-227.0,503.0,0.08174854639623456,-0.6362320972167238,0.2245408992706322,0.733557958301897
-211.98716115951538,2056.0,14552.0,9548.0,1129.0,-279.0,497.0,0.117276907330341,-0.5968237173425877,0.32058260194511,0.7261366075019968
-211.99494791030884,1888.0,14724.0,9532.0,937.0,-395.0,728.0,0.13012317609754576,-0.5384865048642302,0.41147933692532596,0.7237299208992858
-212.00272583961487,1912.0,14984.0,9376.0,736.0,-471.0,364.0,0.1579934438048224,-0.4854932112134765,0.4681902265645735,0.7212020003644837
-212.01051950454712,2004.0,15028.0,9272.0,458.0,-632.0,169.0,0.1920190586233351,-0.4312782670514675,0.4943044853119004,0.7299252107545184
-212.01831126213074,2004.0,14860.0,9064.0,182.0,-703.0,-79.0,0.23365525099022463,-0.38589052047842815,0.4901762069643455,0.7458022633484228
-212.02609252929688,1728.0,14532.0,8884.0,-40.0,-837.0,-213.0,0.28107981711434216,-0.3401760508697631,0.4620417591045218,0.7692800554214435
-212.03386759757996,1648.0,14180.0,8580.0,-122.0,-1052.0,-404.0,0.3452156793787424,-0.2872096231672008,0.41406522748954966,0.7917618041148835
-212.04168438911438,1300.0,13916.0,8624.0,-212.0,-1229.0,-432.0,0.411341307930178,-0.22256500307767593,0.349308266281849,0.8119401966293415
-212.04945969581604,1676.0,13584.0,8408.0,-227.0,-1365.0,-389.0,0.4723045249799562,-0.1444450986668133,0.27460646086276086,0.8250183881629679
-212.05723786354065,1724.0,13400.0,8400.0,-8.0,-1510.0,-388.0,0.5313366405154198,-0.044662851125455406,0.20514576223924583,0.8207324901637632
-212.06502437591553,1836.0,13300.0,8560.0,-222.0,-1620.0,-302.0,0.5750079711594336,0.0553540766265877,0.11195234327279982,0.8085594796548113
-212.0728030204773,2132.0,13296.0,8604.0,-242.0,-1716.0,-216.0,0.6012036045926887,0.16056016258228586,0.00991730422187665,0.7827364224905334
