programtime,ax,ay,az,gx,gy,gz,q0,q1,q2,q3
-141.97078442573547,6372.0,11628.0,9872.0,-466.0,-59.0,-1199.0,0.9937557717727167,-0.040124652953120725,-0.005274167130600522,-0.10397913951789674
-141.9785759449005,6448.0,11612.0,9852.0,-435.0,-133.0,-1255.0,0.974211677849971,-0.07767744867502133,-0.017317333517975726,-0.2111348636959585
-141.98635578155518,6556.0,11680.0,10148.0,-385.0,-127.0,-1316.0,0.9404117245496608,-0.10970972870175182,-0.029921830662201783,-0.3204594323897232
-141.99413776397705,6600.0,11556.0,9876.0,-330.0,-156.0,-1381.0,0.8913330516688622,-0.13625007487946234,-0.046570923673716215,-0.4298749320048696
-142.00192165374756,6540.0,11616.0,9804.0,-303.0,-95.0,-1423.0,0.8272871398474213,-0.15611212914317546,-0.0592638268920178,-0.5363886559199128
-142.00969862937927,6632.0,11584.0,9672.0,-278.0,-92.0,-1422.0,0.7504415738503556,-0.1715556945631362,-0.0719374593114523,-0.63421691072359
-142.01748132705688,6584.0,11688.0,9580.0,-1.0,-17.0,-1465.0,0.6637930607942224,-0.16185855127329282,-0.09442156707517486,-0.7240615647113282
-142.02524423599243,6520.0,11664.0,9632.0,-228.0,7.0,-1419.0,0.5664788817572223,-0.1615028848081389,-0.09915586057681462,-0.801989158302659
-142.03303241729736,6440.0,12020.0,9604.0,-159.0,-19.0,-1338.0,0.4671527130504773,-0.15789439063548927,-0.10737992660189004,-0.8633117950418602
-142.04081058502197,6372.0,11752.0,9600.0,-150.0,-23.0,-1253.0,0.3681827598208309,-0.15297880974738284,-0.11390021714098537,-0.9099811424827585
-142.04859924316406,6312.0,12020.0,9600.0,-98.0,15.0,-1181.0,0.27172971146724767,-0.1423778001708464,-0.12107052184289087,-0.94405161652588
-142.0563781261444,6232.0,11816.0,9776.0,-110.0,-24.0,-1158.0,0.17376403739912122,-0.1340215678322149,-0.12663065485685057,-0.9673721909963491
-142.06419491767883,6240.0,11808.0,9652.0,-102.0,15.0,-1081.0,0.08107751657572383,-0.12184081880832177,-0.1301646267239077,-0.9806316439560049
-142.07199716567993,6216.0,11780.0,9788.0,-136.0,-9.0,-1259.0,-0.028061667919585212,-0.10868858821044093,-0.13147803947872425,-0.9849430738480388
-142.07978177070618,6256.0,11828.0,9732.0,-162.0,52.0,-1003.0,-0.11476432354622142,-0.09208636574399957,-0.12697695700429426,-0.9809312430924862
-142.08758401870728,6180.0,11748.0,9848.0,-176.0,81.0,-1043.0,-0.20368235068726395,-0.07170236266997715,-0.12084798353627882,-0.9689004262984245
-142.09536576271057,6140.0,11540.0,9832.0,-216.0,102.0,-1052.0,-0.2915950970579513,-0.0481491068382792,-0.11072418058166578,-0.9488909941173215
-142.10315990447998,6088.0,11784.0,9904.0,-208.0,140.0,-1100.0,-0.38033580259636535,-0.02078059994989914,-0.1014042965970906,-0.919037546872134
-142.110985994339,5996.0,11752.0,9708.0,-218.0,95.0,-1189.0,-0.4725814787894475,0.004300067036985946,-0.08891526076915277,-0.8767795228739149
-142.11878037452698,6012.0,11728.0,9764.0,-159.0,89.0,-1222.0,-0.562048129581912,0.02670230941460728,-0.07965096502148376,-0.8228272057221656
-142.12656211853027,5908.0,11756.0,9924.0,-132.0,94.0,-1147.0,-0.640167818281028,0.04735233281491549,-0.07186588812505162,-0.763399119162638
-142.1343595981598,5896.0,11684.0,9820.0,-67.0,28.0,-995.0,-0.7033313342095998,0.058664455302330325,-0.06470278598890673,-0.7054764811730431
-142.14214086532593,5808.0,11804.0,9684.0,-250.0,-49.0,-914.0,-0.7560114782448233,0.07557628099924138,-0.04155490282461139,-0.6488513393402512
-142.14993047714233,5812.0,11828.0,9832.0,107.0,-100.0,-765.0,-0.7985593411362097,0.06515760729597157,-0.035945272956621435,-0.5972984197598721
-142.15771293640137,5944.0,12000.0,9732.0,184.0,-106.0,-691.0,-0.8343023747994869,0.04855609875984989,-0.03419232474344094,-0.5480992041645374
-142.16553854942322,6040.0,12060.0,9708.0,233.0,-86.0,-648.0,-0.8649578532835599,0.029031101325359698,-0.03628491084686787,-0.49968841535877834
-142.17337679862976,6060.0,12216.0,9820.0,219.0,-25.0,-625.0,-0.8913547050573221,0.013038271930897738,-0.04229756942742289,-0.45114045358154564
-142.18121886253357,6072.0,12104.0,9756.0,253.0,89.0,-732.0,-0.9180060935666057,-0.0007630010266053775,-0.05819535824902703,-0.3922722655022669
-142.1890094280243,6132.0,12284.0,9748.0,144.0,228.0,-861.0,-0.9433902982016577,-0.00044621473156646095,-0.08115045176052986,-0.3216040272298569
-142.19679999351501,6072.0,11972.0,9740.0,157.0,337.0,-840.0,-0.9614912603158873,0.001711644861633502,-0.11289003661110032,-0.25057427290521794
-142.20456266403198,5792.0,11932.0,9904.0,84.0,376.0,-875.0,-0.9735638204532417,0.011160361142218094,-0.14552982676677734,-0.17569861514791515
-142.2123634815216,5588.0,11916.0,9792.0,63.0,379.0,-1012.0,-0.9799931254673746,0.024073119622752027,-0.17679056237901425,-0.08819895692142411
-142.22015142440796,5544.0,11960.0,9480.0,36.0,289.0,-642.0,-0.9787400758535172,0.03278974106958512,-0.19990323201365598,-0.032115333243413695
-142.22793459892273,5600.0,11848.0,9620.0,-8.0,247.0,-584.0,-0.9746036696029473,0.04403196885669846,-0.21880444789734493,0.018261612617996935
-142.2356915473938,5604.0,11876.0,9672.0,255.0,7.0,-506.0,-0.9735041498618596,0.03171346692058588,-0.2166063476947526,0.0660728110190185
-142.24349522590637,5704.0,11940.0,9672.0,86.0,240.0,-433.0,-0.965837757044152,0.03094595270285003,-0.2348886105440777,0.10501007435435387
-142.25127696990967,5828.0,11920.0,9660.0,128.0,159.0,-342.0,-0.9592719264693561,0.025476404735200613,-0.24584992683654813,0.13677038189609034
-142.25905895233154,5808.0,11988.0,9560.0,168.0,175.0,-281.0,-0.9521009518489671,0.015133783423184182,-0.25753534377612025,0.16416544336036884
-142.26688075065613,5844.0,12084.0,9940.0,168.0,130.0,-203.0,-0.9462476641551268,0.003673611736371013,-0.26536821202221444,0.18488259708774543
-142.27464604377747,5836.0,12156.0,9752.0,162.0,124.0,-126.0,-0.9412560714410837,-0.008978854422049026,-0.2726840545516746,0.19899697118756512
-142.28243780136108,5928.0,12216.0,9816.0,153.0,70.0,-67.0,-0.9382575301038505,-0.021351976338778774,-0.2755801710911034,0.20802035864609092
-142.29026556015015,6044.0,12216.0,9812.0,137.0,100.0,-128.0,-0.9331825947609564,-0.03148221066432054,-0.28125292251603146,0.22153083041212746
-142.2980444431305,6028.0,12204.0,9808.0,93.0,138.0,-153.0,-0.9264740340729938,-0.03813582427426722,-0.2908371540309157,0.23580770328942322
-142.3058271408081,6088.0,12156.0,9756.0,49.0,182.0,-2.0,-0.9216009819565678,-0.04595319181694828,-0.30428911358137295,0.23653344282444913
-142.31362438201904,6016.0,12060.0,10188.0,30.0,221.0,-301.0,-0.9089937192020934,-0.04506887682108035,-0.3222611502219945,0.26047450134481276
-142.32141089439392,6120.0,11940.0,10168.0,61.0,291.0,-360.0,-0.8917322969778505,-0.046506205769351196,-0.34487489165416274,0.28933024808698254
-142.32920598983765,5652.0,11856.0,10192.0,38.0,296.0,-428.0,-0.8710506300835267,-0.044147346482141275,-0.3680998488603067,0.3222178035098253
-142.33698296546936,5492.0,11748.0,10048.0,67.0,263.0,-411.0,-0.8500953520953721,-0.04351931531251978,-0.38723471884795785,0.35425024214433204
-142.3447823524475,5408.0,11604.0,9812.0,96.0,266.0,-435.0,-0.8265419365173319,-0.04423557201199079,-0.4050451032947587,0.3883427682394626
-142.3525640964508,5312.0,11596.0,10144.0,160.0,263.0,-408.0,-0.802098820521975,-0.05032344285647403,-0.41956276554996963,0.4219859227277482
-142.3603551387787,5184.0,11676.0,9856.0,214.0,259.0,-306.0,-0.7798895657612549,-0.0636867663819285,-0.4306329226681527,0.44974609161038814
-142.3681538105011,5148.0,11544.0,9896.0,292.0,236.0,-201.0,-0.7610785213688397,-0.08530169777473592,-0.43586711890869284,0.47276099598211757
-142.37594985961914,5240.0,11956.0,9904.0,336.0,181.0,-41.0,-0.7496762685166332,-0.11354931350715163,-0.4339032469897322,0.4866415704363932
-142.38373732566833,5348.0,12172.0,9856.0,367.0,189.0,-21.0,-0.7376078659484357,-0.14477882626984998,-0.43042286682748443,0.4997097990503376
-142.39154291152954,5500.0,12212.0,9772.0,352.0,218.0,-1.0,-0.7245534042022144,-0.17686574092883267,-0.4286490208605645,0.5099028251147046
-142.39932465553284,5592.0,12288.0,9768.0,329.0,265.0,-40.0,-0.7073971487420229,-0.20788961788219185,-0.43089943122277236,0.52028536487234
-142.40711426734924,5648.0,12404.0,10008.0,257.0,283.0,-78.0,-0.6882540702613459,-0.2335943455181666,-0.437679040360022,0.529317555102946
-142.41494250297546,5800.0,12424.0,9932.0,203.0,401.0,-171.0,-0.6604214475791715,-0.2576038296062414,-0.45529899461232215,0.5386897103664025
-142.4227271080017,5524.0,12336.0,9888.0,191.0,454.0,-217.0,-0.6272977290065561,-0.2810691228202709,-0.4766780454548419,0.5479742223513917
-142.43051958084106,5612.0,12248.0,9896.0,129.0,461.0,-145.0,-0.5975538781264381,-0.30389439886602626,-0.4986817097485214,0.549448914309785
-142.43829894065857,5540.0,12104.0,9916.0,129.0,492.0,-139.0,-0.5655555434423911,-0.32785149672470204,-0.5211561423895474,0.5486862478927278
-142.4460804462433,5436.0,12000.0,9976.0,180.0,500.0,-140.0,-0.5304456768914786,-0.3539346421679946,-0.5404807505168996,0.5488517206507089
-142.45386862754822,5396.0,11820.0,10020.0,252.0,766.0,-125.0,-0.47941698978064945,-0.39542496308488057,-0.5661943603913776,0.5415001336472417
-142.461656332016,5300.0,11852.0,10096.0,234.0,457.0,-89.0,-0.4441799917292578,-0.42200228153773023,-0.5766417431510905,0.5404650861804291
-142.46943879127502,5248.0,11896.0,10208.0,290.0,470.0,-62.0,-0.4065251313892166,-0.45178419950317306,-0.582698685411401,0.539528124056645
-142.4772231578827,5184.0,12000.0,10064.0,329.0,434.0,14.0,-0.3717992451788488,-0.4840792106926891,-0.5813204213385441,0.5380513049834179
-142.48501062393188,5248.0,12044.0,9928.0,347.0,427.0,-40.0,-0.3332852055320211,-0.5127864614508574,-0.5798310196643813,0.5383001071532035
-142.49278855323792,5252.0,12060.0,9712.0,402.0,402.0,251.0,-0.306364932202423,-0.5552722641886523,-0.5605141873997342,0.5325758975611156
-142.5005795955658,5284.0,12120.0,9856.0,357.0,353.0,37.0,-0.27332227337369386,-0.5824897872888367,-0.5509736906181598,0.531440095239949
-142.50838112831116,5268.0,12148.0,9888.0,312.0,333.0,-26.0,-0.240118989835688,-0.6036611487845468,-0.5452788174481121,0.5297236066202813
-142.51616191864014,5308.0,12236.0,9808.0,329.0,303.0,8.0,-0.20864123465578646,-0.6244827650811593,-0.5355371249321114,0.5288573523525476
-142.52395582199097,5136.0,12356.0,9792.0,264.0,234.0,50.0,-0.1855976071310903,-0.6421294967586807,-0.5245848319945069,0.5272892865031031
-142.53174567222595,5484.0,12412.0,9784.0,494.0,236.0,72.0,-0.15030458813003347,-0.6635309687516462,-0.5010086993285997,0.5349069708758969
-142.53953623771667,5572.0,12432.0,9656.0,244.0,496.0,62.0,-0.1172981388355027,-0.6917969280858851,-0.4919110363468998,0.5154431969060982
-142.5473186969757,5480.0,12380.0,9796.0,218.0,317.0,-15.0,-0.0898538912673339,-0.707256625341863,-0.4859431893007493,0.5055428378548886
-142.55511283874512,5540.0,12200.0,9784.0,212.0,346.0,-36.0,-0.06051520370295057,-0.7222126665518215,-0.48118760507088015,0.49315845640022093
-142.56294298171997,5344.0,12144.0,9868.0,234.0,339.0,-71.0,-0.028498317068137193,-0.7345791053524033,-0.4770347408126683,0.48168375513581196
-142.57075715065002,5316.0,12128.0,9696.0,241.0,315.0,-29.0,0.0012450920608729394,-0.7467744014447218,-0.46923656066825853,0.4713210086818337
-142.57854056358337,5216.0,11776.0,9808.0,215.0,505.0,-227.0,0.045183962352377226,-0.757220948022425,-0.47447489647315255,0.44659648234054633
-142.58633279800415,5224.0,12272.0,9812.0,235.0,212.0,69.0,0.06674591631629848,-0.7671182845536412,-0.4597154390636717,0.4424208802091872
-142.5941162109375,5220.0,11960.0,9764.0,238.0,156.0,138.0,0.08354976210868953,-0.777005259440348,-0.4401899363335375,0.4421708764768378
-142.60191130638123,5228.0,11924.0,9756.0,271.0,114.0,182.0,0.09921026825964684,-0.786070614656959,-0.41634790187880266,0.4459873720698812
-142.60969591140747,5264.0,11960.0,9724.0,252.0,25.0,198.0,0.10962873740558397,-0.791751080940556,-0.3925627062315825,0.45497943628306436
-142.61747860908508,5136.0,12060.0,9780.0,269.0,9.0,252.0,0.1184280195420407,-0.7977603318484924,-0.3641683476336598,0.46576246274050803
-142.62526488304138,5536.0,12080.0,9768.0,261.0,-242.0,197.0,0.12079471595160515,-0.7909885083041078,-0.3421038518739034,0.49265684899537515
-142.6330225467682,5620.0,12180.0,9648.0,221.0,65.0,223.0,0.12832360257564823,-0.7978005391460836,-0.31636886109454926,0.49694878658666947
-142.6407973766327,5680.0,12176.0,9476.0,212.0,26.0,120.0,0.13853645927268504,-0.799683996120009,-0.29843084507245593,0.5022471368868726
-142.6485857963562,5828.0,12216.0,9676.0,202.0,20.0,69.0,0.1500764757679864,-0.7997729140018173,-0.28444095064954455,0.5068862624333847
-142.65636253356934,5528.0,12280.0,9684.0,191.0,10.0,11.0,0.16311923377062762,-0.797870814825024,-0.27502540134468995,0.5110335674295065
-142.66414499282837,5536.0,12340.0,9736.0,194.0,6.0,-252.0,0.18791588282484223,-0.7890172784669729,-0.2837012119122592,0.5115202612040377
-142.67196679115295,5544.0,12328.0,9648.0,154.0,-48.0,83.0,0.19357974867419486,-0.7862981705849186,-0.2718356065767054,0.5199687210161017
-142.67974853515625,5508.0,12336.0,9648.0,100.0,-119.0,37.0,0.19589754078260035,-0.7800007188241939,-0.2667147444907137,0.5311179503842094
-142.68751454353333,5524.0,12284.0,9740.0,130.0,-88.0,13.0,0.2020555012179778,-0.7739167561851862,-0.2612538786719556,0.5403451117593365
-142.69530534744263,5424.0,12208.0,9776.0,130.0,-82.0,81.0,0.2051016805716689,-0.7695019136178559,-0.25103695444456875,0.5502549891353375
-142.70308899879456,5400.0,12096.0,9788.0,122.0,-93.0,107.0,0.20606992081179035,-0.7650779990399043,-0.23959054081253653,0.5610590128274165
-142.71090078353882,5456.0,12220.0,9708.0,137.0,-131.0,135.0,0.20580260319713398,-0.7588473147195802,-0.22614018113491235,0.5750275297204774
-142.71869826316833,5388.0,12068.0,9472.0,158.0,-138.0,148.0,0.20603975165502814,-0.7517946911385267,-0.2107944506635747,0.589845795681637
-142.72649121284485,5512.0,12068.0,9788.0,153.0,-191.0,161.0,0.20418556153917927,-0.7419037700384082,-0.1956823280559386,0.6079436478394481
-142.73428630828857,5384.0,12188.0,9800.0,142.0,-176.0,184.0,0.2005196350418365,-0.7329095181023165,-0.17926479295893424,0.6248997105481081
-142.74207091331482,5648.0,12220.0,9928.0,157.0,-172.0,134.0,0.200480925958903,-0.7226439016859714,-0.16504576202051907,0.6405880783481716
-142.7498471736908,5712.0,12376.0,9816.0,126.0,-168.0,77.0,0.2016359287210176,-0.7119814502235433,-0.15600232797191152,0.6542848312881301
-142.7576355934143,5720.0,12432.0,9948.0,62.0,-135.0,-64.0,0.20725686354600445,-0.7021977994285771,-0.15874579471023034,0.6623915878485731
-142.76541900634766,5728.0,12460.0,9768.0,2.0,-115.0,-209.0,0.2177959173115054,-0.6924244098484555,-0.17342938407798286,0.6656092125164655
-142.7732014656067,5840.0,12404.0,9796.0,-2.0,-153.0,-291.0,0.23214792992386976,-0.6788452177208419,-0.19390996103553212,0.6690855222023587
-142.78100299835205,5780.0,12228.0,9656.0,36.0,-137.0,-298.0,0.24924590995255216,-0.6647502196624253,-0.212101494185349,0.6715627878277829
-142.78879237174988,5704.0,12252.0,9660.0,8.0,-169.0,-351.0,0.26699031658231254,-0.6477499174942222,-0.235488327666973,0.6735588042406669
-142.79658794403076,5600.0,12140.0,9920.0,102.0,-269.0,-413.0,0.2912240275103612,-0.6204183038232773,-0.2588110446808828,0.6806515534639452
-142.80437636375427,5536.0,12224.0,9728.0,97.0,-273.0,-324.0,0.30933835873663623,-0.5939305410484882,-0.2772817816024775,0.6889637913673912
-142.812162399292,5544.0,12260.0,9788.0,114.0,-292.0,-310.0,0.32658996352188735,-0.5653091866282187,-0.29410942907274806,0.6980430953537295
-142.8199543952942,5628.0,12240.0,9764.0,155.0,-282.0,-510.0,0.35759377558319827,-0.5298136666545528,-0.3173744934023683,0.7004981093677569
-142.8277611732483,5648.0,12276.0,9804.0,150.0,-290.0,-232.0,0.37048028224171176,-0.5005905794879569,-0.3277250660211483,0.7104573972445125
-142.83554887771606,5652.0,12272.0,9852.0,123.0,-285.0,-219.0,0.38110296747776357,-0.47233117816955406,-0.33863437281289144,0.7190205475911127
-142.8433392047882,5552.0,12184.0,9804.0,64.0,-230.0,-247.0,0.39230320344729075,-0.4481755065293035,-0.3522272832015091,0.7219230242073456
-142.85111546516418,5544.0,12144.0,9684.0,90.0,-217.0,-162.0,0.39927582851497473,-0.4262128329114425,-0.3601432772746497,0.7274738852076807
-142.85895442962646,5444.0,12124.0,9696.0,34.0,-202.0,-84.0,0.39949209945606506,-0.40938641237085444,-0.3680076901635185,0.7330615034352971
-142.8667573928833,5512.0,12076.0,9532.0,17.0,-244.0,-57.0,0.39585808267961736,-0.3911554532213627,-0.37729966297057654,0.7402288525278496
-142.87454342842102,5476.0,11800.0,9520.0,-19.0,-215.0,-16.0,0.38913952317956246,-0.3772232098789631,-0.38635573959559544,0.7463258831835694
-142.88233280181885,5524.0,12088.0,9564.0,27.0,-4.0,-85.0,0.3954665207308084,-0.3730657214119055,-0.3874389495361637,0.7445261975718501
-142.89012002944946,5536.0,11964.0,9716.0,3.0,-241.0,-84.0,0.39282425143323135,-0.35426628609387056,-0.3981187493103824,0.749457115164513
-142.8978989124298,5464.0,11804.0,9496.0,12.0,-282.0,-88.0,0.3890735781386332,-0.33213150199669056,-0.4095043335401076,0.755391697722245
-142.9056851863861,5488.0,11776.0,9592.0,39.0,-342.0,-129.0,0.38633950482969537,-0.30338049178529214,-0.42198257851006377,0.7619926296533699
-142.91346788406372,5528.0,12144.0,9688.0,15.0,-364.0,-4.0,0.3734619245797045,-0.2782660435970584,-0.4330544823302033,0.7717240537937006
-142.9212532043457,5620.0,12152.0,9260.0,18.0,-407.0,-83.0,0.3639229319646186,-0.2468520752921693,-0.44673608179650626,0.7791347930463187
-142.92903518676758,5696.0,12168.0,9560.0,238.0,-495.0,15.0,0.3483871439556333,-0.20586291905746046,-0.44533607488842475,0.7987005927671205
-142.9368233680725,5796.0,11836.0,9724.0,0.0,-473.0,59.0,0.3256682396696937,-0.1749119649092787,-0.4581499861434741,0.8083591976335474
-142.9446222782135,5636.0,12076.0,9752.0,-17.0,-485.0,42.0,0.3028384892945783,-0.142612811908795,-0.4719494588668949,0.8156066107851807
-142.95240879058838,5924.0,12080.0,9840.0,-56.0,-458.0,73.0,0.2779109922969896,-0.11428982490102195,-0.4866078274254009,0.8203146582701834
-142.96020793914795,6040.0,12148.0,9592.0,-125.0,-477.0,16.0,0.255087682718852,-0.08366417687287502,-0.5063781769892544,0.8194581877694249
-142.96802425384521,5976.0,12140.0,9616.0,-132.0,-468.0,29.0,0.231221697287104,-0.05426282365054556,-0.5254320849177937,0.817014808196327
-142.9758756160736,5988.0,12144.0,9592.0,-152.0,-479.0,15.0,0.2073314543092817,-0.02374449657320028,-0.5452240594268372,0.8118993730497667
-142.9836950302124,6036.0,12132.0,9524.0,-159.0,-764.0,54.0,0.1664953148413755,0.024979162909160572,-0.5687665320032871,0.8050838363979137
-142.9914984703064,6116.0,12260.0,9492.0,-170.0,-597.0,29.0,0.1350584881243933,0.06300528252067268,-0.5884758118378314,0.7946607817439141
-142.99928164482117,6108.0,11788.0,9432.0,-174.0,-603.0,-37.0,0.10751369880941065,0.10459227778542109,-0.6064304624609691,0.7808606496650677
-143.00707721710205,6100.0,12100.0,9616.0,-177.0,-656.0,-31.0,0.07644972762783313,0.14908301623643752,-0.6231691848643943,0.7639305337862354
-143.0148777961731,6080.0,12132.0,9312.0,-192.0,-720.0,-128.0,0.04827999987434769,0.2023902003629186,-0.6376297060451276,0.7417112688762353
-143.02267694473267,6228.0,12172.0,9620.0,-219.0,-751.0,-193.0,0.022854968190196723,0.26023661517503055,-0.6498701108177416,0.7137390234651628
-143.0304675102234,6236.0,12196.0,9652.0,-254.0,-779.0,-200.0,-0.003030521486456573,0.3187877581507788,-0.6608369573107805,0.6794554415448817
-143.03827047348022,6212.0,12104.0,9960.0,-215.0,-807.0,-342.0,-0.02317851400631743,0.38527722210595006,-0.6617352345969324,0.6427524390523339
-143.0460560321808,6228.0,12032.0,10100.0,-155.0,-1021.0,-390.0,-0.05474236910383961,0.4632875998281078,-0.6521633067058761,0.597537358042882
-143.05384707450867,6256.0,12032.0,10084.0,-127.0,-718.0,-546.0,-0.06174217575810121,0.530776590735637,-0.6312242820651953,0.5621565797809261
-143.0616319179535,6192.0,11988.0,10136.0,-88.0,-701.0,-586.0,-0.06725271037333796,0.5960485621649679,-0.602627133998756,0.5263494294258896
-143.06944870948792,6384.0,11792.0,10192.0,-41.0,-691.0,-545.0,-0.07613528974622256,0.6547901520186821,-0.570361699549146,0.49004163717180155
-143.07723879814148,6088.0,11728.0,10176.0,20.0,-538.0,-530.0,-0.08114859265825596,0.7025450846036291,-0.5344285379497201,0.4628514317076145
-143.08502435684204,5836.0,11732.0,9772.0,131.0,-492.0,-409.0,-0.09538577432233653,0.739386449119662,-0.49971225674111774,0.44101801933463564
-143.09279894828796,5824.0,11788.0,10048.0,206.0,-380.0,-318.0,-0.11282485329453297,0.7653407936159774,-0.46753865818733226,0.4277050680161762
-143.10057854652405,5752.0,11840.0,10048.0,253.0,-271.0,-291.0,-0.1297485335778189,0.7841864200466447,-0.43557337965725723,0.42248409151444716
-143.10836672782898,5672.0,11896.0,9952.0,271.0,-167.0,-181.0,-0.1478354392279399,0.7937575573578418,-0.4110469423334504,0.4232422878729339
-143.11615109443665,5696.0,11996.0,10024.0,276.0,-59.0,-65.0,-0.1665609676620272,0.7944575559804311,-0.39541721212430125,0.4298137551927982
-143.12392854690552,5720.0,12112.0,10024.0,504.0,33.0,-229.0,-0.19149979407018808,0.7928688352159653,-0.36064013484252067,0.45235553733222106
-143.13171243667603,5736.0,12060.0,9992.0,188.0,124.0,-18.0,-0.19980247924412284,0.7852418725945434,-0.35392673955247433,0.4671295685801444
-143.13948369026184,5736.0,12088.0,10140.0,202.0,151.0,30.0,-0.21010102067237607,0.7744407180529984,-0.3502430912619491,0.48314481509921636
-143.14726495742798,5696.0,12112.0,10152.0,207.0,499.0,96.0,-0.21259042856198282,0.7458026306633779,-0.35669153387181524,0.5209173595145294
-143.15505647659302,5808.0,12124.0,10008.0,180.0,342.0,144.0,-0.22001128800309006,0.7219525776433297,-0.36393068928188393,0.5458332732475976
-143.16284155845642,5704.0,12244.0,10020.0,210.0,362.0,160.0,-0.22914060267749065,0.695049099733181,-0.3706106562121423,0.5718820461132665
-143.1707320213318,5852.0,12260.0,9904.0,183.0,412.0,61.0,-0.22972557589832143,0.6683120584930373,-0.3730494330005641,0.6011815639130504
-143.1785695552826,5756.0,11908.0,10232.0,199.0,440.0,58.0,-0.22979212751741054,0.6387534865702418,-0.37439523936890806,0.6316785307917946
-143.18641829490662,5728.0,11776.0,9980.0,2.0,484.0,24.0,-0.21516406803718371,0.610680829680688,-0.3848978721960626,0.6577438529284331
-143.19423651695251,5664.0,11628.0,9940.0,302.0,504.0,-47.0,-0.21129618355667193,0.5768719036662746,-0.37392664203274034,0.6948032785997432
-143.20204329490662,5556.0,11712.0,9960.0,416.0,461.0,26.0,-0.21839626197039164,0.5395788124100245,-0.3578710421222872,0.7301274513164506
-143.20985007286072,5508.0,11936.0,9744.0,489.0,476.0,126.0,-0.2341024957551542,0.49505549503741825,-0.34096301720520394,0.7641075180972822
-143.21764731407166,5636.0,12048.0,9844.0,521.0,430.0,179.0,-0.2552277945412744,0.4495412852656847,-0.32199140556219363,0.7931537937117596
-143.2254180908203,5660.0,12112.0,9880.0,532.0,355.0,207.0,-0.2799235235724829,0.40656571676897824,-0.3005092996742334,0.8161135335896561
-143.23321771621704,5748.0,12164.0,9824.0,478.0,375.0,228.0,-0.30275885694378607,0.3615808680214208,-0.28307398054720634,0.8351439827719097
-143.2410147190094,5740.0,12240.0,9552.0,446.0,306.0,232.0,-0.3257133376582472,0.32129952349378493,-0.2654170580950172,0.8486643760323499
-143.24881196022034,5856.0,12232.0,9648.0,473.0,323.0,183.0,-0.3445386137012101,0.2792665493731138,-0.24413622943650468,0.8623809132550468
-143.2565906047821,5844.0,12040.0,9656.0,458.0,308.0,177.0,-0.3619659928267726,0.2381963404340873,-0.22271242578917239,0.8732939361061884
-143.26438570022583,5944.0,12216.0,9612.0,424.0,363.0,109.0,-0.37154701070554913,0.1947376090765108,-0.20361831201553404,0.8846296770168177
-143.27222418785095,5860.0,12148.0,9596.0,387.0,363.0,0.0,-0.3712528898490131,0.15396214965711366,-0.1850355048898572,0.8967880519843429
-143.2800076007843,5916.0,12020.0,9776.0,359.0,407.0,-21.0,-0.36742993105981725,0.11066369790640147,-0.1693621451522416,0.9077804004914899
-143.28784227371216,5776.0,11912.0,9956.0,334.0,406.0,-4.0,-0.3639439264006424,0.06775841149124884,-0.15541707319017908,0.9158597870139648
-143.2956304550171,5736.0,11912.0,9988.0,364.0,416.0,-16.0,-0.3587540415026753,0.023131910565198328,-0.13897096736285533,0.9227391411711832
-143.3034143447876,5684.0,11816.0,9856.0,461.0,443.0,77.0,-0.35994944925836947,-0.027854190800101063,-0.11537613084943088,0.9253912072543606
-143.31123065948486,5736.0,11968.0,9868.0,444.0,388.0,179.0,-0.36890281915728595,-0.07480092488462478,-0.09082315978104614,0.9219906102025107
-143.31904697418213,5704.0,12024.0,9912.0,438.0,420.0,257.0,-0.38278953343630395,-0.12448302271247108,-0.06699577975275839,0.9129554839329805
-143.32680988311768,5784.0,12040.0,9876.0,398.0,389.0,336.0,-0.4023570455909392,-0.17040037751352533,-0.044244381306952865,0.8983957668696707
-143.33459639549255,5764.0,12052.0,9712.0,375.0,416.0,332.0,-0.42058135759856763,-0.21704194344895925,-0.02416399379696963,0.8805794784278275
-143.34241104125977,5712.0,12084.0,9624.0,374.0,400.0,320.0,-0.43664607155160795,-0.26169781318617713,-0.0037339017885297263,0.8607209308187843
-143.35019373893738,5700.0,11928.0,9532.0,317.0,381.0,511.0,-0.4668478960678599,-0.301881279717673,0.017489284931067748,0.8310324059900629
-143.35798048973083,5704.0,11888.0,9636.0,345.0,405.0,201.0,-0.4724671662362191,-0.3444707213757215,0.03154935605215928,0.8106289762131014
-143.36579251289368,5708.0,11824.0,9644.0,352.0,378.0,160.0,-0.4738240948300623,-0.3847375398158932,0.045890867768949746,0.7907981922528016
-143.37363505363464,5596.0,11800.0,9644.0,405.0,337.0,112.0,-0.4689031589364667,-0.42369791412164387,0.06384520377849634,0.7723559380640853
-143.3814389705658,5688.0,11876.0,9832.0,441.0,256.0,75.0,-0.458738458495471,-0.4579815610085829,0.0860078195324382,0.7565808426418263
-143.38922333717346,5688.0,11832.0,9664.0,463.0,168.0,115.0,-0.44878026538980226,-0.4861300357821868,0.11454478049444253,0.7410488209076027
-143.39702439308167,5764.0,11824.0,9652.0,513.0,87.0,150.0,-0.4372329950879163,-0.509629940409535,0.1506964285742328,0.7255309905576709
-143.40480875968933,5740.0,11868.0,9748.0,538.0,19.0,104.0,-0.41979732109401147,-0.5292325419201581,0.1886101060111782,0.7128178965805162
-143.41260075569153,5744.0,11944.0,9768.0,543.0,43.0,131.0,-0.4032342243688816,-0.5488306815540059,0.22673538034120636,0.6962600883176631
-143.42038536071777,5680.0,11860.0,9656.0,550.0,244.0,235.0,-0.39551469616670604,-0.5772899998803501,0.2625270409048069,0.6643673185430402
-143.42818117141724,5844.0,12092.0,9720.0,545.0,-52.0,299.0,-0.3837765306743033,-0.5852168330280864,0.3106233795862888,0.6432339767911555
-143.4359655380249,5920.0,12052.0,9708.0,467.0,-117.0,439.0,-0.3809255817858994,-0.581296880484441,0.36266920573442657,0.6208548019401087
-143.44376587867737,5984.0,12092.0,9620.0,439.0,-130.0,526.0,-0.3824768956914572,-0.5709892969301036,0.41674696996507193,0.5949828653654017
-143.4515507221222,5952.0,12016.0,9692.0,378.0,-137.0,583.0,-0.3883323424673041,-0.5540817269145741,0.46913655107543834,0.56754059602663
-143.45934963226318,5972.0,11892.0,9584.0,328.0,-142.0,583.0,-0.39497284128869614,-0.5332021113182219,0.5174763223712815,0.5402871633818616
-143.4671368598938,5972.0,11760.0,9652.0,348.0,-132.0,550.0,-0.39822130236837755,-0.5131400407636233,0.5630746227184797,0.5109344988896151
-143.4750473499298,5912.0,11744.0,9624.0,367.0,-161.0,610.0,-0.40039727853862234,-0.4876291658039105,0.6110884440566894,0.47798611856059353
-143.48285150527954,5952.0,11672.0,9736.0,424.0,-121.0,579.0,-0.39937760629532204,-0.4654760594589422,0.6562821829103206,0.43945791841182985
-143.49064683914185,5940.0,11832.0,9604.0,433.0,-202.0,586.0,-0.391963992740649,-0.43821553245619477,0.7021594027811247,0.4016261303687752
-143.4984369277954,5684.0,11708.0,9668.0,445.0,-206.0,604.0,-0.38272753915296776,-0.4081943617595988,0.7461312511211309,0.3608117929087181
-143.50625586509705,5880.0,11952.0,9476.0,525.0,-292.0,632.0,-0.36397009187220475,-0.3742441332989089,0.7925854251899982,0.31508006076278017
-143.51401948928833,5852.0,11568.0,9636.0,657.0,-343.0,676.0,-0.33619107446631774,-0.33759116631917346,0.8403640489032221,0.2584492816461784
-143.5218105316162,5924.0,11620.0,9584.0,724.0,-408.0,737.0,-0.3002475024142651,-0.29417287842944617,0.8861858049604173,0.19490632102932792
-143.52962517738342,5928.0,11728.0,9572.0,821.0,-480.0,823.0,-0.2546011471984617,-0.2423979622179862,0.9282550513206467,0.12150738025115436
-143.5374116897583,6016.0,11936.0,9508.0,821.0,-529.0,885.0,-0.20250148387541236,-0.18212495997910147,0.9610835289988516,0.046282807477293735
-143.5451877117157,6088.0,11788.0,9432.0,821.0,-596.0,948.0,-0.14231158785348397,-0.1138721434575901,0.9828047321005152,-0.029587251778912405
-143.5529990196228,6164.0,12088.0,9364.0,758.0,-651.0,998.0,-0.0758378572626199,-0.03906426045018998,0.9913516004693079,-0.09972265143003411
-143.56079697608948,6268.0,12312.0,9248.0,667.0,-635.0,1087.0,-0.009128027981824657,0.04470676345848609,0.9858707106653585,-0.1611735904495859
-143.56859421730042,6340.0,12284.0,9416.0,575.0,-640.0,1085.0,0.058512213359414075,0.1276860210054633,0.9670308528388656,-0.21242394070657686
-143.57638692855835,6152.0,12216.0,9196.0,515.0,-619.0,1133.0,0.12510057193899,0.21292172312020702,0.9348478645146087,-0.2550953879170212
-143.58418726921082,6524.0,12084.0,9188.0,481.0,-638.0,1154.0,0.19248162412118866,0.295936210091465,0.8890816628021526,-0.29138699490768094
-143.59198236465454,6404.0,12000.0,9248.0,450.0,-565.0,1204.0,0.25345198216981285,0.379742470026333,0.8308228479501715,-0.3182626973373701
-143.59977078437805,6388.0,11832.0,9464.0,487.0,-603.0,1206.0,0.31214527344819565,0.4576783935566778,0.7580499641948373,-0.34417447337002804
-143.60754942893982,6384.0,11756.0,9300.0,508.0,-593.0,1260.0,0.36594415957174903,0.5326607821433278,0.6706714023470208,-0.36408410198148616
-143.61533784866333,6324.0,11720.0,9684.0,575.0,-607.0,1221.0,0.4102079375934477,0.5982655834082715,0.5714396868738634,-0.3837504708922084
-143.62311601638794,6312.0,11728.0,9480.0,582.0,-660.0,1196.0,0.44912303010788196,0.6512179292965333,0.4619221847188493,-0.4010381623412106
-143.63096117973328,6260.0,11736.0,9544.0,632.0,-604.0,1252.0,0.47725163290326705,0.6991462404991832,0.34184071015279743,-0.4081303004792155
-143.63873291015625,6328.0,11844.0,9600.0,692.0,-566.0,1529.0,0.5005366905128051,0.7445646191962492,0.1978474498527636,-0.39489610770225547
-143.64652347564697,6300.0,12044.0,9372.0,727.0,-629.0,1366.0,0.5060010280259155,0.7700474448961004,0.055832862805706686,-0.38454204409482046
-143.6543164253235,6304.0,12304.0,9224.0,697.0,-700.0,1392.0,0.5038495553155853,0.7754873509393022,-0.09113515301550533,-0.3693905494544642
-143.66210842132568,6192.0,12452.0,9092.0,601.0,-720.0,1420.0,0.4978950799315734,0.758984473553254,-0.23578806067855282,-0.34705482092382617
-143.66989588737488,6152.0,12552.0,9168.0,745.0,-697.0,1414.0,0.4717359103907451,0.732602860161371,-0.37801784150243173,-0.3128270954329816
-143.6776888370514,5912.0,12592.0,9016.0,407.0,-762.0,1430.0,0.4549416325660273,0.6741365714405467,-0.5066011200548773,-0.2862224644637211
-143.6854863166809,6240.0,12448.0,8984.0,349.0,-525.0,1454.0,0.44343133963667297,0.6047345522799782,-0.6158421442946823,-0.2416675849535631
-143.6932713985443,6180.0,12264.0,8716.0,310.0,-817.0,1537.0,0.41084134608107675,0.5107622404315192,-0.7264953027960023,-0.20624232619665922
-143.7010715007782,6216.0,12004.0,9140.0,305.0,-887.0,1566.0,0.3647080380870957,0.40132121557714157,-0.8231821224765182,-0.1682275902383481
-143.7088439464569,6268.0,11904.0,9108.0,281.0,-938.0,1505.0,0.3059394083318402,0.284856581700511,-0.8988758443609074,-0.13145350020417673
-143.71664667129517,6236.0,11804.0,9340.0,296.0,-968.0,1500.0,0.23699471610877915,0.1619493188286083,-0.953567242109256,-0.09118902041154067
-143.72447776794434,6196.0,11612.0,9380.0,375.0,-778.0,1782.0,0.17854924696923544,0.014966588194717707,-0.9832401694189755,-0.03368882434091568
-143.73231410980225,6352.0,11608.0,9532.0,459.0,-1059.0,1481.0,0.09026798052605288,-0.10667488240175882,-0.9898206221965565,0.026968445093120734
-143.74010729789734,6356.0,11524.0,9432.0,498.0,-1006.0,1455.0,0.004540381253345783,-0.22324253481903292,-0.9706243123702198,0.08961361404097688
-143.74791049957275,6320.0,11672.0,9532.0,614.0,-1034.0,1452.0,-0.08134824703577334,-0.33345434031361215,-0.9254966903067066,0.16014537727188
-143.75570607185364,6468.0,11852.0,9416.0,648.0,-1086.0,1438.0,-0.16799627354101998,-0.4330513124996773,-0.8550133469971678,0.23064255738119632
-143.76350569725037,6520.0,11800.0,9484.0,711.0,-1109.0,1398.0,-0.24858985188572794,-0.5182733001517313,-0.760962176209788,0.30088608852409376
-143.77127170562744,6536.0,12072.0,9456.0,711.0,-1113.0,1378.0,-0.32215275543983374,-0.5879187728025113,-0.6468562272627723,0.3635191054130233
-143.77907586097717,6540.0,12532.0,9336.0,634.0,-1094.0,1282.0,-0.3873790971429524,-0.6356332904286163,-0.5237070658331624,0.41429296927659887
-143.7868959903717,6900.0,12712.0,9136.0,515.0,-1033.0,1233.0,-0.44588091586149375,-0.6648770532187961,-0.39737407568723976,0.4485783732474379
-143.7946949005127,6744.0,12896.0,9036.0,395.0,-1019.0,1131.0,-0.4980153983881785,-0.6732570587485387,-0.27394066067181994,0.47292928672711465
-143.80248069763184,6832.0,12876.0,9016.0,286.0,-929.0,1022.0,-0.5416326309460413,-0.6667122136746795,-0.16035724488239544,0.4862247127051499
-143.810284614563,6812.0,12888.0,8956.0,196.0,-819.0,943.0,-0.5783202520355235,-0.6504129216409673,-0.057947980747958594,0.4890304172290961
-143.8180661201477,6868.0,12832.0,8932.0,115.0,-798.0,808.0,-0.6074347664333943,-0.6230726431067661,0.03310312181937772,0.4916377419053255
-143.82585048675537,6848.0,12884.0,9028.0,38.0,-735.0,724.0,-0.6318803065826484,-0.5889554863535267,0.11277866596536748,0.49105975781993266
-143.8336181640625,6700.0,12860.0,9160.0,254.0,-659.0,595.0,-0.6359073370994468,-0.5668832241253052,0.19013781728297136,0.48796811296155085
-143.8413951396942,6540.0,12720.0,9208.0,-68.0,-623.0,530.0,-0.649974332700884,-0.5262638498288573,0.2475447696469873,0.48918433561774083
-143.8491871356964,6452.0,12760.0,9324.0,-91.0,-593.0,559.0,-0.6636453863244139,-0.4822809690838952,0.3023242123281996,0.48536577826413724
-143.85700297355652,6368.0,12404.0,9360.0,-77.0,-567.0,547.0,-0.6736260612712774,-0.43811238689606624,0.3541786973776162,0.4783752881872887
-143.86478805541992,6072.0,12100.0,9464.0,-46.0,-701.0,546.0,-0.6746167643336409,-0.3878695647298173,0.4131505210237813,0.4730286133143415
-143.87259793281555,6192.0,12080.0,9412.0,-31.0,-703.0,573.0,-0.6720061434541781,-0.3350923652021077,0.4711639248472189,0.4627368646062944
-143.8803791999817,6236.0,12040.0,9540.0,35.0,-746.0,506.0,-0.6588332019006848,-0.2851614609482347,0.5293908743009254,0.4520697462450471
-143.88816165924072,6280.0,12108.0,9476.0,62.0,-715.0,561.0,-0.6444699132941011,-0.23376726544802934,0.5849206028445099,0.43345044103295083
-143.89594626426697,6304.0,12232.0,9444.0,150.0,-735.0,750.0,-0.6296662909762891,-0.17533565844339705,0.6443293792606164,0.39701060427652624
-143.90372943878174,6400.0,12356.0,9564.0,193.0,-687.0,404.0,-0.6006253371238073,-0.1390853960686867,0.6930378921970358,0.3736347641540053
-143.91149878501892,6608.0,12512.0,9556.0,202.0,-661.0,300.0,-0.5668308808904635,-0.10976982109638042,0.7362001338035922,0.35307605672571873
-143.91928815841675,6696.0,12648.0,9516.0,182.0,-586.0,72.0,-0.5289620784703424,-0.09598818881586657,0.7702561458867611,0.3430610104221372
-143.92709064483643,6796.0,12792.0,9396.0,144.0,-461.0,-121.0,-0.49275260372586493,-0.09691181087668237,0.7939822433739856,0.34262978510455827
-143.93490433692932,6808.0,12908.0,9488.0,58.0,-369.0,-240.0,-0.4592462777528698,-0.10495277700704372,0.8088486014129252,0.35191151012860966
-143.942702293396,6768.0,12920.0,9476.0,247.0,-508.0,-439.0,-0.40692152881242266,-0.1300111523889831,0.8310646733951323,0.3561509206475414
-143.95048546791077,6812.0,12844.0,9248.0,-74.0,-106.0,-596.0,-0.3810878248317009,-0.16709172464365535,0.8245052084093167,0.3834626274183195
-143.95828247070312,6708.0,12544.0,9376.0,-149.0,-30.0,-691.0,-0.35738048669489786,-0.21045219186110148,0.8088037743643067,0.4169238746397571
-143.96606636047363,6516.0,12672.0,9376.0,-155.0,39.0,-763.0,-0.33453294984895177,-0.26027726654970973,0.786020332841326,0.4500172067185666
-143.97389960289001,6384.0,12520.0,9240.0,-180.0,61.0,-808.0,-0.3103549687321253,-0.3119939970601591,0.756740221842944,0.48340849788434487
-143.98168420791626,6256.0,12480.0,9512.0,-126.0,97.0,-821.0,-0.28489926770709506,-0.3658708410265899,0.7244316181114558,0.5100683930875097
-143.98948168754578,6216.0,12288.0,9368.0,-144.0,93.0,-813.0,-0.2586162150851991,-0.41666873751758626,0.6878722789251633,0.5351042369079219
-143.99726629257202,6108.0,12204.0,9416.0,-126.0,97.0,-783.0,-0.23200523914844956,-0.46415216894481576,0.6496924393755708,0.5555502383130748
-144.00505542755127,6160.0,12176.0,9440.0,-74.0,82.0,-779.0,-0.20152474212023974,-0.509509826374628,0.6114106323741616,0.5709330554109606
-144.0128355026245,6124.0,12012.0,9428.0,-19.0,98.0,-823.0,-0.16627258786774027,-0.556427320379311,0.570631094305233,0.5806222678052199
-144.0206298828125,6212.0,12096.0,9396.0,23.0,124.0,-528.0,-0.1445313273826928,-0.5885841961043655,0.5437436900765831,0.5805360789848253
-144.02841019630432,6236.0,12188.0,9456.0,85.0,170.0,-723.0,-0.11147768581210109,-0.6311499252253346,0.5076926583804857,0.5757348887123205
-144.03619384765625,6312.0,12252.0,9492.0,120.0,191.0,-784.0,-0.07385838654545089,-0.6748656082949308,0.4675102900233114,0.5661585274460987
-144.0439808368683,6372.0,12280.0,9460.0,81.0,199.0,-897.0,-0.032880222790689695,-0.7194253967533691,0.41607297049298325,0.5551839989414656
-144.05176043510437,6512.0,12200.0,9236.0,53.0,191.0,-925.0,0.008209464351964678,-0.7597808191261002,0.3588206144043565,0.5421378775381832
-144.05953407287598,6596.0,12208.0,9388.0,26.0,198.0,-966.0,0.0491736370780182,-0.796392583413664,0.2950746543395963,0.5256155961028909
-144.06732606887817,6584.0,12260.0,9240.0,-37.0,233.0,-939.0,0.08330375204380402,-0.8284371075362208,0.22832763052541233,0.5045977971524402
-144.07513427734375,6584.0,12388.0,9324.0,-44.0,273.0,-921.0,0.11477189849877026,-0.8561013891320666,0.16124533865305432,0.47740733509634703
-144.08297681808472,6584.0,12348.0,9280.0,-71.0,372.0,-922.0,0.14205338906416443,-0.8819454204097765,0.09279752621976164,0.4397518950511756
-144.09076714515686,6556.0,12372.0,9200.0,-74.0,388.0,-946.0,0.16879821844630197,-0.9018110172964162,0.02188150809172307,0.397196739835298
-144.0985517501831,6588.0,12284.0,9236.0,-157.0,365.0,-887.0,0.18578291489390913,-0.9151875993655739,-0.04781499288851033,0.35444335648460384
-144.10633993148804,6672.0,12104.0,9220.0,-101.0,294.0,-951.0,0.207537272190393,-0.9184629643318235,-0.1216683416215336,0.3139281421753009
-144.11413407325745,6512.0,12044.0,9452.0,-102.0,294.0,-979.0,0.22836380397953668,-0.9143096375093404,-0.19683107591701648,0.2704540392430552
-144.121910572052,6464.0,12040.0,9488.0,-88.0,266.0,-980.0,0.24804440560133273,-0.9019513274832907,-0.27075201113514974,0.22726883677108736
-144.1296911239624,6432.0,11992.0,9380.0,-81.0,227.0,-1021.0,0.2661572554096061,-0.88040103510948,-0.3463873048387524,0.1845810602893131
-144.13748383522034,6364.0,12076.0,9384.0,-86.0,156.0,-1090.0,0.28051598296246727,-0.8480257640264104,-0.42595377479180135,0.14396690102464327
-144.14526844024658,6248.0,11932.0,9300.0,-76.0,115.0,-1058.0,0.29119683202723773,-0.8084922137900987,-0.5002625632254284,0.10621729187477168
-144.15307092666626,6256.0,12008.0,9360.0,-57.0,68.0,-1043.0,0.298570497101219,-0.7618432544830784,-0.5703135408376825,0.07206232716577508
-144.16086316108704,6384.0,11916.0,9296.0,-54.0,42.0,-1055.0,0.30242715365169914,-0.7079699777705944,-0.6370295270185811,0.03885497414899012
-144.16869401931763,5980.0,11920.0,9220.0,-74.0,-28.0,-993.0,0.2985470562426805,-0.6521296239090179,-0.6967737639606157,0.010145476098683255
-144.17658352851868,5812.0,12004.0,9260.0,-49.0,-42.0,-893.0,0.2931120206790791,-0.5972096591527272,-0.7464829690161173,-0.013752938485742749
-144.18440318107605,5692.0,11804.0,9456.0,-50.0,-90.0,-837.0,0.28288688885510765,-0.5425615439860327,-0.790230664154064,-0.03372649599346321
-144.19220519065857,5696.0,11972.0,9408.0,-13.0,-123.0,-719.0,0.27113939972399975,-0.4926212855608913,-0.8256156166051047,-0.04654619799099355
-144.19999885559082,5744.0,12016.0,9200.0,-3.0,-84.0,-573.0,0.2623150098103401,-0.45113294982128077,-0.8511471161431672,-0.056731683342914035
-144.20780062675476,5772.0,12016.0,9468.0,10.0,-122.0,-409.0,0.25146944254443326,-0.4208001860147828,-0.869492919699408,-0.06060021046922959
-144.21560859680176,6136.0,11972.0,9468.0,75.0,-154.0,-290.0,0.24092644697649657,-0.3977590225881609,-0.8835390256744687,-0.05568659809328198
-144.22339987754822,5888.0,12024.0,9504.0,126.0,-201.0,-15.0,0.2297057234035163,-0.3948202972140715,-0.8887073213368789,-0.03938921864785996
-144.23123121261597,6356.0,12004.0,9516.0,162.0,-171.0,-338.0,0.22074936290784664,-0.3656791410158695,-0.9037570719706883,-0.027778399245529113
-144.2390742301941,6536.0,12248.0,9524.0,176.0,-108.0,-279.0,0.21710424001117673,-0.3403607004458133,-0.9147498987898338,-0.01590488054634288
-144.24691557884216,6568.0,12244.0,9704.0,144.0,-74.0,-404.0,0.21479332013957272,-0.3052329138441276,-0.9276841110498983,-0.009944246336568806
-144.25468707084656,6904.0,12336.0,9336.0,95.0,32.0,-436.0,0.21940984336491282,-0.2678904335434087,-0.9380645057023665,-0.011358670339592968
-144.26247930526733,6756.0,12280.0,9344.0,39.0,45.0,-556.0,0.22323227498173837,-0.22128409933540064,-0.9491066629245551,-0.019930910165187204
-144.2702715396881,6744.0,12228.0,9244.0,0.0,110.0,-668.0,0.23082764490887608,-0.1654372426522,-0.9581842535759586,-0.03510061664048085
-144.27806425094604,6508.0,12292.0,9304.0,-11.0,190.0,-683.0,0.244051675874547,-0.10771986005670547,-0.9623290752556528,-0.05251630384736739
-144.2858281135559,6332.0,12272.0,9404.0,30.0,189.0,-646.0,0.2568608042082502,-0.05183537698075263,-0.9628310537885548,-0.06551322626138277
-144.2936418056488,6236.0,12300.0,9440.0,36.0,161.0,-606.0,0.2667498686623339,0.0008462271478902644,-0.9607021882808047,-0.07677953438719809
-144.30142736434937,6188.0,12296.0,9432.0,49.0,166.0,-570.0,0.2765389799312361,0.05085283582610486,-0.9558035465402852,-0.0859055416608691
-144.30920791625977,6168.0,12384.0,9352.0,70.0,154.0,-651.0,0.28377680390606186,0.1078462368005759,-0.9480561001226651,-0.09502392221445108
-144.3169867992401,6240.0,12356.0,9412.0,92.0,173.0,-681.0,0.2910985091048424,0.1676134781794276,-0.9362970082952755,-0.10254409874219521
-144.32476496696472,6220.0,12288.0,9324.0,77.0,164.0,-676.0,0.2968528189560524,0.22587893990952643,-0.9211711470491875,-0.11090908992178243
-144.33254623413086,6260.0,12132.0,9432.0,93.0,142.0,-657.0,0.2996386298453591,0.28200591593611385,-0.9038115715372447,-0.11753296574495724
-144.34036421775818,6192.0,12160.0,9284.0,144.0,179.0,-671.0,0.3028438291512248,0.33989897334837726,-0.8823565392393333,-0.11916895872386363
-144.34813046455383,5888.0,12260.0,9304.0,137.0,130.0,-646.0,0.3016467866935619,0.39394817534896404,-0.8596521645008423,-0.12170541189974808
-144.3559286594391,6104.0,12524.0,9388.0,198.0,180.0,-620.0,0.30133530456890306,0.4468165678064394,-0.8342045424952385,-0.11685362739063689
-144.36373591423035,6172.0,12756.0,9116.0,212.0,236.0,-690.0,0.30265417287062546,0.5039283033260694,-0.8014456581749332,-0.1101888095200887
-144.37151741981506,6280.0,12784.0,9444.0,204.0,285.0,-733.0,0.3059086246050862,0.56191223730989,-0.7616810917561294,-0.10254981918467303
-144.37931489944458,6488.0,12812.0,9244.0,160.0,299.0,-838.0,0.3095905311625983,0.6226220427955992,-0.7117734527871544,-0.09936823811937094
-144.3871021270752,6472.0,12756.0,9244.0,74.0,437.0,-972.0,0.3230052622760024,0.6858019275070201,-0.6449427961631147,-0.09691288070721078
-144.3949375152588,6464.0,12680.0,9140.0,-43.0,476.0,-1150.0,0.3407631875363538,0.7489117989041398,-0.5589861895221603,-0.10269375543685268
-144.40272617340088,6316.0,12644.0,9064.0,-226.0,498.0,-1182.0,0.36700355086146375,0.799136231401224,-0.46187139898548185,-0.11560487929200992
-144.4105248451233,6128.0,12572.0,9044.0,-290.0,565.0,-1117.0,0.3963846605880431,0.835289353741737,-0.3606435888993597,-0.12291093589263258
-144.4183132648468,5944.0,12412.0,9040.0,-356.0,762.0,-1070.0,0.4319443127890986,0.8587293744601175,-0.25066856459410936,-0.11477474814965768
-144.42610597610474,5880.0,12372.0,9092.0,-412.0,444.0,-966.0,0.46072122653069997,0.8644400432052295,-0.15661883777615596,-0.12629292450899496
-144.4338936805725,5816.0,12396.0,9108.0,-367.0,358.0,-847.0,0.4823065040546572,0.8619216659409498,-0.07400586005620056,-0.13782093674581797
-144.44169092178345,5724.0,12432.0,8960.0,-323.0,297.0,-791.0,0.4975952005540625,0.8542759439316838,0.001857011761155197,-0.1503601659766039
-144.44948482513428,5724.0,12548.0,9108.0,-289.0,235.0,-744.0,0.5081357083824393,0.8424013558508545,0.0711027810275227,-0.16462822375726102
-144.4572834968567,5752.0,12676.0,9028.0,-511.0,194.0,-699.0,0.532993855387224,0.8156798839201449,0.1379773648779874,-0.1776122852417834
-144.46507287025452,5828.0,12808.0,9080.0,-274.0,109.0,-755.0,0.5382663851177811,0.7934921999675562,0.20047821700202637,-0.20111666204114687
-144.47287487983704,5928.0,12800.0,9180.0,-179.0,76.0,-875.0,0.5324712332455436,0.7687143684987638,0.26690024539476803,-0.23305978726011284
-144.4806568622589,6104.0,12876.0,9328.0,-201.0,140.0,-938.0,0.5218703431163869,0.7377044181686843,0.33914012479117583,-0.2615865289853688
-144.48849081993103,6232.0,12840.0,9192.0,-136.0,238.0,-1107.0,0.4959706787888989,0.7007000484970605,0.4222015949166717,-0.29116720465690255
-144.49627661705017,6148.0,12960.0,9376.0,-153.0,302.0,-1270.0,0.4590196973917116,0.6506838663334941,0.5134011180911031,-0.3198917245608618
-144.50403809547424,6480.0,12968.0,9320.0,-193.0,440.0,-1534.0,0.40357354873577894,0.580819263680374,0.6174418895787589,-0.3443005760843423
-144.51186227798462,6468.0,12872.0,9164.0,-248.0,667.0,-1789.0,0.32199631854249894,0.4888767047012225,0.7288369047434077,-0.35512632221450463
-144.51968479156494,6424.0,12692.0,8992.0,-302.0,956.0,-1863.0,0.2127680926255502,0.38501167699588357,0.8305147899109314,-0.3416737202017507
-144.5274679660797,6224.0,12448.0,8796.0,-272.0,1161.0,-2034.0,0.07551788370713228,0.26165843880856565,0.9094906660928221,-0.31409972768325517
-144.53525829315186,5788.0,12516.0,8580.0,-190.0,1321.0,-1766.0,-0.07211156494677519,0.15358102775639224,0.9462516102886834,-0.2753555522234681
-144.54306840896606,5404.0,12432.0,8208.0,-98.0,1344.0,-1112.0,-0.20619025005176855,0.0935567108338567,0.9441433149033671,-0.23942874423264354
-144.55089402198792,5264.0,12508.0,8184.0,250.0,1243.0,-636.0,-0.3215651915803192,0.06211941940533874,0.9147512554497138,-0.23657376428891805
-144.55868124961853,5360.0,12416.0,8140.0,24.0,1043.0,-296.0,-0.40933029568517604,0.05904615492340112,0.8826235653025395,-0.22346790059353466
-144.56646370887756,5524.0,12124.0,8512.0,-48.0,800.0,-77.0,-0.47113811750955814,0.07021135524932574,0.8532431721458875,-0.21230951229284642
-144.57428431510925,5700.0,11928.0,8688.0,-108.0,667.0,76.0,-0.5179200101281032,0.09245303535237746,0.8258635951673108,-0.20288080623943117
-144.5820963382721,5644.0,11876.0,8888.0,-206.0,574.0,11.0,-0.5567411053401694,0.11249772608059552,0.8023009926232091,-0.18356666496702212
-144.58989572525024,6040.0,11792.0,8768.0,-303.0,598.0,-22.0,-0.5950675038772797,0.13495585802230997,0.7769406662808288,-0.15506380394478747
-144.59768724441528,6184.0,11692.0,8640.0,-382.0,605.0,-19.0,-0.6307133048079456,0.16129639585584996,0.7494064068139167,-0.12072380564083834
-144.6054847240448,6312.0,11564.0,8552.0,-398.0,653.0,255.0,-0.6635855447271402,0.20616245613528186,0.7122578268351688,-0.0991970494596246
-144.61326932907104,6296.0,11400.0,8604.0,-459.0,599.0,78.0,-0.6904630681951213,0.2421455562224811,0.6786084407301202,-0.06416280254259066
-144.62106943130493,6304.0,11352.0,8700.0,-482.0,530.0,207.0,-0.7090914626220034,0.28570206635681183,0.6435963033372853,-0.03670729146391691
-144.62885546684265,6056.0,11468.0,8416.0,-499.0,490.0,381.0,-0.7212907750390605,0.33861975364469116,0.6038881348915476,-0.019884688138573064
-144.63664507865906,5940.0,11432.0,8620.0,-444.0,398.0,659.0,-0.7258999799392925,0.40067415029941533,0.5584370844728852,-0.02602819800524499
-144.6444215774536,5904.0,11468.0,8844.0,-418.0,311.0,919.0,-0.7213717750376,0.4705494336737011,0.5054005928507865,-0.052689974326573005
-144.6522092819214,5756.0,11468.0,9000.0,-403.0,170.0,1268.0,-0.7017751327751882,0.5487954692163796,0.441467985192669,-0.10696361080229996
-144.65999603271484,5876.0,11436.0,9132.0,-423.0,-27.0,1545.0,-0.6597072460467323,0.6278025162114498,0.36948554850085263,-0.18474517477063535
-144.66783022880554,6048.0,11180.0,8880.0,-436.0,-210.0,1712.0,-0.5943805077080984,0.6963349783102749,0.2913194717922037,-0.27742093539061446
-144.67566013336182,6244.0,11036.0,8824.0,-487.0,-369.0,1933.0,-0.5008602072726327,0.7501287759649529,0.20164247071935093,-0.3818195728905641
-144.68347430229187,6240.0,10928.0,8976.0,-483.0,-603.0,2037.0,-0.38387963070462977,0.7731180894408,0.10876892599470525,-0.49304580887321475
-144.69125771522522,6216.0,10768.0,9124.0,-455.0,-800.0,2104.0,-0.25005147446171205,0.7587811619226811,0.01288811195999962,-0.6012980167944146
-144.69906163215637,6088.0,10752.0,9112.0,-470.0,-787.0,2041.0,-0.1088198552646034,0.7164395751438785,-0.07900051048864636,-0.6845666465804358
-144.70684504508972,6024.0,11108.0,9268.0,-476.0,-1306.0,1821.0,0.020419238751516678,0.6180412794679697,-0.14914169000706598,-0.7715988516478235
-144.71463012695312,5904.0,11192.0,9432.0,-421.0,-1446.0,1588.0,0.12902024963017872,0.49022911770244515,-0.2054010116537345,-0.8371616401589786
-144.72242212295532,5720.0,11240.0,9452.0,-399.0,-1661.0,1387.0,0.2138662585275934,0.3332187735305431,-0.24984097134449215,-0.8836322546556625
-144.73018789291382,5864.0,11496.0,9368.0,-245.0,-1836.0,1168.0,0.2663268350111961,0.15847941593920414,-0.29401000415918,-0.9041639282402316
-144.73796916007996,5516.0,11716.0,9716.0,-62.0,-2148.0,886.0,0.27643066578349035,-0.03469390797228846,-0.3444655994236012,-0.8965075964975677
-144.74578738212585,5484.0,11916.0,9576.0,107.0,-2373.0,633.0,0.24925333365018462,-0.23153976815043883,-0.39931681070663333,-0.8513566797272418
-144.75357794761658,5604.0,12312.0,9600.0,304.0,-2645.0,338.0,0.18324480679389668,-0.42156896316456316,-0.46028285315847195,-0.7595002601498693
-144.76136422157288,5816.0,12532.0,9788.0,478.0,-2873.0,37.0,0.08507670868499385,-0.5870329965750379,-0.5200351766626141,-0.6145873653150901
-144.76915216445923,5908.0,12924.0,9888.0,566.0,-3011.0,-181.0,-0.03126706869722014,-0.7109863298720556,-0.5622082113168301,-0.42123952364192807
-144.77701115608215,6588.0,12816.0,9776.0,507.0,-3114.0,-424.0,-0.16212492223935748,-0.7766022121767681,-0.5768032525004195,-0.1946856993617397
-144.78479671478271,7148.0,13116.0,9812.0,331.0,-3071.0,-712.0,-0.2953741624463131,-0.768734569172774,-0.5659544734648033,0.03868850324147434
-144.79258060455322,7536.0,12996.0,9616.0,165.0,-3070.0,-964.0,-0.41662209611597667,-0.6882976721364962,-0.5303243287179387,0.2672610146079635
-144.80038189888,7600.0,13008.0,9508.0,-138.0,-2664.0,-1137.0,-0.5058447736029088,-0.5511225211176763,-0.48948071339450694,0.44810005908315054
-144.8081738948822,8060.0,12512.0,9320.0,-377.0,-2312.0,-987.0,-0.5703812531526868,-0.3923354941809385,-0.4388542114653552,0.5728394776347825
-144.81597304344177,8160.0,11848.0,9184.0,-362.0,-1820.0,-840.0,-0.6011628036823722,-0.2472530559239085,-0.3888662862228471,0.6528799439746091
-144.8237588405609,8184.0,11376.0,9076.0,-396.0,-1757.0,-749.0,-0.6178569551871717,-0.09948834383468243,-0.3304547543101118,0.7065086749090296
-144.83155059814453,8504.0,10708.0,9360.0,-317.0,-1722.0,110.0,-0.6693176819941016,0.020391710484256753,-0.25299367119618976,0.6982780399298285
-144.83933758735657,8348.0,10312.0,9244.0,-75.0,-1432.0,717.0,-0.7373543059769156,0.09526350882881197,-0.17322168578284652,0.6459316828562232
-144.84712886810303,8440.0,10168.0,9396.0,118.0,-1336.0,1199.0,-0.8161453130097014,0.1430416258564558,-0.08917615480669137,0.5527146956057266
-144.85495281219482,8448.0,10116.0,9864.0,198.0,-1384.0,1593.0,-0.8911192714575092,0.18012256009848113,-0.0006338383152742741,0.4164875816030976
-144.86273670196533,8640.0,10240.0,10476.0,323.0,-1207.0,2022.0,-0.9495504433531872,0.1944358179463349,0.0719128404116509,0.23532363164636405
-144.87053155899048,8932.0,10604.0,10920.0,319.0,-1161.0,2474.0,-0.9709105240705801,0.20140464763384494,0.12922068306400605,0.008422424172998398
-144.87834572792053,9028.0,11216.0,11104.0,176.0,-935.0,2760.0,-0.935651670777558,0.21127972582432597,0.15523000569491474,-0.23626356841188778
-144.88613653182983,9624.0,11768.0,11344.0,-116.0,-752.0,2709.0,-0.842512647477488,0.23469333844831952,0.16425943966194165,-0.4561910917701065
-144.89392924308777,9704.0,12156.0,10668.0,-179.0,58.0,2195.0,-0.7388418307429999,0.2763059286058212,0.11996969308208189,-0.6028059851257269
-144.90171241760254,9300.0,12204.0,9644.0,-313.0,375.0,1566.0,-0.646319330960178,0.3290167282705091,0.07371367438110946,-0.684533132254819
-144.90949726104736,8880.0,11680.0,9120.0,-434.0,512.0,1128.0,-0.5661166138783406,0.3885856013541595,0.03807832747200674,-0.7259912195667954
-144.9172830581665,8260.0,11336.0,8608.0,-378.0,340.0,1091.0,-0.48267727688724027,0.4298758455651728,0.008129186596872619,-0.7629962779081032
-144.92506194114685,7584.0,11040.0,8552.0,-509.0,89.0,1027.0,-0.3932879346777722,0.45551347190628505,-0.00032110749523301237,-0.7986438344085246
-144.93284511566162,7388.0,11028.0,8332.0,-157.0,-136.0,1495.0,-0.28040252391432374,0.44734819929914893,-0.043850918085004256,-0.8481338987149306
-144.9406361579895,7140.0,10812.0,8252.0,-6.0,-441.0,1698.0,-0.15431735111067532,0.4034676075827274,-0.09787383086824986,-0.8965605155307858
-144.94840931892395,7240.0,10700.0,8508.0,82.0,-266.0,1827.0,-0.016230814536946227,0.36106939100661367,-0.16305988049828365,-0.9180288290187112
-144.95619106292725,7540.0,10612.0,8768.0,5.0,-433.0,1818.0,0.12160075355648518,0.29635125810104657,-0.2173986459621743,-0.9220233279533849
-144.96397280693054,7908.0,10364.0,8884.0,367.0,-236.0,1651.0,0.23796180814131263,0.24695306943161457,-0.289089030235062,-0.893765009363296
-144.97175097465515,8124.0,10280.0,8972.0,500.0,-65.0,1462.0,0.33664303669262985,0.21318499166600796,-0.3578410622557792,-0.844495943944306
-144.97955870628357,8248.0,10148.0,9456.0,695.0,185.0,1184.0,0.41386084516404587,0.20846969303877888,-0.42268110037945955,-0.7788454758849334
-144.9873468875885,8364.0,10204.0,9704.0,857.0,12.0,974.0,0.4621019993976945,0.20274069866166966,-0.4951026066556986,-0.7072703585910861
-144.99512457847595,8548.0,9832.0,9700.0,1038.0,711.0,1277.0,0.5467851078897827,0.23027603355759194,-0.5464127756247825,-0.5911277973441635
-145.002947807312,8412.0,9936.0,9712.0,1106.0,681.0,872.0,0.5966370681510074,0.2738972327010821,-0.5830041166766565,-0.47865511045525355
-145.01073956489563,8536.0,10140.0,9864.0,1115.0,627.0,889.0,0.633342839700633,0.3099467520752171,-0.6124471946296254,-0.3573769607407055
-145.0185239315033,8488.0,10132.0,10144.0,1212.0,749.0,898.0,0.6616315645526124,0.3484804999140123,-0.626296903062516,-0.22035699031717573
-145.02631425857544,8424.0,10700.0,9860.0,1243.0,862.0,1189.0,0.6843658524526317,0.36666013694035887,-0.6276784122987203,-0.05677618083155519
-145.03409695625305,8236.0,11004.0,9848.0,1118.0,824.0,1534.0,0.6902971422855898,0.34783841998608817,-0.6228834446404513,0.12047615252312704
-145.04188513755798,8304.0,11232.0,9472.0,962.0,827.0,1030.0,0.6883875630334262,0.33771392594901073,-0.5881155145324056,0.25727807688819976
-145.0496757030487,8292.0,11156.0,9108.0,732.0,802.0,1028.0,0.6792702387949598,0.30835647004957123,-0.54898149311973,0.37699807728692436
-145.05746412277222,8216.0,10872.0,9156.0,566.0,779.0,1385.0,0.6489355857036332,0.24733488454950064,-0.515725478968136,0.5017322900067869
-145.06524777412415,8136.0,10676.0,9072.0,573.0,719.0,1330.0,0.6048341624338911,0.18670968316345,-0.4737604301850228,0.6122631664217599
-145.07304072380066,8076.0,10380.0,8980.0,710.0,617.0,2012.0,0.5020508238168009,0.10620100394474905,-0.4279059660779794,0.7440180113820296
-145.08083748817444,7980.0,10328.0,9112.0,783.0,469.0,2333.0,0.35260101716307723,0.022560535209187653,-0.36924433211173896,0.8595476532165008
-145.08863353729248,8120.0,10368.0,9224.0,1084.0,392.0,2692.0,0.15621104087848853,-0.05819906754626528,-0.2722276452057396,0.9476830105209982
-145.09641814231873,7760.0,10464.0,9556.0,1183.0,235.0,3090.0,-0.08427800009985352,-0.1294407390912138,-0.149139831234308,0.976677850932482
-145.10421180725098,8988.0,9948.0,9116.0,1306.0,383.0,2579.0,-0.27559652772020776,-0.19874478148053842,-0.010912732960929122,0.9404403107067143
-145.11198806762695,8188.0,10604.0,9948.0,1237.0,261.0,2774.0,-0.46542223134957766,-0.24389702621235265,0.12824775932759053,0.8410998153595112
-145.1197817325592,8700.0,11224.0,10224.0,657.0,457.0,2482.0,-0.622873995314047,-0.2692775167619335,0.2057331546745651,0.7051180567789304
-145.12756848335266,9420.0,10712.0,10164.0,708.0,861.0,2162.0,-0.7383450875067668,-0.3147234373568032,0.24802092350382943,0.5424770144782642
-145.13535690307617,9416.0,10108.0,9876.0,796.0,1051.0,1883.0,-0.8122584079282532,-0.36749426610355307,0.26465679722600527,0.3676153190672871
-145.14313316345215,8868.0,9996.0,9992.0,1019.0,1304.0,1881.0,-0.8500329889944952,-0.42779936125190443,0.2593069624810548,0.16489852437907396
-145.15096879005432,8756.0,10268.0,9840.0,1163.0,1425.0,1910.0,-0.8441168051078477,-0.47849338427705906,0.2355550727096752,-0.054997347739197004
-145.15875959396362,8576.0,10396.0,9836.0,1282.0,1559.0,2106.0,-0.7874933899151122,-0.505808481465921,0.19626548543974046,-0.2923898085471638
-145.16655254364014,8512.0,10488.0,9820.0,1272.0,1689.0,2143.0,-0.6825319497945814,-0.4964004141412887,0.13754539352751838,-0.5184766446710249
-145.17441940307617,8608.0,10172.0,9628.0,1403.0,1841.0,2368.0,-0.5157230237373428,-0.44973891066384164,0.06413618373690948,-0.7263960524106519
-145.1822874546051,8472.0,10036.0,9936.0,1529.0,1894.0,2541.0,-0.29190944444037153,-0.3673290304649823,-0.017774385940839195,-0.8829169444679358
-145.19007468223572,8464.0,9996.0,10108.0,1619.0,1969.0,2597.0,-0.03523886605490968,-0.24871242922818187,-0.10457898523309811,-0.96227001705041
-145.1978678703308,8848.0,9908.0,10212.0,1732.0,2027.0,3144.0,0.26796908166277683,-0.10599334904100291,-0.17717801419824233,-0.9410451277790282
-145.2056565284729,8828.0,9604.0,10116.0,1825.0,1740.0,3268.0,0.5457455155848858,0.02719803008407559,-0.24122941540844983,-0.8020165014014551
-145.21344327926636,9032.0,9772.0,10232.0,1984.0,1548.0,3357.0,0.7592477376377365,0.14952919218074454,-0.2954222143424195,-0.5602763682779903
-145.2212393283844,9376.0,9876.0,10252.0,2071.0,1406.0,3360.0,0.8759866615244013,0.2524115637366239,-0.32648970034630365,-0.24968028935249822
-145.22905826568604,9712.0,10220.0,10096.0,2267.0,1351.0,3180.0,0.878385042602053,0.3428659232035777,-0.3225799040289401,0.08261283892608864
-145.23861837387085,9764.0,10716.0,9860.0,2394.0,1254.0,3044.0,0.7728462700044946,0.40692188787947037,-0.2827427777353105,0.39645900386202393
-145.24653816223145,9756.0,10680.0,9752.0,2387.0,1411.0,2352.0,0.6115729426372678,0.439554642318029,-0.17943222645484933,0.6329094156039382
-145.25439357757568,9784.0,10820.0,9316.0,2396.0,1361.0,1927.0,0.41707096145131406,0.44347023221346266,-0.04615010652328334,0.791995034026416
-145.26221227645874,9968.0,10984.0,9172.0,2333.0,1469.0,1501.0,0.2209392409479663,0.4059121664809315,0.10682310141300054,0.8803465169560226
-145.27001428604126,9464.0,10648.0,9348.0,2266.0,1503.0,1303.0,0.025806095782816528,0.3348985541865078,0.25532117685308536,0.9066355940920201
-145.2778604030609,9192.0,10556.0,9364.0,2282.0,1332.0,1227.0,-0.16235004335348793,0.25391036588827365,0.3908302329628516,0.8697262319372726
-145.2856957912445,8984.0,10428.0,9428.0,2404.0,1154.0,1232.0,-0.3374183522771011,0.16858606580167665,0.5132010349710951,0.7709424697529095
-145.29349565505981,8972.0,10188.0,9568.0,2583.0,992.0,1272.0,-0.488555762071965,0.07989528743285829,0.6174698987155784,0.6112781155680904
-145.30128979682922,9024.0,10292.0,9356.0,2841.0,810.0,1364.0,-0.6011104186985322,-0.010596717911627442,0.6972779801247418,0.3903298509398644
-145.30907082557678,9256.0,9996.0,9252.0,3049.0,903.0,1317.0,-0.6686989232459432,-0.11610933670861825,0.7229530071206847,0.12922585451046628
-145.31686091423035,9572.0,10464.0,9064.0,3205.0,1084.0,1120.0,-0.6849919549982209,-0.23374514061988233,0.6751510626546107,-0.14254919649249762
-145.3246579170227,9744.0,10536.0,8820.0,3252.0,1046.0,787.0,-0.6412704027092949,-0.35271686057896906,0.5623321852047004,-0.38489686976550125
-145.33248829841614,9816.0,10728.0,8620.0,3227.0,1626.0,348.0,-0.5816678265616396,-0.4401303166471288,0.35600235768196237,-0.5841319758719261
-145.34034132957458,9928.0,10432.0,8224.0,3153.0,1852.0,-93.0,-0.49818813882600643,-0.48462196213161407,0.09281063356419822,-0.7129770812937792
-145.3481421470642,10044.0,10320.0,8412.0,3008.0,1988.0,-687.0,-0.4094371513102327,-0.4735694813813454,-0.20009438946940447,-0.7536945009312668
-145.3559365272522,9912.0,9736.0,8060.0,2827.0,2198.0,-1133.0,-0.3123024452320362,-0.3898520050051829,-0.48575718670906565,-0.717302274118815
-145.36371779441833,9752.0,9956.0,8184.0,2686.0,2099.0,-1447.0,-0.21165656146518624,-0.25725794644040606,-0.7233797620995233,-0.6047657139478364
-145.37148809432983,9428.0,9416.0,8448.0,2640.0,2295.0,-1638.0,-0.08895200661948881,-0.07723150431447734,-0.8924912535561895,-0.4354103783620585
-145.3793170452118,8924.0,9560.0,9712.0,2902.0,2247.0,-1977.0,0.028741524358806673,0.1312152256953005,-0.9712342695257291,-0.19662269203244803
-145.3871204853058,8028.0,10800.0,11616.0,3104.0,2865.0,-2396.0,0.17955839933172965,0.3602747536359911,-0.9113652394988428,0.08587364761770505
-145.3949601650238,7296.0,13272.0,12808.0,3308.0,4675.0,-2621.0,0.40937990521367573,0.5131569661622768,-0.6404240205440576,0.3986666467069382
-145.40274858474731,7860.0,17036.0,15256.0,3100.0,6023.0,-3826.0,0.6125539671352173,0.5196896520701755,-0.12064027905115804,0.58322056372229
-145.4105372428894,6520.0,20708.0,14188.0,2113.0,6181.0,-3437.0,0.6362087286266016,0.2977040835646097,0.3980178486168303,0.5900784053248425
-145.41831994056702,7392.0,22476.0,12368.0,623.0,5818.0,-4823.0,0.5556399270348592,-0.11227354989186332,0.7325147479742291,0.37693642100442754
-145.4261064529419,6716.0,23440.0,11140.0,-1506.0,5147.0,-4868.0,0.31438917030511515,-0.5628122810659275,0.7479723200248477,0.15792148160676425
-145.43389558792114,4836.0,24352.0,10100.0,-2732.0,4397.0,-3801.0,-0.04760384620291608,-0.8256634024492666,0.5619767475676389,0.013998388331801007
-145.44167947769165,5468.0,22932.0,8812.0,-3074.0,3675.0,-2872.0,-0.4009070306113627,-0.8612952073483586,0.3019498740151564,-0.07918580799208225
-145.44946384429932,6428.0,18212.0,8396.0,-2775.0,2579.0,-2765.0,-0.6447979470012977,-0.7580681432082513,0.02124778146301189,-0.09548209035523846
-145.45725631713867,5868.0,15036.0,9192.0,-2512.0,1379.0,-2012.0,-0.7941890453161665,-0.5821915325785331,-0.16117309060369703,-0.06587878686578448
-145.46504926681519,6460.0,11900.0,10084.0,-1721.0,583.0,-1608.0,-0.8636246950041389,-0.4273619456370962,-0.2672958402280456,-0.008190689657578952
-145.47285413742065,7236.0,9792.0,10552.0,-852.0,65.0,-1027.0,-0.8886837947934035,-0.3368552947962036,-0.30758424675982965,0.04649251966227318
-145.48064589500427,7404.0,8600.0,11456.0,92.0,-214.0,-421.0,-0.8893129556625361,-0.33154698436854985,-0.30249012675679,0.087742733383146
-145.4884922504425,7372.0,8264.0,11736.0,1677.0,42.0,306.0,-0.8329263761434396,-0.46500755003219113,-0.28072584191822814,0.10580468806682686
-145.4962968826294,7104.0,8336.0,11884.0,2767.0,118.0,1274.0,-0.7050568614786378,-0.6749612139691903,-0.20472490998364778,0.07355197448958874
-145.50410175323486,7076.0,9056.0,12528.0,3571.0,483.0,1702.0,-0.46948294307864163,-0.8766709903374909,-0.10497052775038504,0.0038638274683805295
-145.51188778877258,7372.0,9800.0,12476.0,3927.0,1020.0,1688.0,-0.14965852630802542,-0.9835183813613704,-0.015156949439329048,-0.10032041622378722
-145.51971817016602,7240.0,10680.0,12172.0,3911.0,1878.0,1573.0,0.18765169796240397,-0.9463417988422369,0.05668337666515245,-0.25692612717608665
-145.52750396728516,7604.0,11808.0,11224.0,3484.0,2789.0,816.0,0.4462013886598566,-0.7648703654704153,0.08517613166919706,-0.45675230856235477
-145.53530836105347,7700.0,12820.0,9652.0,2983.0,3406.0,82.0,0.579631846171518,-0.476356635132209,0.09699698896412996,-0.6539899564987292
-145.5430920124054,7536.0,13476.0,8076.0,2388.0,4175.0,-1153.0,0.5303905091429599,-0.11648955967641182,0.11363876226095308,-0.8319869722593415
-145.55091857910156,6828.0,13504.0,6692.0,1875.0,4748.0,-2093.0,0.31568950769980403,0.26520848448275386,0.15829312827207734,-0.8971888764515842
-145.55871295928955,5940.0,13296.0,6108.0,1566.0,5029.0,-3084.0,-0.027766067748992533,0.5820967109251662,0.21655273068621853,-0.7832607352881951
-145.566508769989,4376.0,13084.0,5456.0,1392.0,5174.0,-3813.0,-0.3962979573555256,0.746204013706893,0.2623330349707743,-0.466164002993135
-145.5743067264557,3704.0,13036.0,5328.0,1130.0,4991.0,-4042.0,-0.650648169088188,0.7105882877984657,0.26676907133630673,-0.02356921475565079
-145.58212304115295,2716.0,12824.0,4924.0,866.0,4612.0,-3941.0,-0.7229428047802152,0.5106001675864503,0.21825730333329688,0.41110207907389845
-145.5899178981781,1684.0,12620.0,4864.0,512.0,4105.0,-3710.0,-0.6215445976620333,0.23406917650478543,0.12868554565858764,0.7364332719711028
-145.59776329994202,1108.0,12588.0,5568.0,179.0,3456.0,-3346.0,-0.41385595239104767,-0.03278699414876431,0.019621791891753854,0.909540130488009
-145.60556364059448,804.0,12360.0,5748.0,-142.0,2954.0,-2875.0,-0.17984069383040083,-0.25136931489197845,-0.09997105745390421,0.9457677199211683
-145.61336636543274,1252.0,12216.0,6264.0,-400.0,2362.0,-2376.0,0.026894178520158837,-0.4022380887701725,-0.21286501029159113,0.8900391623393914
-145.62115669250488,1044.0,12056.0,6776.0,-584.0,1851.0,-1847.0,0.17936773409821746,-0.4995789290120752,-0.3101847690560276,0.7886910159861579
-145.62898921966553,1248.0,11916.0,7256.0,-584.0,1625.0,-1310.0,0.2830355521328516,-0.5748996583477147,-0.3753101905104842,0.6697189858138388
-145.63677883148193,1424.0,12028.0,8160.0,-471.0,1383.0,-837.0,0.3498753599771022,-0.6331426965518515,-0.4062540382199743,0.5582787965827707
-145.64457607269287,1916.0,11724.0,8472.0,-338.0,1244.0,-429.0,0.39346878027283233,-0.6840647837982756,-0.405565752615097,0.46125276240189406
-145.65236449241638,2100.0,11556.0,9100.0,-183.0,1194.0,-172.0,0.4293262367468913,-0.7282013663101007,-0.3800244199446216,0.37547728665074875
-145.66015577316284,2796.0,11744.0,9612.0,116.0,1154.0,-116.0,0.4763475097558504,-0.753920826576764,-0.33858903104033167,0.3000898286553185
-145.6679470539093,3028.0,11956.0,9892.0,414.0,1119.0,-108.0,0.5365983907727453,-0.7586694677575411,-0.2867533963008955,0.23292766135109674
-145.6757514476776,3284.0,12396.0,9812.0,730.0,1008.0,-24.0,0.6071240545066515,-0.739986882524432,-0.22496000531634902,0.1822437711946421
-145.68357229232788,3520.0,12812.0,9732.0,961.0,824.0,-463.0,0.6880429762667357,-0.6882829798925247,-0.19457191543389324,0.12249560042982982
-145.69137144088745,3724.0,13180.0,9308.0,1182.0,743.0,-547.0,0.7710026027743889,-0.6106712672087612,-0.16874423639192954,0.06450560134800976
-145.6991536617279,3988.0,13492.0,9064.0,1417.0,581.0,-575.0,0.8497708231877706,-0.5048829844756678,-0.15080426803716948,0.015517499395672478
-145.70698142051697,4324.0,13632.0,8704.0,1481.0,489.0,-513.0,0.9129029927042058,-0.3848518936525794,-0.13380003802012247,-0.024386383281300144
-145.71477127075195,4468.0,14132.0,8696.0,1463.0,656.0,-356.0,0.9591960014775396,-0.25984980819603937,-0.09566890885596678,-0.05717138977049819
-145.72255516052246,4748.0,14820.0,8256.0,1407.0,827.0,-286.0,0.986353479548216,-0.13388014661640307,-0.039600660932055505,-0.08726229070361244
-145.7303512096405,4796.0,14980.0,8000.0,1104.0,1262.0,-376.0,0.9896941173243092,-0.027329028785639798,0.05550882984799481,-0.12914119454378675
-145.73814463615417,5008.0,14740.0,8132.0,663.0,1375.0,-662.0,0.9670280141232139,0.04207133814310407,0.16334879233080246,-0.19079830830442415
-145.74591088294983,5248.0,14992.0,8516.0,495.0,1705.0,-884.0,0.9126630245675927,0.0984221209339945,0.297622479860362,-0.2622596979708394
-145.75369477272034,5284.0,13956.0,8336.0,-238.0,1881.0,-774.0,0.8350001265365226,0.10099960543940088,0.4521866658553885,-0.296818273709123
-145.76147723197937,4836.0,14908.0,9404.0,-688.0,2209.0,-1164.0,0.7060317172678815,0.06074580105036047,0.6253568480541148,-0.32673838840628866
-145.7692687511444,4936.0,14352.0,9180.0,-771.0,2472.0,-1595.0,0.512057080610579,-0.0031456444643338005,0.781041225832211,-0.3574384627708552
-145.77706122398376,4248.0,13728.0,9552.0,-1097.0,2532.0,-2002.0,0.26522618033591644,-0.10508173398091757,0.8893415705956483,-0.3573296422890904
-145.78489899635315,3604.0,13176.0,9592.0,-980.0,2422.0,-2132.0,0.0016446039009215608,-0.2088695177959615,0.9175070965134425,-0.33845464638731715
-145.7927074432373,2852.0,12936.0,9656.0,-687.0,2093.0,-1939.0,-0.2284590863467247,-0.2929803096389626,0.8745061641089226,-0.311781899675038
-145.8005073070526,2412.0,12864.0,9696.0,-296.0,1722.0,-1645.0,-0.40356124764811224,-0.35803713273880516,0.7889920863065599,-0.2940054739668901
-145.80835270881653,2156.0,13020.0,9364.0,-254.0,1433.0,-1229.0,-0.5344854547927324,-0.39160764309845597,0.6969845695901167,-0.27419201708867846
-145.81614470481873,2188.0,12828.0,9356.0,13.0,1201.0,-884.0,-0.623112708863638,-0.4137898855070707,0.6052163500631081,-0.27243651062395063
-145.8239426612854,2556.0,12904.0,9084.0,463.0,1037.0,-826.0,-0.6758661701031631,-0.4545776793709835,0.5040617570545434,-0.2872034098036789
-145.83173871040344,2640.0,13148.0,8900.0,557.0,971.0,-735.0,-0.7101899570315694,-0.4921075554894225,0.400756643337354,-0.30472034980076296
-145.83953976631165,2716.0,13404.0,8736.0,549.0,825.0,-639.0,-0.7287273720053599,-0.5237921512948321,0.30575763093967756,-0.3179787267322285
-145.84732961654663,2908.0,13512.0,8628.0,564.0,625.0,-724.0,-0.7363805007519818,-0.5590075262599988,0.2160262745985826,-0.3139856563284302
-145.85512733459473,3236.0,13516.0,8608.0,580.0,742.0,-851.0,-0.7409780871788604,-0.5883357626674599,0.11003600536805146,-0.30447427183572906
-145.8629446029663,3076.0,13696.0,8512.0,534.0,378.0,-1000.0,-0.7398768020891191,-0.6189553290581928,0.01976101027677618,-0.2628423878176496
-145.87074208259583,3392.0,13756.0,8540.0,479.0,342.0,-1076.0,-0.7352134988078999,-0.6400744965210081,-0.0711095917639688,-0.21144544457894024
-145.87852835655212,3340.0,13644.0,8404.0,415.0,274.0,-1256.0,-0.728595348501506,-0.6492024880663239,-0.1653373976238332,-0.14264814256569106
-145.88630485534668,3632.0,13612.0,8504.0,356.0,304.0,-1283.0,-0.7150699225728124,-0.6448731510119199,-0.2598537859373382,-0.07272987604624145
-145.8940944671631,3560.0,13624.0,8540.0,285.0,308.0,-1281.0,-0.6954947101189752,-0.6272664235584208,-0.3504425789150518,-0.0037337589796761846
-145.90188646316528,3476.0,13464.0,8468.0,228.0,369.0,-1257.0,-0.6677671161163177,-0.5984970803245022,-0.4386639410291015,0.05884105979296907
-145.90966892242432,3284.0,13540.0,8788.0,221.0,493.0,-1159.0,-0.6276102610445204,-0.566019836457333,-0.523441914419319,0.10833036138350874
-145.9174520969391,2984.0,13460.0,8660.0,180.0,684.0,-1142.0,-0.5728542619407302,-0.5265825954906033,-0.6113449630124587,0.1442432005399792
-145.9252371788025,2968.0,13364.0,8876.0,146.0,852.0,-1236.0,-0.5008977454247843,-0.4745872507471949,-0.7027825717507866,0.17310415044110802
-145.9330129623413,2844.0,13168.0,8824.0,136.0,924.0,-1298.0,-0.41503550854811583,-0.4109191489382188,-0.7872185375704708,0.19793421580289303
-145.94079184532166,2664.0,13140.0,9208.0,216.0,975.0,-1025.0,-0.32016602663699234,-0.3623720541531015,-0.8489498625681202,0.21322368677497314
-145.9485809803009,2456.0,13092.0,9024.0,282.0,904.0,-1178.0,-0.22047636318419145,-0.29723430956381885,-0.8984326908420724,0.23634855303442254
-145.95636200904846,2052.0,13120.0,8948.0,452.0,786.0,-1010.0,-0.12543233839762774,-0.24127345691557456,-0.9239796613502858,0.26891528941866166
-145.9641478061676,2300.0,13132.0,8712.0,532.0,684.0,-1017.0,-0.03497033747086891,-0.1799209388187744,-0.934078064382204,0.30643710759589726
-145.97192931175232,2412.0,13260.0,8820.0,630.0,577.0,-571.0,0.03709308635499944,-0.15012233679274828,-0.9242560239680654,0.34905327544558046
-145.97971963882446,2556.0,13332.0,8972.0,729.0,545.0,-352.0,0.1009867312427179,-0.13547485830925723,-0.9016358035400822,0.3981219921752981
-145.98750519752502,2672.0,13664.0,8916.0,785.0,562.0,-200.0,0.1608798360333362,-0.13184783409349018,-0.8685606503584975,0.4498179894708149
-145.99526929855347,2788.0,13928.0,8780.0,838.0,556.0,-198.0,0.21960829528493006,-0.12637698600429217,-0.8268230503730185,0.5021600316854924
-146.00307059288025,2944.0,14140.0,8572.0,812.0,541.0,-168.0,0.27399720576623265,-0.12191923016227507,-0.7797947191143182,0.5495283692316137
-146.0108983516693,3088.0,14352.0,8292.0,778.0,419.0,-175.0,0.31826166912627907,-0.11111822015679856,-0.7320344983666603,0.5920200539806165
-146.0186996459961,3080.0,14564.0,8108.0,662.0,294.0,-127.0,0.349372779050554,-0.09955242996186293,-0.6894341727876049,0.6266645804095299
-146.0264892578125,3112.0,14696.0,8040.0,594.0,144.0,-151.0,0.37096652607143604,-0.0800483875017954,-0.652828510820658,0.6555844931452656
-146.03428292274475,3116.0,14348.0,8192.0,421.0,36.0,-215.0,0.38800297692214497,-0.05610910325977001,-0.6284712735175497,0.6718104768416217
-146.0420684814453,3144.0,14524.0,8272.0,493.0,-118.0,-306.0,0.40142920671328636,-0.01560978264250641,-0.6041732028413611,0.6881756081494074
-146.0498650074005,3108.0,14300.0,8352.0,119.0,-76.0,-394.0,0.42105396616269386,0.01397568699624156,-0.5997349028703683,0.6803207214474053
-146.05764412879944,3044.0,14176.0,8512.0,28.0,-114.0,-498.0,0.44427184806793285,0.047881406657222854,-0.6009593577740555,0.662704871126374
-146.0654375553131,2852.0,14004.0,8748.0,1.0,-172.0,-560.0,0.46712334415606604,0.08721660058320616,-0.604340273191319,0.6395012745305553
-146.07322788238525,2716.0,13808.0,8956.0,251.0,-305.0,-571.0,0.48021454511372813,0.14441726239180658,-0.5972155582539849,0.6259961836655656
-146.08102750778198,2552.0,13820.0,9108.0,103.0,-427.0,-583.0,0.48762905799780837,0.20213066276161593,-0.6008043758551036,0.6003292421005987
-146.08881855010986,2492.0,13660.0,9172.0,177.0,-607.0,-563.0,0.48097332025799916,0.2703369233731079,-0.6056650453170456,0.5733693974587933
-146.096617937088,2592.0,13616.0,9012.0,326.0,-763.0,-569.0,0.4597644353249683,0.3510096649250293,-0.6055106827992326,0.546594632388152
-146.1044101715088,2684.0,13592.0,8968.0,418.0,-942.0,-442.0,0.41638500454698224,0.4340733829780977,-0.6068201721734761,0.5195893617287716
-146.1122007369995,2592.0,13720.0,8724.0,486.0,-963.0,-327.0,0.36017178734014693,0.5103158458095928,-0.6043737270496836,0.494556790643823
-146.11998081207275,2912.0,13844.0,8768.0,509.0,-954.0,-334.0,0.3002440385372899,0.5823225216603709,-0.5945366701374448,0.466133184778561
-146.12776851654053,3052.0,14048.0,8740.0,453.0,-906.0,-442.0,0.2471501855975249,0.6510007802466572,-0.5746415617757533,0.4300021457589203
-146.1355538368225,3116.0,13972.0,8536.0,361.0,-514.0,-507.0,0.21945134116273562,0.7017904611591249,-0.5419624821533556,0.40694953670708744
-146.1433470249176,3056.0,14004.0,8592.0,169.0,-840.0,-543.0,0.18802363146556725,0.7576039386885429,-0.516707156190692,0.35170598635143374
-146.15112400054932,2972.0,14012.0,8688.0,-250.0,-814.0,-628.0,0.186436919996001,0.8034030234269176,-0.4940605688743296,0.2751163591909178
-146.15897870063782,2928.0,13948.0,8576.0,-130.0,-895.0,-705.0,0.1731294778919876,0.848944597245494,-0.4599680622049577,0.19429008323625357
-146.16679573059082,2760.0,13872.0,8736.0,-214.0,-815.0,-748.0,0.16824614765646903,0.8852898900342664,-0.418433898107331,0.11343772439791748
-146.1746382713318,2736.0,13592.0,8504.0,-281.0,-814.0,-865.0,0.1679523236467409,0.9156254080858611,-0.36424114860796386,0.027395523539652564
-146.1824848651886,2732.0,13664.0,8644.0,-352.0,-829.0,-874.0,0.1709048958341284,0.9346280618402988,-0.3055391552274702,-0.06251181667057851
-146.19028067588806,2584.0,13536.0,8788.0,-280.0,-840.0,-830.0,0.16599671267175767,0.9427074651491096,-0.24743840417224594,-0.15007319106023775
-146.1980710029602,2780.0,13380.0,8884.0,-216.0,-928.0,-714.0,0.15365573111889883,0.9377667104633255,-0.19823923499950255,-0.24017643254058493
-146.20585775375366,2308.0,13196.0,8516.0,-224.0,-1066.0,-518.0,0.14201067647945617,0.9162823508125361,-0.16454601974267238,-0.33642863840960985
-146.21364951133728,2468.0,13260.0,8436.0,-169.0,-1226.0,-262.0,0.12954779923662016,0.8765814936165258,-0.15292549342287645,-0.43753405150152463
-146.2214436531067,2684.0,12920.0,8504.0,-47.0,-1396.0,-69.0,0.11115899744273723,0.8175373275255139,-0.1604880146587669,-0.5417748541053319
-146.2292549610138,2900.0,13012.0,8672.0,-76.0,-1473.0,133.0,0.10150417472146846,0.7390599842670558,-0.17924220038549973,-0.6413731174365332
-146.2370388507843,3012.0,12972.0,8852.0,-45.0,-1497.0,210.0,0.0920586044242141,0.6458695552305223,-0.20185417614847848,-0.7305016239196271
-146.2448446750641,3208.0,13008.0,8876.0,-101.0,-1383.0,158.0,0.08296754011715102,0.549898154697507,-0.21394419869665623,-0.803091704969757
-146.25262713432312,3304.0,13056.0,8952.0,-173.0,-1301.0,90.0,0.07293223602820775,0.4526339319793109,-0.2142669484111108,-0.8624923694662259
-146.26042795181274,3080.0,13620.0,9032.0,-296.0,-1152.0,-65.0,0.058007491772484536,0.3630997765777565,-0.19585019934839773,-0.9090854649386059
-146.26822090148926,3340.0,13984.0,9188.0,-434.0,-1055.0,-243.0,0.03439365256212658,0.2797071741027179,-0.1584370113158716,-0.946297356471105
-146.27602314949036,3296.0,14196.0,8988.0,-591.0,-915.0,-370.0,0.005687359367767012,0.20626301016137655,-0.1030716224313576,-0.9730362096201547
-146.28387260437012,3088.0,14192.0,8836.0,-658.0,-938.0,-467.0,-0.03030956275443076,0.1295771333282924,-0.03930740988981704,-0.990326221228041
-146.2917137145996,2928.0,14080.0,8848.0,-733.0,-992.0,-766.0,-0.09085492241958636,0.04790099177988425,0.03474913364466226,-0.9941043082944465
-146.29948735237122,2688.0,13928.0,8728.0,-793.0,-1163.0,-422.0,-0.1196358188516042,-0.04770048872725701,0.11329384668239714,-0.9851783790394472
-146.3072955608368,2600.0,13680.0,8752.0,-715.0,-1397.0,-248.0,-0.12891791098056,-0.16133242144702764,0.18623197873659347,-0.9605569593284409
-146.31508374214172,2564.0,13416.0,8764.0,-664.0,-1288.0,-40.0,-0.11979582117051808,-0.2604596121408572,0.253517180146284,-0.923871631258473
-146.3229124546051,2800.0,13132.0,8840.0,-516.0,-1609.0,178.0,-0.08077250856384975,-0.3767782294976677,0.3123304143616299,-0.8683108198690134
-146.3306860923767,2952.0,12868.0,8944.0,-359.0,-1663.0,232.0,-0.029424188497017528,-0.4885175448875325,0.3547359772740581,-0.7966474828277363
-146.3384792804718,3064.0,12712.0,8948.0,-274.0,-1660.0,405.0,0.0379355008413456,-0.5840854172108082,0.3907470396302522,-0.7104378045950164
-146.34626507759094,3076.0,12632.0,9164.0,-208.0,-1722.0,571.0,0.11988652078779607,-0.6637139035751497,0.42163552581187697,-0.6060813144354279
-146.35405158996582,3120.0,12776.0,9284.0,-87.0,-1705.0,828.0,0.21837253042831375,-0.7146292416458655,0.45017217566488715,-0.48883892766036185
-146.36183381080627,3228.0,12544.0,9284.0,7.0,-1620.0,875.0,0.3157188382351115,-0.7397589246339316,0.4675398664831025,-0.3667217226411374
-146.36965656280518,3256.0,12828.0,9428.0,57.0,-1525.0,997.0,0.40839938674165976,-0.7370544212827468,0.4819855818491488,-0.2401054348950244
-146.37744784355164,3328.0,12856.0,9244.0,248.0,-1420.0,1115.0,0.501166848927857,-0.7022366952386008,0.4917130726484955,-0.11795621044551438
-146.3852469921112,3092.0,12980.0,9192.0,-49.0,-1517.0,1255.0,0.5678821695927538,-0.656488692637508,0.49551423308874526,0.03159244694851946
-146.39303302764893,3416.0,13044.0,9460.0,-127.0,-1109.0,1376.0,0.5976927915063467,-0.5931202754633226,0.5129475781397566,0.16690251015554455
-146.40080523490906,3576.0,12936.0,9112.0,-172.0,-934.0,1489.0,0.6018215916783417,-0.5156625479975877,0.5325180153834472,0.2971993803399623
-146.40859198570251,3568.0,12784.0,9076.0,-218.0,-813.0,1532.0,0.5833102459254982,-0.4297449324763124,0.5467843838696571,0.41963709031202623
-146.41637539863586,3664.0,12616.0,9292.0,-211.0,-708.0,1717.0,0.539152323087356,-0.328141512107215,0.5599984437812608,0.5366932676157433
-146.42416977882385,3636.0,12672.0,9380.0,-135.0,-608.0,1812.0,0.47350484296213896,-0.21430537432071753,0.5690277966969797,0.6372391519789397
-146.43195152282715,3416.0,12820.0,9280.0,-177.0,-595.0,2006.0,0.38174150859047046,-0.08725162827679854,0.5626824149214626,0.72804469225472
-146.43974494934082,3484.0,12900.0,9372.0,-173.0,-569.0,2137.0,0.26750769014470754,0.047417815064864255,0.5388953422528642,0.7973600169472292
-146.44753432273865,3484.0,12980.0,9264.0,-112.0,-465.0,2286.0,0.12800643968235095,0.18115176842360564,0.5003341386697576,0.8369373560060757
-146.45533418655396,3328.0,13188.0,8964.0,-52.0,-431.0,2334.0,-0.022398131055748498,0.3074435677796486,0.44514390596530407,0.8407280650353494
-146.46311902999878,3584.0,13072.0,8968.0,-11.0,-348.0,2460.0,-0.18468246023317733,0.41862995048051527,0.3704300106928419,0.808345817469852
-146.4709541797638,3616.0,13416.0,8544.0,-89.0,-294.0,2501.0,-0.34014166508958127,0.5093129436270325,0.27114134726964706,0.7425539326707893
-146.4787459373474,3716.0,13432.0,8540.0,-108.0,-207.0,2477.0,-0.4797344821603037,0.5711055858290544,0.15664782633776692,0.647421574373986
-146.48653435707092,3784.0,13408.0,8500.0,-118.0,-145.0,2518.0,-0.5997495944737051,0.6040702743822082,0.02992944008120029,0.5239310604963745
-146.49432277679443,3732.0,13360.0,8312.0,-172.0,-103.0,2445.0,-0.6866806639517065,0.6102611770118076,-0.09912127574848534,0.38239499771963503
-146.5021209716797,3612.0,13344.0,8480.0,-248.0,-122.0,2385.0,-0.7381479351339623,0.595558846427648,-0.2222384583572779,0.22595874385873552
-146.50990533828735,3812.0,13252.0,8460.0,-317.0,-201.0,2372.0,-0.7559841951064794,0.5616616068840785,-0.3316027118534706,0.05535140100329274
-146.51770901679993,3484.0,13024.0,8612.0,-344.0,-299.0,2347.0,-0.7431623291565583,0.5068733849217406,-0.4195429838634696,-0.12154344437900665
-146.52549839019775,3516.0,12820.0,8672.0,-326.0,-402.0,2473.0,-0.7004330694322033,0.4229272234684058,-0.48769353019843986,-0.3044357066732989
-146.53329396247864,3500.0,12768.0,8720.0,-167.0,-497.0,2549.0,-0.6316080983384722,0.3035532879016801,-0.53336733944029,-0.47375720863721454
-146.54111242294312,3524.0,12692.0,8848.0,-68.0,-608.0,2700.0,-0.5311415794103623,0.15191622139599353,-0.5526312783745813,-0.6240262450092187
-146.54892778396606,3640.0,12836.0,8924.0,53.0,-708.0,2905.0,-0.39447383125865837,-0.028475210284117206,-0.5429437872531144,-0.7408046994550154
-146.55671429634094,3672.0,13036.0,8864.0,135.0,-747.0,3011.0,-0.2265664916040934,-0.2164991944432738,-0.5002783348446385,-0.8071662228888804
-146.56450414657593,3780.0,13224.0,9152.0,166.0,-766.0,3006.0,-0.0434789275658603,-0.3909243315670583,-0.4244692450830957,-0.815544977193262
-146.57232880592346,3932.0,13464.0,8896.0,116.0,-669.0,3039.0,0.14658047054229006,-0.5320888530343991,-0.31510624605006954,-0.7720775037730161
-146.58011078834534,3852.0,13752.0,8776.0,60.0,-647.0,3001.0,0.32233746950084097,-0.6349228443628017,-0.18174544856648595,-0.6781888596750988
-146.58793687820435,4164.0,13884.0,8736.0,-70.0,-516.0,2852.0,0.4644105682636772,-0.6908263736347215,-0.03312247657143266,-0.5531587901511495
-146.59572410583496,4208.0,13880.0,8548.0,-200.0,-404.0,2705.0,0.5657973543226906,-0.7062661640164389,0.11980330371591112,-0.4082996789439114
-146.60350060462952,4252.0,13764.0,8304.0,-379.0,-341.0,2602.0,0.6223039676512822,-0.6916203991307719,0.2696984657037198,-0.24831780634646994
-146.61128425598145,4272.0,13540.0,8000.0,-268.0,-303.0,2524.0,0.6519675013794878,-0.6376234716625959,0.4015272028335937,-0.08456116670526732
-146.61906123161316,4328.0,13428.0,7860.0,-634.0,-228.0,2548.0,0.6271302260844136,-0.5711267082585839,0.5214242048886951,0.09294493639364522
-146.62684655189514,3932.0,13108.0,7856.0,-716.0,-185.0,2564.0,0.5639709291165379,-0.4792317161008483,0.6168064421832697,0.26799919081161755
-146.63463354110718,3744.0,12876.0,7656.0,-817.0,-286.0,2665.0,0.4690099053450943,-0.3586168217491838,0.6751916831661781,0.4421989086711129
-146.6424195766449,3736.0,12628.0,7748.0,-899.0,-267.0,2778.0,0.3384229006486672,-0.21436338193207297,0.6941187363507197,0.5980948592406279
-146.65019869804382,3792.0,12436.0,7712.0,-915.0,-307.0,2569.0,0.20004939549421694,-0.06766249059731215,0.6664247648511226,0.71503850212537
-146.65799522399902,3592.0,12196.0,8084.0,-870.0,-295.0,2934.0,0.027879149919675418,0.10272710501302346,0.6028386927332412,0.7907309311258011
-146.66581964492798,4060.0,11864.0,8152.0,-809.0,-330.0,3061.0,-0.15303032079496534,0.2742584530960875,0.4996264638665252,0.8073025569307722
-146.67365074157715,3972.0,11708.0,8332.0,-696.0,-341.0,3208.0,-0.3338931196405827,0.4298123367216789,0.36353527623774556,0.7560547882192635
-146.68146085739136,4048.0,11780.0,8304.0,-257.0,-222.0,3495.0,-0.5237378435994812,0.5379815323675873,0.21228462207714938,0.6254676500369544
-146.6892912387848,4116.0,12048.0,8660.0,-315.0,-79.0,3716.0,-0.6754570388016373,0.5947073671590652,0.023114277510420018,0.43536957444822405
-146.69712090492249,4508.0,12080.0,8700.0,-164.0,316.0,3804.0,-0.7704783906182483,0.5691454813295845,-0.18890849802956827,0.21621759883192232
-146.70491528511047,4692.0,12476.0,9064.0,-151.0,693.0,3902.0,-0.7798599046806229,0.474187707700179,-0.40839140827981424,-0.013453794290433972
-146.71272134780884,4892.0,12716.0,9348.0,-217.0,1185.0,3904.0,-0.6820338555158283,0.3306821938183295,-0.6125793687899893,-0.22411073948958618
-146.72050786018372,4968.0,12752.0,9576.0,-340.0,1868.0,3942.0,-0.4626423581882916,0.16495183659916718,-0.7762062019514346,-0.39529339997610236
-146.7283456325531,5036.0,12676.0,9504.0,-551.0,2453.0,3892.0,-0.14294052414806813,0.007464556018035445,-0.8456838752701681,-0.5141313743273794
-146.73612022399902,4968.0,12432.0,9528.0,-949.0,2975.0,3911.0,0.2317034360985603,-0.12456627613142411,-0.7721906295638493,-0.5783756496989274
-146.74392652511597,4528.0,12328.0,9768.0,-1356.0,3290.0,3842.0,0.5754302394796627,-0.22265494558866877,-0.5414074785162182,-0.5711241168992917
-146.75171732902527,3868.0,12176.0,10252.0,-1608.0,3350.0,4696.0,0.8300409773224676,-0.317405631827764,-0.17873686590619992,-0.4223017565859868
-146.75951266288757,3340.0,12388.0,10668.0,-1823.0,3170.0,5619.0,0.8943363680009991,-0.36256718238723795,0.2362386747773371,-0.1135728297877994
-146.76729369163513,3016.0,12296.0,11096.0,-1933.0,2710.0,6613.0,0.7079770033855439,-0.2940180600567082,0.5679172716640434,0.29965299194799366
-146.77508568763733,3236.0,12948.0,11044.0,-1858.0,2063.0,7434.0,0.2988888080792479,-0.07738477673331702,0.6884912080704526,0.6562445680876832
-146.78288102149963,4004.0,12808.0,11560.0,-1572.0,1211.0,8382.0,-0.21155144012811825,0.252619566889452,0.5487128628356852,0.7683381656295433
-146.79068851470947,4692.0,13412.0,12468.0,-1110.0,263.0,8202.0,-0.6076282129567824,0.5253283902775748,0.23378586823078715,0.5478706097272386
-146.79847979545593,5952.0,14404.0,12552.0,-566.0,-1159.0,8294.0,-0.7701482944490651,0.629144973888185,-0.09038923416865403,0.053646926611274105
-146.80626940727234,7056.0,15964.0,13260.0,316.0,-2385.0,8131.0,-0.6787635772062803,0.4459608360196659,-0.3014814056921954,-0.4995076586165947
-146.81405210494995,8436.0,17268.0,12948.0,941.0,-3813.0,6759.0,-0.4303719858857448,0.03793235758555323,-0.3136294497281039,-0.8455635152228417
-146.82184481620789,9608.0,18156.0,11632.0,907.0,-4517.0,5098.0,-0.1549719273864369,-0.40241732305909356,-0.19537152255512094,-0.8808370836872049
-146.82962727546692,10168.0,17744.0,10488.0,486.0,-4248.0,2940.0,0.014141089055049986,-0.7156822164099993,-0.06589316458237623,-0.6951669479888465
-146.83741426467896,9864.0,16924.0,9704.0,-756.0,-3761.0,1379.0,0.027160306458826288,-0.8975893284189901,0.0578160677228587,-0.4361800288578956
-146.84518814086914,9400.0,15360.0,9260.0,-1501.0,-3621.0,1045.0,-0.03062113131724654,-0.9744447940346126,0.17741686092784767,-0.13432403788675454
-146.85297918319702,8740.0,14068.0,9220.0,-1980.0,-3745.0,1406.0,-0.11614863395890838,-0.9236561661205178,0.3077014195487064,0.19669422468577175
-146.860764503479,8460.0,12528.0,9432.0,-2192.0,-4252.0,1986.0,-0.1939701501037961,-0.7062186033759248,0.4312803196877928,0.5269043091154829
-146.86855363845825,7920.0,10612.0,9784.0,-2071.0,-4730.0,2751.0,-0.24063887626544211,-0.3116454723584707,0.5216193829313874,0.7568905139704483
-146.87635254859924,9256.0,10256.0,10008.0,-2383.0,-4997.0,2741.0,-0.2281079501293986,0.17033034100302966,0.4785177979937826,0.8306473710454617
-146.88414430618286,9516.0,9420.0,10672.0,-2352.0,-5136.0,2849.0,-0.16219848138439555,0.6202758621307597,0.32185074373230044,0.6966789836456271
-146.89196705818176,10316.0,8916.0,10868.0,-2404.0,-4966.0,2757.0,-0.05295841084177431,0.910164032155969,0.08515071202795275,0.40192809995300754
-146.8997621536255,10820.0,8368.0,11072.0,-2382.0,-4390.0,2050.0,0.08778810152730962,0.9863751172311411,-0.12753176348633885,0.05561498574618121
-146.9075403213501,11316.0,7916.0,10892.0,-2556.0,-3697.0,1324.0,0.2409751666177252,0.8977997995519787,-0.26126892177901595,-0.2600481484464302
-146.91533422470093,11444.0,8056.0,10904.0,-2144.0,-3316.0,593.0,0.32759789399239636,0.7213045681201544,-0.31052682850904056,-0.5253307802107745
-146.92313289642334,11340.0,8576.0,10916.0,-2079.0,-2507.0,-227.0,0.3656842871664739,0.5317763498628144,-0.2621897591429878,-0.7174576266558684
-146.93096160888672,11164.0,9200.0,10764.0,-1817.0,-1945.0,-940.0,0.336698189143121,0.36248186895089435,-0.16208643621789826,-0.8537969379798637
-146.93876481056213,11088.0,9956.0,10608.0,-1704.0,-1339.0,-1654.0,0.24177394678882502,0.22940866910794183,-0.02167946706886334,-0.9425746770945457
-146.94655346870422,11052.0,10340.0,10740.0,-1640.0,-965.0,-2355.0,0.0764925969267209,0.11569264888820649,0.1351706752715315,-0.9810672668860552
-146.95435070991516,10844.0,10428.0,10336.0,-1661.0,-312.0,-2944.0,-0.1487435442379816,0.04118894643651717,0.29226078758455454,-0.9438021300990104
-146.9621398448944,10416.0,10116.0,10408.0,-1734.0,-30.0,-3272.0,-0.39140468903330294,-0.021340006705592742,0.4253959096273196,-0.8157115259630049
-146.9699399471283,10152.0,9868.0,10604.0,-1740.0,9.0,-3185.0,-0.5928152472063999,-0.0759726508199222,0.5175333741106759,-0.6123376892602875
-146.97776222229004,9468.0,9716.0,10640.0,-1700.0,-85.0,-2709.0,-0.7176946475459718,-0.11084146982157728,0.5727628374786857,-0.3802253193239771
-146.985600233078,8712.0,8984.0,10628.0,-1667.0,-365.0,-1828.0,-0.7585023565436426,-0.10751533548667058,0.6185525065604407,-0.17466374661252776
-146.99340105056763,8752.0,9160.0,10712.0,-1478.0,-519.0,-946.0,-0.7493912095561935,-0.06789820452149768,0.6580858831934998,-0.026937319912963716
-147.0011909008026,9124.0,9300.0,10584.0,-1370.0,-1348.0,-334.0,-0.6713197240726523,-0.0007268647726598556,0.7367792157966425,0.08053376253910494
-147.0089988708496,9848.0,9640.0,10480.0,-1175.0,-2043.0,105.0,-0.5297429705144333,0.08733349199650367,0.8307277121579115,0.14709423720568582
-147.0167932510376,10708.0,10064.0,10364.0,-913.0,-2537.0,173.0,-0.33202999569570474,0.16996112675753536,0.90998567599066,0.18109491114175716
-147.02457571029663,11292.0,10724.0,9792.0,-668.0,-2801.0,-141.0,-0.09453105961959259,0.21565276146816278,0.9529623833726224,0.19084145544174524
-147.0323691368103,11720.0,11188.0,9268.0,-566.0,-2977.0,-733.0,0.16974764610848214,0.2016090562579704,0.9474283000730951,0.1814363284902046
-147.04015827178955,12276.0,11400.0,8840.0,-526.0,-3031.0,-1330.0,0.43257848153952594,0.12654329736802153,0.8806721680131032,0.14587386224847518
-147.04793977737427,11872.0,11564.0,8324.0,-589.0,-2921.0,-2065.0,0.6577832170351138,-0.01640645191724499,0.7490576858304787,0.0772311531748126
-147.05573225021362,11324.0,11364.0,7824.0,-764.0,-2761.0,-3012.0,0.8061397911578544,-0.22424000228455215,0.5461833438740592,-0.03922771165828928
-147.0635266304016,10812.0,11008.0,7740.0,-926.0,-2805.0,-3371.0,0.8476995124149457,-0.4280572827240757,0.26625474344325273,-0.16516934023090296
-147.0713062286377,10256.0,10376.0,7896.0,-1158.0,-2540.0,-3641.0,0.7528886564693787,-0.5893829499454692,-0.038219230596162515,-0.2903888766567128
-147.07909488677979,9756.0,9780.0,8052.0,-1383.0,-2532.0,-3669.0,0.5374090769555435,-0.6779821611062038,-0.3319439678703642,-0.37595860865530256
-147.0869586467743,9320.0,9312.0,8220.0,-1445.0,-2320.0,-3630.0,0.24682663804665667,-0.6661209591896943,-0.5653801005935548,-0.41917158817315897
-147.09476399421692,9076.0,8788.0,9076.0,-1792.0,-2602.0,-3411.0,-0.10247609722613567,-0.5851665535500843,-0.6988355949111621,-0.3983811810173493
-147.10257148742676,9060.0,8668.0,9716.0,-1788.0,-2461.0,-3159.0,-0.42379927657806615,-0.43148931846596295,-0.7246723490768665,-0.3302440426489215
-147.1104166507721,9172.0,7960.0,10044.0,-1446.0,-2276.0,-3040.0,-0.6690507273153483,-0.23686480793611298,-0.6721892450000282,-0.21077904532112257
-147.118243932724,9180.0,7764.0,10552.0,-1318.0,-1893.0,-2695.0,-0.8186631077563161,-0.03499908487140695,-0.5664767822802853,-0.08757759527589724
-147.12603163719177,9296.0,7528.0,11140.0,-1283.0,-1409.0,-2470.0,-0.8792004276574619,0.16207589084393134,-0.4471187032374341,0.02868586462628424
-147.13383221626282,9324.0,7420.0,11216.0,-1106.0,-1266.0,-2216.0,-0.8818821211403297,0.3270211573088169,-0.31216329957001887,0.1337727980083909
-147.1416277885437,8960.0,7340.0,11332.0,-1007.0,-567.0,-1986.0,-0.8289747413378795,0.4560868152060688,-0.21907163666969495,0.23831347680280715
-147.14942502975464,9348.0,7332.0,11312.0,-807.0,-475.0,-1816.0,-0.7562848721936516,0.5503059421059048,-0.12704498729954627,0.33023648098903774
-147.15721535682678,9272.0,7284.0,10980.0,-534.0,24.0,-1599.0,-0.6770229997770206,0.5960787461793878,-0.06636947142583009,0.42652676280485535
-147.16501450538635,9316.0,7468.0,10560.0,-214.0,412.0,-1323.0,-0.6097084721520604,0.5964979376709992,-0.029501136895560144,0.5211290360957777
-147.17283153533936,9484.0,8268.0,10144.0,68.0,635.0,-1061.0,-0.5600730678309959,0.5633365804206362,-0.004794493792879461,0.6074101321838736
-147.18067288398743,9484.0,8716.0,9532.0,238.0,617.0,-1028.0,-0.5140542942523805,0.5163715877389631,0.028210672856540008,0.6843337810408094
-147.1885199546814,9484.0,9412.0,9232.0,414.0,714.0,-903.0,-0.4777490648738555,0.45023786175502556,0.061444063851577746,0.7518419553814634
-147.19637155532837,9076.0,9548.0,8772.0,452.0,708.0,-819.0,-0.44315560321627967,0.37842779228028234,0.0935068006895177,0.8072558427120224
-147.20416021347046,9068.0,10492.0,8320.0,443.0,688.0,-969.0,-0.39262446995376055,0.30294761055466735,0.1295899684048004,0.8586473146418085
-147.21195650100708,8932.0,10412.0,7860.0,411.0,566.0,-1134.0,-0.32263251773789287,0.2319917381611266,0.1701262222338212,0.9017456184709388
-147.21974396705627,8772.0,10392.0,7728.0,346.0,523.0,-1318.0,-0.2317283237183893,0.16022872699054544,0.20793032163016364,0.9366929701777587
-147.2275321483612,8640.0,10296.0,7816.0,312.0,392.0,-1413.0,-0.12659277027076535,0.09551979163201856,0.2434609630707674,0.9568578783614645
-147.23530387878418,8488.0,10236.0,7928.0,298.0,269.0,-1326.0,-0.023923821444732846,0.041486913300575974,0.2746459212569169,0.9603520733195772
-147.24309086799622,8468.0,9764.0,7848.0,327.0,76.0,-1067.0,0.062121860869012946,0.009087339124549074,0.30445813204738087,0.9504543863332032
-147.2508990764618,8232.0,9388.0,8188.0,285.0,-212.0,-770.0,0.13093741208490828,0.008037284765965134,0.3267491083091451,0.935962508004074
-147.25868344306946,8252.0,9956.0,8596.0,370.0,-22.0,-293.0,0.15499749835900395,0.006009984303760405,0.3566704519356058,0.921263178634189
-147.2664692401886,8552.0,10132.0,8936.0,317.0,-421.0,118.0,0.15815403802247402,0.0480713934856228,0.37598979742099325,0.9117609958870014
-147.27428197860718,8884.0,9784.0,9048.0,121.0,-481.0,374.0,0.143333969255291,0.10043947000120042,0.37682220938672967,0.9096000817042096
-147.28206372261047,9164.0,10132.0,9180.0,-12.0,-591.0,505.0,0.12237528736793801,0.16372894245079408,0.36316957598573385,0.9090241919354519
-147.2898759841919,9480.0,10392.0,9084.0,-185.0,-540.0,-213.0,0.15867469613250934,0.19785403112239316,0.34525011991871135,0.9035919863920832
-147.29766821861267,9596.0,10108.0,9936.0,-345.0,-836.0,-590.0,0.23516660971981906,0.24044390931950183,0.31518194410509026,0.887436608583496
-147.30545139312744,9684.0,9920.0,10220.0,-401.0,-1064.0,-1193.0,0.3613830372583992,0.2792048938697177,0.28428713601482436,0.8429873972471847
-147.31324768066406,8960.0,9532.0,10284.0,-338.0,-978.0,-1694.0,0.5107702268106135,0.2943318428106896,0.26572530815392925,0.762805743500924
-147.321035861969,8868.0,9240.0,10364.0,-166.0,-962.0,-1913.0,0.6532175797304637,0.3015709692172732,0.2562529767919175,0.6455200662579832
-147.32883095741272,8536.0,9440.0,10432.0,-230.0,-1041.0,-1843.0,0.7730743018480609,0.3009166443868547,0.22830800214579047,0.5095888078728632
-147.33662509918213,8160.0,9292.0,10300.0,153.0,-1212.0,-1598.0,0.8512063271179308,0.32843520741128074,0.1921128292222877,0.36148411314374457
-147.34442329406738,8000.0,9404.0,10372.0,264.0,-1289.0,-1135.0,0.8908384388551893,0.36561104075682793,0.13539203205748582,0.23324759460732564
-147.35221195220947,7696.0,9500.0,10000.0,317.0,-1381.0,-834.0,0.9047274281975273,0.40443353288453027,0.06018153931381945,0.11949887226013778
-147.36001467704773,8276.0,9704.0,9744.0,341.0,-1350.0,-615.0,0.8982907731720793,0.43836282097352447,-0.021256680615923708,0.021444755797966623
-147.36783909797668,8512.0,9632.0,9540.0,338.0,-1199.0,-591.0,0.877922627785605,0.4647865344461684,-0.09163297894678513,-0.0694890940283209
-147.37563967704773,8584.0,9984.0,9592.0,329.0,-1051.0,-643.0,0.8470937823018232,0.4856435866673235,-0.14741183386579734,-0.15764574828016037
-147.3834285736084,8516.0,9516.0,9244.0,295.0,-862.0,-835.0,0.8074188263902987,0.5032608948880275,-0.17897187527821432,-0.2505441644229888
-147.39124703407288,8500.0,10048.0,9480.0,229.0,-1057.0,-806.0,0.7581009592896044,0.5052160730042698,-0.2217021274165088,-0.3476892604054946
-147.39906525611877,8280.0,10700.0,9628.0,108.0,-1141.0,-923.0,0.697648338942291,0.4913805043620242,-0.25780128394057084,-0.4531782134023858
-147.4068968296051,8980.0,11188.0,9640.0,-52.0,-1178.0,-1070.0,0.6251795521756244,0.4610812139860151,-0.279041614215522,-0.5645267214106559
-147.41469049453735,9324.0,11064.0,9752.0,-212.0,-1227.0,-1377.0,0.5292216547826001,0.41696414750300803,-0.2766630785904121,-0.6852173967078856
-147.4224874973297,9868.0,11300.0,9844.0,-331.0,-1240.0,-1661.0,0.40538554387726367,0.36141128864593025,-0.24969228682075845,-0.8016846032928681
-147.43028044700623,10280.0,11864.0,9784.0,-451.0,-1051.0,-2024.0,0.2501295115555067,0.30951285059659217,-0.1878264395718825,-0.8979745271233062
-147.43807244300842,10512.0,11892.0,9880.0,-724.0,-997.0,-3035.0,0.014994171534639063,0.25489806558030015,-0.06831187099097961,-0.964435399218176
-147.44585347175598,10736.0,11048.0,9940.0,-817.0,-665.0,-4052.0,-0.2928755916752006,0.20830881553113836,0.08412719500583131,-0.9293836345844304
-147.4536430835724,9920.0,10952.0,10020.0,-790.0,-381.0,-4691.0,-0.6058015140783636,0.150382238379629,0.22441215440610596,-0.7483507819699959
-147.4614326953888,9004.0,10628.0,10088.0,-722.0,-298.0,-5107.0,-0.8424269154772847,0.06271815247734241,0.32294053427577274,-0.42672325546065004
-147.46921038627625,8392.0,10188.0,9940.0,-579.0,-247.0,-5440.0,-0.9337453154145563,-0.051895340818532226,0.35399823979865797,-0.010573824386248126
-147.4769847393036,7872.0,9924.0,9908.0,-486.0,-429.0,-5549.0,-0.8339100044827111,-0.16575346255980222,0.32737150123150005,0.4122472489350472
-147.4847662448883,7156.0,9760.0,9940.0,-287.0,-589.0,-5481.0,-0.5621889500413113,-0.25259879615212544,0.25303741460260876,0.7457274967742388
-147.49258685112,6584.0,9560.0,9880.0,-100.0,-751.0,-5325.0,-0.1822914515439341,-0.2862410791993759,0.1504616695850877,0.9285457216844252
-147.50038194656372,6372.0,9720.0,9748.0,106.0,-964.0,-5100.0,0.22428518829397778,-0.2519093602561709,0.04296213381223326,0.9404212266774723
-147.5081639289856,6116.0,10004.0,9924.0,277.0,-1159.0,-4886.0,0.5821193561669762,-0.15514704336080784,-0.05884304975113096,0.7959924281097972
-147.5159511566162,6264.0,9960.0,9836.0,457.0,-1322.0,-4615.0,0.831493254055515,-0.014841403303179583,-0.1443681566086882,0.5362429827658096
-147.52373600006104,6324.0,10200.0,9924.0,621.0,-1495.0,-4376.0,0.9430494840545725,0.14413292446124995,-0.21243328971192504,0.21155488208221854
-147.5315272808075,6448.0,10308.0,10056.0,849.0,-1655.0,-4234.0,0.9085761475476355,0.29983231985177927,-0.2593176274816908,-0.13169788212824426
-147.53932452201843,6692.0,10384.0,10076.0,1052.0,-1827.0,-4017.0,0.737738176630766,0.42146878360096585,-0.2894578198499611,-0.44081812317456087
-147.54711294174194,6944.0,10860.0,10340.0,1228.0,-1773.0,-4022.0,0.4581758272618005,0.4958572170175093,-0.28152626569037004,-0.6818676509199204
-147.55495405197144,7208.0,11208.0,10456.0,1288.0,-1901.0,-3862.0,0.11731410120585826,0.4924509988550843,-0.24872309886471797,-0.8257519212669281
-147.56273913383484,7352.0,11536.0,11076.0,1230.0,-1862.0,-4251.0,-0.26034110775112174,0.4269921430335823,-0.16030491207326258,-0.8510009122014448
-147.5705382823944,7464.0,11852.0,11480.0,1159.0,-1640.0,-4037.0,-0.5828050970752212,0.311848316281488,-0.05466561570414523,-0.7483986350303091
-147.57830548286438,7176.0,13200.0,11616.0,1026.0,-1500.0,-3790.0,-0.8125137598482446,0.16852634821975732,0.054175789620715266,-0.5554144793142815
-147.58610439300537,7236.0,14456.0,11092.0,946.0,-1268.0,-2854.0,-0.9221249667571173,0.02518055244705577,0.13480088491013395,-0.36177369568432016
-147.5939347743988,7164.0,15464.0,9900.0,633.0,-1327.0,-2618.0,-0.9581944126149164,-0.09554674614423919,0.2198945025102476,-0.15614318653266346
-147.6017551422119,7312.0,15900.0,8580.0,222.0,-1496.0,-2665.0,-0.931175013123385,-0.179629556004372,0.3088688433574355,0.07243172749131385
-147.6095404624939,7284.0,15284.0,7408.0,-419.0,-1505.0,-2637.0,-0.850520294492565,-0.20038689118907133,0.37404053812879173,0.31073139257594135
-147.61733174324036,6912.0,14212.0,7128.0,-981.0,-1432.0,-2466.0,-0.7291311165102622,-0.16391834667672772,0.3971476146172616,0.5327028841325017
-147.62515425682068,6520.0,12512.0,7352.0,-1339.0,-1326.0,-2253.0,-0.5788080871412444,-0.0923448898014113,0.37511568767052095,0.71815168345617
-147.6329641342163,6260.0,11128.0,7476.0,-1518.0,-1380.0,-2018.0,-0.40676492071201464,0.004600994288752339,0.3236469843301109,0.8542679671295935
-147.6407618522644,6124.0,10104.0,7964.0,-1563.0,-1516.0,-1712.0,-0.22910724544090227,0.12130081989238503,0.254576484168401,0.9316580890478937
-147.6485641002655,5988.0,9656.0,8552.0,-1604.0,-1763.0,-1427.0,-0.05532338025829084,0.2575699645531069,0.1698962896713787,0.9495958549366181
-147.6563549041748,6140.0,9492.0,9444.0,-1428.0,-2043.0,-1279.0,0.10989600835172275,0.4028951285954071,0.0878954212986922,0.9043631889994053
-147.66415071487427,6380.0,9664.0,9680.0,-1093.0,-2086.0,-897.0,0.22977184741260226,0.5372322641579589,0.013122143742520843,0.8114272621916973
-147.67192721366882,6664.0,9860.0,9744.0,-776.0,-2019.0,-889.0,0.3248803356037463,0.6501192077962045,-0.039636753239281446,0.6857307860852397
-147.67973256111145,7036.0,10236.0,9736.0,-449.0,-1826.0,-1034.0,0.3991295616785829,0.7373231560760023,-0.058482311069480375,0.5418763473342953
-147.6875262260437,7116.0,10400.0,9600.0,-56.0,-1564.0,-1169.0,0.44376940003381526,0.8036147874083224,-0.03974472724283903,0.3945786990052767
-147.69531750679016,7288.0,10984.0,9396.0,227.0,-1318.0,-1328.0,0.4629175531454284,0.850881698435777,0.01006511170326635,0.24820630085333792
-147.70310997962952,7436.0,11448.0,9080.0,492.0,-1051.0,-1413.0,0.4523111416921344,0.8810678343757964,0.08215786212406198,0.11128426672582865
-147.71094870567322,7548.0,11856.0,8860.0,679.0,-868.0,-1571.0,0.41590056747287957,0.892557695470091,0.17287018055379336,-0.021985879744874412
-147.71873497962952,7868.0,12364.0,8604.0,649.0,-627.0,-1799.0,0.3658535523732519,0.8743554346921338,0.2846278039034269,-0.14366894335699096
-147.72651195526123,8080.0,12840.0,8496.0,562.0,-438.0,-1942.0,0.3046619916122015,0.8252157395062087,0.40521961656552397,-0.24899220166221625
-147.734299659729,8128.0,13588.0,8440.0,382.0,-297.0,-2020.0,0.2399219066123362,0.7453315093473136,0.5259202069054026,-0.3321541146367682
-147.74209642410278,8096.0,13904.0,8396.0,129.0,-145.0,-2106.0,0.17424843652747768,0.6364146607975802,0.6452385527512192,-0.38507281380687314
-147.7498812675476,8084.0,14016.0,8248.0,-107.0,-36.0,-2073.0,0.11078073895837724,0.5085552181106269,0.7512086541430789,-0.40593691129143794
-147.7576756477356,8080.0,14072.0,8108.0,-417.0,54.0,-2258.0,0.04486715316294943,0.3513880514266478,0.8498397322108917,-0.39023813939357094
-147.76546454429626,8048.0,13416.0,8096.0,-597.0,219.0,-2409.0,-0.034335088410354105,0.1737351753241382,0.9233517691735129,-0.3406738923414704
-147.7732434272766,7856.0,13004.0,8332.0,-754.0,169.0,-2575.0,-0.11014160478985992,-0.025843403722859332,0.9582900488835288,-0.26245214342644557
-147.78103137016296,7476.0,12640.0,8308.0,-846.0,87.0,-2605.0,-0.17415548564479533,-0.22724080606984284,0.944308892345849,-0.16221035328581743
-147.7888331413269,7388.0,12748.0,8348.0,-860.0,7.0,-2576.0,-0.22218972931584607,-0.4149276829915249,0.880842017626297,-0.05083386723307926
-147.79661989212036,6852.0,12236.0,8204.0,-861.0,-221.0,-2513.0,-0.24118739252568963,-0.5770226353808685,0.7771310567060304,0.07029111357593323
-147.8043918609619,6668.0,12240.0,8632.0,-794.0,-384.0,-2516.0,-0.23356035502054553,-0.7096449289903237,0.6365685874961337,0.19140028404935136
-147.81218433380127,6508.0,11772.0,8348.0,-735.0,-501.0,-2420.0,-0.20578929736080495,-0.8006974981702757,0.4727521680508004,0.3050240467879137
-147.81996893882751,6420.0,11464.0,8372.0,-667.0,-667.0,-2557.0,-0.15265846797173083,-0.8526394664021747,0.28043777705440404,0.41358915083778897
-147.8277587890625,6328.0,11360.0,8436.0,-586.0,-606.0,-2162.0,-0.10143423769261968,-0.8584100898368303,0.10435695638443294,0.49188701827169556
-147.83554983139038,6328.0,11556.0,8496.0,-535.0,-671.0,-1944.0,-0.051164080126793486,-0.8284153493391715,-0.05731807675282164,0.554819685989417
-147.84333276748657,6532.0,11664.0,8544.0,-559.0,-645.0,-1888.0,-0.003401266103511488,-0.7726830111429436,-0.21451050052719126,0.5974400730144744
-147.85111784934998,6804.0,11708.0,8460.0,-572.0,-595.0,-1835.0,0.04187540121668946,-0.6964530968694598,-0.36234428605277275,0.6179855605099415
-147.85895466804504,6892.0,11760.0,8808.0,-564.0,-438.0,-1819.0,0.09051804299428172,-0.6085527072165401,-0.4977341720938835,0.6113352438408257
-147.86672711372375,6756.0,11900.0,8836.0,-516.0,-283.0,-1841.0,0.14696835950072779,-0.5103152157420899,-0.6165695688260286,0.5812234068630187
-147.874525308609,6608.0,11812.0,9104.0,-448.0,-177.0,-1712.0,0.20194028039431733,-0.4100080548423065,-0.7093257201272993,0.5366288669877729
-147.88231301307678,6340.0,12156.0,9128.0,-389.0,-125.0,-1378.0,0.24295558841676965,-0.3231258657841652,-0.7730046437743182,0.4889029327194042
-147.8901252746582,6320.0,12056.0,9272.0,-319.0,-162.0,-1088.0,0.26816925751678017,-0.2482909126898351,-0.8166673033684276,0.446644587572141
-147.89791870117188,6312.0,11972.0,9016.0,-371.0,-196.0,-840.0,0.27803032126979493,-0.18878069471211376,-0.8510682355879412,0.40341523041632305
-147.90574717521667,6396.0,11912.0,8700.0,-349.0,-307.0,-704.0,0.2735849063966904,-0.13373697591303826,-0.8800237786213151,0.36445009168144266
-147.91353106498718,6304.0,11632.0,8860.0,-420.0,-351.0,-465.0,0.2560749514888045,-0.09665228151912535,-0.9054143983279065,0.32451305520374585
-147.92132234573364,5908.0,11516.0,8884.0,-359.0,-290.0,-286.0,0.2380246309351432,-0.07374180837789758,-0.9234394619572646,0.2918321107510693
-147.929132938385,5916.0,11176.0,9036.0,-275.0,-284.0,239.0,0.20716869457969678,-0.0913831738651839,-0.934047196088783,0.2761993537268914
-147.936918258667,5748.0,11164.0,8988.0,-85.0,-231.0,376.0,0.17851094465370707,-0.11789315416750511,-0.9365570495111807,0.2776615563058558
-147.94470381736755,5660.0,11196.0,8960.0,108.0,-3.0,703.0,0.1620774423516693,-0.1732573882595589,-0.9249762061765509,0.2968700020235334
-147.95249581336975,5736.0,11300.0,8944.0,239.0,-233.0,857.0,0.12431493381254399,-0.23227100613487625,-0.9062115834847533,0.33072124651786616
-147.96032118797302,5752.0,11440.0,8940.0,314.0,-125.0,827.0,0.09665931937475457,-0.2897833868443827,-0.8790765926573301,0.3659329295499196
-147.96811771392822,5828.0,11584.0,8888.0,423.0,-56.0,1139.0,0.06633165401275763,-0.3697436423633696,-0.8325557234154978,0.40711266010270136
-147.97588729858398,5872.0,11856.0,9208.0,432.0,-67.0,1200.0,0.03257106381170126,-0.44928724031528494,-0.7740707476874222,0.4448534354893586
-147.98370027542114,6040.0,12124.0,8996.0,482.0,-76.0,1335.0,-0.005460768204530841,-0.5311034738359214,-0.6978607533969143,0.48050978029414154
-147.99151039123535,5972.0,12344.0,8944.0,485.0,-62.0,1507.0,-0.04950997453149222,-0.6146945572993827,-0.6018818879003519,0.5073830472787945
-147.9993040561676,6472.0,12600.0,8820.0,431.0,-20.0,1789.0,-0.10535428121571586,-0.700690352928957,-0.4805269974152341,0.5167468524305817
-148.00707602500916,6712.0,12768.0,8908.0,387.0,-60.0,1613.0,-0.15539254130033625,-0.7612583854704614,-0.36006011213062616,0.5164257393968763
-148.0149004459381,6784.0,12984.0,9028.0,286.0,-57.0,1626.0,-0.2093871667658382,-0.805340230205806,-0.23585032002573264,0.5019549327873906
-148.02269005775452,6792.0,13000.0,9004.0,243.0,-21.0,1641.0,-0.26199762359299766,-0.8339289204180322,-0.10826410582297746,0.47349623473939906
-148.03046870231628,6776.0,12928.0,9128.0,176.0,8.0,1546.0,-0.31026597964505476,-0.8451001843376236,0.011331552594496194,0.4352152297693719
-148.03827595710754,6672.0,12824.0,9136.0,75.0,39.0,1480.0,-0.35812801033191266,-0.8400914094401101,0.12135553194641395,0.38892619719766625
-148.0460660457611,6448.0,12640.0,8972.0,0.0,79.0,1448.0,-0.40501694682618444,-0.820813502194013,0.2233419124609454,0.33517884410845805
-148.05383729934692,6324.0,12404.0,9104.0,27.0,59.0,1444.0,-0.44309850074308066,-0.7890026319129807,0.3229821098501441,0.27716623566079107
-148.06161904335022,6040.0,12236.0,9164.0,64.0,18.0,1487.0,-0.47134682239568626,-0.7436484187818005,0.42270529677563007,0.21480091791853131
-148.06940746307373,6044.0,12160.0,9104.0,100.0,-18.0,1555.0,-0.4889810722879989,-0.6836653398606212,0.5214428599912665,0.14695767343513796
-148.07719230651855,5880.0,12088.0,9032.0,145.0,-85.0,1643.0,-0.49257936335980373,-0.6076270691568666,0.6185434492427336,0.07455814522095404
-148.0849950313568,5524.0,12060.0,9004.0,246.0,-183.0,1857.0,-0.4754956595377508,-0.5098722770532144,0.7168391835856998,-0.008701938262075957
-148.09281611442566,5628.0,11876.0,8880.0,316.0,-253.0,1995.0,-0.4373622988867476,-0.39219471995338545,0.8032497933469576,-0.09842403487591267
-148.1006100177765,5632.0,12244.0,8640.0,390.0,-396.0,2080.0,-0.3719810314152311,-0.26011087905089697,0.870934792742777,-0.18826850415490876
-148.10838913917542,5800.0,11996.0,8740.0,379.0,-443.0,2198.0,-0.28805824946217884,-0.11047079753770665,0.911196252578491,-0.2730202137115179
-148.11618494987488,5980.0,11964.0,8716.0,380.0,-560.0,2170.0,-0.18461984373266943,0.03844820810718596,0.9192236084266905,-0.34563739135759836
-148.12396955490112,6220.0,12160.0,8732.0,394.0,-545.0,2180.0,-0.07502247814672196,0.1868884631008429,0.8913098792889016,-0.4062154960295498
-148.13176107406616,6472.0,12172.0,8888.0,389.0,-600.0,2240.0,0.043800377867814905,0.3304497227881456,0.8276580640879361,-0.4515159316769282
-148.13953948020935,6512.0,12320.0,8676.0,315.0,-602.0,2265.0,0.16402434590537762,0.4618376442300031,0.7321694177497258,-0.47300100214948987
-148.14733052253723,6756.0,12392.0,8712.0,250.0,-640.0,2289.0,0.28329539116644936,0.5729654362164547,0.6073065582013254,-0.4718400943230625
-148.15511345863342,6852.0,12264.0,8728.0,288.0,-644.0,2284.0,0.38879159263905255,0.6604291347465738,0.45542399467448147,-0.4530600849179045
-148.16296291351318,7088.0,12224.0,8712.0,224.0,-635.0,2310.0,0.48204402462324536,0.71905600523379,0.2855333948952369,-0.41117234836726124
-148.1707718372345,7004.0,12076.0,8836.0,5.0,-627.0,2330.0,0.5686078927319873,0.7385932452333767,0.11020413978913962,-0.3449929419449822
-148.1786184310913,7048.0,11996.0,9096.0,208.0,-649.0,2294.0,0.6173075288543646,0.7354851430409428,-0.07466587221491688,-0.2691059767306319
-148.18641352653503,7148.0,11784.0,9408.0,209.0,-658.0,2274.0,0.6395209307078971,0.7014157888965162,-0.2556578384956311,-0.18348825545228994
-148.19428086280823,7272.0,11864.0,9220.0,193.0,-564.0,2222.0,0.6380997217586396,0.6406412029473633,-0.4179533060990475,-0.08787848484457196
-148.20205783843994,7332.0,12060.0,9216.0,225.0,-491.0,2207.0,0.6127437278141166,0.5579136171027613,-0.5594973620377188,0.015499088637948707
-148.2098572254181,7484.0,12112.0,9352.0,502.0,-285.0,2286.0,0.5597027289571549,0.463739235836219,-0.6712368145761695,0.1453269249024086
-148.2176558971405,7744.0,12056.0,9364.0,302.0,-124.0,1861.0,0.5098596787657602,0.3660865401643756,-0.7387301661072945,0.24556362670892828
-148.2254250049591,8008.0,12224.0,9616.0,414.0,16.0,1628.0,0.45800269581181524,0.2762689717894338,-0.7728278950170113,0.3415348159984487
-148.23321843147278,7980.0,12352.0,9708.0,484.0,27.0,1638.0,0.39507850671357964,0.1823484418597853,-0.7880475214510446,0.43548033620261406
-148.24100303649902,8128.0,12428.0,9336.0,490.0,23.0,1427.0,0.33186696073228084,0.09941282425812321,-0.7845179142832884,0.5143083247585453
-148.24879384040833,8188.0,12380.0,9324.0,491.0,75.0,1305.0,0.27224526893843143,0.020810439399946583,-0.7659182247599028,0.5820813621249706
-148.25658774375916,8228.0,12472.0,9032.0,456.0,97.0,1173.0,0.217079560391664,-0.051331920835758896,-0.7380719927025885,0.6367819343790331
-148.26437163352966,8296.0,12300.0,9464.0,331.0,218.0,880.0,0.1831216176659951,-0.1134113677293994,-0.7090486568970096,0.6714568764750889
-148.27215123176575,8396.0,12320.0,9084.0,232.0,330.0,702.0,0.1643549264337653,-0.1720060303638834,-0.6814874022715042,0.6920811399111
-148.27994012832642,8380.0,12280.0,9084.0,215.0,420.0,755.0,0.1465723139359657,-0.2384326898519254,-0.6491403252948924,0.7073070388971634
-148.2877233028412,8356.0,12124.0,9160.0,170.0,262.0,296.0,0.14662484694840053,-0.26896216727684275,-0.6286469411420057,0.7148171306172658
-148.29552555084229,8408.0,12260.0,9156.0,182.0,644.0,94.0,0.1801032837679204,-0.3113795819987064,-0.6057458462809547,0.7097024255303718
-148.30332159996033,8084.0,11868.0,9144.0,215.0,645.0,227.0,0.2056314395051645,-0.359203061884614,-0.5749505382634321,0.7057766997927473
-148.31111812591553,7880.0,11932.0,9132.0,192.0,656.0,-114.0,0.251180838933935,-0.38968246742095053,-0.5538686263909146,0.6915817416885773
-148.3189640045166,7688.0,12028.0,9008.0,113.0,546.0,-145.0,0.289853925028264,-0.41257708219495653,-0.5392893912306432,0.6744863274368784
-148.32675981521606,7540.0,11936.0,9412.0,11.0,544.0,-340.0,0.3353993470160621,-0.4275920123054176,-0.5362474225809285,0.6458413511142763
-148.33454203605652,7216.0,11884.0,9268.0,56.0,564.0,-485.0,0.39045848892860757,-0.434064978450955,-0.5335200472912771,0.6119527122615553
-148.34234499931335,7484.0,11924.0,9244.0,-61.0,579.0,-532.0,0.44254477278337656,-0.4411853054035846,-0.5359089018795664,0.567724668535984
-148.35012006759644,7248.0,11928.0,9096.0,-48.0,558.0,-540.0,0.4924934721295561,-0.44433699891756806,-0.5362736739182614,0.5219438264458288
-148.35792088508606,7140.0,11852.0,9324.0,-28.0,457.0,-760.0,0.5458648568206995,-0.4294216916267471,-0.5457294496956535,0.4688367909874602
-148.36571216583252,7092.0,11916.0,8860.0,-28.0,415.0,-595.0,0.5878350675187637,-0.41847092879998415,-0.5482923428068562,0.42273812456869564
-148.37351393699646,6944.0,11964.0,8888.0,-104.0,321.0,-593.0,0.6202654897276245,-0.40645833148422766,-0.5563236577839777,0.3749217715869051
-148.3812825679779,7044.0,11828.0,8932.0,-167.0,167.0,-674.0,0.6433446716833824,-0.38738271987555256,-0.575533917957252,0.3237328698776122
-148.38911986351013,6992.0,11776.0,8752.0,-211.0,123.0,-604.0,0.6584797150561219,-0.37165792293014616,-0.594044965164274,0.2745640773040692
-148.39693689346313,6888.0,11832.0,8920.0,-256.0,-1.0,-672.0,0.6650048942849366,-0.350703908195435,-0.620807199060833,0.22220189231365983
-148.4047508239746,6920.0,11744.0,8872.0,-330.0,-145.0,-670.0,0.6586735381560777,-0.32990315190788344,-0.6546821907362615,0.1694234624453393
-148.41254043579102,6992.0,11492.0,8856.0,-416.0,-222.0,-684.0,0.6425175285576757,-0.31052562631888514,-0.6914654262037602,0.11234155624813559
-148.4203748703003,7096.0,11380.0,8908.0,-439.0,-237.0,-770.0,0.6219504787650685,-0.2853294421151153,-0.7275848128009923,0.048836990156276724
-148.4281623363495,6920.0,11364.0,9084.0,-483.0,-364.0,-725.0,0.5879743908286399,-0.26296534782133474,-0.7648442823683204,-0.012188736742723737
-148.4359428882599,6836.0,11356.0,9216.0,-466.0,-435.0,-747.0,0.5455104726643086,-0.23651729229552007,-0.8008534984759534,-0.07149523506908859
-148.4437072277069,6800.0,11408.0,9320.0,-410.0,-619.0,-679.0,0.4877258934573249,-0.21154514432595822,-0.8385259607407933,-0.11935794036046846
-148.45150089263916,6740.0,11440.0,9680.0,-334.0,-283.0,-631.0,0.4533163067597264,-0.18205457335921968,-0.8567823147560636,-0.1651802756564947
-148.4592785835266,6808.0,11508.0,9560.0,-4.0,-578.0,-582.0,0.40067143938693534,-0.1465881572246494,-0.8865333491199572,-0.17897745869029166
-148.4670648574829,6812.0,11732.0,9464.0,-263.0,-571.0,-577.0,0.34321628531147164,-0.11967914333156737,-0.9072212689161566,-0.21172872590788333
-148.47482991218567,6820.0,11560.0,9700.0,-224.0,-574.0,-545.0,0.2846767756787003,-0.09356534103795999,-0.9235494825591143,-0.2392927362257817
-148.48261094093323,6848.0,11696.0,9440.0,-505.0,-705.0,-449.0,0.21362363005093818,-0.08431467469598629,-0.9307659007348439,-0.2844834236717931
-148.4904305934906,6860.0,11812.0,9168.0,-314.0,-705.0,-302.0,0.14620831294331665,-0.08291107469478222,-0.9358461408404967,-0.3097432543142377
-148.49828577041626,6732.0,11828.0,9172.0,-361.0,-1022.0,-279.0,0.05236584283552813,-0.09191746948686275,-0.9366447765512386,-0.33392448228085453
-148.5060749053955,6804.0,11784.0,9348.0,-450.0,-803.0,-253.0,-0.024144936515600544,-0.09636694258896325,-0.9259737216481697,-0.36428436863767705
-148.51386952400208,6836.0,11640.0,9352.0,-493.0,-810.0,-512.0,-0.10952150403070306,-0.0793639933606951,-0.9088364596144536,-0.39461713899444617
-148.52166843414307,6740.0,11544.0,9388.0,-276.0,-789.0,-210.0,-0.18071508934877345,-0.0870240249986233,-0.8906732435946791,-0.40800741255427836
-148.52945399284363,6816.0,11564.0,9416.0,-558.0,-882.0,-125.0,-0.2568691050778374,-0.09953182985650272,-0.8541903261880243,-0.44098816803710744
-148.53725504875183,6784.0,11528.0,9428.0,-515.0,-850.0,-71.0,-0.3261964361526761,-0.11502066993890034,-0.8127873889403319,-0.46876730998188987
-148.5450394153595,6812.0,11544.0,9416.0,-516.0,-857.0,22.0,-0.38977065448162196,-0.1364922454971498,-0.764060593193961,-0.4956411138638584
-148.55283617973328,6988.0,11412.0,9376.0,-515.0,-859.0,9.0,-0.4510619004428213,-0.15620618288686444,-0.7096437961230504,-0.5182166275032984
-148.56062364578247,7212.0,11356.0,9540.0,-764.0,-852.0,-4.0,-0.5118615737697247,-0.16368275201160246,-0.6383026302092643,-0.551158269701022
-148.56842589378357,7196.0,11616.0,9264.0,-436.0,-806.0,-16.0,-0.5619359669756897,-0.1816151374254838,-0.5795592909107115,-0.5615647239598409
-148.57621955871582,7344.0,11704.0,9336.0,-424.0,-730.0,-56.0,-0.6066375590425581,-0.1933688630277022,-0.522285085504108,-0.5672897356996923
