programtime,ax,ay,az,gx,gy,gz,q0,q1,q2,q3
-142.52202439308167,9388.0,9428.0,9996.0,675.0,265.0,264.0,0.9977316265733748,0.05900455435884416,0.022840834596964624,0.022986086554178803
-142.52983260154724,8996.0,9748.0,9580.0,637.0,760.0,399.0,0.9878421592822971,0.11347171129757451,0.08761675149391124,0.06012773018618588
-142.53762578964233,8728.0,9684.0,9548.0,726.0,721.0,507.0,0.9676836186745403,0.1754864441352164,0.1475751030970005,0.1049500405890079
-142.54539012908936,8772.0,9740.0,9236.0,876.0,755.0,563.0,0.9335244500229872,0.24841996581468542,0.20915775622829857,0.15189685580502807
-142.55322790145874,8716.0,9784.0,9440.0,904.0,735.0,565.0,0.8873769214333636,0.32074115467919156,0.26680717430209877,0.19621733548143686
-142.56104588508606,8796.0,9844.0,9412.0,929.0,986.0,642.0,0.8204408766496921,0.3875551824484484,0.3379717668436736,0.24990564878809782
-142.56883597373962,8912.0,10000.0,9616.0,1108.0,727.0,630.0,0.7417392914225995,0.46588462696445676,0.3894819038336525,0.28474231245847975
-142.57662200927734,8800.0,10096.0,9452.0,1245.0,657.0,635.0,0.6471731216266202,0.5468314437903321,0.43303358673498027,0.3076105256418821
-142.5843608379364,9060.0,10224.0,9604.0,1274.0,669.0,645.0,0.5387177371619991,0.6193777775039813,0.46967150553528286,0.324904671079849
-142.59215569496155,9280.0,10416.0,9724.0,1108.0,804.0,673.0,0.4230730492393531,0.6703359404696503,0.4980111548216801,0.3516302199685936
-142.59993052482605,9256.0,10436.0,9928.0,1048.0,858.0,731.0,0.2993659647416713,0.7080906725203884,0.5143865559719583,0.3799922231825544
-142.60771465301514,9712.0,10428.0,10160.0,1122.0,928.0,720.0,0.16286988986756545,0.731604864547045,0.5260272604805466,0.4018992938249062
-142.61552000045776,9680.0,10440.0,10204.0,1145.0,829.0,777.0,0.024212165155384362,0.7470663107510396,0.5231575767332376,0.4094042602439869
-142.6233081817627,10156.0,10356.0,9944.0,965.0,1061.0,837.0,-0.11585189951104567,0.7416083908165175,0.5000483058243376,0.4319108980940719
-142.63110518455505,9624.0,10304.0,9768.0,846.0,1177.0,921.0,-0.25386275903059785,0.7207580502235492,0.4553180215926384,0.45688842382827544
-142.63889360427856,9460.0,10172.0,9632.0,802.0,1171.0,998.0,-0.386243664637648,0.6880183602149714,0.3940746702634948,0.47132973785991883
-142.64667344093323,9304.0,10196.0,9492.0,771.0,1199.0,990.0,-0.5087019482650628,0.6393500586371222,0.3222659410221027,0.478119748189903
-142.65447163581848,9156.0,10016.0,9296.0,798.0,1188.0,1002.0,-0.6212762364117743,0.575741789265082,0.24413590177880848,0.4721598157684651
-142.66225218772888,9112.0,9824.0,9292.0,889.0,1078.0,1084.0,-0.725004665386968,0.5001370871064229,0.1659705867227872,0.4434917063607014
-142.67002391815186,9352.0,9772.0,9264.0,1020.0,976.0,1122.0,-0.8170445188574879,0.40886933258490704,0.09369779584083933,0.39558165545317825
-142.67779660224915,9288.0,9732.0,8984.0,1032.0,869.0,1225.0,-0.8920755351278858,0.31120333283057655,0.023526818708667033,0.326803020278098
-142.68560242652893,9396.0,9480.0,9068.0,956.0,782.0,1223.0,-0.9437610369399061,0.21434056560714887,-0.04260984724884002,0.24810809742277867
-142.69336938858032,9364.0,9544.0,9060.0,1021.0,703.0,1201.0,-0.9752853494987416,0.10913268122080473,-0.0995181257243008,0.16433103052983633
-142.7011513710022,9220.0,9452.0,8848.0,1093.0,644.0,1223.0,-0.9860848764797169,-0.0039042116987327365,-0.1483159521616933,0.07499167849410494
-142.7089569568634,9320.0,9348.0,8812.0,1167.0,631.0,1192.0,-0.9736253044757569,-0.12259853909089548,-0.19200327075796286,-0.012574128817229828
-142.71676898002625,9244.0,9348.0,8860.0,1359.0,690.0,1535.0,-0.929434677779617,-0.25862959230327454,-0.23134561566320122,-0.12546361958414762
-142.72460341453552,9492.0,9324.0,9012.0,1504.0,749.0,1353.0,-0.8506101349569269,-0.3929591773224769,-0.27296390976616863,-0.21802795057461694
-142.7324709892273,9736.0,9320.0,8972.0,1608.0,832.0,1325.0,-0.7364469784782601,-0.5182894398365145,-0.3136801511579215,-0.3010426335483672
-142.74028420448303,10120.0,9716.0,9572.0,1612.0,1053.0,1361.0,-0.5866568878215415,-0.618539030808299,-0.3545267355234619,-0.3841275271799076
-142.7480673789978,10432.0,9520.0,9488.0,1498.0,1214.0,1414.0,-0.4119494571762061,-0.6835354293861082,-0.3821998614650839,-0.4658328320355366
-142.75583934783936,10648.0,9652.0,9772.0,1295.0,1355.0,1411.0,-0.2274118315952408,-0.7073366629490557,-0.39117706245781547,-0.5430830598586796
-142.76365303993225,10504.0,9968.0,10092.0,1142.0,1511.0,1338.0,-0.04107755521955935,-0.68998388592968,-0.38482693923350153,-0.6116723783650341
-142.77146577835083,10936.0,9756.0,10224.0,974.0,1642.0,1313.0,0.1399804464174285,-0.6369044920668843,-0.356381972923158,-0.6691412645930596
-142.77925753593445,10504.0,10292.0,9980.0,954.0,1826.0,1106.0,0.3080181955579403,-0.5416874117234112,-0.32167490004653504,-0.712898869311541
-142.78705596923828,10124.0,10556.0,9832.0,1278.0,2011.0,931.0,0.47115851191455216,-0.39833915729806035,-0.29589036387597456,-0.7292355346380753
-142.79487133026123,9828.0,10808.0,9496.0,981.0,2149.0,748.0,0.5945150972178642,-0.23489748986445622,-0.23859588190846912,-0.7310588030875022
-142.80265140533447,9616.0,10884.0,9472.0,820.0,2243.0,641.0,0.6830980766219953,-0.061041191558255804,-0.15802883517874836,-0.7104068397056204
-142.81043696403503,9364.0,10796.0,9676.0,471.0,2340.0,436.0,0.728713721777171,0.10384080831541148,-0.04474174820248132,-0.6754195541956506
-142.81824016571045,9140.0,10620.0,9480.0,256.0,2376.0,356.0,0.740420365082774,0.2532022646052673,0.08582538953779213,-0.6166849265874287
-142.8260202407837,8868.0,10404.0,9220.0,135.0,2388.0,281.0,0.7190712241525526,0.38414175386432065,0.22153209876333785,-0.5350656191078845
-142.833842754364,8444.0,10148.0,9176.0,95.0,2355.0,489.0,0.678502692740367,0.49864555659455934,0.3408490735429999,-0.4181012005453367
-142.84163069725037,8176.0,9856.0,9136.0,135.0,2160.0,194.0,0.6047820902054543,0.5808895431850475,0.4472868033447642,-0.3110313127944051
-142.84942412376404,8176.0,9660.0,9056.0,162.0,1898.0,235.0,0.5216727191454645,0.641221779998633,0.523776461935615,-0.2057921788527717
-142.8572015762329,8120.0,9504.0,9244.0,234.0,1616.0,267.0,0.4350534187760921,0.6860092653481742,0.5722149279625438,-0.11264939806547195
-142.86498832702637,8160.0,9496.0,9072.0,327.0,1514.0,291.0,0.3395756772258493,0.7210707321853873,0.6033403159929702,-0.02694107866694095
-142.87277007102966,8300.0,9588.0,9444.0,297.0,945.0,325.0,0.2708072948005271,0.7461371614126888,0.6076514110778801,0.026504868550828276
-142.88054871559143,8352.0,9792.0,9556.0,216.0,1013.0,259.0,0.20157644100600333,0.7593486325002804,0.6125454158353508,0.08686026876774534
-142.88832235336304,8596.0,10060.0,9620.0,114.0,696.0,235.0,0.15473270115702895,0.7670255626126727,0.6087747936066277,0.1308542248479977
-142.89609956741333,8820.0,10220.0,9524.0,-92.0,644.0,7.0,0.12641666479500172,0.7575678212490249,0.6149398905381583,0.17877011521792913
-142.90387344360352,9088.0,10220.0,9756.0,-279.0,672.0,-160.0,0.11108187668702274,0.733846680600044,0.6272326398363487,0.23602771355904584
-142.91169142723083,9092.0,10012.0,9584.0,-487.0,656.0,-317.0,0.11258364162535502,0.6961942573531232,0.6419603787471856,0.30087431227287764
-142.91950178146362,9172.0,10104.0,9884.0,-554.0,622.0,-531.0,0.12489465732303232,0.6422446945099968,0.6632926414777656,0.36327117791998237
-142.92728114128113,9248.0,10016.0,9652.0,-577.0,584.0,-705.0,0.14514815542884105,0.5740286416192331,0.6877734338220952,0.41998908950703384
-142.9350860118866,9316.0,10012.0,9640.0,-473.0,762.0,-751.0,0.1498546899420003,0.49242315784286694,0.7139392866624488,0.4747143356613108
-142.94289207458496,9324.0,9872.0,9588.0,-395.0,488.0,-809.0,0.16925710464549384,0.41494403824624426,0.735716269990119,0.5078336811621994
-142.95066928863525,9180.0,9864.0,9548.0,-285.0,435.0,-1016.0,0.19569122654978693,0.32459123849537724,0.7624481292231662,0.5244218931238199
-142.9584538936615,8940.0,9784.0,9668.0,-268.0,428.0,-725.0,0.20734094816571852,0.2514384508679069,0.7756388529250349,0.5405301161563748
-142.96626591682434,8952.0,9684.0,9772.0,-195.0,410.0,-680.0,0.2153594603996204,0.18209350037204233,0.7866926584509928,0.549160196188645
-142.97404766082764,8908.0,9472.0,10044.0,-225.0,442.0,-632.0,0.2182999757733786,0.11304310182624948,0.792230456360876,0.5585134570635525
-142.9818353652954,9036.0,9404.0,9980.0,-279.0,435.0,-539.0,0.21673884531927723,0.0491982063948608,0.7904782217321322,0.5707433664830465
-142.98962020874023,9024.0,9240.0,10188.0,-324.0,432.0,-333.0,0.20454456548424374,-0.0013626244011202915,0.7826637530227933,0.5878750834062277
-142.99739694595337,9076.0,9140.0,10168.0,-339.0,416.0,-192.0,0.18564654933911248,-0.04175304207207233,0.7716443294659984,0.6069242712226774
-143.00519251823425,9000.0,9080.0,10184.0,-291.0,422.0,-75.0,0.1599059354812182,-0.07371973936616201,0.7619420817241296,0.6232493529267088
-143.0129678249359,8808.0,9348.0,10028.0,-198.0,418.0,-74.0,0.13467217406160464,-0.10397010013502796,0.7558270348754449,0.6322808847045955
-143.0207450389862,8692.0,9600.0,9832.0,-179.0,436.0,-169.0,0.11342325857789212,-0.14105951002605568,0.7487585136905985,0.6376504271312201
-143.0285291671753,8580.0,9744.0,9728.0,-209.0,450.0,-292.0,0.0974854906671553,-0.18692723913455953,0.7369951939105361,0.6421782233396632
-143.03632760047913,8668.0,9928.0,10032.0,-334.0,482.0,-385.0,0.08236955702328964,-0.24100379732807434,0.7147001958347213,0.6514108195471169
-143.04410767555237,8852.0,9880.0,10288.0,-439.0,451.0,-532.0,0.07496690244630133,-0.3021080407733491,0.6799882003724106,0.6638725348980672
-143.05188870429993,8892.0,9784.0,10052.0,-522.0,385.0,-594.0,0.07246615920868528,-0.3619144832385641,0.6346959669141586,0.6789164839467415
-143.0596764087677,8972.0,9772.0,10072.0,-568.0,311.0,-653.0,0.07565449499716398,-0.4186515867444232,0.5804896748666328,0.6942902733556993
-143.06745886802673,8944.0,9564.0,10032.0,-585.0,172.0,-590.0,0.08100497015764817,-0.4614499390520428,0.5231755157129897,0.7118915144297421
-143.07524847984314,8940.0,9424.0,9928.0,-412.0,252.0,-528.0,0.0854571521040178,-0.5030323762813793,0.47716866201327507,0.7155176947912891
-143.08303785324097,8856.0,9396.0,9888.0,-260.0,-117.0,-456.0,0.10719230198981947,-0.5159689020749513,0.4395697549074308,0.7273680863608974
-143.0908486843109,8816.0,9476.0,9884.0,-147.0,-214.0,-497.0,0.1400913759905429,-0.5220796097403925,0.4053900843164791,0.7372015782703355
-143.09864830970764,8776.0,9600.0,10004.0,-54.0,-224.0,-411.0,0.1717876925012903,-0.5223025870972888,0.3801532895330726,0.743755653876826
-143.10644602775574,8928.0,9572.0,10032.0,47.0,-163.0,-445.0,0.20798570260284874,-0.5252022005311727,0.3601918417314002,0.742405841316025
-143.11426305770874,8848.0,9676.0,10240.0,52.0,-94.0,-465.0,0.2431924985417276,-0.5321988753463693,0.3402727453999541,0.7360952550255091
-143.1220531463623,8808.0,9656.0,10036.0,58.0,92.0,-472.0,0.2731905859929551,-0.5502842436650089,0.3237682398280797,0.719533377806396
-143.12983918190002,8876.0,9680.0,10188.0,-33.0,221.0,-452.0,0.2934267748884791,-0.5770531126054573,0.30498962983187455,0.6984924900855521
-143.13764810562134,8776.0,9688.0,10124.0,45.0,334.0,-402.0,0.3109553660391779,-0.6062286190405545,0.29576010859793095,0.6695667106045247
-143.14542388916016,8756.0,9972.0,10100.0,18.0,344.0,-318.0,0.3213174186842642,-0.6334338127706791,0.2891104732858655,0.6418191766574946
-143.15321707725525,8828.0,9492.0,9924.0,-67.0,321.0,-315.0,0.3268815608882391,-0.6606470395572512,0.27675214502897266,0.6165242772976346
-143.1609959602356,8964.0,9420.0,9924.0,-111.0,241.0,-89.0,0.3193347659258258,-0.6786615928257886,0.2724664684279232,0.6026655567366339
-143.16878962516785,9064.0,9292.0,9956.0,-104.0,160.0,84.0,0.30488042904494855,-0.6878012325260181,0.27640994381488543,0.5979756947245518
-143.1765694618225,9088.0,9120.0,10084.0,-77.0,89.0,177.0,0.2888010855495578,-0.6900439308850237,0.28536058465917896,0.5991682928502752
-143.18435621261597,9008.0,9128.0,9992.0,67.0,118.0,259.0,0.27623693597548193,-0.6877885080250526,0.3073654247391537,0.5967969664018652
-143.19213676452637,8832.0,9280.0,10132.0,238.0,222.0,290.0,0.26923891511949843,-0.6852751282156702,0.34230661765349657,0.5837247508414348
-143.19993233680725,8896.0,9332.0,10024.0,284.0,320.0,190.0,0.26673012460628553,-0.6885941786643881,0.3753766918941128,0.5601655442096241
-143.20771074295044,8956.0,9584.0,10340.0,267.0,394.0,135.0,0.2629895078083675,-0.6965155208567272,0.40536763602110926,0.5304523801954819
-143.21552920341492,9024.0,9704.0,10464.0,314.0,397.0,21.0,0.2667658521195714,-0.706208257309344,0.42990141016850614,0.4952682656764391
-143.22331714630127,8988.0,9840.0,9988.0,270.0,428.0,-79.0,0.2704584094657545,-0.720628658927498,0.4462493371675271,0.45651737509009727
-143.23109102249146,8812.0,9964.0,10228.0,248.0,433.0,-192.0,0.2765083906089351,-0.7386703761712379,0.45380572294392046,0.4146921160490564
-143.23893094062805,8748.0,9928.0,10268.0,249.0,397.0,-224.0,0.2846222482671632,-0.7551028807226657,0.45750922235094094,0.3734904641078734
-143.24671292304993,8436.0,10020.0,10492.0,139.0,388.0,-233.0,0.2856128968575087,-0.7729239525260372,0.4559527011391547,0.3363346117843046
-143.25448632240295,8348.0,10068.0,10048.0,117.0,334.0,-252.0,0.2873755611692753,-0.7892605004099358,0.45040734457241494,0.3026819672371112
-143.26227021217346,8272.0,10144.0,9988.0,53.0,327.0,-285.0,0.2854635317415859,-0.8071788264772184,0.44007254606611224,0.27075647421875426
-143.27004432678223,8172.0,10000.0,10052.0,20.0,506.0,-242.0,0.2727986063101972,-0.826938031187087,0.4355958774835703,0.22805842341592433
-143.27781772613525,8156.0,9904.0,10136.0,-34.0,130.0,-251.0,0.2702849603760942,-0.8396184346537127,0.4197796379338508,0.2139438710509547
-143.2855966091156,8284.0,9680.0,9996.0,28.0,63.0,-197.0,0.2736330738697454,-0.847212665927474,0.40729472341136014,0.2036336118078753
-143.29337787628174,8256.0,9532.0,10148.0,116.0,-78.0,-112.0,0.28691425506179885,-0.8469347835906952,0.3991725905188098,0.20259053671141194
-143.3011498451233,8348.0,9368.0,10060.0,177.0,-166.0,41.0,0.30496520760334433,-0.8379449659093998,0.4010940478164793,0.20968552898265455
-143.30896878242493,8516.0,9328.0,10048.0,283.0,-193.0,69.0,0.33098600838993325,-0.8240792680549501,0.40600445489004156,0.21564323504704844
-143.3167679309845,8612.0,9388.0,10160.0,439.0,-153.0,170.0,0.3644332209516907,-0.8017400578727457,0.4216929925693881,0.2158154931575965
-143.32454323768616,8760.0,9508.0,10332.0,441.0,-142.0,152.0,0.39729175704827946,-0.7787306649288952,0.43573562730095944,0.21417813702974287
-143.33234405517578,8860.0,9624.0,10280.0,450.0,-54.0,196.0,0.4258714954227254,-0.7539522092696179,0.4551847651596082,0.20735564880288648
-143.34015560150146,8784.0,9752.0,9992.0,373.0,-3.0,134.0,0.4478450929409699,-0.734258295252062,0.4703695965239753,0.1976157160959177
-143.34794163703918,8852.0,9908.0,10468.0,375.0,22.0,143.0,0.4682269029383458,-0.7136549532293845,0.48657014591909503,0.18630530909289833
-143.35571670532227,8772.0,9972.0,10492.0,321.0,29.0,94.0,0.48526324507962804,-0.6967007307207725,0.49862178367823123,0.17465391959377763
-143.3635311126709,8720.0,9900.0,10220.0,321.0,38.0,83.0,0.501663475353687,-0.6797664427734952,0.5099598846902049,0.16184021991421757
-143.37131023406982,8784.0,9968.0,10312.0,269.0,10.0,11.0,0.5168955601961541,-0.6674372899615911,0.5147097862905614,0.14973402991623297
-143.3790955543518,8732.0,9976.0,10376.0,204.0,-40.0,248.0,0.5271429715526411,-0.6462909722313138,0.5298087109636852,0.15404868237655625
-143.38690757751465,8464.0,9992.0,10176.0,121.0,-65.0,-47.0,0.5375823864989067,-0.6419504820026314,0.5257505964066025,0.14997021957985884
-143.39470744132996,8672.0,10220.0,10436.0,50.0,-89.0,-54.0,0.5451683595784315,-0.6408631313084611,0.5191744473843811,0.1501459284402966
-143.40249061584473,8708.0,9860.0,10276.0,-52.0,-115.0,-37.0,0.5479422003379918,-0.6434431198913172,0.5109130974744417,0.15718811463453505
-143.41027736663818,8640.0,9688.0,10224.0,-72.0,-195.0,5.0,0.552458492632675,-0.6438593625711456,0.5007921566788225,0.1715865698604769
-143.41806364059448,8620.0,9492.0,10092.0,23.0,-193.0,-2.0,0.5621616938172613,-0.6398299530893785,0.4916411481034776,0.18133075477051838
-143.42584371566772,8616.0,9460.0,10100.0,89.0,-251.0,-34.0,0.578310666113982,-0.6327473437555803,0.47869617176816404,0.18983558034142173
-143.43361258506775,8584.0,9532.0,10096.0,162.0,-235.0,-52.0,0.5977784574424321,-0.6226167552645288,0.46648787030093664,0.19338655264447122
-143.44139003753662,8652.0,9744.0,10008.0,279.0,-224.0,-78.0,0.6230951487003934,-0.6071071875480144,0.45502770726775826,0.19006073795558676
-143.44916319847107,8680.0,9888.0,10228.0,342.0,-170.0,-95.0,0.6492042747155099,-0.5890695118441862,0.44614385296029757,0.180240346128443
-143.45697689056396,8864.0,10104.0,10172.0,253.0,-115.0,-156.0,0.6689319308546373,-0.578728662304831,0.43539973901745754,0.16742244345809
-143.4647650718689,8880.0,10064.0,10100.0,196.0,-122.0,-93.0,0.6847159376239947,-0.5688526283013455,0.4263199144761556,0.16069257157500572
-143.4725432395935,8892.0,10032.0,10020.0,161.0,-90.0,-109.0,0.6975182696753242,-0.5618736856673106,0.4176884804970197,0.1526517542770628
-143.48040628433228,8880.0,9928.0,10236.0,100.0,-77.0,-38.0,0.7057453434630435,-0.5560529736482168,0.4124128134216475,0.15048013823374748
-143.48820161819458,8868.0,9844.0,10092.0,92.0,-129.0,-53.0,0.7155317246464661,-0.5504835425426219,0.40302775759711773,0.15016939441982868
-143.49597883224487,8848.0,9836.0,10224.0,88.0,-197.0,-22.0,0.7269081329785142,-0.5430209106580696,0.390715631050576,0.15515847527776827
-143.50375270843506,8808.0,9800.0,10084.0,6.0,-185.0,-42.0,0.7340317517982543,-0.5414283143154297,0.37697933106665166,0.16105698295348167
-143.51156163215637,8764.0,9824.0,10040.0,-63.0,-173.0,-127.0,0.7384552616018591,-0.5470404720001937,0.35890057615726445,0.16315920151900287
-143.5193431377411,8720.0,9792.0,9940.0,-103.0,-115.0,-186.0,0.7396890112081704,-0.5576767029934033,0.34102465520471736,0.15987196808318316
-143.52713298797607,8704.0,9816.0,10088.0,-117.0,-65.0,-11.0,0.736097452730143,-0.5645442635113692,0.3345979488263871,0.16581473777012357
-143.53493094444275,8684.0,9880.0,9868.0,-138.0,-51.0,-391.0,0.7360218219910548,-0.5836386116626902,0.3098120901124616,0.14715405991532646
-143.5427303314209,8732.0,9892.0,9900.0,-143.0,-80.0,-409.0,0.7356753998128472,-0.6023500755679343,0.2817510580900749,0.1287339653651453
-143.55051374435425,8704.0,9852.0,9916.0,-98.0,-127.0,-412.0,0.7377923073600814,-0.6168275916972248,0.25060370989666275,0.11128348443195897
-143.55830359458923,8536.0,9924.0,9824.0,-76.0,-167.0,-469.0,0.7412591983917359,-0.6296889756099004,0.21360857834944022,0.09164043894769565
-143.56608772277832,8520.0,10020.0,9920.0,-125.0,-143.0,-565.0,0.7406392786697751,-0.6462310319526225,0.1720215623785507,0.06517280345210391
-143.5738444328308,8580.0,10136.0,9964.0,-133.0,-126.0,-606.0,0.7374169438915263,-0.662139485841749,0.12868914061597034,0.03502366683300045
-143.5816295146942,8680.0,10180.0,10224.0,-255.0,-49.0,-712.0,0.7238881074807055,-0.6848426153952651,0.08336820196439376,-0.005132532298895806
-143.58942413330078,8852.0,10220.0,10088.0,-347.0,-11.0,-1019.0,0.6997436403081615,-0.7109970721526814,0.021760196761982258,-0.06609459187767935
-143.59721446037292,8796.0,10012.0,10044.0,-355.0,-36.0,-640.0,0.6727643838190132,-0.7325491634714326,-0.01813316418080692,-0.10213224426555793
-143.60499501228333,8636.0,9780.0,9900.0,-350.0,-188.0,-589.0,0.6436439649318387,-0.7523457873278945,-0.063653472696056,-0.12508596288363133
-143.6127805709839,8576.0,9620.0,9816.0,-258.0,-437.0,-446.0,0.6183682978774516,-0.7677472161788269,-0.11453731767169209,-0.12274389227321698
-143.6205656528473,8716.0,9456.0,9888.0,-203.0,-576.0,-344.0,0.5942463279986664,-0.779926584938555,-0.16625042311551658,-0.10462609894331341
-143.62834930419922,8772.0,9356.0,9852.0,-114.0,-684.0,-205.0,0.5735833706066442,-0.7874961790156674,-0.21426919547563675,-0.0702893794926981
-143.63617157936096,8876.0,9344.0,10008.0,-52.0,-774.0,-100.0,0.5536697984808762,-0.7910917711167755,-0.2590183664589992,-0.02308787037344299
-143.643949508667,8864.0,9320.0,10024.0,59.0,-818.0,-9.0,0.5378967160619972,-0.7876286968826053,-0.2985677744407135,0.034138581725780756
-143.65172028541565,9004.0,9236.0,10144.0,84.0,-693.0,27.0,0.5246018310542648,-0.7808343797336265,-0.3284241888036721,0.08501848322080004
-143.65953516960144,9008.0,9652.0,10168.0,149.0,-566.0,-40.0,0.5181955496328222,-0.7676219698041911,-0.3555286880192078,0.12581429096096924
-143.66731190681458,9096.0,9796.0,10160.0,125.0,-385.0,-68.0,0.5150878509880296,-0.7551080875492515,-0.3759146286032937,0.15226448661553676
-143.67509484291077,8988.0,10232.0,10100.0,64.0,-185.0,-150.0,0.515158479867328,-0.7446401874304741,-0.3932046973103016,0.1597272609713394
-143.68290257453918,9012.0,10084.0,9944.0,25.0,-14.0,-273.0,0.5200097040937418,-0.7337006357153486,-0.41113880443371476,0.14912467363936852
-143.69067764282227,8952.0,10052.0,9852.0,-7.0,-41.0,-271.0,0.5215189776149087,-0.7235099886267674,-0.4303503708694619,0.13910359678064288
-143.69845867156982,8808.0,10044.0,9744.0,-19.0,-89.0,-208.0,0.5194505918212451,-0.7152972360352743,-0.44770741860432023,0.13445822438032992
-143.70623230934143,8748.0,9992.0,9812.0,-3.0,-217.0,-169.0,0.5126708345074084,-0.7060346564062513,-0.4680251621998596,0.14012896540893796
-143.71429634094238,8588.0,9552.0,9952.0,-8.0,-349.0,-64.0,0.49851840706998923,-0.6991301493465273,-0.48747578992974505,0.15831546456197457
-143.72240161895752,8700.0,9956.0,9756.0,53.0,-491.0,-25.0,0.48081099024071455,-0.6882931425453229,-0.509185767011583,0.1892173254796011
-143.7302963733673,8624.0,9800.0,9804.0,93.0,-535.0,24.0,0.4617579893369812,-0.6758211041409641,-0.5280901357707231,0.2261994760887303
-143.7381443977356,8464.0,9784.0,9976.0,151.0,-560.0,58.0,0.443187806129672,-0.6604599090292672,-0.5435754902427408,0.2681472794387147
-143.745952129364,8824.0,9660.0,10444.0,162.0,-570.0,70.0,0.42332647566525033,-0.6432632907979986,-0.5570608971629849,0.3109504632003915
-143.75375771522522,8920.0,9600.0,10312.0,209.0,-450.0,51.0,0.41146384746137604,-0.6251762932697906,-0.5646327053498708,0.34791092626563547
-143.7615897655487,8960.0,9816.0,10316.0,150.0,-421.0,-13.0,0.39904840752546317,-0.6058631257879318,-0.5754824486529544,0.3775052218900666
-143.7693910598755,9028.0,9800.0,10476.0,113.0,-270.0,44.0,0.38994010332273465,-0.5950023810883943,-0.5786537901870508,0.3988466790910475
-143.7771863937378,9000.0,9548.0,9728.0,-74.0,-175.0,-26.0,0.37816840014496844,-0.5899929738100563,-0.5884657342728715,0.4032431420039914
-143.7849838733673,9124.0,9548.0,10352.0,-3.0,-330.0,-149.0,0.36618313838724553,-0.5704975593791985,-0.6068445404280911,0.41494836745776464
-143.79276394844055,9464.0,9236.0,10072.0,107.0,-84.0,105.0,0.36327969209771716,-0.5694921253551931,-0.6003659156905669,0.4280973624595696
-143.80056190490723,8728.0,9340.0,10224.0,8.0,-161.0,118.0,0.35083568549239375,-0.5692801732564762,-0.599221280266266,0.44019116687890925
-143.8083508014679,8792.0,9508.0,9756.0,383.0,-137.0,54.0,0.3604525881982212,-0.5547163582641154,-0.5856465928537637,0.4683820682030632
-143.81614136695862,8840.0,9816.0,9912.0,390.0,-127.0,13.0,0.37213255501362325,-0.5375287114674648,-0.5727026037614764,0.49456240606417406
-143.8239016532898,8904.0,9988.0,9936.0,321.0,-137.0,0.0,0.3802296586605207,-0.5208957482704254,-0.5630332189020052,0.5168042381033116
-143.83169746398926,8844.0,10084.0,9876.0,220.0,-117.0,250.0,0.3730900922899225,-0.5203025835512374,-0.5453625404809636,0.5409886357634088
-143.83955645561218,8736.0,9960.0,9912.0,220.0,-130.0,105.0,0.3718878381746021,-0.5117925589596994,-0.5342763628575484,0.5606394389471837
-143.8473618030548,8632.0,9856.0,9796.0,224.0,-126.0,138.0,0.369206702283459,-0.5045679197012025,-0.52106076974221,0.5810277959211847
-143.85514378547668,8556.0,9780.0,9952.0,216.0,-183.0,245.0,0.3578404822360974,-0.4991395547602569,-0.504929470998861,0.6065114372075601
-143.8629274368286,8648.0,9716.0,10136.0,289.0,-170.0,269.0,0.34851184039211686,-0.4925552349540361,-0.4828606549924392,0.6346451177517609
-143.87070107460022,8464.0,9676.0,10144.0,337.0,-196.0,291.0,0.33837059502349454,-0.483203694247659,-0.457205659217462,0.6655693168020798
-143.87848472595215,8468.0,9476.0,9952.0,324.0,-203.0,280.0,0.32744211836778125,-0.47253250587695866,-0.4321678315572016,0.6947846107792026
-143.88626265525818,8876.0,9820.0,9984.0,339.0,-222.0,283.0,0.31564535325588144,-0.4595427096293842,-0.40586709142721067,0.7241963912440252
-143.89403915405273,9016.0,9928.0,10172.0,299.0,-178.0,256.0,0.3049825409967024,-0.44870991292334095,-0.3812865734428163,0.7485089262285108
-143.90182399749756,9052.0,9904.0,10228.0,510.0,-143.0,233.0,0.3046328139881023,-0.4328906595282966,-0.34215744575695656,0.7763586850470097
-143.9096074104309,9012.0,9848.0,10324.0,144.0,-34.0,191.0,0.2960934944955854,-0.43225234748133934,-0.32595381825626313,0.7869184576424849
-143.91738080978394,8968.0,9736.0,10360.0,81.0,51.0,175.0,0.2885781598828515,-0.43845829693843513,-0.3123592826856223,0.7917756285745337
-143.92516613006592,9200.0,9980.0,10248.0,105.0,43.0,98.0,0.28701001956288436,-0.441302986286649,-0.30018007323407997,0.7954676904803744
-143.93297505378723,8896.0,9704.0,10096.0,95.0,44.0,75.0,0.28663317754007156,-0.44379697593214784,-0.28950968581388586,0.7981665286810188
-143.94078993797302,8860.0,9640.0,10064.0,137.0,81.0,14.0,0.2930187472343649,-0.44620296070398685,-0.27730375096713117,0.7988401350256251
-143.94856882095337,8876.0,9612.0,10028.0,196.0,61.0,-13.0,0.3030217692520403,-0.44493393216456856,-0.26247545068521366,0.8008234769008289
-143.95634365081787,8856.0,9660.0,9980.0,190.0,30.0,-58.0,0.3151288927210376,-0.44048148380376867,-0.2505485792224973,0.8024308399158341
-143.96412682533264,8952.0,9704.0,10012.0,197.0,2.0,-66.0,0.3273518336875502,-0.4335550414055579,-0.2391272540585487,0.8047912520769853
-143.97190952301025,8908.0,9660.0,10020.0,210.0,-40.0,249.0,0.3168783679481721,-0.42962655684080636,-0.21593850591282132,0.8175449120676824
-143.97970628738403,8928.0,9824.0,10236.0,229.0,-85.0,-22.0,0.3253904162699295,-0.4165712590181058,-0.2026534446890857,0.8243306645487597
-143.98752546310425,8900.0,9912.0,9780.0,229.0,-122.0,40.0,0.3286249779971141,-0.4017380251325533,-0.18806113567326133,0.8338136435968624
-143.99532175064087,8840.0,9956.0,9944.0,175.0,-130.0,-62.0,0.3371033639360858,-0.3860014374744656,-0.18111116108914777,0.8393824870817604
-144.00309944152832,8704.0,10052.0,10044.0,120.0,-104.0,250.0,0.3211076179709535,-0.3785071560599319,-0.16681448699303927,0.8519361228529353
-144.01089310646057,8912.0,9952.0,10012.0,70.0,232.0,-90.0,0.33343388767129317,-0.39221422503060466,-0.15795200721618177,0.8426393105311601
-144.0186743736267,8836.0,9936.0,9992.0,2.0,-5.0,-152.0,0.3446099802429021,-0.389487150241867,-0.1630568475190724,0.8384248241736394
-144.02646350860596,8852.0,9800.0,10040.0,1.0,33.0,-89.0,0.3516456000026283,-0.39041954416978314,-0.16493055723289918,0.834695071759679
-144.03425216674805,8788.0,9676.0,10072.0,236.0,9.0,-131.0,0.3692909133655461,-0.381665368669362,-0.15180234978210824,0.8336137080595248
-144.04205870628357,8796.0,9660.0,10140.0,-40.0,-42.0,-62.0,0.37193652647729963,-0.3788859347190521,-0.15804984666582092,0.8325436413263763
-144.04984283447266,8804.0,9652.0,10120.0,-22.0,-57.0,-148.0,0.38117565971053746,-0.3731987198522416,-0.16629938410709813,0.8293204126213731
-144.05764031410217,8844.0,9652.0,9960.0,-36.0,-87.0,-187.0,0.39224950291694843,-0.3651410223477496,-0.17778460839005425,0.8253514368315125
-144.06542205810547,8896.0,9528.0,9844.0,-254.0,-133.0,-187.0,0.39542916049022586,-0.36100946426085195,-0.20643002105388547,0.8189594569670592
-144.0732033252716,8996.0,9724.0,9748.0,25.0,-215.0,-228.0,0.408534298941746,-0.3403609277022913,-0.2190899137491455,0.8180793208333796
-144.0809760093689,9036.0,9696.0,9820.0,38.0,-271.0,-498.0,0.4395525011980632,-0.3095631999604463,-0.2404611173649727,0.8081724289756266
-144.0887439250946,9028.0,9888.0,9964.0,27.0,-359.0,-238.0,0.4492768254419226,-0.2778149837780243,-0.25849558652626814,0.8087949064229354
-144.09653687477112,9204.0,9964.0,9792.0,40.0,-352.0,-275.0,0.4614301571230168,-0.24480153099250604,-0.2758461019056043,0.8068849661411694
-144.10432076454163,9460.0,9896.0,9756.0,-68.0,-293.0,-250.0,0.4703283991532806,-0.22054630048447885,-0.2975153330891131,0.8010213186110571
-144.11209893226624,9120.0,9684.0,9688.0,-100.0,-333.0,-187.0,0.4726276973926865,-0.19618590567808863,-0.32149132231393346,0.7967292386673115
-144.11986780166626,9068.0,9696.0,9728.0,-253.0,-348.0,-207.0,0.47259906676136865,-0.17625221754901074,-0.35657687612146116,0.7864084239889598
-144.12768745422363,9260.0,9372.0,10136.0,60.0,-313.0,-213.0,0.4782219445048046,-0.1453781882082842,-0.36833689173206857,0.7838985191824761
-144.1355104446411,9248.0,9396.0,10456.0,118.0,-247.0,-140.0,0.4812760495078453,-0.11880464661485626,-0.3721026286975325,0.784728267509988
-144.14331531524658,9276.0,9488.0,10204.0,145.0,-168.0,-94.0,0.48374936263031687,-0.09792467521922985,-0.3700022005381478,0.7870804811039969
-144.15108108520508,9456.0,9520.0,10156.0,54.0,-28.0,-144.0,0.49325051064050585,-0.08885037307783632,-0.3685482507464749,0.7829314988097764
-144.158873796463,9152.0,9580.0,10200.0,2.0,19.0,-64.0,0.4983405997276526,-0.0877910433586729,-0.3679566351195935,0.7801008229969673
-144.1666476726532,8968.0,9672.0,10112.0,-38.0,51.0,-69.0,0.5044672400120824,-0.09048668210836885,-0.3687143359795346,0.7754835282317619
-144.17442083358765,8856.0,9556.0,9900.0,-15.0,68.0,-44.0,0.50960128352435,-0.09411979718957769,-0.36694806727316304,0.7725264471406904
-144.18224120140076,8696.0,9580.0,9956.0,-242.0,16.0,-81.0,0.5135598969953095,-0.10313223474407393,-0.3829999481416184,0.7608751632681788
-144.19004201889038,8592.0,9596.0,9788.0,41.0,-81.0,-45.0,0.5142891475830591,-0.09420223625304831,-0.3841772248191868,0.760947088366493
-144.197829246521,8596.0,9644.0,9776.0,55.0,-149.0,-107.0,0.5168791308063632,-0.07803286581555922,-0.3879145366698677,0.759123934696879
-144.2056176662445,8504.0,9536.0,9556.0,55.0,-232.0,-84.0,0.5149401322027292,-0.057115376090549314,-0.3950857044286025,0.7586051543571438
-144.2133984565735,8572.0,9384.0,9140.0,73.0,-279.0,-186.0,0.5178693567394868,-0.028726163570879523,-0.40340820693051355,0.7538222306736764
-144.2211937904358,8560.0,9000.0,8748.0,107.0,-431.0,-206.0,0.5161507357605911,0.0119199916785717,-0.4158520809508048,0.7486744142423116
-144.22897672653198,8376.0,8492.0,8300.0,332.0,-486.0,-382.0,0.522255992495382,0.07256982368295581,-0.4147315643464429,0.7416063838236834
-144.23676419258118,7976.0,7532.0,8168.0,505.0,-593.0,-433.0,0.5241454200611868,0.14939367620028388,-0.40494123143447813,0.7341496490665749
-144.24458169937134,7624.0,6700.0,8204.0,910.0,-712.0,-593.0,0.5218806411520107,0.25613903343623506,-0.36891035125191984,0.7252162054727557
-144.25237822532654,7280.0,6344.0,8652.0,1375.0,-839.0,-673.0,0.5010574401577124,0.3891696243107202,-0.30133336012789425,0.7118192546219061
-144.26016068458557,7184.0,5944.0,9568.0,1901.0,-1023.0,-681.0,0.44344420806158236,0.5432701477119799,-0.20071044043941785,0.6840541645515029
-144.26795315742493,8104.0,7432.0,10056.0,2524.0,-1025.0,-686.0,0.3369150316633786,0.6935466238859234,-0.05533861217648343,0.6343650210549779
-144.2757339477539,9396.0,10136.0,11020.0,2852.0,-1583.0,-546.0,0.17963319002644842,0.8335782234502768,0.08566849379357014,0.5153059009962365
-144.28356909751892,10604.0,12868.0,11352.0,2493.0,-1553.0,-311.0,0.023173273594524875,0.9103739795236342,0.18990973283835355,0.3669012267225064
-144.29135155677795,11804.0,14804.0,11284.0,1186.0,-1248.0,-136.0,-0.04544676557472631,0.9398383099162558,0.2335595302947103,0.24512953416727645
-144.2991328239441,12392.0,15736.0,10772.0,-206.0,-719.0,-100.0,-0.011660871191597756,0.95191562627875,0.23970366849656416,0.19042798071364767
-144.30691528320312,11920.0,15368.0,10216.0,-1021.0,-184.0,-10.0,0.07694430511202587,0.951882063023792,0.22284497102530373,0.1958066160606645
-144.31470274925232,11056.0,14036.0,9732.0,-1572.0,108.0,-261.0,0.20798349861877108,0.9254107746123933,0.21629388324201482,0.23146213212030067
-144.32246279716492,10368.0,11608.0,10072.0,-1784.0,175.0,-471.0,0.353778288340742,0.8692364876987696,0.21861397118943784,0.26735142182637645
-144.3302435874939,9628.0,9884.0,10160.0,-1478.0,9.0,-323.0,0.4692863681935822,0.8101177885547686,0.20707225846062496,0.2839023653843431
-144.33803153038025,8800.0,8948.0,9956.0,-892.0,-270.0,-162.0,0.5394990501406177,0.7746270708564754,0.18467769250883972,0.27347362922830165
-144.3458092212677,8264.0,8272.0,9808.0,-169.0,-554.0,1.0,0.559200879138794,0.778835362738618,0.15422188803975884,0.23859057770091693
-144.35361433029175,8080.0,8336.0,9800.0,438.0,-612.0,-7.0,0.5367428879393004,0.8110434757613528,0.13359411149959488,0.1904420280404452
-144.36139559745789,7956.0,8852.0,9824.0,694.0,-563.0,-106.0,0.4945142508769722,0.8490006469382924,0.1258166929702438,0.13719955155895935
-144.3691668510437,8080.0,9388.0,9888.0,558.0,-359.0,-289.0,0.45975006827372117,0.8724178934655787,0.13810098422032882,0.09189674662776394
-144.3769690990448,8108.0,9780.0,10212.0,214.0,-64.0,-473.0,0.44765241096939207,0.874856663943023,0.17304983913222655,0.06547434370870413
-144.38474321365356,8096.0,9940.0,10236.0,-244.0,154.0,-653.0,0.46688253098187055,0.8528767508442312,0.2270579880609945,0.055377072792295846
-144.39251804351807,7952.0,9744.0,10364.0,-638.0,139.0,-756.0,0.5134242910606827,0.8081070059535644,0.28479100917118755,0.04746204138949003
-144.40034008026123,7924.0,9356.0,10276.0,-821.0,-33.0,-750.0,0.5726607051406838,0.7492362664887242,0.33119356693757385,0.03186777345499409
-144.40813302993774,7984.0,9136.0,9904.0,-733.0,-313.0,-633.0,0.6290189815659669,0.6924015131953238,0.35343202339591806,0.001034501235704081
-144.41592645645142,8000.0,8956.0,9724.0,-587.0,-765.0,-622.0,0.6848157401766445,0.6378288605894881,0.34713039104230636,-0.06084602057855024
-144.4237048625946,8132.0,9196.0,9164.0,-410.0,-717.0,-645.0,0.7230161397257837,0.5874941827774935,0.3408119388840901,-0.12627537057042446
-144.43152499198914,8364.0,9164.0,9236.0,-228.0,-976.0,-726.0,0.7514651997213795,0.5376056366453494,0.31697384459353073,-0.21402760312270921
-144.43930912017822,8540.0,9384.0,9140.0,-74.0,-1128.0,-807.0,0.7655661677555916,0.4857804107826196,0.28002318466908305,-0.31545657599053367
-144.44708919525146,9132.0,9672.0,9236.0,38.0,-1315.0,-831.0,0.766281792074436,0.427854399335298,0.2240951418231961,-0.42371475725523594
-144.45490765571594,9260.0,9740.0,9264.0,76.0,-1326.0,-733.0,0.7557747122988682,0.36633196795200507,0.15836828443717255,-0.5191579335716647
-144.46269822120667,9548.0,10384.0,9576.0,78.0,-1335.0,-622.0,0.7375542605785579,0.2998681439377082,0.08569667138596111,-0.5989565004799073
-144.47047972679138,9796.0,10672.0,10104.0,-76.0,-1197.0,-485.0,0.7186507132586366,0.22726760536053361,0.024866673624309787,-0.6567132071379433
-144.47826385498047,10036.0,10804.0,10120.0,-140.0,-1054.0,-385.0,0.698309476127792,0.15641575960210446,-0.02576089482029442,-0.6980217489421681
-144.48604226112366,10048.0,10724.0,10236.0,-234.0,-835.0,-354.0,0.6758385935527631,0.09171725736150875,-0.05768567044286557,-0.7290421823133851
-144.49382829666138,10008.0,10436.0,10096.0,-329.0,-582.0,-279.0,0.6564928785272677,0.03656410495006263,-0.06903069877842055,-0.7502765685387929
-144.50159454345703,9820.0,9988.0,9980.0,-263.0,-349.0,-171.0,0.6434908639110184,-0.00036340139858414265,-0.07152325985696285,-0.7621048479716608
-144.50939655303955,9476.0,9592.0,9768.0,-108.0,-277.0,-84.0,0.6359255126285962,-0.02434455007023035,-0.08019325526831507,-0.7671865008453982
-144.51717329025269,9440.0,9356.0,9552.0,145.0,-281.0,52.0,0.6374720348823307,-0.03548174329359274,-0.10566518308673505,-0.7623682310531276
-144.52495098114014,9024.0,9024.0,9412.0,383.0,-383.0,230.0,0.6495317171728454,-0.041732424026392774,-0.15185576746009388,-0.7438459377186124
-144.53272223472595,8844.0,9092.0,9424.0,576.0,-474.0,384.0,0.6684282310524119,-0.044810960304536816,-0.21444431725654375,-0.710780776727328
-144.5405113697052,8620.0,9076.0,9536.0,712.0,-536.0,473.0,0.6877828620947516,-0.045160599877251316,-0.28719633151560625,-0.6651567649745861
-144.548326253891,8568.0,9256.0,9668.0,759.0,-576.0,452.0,0.6995189695497687,-0.04408465763180264,-0.3627633078678396,-0.6141111761450849
-144.55610346794128,8632.0,9444.0,9860.0,758.0,-575.0,466.0,0.7060744073234502,-0.043000208024772175,-0.43503057222835184,-0.5570981194182382
-144.56387305259705,8608.0,9576.0,9904.0,681.0,-587.0,477.0,0.7066729491760808,-0.04720458914258061,-0.5005703541357233,-0.497809592341386
-144.57165050506592,8848.0,9808.0,9628.0,600.0,-549.0,363.0,0.6988134841924514,-0.04952346346713059,-0.5572337426790052,-0.4457551983959072
-144.57942724227905,8880.0,9840.0,9556.0,513.0,-586.0,367.0,0.6849133499546425,-0.05854400252556731,-0.6095087498912674,-0.3949245328264379
-144.58720135688782,8940.0,9928.0,9700.0,379.0,-522.0,256.0,0.6667400101836833,-0.06724168504708862,-0.651154110469561,-0.35627887817113835
-144.59499835968018,8980.0,10108.0,9472.0,263.0,-260.0,152.0,0.6578969950710006,-0.06850058896458386,-0.6730436521538345,-0.33089493118432806
-144.60277795791626,9172.0,10096.0,9652.0,213.0,-532.0,179.0,0.6322940312676723,-0.08193267926142057,-0.7075927615656193,-0.30463712490808104
-144.61055183410645,9324.0,10144.0,9632.0,196.0,-553.0,125.0,0.602119715198794,-0.09332015446678166,-0.7413133019776431,-0.28142101138725006
-144.61836862564087,9300.0,10152.0,9624.0,232.0,-569.0,195.0,0.5711622847396937,-0.10747181915914207,-0.7740129264136343,-0.25125175088376944
-144.62615370750427,9296.0,10108.0,9568.0,273.0,-614.0,280.0,0.5373853029894763,-0.1259201220374588,-0.8062796134147865,-0.21277768677350276
-144.63393139839172,9296.0,10020.0,9548.0,356.0,-606.0,283.0,0.5028959317843599,-0.1400253345735571,-0.836313901559101,-0.16753401305794058
-144.64178204536438,9164.0,9936.0,9648.0,435.0,-635.0,375.0,0.46613187859510685,-0.15709905819346567,-0.8635057010679347,-0.11135017689836452
-144.64959979057312,9076.0,9868.0,9692.0,466.0,-688.0,348.0,0.42283115505891444,-0.1704812816875886,-0.8884744389029088,-0.052565371889322074
-144.65739154815674,9168.0,9840.0,9596.0,528.0,-734.0,407.0,0.37431974477340757,-0.18519160265922222,-0.9085083908289536,0.014188120758758057
-144.66517400741577,9232.0,9844.0,9500.0,615.0,-706.0,478.0,0.32639496821436725,-0.20124750586566698,-0.9192108660027514,0.08953853879566266
-144.67296433448792,9264.0,9860.0,9608.0,620.0,-624.0,588.0,0.2815048536753612,-0.22489689290639886,-0.9179019509074489,0.16623000161992532
-144.68074011802673,9224.0,9968.0,9492.0,660.0,-559.0,294.0,0.24470398915766298,-0.22338450124461687,-0.9133912345284355,0.23650745227294717
-144.68852996826172,9184.0,9916.0,9928.0,602.0,-471.0,519.0,0.2075714958408078,-0.24137070538805733,-0.8979915089216491,0.3037523771092182
-144.6963381767273,9180.0,9956.0,9848.0,551.0,-314.0,435.0,0.18268748112416014,-0.25655533962555266,-0.8779350240771338,0.3606032937298406
-144.70412707328796,9128.0,10008.0,9792.0,463.0,-240.0,350.0,0.16346186270944557,-0.26801036332209804,-0.8580661610536494,0.40641497000746396
-144.71193480491638,9080.0,10084.0,9892.0,447.0,-120.0,309.0,0.15384448985993535,-0.28016200706851335,-0.835708929034821,0.44657777448788377
-144.71976518630981,9040.0,9820.0,9728.0,169.0,-49.0,272.0,0.14379753894273023,-0.2956777212267984,-0.8227994937295321,0.4635708641433018
-144.72760581970215,9080.0,9868.0,9748.0,316.0,-173.0,399.0,0.12329867698656814,-0.31299561343643917,-0.8010053536807931,0.4951985516917597
-144.73539423942566,8964.0,10096.0,9720.0,529.0,-222.0,378.0,0.10574593741373521,-0.32352715071668064,-0.7688174559753057,0.5413572746877015
-144.7431845664978,8884.0,10272.0,9908.0,688.0,-219.0,491.0,0.08706403675103408,-0.33876776701494016,-0.7223576609367254,0.5965363888501258
-144.7509663105011,9000.0,10260.0,9824.0,467.0,-85.0,162.0,0.08703148253993451,-0.34064794146489336,-0.6932159232916096,0.6291551356522435
-144.75874280929565,9076.0,10128.0,9868.0,309.0,93.0,99.0,0.0964049271642721,-0.3492093582826268,-0.6722828526309447,0.6455963755820558
-144.7665250301361,9144.0,10008.0,9800.0,264.0,107.0,67.0,0.10695837857128634,-0.3567917248702133,-0.6542255663454893,0.658216133695812
-144.77430963516235,9140.0,9872.0,9664.0,295.0,113.0,12.0,0.12190196836191995,-0.36103285331289114,-0.6355794208140773,0.6714417240355889
-144.78209376335144,9028.0,9856.0,9648.0,409.0,105.0,38.0,0.13833469209057925,-0.3646444267021481,-0.6088462463602964,0.6907996839404631
-144.789865732193,8944.0,9772.0,9716.0,444.0,10.0,140.0,0.14447782813924542,-0.366968332176556,-0.576984218695305,0.7152269651881787
-144.79766178131104,8892.0,9892.0,9508.0,487.0,-60.0,130.0,0.14883278853117135,-0.36321039319218956,-0.5425978847511186,0.7426402539580134
-144.8054392337799,9188.0,9968.0,9792.0,458.0,-109.0,147.0,0.1485630645213658,-0.3567555807848632,-0.5091417684302565,0.7690442972147877
-144.81321716308594,8860.0,10076.0,9872.0,422.0,-125.0,115.0,0.1483481147794763,-0.3476510048786296,-0.47841457153969896,0.7926229326651739
-144.82099795341492,8872.0,10160.0,10216.0,332.0,-22.0,95.0,0.15089695598238023,-0.34555327197962454,-0.4525686836471532,0.8080870197455903
-144.82877588272095,8976.0,10204.0,9828.0,234.0,19.0,65.0,0.1541194850252213,-0.34620829552665794,-0.433678714648239,0.8175021546792022
-144.83655762672424,9076.0,10188.0,9480.0,288.0,35.0,125.0,0.15520191183770546,-0.34933292061071125,-0.40864547888973884,0.8287869145458847
-144.84435200691223,9072.0,10004.0,9560.0,277.0,31.0,104.0,0.15720858058134748,-0.3513097373804996,-0.3848023095638779,0.8389243786942587
-144.8521385192871,9032.0,10212.0,9376.0,367.0,34.0,109.0,0.16155988930657328,-0.35211704956479334,-0.3538306801972094,0.8513024346988635
-144.8599135875702,9040.0,9888.0,9396.0,411.0,-38.0,64.0,0.16817739661189918,-0.345124287086317,-0.32155092987643413,0.8655695172703382
-144.86769676208496,9160.0,9732.0,9464.0,465.0,30.0,94.0,0.17579961657915924,-0.3427749670411652,-0.28280260864198387,0.8784204581667241
-144.87550926208496,9252.0,9876.0,9252.0,481.0,14.0,7.0,0.18985407651899772,-0.3361986627380024,-0.24517494167273596,0.8892778737706611
-144.88329362869263,9312.0,9952.0,9220.0,529.0,99.0,17.0,0.20596865938237774,-0.3349521658458587,-0.2016387680938583,0.8970650841209826
-144.89106917381287,9356.0,9976.0,9616.0,553.0,156.0,-48.0,0.22836672096946467,-0.33578208925093594,-0.15662379028882353,0.9003155100338404
-144.8988857269287,9384.0,10112.0,9696.0,595.0,227.0,-16.0,0.24979099601039842,-0.34082893078553983,-0.10553246607578187,0.9001683158474767
-144.90666604042053,9384.0,9984.0,9704.0,646.0,224.0,-13.0,0.27161519277257645,-0.34341364329168783,-0.05008001762649027,0.8976548604507057
-144.91445517539978,9348.0,9876.0,9600.0,679.0,292.0,-7.0,0.2931814775385491,-0.3492268108198803,0.009914374378240763,0.8899364926856167
-144.92224025726318,9244.0,9944.0,9660.0,689.0,354.0,-102.0,0.321044848144448,-0.358131197625773,0.0693147927796908,0.873995257578064
-144.93002223968506,9176.0,9196.0,10128.0,420.0,395.0,144.0,0.3203569507932385,-0.37489758549168145,0.11683495803560692,0.8620747166294717
-144.93779873847961,9160.0,9756.0,9856.0,734.0,314.0,503.0,0.30227696024500306,-0.37139621178112453,0.19670289628410115,0.8555708408852637
-144.94565224647522,9116.0,9916.0,9648.0,840.0,373.0,89.0,0.31539433598112554,-0.37413225134462746,0.27133515627579646,0.8288116217233049
-144.95343542099,8968.0,10148.0,9724.0,515.0,556.0,-7.0,0.31880811386964614,-0.39926733880208304,0.3230056824908935,0.7966268309411713
-144.96122336387634,8904.0,10320.0,9756.0,689.0,737.0,-73.0,0.32580287227912447,-0.43153910806360257,0.38740769789722296,0.7466871916916192
-144.96900367736816,8888.0,10740.0,9296.0,652.0,883.0,-193.0,0.3314683156690483,-0.4746816018750092,0.4456729901094246,0.6827750130429675
-144.97678089141846,8948.0,10288.0,9488.0,525.0,1062.0,-195.0,0.3217250597842002,-0.5273655956802981,0.49691271123015307,0.6094721255459643
-144.98455905914307,8976.0,10268.0,9496.0,440.0,1078.0,-275.0,0.3081356728072763,-0.5810420397835788,0.5350493210468881,0.5302497328570843
-144.9923346042633,8920.0,10280.0,9532.0,380.0,968.0,-247.0,0.29232258494594743,-0.6243892105433054,0.5637215871768771,0.4548665653116413
-145.00010228157043,8972.0,10240.0,9720.0,385.0,940.0,-193.0,0.2735634310011495,-0.6586660226348877,0.5900988829505104,0.378292781038413
-145.00788521766663,8996.0,10036.0,9544.0,376.0,828.0,-129.0,0.25592888046671747,-0.68145928674198,0.6129250789196379,0.30730521682444667
-145.01568031311035,8864.0,10276.0,9572.0,398.0,737.0,-90.0,0.2418902086213216,-0.6952573680936873,0.6330237209214366,0.23955643977015495
-145.0235047340393,8708.0,10392.0,9228.0,348.0,677.0,-64.0,0.2263897027805935,-0.7040280547051724,0.6492885885512689,0.17752895380772757
-145.0312864780426,8920.0,10288.0,9496.0,361.0,633.0,-80.0,0.21345404214564534,-0.709780846998277,0.661139784156832,0.11637313663879241
-145.039071559906,8996.0,10324.0,9416.0,353.0,574.0,-22.0,0.20202250294538487,-0.709076731795783,0.672907340172434,0.05994003896856595
-145.04692268371582,8968.0,10300.0,9468.0,284.0,537.0,44.0,0.18751168758165337,-0.7033031768230104,0.6856293309320088,0.010790229685592246
-145.05472040176392,8964.0,10288.0,9600.0,262.0,259.0,10.0,0.18793640931274588,-0.6983047733824261,0.6903806881558533,-0.02061200978558556
-145.06248474121094,8888.0,10220.0,9304.0,298.0,478.0,34.0,0.17708754296623747,-0.6896778342005699,0.6989179789517894,-0.06706821778262781
-145.0702748298645,8996.0,10104.0,9632.0,291.0,438.0,66.0,0.16803707844857418,-0.6778724136521362,0.7072054896743758,-0.11005874090830513
-145.07805490493774,8936.0,10068.0,9716.0,249.0,397.0,29.0,0.15835376690089822,-0.6680652235216364,0.7117553813622155,-0.1483820027200368
-145.08582735061646,8980.0,10128.0,9776.0,8.0,374.0,55.0,0.13616474694294137,-0.6593455725326578,0.719634235763678,-0.1698503588114351
-145.09359693527222,9044.0,10084.0,9852.0,195.0,362.0,58.0,0.1253654537782862,-0.6476038144067185,0.7239037719870428,-0.20212899709780419
-145.10136723518372,9000.0,10092.0,9768.0,197.0,337.0,18.0,0.11539499942183468,-0.6380064667202252,0.7247040718638229,-0.23331470325636053
-145.1091558933258,8920.0,9980.0,9608.0,176.0,268.0,-28.0,0.1075662121348725,-0.6323114755528785,0.7219639872784472,-0.25957601769829053
-145.1169695854187,8984.0,10064.0,9716.0,161.0,510.0,-17.0,0.08376912000279832,-0.6196534265234895,0.7213651991413583,-0.29773245540149545
-145.12475061416626,8916.0,9956.0,9408.0,212.0,503.0,-27.0,0.06271856680061502,-0.6060563460556133,0.7172375489287662,-0.33813072204526334
-145.13252472877502,8908.0,10020.0,9244.0,198.0,167.0,-84.0,0.06016624603902445,-0.6051489511684869,0.7076393323846013,-0.3597517824827664
-145.14030003547668,8848.0,10028.0,8996.0,208.0,83.0,-97.0,0.06288935101086245,-0.6073227883660418,0.6962338339721049,-0.3774419275772527
-145.14812469482422,8824.0,10172.0,9028.0,281.0,67.0,-85.0,0.07081247512668143,-0.608547532793525,0.682571311190836,-0.3984368191276622
-145.1558859348297,8776.0,10224.0,9296.0,266.0,6.0,-92.0,0.0812860410898329,-0.6120103711331532,0.6682348903929827,-0.41508796225725547
-145.16367483139038,8796.0,10120.0,9460.0,271.0,40.0,-80.0,0.09043072860858016,-0.6131324783362793,0.6541863377179405,-0.43351018774155925
-145.1714973449707,8832.0,10200.0,9656.0,282.0,-40.0,-120.0,0.10315791917648716,-0.6190651891067473,0.6365055444994264,-0.4483050603873365
-145.17928767204285,8880.0,10156.0,9568.0,181.0,-99.0,-125.0,0.1134519814848815,-0.6281331068133174,0.6215956933868167,-0.45408836363109584
-145.1870789527893,8716.0,9988.0,9580.0,98.0,-58.0,-120.0,0.11713465897176115,-0.6359226796887698,0.6104492047637764,-0.4574205783830636
-145.19489073753357,8976.0,10116.0,9628.0,-1.0,-91.0,-158.0,0.11553489802015775,-0.6479196709335697,0.6006660785238286,-0.45392956443440907
-145.20267724990845,9068.0,10156.0,9660.0,-37.0,-94.0,-110.0,0.1139318800681098,-0.657744529147915,0.594866396392741,-0.44780088378971256
-145.21046018600464,9156.0,10108.0,9668.0,-15.0,-107.0,-154.0,0.11252059411954939,-0.6699971699377185,0.5854218911136305,-0.44240718527095846
-145.21824979782104,9176.0,9996.0,9492.0,72.0,-117.0,-209.0,0.11453950370380446,-0.6843393533888212,0.5690869395050662,-0.441248690399658
-145.22602581977844,9080.0,10060.0,9372.0,136.0,-147.0,-196.0,0.12230743691328289,-0.6981822948285417,0.5504589327152022,-0.4411092126193865
-145.2338161468506,9036.0,10060.0,9572.0,163.0,-174.0,-234.0,0.1314654965550461,-0.7140931468470222,0.5277916851928354,-0.4407082230716367
-145.24159932136536,9024.0,10148.0,9636.0,276.0,-230.0,-195.0,0.1515989635362677,-0.7283041083632196,0.5020115193230325,-0.4411069195364836
-145.24942350387573,9004.0,10136.0,9432.0,349.0,-202.0,-242.0,0.17310712619866722,-0.741452060660558,0.4700690502440388,-0.4464502801030797
-145.25720238685608,8968.0,10032.0,9684.0,319.0,-248.0,-275.0,0.19297425901722032,-0.7568970048256525,0.4356422820268465,-0.4473071221802225
-145.26499342918396,8828.0,10068.0,9492.0,352.0,-195.0,-313.0,0.21115522072553408,-0.7697246531837172,0.39748520060708126,-0.4527062472949825
-145.27277064323425,8792.0,10200.0,9676.0,270.0,-167.0,-368.0,0.2202922943823674,-0.7834092937553467,0.35863145244616645,-0.45730150317908874
-145.28065752983093,8928.0,10080.0,9628.0,220.0,-196.0,-360.0,0.22685755273850164,-0.7976096244722,0.32113709404967034,-0.45741174508329724
-145.28850388526917,9000.0,10092.0,9632.0,117.0,-201.0,-394.0,0.22467012943758105,-0.8137048061953719,0.2847646728126274,-0.45422120429474666
-145.29631805419922,9136.0,10080.0,9652.0,1.0,-173.0,-365.0,0.21437844157001815,-0.829089148280782,0.2551864148500259,-0.4489242270907733
-145.30410051345825,9224.0,10072.0,9560.0,-71.0,-182.0,-332.0,0.2001113619802854,-0.844452446629491,0.23034460596457895,-0.4402236598490416
-145.31186628341675,9380.0,10020.0,9416.0,-87.0,-127.0,-278.0,0.18543584842868974,-0.8560951563333563,0.21083721745998352,-0.43389203398291326
-145.31967401504517,9368.0,10056.0,9412.0,-64.0,-112.0,-268.0,0.1724425226735957,-0.8659940505617494,0.19129945998645617,-0.42862850742164954
-145.32745885849,9512.0,10100.0,9460.0,-11.0,-15.0,-211.0,0.1638743198214749,-0.8700736447929421,0.17544978772069864,-0.43050485703245644
-145.3352439403534,9424.0,10124.0,9388.0,41.0,118.0,-263.0,0.1551815990016346,-0.868774997633876,0.15551676492082678,-0.44380537473775
-145.34304928779602,9328.0,10052.0,9296.0,104.0,195.0,-249.0,0.15064375528378895,-0.8627982824629042,0.1351321065123472,-0.4632762637591053
-145.35087537765503,9248.0,10104.0,9580.0,136.0,259.0,-330.0,0.14431150504925314,-0.8537606363586763,0.10804533047158252,-0.48846000028470515
-145.3586618900299,9108.0,10000.0,9596.0,233.0,323.0,-302.0,0.14554533781281648,-0.839060587309319,0.0795352490646633,-0.5181390060797544
-145.366436958313,9052.0,9952.0,9748.0,206.0,314.0,-310.0,0.14423255421608827,-0.823598862163031,0.05139024709554524,-0.5461143900791505
-145.3742446899414,9016.0,9996.0,9792.0,177.0,333.0,-430.0,0.13472594543377095,-0.8063599707663209,0.016141607324828885,-0.5756491689264266
-145.3820333480835,9048.0,9740.0,9872.0,124.0,345.0,-325.0,0.1264489246353959,-0.7872324667664955,-0.00897099926615586,-0.6034859019889836
-145.38982033729553,9056.0,10080.0,9624.0,42.0,325.0,-325.0,0.11229888388571718,-0.7686901948373472,-0.029982296530709007,-0.6289717059881853
-145.3976125717163,9176.0,10032.0,9672.0,241.0,355.0,-278.0,0.11394000841377351,-0.7452779889057418,-0.05840924797755217,-0.6543445220111338
-145.40539360046387,9100.0,10044.0,9508.0,-46.0,293.0,-148.0,0.1038589675199361,-0.727842061416623,-0.06255416695135088,-0.6749416454001904
-145.41318321228027,9164.0,9992.0,9512.0,7.0,309.0,-84.0,0.10091338456014995,-0.7087332312934242,-0.06556604012851582,-0.6951365262010496
-145.4209668636322,9056.0,10040.0,9512.0,89.0,271.0,5.0,0.10814722480467968,-0.6912105898351274,-0.06834556197162228,-0.7112390473150392
-145.42875266075134,9020.0,10112.0,9484.0,146.0,323.0,66.0,0.12282368128739209,-0.6697284156204273,-0.0704483705544911,-0.7289823178320461
-145.43652772903442,8912.0,10080.0,9312.0,282.0,313.0,37.0,0.14339082528132505,-0.6464581475524893,-0.08293318592742843,-0.7447503080630924
-145.44432497024536,8756.0,10108.0,9332.0,314.0,312.0,61.0,0.1671050688834829,-0.6220905967147893,-0.09604949639767842,-0.7588502353391189
-145.4521176815033,8648.0,9936.0,9404.0,291.0,328.0,62.0,0.18952103379646065,-0.5960629783977947,-0.10722473679868164,-0.772847694795504
-145.4599051475525,8580.0,9964.0,9640.0,15.0,294.0,-28.0,0.1910005343296538,-0.5753886403337111,-0.10493383622993803,-0.7883118662526769
-145.46768927574158,8760.0,10112.0,9712.0,251.0,323.0,-17.0,0.2051584545554255,-0.5483306183085488,-0.1177507908607027,-0.8021086539873966
-145.4755187034607,8948.0,10208.0,9624.0,240.0,308.0,-7.0,0.21908174407868466,-0.5219464853762793,-0.12946549528586998,-0.8141337367688282
-145.48329997062683,9036.0,10036.0,9576.0,247.0,289.0,-23.0,0.23172250877387604,-0.4959994566792799,-0.14264021070228303,-0.8245865559128456
-145.49108624458313,9104.0,10060.0,9480.0,264.0,233.0,27.0,0.247757950878666,-0.47384536207319844,-0.15588000522579343,-0.8305347642265981
-145.49889135360718,9052.0,10092.0,9292.0,277.0,509.0,91.0,0.2722547114382999,-0.43147299101120523,-0.1611848915611127,-0.8448241597278838
-145.50667238235474,9004.0,10052.0,9548.0,5.0,175.0,106.0,0.2825530074346592,-0.419719196643794,-0.15360876514382824,-0.8487661287005424
-145.51444053649902,9196.0,10096.0,9468.0,290.0,140.0,140.0,0.30515544286903196,-0.4037377879754716,-0.1666750811150408,-0.8462241851798923
-145.5222306251526,8808.0,10140.0,9448.0,274.0,119.0,80.0,0.32220974999312346,-0.3885193370685197,-0.18109880117848748,-0.8440597288965525
-145.5300076007843,8748.0,10172.0,9552.0,279.0,143.0,108.0,0.34162144846112774,-0.3715299115957763,-0.19412810431400507,-0.841174529961771
-145.53779101371765,8796.0,10160.0,9488.0,315.0,100.0,138.0,0.3633608416776417,-0.3567986474267541,-0.20993992458764585,-0.834618986121145
-145.54559326171875,8864.0,10208.0,9540.0,398.0,23.0,53.0,0.37967939518283716,-0.34309302710494727,-0.23664806566216695,-0.8259106638395667
-145.5533802509308,8892.0,10048.0,9516.0,396.0,14.0,60.0,0.3957843930653127,-0.32981862454047034,-0.2630052222543501,-0.8157221599166556
-145.56114602088928,8928.0,10124.0,9520.0,423.0,38.0,44.0,0.4115531690534873,-0.31310125036784564,-0.29056178847285297,-0.8050872270379033
-145.56894397735596,8960.0,10200.0,9640.0,397.0,79.0,255.0,0.44181168027056944,-0.29928902705496385,-0.3085921263466388,-0.7874004172070581
-145.57672715187073,8936.0,10312.0,9576.0,408.0,101.0,8.0,0.45530685613433625,-0.2764272957194689,-0.33249996384133995,-0.778284903479308
-145.58449912071228,8956.0,10364.0,9564.0,377.0,73.0,29.0,0.46809901923117564,-0.25695680197268095,-0.35449380907985867,-0.7675875516440042
-145.59231328964233,9036.0,10360.0,9372.0,304.0,111.0,-9.0,0.47742759736844553,-0.23649545036696415,-0.3705575911241703,-0.760802118087859
-145.60009837150574,9212.0,10332.0,9588.0,206.0,112.0,-19.0,0.48380899585323245,-0.21957286235905552,-0.3800493058375115,-0.7571519918611874
-145.60789394378662,8752.0,10108.0,9572.0,148.0,82.0,-23.0,0.4876656678187856,-0.20686562690117571,-0.38691528581493656,-0.7547750462491375
-145.6156747341156,9128.0,9964.0,9544.0,142.0,56.0,5.0,0.4922765522648788,-0.19703581984081459,-0.3939197350811912,-0.7507782123260014
-145.62346959114075,8864.0,9896.0,9480.0,465.0,76.0,6.0,0.5027229666383638,-0.17188313791199922,-0.42080607960188837,-0.7352877321742396
-145.6312563419342,8724.0,9960.0,9436.0,821.0,193.0,-99.0,0.5142353039106581,-0.11923974479353132,-0.4653214930403906,-0.7105067512614842
-145.63904762268066,8624.0,10124.0,9692.0,1059.0,275.0,-162.0,0.523868812051453,-0.047594030112633696,-0.5178678663239927,-0.6746177799958079
-145.64687538146973,8796.0,10336.0,9796.0,1258.0,405.0,-231.0,0.5302319561743994,0.04398978412875053,-0.57029617999599,-0.6258444204638698
-145.6546561717987,8708.0,10644.0,9916.0,1192.0,386.0,-318.0,0.5242824098174513,0.13517119833903474,-0.6122681353654649,-0.5761809024184091
-145.66244554519653,9136.0,11108.0,9892.0,963.0,319.0,-305.0,0.5125745093278457,0.21059692230528068,-0.6396375498026875,-0.5327101590783453
-145.6702425479889,9624.0,10576.0,9816.0,334.0,323.0,-1.0,0.5241286141749207,0.24030871498636552,-0.6400596737015208,-0.5078036346913851
-145.67802596092224,9204.0,11256.0,9848.0,-22.0,467.0,-227.0,0.5401957515140198,0.2723010671848421,-0.6122123478530538,-0.5091529436156204
-145.68582344055176,8564.0,11588.0,9660.0,-106.0,770.0,-195.0,0.5739265568334417,0.3110668900967152,-0.5650658698010644,-0.5045257773720135
-145.69360852241516,8440.0,11644.0,9524.0,-99.0,1001.0,-380.0,0.6067269077371594,0.3671717093795421,-0.49796100009904365,-0.4991014302117053
-145.70140099525452,8032.0,11516.0,9408.0,-141.0,1264.0,-488.0,0.6405642806624181,0.43275083036147655,-0.40633062147545734,-0.4871340136063793
-145.70918011665344,8148.0,10804.0,9168.0,-290.0,792.0,-546.0,0.6540358515190687,0.46757956045037447,-0.32787323225915976,-0.49609031752765753
-145.71700406074524,8148.0,10448.0,9192.0,-336.0,441.0,-451.0,0.6597063073001307,0.47927073268955117,-0.2693123174095274,-0.5124041652710837
-145.7248411178589,8084.0,10252.0,8780.0,-329.0,5.0,-306.0,0.6595334579787909,0.46719477153083133,-0.24145977120510928,-0.5370678189487517
-145.73263263702393,7944.0,10284.0,9000.0,-282.0,-321.0,-255.0,0.6518329921018711,0.44068415382300924,-0.23625208945371337,-0.5701720592992743
-145.74046516418457,7868.0,10540.0,9040.0,-371.0,-467.0,-316.0,0.6397669865971447,0.4019650680990991,-0.2319739817273287,-0.6126257900954422
-145.7482898235321,7848.0,10832.0,8956.0,-427.0,-597.0,-356.0,0.6221705257919834,0.3523277857619598,-0.229606901959444,-0.6603405475876729
-145.7560751438141,8100.0,11256.0,9060.0,-609.0,-609.0,-484.0,0.5986871833991164,0.2925926031423309,-0.21213712562289455,-0.7148154062081227
-145.76385879516602,8352.0,11232.0,9060.0,-833.0,-612.0,-571.0,0.5700788501190354,0.22013006366669832,-0.17688823371638412,-0.7715331570903168
-145.77166771888733,8600.0,11020.0,8824.0,-1086.0,-709.0,-563.0,0.5380757421255936,0.12596125568386568,-0.12754196600523326,-0.8236147793174036
-145.77946829795837,8764.0,11196.0,8800.0,-1258.0,-798.0,-600.0,0.4950952389878041,0.015961320743419133,-0.06764784670707955,-0.8660541030487818
-145.78727173805237,8744.0,10992.0,8624.0,-1256.0,-963.0,-449.0,0.4525892415992445,-0.10739214053451354,-0.013884500981459434,-0.8851198377465798
-145.79505252838135,8652.0,10656.0,8700.0,-1221.0,-956.0,-356.0,0.408542332446947,-0.22687531107764725,0.038634905121749934,-0.883248605958969
-145.8028655052185,8516.0,10268.0,8784.0,-1125.0,-1024.0,-221.0,0.3693221175806635,-0.343576175606309,0.08340362184869887,-0.8594186528601742
-145.8106300830841,9204.0,10032.0,9144.0,-945.0,-1156.0,-156.0,0.3347628742721835,-0.4579381356802806,0.11111120851577214,-0.8160151844425813
-145.81842398643494,9492.0,10120.0,9012.0,-822.0,-1272.0,-57.0,0.307422101082347,-0.5681143088524319,0.12885261869089898,-0.752419289026894
-145.82624650001526,9848.0,10080.0,9080.0,-523.0,-1025.0,54.0,0.2949920093032264,-0.6455554630551879,0.13749743205128293,-0.6908924046088147
-145.8340449333191,10096.0,10100.0,9052.0,-816.0,-1182.0,189.0,0.2723509592899265,-0.7297297690611407,0.16545941241973722,-0.6049318986146677
-145.84182834625244,10100.0,10396.0,9324.0,-817.0,-1061.0,343.0,0.25185286213149183,-0.7944342400307608,0.20364427383878364,-0.5137834016738941
-145.84964084625244,10060.0,10560.0,9336.0,-750.0,-871.0,480.0,0.23540533370298777,-0.8365090717451779,0.24987088159741824,-0.4270848209453653
-145.85742497444153,10036.0,10600.0,9240.0,-726.0,-574.0,543.0,0.21416046025203053,-0.8572271094168177,0.30340815708996727,-0.35670782211327445
-145.86521553993225,10028.0,10304.0,9184.0,-1023.0,-428.0,287.0,0.1570403545422769,-0.8777019532318378,0.3469638056205107,-0.2908500058923592
-145.87299180030823,9620.0,10572.0,9156.0,-890.0,-98.0,377.0,0.10096272273520995,-0.8778244887083305,0.3956497965430814,-0.2503835740164866
-145.88078236579895,9088.0,10652.0,9292.0,-1062.0,338.0,141.0,0.010866878029364922,-0.8707500376614329,0.43055348998778714,-0.23727615795491283
-145.88856887817383,8860.0,10768.0,9452.0,-1166.0,733.0,-78.0,-0.10624334079953049,-0.853431525758962,0.44621946289183884,-0.24749782688541702
-145.89636635780334,8740.0,10720.0,9128.0,-1166.0,775.0,-194.0,-0.2258750195113083,-0.827138208899036,0.4463505216309184,-0.2561133943780909
-145.90415477752686,9028.0,10508.0,9032.0,-1176.0,1189.0,-217.0,-0.3582148074145565,-0.7774071188182807,0.4288623123960497,-0.28878614988590573
-145.91194868087769,8800.0,10260.0,9128.0,-1171.0,1222.0,-237.0,-0.48416325566562385,-0.7109321911014991,0.39960155902431965,-0.3169857339758663
-145.9197301864624,8388.0,9972.0,9172.0,-1187.0,1168.0,-89.0,-0.5948846526715457,-0.6248875207809489,0.3735357865812097,-0.34073281692735563
-145.9275622367859,8060.0,9708.0,9092.0,-1206.0,1120.0,20.0,-0.6896359834566217,-0.5228414064935146,0.348636898561483,-0.35984911690753374
-145.93535494804382,7836.0,9320.0,8888.0,-1308.0,963.0,192.0,-0.7649764383512017,-0.40384531713302046,0.3369241076747916,-0.371755503341626
-145.9431312084198,7532.0,8844.0,9012.0,-1303.0,680.0,209.0,-0.8174116979150733,-0.28626515225333,0.33810235140029554,-0.36820806440729426
-145.95095133781433,7168.0,8236.0,8844.0,-1208.0,388.0,274.0,-0.8449336313554371,-0.17856256147983582,0.35360151893364,-0.3594002449221437
-145.95873069763184,6936.0,7912.0,8804.0,-928.0,-56.0,492.0,-0.8388007817978531,-0.09653975981904758,0.392688321280928,-0.36453971739572855
-145.9665093421936,6792.0,7372.0,8900.0,-751.0,-727.0,681.0,-0.7939629506038803,-0.0413463191124549,0.47260911819972284,-0.3802024938880751
-145.97429513931274,6624.0,7228.0,8448.0,-235.0,-1423.0,973.0,-0.6959736659353599,-0.0319845625282673,0.5758098036638011,-0.427832577171288
-145.98208117485046,6628.0,7176.0,8476.0,312.0,-2099.0,1175.0,-0.5340290886478318,-0.0688873448579643,0.6797802037162147,-0.49796218815481136
-145.9898660182953,6708.0,7200.0,8300.0,926.0,-2620.0,1216.0,-0.30960471838562803,-0.1487551541805539,0.7432855089948527,-0.574058772754444
-145.99764370918274,7164.0,8104.0,8284.0,1187.0,-3018.0,1160.0,-0.03864757045216247,-0.24599737446399977,0.7473310679795974,-0.6160259181945499
-146.00542092323303,7816.0,9156.0,8128.0,1336.0,-3194.0,1093.0,0.24509403474062744,-0.334606626910062,0.676526740652641,-0.6085054548188905
-146.013197183609,8860.0,10004.0,8400.0,1442.0,-3258.0,939.0,0.5040306062650022,-0.4011547395479419,0.5308133755939144,-0.550695181726653
-146.0209846496582,9736.0,10912.0,8220.0,1317.0,-3257.0,900.0,0.7096154025572384,-0.43671854854897196,0.33904112807913456,-0.43677683463942507
-146.0287640094757,11000.0,11516.0,8764.0,1033.0,-3152.0,789.0,0.8361339670341261,-0.4500037837342763,0.1287717813875893,-0.28599722396358424
-146.03655338287354,11712.0,11816.0,8884.0,693.0,-2981.0,657.0,0.8810001864229791,-0.44985872101098884,-0.07760363822959937,-0.12427179079164657
-146.04435896873474,12072.0,11592.0,8852.0,296.0,-2625.0,761.0,0.8587666381249629,-0.44785102209733785,-0.24595536790857095,0.038148135562281645
-146.05218601226807,12160.0,11008.0,8800.0,80.0,-2548.0,343.0,0.7865353765855473,-0.429854517165058,-0.4130895624758083,0.16107206097201238
-146.05997276306152,12248.0,10272.0,8692.0,-1.0,-1940.0,322.0,0.7018421239470343,-0.40812604700940786,-0.5265648193713321,0.25215125184386183
-146.0677568912506,12296.0,9520.0,8624.0,75.0,-1682.0,453.0,0.6103079136437941,-0.3827862876987921,-0.6048834613176546,0.3392858775692114
-146.07559537887573,12040.0,8680.0,8764.0,237.0,-1600.0,688.0,0.5075415770979005,-0.3548344498243124,-0.6524914000734526,0.43674824964164316
-146.0833809375763,12428.0,8024.0,9108.0,447.0,-1662.0,987.0,0.3834997385795821,-0.32297849607253415,-0.6685645210011683,0.5492124569259103
-146.0911738872528,12424.0,7564.0,9404.0,604.0,-1702.0,1324.0,0.23341099038443366,-0.2928008979393853,-0.6470072147139022,0.6642052452682121
-146.09895634651184,12556.0,7324.0,9576.0,629.0,-1703.0,1640.0,0.05701757152857474,-0.2677462360223156,-0.5899968356317435,0.7595819136718539
-146.1067509651184,12572.0,7640.0,9700.0,848.0,-1694.0,1958.0,-0.1363744399786777,-0.24512013632612528,-0.4829238193493609,0.8295195691440859
-146.1145384311676,12388.0,8048.0,9860.0,772.0,-1523.0,2229.0,-0.335511010436679,-0.23105598353442613,-0.35072277288029835,0.8432313033396308
-146.12232971191406,12304.0,8556.0,9900.0,1101.0,-1316.0,2416.0,-0.5145060514083093,-0.2326329747793204,-0.17644596551175207,0.8062457710674702
-146.13010215759277,12168.0,8952.0,9916.0,1053.0,-1058.0,2642.0,-0.6721981791264174,-0.23782627011998142,-0.0009212573334531159,0.7011329577939351
-146.1378903388977,12108.0,9572.0,9748.0,938.0,-875.0,2802.0,-0.7959921033348812,-0.23118908333144667,0.16053787748392556,0.5358878325450516
-146.14568662643433,12196.0,10168.0,9256.0,846.0,-616.0,2843.0,-0.8732183893732767,-0.21386302984886077,0.29054492828199774,0.32762157067844994
-146.15349507331848,12160.0,10508.0,9100.0,696.0,-337.0,2824.0,-0.9033090275578948,-0.17986402929052334,0.37696896754085607,0.09785769878230971
-146.16127109527588,11980.0,10536.0,8884.0,523.0,-121.0,2734.0,-0.8885019174339144,-0.12667227258831784,0.42172214150065235,-0.1291081463025162
-146.16904425621033,11992.0,10528.0,8720.0,401.0,52.0,2718.0,-0.8318205961024774,-0.05586307392934177,0.43098028265423005,-0.3452677350030901
-146.17683935165405,12284.0,10440.0,8788.0,329.0,203.0,2595.0,-0.7405939794336397,0.0230963841821731,0.40837050054403956,-0.5331234837725363
-146.1846203804016,12040.0,10152.0,8480.0,206.0,326.0,2419.0,-0.6260506114429771,0.1084486605343234,0.3645549449719582,-0.680734318245142
-146.1924011707306,12028.0,9836.0,9008.0,148.0,390.0,2339.0,-0.490574523000084,0.19359013112157902,0.3057540505639508,-0.7927004220254376
-146.20018243789673,11776.0,9516.0,9368.0,161.0,584.0,2275.0,-0.34437705863468104,0.28170422593677263,0.22637247732687885,-0.8664887028025124
-146.20795702934265,11584.0,9208.0,9368.0,198.0,759.0,2267.0,-0.18875031821713711,0.3697291893808724,0.12994595881298873,-0.9004375001524901
-146.2157380580902,11280.0,9048.0,9528.0,177.0,1098.0,2252.0,-0.02923033822693437,0.4673773731350225,0.02459287045879335,-0.8832322283132235
-146.2235541343689,11236.0,8908.0,9524.0,142.0,1430.0,2223.0,0.12991270686255282,0.5669494340770598,-0.07871466967940474,-0.809626474723133
-146.2313334941864,10720.0,8884.0,9292.0,89.0,1720.0,2120.0,0.2794055750384322,0.656427883766694,-0.16585944171121025,-0.6808271466725371
-146.23912405967712,10364.0,8728.0,9012.0,-43.0,2043.0,1948.0,0.4149145964988167,0.7267462787617256,-0.2186365874874266,-0.5018802312604682
-146.2469048500061,10156.0,8628.0,8936.0,-119.0,2228.0,1886.0,0.5307418296916055,0.7596399997157123,-0.24460936611145057,-0.28535318301724555
-146.25470876693726,9936.0,8380.0,8760.0,-159.0,2291.0,1895.0,0.6170206118422381,0.7440505998611404,-0.25184509597477295,-0.047416421644453345
-146.26249957084656,9812.0,8116.0,8720.0,-59.0,2185.0,1910.0,0.6561625966407668,0.6861170069284322,-0.2500892106780243,0.1901301824426064
-146.27029371261597,9556.0,7852.0,8560.0,71.0,1944.0,2043.0,0.6413829510551925,0.5953844848238697,-0.25237281630508096,0.41285976664842206
-146.2780830860138,9384.0,7556.0,8956.0,289.0,1668.0,2185.0,0.5681779059411898,0.4891362296428831,-0.25473203613217105,0.610762806512469
-146.28587174415588,9208.0,7428.0,8760.0,593.0,1402.0,2326.0,0.43749574376778994,0.38099549125033744,-0.2455546124506535,0.7766227154392226
-146.29365134239197,9252.0,7416.0,9004.0,802.0,1221.0,2454.0,0.2627690308082215,0.2681577442034886,-0.2192078699216581,0.9005508150216811
-146.30144095420837,9388.0,7372.0,9020.0,899.0,1062.0,2426.0,0.06945519439997216,0.1545234213624788,-0.17556488350154187,0.9697811402076171
-146.30921244621277,9536.0,7352.0,9120.0,1006.0,919.0,2409.0,-0.13009896333511659,0.04483069541168852,-0.11381204463979595,0.9839264642151573
-146.3170096874237,10096.0,7512.0,9084.0,1182.0,811.0,2313.0,-0.3164499401294737,-0.05935318190535589,-0.029496995618531696,0.9462909502046624
-146.3247935771942,10320.0,7440.0,8828.0,1524.0,616.0,2202.0,-0.4753497458288256,-0.15342803325453916,0.0885010907156371,0.8617830438655993
-146.3325855731964,10616.0,7788.0,8656.0,1825.0,486.0,2035.0,-0.5906628905856021,-0.24273835791168097,0.2265341449667027,0.735443893473599
-146.34036898612976,10788.0,7856.0,8600.0,1931.0,457.0,1940.0,-0.6641743505597372,-0.32366788884810443,0.3578703449289862,0.5709994273268328
-146.3481569290161,10516.0,7772.0,8712.0,1947.0,376.0,1805.0,-0.6922758907578013,-0.3881555644322028,0.4714681194096573,0.3844569693166349
-146.3559708595276,10780.0,7568.0,8716.0,1846.0,416.0,1682.0,-0.6868650482581057,-0.43377537211645917,0.5519521104590864,0.18816003769764197
-146.36376929283142,10880.0,7516.0,8728.0,2046.0,422.0,1580.0,-0.6393307090454317,-0.4748692556286129,0.6044255641773899,-0.020619696870625887
-146.37159132957458,10920.0,7540.0,8852.0,1872.0,378.0,1576.0,-0.5659219789174077,-0.4842563940562578,0.6306423702258946,-0.21798683324848123
-146.3793694972992,10972.0,7532.0,8552.0,1956.0,235.0,1622.0,-0.45432923097387984,-0.4754413746826105,0.6347260359367918,-0.40578726991683606
-146.38714790344238,10968.0,7648.0,8568.0,2179.0,106.0,1703.0,-0.3009407840034006,-0.4507894911612048,0.6064687397679085,-0.5817380397278191
-146.3949248790741,10928.0,7832.0,8196.0,2295.0,38.0,1726.0,-0.12138723080516743,-0.4052759280776096,0.5400262680134664,-0.7275906762553607
-146.40269684791565,10768.0,8088.0,8252.0,2292.0,127.0,1705.0,0.06002506133152387,-0.3310280246344651,0.43980160661730505,-0.83270161866997
-146.41048002243042,10504.0,8384.0,8144.0,2164.0,405.0,1587.0,0.21626402994513638,-0.2232245015677599,0.32141505590819125,-0.8944792077445112
-146.41825246810913,10804.0,8676.0,8408.0,2090.0,635.0,1493.0,0.34653598134071384,-0.09003392018444419,0.19397572278589661,-0.9133346187581737
-146.42602849006653,10792.0,8868.0,8204.0,2031.0,779.0,1358.0,0.44647505929702697,0.05500424462951435,0.06443419828831086,-0.8907765087772552
-146.43381333351135,10804.0,9064.0,8436.0,2071.0,739.0,1475.0,0.5330054253703923,0.19613513848689634,-0.07321302357503569,-0.8198024622770136
-146.44159412384033,10960.0,8976.0,8228.0,2118.0,764.0,1554.0,0.596109232746232,0.32993833564572517,-0.2101669031269603,-0.7011592901303173
-146.44936513900757,10732.0,9164.0,8352.0,2110.0,203.0,1647.0,0.6230771410784337,0.41059786639165874,-0.36643403098912175,-0.55579705766872
-146.45714664459229,10640.0,8824.0,8508.0,1991.0,-4.0,1611.0,0.6147070481038597,0.45569011158794126,-0.5085164263766354,-0.39483263709772615
-146.46496748924255,10676.0,8716.0,8800.0,1904.0,-127.0,1527.0,0.5732168840968085,0.4748497088785478,-0.6275609756317799,-0.22827040900737197
-146.47275948524475,10636.0,8844.0,8952.0,1829.0,-188.0,1423.0,0.5053124704450171,0.47489769407230364,-0.7177147947797119,-0.0633794977250372
-146.48055982589722,10904.0,8820.0,9020.0,1766.0,-124.0,1296.0,0.42394696967358086,0.4624687845421595,-0.7725832203441841,0.09750260443339781
-146.4883451461792,11108.0,8772.0,9000.0,1702.0,-11.0,1175.0,0.3391517557498253,0.43919731733368805,-0.7930651759711684,0.2512557057670972
-146.49613404273987,11500.0,8524.0,8960.0,1670.0,147.0,1216.0,0.25463815416373115,0.39484396919373904,-0.7859138252574643,0.401991429889496
-146.50391268730164,11116.0,8364.0,8600.0,1492.0,337.0,1367.0,0.17569534482233487,0.31738354569287214,-0.7610236396612546,0.5378120960037237
-146.51170206069946,11240.0,8216.0,8672.0,1684.0,345.0,1432.0,0.08327514505289083,0.227633771592551,-0.7030048282395797,0.6686047619624086
-146.51952695846558,11596.0,8076.0,8456.0,2031.0,393.0,1476.0,-0.01855156830326715,0.1258944731412233,-0.5963658895444325,0.7925617620941985
-146.52731776237488,11840.0,7964.0,8504.0,2160.0,673.0,1604.0,-0.11481818225421671,-0.007353228078830178,-0.4524681017261605,0.8843276157516415
-146.53509950637817,11592.0,8024.0,8768.0,2316.0,820.0,1800.0,-0.21245614715458458,-0.1592917002939393,-0.27118365192570454,0.925174560113892
-146.54288959503174,11988.0,7976.0,8780.0,2397.0,915.0,1975.0,-0.3050114133062927,-0.3119940589483194,-0.06441896524191193,0.8974842293049008
-146.55063557624817,12116.0,8148.0,8792.0,2418.0,916.0,2288.0,-0.39572818009125044,-0.4412010837041412,0.15616000925044238,0.7901612890612018
-146.55843544006348,12352.0,8260.0,8844.0,2452.0,1021.0,2435.0,-0.4610049914047423,-0.5370024132493058,0.36622839846120514,0.6041353873304196
-146.56625413894653,12376.0,8412.0,8956.0,2455.0,1190.0,2512.0,-0.49146529177394704,-0.5880408305583034,0.5381245978011027,0.35084436124762125
-146.57404947280884,12400.0,8576.0,9112.0,2448.0,1369.0,2451.0,-0.48055509489193615,-0.5893718001267074,0.6468439336314944,0.0574509139434842
-146.58184099197388,12484.0,8828.0,9048.0,2510.0,1602.0,2226.0,-0.4310513946565859,-0.5487688730991462,0.6721966520605531,-0.24738447817251763
-146.5896236896515,12420.0,8788.0,9104.0,2589.0,1862.0,1889.0,-0.35739467272642467,-0.47107127584854797,0.60572131771261,-0.5324120455490209
-146.5974006652832,12288.0,8876.0,9292.0,2639.0,2165.0,1562.0,-0.2764379655925834,-0.35181012169406073,0.45579462399460446,-0.7694562691864048
-146.6051790714264,12108.0,8708.0,9220.0,2719.0,2351.0,1170.0,-0.19756374630337478,-0.20233185686563707,0.23949156878345967,-0.9288025486213506
-146.61295890808105,11992.0,8840.0,9612.0,2782.0,2517.0,959.0,-0.11691558934396266,-0.02503623413535617,-0.012043044354968691,-0.9927531903909136
-146.62073636054993,11912.0,8756.0,9532.0,2755.0,2306.0,1021.0,-0.019035388621039238,0.1381206410645974,-0.2587787138757604,-0.955821070983873
-146.62851548194885,12084.0,8460.0,9392.0,2749.0,2520.0,669.0,0.057573105084199,0.3117677087476977,-0.47512759185348596,-0.8208166694291007
-146.63632988929749,12280.0,8460.0,9140.0,2708.0,2351.0,627.0,0.12049346710538744,0.4456681241036945,-0.6427555163493396,-0.6113318196734985
-146.6440875530243,12020.0,8948.0,8816.0,2614.0,2198.0,563.0,0.16493059712373953,0.5348875251050156,-0.7476649898906065,-0.3573377904886597
-146.6518862247467,11908.0,8724.0,8564.0,2476.0,2293.0,474.0,0.20500304339412215,0.5857099813733706,-0.7802296163659446,-0.07848130773760567
-146.65968680381775,11848.0,8908.0,8564.0,2440.0,1816.0,387.0,0.19967661594907085,0.5945105772964103,-0.757555030476548,0.1810988634019895
-146.66750764846802,11836.0,8900.0,8496.0,2411.0,1659.0,213.0,0.17535238036488252,0.5775720344352626,-0.6796001297223672,0.416900169609012
-146.6752734184265,11784.0,8884.0,8536.0,2328.0,1654.0,-112.0,0.1555313451603238,0.5430197717342451,-0.5470763317355413,0.6177758618083846
-146.68305802345276,11840.0,8924.0,8324.0,2228.0,1690.0,-313.0,0.14337548308140544,0.482742653720581,-0.37779528246613375,0.7769644301229748
-146.69088459014893,11920.0,8728.0,8304.0,2076.0,1715.0,-593.0,0.14857000815095162,0.40055934994748105,-0.18507181520621094,0.8850014593569637
-146.69868063926697,11868.0,8660.0,8344.0,1955.0,2046.0,-865.0,0.1744920116594032,0.2729823665521158,0.022234286874846722,0.9458006142447932
-146.70647859573364,11892.0,8492.0,8008.0,1900.0,1705.0,-991.0,0.20205526573031438,0.15514006497823776,0.22251938943146665,0.9410581019024528
-146.71430373191833,11936.0,8124.0,8352.0,1873.0,1707.0,-1197.0,0.23485739668390995,0.02433978750015271,0.4105521768933803,0.8807363328575759
-146.72215461730957,11884.0,7832.0,8308.0,1938.0,1749.0,-1395.0,0.26645512824902967,-0.11627477787081344,0.5792785030867112,0.7615236414731358
-146.7299599647522,11848.0,7500.0,8180.0,1952.0,1848.0,-1546.0,0.2852498910085164,-0.2622850221866845,0.7107284498869314,0.5871150971806801
-146.73776292800903,11832.0,7164.0,7928.0,2029.0,2001.0,-1675.0,0.2818522484149366,-0.4017629682414935,0.7938190313620986,0.359161764196259
-146.74559926986694,11740.0,6952.0,8132.0,2136.0,1810.0,-1797.0,0.2762244149582764,-0.5094077835722008,0.8089022818107333,0.09940262118477912
-146.75344133377075,11644.0,6904.0,8028.0,2284.0,2006.0,-1798.0,0.24052720105728861,-0.5721294133847756,0.7617706042549433,-0.1857959805394019
-146.7612268924713,11368.0,7192.0,8480.0,2498.0,1823.0,-1718.0,0.20652027788796132,-0.5774597591810172,0.643719910557784,-0.4577272966507014
-146.76905465126038,10944.0,7988.0,9648.0,2699.0,1318.0,-1470.0,0.20131067400909675,-0.5363643399082484,0.46602750289899464,-0.6742445208872816
-146.77685713768005,10008.0,10144.0,11884.0,2809.0,748.0,-1127.0,0.22771824783866682,-0.47165458838461977,0.25180170079036324,-0.8138072574855197
-146.7846643924713,9736.0,13696.0,13580.0,2674.0,-140.0,-965.0,0.26421798010710273,-0.43633800483610147,0.018587469240513396,-0.8599142460216633
-146.7924840450287,10576.0,19948.0,14592.0,1811.0,138.0,-498.0,0.2915657933520619,-0.3798219696924556,-0.13159088871284672,-0.8679910699389074
-146.80028676986694,11792.0,24224.0,13748.0,-541.0,1709.0,-1307.0,0.19058934987665566,-0.24445433700267924,-0.08906104953074884,-0.9465653206676525
-146.8080792427063,11460.0,25324.0,13548.0,-4135.0,4116.0,-3494.0,-0.13272219291847376,0.04639274199708989,0.2116502100940562,-0.9671797772720668
-146.81587290763855,10532.0,21684.0,12144.0,-6669.0,6241.0,-5897.0,-0.5214910254584393,0.3927665600368699,0.5266552522002871,-0.5444408002831542
-146.8236744403839,8916.0,17116.0,10996.0,-7716.0,7060.0,-7769.0,-0.6278539710238199,0.47695424201576014,0.5535681487806188,0.26809764405602454
-146.83145380020142,7264.0,12652.0,8868.0,-7403.0,6291.0,-8311.0,-0.2863733386787533,0.22269849514488915,0.25462229314759943,0.896416855590324
-146.83925199508667,6836.0,8224.0,7612.0,-6403.0,4620.0,-7747.0,0.24569407238591962,-0.10853263934054733,-0.15169891227049184,0.9512321110055878
-146.8470389842987,6048.0,4968.0,6968.0,-4963.0,2623.0,-6510.0,0.619105057219096,-0.2770045844718616,-0.45517782876104046,0.5768799983633477
-146.85487532615662,5972.0,3076.0,6748.0,-3168.0,432.0,-4895.0,0.7181489758272033,-0.24520235444317426,-0.6321024632890124,0.15679390867576945
-146.86266016960144,7020.0,2576.0,6856.0,-1791.0,-1378.0,-3502.0,0.6125473793785002,-0.13649960496777622,-0.7685935567579381,-0.12416726770914677
-146.8704390525818,8000.0,2852.0,7460.0,-489.0,-2883.0,-1849.0,0.3765909834312456,-0.06681541081499785,-0.8992936355795228,-0.2120987719956783
-146.87824988365173,9404.0,4012.0,8752.0,290.0,-3290.0,-960.0,0.09803051125192683,-0.041023269348827336,-0.9753781962194799,-0.19324721104133222
-146.8860330581665,10308.0,5380.0,10280.0,990.0,-3072.0,82.0,-0.15258535089046818,-0.087940731750452,-0.9799035604710452,-0.09366509792337996
-146.89381051063538,11744.0,7312.0,11440.0,1218.0,-1587.0,273.0,-0.27251801915847534,-0.13837414013281066,-0.9519642549791737,0.01872388363542098
-146.90161514282227,12272.0,9372.0,12408.0,937.0,-130.0,761.0,-0.27171321933690457,-0.22246160903399315,-0.9329269889254846,0.07956124859509778
-146.9094099998474,12108.0,10872.0,12764.0,374.0,1999.0,83.0,-0.10064903028751321,-0.24810411472329447,-0.9610798921878914,0.06811432882782377
-146.91720294952393,11724.0,12208.0,11788.0,-171.0,3420.0,-646.0,0.1783710031990271,-0.2035344349808326,-0.9625798903656612,-0.014052532100584367
-146.92499113082886,10476.0,13556.0,10964.0,-455.0,4710.0,-1405.0,0.5183032516184284,-0.07968145677213923,-0.8390338552591111,-0.1450337703345905
-146.93278408050537,9060.0,14192.0,10436.0,-670.0,5023.0,-1835.0,0.7766687777872645,0.07967620277509614,-0.5573607327822112,-0.2824647338593879
-146.94056820869446,7992.0,13928.0,10144.0,-872.0,4926.0,-2674.0,0.8570805982968214,0.24398926344752556,-0.1641668769115522,-0.4230027468830479
-146.94836497306824,7288.0,12828.0,9832.0,-1221.0,4446.0,-3064.0,0.7507334295445769,0.3248561357950891,0.25065925041569087,-0.5177236221977558
-146.95617771148682,6728.0,11584.0,9892.0,-1463.0,4047.0,-3169.0,0.5080781974517035,0.3104660977783498,0.6086685929570476,-0.5243947857789969
-146.9639766216278,6472.0,10136.0,9748.0,-1472.0,2997.0,-2913.0,0.23827389766901383,0.2122906338131182,0.8280810876206235,-0.46091208360151087
-146.97176361083984,6648.0,8904.0,10340.0,-1127.0,2354.0,-2502.0,-0.011117535158556726,0.09793810372585902,0.923829027710332,-0.36989789916997873
-146.97960567474365,6600.0,8280.0,10388.0,-646.0,2098.0,-2267.0,-0.2391186927817992,-0.015934796456777665,0.9274770188946702,-0.2869751077122547
-146.9873912334442,6720.0,8056.0,10468.0,-403.0,2175.0,-2276.0,-0.4556930694224361,-0.13234763695261934,0.8566981972473888,-0.20222791178887872
-146.9951822757721,6848.0,7864.0,10604.0,-3.0,2521.0,-2544.0,-0.657849606576589,-0.2653324080565162,0.6938745294505806,-0.12397881166430408
-147.0029695034027,6912.0,8032.0,10540.0,-90.0,2708.0,-2239.0,-0.8109577816203303,-0.3503533443467574,0.4659063343540133,-0.05031200794324926
-147.01076483726501,6676.0,8360.0,10252.0,-8.0,2909.0,-2099.0,-0.8958973896186265,-0.4030207959203755,0.18669941182645794,0.009243103044580784
-147.0185465812683,6320.0,8712.0,10408.0,229.0,2854.0,-1981.0,-0.8925714048290463,-0.43562405072347476,-0.10129180856598553,0.057340589726700836
-147.0263123512268,5992.0,9064.0,10280.0,439.0,2728.0,-1648.0,-0.8122289945645955,-0.45142308139778875,-0.3601132376819854,0.08258158400097157
-147.0340940952301,5500.0,9256.0,10132.0,746.0,2517.0,-1353.0,-0.6721199388791169,-0.4647533073820841,-0.5677774966448211,0.09943774606398773
-147.0418951511383,5136.0,9924.0,10020.0,990.0,2324.0,-1250.0,-0.491381543813542,-0.4671597778395233,-0.7245553373840518,0.12379613659816033
-147.04965949058533,4996.0,10196.0,10400.0,1005.0,2098.0,-664.0,-0.30390194020472727,-0.4803771306388712,-0.8128012511822764,0.12741879443588083
-147.0574929714203,4936.0,10284.0,10848.0,814.0,2013.0,-394.0,-0.1203922730746302,-0.48746382061645416,-0.8578868275556765,0.10915546381372786
-147.0652780532837,5012.0,10252.0,11032.0,658.0,1891.0,-201.0,0.050346278104993765,-0.48985499605899496,-0.8667726946263175,0.07881897593377729
-147.07311630249023,5352.0,10492.0,11156.0,573.0,1931.0,-32.0,0.21783852257127462,-0.4906704869323782,-0.8427827317868237,0.03880874050321793
-147.08092784881592,5876.0,10692.0,11252.0,549.0,2054.0,-37.0,0.3860227839498168,-0.47631140711643016,-0.7899529774461072,-0.009388671174853504
-147.08872246742249,6224.0,10824.0,11472.0,627.0,2195.0,12.0,0.5526401139327825,-0.445410514464309,-0.7021849270343584,-0.05598844811881883
-147.0965039730072,6288.0,11856.0,11456.0,750.0,2418.0,79.0,0.713220798102936,-0.3926908892351696,-0.5722909408322302,-0.09794405396175594
-147.10433220863342,6316.0,12676.0,11324.0,835.0,2664.0,-173.0,0.8485576799627799,-0.3003287950396719,-0.40751373925281986,-0.15389941834324075
-147.11211609840393,6392.0,13316.0,10944.0,714.0,2959.0,-611.0,0.9307622156063571,-0.17927504122009727,-0.2065152677988436,-0.2426800398900773
-147.11990785598755,6048.0,13456.0,10844.0,571.0,3155.0,-1044.0,0.9347980558674273,-0.045051890630902286,0.0203826822400624,-0.3517207246691045
-147.12768697738647,5820.0,13508.0,11060.0,436.0,3001.0,-1162.0,0.861602288306882,0.07774429879212122,0.2376717557276189,-0.4417119619378869
-147.1355118751526,5756.0,13260.0,10984.0,269.0,2751.0,-1062.0,0.7376404164643983,0.17634661072213922,0.42710496337839865,-0.4923107140237555
-147.1432991027832,5684.0,12968.0,10460.0,56.0,2585.0,-1260.0,0.568740875981216,0.2367893019998507,0.5919973857046982,-0.5196188389245961
-147.15107798576355,5456.0,12716.0,10240.0,-159.0,2577.0,-1029.0,0.38122582519668197,0.28440216678085856,0.7272361388023239,-0.4948836996238094
-147.15886974334717,5052.0,12272.0,10144.0,-292.0,2482.0,-860.0,0.18886112416790268,0.31896020904792166,0.8221691177253273,-0.4320113455465017
-147.166668176651,4736.0,11980.0,10112.0,-356.0,2342.0,-898.0,-0.0030759273662829927,0.3290272036972811,0.8779903629533449,-0.3476558074576618
-147.17444157600403,4396.0,12008.0,10164.0,-378.0,1899.0,-989.0,-0.16483824550664056,0.3055072837962157,0.901273502274273,-0.259229100341796
-147.18225693702698,3952.0,12112.0,10040.0,-347.0,1450.0,-1189.0,-0.29256709273321446,0.24636440039913615,0.90748543112559,-0.17372182004690984
-147.1900281906128,3600.0,12352.0,9740.0,-317.0,941.0,-1425.0,-0.3776264680588543,0.15405751819620658,0.9085177730917021,-0.09088447438982801
-147.19781613349915,3692.0,12396.0,9320.0,-359.0,401.0,-1562.0,-0.4127736156780944,0.04469319208707552,0.9097204520071901,-0.00539999823464911
-147.20560097694397,4176.0,12332.0,9276.0,-411.0,-198.0,-2100.0,-0.3896999022731619,-0.10555613375047256,0.9093393076350056,0.10046846463358118
-147.21339535713196,4656.0,12232.0,9280.0,-466.0,-268.0,-2498.0,-0.34246773243390144,-0.27881361179960795,0.8699158599704041,0.21960241048037585
-147.2211720943451,5476.0,11928.0,9420.0,-488.0,-847.0,-2646.0,-0.23245075425458617,-0.43589039354994497,0.7975976488121069,0.3461274364547644
-147.22898411750793,6016.0,11808.0,9788.0,-351.0,-1044.0,-2705.0,-0.08865448114758614,-0.5673702010188656,0.6833559861341589,0.45083925537033187
-147.23677825927734,6260.0,11652.0,10604.0,-278.0,-990.0,-2741.0,0.062404881312527034,-0.6682359411063595,0.5273712097175361,0.5210047648180673
-147.24457001686096,6636.0,11552.0,11116.0,-409.0,-803.0,-2732.0,0.19367835326387026,-0.7367843562202473,0.3346617325334124,0.5546521727027182
-147.252366065979,6336.0,11208.0,11156.0,-507.0,-534.0,-2693.0,0.298283692436785,-0.7754322892225334,0.12427593086578063,0.542482346869299
-147.2601523399353,6340.0,10864.0,11372.0,-548.0,-354.0,-2627.0,0.3789847863430295,-0.7799242635275433,-0.08631113647187712,0.49054975548101204
-147.26795387268066,6272.0,10364.0,11300.0,-270.0,-313.0,-2370.0,0.4499343267569723,-0.7413917033370233,-0.26381420610999645,0.42225526460108176
-147.27573132514954,6216.0,9984.0,11156.0,-330.0,-371.0,-2106.0,0.48905315570227803,-0.6801144916201001,-0.41942775712092817,0.34978800114138264
-147.28356003761292,5840.0,9660.0,11004.0,-232.0,-462.0,-2042.0,0.5121809136044598,-0.5911907463654769,-0.5581112564539195,0.27690438524978006
-147.29134726524353,5548.0,9616.0,10732.0,-234.0,-646.0,-1447.0,0.4988181933973599,-0.5105226015896607,-0.6608961388060757,0.23186930998547214
-147.2991237640381,5592.0,9652.0,10120.0,206.0,-753.0,-1354.0,0.4875102658125233,-0.4043970061042914,-0.7429710876592803,0.2163117312668796
-147.30691480636597,5224.0,9676.0,10112.0,275.0,-985.0,-1160.0,0.45121526667491074,-0.29612205388423757,-0.8132611915158532,0.2175379201359725
-147.3147120475769,5168.0,9800.0,10108.0,708.0,-1008.0,-1115.0,0.4148617062297993,-0.16812908486352407,-0.8593376113319702,0.24730799679209173
-147.32249569892883,5452.0,10012.0,10740.0,545.0,-851.0,-1041.0,0.37855128355867756,-0.05147433125697969,-0.8865668762039987,0.26086106063498293
-147.33028864860535,5408.0,10372.0,10640.0,456.0,-678.0,-1093.0,0.3506197692959214,0.06321540643210546,-0.8971314001566512,0.2611988526419388
-147.3380708694458,5412.0,10428.0,10616.0,447.0,-564.0,-1159.0,0.32817577924949,0.17929023885076134,-0.8914774716901157,0.25578034646122816
-147.34585785865784,5796.0,10288.0,10520.0,509.0,-531.0,-1129.0,0.3021032044710801,0.29160646001996404,-0.8716122951376309,0.25296508313963306
-147.35364508628845,6136.0,10492.0,10576.0,530.0,-544.0,-1002.0,0.2678345781640238,0.39150761947003077,-0.843647662617423,0.2514856735417902
-147.36144185066223,5892.0,10464.0,10768.0,517.0,-574.0,-972.0,0.22799164540072264,0.48495747354418534,-0.807735528953055,0.24576284045404517
-147.36922311782837,6012.0,10304.0,11064.0,621.0,-831.0,-486.0,0.1528667710054709,0.5467006284581051,-0.7864278193668504,0.2434778390157393
-147.37700629234314,6380.0,10696.0,11088.0,726.0,-810.0,-230.0,0.067272928358729,0.58665228121155,-0.7672059902396305,0.25041649825791046
-147.38479018211365,6160.0,10584.0,11496.0,597.0,-732.0,-151.0,-0.008918133660607846,0.6141490670198927,-0.7481045669059515,0.2511592071676163
-147.39257144927979,5872.0,10800.0,11704.0,597.0,-422.0,98.0,-0.07042419924492554,0.6152759772256992,-0.7384025142491195,0.2669037859608788
-147.40035820007324,6408.0,11116.0,11424.0,525.0,-328.0,235.0,-0.12497561173972634,0.6035501616990586,-0.7355399693980762,0.2812281141728162
-147.40814113616943,6628.0,11360.0,11080.0,427.0,-180.0,494.0,-0.17081100066113272,0.5706103996792239,-0.7478074635245814,0.29327695328475906
-147.41591382026672,6296.0,11748.0,10976.0,330.0,-225.0,28.0,-0.20249046831625822,0.5692888500894591,-0.7369424712840268,0.30302410699922033
-147.4236798286438,6056.0,12060.0,10588.0,295.0,211.0,-74.0,-0.20147897057458156,0.5629725970301086,-0.7288037805716319,0.3336362223048909
-147.43145275115967,6148.0,11932.0,10540.0,302.0,274.0,-2.0,-0.19866863876222116,0.5494737056443956,-0.7242595212467476,0.36613872324737007
-147.43923115730286,5908.0,12016.0,10712.0,257.0,371.0,-452.0,-0.17278978981120105,0.560877315159969,-0.6996966690770602,0.40741244109429536
-147.44704604148865,5692.0,11852.0,10800.0,190.0,213.0,-595.0,-0.1476372556422577,0.5858197887888,-0.6658935377255845,0.43772618407535774
-147.45487117767334,5676.0,11628.0,10756.0,8.0,7.0,-770.0,-0.117905071175898,0.6288011177895055,-0.62486088965358,0.4475001866357281
-147.46270608901978,5772.0,11164.0,10860.0,-195.0,-8.0,-828.0,-0.07503309138287155,0.6744376089730122,-0.5852985882873291,0.44376740455914027
-147.47049164772034,5980.0,10968.0,10900.0,-337.0,-618.0,-881.0,-0.0523242071575701,0.7420199777387386,-0.5397890640679824,0.3940765107114924
-147.47828793525696,6256.0,10448.0,10936.0,-487.0,-847.0,-863.0,-0.030737423928103885,0.8088319473123883,-0.49355322934134394,0.31820009676906913
-147.48607754707336,6524.0,10104.0,10856.0,-576.0,-774.0,-826.0,-0.0003992503862670035,0.8621839539102202,-0.4463921978360429,0.23952593999392985
-147.4938747882843,6804.0,9824.0,10936.0,-611.0,-1171.0,-849.0,0.017615930448318363,0.9112549294960804,-0.3915475745426454,0.12646987520079522
-147.5016586780548,7160.0,9840.0,11328.0,-767.0,-1236.0,-519.0,0.041806289335507056,0.9330191283049891,-0.3573880286382604,0.001156449329655534
-147.50945520401,6988.0,9820.0,11588.0,-411.0,-1246.0,-676.0,0.036250012673614974,0.9449233723311447,-0.3044023499172702,-0.11465149963408121
-147.51723957061768,6948.0,10064.0,12004.0,-374.0,-1517.0,-461.0,0.022023966667660568,0.9314336776911154,-0.26477720908595137,-0.2486750460011614
-147.52504062652588,7548.0,10484.0,12244.0,-351.0,-1128.0,-289.0,0.018183941447932384,0.9078409190609903,-0.23452545167905575,-0.3471196083004381
-147.53282523155212,7796.0,11152.0,11900.0,-501.0,-771.0,-317.0,0.03245261278211226,0.8869646456100411,-0.19476796091862966,-0.4174996847436745
-147.54061603546143,7968.0,11704.0,11496.0,-635.0,-504.0,-292.0,0.06230828725744019,0.8692815659572524,-0.1500503637801426,-0.4668534296279702
-147.5483913421631,7780.0,12032.0,11144.0,-704.0,395.0,-846.0,0.08606263062415515,0.8879910140312831,-0.054767663639457266,-0.4484034853000356
-147.55618834495544,7416.0,11776.0,10868.0,-710.0,916.0,-1077.0,0.10243195721041258,0.9149595264020294,0.06275713118194319,-0.38525095934212866
-147.5639669895172,6984.0,12008.0,10744.0,-655.0,1157.0,-1101.0,0.11021770025704351,0.9314592856181799,0.1809920605958088,-0.29576600850503637
-147.57172012329102,6688.0,11232.0,10712.0,-586.0,1124.0,-883.0,0.11632794545435099,0.9324503165911165,0.2762101621434137,-0.20177255146378337
-147.57961559295654,6640.0,10620.0,10456.0,-461.0,839.0,-650.0,0.12161969943527513,0.9221835448713569,0.3439908575943844,-0.1282826885018067
-147.58740973472595,6572.0,10452.0,10220.0,-351.0,440.0,-203.0,0.1342680676407237,0.9160406313921515,0.36841834229906406,-0.08431828217121154
-147.5951976776123,6564.0,10196.0,10144.0,-239.0,94.0,75.0,0.15092788742602387,0.916092740666093,0.3651688568754398,-0.06816574846862947
-147.6030035018921,6576.0,9828.0,10268.0,-192.0,-238.0,15.0,0.17395698103771354,0.9122979050038075,0.36183303032366243,-0.08079826384708975
-147.61078453063965,6620.0,9844.0,10108.0,-225.0,-358.0,363.0,0.20556467190805897,0.9167349818734704,0.3286693777970822,-0.096522426260734
-147.6185622215271,6676.0,9772.0,10092.0,-291.0,-444.0,256.0,0.24349541402608438,0.9139030535013144,0.30224708080649254,-0.11890287756481291
-147.62636470794678,6756.0,9744.0,10164.0,-440.0,-366.0,146.0,0.2894604007988668,0.9033948968172596,0.28698016645653995,-0.13316426260250522
-147.6341414451599,6884.0,9748.0,10364.0,-506.0,-315.0,0.0,0.33687991065124107,0.8857365795752671,0.28448678465116206,-0.1450858599614779
-147.64192581176758,6564.0,9976.0,10548.0,-569.0,-204.0,-111.0,0.3840696191548473,0.8624052854062797,0.2938164412427399,-0.1497315938638715
-147.64973950386047,6528.0,10264.0,10544.0,-720.0,-99.0,-233.0,0.43688994468312875,0.8291354520407898,0.3167013420763022,-0.1461568962825807
-147.65751791000366,6612.0,10548.0,10292.0,-790.0,23.0,-489.0,0.4856939271255941,0.7831843935854969,0.3618061648651583,-0.1407832158426607
-147.66532826423645,6788.0,10428.0,10072.0,-862.0,36.0,-600.0,0.5339688398066257,0.725064812523376,0.4131449645817863,-0.13590266368516293
-147.67312335968018,6984.0,10288.0,10300.0,-844.0,56.0,-625.0,0.5756274515185609,0.6610530463297392,0.46330140852279156,-0.13043662007740064
-147.68095445632935,6684.0,10192.0,10476.0,-804.0,137.0,-565.0,0.6078670638073153,0.5971186091454728,0.509948771143932,-0.11789508114948292
-147.68875455856323,6736.0,10416.0,10348.0,-576.0,275.0,-473.0,0.6193863309138884,0.5470177989174235,0.5537013431320998,-0.10269821497123113
-147.69653511047363,6804.0,10704.0,10412.0,-406.0,448.0,-326.0,0.6131853047243352,0.5124172762945248,0.5959674550300857,-0.07908925066017178
-147.704345703125,6816.0,11188.0,10736.0,-305.0,648.0,-107.0,0.5912830084832452,0.49403076272344515,0.636186745370554,-0.03980495417300983
-147.71216082572937,6600.0,11572.0,10688.0,-293.0,943.0,48.0,0.5497519647248953,0.48307574485452615,0.6811941770343715,0.019623842356371213
-147.7200083732605,6244.0,11628.0,11004.0,-485.0,1059.0,232.0,0.5042020033923468,0.4692853832434642,0.7174815030668816,0.10378757924755422
-147.72784948349,5896.0,11580.0,11156.0,-725.0,1575.0,303.0,0.42755494647821446,0.4369702543694977,0.7588459914729645,0.22451397676688453
-147.735675573349,5596.0,11524.0,11084.0,-883.0,1696.0,335.0,0.3375553367086559,0.387451495966776,0.7808578789385846,0.3552445718545859
-147.74346613883972,5368.0,11428.0,10896.0,-969.0,1605.0,277.0,0.2489773362081966,0.3236119068806423,0.7780775652221259,0.4773687487443576
-147.75126361846924,5136.0,11268.0,10588.0,-992.0,1325.0,22.0,0.18418381084235766,0.24577804127440495,0.7569590323569771,0.5767863569677187
-147.75908637046814,4868.0,11148.0,10464.0,-954.0,874.0,448.0,0.12345816235981247,0.2145113195758711,0.7082107929755808,0.6611962255136185
-147.76688265800476,4600.0,11056.0,10368.0,-823.0,337.0,577.0,0.08435734437027634,0.22091354679053146,0.6506219146872678,0.7216454582576514
-147.77474570274353,4380.0,10960.0,10436.0,-720.0,-222.0,705.0,0.06615966476110498,0.26852566539987066,0.5875078629711201,0.7604941661363105
-147.7827398777008,4292.0,10904.0,10548.0,-702.0,-712.0,681.0,0.07351702358965201,0.3446809212741129,0.5178024518064461,0.7795325077605043
-147.7906470298767,4464.0,11020.0,10568.0,-615.0,-1125.0,652.0,0.0977706715283312,0.44315945368894455,0.4455002019205008,0.7717384041783901
-147.79844975471497,4784.0,11140.0,11084.0,-565.0,-1375.0,266.0,0.15390905815682046,0.5365187482538673,0.38204254618218025,0.7365481162123901
-147.8062460422516,5080.0,11204.0,11272.0,-541.0,-1484.0,330.0,0.20556726492870564,0.6293091754186124,0.308788317504454,0.6829069016318742
-147.8140275478363,5120.0,11140.0,11392.0,-566.0,-1287.0,236.0,0.25540094619869674,0.696726029716113,0.2371556949066167,0.6269771706929944
-147.8218128681183,5660.0,10936.0,11724.0,-555.0,-1460.0,181.0,0.30669230094559957,0.7607547872487118,0.16171182472754705,0.5486722810222404
-147.82959032058716,5788.0,10764.0,11436.0,-523.0,-1343.0,89.0,0.3534236432937058,0.8058529784467894,0.09406596288328571,0.4656654379662316
-147.83736991882324,5880.0,10676.0,11448.0,-379.0,-1298.0,196.0,0.38018781697606435,0.8424726590405096,0.024665983062074646,0.38090501686348205
-147.8451590538025,6020.0,10740.0,11116.0,-489.0,-1292.0,341.0,0.4045963823470241,0.863226211251252,-0.05908102364018251,0.2960603118388849
-147.85297632217407,6064.0,10864.0,11052.0,24.0,-1264.0,446.0,0.3822538917452,0.8883139960153957,-0.13576878776117957,0.21528363383840438
-147.86080121994019,6264.0,11016.0,11032.0,211.0,-1195.0,275.0,0.3446546877224462,0.9091557535326296,-0.191860070079606,0.13356150477779255
-147.86859321594238,6520.0,11028.0,11320.0,368.0,-1188.0,761.0,0.2845009499729953,0.9139236728908119,-0.2814281419307741,0.0678301593955338
-147.87638306617737,6728.0,11384.0,11808.0,476.0,-1159.0,992.0,0.21025350691868747,0.8995034009365741,-0.3828215181324261,0.011609469699972697
-147.88415694236755,6972.0,11576.0,12000.0,588.0,-1051.0,1213.0,0.12643394279282125,0.8612766541108781,-0.4913194483116891,-0.028673731953302806
-147.89194750785828,6912.0,11832.0,11880.0,591.0,-720.0,1340.0,0.0540204860700707,0.8004377023599429,-0.5954801257224692,-0.0422456103641651
-147.89974975585938,6888.0,11952.0,11820.0,537.0,-275.0,1375.0,0.007293327179989676,0.7242821899438252,-0.6889422072376584,-0.026846820953806555
-147.90757298469543,6284.0,11860.0,11772.0,487.0,110.0,1357.0,-0.013523143033100357,0.6381746019043749,-0.769705879262859,0.010156845715472554
-147.91537165641785,5996.0,11636.0,11844.0,352.0,324.0,1454.0,-0.012477470690525426,0.5350221625352624,-0.8432841399601881,0.049673510172567825
-147.92313385009766,5728.0,11324.0,11692.0,307.0,429.0,1521.0,-0.0017550454902745163,0.4167685123084918,-0.9045702552477878,0.08974174215182928
-147.93093419075012,5248.0,11016.0,11580.0,367.0,465.0,1491.0,0.009886488593524798,0.2924850518976989,-0.9467733190374167,0.13407100401863392
-147.93871903419495,4948.0,10900.0,11536.0,450.0,387.0,1480.0,0.012981128217610806,0.16444658726067046,-0.9696158664231794,0.18064850353364129
-147.94651556015015,4640.0,10684.0,11268.0,562.0,297.0,1502.0,0.006340311794128164,0.032942665620370334,-0.9721808149861679,0.23181683329949992
-147.9542944431305,4448.0,10644.0,11056.0,688.0,67.0,1418.0,-0.018445023218163156,-0.0875402054910339,-0.9533105465908231,0.2884362933123623
-147.9621160030365,4208.0,10676.0,11020.0,814.0,-232.0,1364.0,-0.06522329113493594,-0.19461576915003773,-0.9131040416677371,0.3522948108923975
-147.96990442276,4140.0,10624.0,10976.0,1022.0,-560.0,1368.0,-0.13294325030066106,-0.2887254440345259,-0.8449134784535176,0.4302149742793003
-147.97773814201355,4000.0,10748.0,10852.0,1122.0,-859.0,1347.0,-0.2155211655364491,-0.36359970229228167,-0.7480601675916728,0.51161691660997
-147.98552870750427,3936.0,10816.0,10916.0,1240.0,-1162.0,1254.0,-0.30298394924116817,-0.41001548695847684,-0.620520886898134,0.5958538880292565
-147.99332523345947,3980.0,10848.0,10500.0,1316.0,-1414.0,1138.0,-0.38443525241295723,-0.4248541822399398,-0.46504235348798506,0.6748659644683334
-148.0011396408081,4132.0,11012.0,10540.0,1370.0,-1583.0,1007.0,-0.4481657256999216,-0.41008360162528307,-0.2878783145616621,0.7403411362277768
-148.00895500183105,4296.0,11216.0,10536.0,1385.0,-1698.0,828.0,-0.484820349349398,-0.3676790040314424,-0.10005099816278562,0.787242768539543
-148.01673817634583,4464.0,11508.0,10584.0,1430.0,-1759.0,705.0,-0.4923552199692044,-0.30686494433037376,0.09352255489035839,0.8091191352557253
-148.02451348304749,4628.0,11684.0,10588.0,1488.0,-1758.0,561.0,-0.4679313267565884,-0.2369158589653418,0.2834138323496231,0.8028622228274493
-148.03232622146606,4688.0,11952.0,10952.0,1281.0,-1699.0,422.0,-0.4215853921896521,-0.1567389236859179,0.4435810268564242,0.7751996771845803
-148.04008960723877,4820.0,12164.0,10556.0,1388.0,-1569.0,311.0,-0.35698887456474004,-0.08786611444550253,0.5894428356822659,0.7193021846429352
-148.04787015914917,5036.0,12224.0,10608.0,1126.0,-1405.0,144.0,-0.2817107718385054,-0.02694274001328605,0.6962721538961851,0.6596349122806473
-148.05568170547485,5224.0,12328.0,10484.0,807.0,-1344.0,254.0,-0.21080259842966986,0.045613693366872765,0.7689060464765812,0.6018846626759029
-148.06352376937866,5444.0,12212.0,10472.0,758.0,-1347.0,-119.0,-0.11615329650783161,0.09359316838783958,0.8263594186904475,0.5430274778342943
-148.07130885124207,5400.0,11920.0,9960.0,343.0,-1450.0,-113.0,-0.008970288576227494,0.14943076442694506,0.850952591882748,0.5034577111671559
-148.0790901184082,5448.0,11544.0,9492.0,242.0,-1602.0,-98.0,0.11004885519326858,0.2102712140358383,0.8555053735875763,0.4602019358730762
-148.0869119167328,5340.0,11124.0,9720.0,238.0,-1723.0,152.0,0.22562643517431563,0.2897885423088976,0.8360060881865604,0.4076875433613584
-148.0946900844574,5332.0,10760.0,9828.0,324.0,-1920.0,322.0,0.34106709444878364,0.3823760813510186,0.7898771902447796,0.3369804057002658
-148.10247611999512,5332.0,10332.0,9944.0,417.0,-1804.0,535.0,0.4297827014468875,0.4780378889860779,0.7203863333982071,0.2604037958322359
-148.11026310920715,5180.0,10076.0,10132.0,460.0,-2151.0,723.0,0.5189684384470866,0.5779709602530096,0.6076148373846276,0.16560657713405824
-148.11804509162903,5228.0,9860.0,10464.0,480.0,-2236.0,814.0,0.5885792889550066,0.6605359550198114,0.46185309552352205,0.06291574440968584
-148.1258420944214,5216.0,9780.0,10508.0,444.0,-2355.0,816.0,0.638130475082033,0.7119685418190088,0.2891773905108413,-0.04761017799834019
-148.13362383842468,5264.0,9700.0,10448.0,464.0,-2383.0,705.0,0.6566797326253664,0.7281276731354429,0.10799919472886137,-0.1641279815002931
-148.14141821861267,5348.0,9780.0,10560.0,536.0,-2533.0,630.0,0.6385878468758901,0.7094702410418207,-0.08279699039023843,-0.286360257858514
-148.14919686317444,5216.0,9488.0,10512.0,650.0,-2636.0,587.0,0.5773555644339807,0.6564289563041552,-0.27444608759548267,-0.4005507739926235
-148.15698885917664,5272.0,9676.0,10268.0,833.0,-2811.0,261.0,0.4567145920084874,0.5750627515502271,-0.4457442420945102,-0.5118854206417616
-148.16477131843567,5280.0,9676.0,10532.0,976.0,-2995.0,530.0,0.30342913642870706,0.44251903626815425,-0.6120035821502164,-0.5809985173317884
-148.17256426811218,5352.0,9088.0,10712.0,1213.0,-3156.0,593.0,0.11318825937865541,0.27090546056765197,-0.7471565875605172,-0.5962849008975339
-148.18032932281494,5476.0,8780.0,10792.0,1448.0,-3400.0,749.0,-0.0985359006953295,0.05634302516383528,-0.8299735105949324,-0.5461319542933475
-148.18813920021057,5848.0,8692.0,10704.0,1562.0,-3662.0,908.0,-0.30914840662883253,-0.18604047692636302,-0.8264155612890843,-0.432265570781566
-148.1959264278412,6000.0,8540.0,10760.0,2213.0,-3956.0,991.0,-0.4830836729534797,-0.4324357734709157,-0.7294455312825239,-0.2180336754731768
-148.20371770858765,6328.0,8792.0,10712.0,2554.0,-4173.0,1167.0,-0.5770560619556193,-0.6353452086282929,-0.5108868447322746,0.04834665565315057
-148.2115159034729,6696.0,9464.0,10704.0,2844.0,-4466.0,1508.0,-0.5632746089873221,-0.7453931634835945,-0.17143402096015672,0.3126037798228475
-148.21931982040405,7136.0,10136.0,10476.0,3057.0,-4698.0,1888.0,-0.43210957789047366,-0.7070284522173682,0.2362822713932665,0.5075064222999232
-148.22711491584778,7492.0,10856.0,10284.0,3115.0,-4803.0,2266.0,-0.21256227651058737,-0.497590150203485,0.6124925670437134,0.5762587755004797
-148.23489785194397,8016.0,11648.0,10268.0,2969.0,-4751.0,2339.0,0.04650193232247168,-0.16658619023942853,0.8408053701923857,0.5129648535401179
-148.24267268180847,8620.0,12044.0,10192.0,2739.0,-4552.0,2826.0,0.26011061114695483,0.22649638777256742,0.8729316428647541,0.3450104392336233
-148.25046253204346,9208.0,12624.0,10232.0,2449.0,-4168.0,3040.0,0.3917476162046926,0.5721649592123954,0.7087234239287417,0.12989292906905994
-148.25824570655823,9896.0,12888.0,10284.0,2080.0,-3646.0,3123.0,0.43484772734606963,0.7985220168139773,0.41078098669516305,-0.0672980211822372
-148.26604104042053,10432.0,12892.0,10268.0,1642.0,-3327.0,3091.0,0.42196921700367485,0.8773663407684341,0.054669447311586725,-0.22176910406672787
-148.2738299369812,11000.0,12848.0,10888.0,1107.0,-2604.0,2847.0,0.38205959798472455,0.8316972735716175,-0.264980627301806,-0.30347219951097665
-148.28160858154297,11272.0,12908.0,11268.0,586.0,-2217.0,2661.0,0.343081518704989,0.6987764486766118,-0.523600160298815,-0.3461927475165187
-148.28936958312988,11948.0,12680.0,11604.0,19.0,-1921.0,2522.0,0.3184914371224104,0.5068900124148574,-0.7088926261502375,-0.37295705434216836
-148.29715085029602,11960.0,12568.0,11924.0,-270.0,-1671.0,1872.0,0.281360308074593,0.32136335938229094,-0.8099341961414912,-0.4019559257024769
-148.30495738983154,11968.0,12504.0,11712.0,-799.0,-1331.0,1481.0,0.2572801469028646,0.1477040825022335,-0.841445729203346,-0.45161877156210317
-148.3127408027649,11808.0,12440.0,11280.0,-1599.0,-1280.0,875.0,0.21446464309627733,-0.0029273046901923264,-0.8033121177724468,-0.5555951666355493
-148.32051753997803,11600.0,12336.0,10516.0,-2123.0,-680.0,57.0,0.16598670818992378,-0.07821969515335424,-0.6998160032792323,-0.6903532816961694
-148.3283495903015,11360.0,12292.0,9824.0,-2645.0,-150.0,-524.0,0.10443436872881111,-0.09114185926742949,-0.5314609197737311,-0.8356649537169492
-148.33615398406982,11092.0,12268.0,9228.0,-3180.0,202.0,-1312.0,-0.006719622929348901,-0.042873480889399754,-0.2949587433161031,-0.9545239918647925
-148.3439440727234,11052.0,11456.0,8764.0,-3654.0,281.0,-2230.0,-0.1862097240892582,0.037263934547473454,0.0007157467586745663,-0.9818028445381595
-148.35173559188843,10776.0,10904.0,8596.0,-3894.0,656.0,-2789.0,-0.3801321357253599,0.144019263692169,0.3064525477934977,-0.8607234439849516
-148.35955238342285,10376.0,10480.0,8516.0,-3978.0,471.0,-3141.0,-0.528942092879816,0.20759685440198755,0.5748831347837353,-0.588755628222394
-148.36738228797913,10268.0,10136.0,8480.0,-3947.0,118.0,-3097.0,-0.5702967956101717,0.22015003439241215,0.7587557223811886,-0.22491171829762505
-148.37517023086548,10136.0,9484.0,8496.0,-4038.0,-205.0,-3471.0,-0.4962928950005018,0.1696911749598067,0.82953993249425,0.19173358576476987
-148.38297271728516,9800.0,9060.0,8668.0,-4089.0,-550.0,-3449.0,-0.3061940399522954,0.09616307209105862,0.7567053487449598,0.5695567475190431
-148.39075994491577,9632.0,9100.0,8908.0,-4065.0,-906.0,-3332.0,-0.04230587560692948,0.026995780398769046,0.5499714362003919,0.8336743129624844
-148.3985562324524,9572.0,9024.0,8988.0,-3889.0,-1260.0,-3056.0,0.22797036025114348,-0.012288261178288056,0.2546075385007532,0.9397092714359934
-148.40636825561523,9820.0,9180.0,9672.0,-3674.0,-1284.0,-3059.0,0.4620794780480257,-0.043822216130748604,-0.06929299571036444,0.8830405710304241
-148.41416811943054,10076.0,9268.0,10408.0,-3564.0,-1719.0,-2380.0,0.5764624190610257,-0.03744644072051286,-0.39166912576563345,0.716159297509751
-148.4219582080841,10524.0,9244.0,10752.0,-3532.0,-1811.0,-2078.0,0.5895517142739649,-0.028583250868436074,-0.6614767652971927,0.462666470514542
-148.429758310318,11356.0,9084.0,11152.0,-3525.0,-1773.0,-1810.0,0.5158270599086326,-0.03155811619326638,-0.841155276726039,0.159324605771641
-148.43756914138794,12184.0,9060.0,11188.0,-3481.0,-1666.0,-1734.0,0.38286904321927584,-0.035411163684853114,-0.9092749951028654,-0.15929949313015715
-148.4453604221344,12692.0,9152.0,11152.0,-3370.0,-1638.0,-1683.0,0.2062816979101477,-0.03503508462197457,-0.8681751262648016,-0.4499915044619548
-148.45314168930054,13008.0,9412.0,11024.0,-3259.0,-1595.0,-1658.0,0.009833896602528284,-0.029038323395286374,-0.7308270596863914,-0.6818737999675197
-148.46095061302185,13164.0,9800.0,10644.0,-3285.0,-1689.0,-1772.0,-0.19923900488986834,-0.01830921941375648,-0.5095409415484463,-0.8368611714620753
-148.46874046325684,13284.0,10388.0,10556.0,-3387.0,-1686.0,-2042.0,-0.4013369802761391,0.007515837835904686,-0.22095340909923872,-0.88884854247047
-148.47652506828308,13020.0,10968.0,10240.0,-3571.0,-1646.0,-2351.0,-0.5692371722966906,0.046354403822887,0.10700608499667137,-0.8138611728640075
-148.4843451976776,12452.0,11744.0,10056.0,-3697.0,-1515.0,-2760.0,-0.6778685553222779,0.08868762458145682,0.4198122020817291,-0.5969811068490158
-148.49213457107544,12180.0,11792.0,9472.0,-3975.0,-1239.0,-3190.0,-0.6983302732195606,0.12928067312090424,0.6590857176565171,-0.24744161704065315
-148.49991083145142,12132.0,12296.0,9108.0,-4296.0,-858.0,-3730.0,-0.6086890661690666,0.14107672703688542,0.756189179642815,0.19435252096619787
-148.50769090652466,12056.0,12348.0,8024.0,-4605.0,-563.0,-4090.0,-0.39200408567839645,0.11018437697650246,0.6672149563619638,0.623711793931017
-148.5154995918274,11908.0,12264.0,7620.0,-5014.0,-600.0,-4452.0,-0.05737567517369715,0.04752521414874295,0.394362141931943,0.9159300666149839
-148.52328395843506,11452.0,11956.0,7424.0,-5415.0,-930.0,-4697.0,0.31498401054007064,-0.010476132254608462,-0.01201785332784859,0.9489630630106037
-148.5310685634613,11256.0,11192.0,7476.0,-5580.0,-1512.0,-4767.0,0.5884678807989079,-0.027914014549032626,-0.43514370277379627,0.6808643910472252
-148.53885984420776,10744.0,10096.0,7592.0,-5547.0,-2172.0,-4622.0,0.6409150519561847,-0.00665753986383754,-0.7413780047496197,0.1988522753514161
-148.54665303230286,10412.0,9604.0,7836.0,-5622.0,-2593.0,-4287.0,0.45488714906634575,0.0011450767577259428,-0.8242887356523371,-0.3370822610138104
-148.55444264411926,10228.0,8760.0,8108.0,-5026.0,-3376.0,-3987.0,0.08050564535973623,-0.009191609047513632,-0.6844244664137697,-0.7245671157060308
-148.56225872039795,9640.0,8200.0,8352.0,-4681.0,-3362.0,-3728.0,-0.3086083774503643,-0.02755213209859785,-0.3558886483170155,-0.8816717186024301
-148.57004761695862,9360.0,7928.0,8288.0,-4429.0,-3655.0,-3626.0,-0.6122236964978499,-0.06639007760747988,0.06425285285036127,-0.7852681541628765
-148.57784795761108,9512.0,7592.0,8196.0,-4031.0,-3500.0,-3539.0,-0.7493620905223738,-0.09692765600265961,0.44249530471961346,-0.4829693490179934
-148.58563446998596,9720.0,7912.0,7968.0,-3669.0,-3355.0,-3475.0,-0.7047414097028587,-0.11739987309306307,0.6955886251427817,-0.07558624094195089
-148.59342074394226,10232.0,7660.0,7900.0,-3296.0,-3235.0,-3360.0,-0.5051049425472078,-0.1253636311178311,0.7891499417359226,0.32618296470773017
-148.60120153427124,10408.0,7764.0,8020.0,-3082.0,-3136.0,-3251.0,-0.20790298853375236,-0.11199943508757354,0.7255717976114529,0.6463575174852411
-148.60900688171387,10564.0,7892.0,8204.0,-3004.0,-3091.0,-3265.0,0.1289332718394114,-0.08117651064734,0.5246796193317312,0.8375547042371717
-148.6167962551117,10668.0,8012.0,8504.0,-3051.0,-2896.0,-3317.0,0.4369093340806466,-0.0502626453719318,0.22237735345913331,0.8701334454794467
-148.62458848953247,10616.0,8104.0,8876.0,-3137.0,-2596.0,-3354.0,0.6614441047630663,-0.03408061476944025,-0.11769486004127384,0.7399176493982204
-148.63237524032593,10640.0,8096.0,9048.0,-3122.0,-2245.0,-3389.0,0.7740594577541444,-0.03121521922974744,-0.41893288522470945,0.47365895286281573
-148.64016675949097,10840.0,7816.0,9312.0,-3156.0,-1909.0,-3426.0,0.7666469237652505,-0.03660112079701119,-0.6295427651909633,0.1207839353283223
-148.64795231819153,10740.0,7504.0,9488.0,-3065.0,-1586.0,-3407.0,0.6498961040213237,-0.03463881700869989,-0.7171538084045866,-0.24925011820446558
-148.65575671195984,10684.0,6992.0,9672.0,-2928.0,-1511.0,-3576.0,0.43149747941705197,-0.0089377107455193,-0.6902420177059134,-0.5807718997822034
-148.6635925769806,10648.0,6572.0,9588.0,-2667.0,-1034.0,-3192.0,0.19240233256634875,0.02851555684929994,-0.5585294004148358,-0.806357931884375
-148.67138051986694,10708.0,6156.0,9784.0,-2333.0,-829.0,-3044.0,-0.053273251323923194,0.07492667754945176,-0.37896265576178434,-0.920834001990996
-148.6791651248932,10312.0,6280.0,9504.0,-1882.0,-660.0,-2788.0,-0.2747283286334274,0.1174283574663225,-0.19771099752684002,-0.9336194555417034
-148.6869556903839,10220.0,6524.0,9492.0,-1580.0,-514.0,-2637.0,-0.4653241748839726,0.15306569976274492,-0.028583304437658445,-0.8713365013197345
-148.69471549987793,9840.0,6912.0,9412.0,-1288.0,-154.0,-2633.0,-0.6284625714480857,0.19367181227288968,0.10730723977555298,-0.7456615731761604
-148.70250964164734,9384.0,7708.0,9028.0,-1086.0,19.0,-2697.0,-0.7617275255293129,0.22189634938989478,0.2156723488469463,-0.5692263389208804
-148.71030855178833,9208.0,8328.0,8748.0,-1032.0,721.0,-2789.0,-0.8636924761913326,0.2642947237980216,0.2637751624240633,-0.33853547706432613
-148.71816682815552,8544.0,8692.0,8728.0,-890.0,1002.0,-2821.0,-0.9162321483726756,0.28537689976830155,0.26978956515211533,-0.07932380413253262
-148.7259542942047,8348.0,8776.0,8876.0,-824.0,1100.0,-2739.0,-0.90867869515789,0.28414494868511914,0.24712271022752902,0.1802638155390206
-148.7337462902069,8288.0,8848.0,9224.0,-757.0,924.0,-2508.0,-0.8458755020405508,0.2675387544928164,0.21792374251051383,0.4067270489435019
-148.7415373325348,8548.0,9200.0,9680.0,-710.0,601.0,-2191.0,-0.7469719655021588,0.2513342707038722,0.19550472024783272,0.5836453302172573
-148.74932503700256,8928.0,8988.0,10144.0,-765.0,234.0,-1837.0,-0.6309789780927182,0.25387554195690104,0.17908561009453902,0.7108734645900251
-148.75711679458618,9352.0,9084.0,10568.0,-765.0,-150.0,-1778.0,-0.49425646884556457,0.2734481635824015,0.17701823347331627,0.805978405328401
-148.76498126983643,9872.0,8992.0,11036.0,-720.0,-422.0,-1242.0,-0.37987540661108626,0.31221149806710774,0.17302809259317753,0.8533931890402695
-148.77279353141785,10128.0,9272.0,11036.0,-724.0,-442.0,-1099.0,-0.26954604929562304,0.34985041552596524,0.16279603868953682,0.8822964716309513
-148.78060698509216,10076.0,9468.0,11096.0,-788.0,-283.0,-1128.0,-0.15334429031540228,0.3712421140822082,0.1424271396813895,0.9046432065967314
-148.78845143318176,10044.0,9812.0,11360.0,-883.0,-23.0,-1236.0,-0.02651168766328614,0.3661875563643987,0.11236215036772702,0.9233518024815108
-148.7962532043457,10016.0,10032.0,11176.0,-780.0,322.0,-1518.0,0.11636763147662602,0.32340745971320567,0.09647213115549598,0.9341088358733625
-148.80405521392822,10060.0,10188.0,11144.0,-1173.0,270.0,-1545.0,0.2693089059719227,0.27260749837826576,0.04681406390137688,0.92247835118944
-148.811838388443,10112.0,10480.0,10952.0,-1436.0,710.0,-1803.0,0.4361851767180183,0.17080019787721756,-0.00877910448859737,0.8834549854638621
-148.81966304779053,10104.0,10412.0,10464.0,-1538.0,754.0,-2274.0,0.6162804666823773,0.054500158888247566,-0.06269975142142796,0.783132721981784
-148.82745099067688,9896.0,10204.0,10300.0,-2087.0,605.0,-2370.0,0.7620965065422451,-0.082611003119133,-0.15544019758543146,0.6230751815426114
-148.8352451324463,9532.0,9940.0,10136.0,-2263.0,438.0,-2393.0,0.8470421484402592,-0.21530352613699197,-0.2560449913438473,0.4130435241066211
-148.8430573940277,9024.0,9200.0,9848.0,-2252.0,505.0,-2241.0,0.8635127757185159,-0.3366383194825081,-0.3292851587582033,0.1805314716288594
-148.85088205337524,8744.0,8524.0,9660.0,-2297.0,4.0,-2069.0,0.800211907854298,-0.43460565799572703,-0.41129511746923025,-0.04018894017335944
-148.8586709499359,8688.0,8160.0,9672.0,-1729.0,-340.0,-2043.0,0.696267884290702,-0.4701842806767424,-0.493018354686134,-0.22598822414546618
-148.86646556854248,8656.0,7872.0,9852.0,-1403.0,-584.0,-1614.0,0.5711690891694324,-0.48830739650581595,-0.5567519306595888,-0.3540466717847993
-148.874253988266,9036.0,7928.0,9724.0,-1070.0,-679.0,-1559.0,0.4377374844028062,-0.47942721293271706,-0.6145889235836334,-0.44812486792922024
-148.88203406333923,9424.0,7728.0,9844.0,-859.0,-585.0,-1622.0,0.30274268972762963,-0.44180810914454416,-0.6618782440873849,-0.524470827133791
-148.88981199264526,9648.0,7748.0,9888.0,-650.0,-358.0,-1702.0,0.1768060367622257,-0.3721075114554665,-0.6980337209144766,-0.5856829771720746
-148.89760088920593,9816.0,7668.0,10056.0,-390.0,-485.0,-1678.0,0.04826919918811918,-0.2970378846475095,-0.7311195172153626,-0.6122930924325749
-148.90537691116333,9840.0,7608.0,9652.0,-125.0,-109.0,-1660.0,-0.050056766873713986,-0.195393681629136,-0.7598232379822989,-0.6180487653022675
-148.91316151618958,9552.0,7384.0,9452.0,167.0,-2.0,-1584.0,-0.13146307893817397,-0.0903442985313667,-0.7881697433129836,-0.5944273061736954
-148.92097520828247,8968.0,7080.0,9384.0,408.0,110.0,-1572.0,-0.20017335471723827,0.01858995192937027,-0.8147486400485712,-0.543847124923461
-148.9287507534027,8364.0,6864.0,9404.0,757.0,249.0,-1561.0,-0.2547869955965319,0.12666903849448527,-0.8426580985910139,-0.4571278491196443
-148.9365315437317,7832.0,6756.0,9352.0,1063.0,390.0,-1284.0,-0.2858828137408952,0.21064756609851443,-0.8698752358352108,-0.34236777562293635
-148.94430804252625,7380.0,6728.0,9472.0,1793.0,386.0,-926.0,-0.31221545279652607,0.2438269321217622,-0.9016802409485164,-0.17332824723678178
-148.95208287239075,6704.0,6780.0,9548.0,2604.0,263.0,-519.0,-0.3455368124982196,0.21199162753022607,-0.9127789598470456,0.049984312801135855
-148.9598650932312,6908.0,7064.0,9648.0,3478.0,87.0,-130.0,-0.3850150277811491,0.11199448899967325,-0.859033425030095,0.3182487038425246
-148.96769785881042,6816.0,7520.0,10020.0,3633.0,-204.0,148.0,-0.41928111292959563,-0.014813073239305075,-0.7173018712525395,0.5562930403117875
-148.9755256175995,7092.0,8460.0,10456.0,3371.0,-396.0,298.0,-0.43536637144817075,-0.13190691276456748,-0.5162985835048519,0.7255980027865688
-148.98331809043884,7156.0,9680.0,10788.0,3290.0,-419.0,404.0,-0.4243168889644811,-0.238639358770347,-0.27570464877593986,0.8288506384316281
-148.99110770225525,7500.0,10840.0,10808.0,2638.0,-469.0,304.0,-0.3919906749602703,-0.3014147481115168,-0.05930596270065398,0.8671650726091379
-148.99890089035034,7460.0,11716.0,11160.0,2049.0,-483.0,61.0,-0.33959135568438015,-0.32961482331416886,0.11226963222699697,0.873743274123257
-149.00668811798096,8104.0,12064.0,10508.0,1403.0,-458.0,-255.0,-0.2730768260540476,-0.335721682859016,0.22381050004760816,0.8732862410452814
-149.0455982685089,7392.0,10340.0,9732.0,2660.0,-1325.0,-886.0,-0.0983063681866005,-0.3042573045354674,0.4173069626967319,0.850657539492598
-149.05339694023132,8128.0,9528.0,10788.0,2743.0,-1833.0,-531.0,0.07738523005391738,-0.20238137658564898,0.59770805287366,0.7718797756845156
-149.06118297576904,8748.0,9184.0,10936.0,2567.0,-1993.0,-6.0,0.21840510207281927,-0.048984506442968215,0.7283036119277252,0.6476677993926592
-149.06899428367615,9656.0,9356.0,10844.0,3001.0,-1962.0,256.0,0.32577583030581464,0.12931102893652247,0.8220766540994601,0.4487078570390445
-149.07678079605103,10060.0,9944.0,11068.0,3097.0,-1665.0,1019.0,0.3527898181320036,0.338896956643518,0.8425095116026785,0.22553474202252183
-149.08456206321716,10476.0,10692.0,10896.0,3181.0,-1503.0,1529.0,0.3215781908783168,0.5489757684069941,0.7714817127835307,-0.005388849039368011
-149.0923466682434,10740.0,11452.0,10696.0,3305.0,-648.0,1869.0,0.19691059965713023,0.7273320139689784,0.6276255067208559,-0.1957053410407796
-149.1001272201538,10868.0,11888.0,10664.0,2601.0,117.0,1805.0,0.05419573499883762,0.8413705463951355,0.45356330874257345,-0.28885766551915465
-149.10791873931885,10640.0,12420.0,10472.0,2262.0,907.0,2030.0,-0.09312523606107018,0.9206947947959383,0.24258437779451505,-0.29120715117298024
-149.1157021522522,10272.0,12228.0,10132.0,1433.0,1787.0,1908.0,-0.19123461951273643,0.9628192298708081,0.037040453007013294,-0.1871802760224432
-149.12353134155273,9640.0,11764.0,9764.0,1135.0,2422.0,1912.0,-0.2529730545715804,0.9512340531843352,-0.17555262693613258,-0.018430542559810262
-149.13131046295166,9120.0,10648.0,9716.0,1055.0,2734.0,1970.0,-0.2823667151909397,0.8621237471985322,-0.38340032271117547,0.17325090249002026
-149.13909649848938,8580.0,9476.0,9308.0,1044.0,2646.0,2075.0,-0.2903213885089431,0.6948518031316877,-0.5629823294561653,0.34050750326386553
-149.14687752723694,7856.0,8844.0,9300.0,1681.0,2396.0,2293.0,-0.32592087920141277,0.4454731815224112,-0.6779771893905165,0.48546488617717215
-149.1546642780304,7296.0,7884.0,9076.0,1826.0,1932.0,2326.0,-0.3642189667652591,0.16627349277639117,-0.7128497463044464,0.5757976285484968
-149.16243839263916,7328.0,7516.0,9084.0,2673.0,1324.0,2902.0,-0.4384586981474182,-0.155863548749365,-0.6228243518715163,0.6289279377686693
-149.17027926445007,7220.0,7544.0,9152.0,3140.0,975.0,2959.0,-0.47130566761855447,-0.45750835494810527,-0.4173656967695412,0.6279832386165914
-149.17806243896484,7264.0,7740.0,8972.0,3462.0,207.0,3009.0,-0.4553137852945611,-0.6691222345675147,-0.1075026656186886,0.5774149019665067
-149.1858422756195,7352.0,8204.0,9640.0,3680.0,-129.0,3002.0,-0.3630192215024442,-0.7731246027818923,0.2388267587831891,0.4620142559296379
