programtime,ax,ay,az,gx,gy,gz,q0,q1,q2,q3
-10812.886152267456,-7560.0,-3720.0,-13808.0,602.0,1140.0,566.0,0.9925147654860739,0.051996571157737634,0.09903298666430511,0.04902310100666757
-10812.901758432388,-8128.0,-3152.0,-14492.0,-571.0,-330.0,-1770.0,0.9921150172364975,-0.011253853542482725,0.0753434099799717,-0.09952142446156162
-10812.917380809784,-7892.0,-3468.0,-15724.0,-2957.0,-3145.0,-5833.0,0.810419757961366,-0.2813549791885562,-0.14926514476590386,-0.49171039052440385
-10812.933045387268,-5880.0,-5100.0,-15032.0,-3273.0,-3712.0,-6536.0,0.3262810201107228,-0.47761560851307433,-0.3511185843770859,-0.7363014098351456
-10812.94871878624,-4412.0,-6300.0,-13588.0,-1713.0,-1559.0,-3871.0,-0.03877358518574258,-0.472857025968863,-0.41578127324317943,-0.7759051326702294
-10812.964310646057,-4188.0,-6360.0,-14060.0,555.0,1437.0,1309.0,0.12306380297703857,-0.41863317620779694,-0.3981751279627248,-0.8068817333704291
-10812.979938983917,-5208.0,-5428.0,-14528.0,2529.0,2788.0,4137.0,0.5425282842309082,-0.30470263801127384,-0.35523494221468205,-0.6975869114513037
-10812.995564222336,-6836.0,-4556.0,-14816.0,2760.0,2343.0,2254.0,0.7739352845155797,-0.0950577207639397,-0.33035908531082214,-0.5318374562378533
-10813.011148929596,-7416.0,-3436.0,-14132.0,2278.0,1210.0,1131.0,0.8547597410366998,0.0799392264383966,-0.33513006172941606,-0.3881795292188172
-10813.026740074158,-7384.0,-3308.0,-13724.0,411.0,35.0,-132.0,0.8477734370158982,0.11568837891333879,-0.3453862875129971,-0.3854928155914764
-10813.042337417603,-7220.0,-3776.0,-13816.0,-533.0,-717.0,1162.0,0.8635401878908575,0.017081654739014327,-0.38919176660718696,-0.32021294441976633
-10813.057986736298,-6996.0,-4624.0,-14056.0,-1062.0,-725.0,136.0,0.8389039925208731,-0.08735084121380907,-0.41190645907531626,-0.34488112567059004
-10813.073577404022,-6836.0,-5240.0,-13956.0,-366.0,-539.0,-708.0,0.7925722814412983,-0.10470822594653362,-0.4443365826624587,-0.40426521915434815
-10813.08921289444,-6568.0,-5188.0,-14152.0,373.0,-391.0,-670.0,0.754978219960149,-0.06666579658727455,-0.48945863230656506,-0.43126999224589674
-10813.10479593277,-6304.0,-4836.0,-13936.0,349.0,104.0,-753.0,0.7310775133899505,-0.007642746876030426,-0.4989940039788915,-0.46526577547555525
-10813.120414733887,-6204.0,-4868.0,-13640.0,421.0,562.0,1335.0,0.8030339545218449,-0.015988478047835653,-0.4754377172403672,-0.3589426325751655
-10813.136078357697,-6656.0,-4708.0,-13812.0,318.0,1258.0,2632.0,0.9087351235702533,-0.06158039060421289,-0.38143359284541695,-0.15785038781018468
-10813.151686668396,-7196.0,-4600.0,-14000.0,332.0,920.0,2635.0,0.9492395129887777,-0.10729594995555668,-0.2903974775178953,0.055688698630928145
-10813.167306184769,-7236.0,-4456.0,-14308.0,355.0,441.0,1211.0,0.9513408478528778,-0.1102577928903838,-0.2392356518113885,0.15987530520968285
-10813.182873725891,-6956.0,-4268.0,-13896.0,297.0,210.0,-510.0,0.9642193858997843,-0.07807423978871192,-0.22225952689067163,0.12159807417386374
-10813.198459625244,-6656.0,-3976.0,-14016.0,-129.0,-127.0,37.0,0.9603190601155897,-0.08859453203649006,-0.23404923207357767,0.12312298176097865
-10813.214043617249,-6452.0,-4136.0,-14304.0,-950.0,-383.0,-610.0,0.9465323194798844,-0.1511263427372796,-0.27960175322039377,0.05531958339473108
-10813.229624032974,-6188.0,-4796.0,-14384.0,-1274.0,-453.0,-696.0,0.9139264211334349,-0.23542409239189802,-0.32952424977848344,-0.026977069589012113
-10813.245200872421,-6032.0,-5348.0,-14188.0,-415.0,58.0,-283.0,0.905418656468581,-0.2602827925036989,-0.3294850891470087,-0.06252599839182166
-10813.260785579681,-6092.0,-5500.0,-13652.0,562.0,713.0,305.0,0.937002218918435,-0.22027921657285096,-0.26840675363296546,-0.03823248739217293
-10813.27637720108,-6540.0,-5068.0,-13384.0,835.0,1498.0,761.0,0.9776096431814048,-0.16296241787597116,-0.1323176991793275,0.014651361801309675
-10813.292006254196,-7148.0,-4528.0,-13668.0,895.0,1541.0,1102.0,0.9902669677615455,-0.09994465707451632,0.01582149864802804,0.0955619080132974
-10813.307596445084,-7836.0,-3876.0,-13968.0,508.0,1072.0,42.0,0.9875403606568378,-0.06480200360909047,0.11269490524530633,0.08868255033410746
-10813.323226451874,-8060.0,-3732.0,-13892.0,-918.0,18.0,-934.0,0.9829481154486072,-0.15240090579939417,0.10147772733607038,0.017006972166205378
-10813.338826656342,-7928.0,-4116.0,-13628.0,-1719.0,-727.0,-2633.0,0.9340381712326812,-0.31020566665057886,0.0017390433767996158,-0.17703704354262137
-10813.354465723038,-6840.0,-4360.0,-13748.0,-1830.0,-746.0,-2851.0,0.8044399605960412,-0.4513435758923354,-0.10316309162574705,-0.37218638183466246
-10813.37007021904,-6068.0,-4760.0,-13936.0,-1973.0,-129.0,-1662.0,0.6550526164024968,-0.5651569841445298,-0.11071320938383152,-0.4891280387432669
-10813.385664463043,-6132.0,-5376.0,-14044.0,-1681.0,965.0,-546.0,0.5496621280881175,-0.6057455337758713,-0.010464365758811914,-0.5751820497073011
-10813.401245594025,-6176.0,-5620.0,-14008.0,-742.0,1777.0,-201.0,0.4949222918195926,-0.5444687882479587,0.10011372135075312,-0.6697633212420231
-10813.41686463356,-6604.0,-4724.0,-14308.0,213.0,2431.0,-222.0,0.46042087027198214,-0.38658796763761394,0.1782752164347993,-0.7789610469727837
-10813.432446479797,-7152.0,-3960.0,-14556.0,388.0,2649.0,861.0,0.47670117762372594,-0.17254492783692874,0.27935954580543254,-0.8154400525466506
-10813.448076963425,-7616.0,-3464.0,-13788.0,55.0,2371.0,620.0,0.45357915960917106,0.013287753564430743,0.37521928128038406,-0.8082696780956719
-10813.463661670685,-7796.0,-2912.0,-13940.0,-643.0,949.0,-766.0,0.366555364052497,0.029586079001794587,0.4559938811794714,-0.810451361489709
-10813.479275941849,-7260.0,-2464.0,-14156.0,-1607.0,435.0,-2373.0,0.17989547739098105,-0.082752133015872,0.5719179501102578,-0.7960524857302281
-10813.494888544083,-7076.0,-3152.0,-13524.0,-3022.0,-737.0,-710.0,0.14023485420573786,-0.20878690038959163,0.737311997899718,-0.6269874270228457
-10813.510483503342,-6636.0,-4116.0,-14104.0,-2807.0,-787.0,-4328.0,-0.08828297683617474,-0.5138458004505293,0.7304364837574976,-0.441170208146789
-10813.526073932648,-6372.0,-4040.0,-14864.0,-1624.0,-861.0,-5561.0,-0.28507706408977457,-0.7915990251433173,0.49005400836799834,-0.2279234955079488
-10813.54164981842,-6460.0,-3356.0,-15520.0,-1241.0,-2188.0,-4850.0,-0.33711198133615367,-0.9132336620128332,0.21135138564260253,0.0876948253501597
-10813.557231426239,-6568.0,-3144.0,-14788.0,-2264.0,-3009.0,-7791.0,-0.32090118682491325,-0.7719657645074299,-0.27007136125156705,0.4776533749012425
-10813.572866916656,-6256.0,-2688.0,-15624.0,-3633.0,-5572.0,-8568.0,-0.24666600832800473,-0.17157123218373294,-0.6120836862616185,0.7314866735866574
-10813.588506698608,-5308.0,-2632.0,-18780.0,-4556.0,-7332.0,-11312.0,0.009782679024274724,0.6263615413949754,-0.5737275928816414,0.527647768704328
-10813.604097366333,-3400.0,-3420.0,-19512.0,-4332.0,-8219.0,-14262.0,0.2745823083358616,0.9578613784725762,-0.00043829236954415657,-0.08429675841552066
-10813.61969923973,-1860.0,-4880.0,-16096.0,-1712.0,-5133.0,-15787.0,0.17040264925743948,0.4979590875696181,0.6842658751769333,-0.5047572647334806
-10813.635329246521,-1580.0,-5964.0,-13296.0,-583.0,-277.0,-6620.0,-0.06873908720810236,0.07079300313558719,0.859343418041856,-0.5017889780226162
-10813.650920152664,-4352.0,-6096.0,-13088.0,1173.0,1298.0,4904.0,0.03785065982669912,0.44466431310950166,0.7010608500989292,-0.5561966025211817
-10813.666508436203,-7792.0,-5848.0,-14080.0,1245.0,1448.0,-1150.0,-0.1519402913414645,0.4405793107305142,0.6774666109223545,-0.5690720603831074
-10813.682126522064,-9488.0,-5052.0,-13816.0,1229.0,-2742.0,-5947.0,-0.28722018641098707,-0.05469809175758869,0.7621258622875876,-0.5776476896071838
-10813.697739362717,-8880.0,-4836.0,-13164.0,-436.0,-5224.0,-12918.0,-0.37645893760472426,-0.7405513817658527,0.5420031849347968,-0.12686554608223996
-10813.713365316391,-7348.0,-4544.0,-12492.0,-1111.0,-6301.0,-7678.0,-0.1770582221449105,-0.8568527174053122,0.1997716838538313,0.44107264818419717
-10813.728948116302,-6424.0,-5312.0,-12876.0,-2542.0,-6927.0,-4413.0,-0.060997699817442665,-0.5023511576521632,-0.09687537352340607,0.8570517819987385
-10813.744528055191,-4948.0,-6312.0,-14304.0,-2380.0,-4863.0,-6764.0,0.23890562272984095,-0.055086557190550806,-0.4352533706446593,0.8662817543890798
-10813.760107517242,-4036.0,-6832.0,-14120.0,109.0,-2948.0,488.0,0.0875672290114447,0.14646718783171564,-0.47062947114103415,0.8656715567612445
-10813.775737524033,-3660.0,-7116.0,-14316.0,2084.0,1167.0,1553.0,-0.008278034968506716,0.010126703991610784,-0.31484792454580124,0.9490520051148555
-10813.791333913803,-4392.0,-6528.0,-13220.0,4332.0,3920.0,7628.0,-0.4108618863577523,-0.4040759806221104,0.02608525172466464,0.8168443375976172
-10813.806921243668,-6336.0,-5756.0,-12136.0,4724.0,5379.0,11945.0,-0.7039519598710158,-0.5908889031043575,0.3755238087849953,0.11951490039946969
-10813.82251906395,-8472.0,-4772.0,-12860.0,4589.0,4333.0,12069.0,-0.4731682673400396,-0.3364552949752534,0.5018935277584536,-0.641102575302669
-10813.838141918182,-9876.0,-3984.0,-12944.0,2064.0,1105.0,7822.0,-0.018817907332568645,-0.01400545612040236,0.4647127052443799,-0.8851507414824507
-10813.85373044014,-9516.0,-3864.0,-12904.0,-63.0,-2197.0,4995.0,0.411789952641099,0.0172706107566506,0.4329224877220193,-0.8016912626020766
-10813.869366407394,-7968.0,-4444.0,-14080.0,-1139.0,-3558.0,3575.0,0.7273735890738687,-0.1252534520050326,0.3460474616113765,-0.5792153217853829
-10813.884954452515,-6184.0,-5216.0,-13568.0,-1435.0,-2798.0,5023.0,0.9326548950822343,-0.18309591516718507,0.2630826021392325,-0.1655846520058178
-10813.90056014061,-5436.0,-6184.0,-13632.0,-180.0,-389.0,9794.0,0.8207885233102101,0.016176165530170514,0.2969254147594891,0.4877292586475519
-10813.916172027588,-5492.0,-6372.0,-14304.0,2263.0,2262.0,12052.0,0.16645819213957327,0.26666065074063966,0.36438371253186175,0.8765890015609944
-10813.931946754456,-6484.0,-5108.0,-13860.0,3221.0,3689.0,12306.0,-0.6328870980131521,0.2764940447347064,0.24744089033514224,0.6795424712149234
-10813.947535276413,-7792.0,-4248.0,-14024.0,3679.0,3719.0,10822.0,-0.9961963018649442,0.05975855774761996,-0.0006816371486377611,0.06341433826297424
-10813.96312904358,-8564.0,-3464.0,-12948.0,2672.0,3786.0,7472.0,-0.8339953882840797,-0.1537295328506439,-0.28106813950042325,-0.44924339061157104
-10813.978709220886,-9516.0,-3152.0,-12852.0,1285.0,2508.0,6945.0,-0.4041777708531623,-0.2671260887146383,-0.3524222374708407,-0.8006763071380558
-10813.994327306747,-10024.0,-3260.0,-13220.0,-89.0,987.0,2150.0,-0.22103983034502625,-0.2556849627160969,-0.3243136019419282,-0.8835085063752146
-10814.009981870651,-9892.0,-3460.0,-14080.0,-1200.0,-1940.0,-3563.0,-0.5417985468621708,-0.2638025305532745,-0.2571273014972405,-0.7554787292283458
-10814.025566339493,-8568.0,-3720.0,-14524.0,-1681.0,-3575.0,-7643.0,-0.931347176168907,-0.19869934862840344,-0.12273656436489805,-0.2793684700619459
-10814.041152715683,-7336.0,-4216.0,-14032.0,-1538.0,-2867.0,-7760.0,-0.9494127065454799,-0.04872727335077841,0.010403465294065679,0.3100531138235195
-10814.05675816536,-6276.0,-4492.0,-13600.0,-1241.0,-1776.0,-6507.0,-0.6667291911081694,0.08261961464048603,0.08235422322106113,0.7361140991168146
-10814.072348594666,-6284.0,-4616.0,-13320.0,-1256.0,-136.0,-4837.0,-0.31711404727134507,0.11889569511301609,0.040459855170264694,0.9400348370280651
-10814.08799958229,-6968.0,-5276.0,-14020.0,-706.0,172.0,-4550.0,0.05831495358496611,0.10037514989253808,0.02290360157232792,0.9929751358958843
-10814.103584766388,-7472.0,-5404.0,-13488.0,87.0,879.0,-6246.0,0.5230415797226534,0.010442231564971429,0.07833727500153748,0.848635220236886
-10814.11929321289,-7800.0,-4976.0,-13488.0,793.0,256.0,-5122.0,0.8197570250603098,-0.006975109987408302,0.13981697707561558,0.5553386179857934
-10814.134877443314,-7928.0,-4488.0,-13064.0,469.0,290.0,-5510.0,0.975554697411946,-0.04947287661571468,0.16220344700594433,0.13976948385195687
-10814.150485038757,-7964.0,-3932.0,-13460.0,-441.0,-257.0,-5425.0,0.9423004679485152,-0.14523644319405604,0.10097198200394923,-0.28421974337217176
-10814.166046380997,-7908.0,-4080.0,-13672.0,-1507.0,-1087.0,-5999.0,0.6875006220098581,-0.30615107373629147,-0.02347699271267106,-0.6580754102679595
-10814.18163061142,-7316.0,-4376.0,-13660.0,-1954.0,-1130.0,-6034.0,0.24969617670697467,-0.4150352462984309,-0.12207149409807239,-0.8663117879820086
-10814.197224140167,-7168.0,-5176.0,-13436.0,-1875.0,-782.0,-4582.0,-0.15848723012259014,-0.42732267694425013,-0.14954800285436243,-0.8774465923915489
-10814.212813854218,-6716.0,-5504.0,-13924.0,-1226.0,-356.0,-2864.0,-0.41299893680304917,-0.3862240156737561,-0.15198118166998953,-0.8106568992703281
-10814.228397607803,-6704.0,-5152.0,-13928.0,-496.0,138.0,-2609.0,-0.5966293547401987,-0.31571119818106447,-0.2044922908522415,-0.7089025006214698
-10814.244017362595,-6676.0,-5124.0,-13636.0,-283.0,371.0,-1727.0,-0.6962293527927216,-0.24427050182418428,-0.25107907923687267,-0.6265428207376997
-10814.259612321854,-7120.0,-4852.0,-13844.0,-231.0,369.0,-1068.0,-0.7476851393212791,-0.18567156676562668,-0.2824930976411595,-0.5715685886383359
-10814.275233983994,-6992.0,-4600.0,-13872.0,-882.0,29.0,-2058.0,-0.8478573917105288,-0.07444813962593762,-0.2689415613309046,-0.45085003539641766
-10814.290832281113,-7000.0,-5044.0,-13544.0,-1335.0,195.0,-2621.0,-0.924905075793167,0.09070930703530923,-0.24031888244957558,-0.28030208191770045
-10814.306463479996,-6956.0,-5400.0,-13392.0,-1219.0,445.0,-2190.0,-0.9365654428872341,0.24024198273230973,-0.2238523578869733,-0.12255236754436863
-10814.322049617767,-7168.0,-5512.0,-13312.0,-787.0,609.0,-940.0,-0.9116179293359289,0.32730818471948986,-0.24396615290934487,-0.047985616214856155
-10814.337634801865,-7172.0,-5224.0,-13728.0,-462.0,445.0,-1049.0,-0.8881057237531224,0.38623324483802735,-0.24625264713116546,0.03810167712482724
-10814.353217124939,-6860.0,-4896.0,-13552.0,-904.0,480.0,-814.0,-0.8390163621996694,0.469322289053476,-0.2575423178913917,0.09726298090213092
-10814.36880660057,-6556.0,-4968.0,-13100.0,-1309.0,1004.0,1019.0,-0.7604946127614334,0.5264155877155579,-0.3786702465054188,0.03381445522918297
-10814.384386777878,-6516.0,-5380.0,-12760.0,-1861.0,1856.0,3208.0,-0.5857450821623198,0.5064192425006886,-0.615717687738671,-0.14606155741135463
-10814.40001988411,-6796.0,-5936.0,-13224.0,-1383.0,2399.0,3902.0,-0.3191006134186567,0.36743744598557615,-0.8242474405979355,-0.2894489220418458
-10814.415593624115,-6836.0,-6344.0,-13096.0,-898.0,3054.0,4553.0,0.039939198313329184,0.1279752792461453,-0.9292408877548405,-0.34429429397617917
-10814.431215763092,-6936.0,-6024.0,-13356.0,385.0,3086.0,5730.0,0.3980542546615798,-0.21088181729965,-0.8640811250520869,-0.22460070972045193
-10814.446811914444,-6948.0,-5080.0,-13232.0,669.0,2943.0,4745.0,0.6509943203465764,-0.43796468745676226,-0.6173848750020374,-0.05682643342774644
-10814.4624209404,-6436.0,-4528.0,-12740.0,-697.0,2322.0,4319.0,0.7074221158175242,-0.6415689811275491,-0.29097172005428473,0.05725950258137689
-10814.478016853333,-6364.0,-6468.0,-9108.0,-1763.0,4723.0,10666.0,0.47037256073145434,-0.7280733053428788,0.41035702372387284,0.28331259985837964
-10814.493645429611,-8120.0,-10360.0,-7284.0,499.0,3295.0,20277.0,-0.057076838907510224,-0.030725738701856454,0.8992481398397421,0.43260946179702897
-10814.509241819382,-10868.0,-10852.0,-20916.0,10090.0,-8361.0,2305.0,0.35187211318459194,0.2711429540583812,0.8665639882506236,-0.2274519041350888
-10814.524865627289,-5992.0,6452.0,-32768.0,23085.0,-11512.0,-32768.0,0.006787239263792076,-0.4574434240394446,0.22001295895534545,-0.8615647074236261
-10814.540490150452,4748.0,7576.0,-2176.0,-11406.0,6046.0,-13928.0,-0.8327949622242404,-0.14319744277789745,0.2712004911265872,-0.4608658556331711
-10814.556101560593,1516.0,-5380.0,-5940.0,-10006.0,5912.0,32767.0,0.06891144476617649,0.4999995700138489,0.20463099203608312,-0.8386762187307645
-10814.571717739105,-6492.0,-9988.0,-15288.0,3704.0,13376.0,11069.0,0.25947119226973514,0.9214097486178314,-0.2542137915232642,-0.1380366753204136
-10814.587301492691,-10324.0,-6072.0,-16256.0,3887.0,18032.0,1305.0,0.19088567915120755,0.6308760464883846,0.0012705619778223725,0.7520348776050406
-10814.602917671204,-14632.0,-2976.0,-16096.0,7310.0,1462.0,29388.0,-0.7567782367065727,0.2333222163155974,-0.3933584816915454,0.4670294944670948
-10814.618497133255,-14040.0,-3820.0,-14040.0,2162.0,-1503.0,-21697.0,0.014808923719349056,0.41635633332604466,0.10934807945054656,0.9024805244425185
-10814.634066343307,-10108.0,-2192.0,-12096.0,1020.0,-8052.0,-14602.0,0.6814211548860973,0.5161516379906697,0.40154157351771086,0.32865949097837827
-10814.649631261826,-5024.0,-1736.0,-12220.0,-1357.0,-7594.0,-5478.0,0.8988494896876214,0.35581119982114834,0.12183336276122204,-0.22499914819489897
-10814.665210723877,-3232.0,-2584.0,-14052.0,-6069.0,-1232.0,-5471.0,0.8053507507606835,-0.16415872862950298,0.2550625648018307,-0.509318336701773
-10814.680786371231,-4324.0,-4836.0,-14592.0,-5070.0,710.0,6978.0,0.8194535681778928,-0.2662839074809926,0.5031088134093167,0.0668599438157349
-10814.69638633728,-6080.0,-6668.0,-14792.0,-2604.0,2695.0,909.0,0.6019532789307283,-0.4060563546088371,0.6652276000038643,0.17390436181828853
-10814.712013959885,-7680.0,-6724.0,-15312.0,763.0,1586.0,-2631.0,0.5558117293418681,-0.5232899415112823,0.6429051886405017,-0.06256098671090274
-10814.727603912354,-7688.0,-5356.0,-14420.0,2235.0,367.0,-5511.0,0.5385492837025978,-0.6407409606539216,0.3522770638462332,-0.41870820466237035
-10814.743223428726,-7016.0,-3640.0,-13804.0,1133.0,20.0,-5643.0,0.35300831722958065,-0.6795245490797851,-0.003145192492582244,-0.6431342184403184
-10814.75880932808,-6220.0,-3076.0,-13428.0,-73.0,-195.0,-856.0,0.2996747687083562,-0.6906559340986925,-0.05556953095499842,-0.6558211958478447
-10814.774420976639,-6024.0,-3076.0,-14000.0,-2186.0,458.0,206.0,0.17850996168597935,-0.7093551729847462,0.09225534831416825,-0.6756022371529586
-10814.790029287338,-6304.0,-4244.0,-14532.0,-2482.0,239.0,1190.0,0.09052732150081438,-0.7043268486347708,0.30729508940139044,-0.6334810355361022
-10814.805655241013,-6348.0,-5184.0,-14376.0,-1972.0,503.0,214.0,-0.031765596580294916,-0.6757822901266711,0.4268481097811416,-0.6000916050081989
-10814.821217298508,-5924.0,-5416.0,-15204.0,-52.0,117.0,-378.0,-0.05882794378208663,-0.6832811755180895,0.40687203172427344,-0.6034246083924247
-10814.836796045303,-5656.0,-4916.0,-15100.0,834.0,446.0,-1240.0,-0.08928965440536024,-0.7017684666317455,0.28425953421591366,-0.64710501007553
-10814.852366447449,-5180.0,-4280.0,-14840.0,1034.0,1192.0,997.0,0.0008723488657152846,-0.6098998578097935,0.27416561534893225,-0.7435419408556531
-10814.867993593216,-5332.0,-4116.0,-14324.0,716.0,2222.0,3149.0,0.1800072061283776,-0.36945154741286823,0.3743687217566494,-0.8312346359641094
-10814.883563041687,-6132.0,-4236.0,-14020.0,358.0,2607.0,4221.0,0.378494376232586,-0.0338318238735984,0.4822307409104425,-0.7893357507263036
-10814.899136066437,-6968.0,-4512.0,-14368.0,239.0,2166.0,3015.0,0.47145930796055896,0.2379452008873025,0.5197568957219576,-0.6715362772490598
-10814.914786338806,-7220.0,-4624.0,-14144.0,176.0,1679.0,829.0,0.43430673058403285,0.3762179823755505,0.5541018342871752,-0.6023361609153697
-10814.930453538895,-7128.0,-4636.0,-14048.0,225.0,1281.0,170.0,0.37134615066866417,0.45739270059087145,0.5816288823930863,-0.5608937484015352
-10814.94605755806,-6784.0,-4112.0,-14076.0,16.0,1238.0,-883.0,0.2622075408479468,0.46965978816735193,0.650652222644874,-0.5360210574859495
-10814.96164226532,-6260.0,-4224.0,-14256.0,-318.0,1473.0,-266.0,0.17746787004939565,0.5117111559508661,0.7040061447457229,-0.4593824072989992
-10814.977224588394,-5976.0,-4300.0,-13988.0,-444.0,2224.0,278.0,0.07032552733920189,0.5993133929034363,0.7295562209519514,-0.3219091451968118
-10814.992959976196,-6064.0,-4556.0,-14176.0,-435.0,3022.0,1385.0,-0.05800515524445319,0.7387499020293922,0.6602514040999623,-0.12227864736191198
-10815.008596420288,-6456.0,-4504.0,-14564.0,-137.0,3276.0,1414.0,-0.21262411071877763,0.8171891178211665,0.5288682686800936,0.08538903699558399
-10815.024184465408,-6512.0,-4508.0,-14180.0,-370.0,3648.0,147.0,-0.33866346014474813,0.7654849873035592,0.42661006024825915,0.3425545963355811
-10815.039803743362,-6240.0,-4608.0,-13660.0,-579.0,4355.0,1080.0,-0.4598217247795019,0.6443926478315832,0.19388292822935155,0.5794234263322613
-10815.0554189682,-6056.0,-4804.0,-13076.0,-1187.0,6568.0,3221.0,-0.5601383239354075,0.34815519724369326,-0.2610906893685521,0.7048862806269476
-10815.071009635925,-6200.0,-5216.0,-12600.0,-1755.0,9381.0,7791.0,-0.5259542672166034,-0.21825984758892286,-0.7249855701494115,0.3874669931777912
-10815.086650848389,-7172.0,-5224.0,-13200.0,-1517.0,11951.0,11078.0,-0.09931992118938937,-0.7189505285366536,-0.6389234056590672,-0.2549952400983578
-10815.10223865509,-7804.0,-4716.0,-14264.0,-1285.0,13911.0,12470.0,0.45583890791440834,-0.5708165249284388,0.02689149139141799,-0.6823900882858468
-10815.117821216583,-8460.0,-3840.0,-16532.0,-1517.0,15553.0,14652.0,0.5737044504819624,0.15530901504967062,0.6914802209281786,-0.4106061585103273
-10815.133392810822,-8804.0,-2508.0,-19520.0,-1755.0,17843.0,17066.0,0.05553007233822326,0.7295219274085321,0.5950914466885034,0.33253622144728284
-10815.148958444595,-10160.0,-1512.0,-22536.0,-2775.0,18174.0,20853.0,-0.5018387309085789,0.48463347736122225,-0.2762877066665299,0.6610244957078263
-10815.16452407837,-10828.0,-1880.0,-21124.0,-2544.0,19985.0,20522.0,-0.40574842484039786,-0.3892127771122481,-0.8019001423283496,0.20208362527894222
-10815.18009853363,-11412.0,-2844.0,-21464.0,-4863.0,18710.0,22813.0,0.12033263137147975,-0.7669861867077514,-0.2775037516259402,-0.5659009763732928
-10815.195710420609,-11388.0,-4636.0,-19792.0,-2460.0,18390.0,24018.0,0.5606489230299551,-0.16471923421878237,0.5809947296267143,-0.5665558076039029
-10815.211308479309,-10504.0,-4884.0,-17748.0,2307.0,19427.0,20927.0,0.23896477147188172,0.7314790839539126,0.6382142677280858,0.022731832342325665
-10815.226879835129,-10408.0,-2432.0,-13808.0,6293.0,22143.0,28342.0,-0.43490048341322857,0.7178427601485352,-0.20864352120687482,0.502027113100148
-10815.242468833923,-12896.0,-28.0,-7112.0,11054.0,21115.0,32767.0,-0.5928245077936948,-0.3329576134990709,-0.7017055640727692,0.21285589473041056
-10815.258047103882,-17796.0,2432.0,-6692.0,9195.0,15966.0,32767.0,0.012657489112379756,-0.9073255438412804,-0.11810867090997328,-0.4032995007663342
-10815.273612499237,-22344.0,4348.0,-3940.0,2912.0,1854.0,32767.0,0.46500395293668884,-0.386438206963906,0.7805073953338865,-0.15888688360241432
-10815.28917002678,-14144.0,-3716.0,-11424.0,12731.0,10798.0,32767.0,0.18240733212532043,0.747233210286647,0.6387872809916781,-0.017913801240759957
-10815.304776668549,-14316.0,1924.0,-13556.0,9240.0,6540.0,32767.0,-0.23017773645201553,0.8571336321303232,-0.442027275006412,0.1301999787377557
-10815.320370674133,-13944.0,5460.0,-14780.0,4574.0,3909.0,32767.0,-0.25816822427140595,-0.17670731752969127,-0.9496052177438403,-0.019329313016341654
-10815.33598780632,-18904.0,10244.0,-11616.0,-6622.0,-7571.0,32767.0,-0.29568063748982953,-0.8737144501648985,-0.08316518274206865,-0.37719964550107343
-10815.351549863815,-18208.0,6616.0,-9320.0,-23162.0,-14162.0,24589.0,-0.40460168178335626,-0.2748548180769115,0.871702987621654,-0.02976927022065457
-10815.367122888565,-14596.0,2692.0,-15416.0,-21637.0,-15138.0,26036.0,0.0873636498979042,0.717529254126295,0.6160927868732134,0.31296811357113763
-10815.382674217224,-11436.0,-1340.0,-20968.0,-22217.0,-16047.0,17469.0,0.6199035798235557,0.6403122094539055,-0.4013242259664878,0.21132603199463576
-10815.39829325676,-10628.0,-2444.0,-21244.0,-20416.0,-16389.0,13918.0,0.3351858098819402,-0.2340575725574126,-0.8803983745072137,-0.24034605831462105
-10815.413857221603,-10732.0,-2380.0,-21184.0,-18159.0,-17943.0,10977.0,-0.451486666665341,-0.7566890074334728,-0.3050316745251474,-0.3612993404216919
-10815.42944073677,-10048.0,-1412.0,-20764.0,-16555.0,-18550.0,1554.0,-0.8313713548172905,-0.3053826252915108,0.43895037261862785,0.15128018025272047
-10815.445034503937,-9084.0,-180.0,-20308.0,-16645.0,-20995.0,-810.0,-0.18073461680249134,0.4513521343723273,0.6764875920921996,0.5531553008261775
-10815.460669517517,-7524.0,-516.0,-20200.0,-18054.0,-22812.0,-4517.0,0.7599882579893268,0.5696981665524402,0.12433461628304542,0.28705879178120347
-10815.476249456406,-5836.0,-1736.0,-19516.0,-18173.0,-23660.0,-6431.0,0.7315761728420547,-0.03952779170704638,-0.555505371308175,-0.39325264075439226
-10815.491858005524,-4240.0,-2968.0,-19644.0,-16274.0,-21330.0,-6434.0,-0.22230686304582645,-0.5748027625421828,-0.5297529489547379,-0.5827034030193732
-10815.507484912872,-4752.0,-3348.0,-19204.0,-14026.0,-19824.0,-5936.0,-0.8934499060774288,-0.43187497410153464,0.11259409548264451,-0.050535549244836796
-10815.523100852966,-5752.0,-3460.0,-18348.0,-11105.0,-18578.0,-9784.0,-0.509432191470102,0.11109809823113245,0.5393807111624259,0.6612144155183783
-10815.538663387299,-7176.0,-2960.0,-17808.0,-8928.0,-19704.0,-17685.0,0.5787387378903248,0.3083015336451128,0.4066817793763961,0.6360987092743023
-10815.554245471954,-7556.0,-2016.0,-16808.0,-8187.0,-22187.0,-26020.0,0.9391127290742509,0.06290581101771066,-0.14501924095230617,-0.30508943079781325
-10815.569816350937,-6016.0,-2136.0,-17728.0,-7853.0,-23830.0,-28004.0,-0.018990533952861013,-0.25087088529728513,-0.5058223826630015,-0.8251344591807239
-10815.58538365364,-3768.0,-3208.0,-15972.0,-6074.0,-23076.0,-29341.0,-0.9520940723984892,-0.17611147914682806,-0.19508344338263325,-0.15634600837357995
-10815.600985765457,-1484.0,-2568.0,-15908.0,-2216.0,-17701.0,-32730.0,-0.5095264031683032,0.09508832221401717,0.23582979873797075,0.8220251586661463
-10815.616560220718,-1004.0,-500.0,-14816.0,-552.0,-12564.0,-23830.0,0.5725886761307012,0.2076469913560445,0.37291911188191873,0.6999687642608595
-10815.632118463516,-1576.0,684.0,-14592.0,-2051.0,-10519.0,-18460.0,0.9836623498818089,0.06956443529475516,0.026873376435093965,-0.16385051847979365
-10815.647742509842,-1816.0,236.0,-14732.0,-4886.0,-7171.0,-24442.0,0.27507608202921574,-0.2058994626336858,-0.1496198419600041,-0.9271205225182317
-10815.663316488266,-1528.0,-840.0,-13352.0,-5712.0,-3643.0,-20227.0,-0.7153710215039404,-0.17694873137886552,-0.06555994165396908,-0.6727817938277959
-10815.67887711525,-1780.0,-1720.0,-13336.0,-4511.0,-20.0,-16845.0,-0.9742827870069914,0.10963867405735389,-0.03282561645893639,0.1941002086473001
-10815.694437026978,-2488.0,-1948.0,-12712.0,-3319.0,4735.0,-19936.0,-0.285751317992405,0.1783204737754583,-0.14551405034585538,0.9302546178601013
-10815.710025072098,-4032.0,-1204.0,-10944.0,-2404.0,8541.0,-15390.0,0.6014077622464886,-0.1407474522232381,-0.1704704742381456,0.7677490967857664
-10815.725598812103,-6564.0,-840.0,-10396.0,-1494.0,9075.0,-15378.0,0.9419029048752907,-0.322565069440278,0.009068276166708831,-0.0932119098175871
-10815.741147518158,-8636.0,-180.0,-9236.0,-2233.0,7985.0,-25668.0,0.25958060499026936,-0.18049941143033882,-0.015128798537550666,-0.948582622358747
-10815.756727457047,-9408.0,1108.0,-8700.0,-3872.0,4027.0,-30497.0,-0.8045240230038492,0.036646516525351835,-0.029018640710866354,-0.5920777379090963
-10815.772298336029,-8232.0,1884.0,-8952.0,-5541.0,-1145.0,-32768.0,-0.808905841020676,0.1464931177319068,0.14405867995537033,0.5508704054034256
-10815.787870168686,-6204.0,3124.0,-32768.0,18656.0,32767.0,-32768.0,0.0259505825692285,-0.7059842795765089,-0.19072295401952596,0.6815698930155448
-10815.803467988968,-24540.0,22968.0,25800.0,-32768.0,32767.0,32767.0,-0.6722212486135144,-0.648020087380773,-0.009222729935257355,-0.35791549354008756
-10815.819082736969,-32768.0,-14652.0,-32768.0,-14381.0,-10690.0,32767.0,-0.13799684635977758,-0.04829398771057005,0.8565785488338064,-0.4948714487859829
-10815.834665060043,-23716.0,-19004.0,-1148.0,-28951.0,5911.0,-32768.0,-0.5321245529362623,-0.47604574626997687,0.4769644150719756,0.5125708286429224
-10815.850239276886,-7596.0,-11052.0,-16332.0,-11685.0,-32768.0,32767.0,-0.26093836390682823,0.675303513346468,0.6615529090635358,0.19550980439128315
-10815.865830659866,-4228.0,-9956.0,-32768.0,3532.0,-32693.0,-32768.0,0.47390872944523854,-0.17710096991076926,0.8141472566122281,-0.28497369556337504
-10815.881402015686,15692.0,3000.0,-9456.0,3757.0,24191.0,-32768.0,-0.5400434186185343,-0.47161015919028676,0.3276498373623328,-0.6152906206271601
-10815.896963357925,15196.0,-3196.0,340.0,-10249.0,31342.0,32767.0,-0.023578595169789038,0.6297113103780928,0.1794356401528645,-0.7554538811037085
-10815.913024187088,-2648.0,-8492.0,-20836.0,29820.0,22547.0,32767.0,0.03252546807023454,0.576848569258981,-0.8161240491693319,-0.011373585104633913
-10815.928755283356,-5272.0,4388.0,-18752.0,23215.0,32767.0,-32768.0,0.2514903173372695,0.6496008559785816,0.195046947140385,0.6904549490073263
-10815.944337368011,-11972.0,15056.0,-20392.0,9702.0,17311.0,32767.0,-0.735840380836533,0.10812749250080159,-0.1999877260833989,0.6378497383489521
-10815.959939479828,-14000.0,7192.0,-13680.0,-3038.0,20989.0,12406.0,-0.4359149087404811,-0.4572200238296864,-0.7751733912892372,-0.005852827017962871
-10815.975754737854,-18024.0,3948.0,-8708.0,-11201.0,9076.0,11133.0,-0.14019634741990566,-0.41509312359631084,-0.3570158286007044,-0.8249741699239604
-10815.991651535034,-15860.0,-1840.0,-11532.0,-12112.0,-1518.0,8938.0,0.010377245812939022,-0.395258687136681,0.5176681264281483,-0.7587374999910679
-10816.007339477539,-11940.0,-4080.0,-15368.0,-10990.0,-3936.0,-16865.0,-0.6376999246609277,-0.6963298634597758,0.32202284686157745,-0.06902762809703146
-10816.022930145264,-7108.0,-3708.0,-17728.0,-10061.0,-11303.0,-5509.0,-0.5591199317125716,-0.20840098527086073,0.3924585576989927,0.6999501495025844
-10816.038517713547,-1800.0,-6380.0,-18188.0,-6149.0,-3654.0,-13164.0,0.15703706608560822,-0.08271264519718753,-0.026791457640980162,0.9837581999643916
-10816.054098367691,-420.0,-6540.0,-15516.0,2405.0,6276.0,-1564.0,0.2770034066885355,-0.5011787922080698,0.21767873345251837,0.7903827553320693
-10816.069677829742,-3392.0,-4008.0,-14820.0,10579.0,11637.0,9194.0,-0.06149958848327045,-0.4651883624895202,0.868255014018064,0.1610925778960615
-10816.085343122482,-8336.0,316.0,-14512.0,11394.0,13160.0,3438.0,-0.34947153645272444,-0.24460913063954734,0.5953330097212761,-0.6808925215871767
-10816.10096859932,-11940.0,3644.0,-14108.0,7491.0,7221.0,2381.0,-0.30962980145615937,0.05837917743322929,-0.014020256752426725,-0.9489597937178554
-10816.116590738297,-12776.0,4416.0,-12056.0,-659.0,786.0,-5163.0,-0.6659422779097905,0.13436032639507903,0.04128096562330626,-0.7326418409158287
-10816.132187128067,-10304.0,2544.0,-13432.0,-6254.0,-3705.0,-7310.0,-0.7781256875012506,0.17460539161982438,0.5516243888052866,-0.24442566424822887
-10816.147827863693,-6636.0,-44.0,-14312.0,-8465.0,-3621.0,-7901.0,-0.4415702723904869,0.20046975954549834,0.7543335307800724,0.4425025360262142
-10816.1634683609,-4968.0,-2288.0,-15296.0,-8673.0,-1587.0,-1307.0,-0.10631557596679209,0.4025625082653245,0.3975031052048267,0.8176990317950122
-10816.17908334732,-4292.0,-4292.0,-15500.0,-5743.0,1978.0,377.0,-4.631708018892404e-05,0.28965551158833913,-0.03869292434110647,0.9563485452841756
-10816.194684505463,-5272.0,-4840.0,-15444.0,-1279.0,2577.0,1578.0,-0.08728024213131914,0.06671826776589751,-0.1784220198816834,0.9778018280312
-10816.210292100906,-5744.0,-3860.0,-15448.0,1740.0,1878.0,-563.0,-0.01965982798692998,-0.0956532370605719,-0.0402444973565702,0.9944065214166063
-10816.225878953934,-5740.0,-2356.0,-14256.0,2697.0,1214.0,359.0,-0.023262446151645966,-0.200517149761198,0.18831088086313832,0.9611403349143328
-10816.2414894104,-5440.0,-788.0,-14520.0,1786.0,489.0,3586.0,-0.2836910397138176,-0.17592942099692993,0.37725297761879195,0.8638567147921774
-10816.257075309753,-5200.0,-912.0,-15312.0,-722.0,1067.0,3344.0,-0.5553971611787806,-0.12277117857875115,0.3320926351580791,0.7524464849666712
-10816.272702217102,-4912.0,-1632.0,-15496.0,-2113.0,2636.0,7536.0,-0.9323601015060768,0.020069266318535763,0.11886523952130097,0.3408414888222347
-10816.288293600082,-5452.0,-2384.0,-16052.0,-807.0,5775.0,14917.0,-0.8346545277557668,0.040042500708252826,-0.23356993512349994,-0.49718558189093887
-10816.303920269012,-7908.0,-2704.0,-15152.0,2325.0,6406.0,16142.0,-0.006486406809780833,-0.0986316438282776,-0.469446626391739,-0.8774107306910742
-10816.31953382492,-10008.0,-1416.0,-14688.0,3928.0,2941.0,5434.0,0.47511051596670667,-0.08269848256009162,-0.6112236654948399,-0.6275640121447057
-10816.33512544632,-10356.0,584.0,-14960.0,3606.0,-2424.0,-1714.0,0.25719758371658874,0.02369389019964311,-0.8535412381369765,-0.4524990135869387
-10816.350717306137,-8152.0,2024.0,-15360.0,1638.0,-5477.0,-5765.0,-0.3117168431983402,0.22329203960220842,-0.8398069151780944,-0.38431448051797407
-10816.366313695908,-5364.0,2160.0,-15040.0,-647.0,-4333.0,-3384.0,-0.6573523236228379,0.30944023288729644,-0.5713458844066022,-0.38170478811504194
-10816.38198876381,-4280.0,1240.0,-14652.0,-2237.0,-1607.0,1222.0,-0.6152909160640855,0.31278864528393907,-0.4235006607301115,-0.5867090781227233
-10816.397583246231,-4852.0,-188.0,-14636.0,-2733.0,1153.0,4506.0,-0.24182622678598872,0.3186614009456758,-0.42404186553693207,-0.8125044515925738
-10816.41319847107,-6712.0,-1364.0,-14844.0,-1659.0,1612.0,6174.0,0.2615004399266043,0.2078028263596219,-0.4440393309112498,-0.8314232242841397
-10816.428786754608,-8652.0,-1736.0,-14924.0,-304.0,859.0,1917.0,0.4319287776194487,0.1859954722632732,-0.4299801523112357,-0.7706881885562652
-10816.444373130798,-9676.0,-1736.0,-15024.0,626.0,-2162.0,-1802.0,0.2126575460975949,0.12805746139794463,-0.5085893067268943,-0.8244482832483311
-10816.459989786148,-8860.0,-1408.0,-15008.0,1164.0,-4607.0,-7437.0,-0.42783554989445594,0.1176297772009715,-0.47128629081567247,-0.7622396013402634
-10816.475571155548,-7316.0,-952.0,-14680.0,2078.0,-3926.0,-8212.0,-0.8968409856458586,0.09055336322712966,-0.293723929709934,-0.3181235420238092
-10816.491151809692,-6204.0,-188.0,-14240.0,3251.0,-1691.0,-1509.0,-0.9523704220530591,-0.16258818751345286,-0.22682935771689652,-0.12289875083705484
-10816.506820440292,-6964.0,1148.0,-13904.0,2730.0,-647.0,1106.0,-0.8843801632678663,-0.40460748490519355,-0.1807831178305306,-0.14656730291735662
-10816.522426366806,-7728.0,1864.0,-14260.0,-1228.0,-2018.0,-887.0,-0.9481316721847183,-0.31432367701153585,-0.039932957877388375,-0.025540500099262804
-10816.538033246994,-7356.0,4.0,-14828.0,-3789.0,-3725.0,2331.0,-0.9456009863482033,-0.015587611180445623,0.3037617586460768,-0.11543220945314457
-10816.553632974625,-6636.0,-2556.0,-15176.0,-3317.0,-2620.0,1482.0,-0.806157584190289,0.25258720412659685,0.5174469621946063,-0.13622883351023693
-10816.569229841232,-6292.0,-3572.0,-15056.0,-344.0,-1979.0,5440.0,-0.5748665737675692,0.4453116990173421,0.48266988596499966,-0.4881144274302471
-10816.584863901138,-6784.0,-3260.0,-15304.0,1900.0,-1772.0,4443.0,-0.3508400307668923,0.42133822578930824,0.2901488341685863,-0.7843462413569752
-10816.600481510162,-7304.0,-2228.0,-14916.0,3036.0,-1817.0,4411.0,-0.10264203116683981,0.28337384218095724,-0.021621370875681906,-0.9532556820323725
-10816.616088151932,-7576.0,-824.0,-14348.0,3629.0,-2523.0,5611.0,0.22880606948095525,0.026078036114869998,-0.37312429315162193,-0.8987468945488326
-10816.631731271744,-7720.0,156.0,-14012.0,2363.0,-2449.0,3369.0,0.3762910006209175,-0.2106572877514707,-0.5676749227484421,-0.701265835508513
-10816.64732837677,-8180.0,600.0,-14008.0,1286.0,-3910.0,5319.0,0.4584606166992208,-0.5788768251492334,-0.5840343797234536,-0.3370746616729808
-10816.662902355194,-7588.0,268.0,-13816.0,490.0,-3474.0,2382.0,0.3526236125754396,-0.7342769678085896,-0.5787985946771657,-0.03855008689753432
-10816.678488016129,-7900.0,-76.0,-13936.0,200.0,-3770.0,5020.0,0.16803064094186942,-0.8719785854273094,-0.3277552718744723,0.3224833825476025
-10816.69405579567,-8320.0,-376.0,-14016.0,468.0,-3952.0,2729.0,0.012450187972242694,-0.7668265419250402,-0.15189455265011587,0.6234982696800059
-10816.709685325623,-8556.0,-456.0,-13884.0,582.0,-5485.0,1716.0,-0.1024294676202784,-0.438255309204752,-0.010171131247002323,0.8929373081051266
-10816.725303411484,-8060.0,-548.0,-13864.0,616.0,-5695.0,245.0,-0.09211805712669512,-0.00047465299989771464,0.08771263093022302,0.9918772770010569
-10816.740896701813,-7984.0,-564.0,-14144.0,1482.0,-5819.0,1407.0,-0.14907485027682774,0.44186785746464835,0.23150866172833953,0.8537758635024159
-10816.756509065628,-8292.0,-192.0,-13952.0,1843.0,-6171.0,25.0,-0.08478006989524775,0.7656485734189025,0.39077425310822994,0.5038750687202745
-10816.772116184235,-8312.0,212.0,-14012.0,349.0,-7649.0,-622.0,0.14966587476851043,0.8955441044711054,0.4188669632329791,-0.01230243832759585
-10816.787745714188,-8112.0,-516.0,-14208.0,-661.0,-8895.0,-229.0,0.41512731748932935,0.6855338300186544,0.2534958722406112,-0.5417125814775213
-10816.803378582,-7960.0,-1396.0,-14268.0,-231.0,-8826.0,343.0,0.5070833736568613,0.21206601895927776,-0.059945249878859415,-0.8332472758914368
-10816.818975448608,-8664.0,-1284.0,-15196.0,1755.0,-9389.0,1413.0,0.40396812441335056,-0.3059758703775763,-0.48113615555795547,-0.7153296589821753
-10816.834637641907,-9800.0,-1072.0,-14572.0,3379.0,-9659.0,472.0,0.08790704439929273,-0.603600514781413,-0.7605002488787216,-0.22266149544992425
-10816.850246667862,-11312.0,-288.0,-13468.0,2884.0,-11318.0,4088.0,-0.2935607366652146,-0.7287627715314291,-0.4674098144856404,0.40528382899013604
-10816.865840673447,-13496.0,492.0,-15576.0,1999.0,-16070.0,142.0,-0.47762883193555133,-0.12572598604344495,0.013771929379472024,0.8694101502159101
-10816.881426811218,-14344.0,168.0,-18364.0,503.0,-20388.0,-6624.0,0.025910267149552958,0.6560965070995575,0.39073915574150697,0.645127075542806
-10816.897003650665,-13872.0,-940.0,-20056.0,-2602.0,-21685.0,-3754.0,0.5170313133306403,0.8005602566841481,0.1884062225125356,-0.23724458217620295
-10816.912763834,-14244.0,-3552.0,-15976.0,-6330.0,-17279.0,12237.0,0.6889206489747,0.16503440549289816,-0.6053528061634805,-0.3629048973076599
-10816.928428173065,-17916.0,-8868.0,-11996.0,-11017.0,-16527.0,32767.0,0.28995745578219506,-0.7884491949638247,-0.49336117861102263,0.22553777563139132
-10816.944084644318,-21192.0,-17564.0,-17792.0,-7746.0,-8785.0,20528.0,-0.4473560113283692,-0.7395608369679648,0.2375411678545349,0.4432793263010568
-10816.959727048874,-24968.0,-20776.0,-27160.0,3030.0,-32768.0,-1935.0,0.16503245686843732,0.12135635747161372,0.49547818241322633,0.8441198335744013
-10816.975327730179,-17512.0,-13532.0,-32768.0,20919.0,-32768.0,-32768.0,0.8297889215910347,0.31208328019690684,0.4203035406604863,-0.1933890005522179
-10816.990921497345,520.0,12612.0,-32768.0,32767.0,-32768.0,-32768.0,0.11600826691125025,0.18409924001976188,-0.3192223335054308,-0.9223592866251967
-10817.006519317627,21432.0,32767.0,-26584.0,32767.0,-32768.0,-32768.0,-0.7838479530970898,-0.23925645163888137,-0.5466721464469141,-0.17172158010511604
-10817.022139549255,32767.0,32767.0,-23152.0,-21532.0,579.0,-32520.0,-0.47720900865669,0.7874555418769186,-0.2656830785157015,0.2856533448336416
-10817.037745475769,28448.0,32128.0,-23940.0,-32768.0,32767.0,32255.0,0.3442045803740918,0.11681693816354664,-0.92758444421993,0.08639507305855477
-10817.053390741348,9544.0,5072.0,-32768.0,-32768.0,32767.0,32767.0,0.6102541823979202,-0.7455217182231778,-0.10382424573736174,-0.246997422092771
-10817.068978786469,-14400.0,-16916.0,-32768.0,-32768.0,32767.0,32767.0,-0.10263124220080552,-0.41191834709113556,0.8864985561798803,-0.1841478029872037
-10817.084580421448,-32768.0,-32768.0,-32768.0,-11806.0,32767.0,32767.0,-0.5907880752435702,0.6421296149250184,0.4568676385746591,-0.17294787830285754
-10817.100158691406,-32768.0,-32768.0,-29984.0,29524.0,32767.0,-26078.0,-0.8610466906858346,-0.31103923096232644,-0.04733306030069608,0.39951567511664415
-10817.115815639496,-24888.0,-13560.0,-23408.0,32767.0,26609.0,-28893.0,0.2504406432285635,-0.7829175531605534,-0.36917836461379694,0.4336207147651479
-10817.131432533264,-16344.0,-1696.0,-21132.0,32767.0,12596.0,-11354.0,0.9861097577607923,-0.05274436928565296,0.10985617896902779,0.11285919147298158
-10817.147019147873,-6260.0,10232.0,-16408.0,32767.0,14236.0,-30049.0,0.3090352129453702,0.5575519497596967,0.3622444081002106,-0.6800088597063267
-10817.162642002106,948.0,19404.0,-9508.0,15578.0,18681.0,-8997.0,-0.6358761477640587,0.7282637830431292,0.15325671191384269,-0.20446458682571025
-10817.178224086761,4220.0,17396.0,-9312.0,-14443.0,28651.0,8097.0,0.014261536567994787,0.7032378266591893,-0.554163470058225,0.445147184853961
-10817.193818330765,1552.0,8196.0,-15096.0,-30957.0,32767.0,23127.0,0.5736669696738358,-0.3808886033609546,-0.6916485641278063,0.2178355881735665
-10817.209430456161,-4704.0,-2136.0,-16284.0,-31445.0,32767.0,32767.0,0.1770206859077367,-0.9132998601935823,0.28867274311895824,-0.2263075109476343
-10817.225031614304,-12012.0,-11748.0,-17852.0,-20918.0,32767.0,32767.0,-0.36684009760458847,0.051949975627063834,0.8398307797504122,-0.39675408530425743
-10817.24063873291,-17296.0,-16624.0,-16304.0,-3155.0,31799.0,32269.0,-0.3830134834024321,0.885427816656772,-0.05266783380698696,-0.25796192026040593
-10817.256232976913,-19416.0,-15168.0,-15096.0,15170.0,23781.0,22857.0,-0.28027994719867727,0.2433654595562148,-0.8895208238366563,0.26640027825483853
-10817.271848678589,-18212.0,-8236.0,-13268.0,26654.0,16154.0,13920.0,0.026681011098694255,-0.5934991857411245,-0.3056849698111255,0.7440453879992436
-10817.28745007515,-15348.0,-556.0,-11064.0,30963.0,8441.0,5030.0,0.508575299373884,-0.4005136041083912,0.6602950169477746,0.3807236640725255
-10817.303082466125,-11672.0,8112.0,-8744.0,26348.0,6716.0,9081.0,0.27487647135521487,0.3967721237990039,0.7985191511934704,-0.35969705649142225
-10817.318666934967,-8916.0,14568.0,-7956.0,13012.0,6745.0,16318.0,-0.06177517894536897,0.9528827564178218,-0.006171262356201801,-0.29691782585215837
-10817.334230422974,-8572.0,15216.0,-9636.0,-5304.0,7357.0,22343.0,0.41307142148372383,0.49781824690200877,-0.7581474382509541,0.08222807110921587
-10817.349808454514,-9656.0,10620.0,-12800.0,-16984.0,8505.0,29614.0,0.46484953916679855,-0.661156691056802,-0.5760171815747578,0.1224375038046264
-10817.365382671356,-12504.0,3960.0,-14160.0,-19321.0,8845.0,29718.0,-0.15656482998568905,-0.9077873031020544,0.3863913988850365,-0.04594946360857449
-10817.38095164299,-7536.0,-4748.0,-20600.0,-12139.0,15257.0,18142.0,-0.6164963398152213,-0.027257638272511674,0.6576632818455892,-0.4320512606882765
-10817.396535634995,-17316.0,-2736.0,-16520.0,-1960.0,-1478.0,30840.0,0.21768535577820347,0.6225996416438503,0.30718351955251166,-0.6860182631825467
-10817.412155151367,-20780.0,2220.0,-24072.0,15321.0,2235.0,15563.0,0.11894706648209834,0.6778493921611041,-0.653836302744763,-0.31443582196560166
-10817.427794456482,-27928.0,14624.0,-23536.0,18928.0,-17428.0,32767.0,-0.2907337375149718,-0.39080935310709225,-0.873126494291707,0.019800716160417377
-10817.443421125412,-24328.0,18148.0,-31456.0,-8119.0,-32768.0,-32768.0,-0.7118216278304349,0.5605265186170971,-0.2776184781204696,0.319449483777797
-10817.459013223648,-10048.0,16208.0,-27136.0,-26835.0,-32768.0,-30869.0,0.14263150624946971,0.8306543718111558,0.5381984838458774,-0.0034583235853048143
-10817.474642276764,1612.0,1532.0,-20392.0,-32052.0,-32768.0,12266.0,0.941043797786863,0.2342845575259283,-0.17586948172376382,-0.16916631505702456
-10817.490240097046,6808.0,-7484.0,-19220.0,-23769.0,-19432.0,-18329.0,0.2618774573107522,-0.525909887320913,-0.3193263165034346,-0.7435520770994509
-10817.505840539932,8548.0,-7756.0,-14244.0,-12860.0,-3785.0,17597.0,0.32566221641549764,-0.7156662260614581,0.5685602538590109,-0.24187850546518677
-10817.521411657333,1640.0,-5960.0,-22724.0,-4979.0,17699.0,28692.0,-0.0822495597986782,0.2995509395019849,0.9461880538907202,-0.09073263597456811
-10817.536992073059,-10604.0,-1916.0,-24512.0,-1014.0,23059.0,32767.0,-0.4673267100816043,0.8783116209374483,-0.01867759186460775,0.09912411478886105
-10817.55257511139,-20592.0,-1476.0,-16440.0,1511.0,11191.0,26741.0,-0.29229169459478965,0.2482960256490786,-0.9222718001953899,-0.04826360411462272
-10817.568142175674,-21624.0,-1208.0,-11068.0,-1428.0,-6233.0,-10927.0,-0.5430270195937131,0.7635876549346985,-0.3491174520220475,-0.01313597792820478
-10817.583760499954,-16980.0,-1604.0,-12640.0,737.0,-25159.0,-32768.0,-0.3731026684104832,0.45383361619198914,0.8086356159371819,-0.030624961664856887
-10817.599342107773,-7568.0,312.0,-19112.0,6177.0,-29926.0,-32768.0,0.34857020616493734,-0.5301346498881138,0.7592474402706308,-0.1449116586221929
-10817.614964485168,2076.0,5840.0,-20120.0,7236.0,-23303.0,-31249.0,0.5086621855646994,-0.7428379609265647,-0.4128357920108289,-0.13791719841193942
-10817.630624771118,6936.0,7248.0,-16076.0,1421.0,-8565.0,-8339.0,0.13206046614588537,-0.33260901201211274,-0.9313118981708141,0.06774530784587905
-10817.646220684052,6540.0,6360.0,-13704.0,-8072.0,4970.0,11614.0,0.14151059764229545,-0.8494935255759327,-0.3549822474777902,-0.3637624289768108
-10817.661802768707,1312.0,1896.0,-15848.0,-12926.0,12950.0,27161.0,0.14747107379200317,-0.4754654849844721,0.7361097541532235,-0.4586145274886036
-10817.677388429642,-5228.0,-2488.0,-16536.0,-10679.0,16296.0,26103.0,-0.09880417909202285,0.5694895034409072,0.8151835617410949,-0.037352380535690434
-10817.692973613739,-11744.0,-4456.0,-15956.0,-5343.0,10904.0,17193.0,-0.2642948036429694,0.8961751570745323,-0.05547859451088658,0.35205180039428574
-10817.708587884903,-14928.0,-4468.0,-15516.0,-1115.0,562.0,-3764.0,-0.05546682459934742,0.8722046786659537,0.1811124595981222,0.45097750150135457
-10817.724155426025,-13388.0,-3500.0,-16240.0,941.0,-9111.0,-20541.0,0.37468194292938656,0.40925884913666855,0.8288295074892374,-0.07184903312597529
-10817.739793777466,-8036.0,-2744.0,-16692.0,3465.0,-12920.0,-29613.0,0.33240398528039017,-0.5654812158168678,0.47971545825655876,-0.5827620991774353
-10817.7554500103,-3496.0,-332.0,-16152.0,5126.0,-10415.0,-29630.0,-0.1645144943312407,-0.740960014132362,-0.5234867732828072,-0.387136715915529
-10817.771075487137,-1844.0,2056.0,-15348.0,3887.0,-4637.0,-25195.0,-0.39479111316027876,0.07986126573006727,-0.8968298798032415,0.1829161608436037
-10817.786670923233,-3072.0,3416.0,-14120.0,-1022.0,414.0,-24780.0,0.01697953791730704,0.8588436346492371,-0.3165796607608206,0.4023389428170806
-10817.802262306213,-6396.0,2712.0,-14248.0,-5786.0,-311.0,-26263.0,0.5347235412526524,0.6219742880939066,0.5676653092275539,0.07053237611116304
-10817.81786775589,-9324.0,1020.0,-15088.0,-9789.0,-5465.0,-32768.0,0.4832031098747757,-0.44742257009976827,0.6380273531283709,-0.39906001432449756
-10817.833497285843,-9424.0,-1208.0,-15112.0,-11314.0,-11463.0,-32768.0,-0.13820183984938636,-0.9427206673819845,-0.21876242756232528,-0.21052552111359077
-10817.84911108017,-6516.0,-2272.0,-15148.0,-9004.0,-14126.0,-32768.0,-0.5204154987867916,-0.1391424151207203,-0.7666429582310869,0.3493789798078242
-10817.864727258682,-5908.0,-1916.0,-15660.0,-8818.0,-14118.0,-32768.0,-0.17049955714978135,0.8584336567776194,-0.23588885757364428,0.4223482032585599
-10817.88032579422,-4036.0,-1840.0,-14848.0,-7903.0,-12728.0,-32768.0,0.4143939674453312,0.6424450466420081,0.6415776287919714,-0.0626110854700447
-10817.895946025848,-10256.0,-2412.0,-17412.0,-8558.0,-25270.0,-18679.0,0.7324214555251881,-0.2824189967053418,0.2727837140472651,-0.5562260036503983
-10817.911611318588,-3736.0,-3000.0,-13840.0,-5268.0,-13245.0,-32768.0,-0.20542110473638922,-0.6236292320224917,-0.34365467865465277,-0.6714091245542365
-10817.927341938019,-4688.0,-2024.0,-19436.0,-2651.0,-13924.0,-13380.0,-0.7860991754676806,-0.5021211951891634,-0.338015103022934,0.12517260802281835
-10817.9429500103,152.0,-2908.0,-15436.0,-3266.0,-6373.0,-15189.0,-0.5361007783527156,0.1349545367290968,-0.3394660353798881,0.7610164513920233
-10817.958533287048,-300.0,-3168.0,-15512.0,-2786.0,-29.0,-4121.0,-0.21134438378920162,0.3571825065871063,-0.43557014593596177,0.7987695890544655
-10817.974159479141,-1648.0,-4592.0,-15336.0,-389.0,2936.0,7591.0,-0.5026141872128481,-0.10487774922634922,-0.6142185497053172,0.5992622211749041
-10817.9897711277,-4112.0,-5836.0,-15152.0,1458.0,5863.0,4967.0,-0.3589746829107053,-0.6125300394159653,-0.6193711442543107,0.3351470028321013
-10818.005340337753,-7636.0,-5920.0,-15512.0,4413.0,2835.0,9845.0,-0.1845329842973286,-0.9787059258599264,-0.03802022444346266,0.08146625636577931
-10818.020922899246,-7272.0,-4384.0,-14024.0,5877.0,2836.0,2929.0,0.25982876645191155,-0.9358294039463801,0.17663127140166998,-0.15973018749275492
-10818.036529541016,-6700.0,-2336.0,-14568.0,6227.0,3109.0,8145.0,0.6091588429860431,-0.4571177701117731,0.603097847986764,-0.23715360847703593
-10818.052105665207,-6808.0,-448.0,-13940.0,3427.0,983.0,13212.0,0.6210581819685888,0.2829063148123814,0.7136922721602686,0.15777861803128446
-10818.06773519516,-6456.0,-588.0,-14096.0,-797.0,1155.0,9423.0,0.33749081245727797,0.6234086893346131,0.4098067659624335,0.5740383019803098
-10818.083328008652,-6128.0,-2176.0,-14244.0,-2824.0,445.0,14291.0,-0.1488421814188261,0.6361366378148053,-0.3065559540814102,0.6922424648036242
-10818.098912239075,-5992.0,-4132.0,-14728.0,-2735.0,1716.0,12267.0,-0.4639921917407309,0.1608278947396421,-0.7877659085203009,0.3718474252303387
-10818.114518165588,-6488.0,-5320.0,-14704.0,-1240.0,2679.0,9064.0,-0.4277145866874894,-0.3835445026117052,-0.8178414182631824,-0.03300396073740606
-10818.130145788193,-7024.0,-5332.0,-14904.0,1615.0,1885.0,6936.0,-0.18416567994596453,-0.7851649456423595,-0.5558825410069107,-0.20147856230420985
-10818.145736217499,-7080.0,-4312.0,-15156.0,3024.0,1684.0,1525.0,0.12502879811555095,-0.8338994535458983,-0.5048779778836698,-0.1846015397165733
-10818.16137099266,-6896.0,-3040.0,-14708.0,3245.0,920.0,1234.0,0.40223769158642425,-0.7997375018946654,-0.4363903405310405,-0.09048888452018423
-10818.176951646805,-6220.0,-1816.0,-13964.0,2547.0,952.0,1673.0,0.606189772040698,-0.7385485749196539,-0.2950914988252146,-0.0009849256231032396
-10818.192514896393,-6088.0,-1376.0,-14524.0,495.0,716.0,1074.0,0.6516683583531008,-0.7348336411461018,-0.1866744327865238,0.022372454160556103
-10818.208094835281,-6016.0,-1384.0,-14964.0,-1646.0,-118.0,1903.0,0.5276129240449158,-0.8393341985748146,-0.0727893347021086,0.10883206437981385
-10818.22371506691,-5972.0,-2568.0,-15028.0,-2376.0,-419.0,1419.0,0.3275237207427503,-0.9266183361725122,-0.010348281910250695,0.18438976240891514
-10818.239302158356,-6012.0,-3980.0,-14920.0,-1789.0,-280.0,833.0,0.16641139846538758,-0.9596419059876594,0.01997639111775496,0.22582205944299788
-10818.254856586456,-5956.0,-4292.0,-14948.0,217.0,240.0,-252.0,0.1888445472634553,-0.9611266913455542,0.00663029137685303,0.20131880038453073
-10818.270454883575,-6008.0,-3644.0,-14852.0,1274.0,536.0,-260.0,0.2974279552403276,-0.9427269875285289,0.015968047271725756,0.1501581163083462
-10818.28606247902,-6084.0,-3044.0,-14788.0,1776.0,348.0,37.0,0.43686231572580436,-0.8902280483525423,0.05075757709765399,0.11861284665788584
-10818.301644325256,-5920.0,-2216.0,-14800.0,397.0,-199.0,-783.0,0.4749485454309277,-0.8739544172388382,-0.013430167918680697,0.10221147866773506
-10818.317263126373,-6088.0,-2104.0,-14740.0,-508.0,-404.0,-718.0,0.4402879648561642,-0.8875419313750283,-0.08907538250523354,0.10237872965341974
-10818.332885026932,-6160.0,-2568.0,-14688.0,-649.0,-346.0,-668.0,0.39154615532129655,-0.9009399284692509,-0.1592441696057451,0.09818425530353024
-10818.348510026932,-6292.0,-3128.0,-14700.0,-486.0,-347.0,-909.0,0.3544272314063775,-0.8980217177997888,-0.24557017903928893,0.0873705852340373
-10818.364095687866,-6268.0,-3352.0,-14740.0,-51.0,-272.0,-1220.0,0.3515421359027297,-0.8663508671327507,-0.3478692169032652,0.06957952022245274
-10818.379715919495,-6060.0,-3308.0,-14476.0,251.0,120.0,-1214.0,0.37903934307127285,-0.8178366313545606,-0.4318808477494049,0.030844029665035428
-10818.395306825638,-6184.0,-3256.0,-14592.0,343.0,570.0,-450.0,0.42492465539442653,-0.7892669074507853,-0.4431273494551875,-0.01161629053619774
-10818.410909414291,-6504.0,-3212.0,-14536.0,344.0,832.0,-1200.0,0.4752979872062023,-0.7232482220268454,-0.4910997237020504,-0.09912060367304869
-10818.426480054855,-6824.0,-3020.0,-14224.0,342.0,706.0,-1827.0,0.5036206243094024,-0.6156204500893647,-0.5715944545644982,-0.20163706929304892
-10818.442054986954,-7032.0,-2736.0,-14528.0,-166.0,128.0,-3579.0,0.4179419977619307,-0.4220973119100198,-0.7209627276302876,-0.35689086728718256
-10818.457615852356,-7080.0,-2688.0,-14844.0,-532.0,-689.0,-6082.0,0.14573358236032602,-0.07080266289959908,-0.8404961811615509,-0.517025023912384
-10818.47318983078,-6792.0,-2716.0,-14936.0,-1769.0,-1847.0,-8269.0,-0.2983874744118825,0.34307456100894973,-0.666574568746429,-0.590714063657813
-10818.48878121376,-6192.0,-3208.0,-14952.0,-2228.0,-2613.0,-8961.0,-0.648287426853631,0.6039880352087432,-0.16525653254604294,-0.43314217522545473
-10818.504352807999,-5560.0,-3556.0,-14848.0,-2069.0,-2439.0,-9516.0,-0.7025015396197224,0.5764241446127227,0.4154879072242544,-0.039957368404586247
-10818.520055294037,-5124.0,-3684.0,-14872.0,-1605.0,-1959.0,-7996.0,-0.46673418385670085,0.3052595226504825,0.7613229822651989,0.3307009859762178
-10818.535640001297,-4972.0,-3796.0,-14884.0,-1214.0,-1062.0,-6598.0,-0.1489963072715119,-0.04555846056482566,0.8133128925645614,0.5605770829053598
-10818.551236629486,-5232.0,-3844.0,-14992.0,-378.0,-394.0,-4192.0,0.07757667320284228,-0.2992605523628988,0.734997225931543,0.6034932140854347
-10818.566815853119,-5516.0,-3668.0,-14912.0,-240.0,-39.0,-3687.0,0.25512521225149143,-0.5096150091360849,0.5957110934593117,0.5659787643245731
-10818.582476139069,-5740.0,-3544.0,-14668.0,171.0,-39.0,-2773.0,0.3903831120544652,-0.6299424285155831,0.46653100106886897,0.482827492610186
-10818.598079442978,-5616.0,-3484.0,-14816.0,94.0,96.0,-790.0,0.4237820444818258,-0.6615063270718239,0.4293609210086903,0.44549675366866365
-10818.613674879074,-5488.0,-3616.0,-14116.0,50.0,830.0,1318.0,0.34106352306923554,-0.6368527320087302,0.5332279982267819,0.4401842487773462
-10818.62933921814,-5716.0,-3836.0,-13936.0,169.0,1892.0,3701.0,0.11297279883218357,-0.5004964858799819,0.7536279332052749,0.410834945736798
-10818.644917488098,-6308.0,-3516.0,-14256.0,256.0,2016.0,5137.0,-0.17341316505963902,-0.20946768537669014,0.9072101796792891,0.3209686166172677
-10818.660521507263,-6820.0,-3228.0,-15088.0,110.0,913.0,4166.0,-0.3375495149131221,0.08723976448349635,0.9116134561506408,0.2177394200411668
-10818.676095724106,-6604.0,-3100.0,-14992.0,-664.0,-378.0,2234.0,-0.3375520880650801,0.28573950999698067,0.8748557316386597,0.19758281577246348
-10818.6917283535,-5724.0,-3408.0,-14348.0,-1424.0,-178.0,2527.0,-0.3216262084826149,0.5076901377590968,0.768299219651128,0.2202807643048178
-10818.70731139183,-5488.0,-3884.0,-14060.0,-1449.0,228.0,6175.0,-0.3422429213846301,0.8381277106237642,0.40282149514012877,0.13470919233575998
-10818.722907781601,-5400.0,-4224.0,-14484.0,-825.0,1420.0,5743.0,-0.3539450565543175,0.9293656292055352,-0.0615266817429416,0.0849522902920424
-10818.738474845886,-5956.0,-3960.0,-14956.0,167.0,2045.0,5660.0,-0.35257459931709706,0.7778913830029492,-0.5157264701712693,0.06784066723455984
-10818.754040718079,-6160.0,-3632.0,-15308.0,668.0,1669.0,4173.0,-0.3228428597055954,0.520284305506882,-0.7868818439417956,0.07677039178677307
-10818.769637346268,-6780.0,-3100.0,-14784.0,963.0,1372.0,1490.0,-0.27688978233337863,0.3745469746225051,-0.8703246357690123,0.1599426166287112
-10818.785222768784,-6764.0,-2208.0,-15016.0,337.0,256.0,-416.0,-0.2622145274101572,0.3938683998973084,-0.8571721077059943,0.2033892891680017
-10818.800809621811,-6252.0,-2056.0,-15408.0,-971.0,-553.0,-1203.0,-0.24625713163887625,0.5106408244126547,-0.8122054189230415,0.13757082187805852
-10818.816415786743,-5840.0,-2552.0,-15124.0,-1736.0,-1318.0,-2094.0,-0.2292420878109992,0.6885960235778618,-0.6879559245899053,0.0004767708668032452
-10818.832060813904,-4968.0,-3204.0,-14908.0,-1968.0,-882.0,-326.0,-0.16079273717659068,0.7343603469044004,-0.6393733530306516,-0.16143819870170278
-10818.847637176514,-4856.0,-3888.0,-15468.0,-1181.0,-53.0,1567.0,-0.06511224580368286,0.6533362647264402,-0.7120502199440623,-0.24879028300421258
-10818.86327457428,-5348.0,-4284.0,-15812.0,438.0,535.0,10.0,-0.056688934095608504,0.660713949578272,-0.7238431691311588,-0.19051117575078153
-10818.878852844238,-5760.0,-4060.0,-14688.0,1530.0,1010.0,214.0,-0.07678910237034756,0.6481009184029135,-0.7568174101348254,-0.0360005699853763
-10818.89444732666,-6320.0,-3112.0,-14844.0,1805.0,828.0,-474.0,-0.12402931541726941,0.6595111622357936,-0.7297032500932382,0.13112941167747652
-10818.910030603409,-6680.0,-2164.0,-15076.0,1964.0,343.0,-1273.0,-0.19663491365458782,0.7006304354440875,-0.6245761156224479,0.28347200823971297
-10818.925761699677,-6696.0,-1552.0,-14512.0,414.0,-716.0,-1745.0,-0.21478812726958757,0.7951777549177373,-0.4885718222702316,0.2878471346940166
-10818.94138765335,-6428.0,-1872.0,-14280.0,-1485.0,-1221.0,-2549.0,-0.09608154515361357,0.9270864476214491,-0.31422105024608726,0.18040007455592144
-10818.956982851028,-6044.0,-2888.0,-14340.0,-2608.0,-1450.0,-371.0,0.07829768972776331,0.94978836111158,-0.3028892190572344,-0.005446270207423871
-10818.972617864609,-5804.0,-4060.0,-14784.0,-2395.0,-802.0,-698.0,0.24862254595490832,0.9275908683484227,-0.24309437196337025,-0.1366277311502069
-10818.988280057907,-5836.0,-4732.0,-14956.0,-854.0,-463.0,-413.0,0.30144587652055144,0.908550619070006,-0.20861554604095708,-0.20036394402760835
-10819.003918409348,-5880.0,-4564.0,-14528.0,928.0,541.0,-1087.0,0.21648718178989712,0.9538456503481669,-0.12328464490354586,-0.16766833858411334
-10819.0195479393,-5912.0,-3624.0,-14528.0,1925.0,1417.0,-601.0,0.06098741010750706,0.9946879778153771,-0.07292909219831145,-0.03946783638692203
-10819.035116434097,-6656.0,-2768.0,-14552.0,1982.0,1699.0,-1506.0,-0.10218327117801623,0.9871004550052841,0.05807525678967781,0.10871308738387549
-10819.050692796707,-7192.0,-1772.0,-14428.0,974.0,795.0,-1822.0,-0.16966432595132203,0.944239882854866,0.21323641652340178,0.18481150070807495
-10819.066268444061,-7400.0,-1416.0,-14536.0,-632.0,-747.0,-4334.0,-0.03139117926985776,0.8251871933519749,0.5326200811843623,0.1854630392048545
-10819.081839084625,-6532.0,-1664.0,-14760.0,-3007.0,-1846.0,-5647.0,0.31338552743165476,0.5194765995839776,0.7744383225163549,0.17938466573011708
-10819.09741616249,-5752.0,-2856.0,-15332.0,-4305.0,-2896.0,-5369.0,0.6604030138513209,0.0705530948168629,0.73008584005948,0.1608253283923219
-10819.112998723984,-5076.0,-4172.0,-15592.0,-3908.0,-2331.0,-5891.0,0.767721723728254,-0.41706444843866164,0.4842197043316275,0.04681750421866599
-10819.128583908081,-4716.0,-5056.0,-15336.0,-1996.0,-1513.0,-5028.0,0.6998033667758059,-0.6799171497524802,0.17231524651769575,-0.13526039013420016
-10819.144172430038,-4676.0,-4980.0,-15108.0,649.0,364.0,-4809.0,0.6221408300900364,-0.6521688453643784,-0.09050037768611485,-0.42358737742010755
-10819.159877061844,-5044.0,-4148.0,-14680.0,2157.0,2003.0,-2481.0,0.6341317590595581,-0.4187013610277149,-0.19208942068567736,-0.6210215269104692
-10819.175466537476,-5768.0,-3228.0,-14356.0,2599.0,2575.0,155.0,0.7436429671878937,-0.13161666666331764,-0.1760051997135226,-0.6314224893700139
-10819.191085100174,-6464.0,-2384.0,-14236.0,1953.0,2633.0,629.0,0.8076603386088391,0.1252621325309841,-0.10120456397144668,-0.5672317091131233
-10819.206669330597,-7272.0,-1832.0,-14512.0,275.0,1270.0,-393.0,0.7908133196849589,0.20978236832795488,-0.020687890882955678,-0.5746108792203504
-10819.222286939621,-6928.0,-2164.0,-14844.0,-1771.0,-466.0,-1579.0,0.7271470358066615,0.06585606832123042,0.0636578593976761,-0.6803439156189762
-10819.237873792648,-6388.0,-3248.0,-14596.0,-2329.0,-1123.0,-1135.0,0.6596314154156012,-0.15027637502023375,0.13349903887019193,-0.7242108902304104
-10819.253450632095,-5460.0,-4088.0,-14812.0,-1672.0,-406.0,-666.0,0.5926833784359405,-0.2764519879709279,0.2047270027653159,-0.7282771214389561
-10819.269037008286,-4908.0,-4408.0,-15336.0,-732.0,925.0,846.0,0.6073664842243387,-0.2386416328337085,0.3172236720676705,-0.6881317219830305
-10819.284588575363,-4628.0,-4268.0,-15376.0,949.0,2209.0,2516.0,0.6860653123942781,0.0132437743145791,0.4114320610900767,-0.5998855296457962
-10819.3001704216,-5004.0,-3748.0,-15044.0,1696.0,3210.0,2721.0,0.6612390182697919,0.353776032040485,0.4760034700580948,-0.45937585522526553
-10819.315838336945,-5192.0,-3256.0,-14800.0,1903.0,4160.0,3862.0,0.517885055866439,0.7009125732572189,0.46154329230901525,-0.16581442302982471
-10819.331473827362,-5868.0,-3064.0,-14720.0,2154.0,4862.0,5773.0,0.2256924015731923,0.9084985961725832,0.24514798021969686,0.2521818955015875
-10819.347069978714,-6592.0,-2744.0,-14816.0,1989.0,5345.0,5433.0,-0.1368718004914084,0.7799040254381212,-0.030104880053883024,0.6100078012063418
-10819.362661123276,-7120.0,-2432.0,-14980.0,1752.0,4697.0,4170.0,-0.4048680458505313,0.43295024325981496,-0.24062081589175544,0.7685945454334326
-10819.378239393234,-6548.0,-2684.0,-14660.0,-615.0,5409.0,2824.0,-0.4033372551075492,0.028840562921032584,-0.5113041159173387,0.7583240610838445
-10819.393821001053,-5516.0,-3984.0,-13780.0,-1467.0,9705.0,8177.0,-0.3389776864271263,-0.6186736581939818,-0.6481918351742457,0.2866781777094873
-10819.409394264221,-5308.0,-5596.0,-12896.0,-555.0,17885.0,20161.0,0.0542391050129821,-0.8568051861241853,-0.04022278847047004,-0.5111996868208655
-10819.425001621246,-7160.0,-5708.0,-14908.0,4936.0,25660.0,32767.0,0.5209528858626844,0.05176028639703085,0.609547303312027,-0.5952991252206523
-10819.44058060646,-10132.0,-3104.0,-20976.0,11244.0,30586.0,32767.0,0.13125834495615338,0.9373787720801483,0.3052164409300132,0.10457154832410519
-10819.456154584885,-12740.0,2412.0,-26736.0,13472.0,31488.0,32767.0,-0.49550389546923695,0.3941008778223507,-0.4445189797680387,0.6336901958374029
-10819.471779584885,-14920.0,6712.0,-29892.0,7714.0,29466.0,32767.0,-0.3547505420308444,-0.7046874272342087,-0.6002714231442996,0.13130842083876762
-10819.487343072891,-16244.0,5384.0,-23432.0,5116.0,21915.0,28593.0,0.23442424127051611,-0.7846158757551535,0.1616231503728439,-0.550727845565551
-10819.502896785736,-14040.0,3060.0,-16788.0,-2689.0,21019.0,18910.0,0.24793515239381328,0.16363896802578048,0.7542457553146726,-0.5855457189158787
-10819.518509864807,-13452.0,-1428.0,-10960.0,997.0,18028.0,32767.0,0.21130050857950453,0.9556458754868143,0.18319250062995016,0.09237728861591772
-10819.534078836441,-15832.0,-2800.0,-7568.0,10703.0,18394.0,32767.0,-0.34887646269617717,0.43014457695579006,-0.5977939088130658,0.5795716515480405
-10819.549664497375,-20420.0,1032.0,-1584.0,16759.0,15647.0,32767.0,-0.5010342816735166,-0.7109363321115507,-0.4011780601610465,0.2873853585642422
-10819.565248966217,-23816.0,10632.0,-12704.0,26372.0,16670.0,32767.0,0.22025060155019843,-0.841977021286017,0.3839905305048712,-0.30840823696148134
-10819.580863714218,-23168.0,16396.0,-10828.0,14045.0,10656.0,32767.0,0.5230201480931683,0.23928963330357306,0.77067530945001,-0.2743172679329048
-10819.59645318985,-21324.0,16164.0,-12796.0,-5266.0,6861.0,32767.0,0.3061836604506499,0.75815077454615,0.16834380011525837,0.550562743100973
-10819.6120698452,-20352.0,14792.0,-10820.0,-25373.0,-5807.0,22159.0,0.31963880908557696,0.2176048279156529,-0.8492692372112052,0.35947313296107514
-10819.627702236176,-16592.0,8540.0,-16796.0,-32768.0,-12592.0,15772.0,-0.13878212995152386,-0.4195960123147213,-0.7213701731191744,-0.5332014442869738
-10819.643303394318,-12396.0,2228.0,-21056.0,-32768.0,-18103.0,9467.0,-0.5797786074909732,-0.4156715081982988,0.38952973574668714,-0.5825294400604109
-10819.658881187439,-8400.0,-2784.0,-23092.0,-31202.0,-17973.0,-59.0,-0.3346071003014744,0.07497271468974602,0.8742563282902244,0.3436466978226103
-10819.674436569214,-5472.0,-4472.0,-21892.0,-24299.0,-17487.0,4868.0,0.3579433952681705,0.5938833469327589,0.22067925500080474,0.6859152735084184
-10819.690029144287,-4564.0,-3740.0,-21644.0,-18318.0,-15542.0,1294.0,0.6575460034906299,0.42018728493718693,-0.614211059363333,0.1175613602608792
-10819.705614089966,-4860.0,-756.0,-20504.0,-15675.0,-15180.0,659.0,0.19130829859664542,-0.16673896623424053,-0.7763191929338684,-0.576998927823701
-10819.721187829971,-5276.0,1336.0,-19972.0,-17023.0,-16839.0,-993.0,-0.5380904323022594,-0.5312788283771672,-0.09271026708360403,-0.6477702521420992
-10819.736777067184,-5008.0,1732.0,-19520.0,-19309.0,-18540.0,-770.0,-0.6399787691972966,-0.262255091131422,0.7213471171785639,0.03616322290031945
-10819.752346754074,-4192.0,196.0,-19396.0,-19842.0,-18741.0,54.0,0.033202563325233865,0.3516314712934229,0.6606925391950625,0.6623732081210995
-10819.767959833145,-3908.0,-1616.0,-18976.0,-19194.0,-19889.0,-4179.0,0.7625949515655099,0.45697754792810247,-0.1433813057794233,0.43481290423514785
-10819.78353714943,-3692.0,-1908.0,-18056.0,-15351.0,-18907.0,-3373.0,0.5348131045664917,0.08247782834175174,-0.7813718631290116,-0.31085424643436393
-10819.799112081528,-4548.0,-1220.0,-16580.0,-13477.0,-19936.0,-4026.0,-0.3558380664398881,-0.34550786556780727,-0.5600134147347585,-0.6636177820253275
-10819.814705848694,-5060.0,-428.0,-17300.0,-12950.0,-20155.0,-8524.0,-0.9141494031258951,-0.28517778220678314,0.22950657795681537,-0.1741586402529103
-10819.830260515213,-5580.0,364.0,-17368.0,-13161.0,-21275.0,-6910.0,-0.37176565720205,0.1222810072882889,0.789574160908344,0.47266298332699364
-10819.845838785172,-6148.0,-588.0,-16464.0,-13379.0,-19928.0,-8312.0,0.6115513682135785,0.33125824059822917,0.40012555418732987,0.5968018456390263
-10819.861402750015,-7352.0,-1820.0,-16216.0,-11249.0,-19231.0,-8399.0,0.8871628215541235,0.1905044758159357,-0.4202489838740842,-0.0064003358522736805
-10819.87697815895,-8188.0,-1824.0,-14636.0,-9321.0,-18558.0,-10787.0,0.15620587056276083,-0.06412316564630988,-0.7355376983010351,-0.6561038332514462
-10819.892566204071,-9008.0,-2024.0,-15128.0,-8006.0,-21072.0,-19807.0,-0.8474100509227716,-0.038635677433321025,-0.24091710594197735,-0.47155321872390615
-10819.908138275146,-8712.0,-2264.0,-15476.0,-6084.0,-24558.0,-32768.0,-0.7290111811239186,0.02393673064260229,0.4574509303131848,0.5086338339887096
-10819.924289941788,-7068.0,-1648.0,-15888.0,-4557.0,-26042.0,-32768.0,0.4660820153745395,0.04243916537899274,0.5201019360632396,0.7144651484079625
-10819.939927339554,-4532.0,-1408.0,-14124.0,-3115.0,-24061.0,-32768.0,0.9774990655564784,-0.019322029696027802,-0.14370742001986364,-0.1532005660429232
-10819.955516576767,-2608.0,-44.0,-14256.0,-280.0,-22072.0,-32768.0,0.07296814123983372,0.020225475629310163,-0.5789026324449627,-0.8118733415058437
-10819.971102952957,-168.0,2488.0,-12920.0,386.0,-16623.0,-32768.0,-0.9196548160346594,0.14896562805071004,-0.19486943983842428,-0.30670859528349254
-10819.986707687378,1284.0,5420.0,-13164.0,-6862.0,-11341.0,-32768.0,-0.5860418396486655,0.29399778309180596,0.40853489295118894,0.6349956747566646
-10820.002291679382,-8.0,5436.0,-14968.0,-19371.0,-10512.0,-32768.0,0.5856744673895904,0.19479918947129987,0.19888819942382188,0.7612372679783842
-10820.017901659012,2344.0,3636.0,-23480.0,-18239.0,-17841.0,-32768.0,0.8996330161823965,-0.03210090985669196,-0.3637073679161846,-0.23947216603275068
-10820.033520460129,-4480.0,7960.0,-29432.0,-25154.0,-32768.0,-32768.0,-0.19023633328838055,-0.3507222062696856,-0.5314709162432232,-0.7472233512905663
-10820.049113035202,18788.0,7576.0,-5864.0,-32768.0,-15472.0,-32724.0,-0.9241303045012441,0.16036959028648953,0.1966355054018314,-0.2856558293281403
-10820.064718723297,16732.0,15764.0,-32768.0,25673.0,24656.0,-32768.0,-0.5815643407523076,-0.4281863862880701,-0.4547014765766382,0.5212349790276188
-10820.080305099487,24800.0,19888.0,22968.0,-32768.0,32767.0,14372.0,-0.2665147475858118,-0.1898175015857373,-0.7058962985105378,-0.6282114462186608
-10820.095934867859,-14120.0,-2808.0,-32768.0,-32768.0,32767.0,32767.0,0.5948603704261585,0.06931192198482412,0.172389437477263,-0.7820606619780182
-10820.111521720886,-27600.0,-32768.0,-32768.0,-32589.0,32767.0,32767.0,0.5026235318377243,0.21942709722352166,0.7730976549607302,0.3186555352433897
-10820.127155780792,-32768.0,-32768.0,-32768.0,32767.0,32767.0,32767.0,-0.6425822210080413,0.5850352207452741,0.4936168127598132,0.034122161314087934
-10820.142787456512,-32768.0,-10240.0,768.0,32767.0,22814.0,24011.0,-0.8047626353168585,-0.06833871302898836,-0.45718015976105286,-0.3723885371762461
-10820.158391237259,-29864.0,2748.0,-9348.0,32767.0,-32768.0,-27638.0,-0.5847778159763548,-0.4843879961765196,0.12758011710176653,0.6380646431376056
-10820.174014091492,-8236.0,13332.0,-29860.0,32767.0,-32768.0,-32768.0,0.5916957652238342,-0.13796074435023373,0.44316674488750774,0.6591404938708602
-10820.189602136612,9716.0,26240.0,-17864.0,11633.0,-19930.0,1049.0,0.6407954690384231,0.7331602293966438,0.042686280632097263,0.2236853288364842
-10820.205180168152,13344.0,18316.0,-21792.0,-6882.0,5003.0,29454.0,0.1706407374275716,0.12627421911905068,-0.5939209003835239,0.7760119357353165
-10820.220762968063,8216.0,10784.0,-13700.0,-19131.0,28261.0,11427.0,0.3253826609314518,-0.8084320350214277,-0.48379905566871495,0.08063648337037367
-10820.236325025558,-988.0,7912.0,-16396.0,-23505.0,21059.0,32767.0,-0.16478799652196788,-0.7345693293953415,0.5521248054378555,-0.3583448279718353
-10820.251947402954,-6680.0,764.0,-20944.0,-31183.0,22228.0,14936.0,-0.7432199385871398,0.3030858664243072,0.5814401543583579,-0.13300536590710973
-10820.267535448074,-11484.0,-5052.0,-19344.0,-29133.0,12896.0,14119.0,-0.14458273629703283,0.9554835915828543,-0.09065527903084086,0.24068352449769412
-10820.283098459244,-18604.0,-9036.0,-13640.0,-20493.0,-5109.0,9573.0,0.5859828715353206,0.5517757536564091,-0.5559562553784471,-0.20755778484483936
-10820.298665761948,-17444.0,-14796.0,-15472.0,-8237.0,-4759.0,-32000.0,0.05577947308599114,0.5184336511277158,0.2892255393821399,-0.8027850192484569
-10820.31423997879,-16552.0,-13144.0,-15652.0,6785.0,-13470.0,-32768.0,-0.6681511916945222,-0.3690657238629837,0.37270472563884616,-0.5276889841499007
-10820.329837799072,-14424.0,-9904.0,-17728.0,19127.0,-24692.0,-32768.0,-0.1859399753073337,-0.9047989251168916,-0.030348164311551587,0.3818955611328107
-10820.345429182053,-8388.0,-3432.0,-20264.0,27580.0,-21365.0,-32768.0,0.7048781025334371,-0.12891078408066614,-0.31476530778423745,0.6224561601687812
-10820.361016750336,-1720.0,5416.0,-16592.0,28259.0,-17381.0,-32768.0,0.5548863799577322,0.8241833945377697,-0.05195963610789007,-0.10061328799486788
-10820.376605987549,2192.0,11940.0,-14052.0,16889.0,-7863.0,-20472.0,-0.334816592170837,0.637251200612017,0.34092990989090977,-0.6046284424896223
-10820.392186880112,2012.0,13928.0,-12576.0,-2717.0,912.0,-3213.0,-0.3559682020425025,0.626512552497249,0.5957137869487795,-0.3548150852728132
-10820.407809972763,-996.0,9068.0,-12404.0,-19553.0,5593.0,13127.0,0.35470002664743006,0.8940060274365608,0.13249125428761185,0.2395562179128464
-10820.423452854156,-5192.0,956.0,-14396.0,-26784.0,8108.0,17007.0,0.6589442976381433,0.030438227101911654,-0.49655432413121753,0.5641805829055588
-10820.439053297043,-10264.0,-5956.0,-15204.0,-24484.0,4493.0,13962.0,0.0860747748968534,-0.8210799868178111,-0.5517109431441587,0.11846444018650448
-10820.454660654068,-12840.0,-10968.0,-16532.0,-16234.0,-1538.0,2458.0,-0.6715058063340295,-0.5965445522515083,-0.31663463322320484,-0.3048885997907086
-10820.470234632492,-12028.0,-12596.0,-16432.0,-5225.0,-9655.0,-12233.0,-0.8782315034253396,-0.11962658972768554,-0.14227176776266887,0.4406332369659338
-10820.485790252686,-7984.0,-10772.0,-18268.0,7103.0,-9796.0,-19670.0,-0.07525993649493179,-0.01914594751970416,0.3004637195384574,0.9506265975100142
-10820.501379489899,-3608.0,-6028.0,-16884.0,15342.0,-6125.0,-9500.0,0.4633423403081061,0.07160180343256436,0.8233242126302156,0.3198816942556221
-10820.516963481903,-1520.0,-1336.0,-13948.0,15877.0,2565.0,2345.0,0.06579021500399854,0.46694924006210514,0.7811487004162855,-0.4091903745851045
-10820.532594203949,-2960.0,2152.0,-12544.0,12392.0,8787.0,14272.0,-0.2546018387745087,0.8791670443503742,-0.09269660364702924,-0.39198284591697613
-10820.548176527023,-6868.0,4068.0,-13788.0,5814.0,11183.0,17005.0,-0.013442642859258813,0.47371110754822016,-0.8782187166914304,0.06441248008929759
-10820.56379199028,-10756.0,3976.0,-13488.0,622.0,8010.0,10929.0,0.33119817772518495,-0.264453102850619,-0.8621422785012416,0.2776382810148566
-10820.579372167587,-12780.0,2632.0,-13088.0,-5920.0,1471.0,-2233.0,0.3124050989572183,-0.26381869485075937,-0.8826666364807314,-0.23173769489784116
-10820.594949007034,-12188.0,196.0,-15196.0,-10548.0,-6411.0,-13826.0,-0.37029703575323225,0.2019359231759766,-0.6112679392707102,-0.6696667041619846
-10820.610545396805,-8920.0,-2368.0,-17932.0,-11531.0,-7332.0,-24557.0,-0.7526239774165527,0.5498270622948132,0.2764082552724492,-0.23419185853309352
-10820.626157045364,-6688.0,-4420.0,-17852.0,-7927.0,-6226.0,-22984.0,-0.2872710975362138,0.16160906513501233,0.8099909722121768,0.48504891662728106
-10820.641780614853,-4908.0,-5724.0,-15924.0,-2390.0,-450.0,-22636.0,0.33116768190614915,-0.6112287459467267,0.4673215659650617,0.5462032044699682
-10820.657376527786,-4584.0,-4824.0,-13796.0,2827.0,6578.0,-10785.0,0.4822917361178427,-0.8503563227971465,0.1437985174790041,-0.15365803565773248
-10820.672957897186,-6476.0,-3712.0,-11484.0,5901.0,10134.0,-2420.0,0.52582225740406,-0.34337709276784606,0.21556169142011752,-0.7477541594487446
-10820.68853855133,-9396.0,-2672.0,-11788.0,3458.0,8058.0,-7381.0,-0.002665960358071272,0.14301037586970294,0.0981304888786101,-0.9848407648962448
-10820.704108476639,-10928.0,-1620.0,-13016.0,774.0,252.0,-18065.0,-0.8387759463477886,0.005409010204248288,0.13761166752084758,-0.5267719462909102
-10820.719737768173,-9320.0,-340.0,-14208.0,307.0,-9255.0,-32768.0,-0.7125798961663082,-0.2665799816560042,0.26034770875500207,0.5944611640014159
-10820.735306024551,-4388.0,1712.0,-14664.0,-7018.0,-14683.0,-32768.0,0.34603589534964263,0.055822766976508606,0.014093713886389228,0.9364530661199985
-10820.750896930695,-672.0,-448.0,-14484.0,-13281.0,-9522.0,-21103.0,0.8470104499579705,0.16067629445168247,-0.4954655575683491,0.10616170367301687
-10820.766485452652,548.0,-5740.0,-13756.0,-12805.0,-9459.0,-9080.0,0.3718933012507814,-0.16202284700073016,-0.6288505927747505,-0.6633180997842728
-10820.782067537308,-960.0,-7756.0,-13444.0,-6014.0,1002.0,-11054.0,-0.20039961109321422,0.20659306438876707,-0.27196773292774523,-0.918255331520754
-10820.797632694244,-2692.0,-8524.0,-14984.0,69.0,7381.0,17844.0,0.71620959362159,0.19067926069564492,-0.3716723101268053,-0.5590571808231811
-10820.813217639923,-6172.0,-8408.0,-16252.0,4734.0,9930.0,16009.0,0.8843175494005231,0.22960282804636928,-0.1262223047534139,0.3864362081354423
-10820.828873634338,-8488.0,-6592.0,-15664.0,6856.0,8025.0,5388.0,0.45425216448913286,0.29796318403217614,0.42854319553646864,0.7219581993285604
-10820.844489336014,-8968.0,-4208.0,-14264.0,7260.0,3315.0,2255.0,-0.0004903083366681606,0.3735916713884084,0.7768109951786561,0.5069454610078845
-10820.86009645462,-8000.0,-1760.0,-13648.0,3578.0,785.0,-3560.0,-0.01165382073959416,0.08890149105834516,0.9601436068311285,0.26473565610072985
-10820.875712633133,-6864.0,-492.0,-14788.0,-344.0,-1782.0,-2244.0,0.18654871361075276,-0.05591142218426113,0.942026284359865,0.27323976631276314
-10820.89131140709,-5232.0,-792.0,-15364.0,-3047.0,-1328.0,-3123.0,0.33013487482958115,-0.3072224300606185,0.7736247730978619,0.44511802180790966
-10820.906873941422,-4620.0,-2788.0,-14564.0,-4268.0,-426.0,-317.0,0.24035758484882155,-0.4074362617838219,0.5497994065940146,0.6884362980684093
-10820.922682285309,-4772.0,-3912.0,-13168.0,-4254.0,-237.0,2865.0,-0.06536866756942313,-0.3150296698666614,0.35707498448348246,0.8769154462432632
-10820.938278913498,-4896.0,-4996.0,-14904.0,-2965.0,1505.0,3156.0,-0.4040958144723052,-0.29267638424074416,0.19353594748505648,0.8447431230053252
-10820.953848838806,-5360.0,-5244.0,-15416.0,-842.0,2537.0,6894.0,-0.8205908500096402,-0.2805475522256943,0.18321885907540184,0.462984424683742
-10820.969435691833,-5852.0,-5344.0,-14536.0,717.0,2761.0,6914.0,-0.9433084260412536,-0.2789905626908175,0.15380242788314016,-0.0931573532593381
-10820.985003471375,-5980.0,-4300.0,-14808.0,1272.0,2092.0,3416.0,-0.8567573974962809,-0.30142468430339714,0.051040852646691136,-0.41533691491257557
-10821.000599384308,-5756.0,-3392.0,-15252.0,587.0,1450.0,1889.0,-0.7619926200804675,-0.27825857091513756,-0.028433871624212913,-0.5840641485313297
-10821.016189575195,-5616.0,-3036.0,-14964.0,-15.0,1778.0,3125.0,-0.5711714179921406,-0.18562538767305573,-0.06700219696612301,-0.7967541228771824
-10821.03185415268,-6096.0,-3264.0,-14464.0,-468.0,2051.0,4567.0,-0.22818607178288894,-0.04237489670110287,-0.05764186315120594,-0.9709855304721706
-10821.047447443008,-6588.0,-3436.0,-14412.0,-28.0,1533.0,2331.0,-0.022418354594279568,0.07450716920102018,-0.07497658548015268,-0.9941451658307618
-10821.063068628311,-6404.0,-2984.0,-14780.0,273.0,668.0,736.0,0.04382449312728125,0.12692148196722333,-0.1043043603179134,-0.9854394713203097
-10821.078671693802,-5852.0,-2364.0,-15092.0,-53.0,-217.0,256.0,0.06438843919554063,0.10600632678326374,-0.10338071481772479,-0.9868785210874023
-10821.094244480133,-5020.0,-2220.0,-14632.0,-1741.0,-148.0,588.0,0.1281168614778321,0.07750347221963225,0.03975577072500116,-0.9879264953897288
-10821.109816074371,-4460.0,-2816.0,-15664.0,-2556.0,-529.0,3497.0,0.41932623181405015,0.014691236373858689,0.21562456677461198,-0.8817344980716687
-10821.125409126282,-4232.0,-4068.0,-15900.0,-3147.0,-1274.0,2215.0,0.5823456917014255,-0.1477607306717776,0.38520220308573483,-0.700470930564593
-10821.140976428986,-4076.0,-5064.0,-16808.0,-1701.0,-1819.0,1564.0,0.6945587495120542,-0.2836783644090112,0.40408541331304093,-0.5232874045781234
-10821.156538963318,-3852.0,-5860.0,-15476.0,444.0,-945.0,55.0,0.738216733864603,-0.29688497055930924,0.3267911530653444,-0.5100028533023111
-10821.172093868256,-4080.0,-5824.0,-14456.0,3697.0,1401.0,48.0,0.7526033637255836,0.004559418042520395,0.24012600058168304,-0.6131124631425264
-10821.187726259232,-5008.0,-4080.0,-14584.0,6393.0,2568.0,2239.0,0.6897569786849036,0.5145488350336012,0.05593162898998622,-0.5063066853198405
-10821.203316926956,-6212.0,-1552.0,-15656.0,6302.0,3111.0,1205.0,0.37751440636169775,0.8807445964208692,-0.0757531488260806,-0.2757413449371505
-10821.218903064728,-7116.0,-124.0,-14948.0,2312.0,1104.0,-103.0,0.19940309495738276,0.9604822564201545,-0.08492672933952283,-0.17464160863653677
-10821.234486103058,-7196.0,-1048.0,-14956.0,-388.0,-1013.0,-723.0,0.21172583596164224,0.9376532975455774,-0.035742370194821384,-0.2733147397435875
-10821.250073671341,-7252.0,-2124.0,-14500.0,-1989.0,-1950.0,-5033.0,0.2216800794203011,0.7776803207863682,0.34638596321751924,-0.4754871454999511
-10821.26564502716,-6992.0,-3348.0,-14652.0,-2594.0,-2108.0,-5579.0,0.1998290725540852,0.41011023328508656,0.6887634063303812,-0.563456216947862
-10821.281222581863,-6840.0,-4620.0,-14304.0,-989.0,-2138.0,-4609.0,0.12490230002694612,0.009901794899837396,0.788518767962969,-0.602112549674811
-10821.296805858612,-6524.0,-4556.0,-14608.0,746.0,-1304.0,-6924.0,-0.12738958995700947,-0.448124223116462,0.6305503655920656,-0.6207759736640626
-10821.312376976013,-6216.0,-3484.0,-14452.0,1249.0,-1478.0,-5054.0,-0.24493743175090504,-0.7417104614048008,0.3452944284198145,-0.5202336049047408
-10821.32805299759,-5580.0,-2972.0,-14004.0,629.0,-456.0,-3517.0,-0.3339125518324855,-0.8414004323241578,0.09435766605807781,-0.41429983233101864
-10821.343613147736,-5488.0,-3000.0,-13760.0,-384.0,959.0,1251.0,-0.3214249589897256,-0.7776490974618722,0.1704809036670454,-0.5127222819812458
-10821.359214782715,-6000.0,-3452.0,-14324.0,-943.0,1412.0,4305.0,-0.19810757672363094,-0.5787113095122296,0.4314615789561233,-0.6630893711800996
-10821.374800920486,-6520.0,-4032.0,-14416.0,-1006.0,1230.0,2801.0,-0.12803509858335127,-0.37040877649407333,0.5873083408957035,-0.7081477702720326
-10821.390401124954,-6396.0,-4180.0,-14716.0,-335.0,-3.0,2559.0,0.019096714092956046,-0.22993969963500063,0.6740878452933154,-0.701689836658928
-10821.406028747559,-5452.0,-3844.0,-15328.0,17.0,235.0,1456.0,0.09407635475591575,-0.1287939194344212,0.6971249439277533,-0.6989839614370889
-10821.421605825424,-5228.0,-3500.0,-14176.0,-47.0,1121.0,6498.0,0.3655368066836427,0.28993973327914335,0.6781546088925213,-0.5678240224430241
-10821.437203645706,-5528.0,-3492.0,-15152.0,11.0,880.0,5978.0,0.5389239335998119,0.6083304573887395,0.49060672218522755,-0.3143248201354449
-10821.452774047852,-5564.0,-3436.0,-14940.0,534.0,2102.0,3039.0,0.4789042757114004,0.780887567009102,0.3933077269744858,-0.07857693235363515
-10821.46835899353,-5956.0,-2832.0,-14708.0,631.0,1122.0,6269.0,0.3842573228096985,0.8994773742460187,0.007674357695052895,0.2079131244548528
-10821.483973026276,-6128.0,-3180.0,-15080.0,180.0,1957.0,3063.0,0.2983573206265357,0.8312891835261113,-0.15617042275198353,0.44221262039714876
-10821.499556779861,-6636.0,-2984.0,-14500.0,89.0,1329.0,3625.0,0.16106535746731665,0.6946688608516466,-0.361211250659678,0.6008490299433566
-10821.51512503624,-6556.0,-2848.0,-14644.0,-357.0,647.0,1848.0,0.1045140354433564,0.588781452256195,-0.4758817548752834,0.6449416820544721
-10821.530683279037,-6528.0,-3252.0,-14400.0,-818.0,118.0,-133.0,0.15839077729807252,0.5787537434815988,-0.5128222339324897,0.613978682412866
-10821.546302556992,-6244.0,-3212.0,-15080.0,-1366.0,-1127.0,-1599.0,0.25697604030133164,0.6773741868009248,-0.5100513085057011,0.46365416902952167
-10821.561875343323,-5520.0,-3624.0,-15560.0,-1903.0,-1204.0,-3522.0,0.4304629618151571,0.7893926714004167,-0.3813790455502017,0.21473442309013652
-10821.57749247551,-5120.0,-4292.0,-15040.0,-1320.0,-379.0,-1405.0,0.527201190735991,0.7823893369458063,-0.318969742945174,0.09046619813800245
-10821.593059062958,-4876.0,-4568.0,-14792.0,-171.0,1180.0,-1088.0,0.5744161094681219,0.7878798406302715,-0.18990063767998375,0.11501842339668832
-10821.608661651611,-5536.0,-4152.0,-15120.0,960.0,1588.0,-356.0,0.530899187854713,0.8151300576604714,-0.07516108158987136,0.21922557617185817
-10821.624244689941,-5908.0,-3336.0,-15276.0,1979.0,856.0,-2926.0,0.430351014375381,0.8671899832353472,0.20068942405652965,0.15001097451259177
-10821.639843940735,-6168.0,-2320.0,-15036.0,1364.0,-112.0,-5211.0,0.3593272279493588,0.7499113745385598,0.5509096045256903,-0.0708200623641692
-10821.655446052551,-5896.0,-1824.0,-14652.0,149.0,-845.0,-3753.0,0.3476185886796797,0.5393286472744079,0.7291355571386076,-0.23800686198023302
-10821.671053409576,-5524.0,-2236.0,-14360.0,-1307.0,-338.0,-2531.0,0.3664855106290555,0.321749716065403,0.8393715118726124,-0.24004365387878485
-10821.686648607254,-5592.0,-3284.0,-14300.0,-2292.0,-40.0,171.0,0.42854135926966325,0.255074452812454,0.8642209459794876,-0.06641899914976325
-10821.702230215073,-5916.0,-4224.0,-14844.0,-1898.0,392.0,-357.0,0.43253929596031426,0.1571070570898878,0.8849828295690928,0.07094026663745027
-10821.71779704094,-6088.0,-4656.0,-15012.0,-839.0,206.0,-952.0,0.43110829630271275,0.050265664767082996,0.895131128431486,0.10178046333884579
-10821.733385801315,-5800.0,-4500.0,-15056.0,304.0,280.0,-2208.0,0.41931233519230965,-0.11120959954669672,0.9009961504864096,-0.003940473690660067
-10821.748967409134,-5480.0,-3832.0,-14756.0,1176.0,620.0,-2537.0,0.3694603162028559,-0.2595007956288792,0.8719195297345274,-0.189511861071504
-10821.764555692673,-5312.0,-2880.0,-14672.0,980.0,922.0,-1130.0,0.29910537235969137,-0.2951962112893712,0.8500560648971238,-0.3174899362146591
-10821.780126810074,-5356.0,-2488.0,-14796.0,-424.0,1325.0,169.0,0.19304055038212675,-0.25510202064499643,0.8942027952727131,-0.3131448002082611
-10821.795741081238,-5888.0,-2940.0,-14616.0,-1098.0,701.0,984.0,0.13939559237208482,-0.1758363461338939,0.9484250488139587,-0.22392046576353172
-10821.81129693985,-6000.0,-3580.0,-15048.0,-1533.0,100.0,-1515.0,0.07677033161042789,-0.3123657839012203,0.93988231134266,-0.11469600715535148
-10821.826908111572,-5540.0,-3932.0,-14948.0,-808.0,-245.0,-1862.0,0.05561274834592728,-0.4655756173249221,0.8816517509111645,-0.05326121374141001
-10821.84249997139,-5156.0,-3896.0,-14752.0,-514.0,451.0,-1980.0,-0.008732443179037156,-0.6082396463846504,0.7926492750465485,-0.04093169639999863
-10821.85806941986,-5208.0,-3752.0,-14908.0,-90.0,816.0,-642.0,-0.07166151590336743,-0.6470067647998966,0.755178206051674,-0.07715407018543191
-10821.873629808426,-5500.0,-3536.0,-15156.0,-116.0,813.0,-1429.0,-0.13969961301674377,-0.7275289468264188,0.6633993564120741,-0.10529455619669947
-10821.889192581177,-5684.0,-3276.0,-14984.0,-302.0,263.0,-1807.0,-0.18800587620388273,-0.8155250072455185,0.5412616091446804,-0.08129344091695757
-10821.904757261276,-5624.0,-3304.0,-14916.0,-492.0,6.0,-2558.0,-0.23518904405899607,-0.9052083452795616,0.35359415960098245,-0.01597296111961406
-10821.920462846756,-5400.0,-3380.0,-14888.0,-603.0,-24.0,-2027.0,-0.27990811481133826,-0.9396219402403477,0.19155687572618624,0.04547548838384841
-10821.936123847961,-5260.0,-3364.0,-14892.0,-734.0,110.0,-1177.0,-0.3345265033695517,-0.9350320226798141,0.08876358597248318,0.07699455118346087
-10821.951769828796,-5132.0,-3476.0,-14856.0,-814.0,341.0,-451.0,-0.39879319194674034,-0.9137594853645679,0.03636222299275958,0.06844984808044276
-10821.96735906601,-5096.0,-3716.0,-14648.0,-733.0,505.0,-102.0,-0.4565776929606076,-0.889011299453049,0.006208128839584866,0.03401733193361454
-10821.98448228836,-5188.0,-3708.0,-15056.0,-564.0,694.0,149.0,-0.49933640617185876,-0.865961308985253,-0.01157457942957915,-0.025302053729838632
-10822.000282049179,-5268.0,-3720.0,-14960.0,-331.0,773.0,179.0,-0.5214667652979105,-0.8477857947570617,-0.030968706264335993,-0.09150190233095931
-10822.015919685364,-5320.0,-3612.0,-14884.0,-75.0,915.0,159.0,-0.5213234351446281,-0.8349019019169328,-0.060105208823676315,-0.16597606458991349
-10822.031558036804,-5288.0,-3364.0,-14928.0,16.0,894.0,394.0,-0.5077062274043016,-0.821931000571115,-0.07210012913129808,-0.2479221416782041
-10822.047144174576,-5280.0,-3172.0,-14796.0,-238.0,976.0,668.0,-0.5012278389220172,-0.7902822633116819,-0.06199288146124184,-0.3469603441787869
-10822.062776565552,-5264.0,-3224.0,-15048.0,-429.0,903.0,1092.0,-0.48864448326101,-0.7440923829377772,-0.013123976808011544,-0.4553908825012897
-10822.078389406204,-5252.0,-3292.0,-14980.0,-676.0,866.0,1009.0,-0.48720870846511427,-0.6765078924898932,0.04196065671372725,-0.550639672637916
-10822.094018697739,-5184.0,-3352.0,-15164.0,-803.0,589.0,772.0,-0.4965686421585526,-0.6077957584965711,0.10049103673330469,-0.6114780871909106
-10822.109612703323,-5128.0,-3496.0,-15320.0,-892.0,576.0,190.0,-0.5363215217303015,-0.5346037219288802,0.13267441007361228,-0.6394963539695135
-10822.125182390213,-5060.0,-3696.0,-15608.0,-604.0,715.0,150.0,-0.5623888284294373,-0.4633421378402558,0.13952290127154898,-0.6704970014699216
-10822.14078783989,-5136.0,-3636.0,-15432.0,-39.0,526.0,-440.0,-0.5949591603615241,-0.43545470718635,0.09812021161173302,-0.6684124621552394
-10822.156372308731,-5100.0,-3272.0,-15540.0,62.0,141.0,-1513.0,-0.6760629418212071,-0.43979397002296106,0.029484578266131177,-0.5904666140197654
-10822.17200422287,-5104.0,-3104.0,-15420.0,-29.0,-303.0,-1730.0,-0.756625833986312,-0.45310749030676417,-0.01737003387187044,-0.4710724270170282
-10822.187577009201,-4692.0,-3136.0,-15200.0,-227.0,-574.0,-2191.0,-0.8400351386631191,-0.44985243129338237,-0.0557671403732054,-0.2981002883682977
-10822.203166723251,-4448.0,-3252.0,-15224.0,-583.0,-61.0,-1782.0,-0.8975270299247292,-0.3950112126474312,-0.10482251679919447,-0.165600762103267
-10822.218806505203,-4612.0,-3648.0,-14824.0,-461.0,578.0,306.0,-0.9014204738061773,-0.35270000246637545,-0.13276401201533478,-0.21311394787028234
-10822.234414577484,-5116.0,-4024.0,-15044.0,-52.0,1116.0,840.0,-0.8679473338931576,-0.3352662987548521,-0.19255029437678653,-0.31175041081351407
-10822.250009536743,-5576.0,-3868.0,-15164.0,595.0,777.0,-234.0,-0.8405182367516595,-0.3540185961548438,-0.2736498958065362,-0.3054761231086757
-10822.265604496002,-5608.0,-3480.0,-14944.0,759.0,429.0,-1507.0,-0.8372627109237091,-0.35825090813993327,-0.3679449542649851,-0.18778698129671453
-10822.281203269958,-5396.0,-3016.0,-14652.0,606.0,359.0,-1609.0,-0.8233785736386696,-0.3410782971984117,-0.44941251821000205,-0.06116950326041884
-10822.296800374985,-5296.0,-2572.0,-14396.0,-6.0,463.0,-1000.0,-0.8068314161398429,-0.29765541008213403,-0.5103075760319095,-0.0032404664863444873
-10822.312403202057,-5256.0,-2804.0,-14940.0,-1154.0,421.0,341.0,-0.8127694626814462,-0.23010806090622235,-0.5277705927384477,-0.08896225198925209
-10822.328042030334,-5324.0,-3320.0,-15224.0,-1454.0,78.0,-221.0,-0.8330772000076685,-0.11527058475318804,-0.5224291699611537,-0.1405803453251591
-10822.343634843826,-5192.0,-3620.0,-15308.0,-1268.0,-375.0,-1268.0,-0.8673222321211672,0.029768103121944695,-0.48646791878509704,-0.1010691332592375
-10822.35926103592,-4776.0,-3904.0,-15452.0,-608.0,-357.0,-955.0,-0.8844432648967707,0.11266115046907318,-0.44946998551858947,-0.05517525234780753
-10822.374843120575,-4112.0,-3832.0,-15556.0,-121.0,28.0,-325.0,-0.8831660390229704,0.1349396862387772,-0.44790413650251426,-0.03450960878066708
-10822.390427589417,-4272.0,-3504.0,-15424.0,111.0,498.0,194.0,-0.8632888018868007,0.12028607547901848,-0.48859822217921844,-0.03918522509843757
-10822.4060151577,-4416.0,-3408.0,-15304.0,438.0,643.0,655.0,-0.8347837602135617,0.06142929531408754,-0.5435215867205442,-0.06282356349096346
-10822.421596288681,-4584.0,-3248.0,-14924.0,469.0,871.0,928.0,-0.785236767179009,-0.011808114171723094,-0.6104977587844512,-0.102743731824032
-10822.43721985817,-4624.0,-3208.0,-14720.0,349.0,1120.0,1433.0,-0.7030447439811208,-0.1006539083865233,-0.6803019274520188,-0.18106950652195838
-10822.452809095383,-5300.0,-3192.0,-14896.0,259.0,1157.0,1676.0,-0.5959181714335109,-0.19461478587164685,-0.7292656731293483,-0.2741864257593219
-10822.468407392502,-5400.0,-3104.0,-15020.0,-27.0,657.0,890.0,-0.5306296830482116,-0.23301932221582056,-0.7444203389105508,-0.3316210095252334
-10822.484065055847,-5836.0,-3148.0,-15168.0,-353.0,-368.0,-907.0,-0.5854121384674604,-0.16768764691537938,-0.7327998631977478,-0.3036080395910161
-10822.499667406082,-5252.0,-3148.0,-15180.0,-605.0,-945.0,-2089.0,-0.6951577724764924,-0.02761332073579485,-0.6847760701643256,-0.2169675312431931
-10822.51529955864,-4640.0,-3284.0,-15072.0,-768.0,-925.0,-1378.0,-0.7684777049628035,0.08281782868774652,-0.6099680161676837,-0.17470616325421964
-10822.530923128128,-4104.0,-3416.0,-15252.0,-685.0,-283.0,-412.0,-0.7825573542707334,0.1460617769419978,-0.5762365040350711,-0.18499036734591154
-10822.546493530273,-4500.0,-3560.0,-15468.0,-398.0,-108.0,75.0,-0.7810113076176787,0.16772870338770757,-0.5632496923948699,-0.21127755074850382
-10822.562079906464,-4576.0,-3560.0,-15436.0,-189.0,-10.0,-556.0,-0.7877822214919914,0.20760357105910585,-0.5504504439708244,-0.18249448626457743
-10822.577656507492,-4556.0,-3596.0,-15616.0,211.0,-283.0,-299.0,-0.8091326517774946,0.20292348226596213,-0.5287358825330946,-0.15673154977388976
-10822.59324002266,-4480.0,-3840.0,-15172.0,434.0,165.0,420.0,-0.8020963924182667,0.15506731582131766,-0.5531582181248106,-0.1631302870547296
-10822.608810424805,-4688.0,-3508.0,-14916.0,570.0,474.0,1396.0,-0.7596940228839782,0.05414371960117942,-0.6078145192399499,-0.22471083512642423
-10822.62439417839,-4996.0,-3440.0,-15060.0,731.0,267.0,981.0,-0.7252644074652698,-0.040777339287496855,-0.640906603259721,-0.24812793829548885
-10822.640079021454,-5168.0,-3248.0,-14932.0,775.0,364.0,839.0,-0.6800986805681029,-0.12810465082279301,-0.6742953329734119,-0.2576446914985277
-10822.655709266663,-5240.0,-3280.0,-14964.0,371.0,524.0,1236.0,-0.6126473656190072,-0.20948804930392123,-0.6950350199859637,-0.31257684429918875
-10822.67130279541,-5296.0,-3252.0,-14880.0,-112.0,658.0,1875.0,-0.5157673550483669,-0.2948435624447736,-0.6828909126571175,-0.4251015297098044
