programtime,ax,ay,az,gx,gy,gz,q0,q1,q2,q3
-9825.151537179947,-3860.0,7268.0,-15708.0,9005.0,8179.0,2592.0,0.6774686057367941,0.532575646257725,0.48364970432849164,0.15323978842707114
-9825.167124509811,-5564.0,6824.0,-15016.0,6724.0,6789.0,-1282.0,0.07302095912043503,0.6008717973160681,0.7916129173790707,0.08348659627680631
-9825.182722330093,-3276.0,3160.0,-17620.0,8644.0,7097.0,2649.0,-0.6281607585677363,0.5558459624826557,0.5372821162605602,-0.08818874607289827
-9825.198340892792,-6900.0,7064.0,-15328.0,7596.0,5802.0,1799.0,-0.956649481280435,0.2047321966864089,0.056055357005258814,-0.19940986574601835
-9825.21401309967,-4028.0,5092.0,-16032.0,6940.0,5529.0,2753.0,-0.8231232622841124,-0.2057126756872453,-0.44722209795693835,-0.2830950109898609
-9825.229623794556,-4204.0,6100.0,-15752.0,7343.0,5293.0,3037.0,-0.31464509063511736,-0.5538787172776205,-0.7332367460219532,-0.23786699596466568
-9825.245198965073,-3948.0,5588.0,-15700.0,6169.0,5110.0,2023.0,0.285991029994288,-0.6056111993357357,-0.733163027456218,-0.11796686472552807
-9825.26077079773,-2972.0,5304.0,-15348.0,6043.0,5142.0,1619.0,0.7765518402370843,-0.41283555498365315,-0.4749768683141112,0.030512596288357938
-9825.27634692192,-4024.0,6212.0,-14960.0,4519.0,5068.0,-928.0,0.9885657080092812,-0.0701108713242749,-0.13136799268541424,-0.023764620090887516
-9825.291944265366,-3520.0,5920.0,-15276.0,5070.0,4907.0,-616.0,0.9139747805644027,0.3273393098706823,0.23616218508165848,-0.04155116175384206
-9825.307559251785,-4488.0,7652.0,-13608.0,3024.0,4187.0,-2766.0,0.6509602979957962,0.46912748371201496,0.5682503388937369,-0.18237775852995525
-9825.323130846024,-4372.0,8028.0,-13800.0,1356.0,3437.0,-2904.0,0.3503046171969198,0.4228473548298889,0.7964628545912671,-0.2532463443768059
-9825.338789224625,-3744.0,5900.0,-14588.0,-489.0,2277.0,-2722.0,0.14299714251620255,0.25688676549505535,0.9328466978723688,-0.20822594750488405
-9825.35438990593,-3968.0,7472.0,-14160.0,-1595.0,1887.0,-4263.0,-0.0480455153615953,-0.06957977433403069,0.9930606359552117,-0.08173650820468681
-9825.370010852814,-2928.0,5028.0,-15548.0,-1745.0,1347.0,-3245.0,-0.18769358147461288,-0.3158948329370733,0.9273184411142504,0.07114831527399665
-9825.385608673096,-4048.0,6540.0,-14832.0,-2347.0,655.0,-3184.0,-0.26937243224714846,-0.5089895236702962,0.7685320756000299,0.2787949180186945
-9825.401245594025,-3432.0,5036.0,-15148.0,-2732.0,-550.0,-951.0,-0.3200244237926975,-0.479717772192966,0.6516732690323193,0.4927242409777502
-9825.41687464714,-3304.0,4764.0,-15308.0,-3131.0,-1121.0,683.0,-0.39939781977608807,-0.29283609663059884,0.5533490495640307,0.669726236170307
-9825.43250823021,-2404.0,5404.0,-15156.0,-2474.0,-1359.0,4547.0,-0.6003960289817915,0.08354957261640758,0.518776212874063,0.602839380145787
-9825.44809269905,-7084.0,7644.0,-14820.0,-3526.0,-3765.0,6504.0,-0.604366772186828,0.6160861112963938,0.3914678516579531,0.31926733196878937
-9825.463687419891,-4088.0,6512.0,-15224.0,-5755.0,-4108.0,5907.0,-0.2485319269696196,0.9631999365266624,0.10153647808816697,-0.01296561488138966
-9825.47929406166,1684.0,3376.0,-16284.0,-4833.0,-3201.0,2693.0,0.16543486706063712,0.9503763915941558,-0.04359102769500449,-0.25983810606913454
-9825.494865894318,2588.0,-180.0,-17328.0,-4981.0,-1118.0,-182.0,0.5206918200382488,0.7799798185645316,0.062384485191165226,-0.3414962476876278
-9825.510445833206,616.0,4212.0,-15984.0,-2964.0,-211.0,-1383.0,0.6559310250293111,0.6073800209139397,0.22617705620899117,-0.3868952569407051
-9825.526001930237,-3036.0,3248.0,-14892.0,-1898.0,-283.0,397.0,0.7642747385320074,0.4901630675267551,0.24948001552135826,-0.3367254269134664
-9825.541584014893,-4912.0,6168.0,-14044.0,-3262.0,-660.0,-437.0,0.8687348473287241,0.23414362861702492,0.30720730868422164,-0.3100003156543368
-9825.557173967361,-5260.0,4192.0,-14520.0,-3692.0,-932.0,-1065.0,0.8888742438865158,-0.0938518424995783,0.3388113923879401,-0.2937707449742989
-9825.57276558876,-3804.0,2772.0,-15996.0,-3203.0,-138.0,-2054.0,0.772446698534443,-0.38579651766907064,0.37361622593593813,-0.338966164380818
-9825.588359117508,-1464.0,7460.0,-18468.0,-2015.0,1941.0,-4134.0,0.47567620078340134,-0.5492655901240415,0.38971221977206366,-0.5658302300816812
-9825.604012966156,-7984.0,8600.0,-20644.0,-3297.0,1212.0,-8166.0,-0.10032332657155728,-0.7143685729353135,0.16712586983417643,-0.6720727012609202
-9825.619606733322,-3164.0,-308.0,-19892.0,-2807.0,873.0,-5803.0,-0.5464653956419532,-0.6291394393468204,-0.03270273464464013,-0.5518058248795622
-9825.63522863388,-1956.0,116.0,-16532.0,-192.0,154.0,1407.0,-0.48493392920560485,-0.6121046947479559,0.046055749413879764,-0.6229332186668576
-9825.650823354721,-1000.0,3152.0,-14828.0,-1133.0,-258.0,3956.0,-0.30984398871437363,-0.5293384333585652,0.3103712704586071,-0.7262693715839716
-9825.666449308395,-776.0,4092.0,-15048.0,-134.0,-395.0,5143.0,0.018839929753601697,-0.37540193051404214,0.5171891730224392,-0.7689172952415461
-9825.682028770447,-1356.0,5408.0,-15416.0,286.0,-380.0,3682.0,0.2781918731554175,-0.22298297669437786,0.5880835933982405,-0.7259790361922358
-9825.697627305984,-2036.0,5668.0,-14792.0,382.0,-25.0,2067.0,0.4109813122694729,-0.10745292858744956,0.593814699243016,-0.6833244705600474
-9825.713208913803,-1208.0,6096.0,-15288.0,-481.0,759.0,-3530.0,0.1491958319300974,-0.2500423855538218,0.5878696154851376,-0.7547375201688309
-9825.728779554367,-3816.0,1072.0,-15596.0,913.0,884.0,-119.0,0.11522619734557475,-0.18493867031943223,0.5336099805122516,-0.8171786832532244
-9825.744348287582,-1256.0,2120.0,-17068.0,-302.0,2168.0,1418.0,0.10774576169801453,0.031784254518123334,0.585128255779732,-0.8031223669460403
-9825.759949684143,-2248.0,4172.0,-16904.0,-219.0,820.0,2425.0,0.23072819237449627,0.20598080841105473,0.5871206290628183,-0.7480813957978145
-9825.775566101074,4.0,5688.0,-16292.0,-174.0,617.0,2786.0,0.37268569277445757,0.37416756071439355,0.5443250726937546,-0.6517777429056641
-9825.79113149643,-1176.0,5340.0,-15976.0,-410.0,-759.0,1541.0,0.5037922576905377,0.3864965163395736,0.4870379144707126,-0.5996731391487061
-9825.806786775589,-204.0,4512.0,-15912.0,-197.0,-880.0,2060.0,0.6432965232560957,0.4116995014635846,0.38204111530831064,-0.5203053813629428
-9825.822360754013,-1352.0,4276.0,-15880.0,-535.0,-1738.0,1315.0,0.7655460652274121,0.3403826220164024,0.25678509904669117,-0.48180940791110255
-9825.837989330292,-716.0,5088.0,-15456.0,-1373.0,-36.0,999.0,0.8398865692429105,0.26690227576976006,0.2794795747113458,-0.3811100803094326
-9825.853562831879,-1256.0,4688.0,-15568.0,-1471.0,-110.0,226.0,0.8768670157859694,0.15986224785543832,0.3125894984565911,-0.32838407968699046
-9825.869160413742,-2592.0,5956.0,-15824.0,-1084.0,-501.0,-191.0,0.8951518616824535,0.05727101926875045,0.3064815106392054,-0.31857849662942817
-9825.884764671326,-620.0,7356.0,-14992.0,-383.0,-361.0,22.0,0.9063370666692329,0.0181303015810483,0.2887119068327662,-0.3080094943325273
-9825.900379657745,-468.0,6440.0,-14612.0,-226.0,-352.0,-694.0,0.8946445465144061,-0.026403006184898013,0.26760028366091826,-0.3567970078924834
-9825.916027784348,-1120.0,4644.0,-15240.0,640.0,-796.0,-175.0,0.9055343320519819,-0.005136758664214677,0.18465155476484976,-0.38194893704331817
-9825.931693077087,-2020.0,4180.0,-15920.0,977.0,-809.0,174.0,0.919073720762027,0.04780431236148495,0.08794953267615979,-0.3811602330075037
-9825.94732427597,-2388.0,3972.0,-16040.0,998.0,-638.0,816.0,0.9395520649113078,0.112291100735118,0.0003398779652909745,-0.32346948928695257
-9825.962930202484,-1956.0,4688.0,-15856.0,945.0,-331.0,213.0,0.9325455196373669,0.18003693298796378,-0.05532532008436986,-0.3080335460986723
-9825.978630781174,-1888.0,4436.0,-15624.0,753.0,-314.0,-611.0,0.8991474780803982,0.2352068893948659,-0.09119486642632191,-0.3576241437324056
-9825.994800329208,-1652.0,4228.0,-16084.0,556.0,-356.0,-1037.0,0.8475850182360202,0.27469975274905006,-0.11460674447306102,-0.4393233169577304
-9826.010483503342,-2332.0,3764.0,-16008.0,267.0,-857.0,-1358.0,0.7727005816005654,0.27273719934916885,-0.1541984160722015,-0.5520607573140334
-9826.026096820831,-1556.0,3540.0,-16488.0,440.0,-430.0,-853.0,0.7122611113005273,0.29221870241216424,-0.18344152415330667,-0.6112622567325752
-9826.041695356369,-1308.0,3148.0,-15760.0,-14.0,-348.0,-334.0,0.6885332623407797,0.278155770827224,-0.19577955099998376,-0.6404855042982007
-9826.05735874176,-1104.0,3524.0,-15368.0,91.0,-576.0,1272.0,0.7419814145638194,0.22826305981073472,-0.2645463433289799,-0.5721667485960537
-9826.072959423065,-1748.0,4004.0,-15872.0,-378.0,-527.0,823.0,0.7751107410240561,0.15805979297109185,-0.2951496732894928,-0.5358237689317076
-9826.088562965393,-1232.0,4252.0,-15704.0,-410.0,-529.0,544.0,0.7902471424291342,0.09153024805976022,-0.3185935642712791,-0.5153928679925915
-9826.104191064835,-1420.0,5076.0,-15588.0,-545.0,-886.0,225.0,0.7766433150797362,0.007992306046420265,-0.35569788428643695,-0.5198464189548393
-9826.119819164276,-1056.0,4664.0,-15332.0,-501.0,-868.0,1074.0,0.7921771970924222,-0.09775849969396454,-0.3896438907745108,-0.4594303021422075
-9826.135434865952,-1288.0,4948.0,-15528.0,-27.0,-520.0,1219.0,0.8175542363485805,-0.16079888192802202,-0.411662147132516,-0.3691653651379474
-9826.151020526886,-1796.0,5096.0,-15720.0,153.0,-731.0,514.0,0.8073190050973186,-0.1912837673586385,-0.4603814036368467,-0.31574595411363326
-9826.166632413864,-2028.0,4676.0,-15936.0,414.0,-509.0,349.0,0.8015400917116824,-0.18977438562336607,-0.5010483070696166,-0.2654614057123423
-9826.182205438614,-1340.0,5112.0,-15672.0,498.0,732.0,366.0,0.8471619899674638,-0.15345389908589238,-0.4540219195164589,-0.22941787246919898
-9826.197801589966,-2688.0,4412.0,-15464.0,1163.0,594.0,442.0,0.8885746765096444,-0.07255822819594279,-0.424695989791026,-0.15749179039641129
-9826.213413238525,-460.0,5456.0,-15668.0,1731.0,1989.0,1772.0,0.9612622491282435,0.022559719922759805,-0.2730345452940274,0.030299909471829693
-9826.22900557518,-3400.0,5092.0,-14968.0,2654.0,1501.0,12.0,0.9583441758887137,0.23307598758075146,-0.13559439966002765,0.09416041277668837
-9826.244594573975,-1272.0,5564.0,-15040.0,3488.0,3297.0,785.0,0.8467406726712335,0.4498403695510163,0.1406217414938676,0.2467780399178661
-9826.260187387466,-3292.0,5216.0,-15452.0,4664.0,3097.0,-955.0,0.5788349642492672,0.6417201521776089,0.4546728536999649,0.21544819924990485
-9826.275825500488,1648.0,7652.0,-15172.0,3692.0,8323.0,-1033.0,0.04769446348056855,0.4927226191585788,0.7827993344694596,0.3770608182733678
-9826.291449308395,-7116.0,4760.0,-15368.0,7002.0,5171.0,-3627.0,-0.37614046495890285,0.08022502427315319,0.91946678555271,0.08162797538980714
-9826.307091474533,-2376.0,3820.0,-16764.0,9317.0,7920.0,282.0,-0.7374920788618501,-0.17738774457588305,0.49503372997673073,-0.42376954571515996
-9826.3226749897,-3420.0,5404.0,-17252.0,10503.0,7530.0,-3420.0,-0.6681329091562114,-0.4704436827979523,-0.2803877678001155,-0.503650530314449
-9826.338258504868,-2984.0,3576.0,-20944.0,11777.0,8420.0,3254.0,0.1005308314062048,-0.5297821350242164,-0.706189385790186,-0.4588256670493055
-9826.353839635849,-1196.0,6776.0,-24044.0,11118.0,8423.0,5242.0,0.818947031762816,-0.2548808359236005,-0.509202682717512,-0.0712330440108277
-9826.369413852692,-1284.0,6616.0,-26072.0,12180.0,8268.0,5596.0,0.8778407645708348,0.24612369982542373,0.07661742894724625,0.4036687825723593
-9826.384989738464,-3668.0,6940.0,-25376.0,13114.0,9778.0,5111.0,0.19492500484739333,0.5228309768628309,0.654704494546397,0.50991571552429
-9826.400606870651,-4000.0,10524.0,-23492.0,13266.0,11293.0,5121.0,-0.6848855673060725,0.28744238461428734,0.642339442022373,0.18896739519154543
-9826.416184902191,-6424.0,11820.0,-20928.0,9582.0,10326.0,1616.0,-0.9621130852499895,-0.22946388385764285,0.08975295506985026,-0.11674392597451103
-9826.43186712265,-6108.0,13040.0,-17220.0,6240.0,9195.0,2453.0,-0.6273069789839502,-0.4546333552962477,-0.4943537125518356,-0.39421932126206466
-9826.447459936142,-9836.0,15260.0,-12408.0,5011.0,6250.0,5827.0,0.031468049108132494,-0.579001868968374,-0.5884681311884732,-0.5634464093345558
-9826.463076353073,-14816.0,17440.0,-7884.0,1006.0,1231.0,2856.0,0.2748539814249585,-0.6369539208247973,-0.4715600912277148,-0.5444043276849254
-9826.478669404984,-11660.0,13980.0,-6304.0,-2663.0,-2741.0,6040.0,0.2552490671719397,-0.9160762865812282,-0.06369082383531995,-0.30264769919921775
-9826.49424815178,-12776.0,16428.0,-4424.0,-7545.0,-8062.0,9857.0,-0.08116346236879665,-0.8274877395045687,0.45549029851510564,0.3181275236513621
-9826.509838819504,-10640.0,14424.0,-5692.0,-11665.0,-11014.0,9304.0,-0.39112234783381944,-0.036266412544488175,0.4632845400739538,0.7944026002440946
-9826.525436878204,-8764.0,13936.0,-8964.0,-14379.0,-14029.0,8926.0,-0.22565463052709372,0.8264455560538355,-0.01212915410513875,0.5156749113746385
-9826.54102396965,-6988.0,10660.0,-10972.0,-18389.0,-16334.0,13526.0,0.1794510760531024,0.7215900697414994,-0.5644588307806397,-0.35845684664628047
-9826.556577205658,-4204.0,7492.0,-14660.0,-24015.0,-14497.0,4468.0,0.41801655984716035,-0.12266710190869404,-0.12038696805217658,-0.8920324633812784
-9826.57215833664,-8492.0,25196.0,-14544.0,-31098.0,-20042.0,-6264.0,-0.17908548664926172,-0.8036216710859034,0.4387194985981657,-0.3600636051900708
-9826.587779521942,4964.0,-1888.0,-22756.0,-24986.0,-16317.0,4663.0,-0.4114343466235638,-0.2651266889979847,0.6405617141683293,0.5917011978533916
-9826.603363752365,-5432.0,5560.0,-20808.0,-27505.0,-16518.0,-5571.0,0.054231021336495606,0.41952547712650073,-0.10466637216326041,0.9000568431520114
-9826.6189494133,-1888.0,6780.0,-22760.0,-28603.0,-18934.0,-2421.0,0.3536443207990276,0.5670493443076278,-0.743609513783779,-0.020871667330030697
-9826.634541988373,-3176.0,2784.0,-25464.0,-28037.0,-14944.0,-12820.0,0.2371502317388515,0.1606855258487696,-0.16475647713210625,-0.9438194915405864
-9826.650167226791,216.0,2836.0,-24204.0,-25737.0,-14283.0,-10914.0,-0.17360100851507235,-0.47709278592302784,0.6214644028403562,-0.5966801148563888
-9826.665797233582,-1688.0,2516.0,-22532.0,-22708.0,-14477.0,-9643.0,-0.3108369846076664,-0.5242846216528383,0.603065402921877,0.5146048234296174
-9826.681390047073,56.0,3520.0,-20292.0,-21125.0,-13160.0,-7745.0,-0.0953333952098494,0.09336958315381107,-0.1379754688279297,0.981405336597045
-9826.696972846985,3612.0,-1464.0,-20604.0,-12970.0,-11646.0,258.0,-0.08345472003304134,0.6567343198758204,-0.6338822714004032,0.39991075105042606
-9826.712594509125,7636.0,-272.0,-19536.0,-13941.0,-4549.0,-15617.0,0.47589144045789233,0.8399520634855617,-0.09069242066623291,-0.24450511810381048
-9826.728179693222,2836.0,-2772.0,-20176.0,-12320.0,-4183.0,-18518.0,0.42938653934081883,0.174262960992495,0.6125085982740762,-0.640384913391446
-9826.743816375732,4160.0,-972.0,-17100.0,-8053.0,-379.0,-11571.0,-0.04710366344257444,-0.4837509678246441,0.7721600252091596,-0.40931056850269437
-9826.759377241135,4524.0,-2200.0,-15700.0,5521.0,2143.0,-2519.0,-0.04224893038532384,-0.5229693154493282,0.40105822391221485,-0.7509130602221118
-9826.774954319,-4888.0,-832.0,-14668.0,-1942.0,1734.0,-18378.0,-0.7332832621265536,-0.5492481700272527,-0.16635565954588605,-0.36462021302144987
-9826.790527582169,1072.0,-516.0,-15592.0,2739.0,2716.0,-3229.0,-0.6090100212721693,-0.5415729328588382,-0.533012901402407,-0.2273824956396953
-9826.806166887283,-3560.0,1804.0,-13788.0,2604.0,2611.0,-5132.0,-0.4081384467105261,-0.3411107863322135,-0.8459525076463069,0.037825845284181404
-9826.821767807007,1164.0,1532.0,-16288.0,5306.0,4479.0,-8447.0,0.07859689575412221,0.056894176776814014,-0.8966980287711582,0.43187755883424117
-9826.837366819382,3164.0,3592.0,-15344.0,6521.0,7514.0,-8709.0,0.6303921841981026,0.32747024108136225,-0.3643154831216159,0.6021986084888636
-9826.852944612503,856.0,2172.0,-17340.0,7662.0,9143.0,-9910.0,0.7267340813655626,0.3469500496379447,0.4899073843743831,0.3338772121206088
-9826.868547201157,4844.0,1396.0,-16024.0,9210.0,11932.0,-7773.0,0.09181800082878905,0.14066688108040173,0.9799373277127343,-0.10726190864487557
-9826.884129524231,3876.0,920.0,-18340.0,11003.0,12293.0,-3868.0,-0.6335229656714623,0.0073434275968175845,0.572994341838344,-0.5198771107283031
-9826.899753332138,4056.0,1412.0,-17076.0,8542.0,13223.0,-6072.0,-0.885312633667568,-0.09478052423931174,-0.30421428766230224,-0.3386618668755518
-9826.915448665619,2432.0,6540.0,-16868.0,14563.0,11127.0,12750.0,-0.04226456066368964,-0.5614684682702337,-0.6798411134842571,-0.469875437181673
-9826.931119918823,-32768.0,32767.0,-7204.0,20376.0,-162.0,29576.0,0.6563181900500783,-0.7288623102008892,-0.01990957925025944,0.19393239758248224
-9826.946716547012,-6664.0,-4276.0,-18236.0,-32768.0,-9302.0,-17579.0,-0.32843682702891347,-0.6925148863048645,-0.6373425751082819,-0.07966696210904797
-9826.962321519852,12696.0,-21304.0,-32768.0,5778.0,6458.0,19744.0,0.24286255042292051,-0.8969584008635139,0.15517533028605549,-0.33526709589975595
-9826.97795343399,12236.0,-27612.0,-32768.0,32767.0,13018.0,32767.0,0.83146774352395,0.14405090691587163,0.4718346665670437,-0.2555049414815148
-9826.993548631668,-15712.0,31748.0,-440.0,11785.0,12860.0,517.0,0.09073066924188097,0.7176068835184963,0.623303524512268,-0.2971548800144059
-9827.009173870087,1112.0,9556.0,-3844.0,8176.0,11226.0,203.0,-0.6533835995530242,0.6901769528113355,0.31014504979740365,-0.02357315696632595
-9827.024761199951,-1140.0,4236.0,-12156.0,10086.0,12148.0,-7176.0,-0.884403648897455,-0.02979959589518886,0.015984737920263975,0.4654961418260855
-9827.040323972702,-2232.0,14144.0,-9408.0,7653.0,11631.0,-9528.0,-0.2773615088446701,-0.6216671778684528,-0.33454515902451687,0.6516748038291355
-9827.055930614471,5804.0,-6344.0,-21200.0,6640.0,9354.0,-2733.0,0.3564732334928859,-0.8603683543999753,-0.23117175127386103,0.28151864940564925
-9827.071497917175,-5152.0,2916.0,-19040.0,5429.0,8614.0,142.0,0.6982830788772113,-0.6773508787489357,0.13519842936141255,-0.18793060823084076
-9827.087117433548,-792.0,4324.0,-18588.0,6293.0,8903.0,4494.0,0.7239335836707541,-0.06622335779740943,0.58560765354159,-0.3586060644065696
-9827.102721214294,-2348.0,4144.0,-16168.0,7316.0,7828.0,1596.0,0.3022626326077149,0.5250427960531945,0.625407629337323,-0.49176484259081266
-9827.11832022667,-2052.0,6544.0,-13992.0,6362.0,9385.0,-4883.0,-0.4837236013261598,0.564157042498919,0.5603838294073765,-0.3656614180599967
-9827.13398694992,-188.0,4668.0,-14552.0,5393.0,9190.0,-9118.0,-0.9424736981213933,0.11639114611238269,0.2843383719476901,0.13171226098646957
-9827.14957857132,-1188.0,3652.0,-15360.0,5485.0,9211.0,-10130.0,-0.6811622432283588,-0.4245762013232285,-0.18836775389830065,0.5659245859311618
-9827.165163040161,-388.0,2056.0,-16748.0,6126.0,8991.0,-7335.0,0.03679717832291433,-0.7316706519723712,-0.45522014097248054,0.5060421405009585
-9827.180762529373,-1404.0,1796.0,-18108.0,3908.0,8393.0,-6058.0,0.6382241780060894,-0.6109254473751278,-0.46223654481098136,0.07600903235245915
-9827.196344852448,-968.0,1516.0,-16624.0,4491.0,7924.0,-5626.0,0.9020841931847484,-0.13634489051961013,-0.21279164892532967,-0.34981980130212226
-9827.211987733841,196.0,2560.0,-15680.0,4606.0,8083.0,-4073.0,0.7354170105500984,0.4105829284036692,0.17524401267218995,-0.5097774176241756
-9827.227554321289,616.0,2512.0,-16364.0,2958.0,7512.0,-5113.0,0.2203838833217912,0.6578567048332121,0.5444523801478884,-0.4714097003979599
-9827.243148326874,572.0,1504.0,-16672.0,2589.0,6692.0,-3203.0,-0.3117737433373969,0.6851944949145248,0.6189937541450868,-0.2239472469881876
-9827.258707284927,6572.0,5792.0,-15756.0,-1524.0,13561.0,-11552.0,-0.6360486075532564,0.19836536037398284,0.523718082586681,0.5308603607399917
-9827.27427816391,-1160.0,2432.0,-15492.0,-1571.0,11719.0,-8910.0,-0.4477909806396091,-0.40677026159384416,-0.02756494402852564,0.7957772086466143
-9827.28986120224,-1188.0,204.0,-17220.0,-47.0,7767.0,-7146.0,0.048198448706012406,-0.6820865416350333,-0.43247509666388,0.5877075378351562
-9827.305519342422,1316.0,2000.0,-17448.0,786.0,6713.0,-5029.0,0.48840359045111137,-0.6714371034808724,-0.5344249139075201,0.15819026613107084
-9827.321151256561,1676.0,3148.0,-16316.0,710.0,5619.0,-4640.0,0.7212480254482356,-0.4234089519982168,-0.4694936176644772,-0.28302276962660533
-9827.336751461029,1972.0,3180.0,-15672.0,959.0,4887.0,-3253.0,0.7778767597026087,-0.09692347642341075,-0.27162211141664194,-0.5583323517602542
-9827.35234618187,1924.0,2540.0,-16208.0,1144.0,4591.0,-3163.0,0.6647686160512657,0.2501956365564446,-0.03832202795412336,-0.7028628975375524
-9827.367968797684,2236.0,3264.0,-15824.0,953.0,5182.0,-4392.0,0.3362313421486419,0.5476425164952136,0.25702405821974195,-0.7217858353971539
-9827.383559465408,2264.0,2804.0,-16376.0,757.0,5050.0,-5061.0,-0.11186332739332576,0.6561598242985063,0.507750823527114,-0.546927766865593
-9827.399148225784,1868.0,1596.0,-17260.0,559.0,4236.0,-4463.0,-0.47928721328295304,0.5767340701522263,0.6120537475335228,-0.2511011541974243
-9827.41481757164,1876.0,3244.0,-16460.0,471.0,4093.0,-4522.0,-0.7238185475882668,0.35752678032990126,0.5807141621162055,0.10503510571146996
-9827.430417776108,2364.0,3552.0,-15616.0,111.0,3527.0,-5158.0,-0.7537442875723248,0.04992597725650561,0.4566364522740651,0.4699575472333931
-9827.44601559639,-356.0,2796.0,-14848.0,697.0,2591.0,-6527.0,-0.5042662358211771,-0.30849799406245554,0.2925119839949502,0.7516523733013287
-9827.461594343185,2736.0,2996.0,-15224.0,-1045.0,2863.0,-6937.0,-0.1254804450204378,-0.5234794416789842,-0.07383488264750881,0.8395072019711091
-9827.477173089981,3432.0,3040.0,-16432.0,-535.0,2876.0,-6538.0,0.294753920898685,-0.5820866036589636,-0.3758028471467376,0.65807866705435
-9827.492744922638,2452.0,2244.0,-16292.0,460.0,2101.0,-5749.0,0.6321239705791133,-0.4429866763162114,-0.5178839740098399,0.36875232865622387
-9827.508323192596,3648.0,3292.0,-16304.0,821.0,2780.0,-3387.0,0.8372367181245458,-0.311445758851568,-0.4373348505188279,0.10380002716322002
-9827.52395439148,2424.0,3160.0,-15596.0,1427.0,2025.0,-3577.0,0.9213952022412356,-0.0833038133614223,-0.3495967329395554,-0.14789685691138646
-9827.539548158646,3624.0,2448.0,-16292.0,1839.0,2025.0,-995.0,0.9533538054118056,0.11731479916180498,-0.2113506859856958,-0.18078895745545476
-9827.555133342743,2540.0,2928.0,-15512.0,2259.0,1276.0,-201.0,0.9268999094529449,0.3210715031593143,-0.13559145991821392,-0.13922860235019377
-9827.570714235306,3204.0,2080.0,-16632.0,2499.0,824.0,1698.0,0.8557272679548273,0.4951871674803041,-0.14184127632385946,0.049005758561813016
-9827.586309671402,2428.0,3296.0,-15124.0,3159.0,230.0,1498.0,0.6841827533937029,0.6806525709608698,-0.16828141297750146,0.20071722310072218
-9827.601910829544,3396.0,2536.0,-15888.0,2808.0,-34.0,1495.0,0.4725920241879086,0.7969601715830851,-0.20233620708706807,0.3171298202406294
-9827.617527484894,2956.0,3056.0,-16148.0,2728.0,-198.0,755.0,0.25069195619628143,0.8753082324276811,-0.1820491991184733,0.3712776999001321
-9827.633146762848,2040.0,2440.0,-15868.0,2308.0,-1947.0,-569.0,0.059667694627071034,0.9639441467448676,-0.10277773499199737,0.23809280829986115
-9827.648728132248,3776.0,1924.0,-16156.0,2473.0,-1256.0,-645.0,-0.14186969125385976,0.9789789909266735,-0.0035587577331197507,0.14649389499608362
-9827.664297580719,3188.0,2996.0,-15844.0,1820.0,-1779.0,-1571.0,-0.26852732093855913,0.9479966793848772,0.17029265627109563,0.01399231949824219
-9827.679860830307,5320.0,2656.0,-16164.0,371.0,1349.0,249.0,-0.31687555075889307,0.9342649410254928,0.11768637175552497,0.11352895315689786
-9827.695458650589,3428.0,3648.0,-16200.0,-565.0,3362.0,-2252.0,-0.2662943353683787,0.8416281341893623,0.191002746208698,0.4292637436732595
-9827.71108841896,4340.0,3936.0,-15980.0,-1815.0,5703.0,-1639.0,-0.14635542934988982,0.5654582991284397,0.09757832418646727,0.8058011360723824
-9827.726667881012,584.0,1476.0,-15980.0,-7.0,2428.0,-1984.0,-0.026160987068261508,0.36479337412725926,0.1582412495169114,0.9171701608206574
-9827.742248296738,3604.0,1228.0,-16224.0,387.0,2198.0,397.0,-0.09869508531551814,0.19008016134708627,0.16841938718773003,0.9621661615418294
-9827.757848501205,2316.0,1880.0,-16276.0,495.0,781.0,32.0,-0.12066913926265618,0.12055576610799218,0.20228047540691302,0.9643587897441895
-9827.773437976837,3312.0,1928.0,-15756.0,1426.0,668.0,1485.0,-0.26769076256490115,0.07441986725784042,0.2946579522784129,0.9143194355113752
-9827.78902888298,2720.0,1936.0,-16248.0,1355.0,-496.0,1036.0,-0.3422763242622314,0.10779815864733594,0.40308685021259233,0.8418714070613581
-9827.804611206055,2788.0,2444.0,-15808.0,1818.0,-1182.0,1021.0,-0.3844217794206096,0.17259071393029957,0.5506734283341758,0.7205491768774753
-9827.820256471634,3124.0,1864.0,-16380.0,1860.0,-1449.0,536.0,-0.3682956034594913,0.2222448642489506,0.6931006449086886,0.5784263693976396
-9827.835956335068,3536.0,3656.0,-15752.0,1495.0,-1105.0,-1274.0,-0.26101224041201426,0.15009871097943037,0.8133661350913057,0.4977735605715173
-9827.851579904556,4156.0,2396.0,-16328.0,688.0,-351.0,-1580.0,-0.17434776014020195,0.03715569626949853,0.8620053347930061,0.47451987899056536
-9827.867144584656,3800.0,1296.0,-16128.0,563.0,-212.0,-1041.0,-0.1164460638504221,-0.040668042920740846,0.8871987425501732,0.4445951143637681
-9827.882691144943,3452.0,1604.0,-16216.0,507.0,-314.0,-937.0,-0.0537299069180512,-0.1056537819709006,0.902643908040503,0.4137443059852191
-9827.898267269135,2876.0,1564.0,-16356.0,85.0,-815.0,-1481.0,0.06399380630764921,-0.1911930551700297,0.8864069096166952,0.4166926913119414
-9827.91389298439,2932.0,2264.0,-17444.0,34.0,-886.0,-1249.0,0.17682082706875404,-0.2531446311772561,0.8544125575261068,0.41788918670210895
-9827.929543495178,3180.0,1556.0,-16364.0,103.0,-918.0,-598.0,0.2679504553764921,-0.26147468398483736,0.8271528928759827,0.41910814225621146
-9827.94518327713,3816.0,2172.0,-15928.0,-427.0,-1278.0,-358.0,0.3606967277810673,-0.24873850316396584,0.7680086195433552,0.4671078975128664
-9827.960787534714,3356.0,1912.0,-15456.0,-394.0,-1312.0,-207.0,0.4450902898198499,-0.21995526538478827,0.7012659671131748,0.5116056669999003
-9827.976390123367,3652.0,1576.0,-16556.0,-580.0,-1336.0,491.0,0.4892456802459602,-0.15145861120853388,0.6275227378669243,0.5864419552789939
-9827.992062091827,3444.0,1292.0,-16148.0,-647.0,-1732.0,910.0,0.5204813093091888,-0.03997631161915229,0.5243474782569935,0.6727264103739742
-9828.007702350616,2628.0,1756.0,-16268.0,-1178.0,-2019.0,-4.0,0.5966089834893582,0.02440204297317228,0.3564297422741867,0.718623754088944
-9828.023289680481,2972.0,1672.0,-15808.0,-1255.0,-2694.0,-9.0,0.6616886167625793,0.12375740802164925,0.13336372653494444,0.7273695036577352
-9828.038877725601,3244.0,1676.0,-16352.0,-1531.0,-2191.0,137.0,0.6767680982591433,0.17169758123145706,-0.08927476247187971,0.710306200566741
-9828.05444431305,3316.0,1268.0,-16040.0,-1605.0,-3500.0,1532.0,0.544029482026163,0.26536882710305093,-0.3935746350759334,0.6918889469511289
-9828.070020198822,2584.0,1736.0,-15184.0,-1750.0,-4072.0,1219.0,0.3443242510788099,0.35865997798731425,-0.6690884376813818,0.5523807499091938
-9828.08558011055,3336.0,1528.0,-16628.0,-1882.0,-4406.0,2780.0,0.010694023880454047,0.31716659330237135,-0.8816737426862441,0.3492025220467959
-9828.101148843765,776.0,2100.0,-17412.0,-1566.0,-4662.0,2508.0,-0.343287642438659,0.23859346009555382,-0.9037879150307141,0.09161964850933169
-9828.116738796234,2360.0,2668.0,-17004.0,-2624.0,-4270.0,1816.0,-0.5800193941476603,0.18871839843580934,-0.7569078172581502,-0.2346346621407561
-9828.13231253624,1704.0,1556.0,-15960.0,-2282.0,-5712.0,2029.0,-0.7643955183243776,0.04637929001694825,-0.3958641121184228,-0.5067939006734621
-9828.14792728424,2692.0,3020.0,-16600.0,-2549.0,-5439.0,2838.0,-0.7063034286889345,-0.10576492944216097,0.05875917418789589,-0.6974930865400076
-9828.163498163223,1972.0,1872.0,-16504.0,-2727.0,-6834.0,3326.0,-0.4037561805903525,-0.27537396136759,0.5531577219062125,-0.6746604054865981
-9828.17909693718,1468.0,800.0,-17524.0,-3282.0,-6899.0,4388.0,0.08626686532722345,-0.2807884134362493,0.8680779071966558,-0.4001957544298078
-9828.194677352905,520.0,2432.0,-16500.0,-2945.0,-7942.0,3988.0,0.5846070012599911,-0.21547090493663887,0.7813032582971187,0.03704270208681642
-9828.210283279419,1592.0,1940.0,-16232.0,-3022.0,-7447.0,5355.0,0.7784686579373039,0.014927223615841175,0.3766127923017781,0.501922833988526
-9828.225872516632,1856.0,4936.0,-15664.0,-3770.0,-8188.0,3981.0,0.6657749137948412,0.1883789268456608,-0.26514614659213376,0.6715315815576298
-9828.24143075943,172.0,1636.0,-16792.0,-3239.0,-9032.0,4689.0,0.17202747543178254,0.3080964316501831,-0.7731624759892368,0.5269752576954484
-9828.2570104599,824.0,2856.0,-16720.0,-3643.0,-9413.0,5588.0,-0.4384022027912637,0.21797289970473016,-0.8683874938375656,0.07870504512794042
-9828.272598266602,668.0,4620.0,-15544.0,-4001.0,-9761.0,4448.0,-0.8010769880134886,0.07145113163360005,-0.4295443686425935,-0.4106848310212475
-9828.288162708282,728.0,3208.0,-16616.0,-4243.0,-9297.0,5209.0,-0.6618190526985576,-0.11338554649967535,0.24009612688581342,-0.701065695341446
-9828.303762674332,-404.0,3748.0,-16624.0,-5001.0,-11114.0,3297.0,-0.18592748888329175,-0.2927679020970816,0.8203503279586559,-0.45469029437338215
-9828.31935286522,72.0,3348.0,-16792.0,-4240.0,-10852.0,5334.0,0.46281890628092914,-0.18181626349718424,0.8671999302440302,0.02656665770464802
-9828.334915161133,60.0,6972.0,-15436.0,-6366.0,-11037.0,3382.0,0.7800748806081584,-0.10323829079379765,0.3020856350076932,0.5381164419344028
-9828.35048365593,-2212.0,2660.0,-16640.0,-4943.0,-11484.0,3519.0,0.5776192452492553,0.12721494161608,-0.44978959936574014,0.6692246875674156
-9828.36604976654,-1316.0,2152.0,-17624.0,-6402.0,-12583.0,4346.0,-0.06075821827129339,0.2260698270972738,-0.9232366124346884,0.30468841403773095
-9828.38160943985,-3232.0,4424.0,-16220.0,-6925.0,-11834.0,4479.0,-0.6199221396466743,0.1346981016292917,-0.7047105741568643,-0.3177042160010735
-9828.39721274376,-4620.0,2944.0,-17492.0,-7297.0,-12269.0,5958.0,-0.6687363805222354,-0.1054153380246058,0.05418569408288492,-0.7339912604601869
-9828.412876367569,-4972.0,4300.0,-16860.0,-8298.0,-12227.0,8281.0,-0.08788314642149918,-0.20473230112203694,0.7706192005953197,-0.5970823101768827
-9828.428498506546,-7460.0,7264.0,-18388.0,-9118.0,-13524.0,7469.0,0.5640998896449787,-0.18149244211644058,0.7982320222797644,0.10806223468118208
-9828.444109201431,-5352.0,6488.0,-19392.0,-9187.0,-14381.0,10652.0,0.6532193464337942,0.12072872065458866,0.08543138838278706,0.7425836918036259
-9828.459710359573,-4608.0,7960.0,-19696.0,-9659.0,-13271.0,15660.0,-0.07253658847328423,0.24665395085643876,-0.6590794258479837,0.7067634556790972
-9828.475300312042,-7112.0,8452.0,-17344.0,-9446.0,-12572.0,16929.0,-0.7270534459668201,0.048043447786717666,-0.6782277852672449,-0.09535295026387619
-9828.490865945816,-5420.0,4212.0,-15576.0,-6540.0,-15074.0,17100.0,-0.6306047526542229,-0.29349787985126663,0.11339206069217277,-0.7094637982481561
-9828.506445169449,4604.0,7740.0,-12344.0,-10436.0,-10285.0,7315.0,-0.19678584356207773,-0.16276399558852978,0.8673099573198759,-0.4272664876250108
-9828.522053956985,2168.0,-7304.0,-15992.0,-7898.0,-10716.0,937.0,0.3498898153093793,-0.23173187557828445,0.885407764016036,0.19982629057224255
-9828.537628412247,13808.0,-13412.0,-19672.0,-8267.0,-13005.0,-5916.0,0.7360517078001296,-0.40751219343961953,0.1279901057682176,0.525147815827109
-9828.553202867508,32767.0,-16632.0,-32420.0,2982.0,3481.0,1151.0,0.6938394903913996,-0.33542102798792367,0.48909726832408273,0.4084891157360838
-9828.568763971329,11464.0,7756.0,-19664.0,8201.0,15989.0,32767.0,-0.2687911835741825,0.29015102534306986,0.7940795948914257,0.46152061611831013
-9828.584343910217,-11104.0,-4188.0,-16688.0,5188.0,-674.0,-8741.0,-0.0008982380680822705,-0.3065526260471757,0.9268957802835609,0.21653843336572506
-9828.599958896637,19680.0,-4432.0,-24468.0,12288.0,13986.0,12032.0,-0.47341975512337026,0.184367996964562,0.6794862198169246,-0.5293209368928358
-9828.615574359894,-3788.0,1396.0,-20220.0,12778.0,13380.0,-5616.0,-0.8829863136939161,-0.029788443967468044,-0.19020050491302348,-0.42810230829330626
-9828.63116312027,3080.0,-724.0,-24056.0,15931.0,15266.0,-11461.0,-0.42532456487841264,-0.2079663655589042,-0.8336063357433434,0.28451622504835394
-9828.646787405014,3252.0,3028.0,-21928.0,17671.0,19479.0,-3623.0,0.5558140797024141,-0.42955248968123044,-0.46907434678729804,0.5352799497452566
-9828.662378311157,-3596.0,24.0,-22036.0,18176.0,17272.0,-4399.0,0.8823888441661095,-0.07179092473118978,0.43213446295043284,0.17174340379758157
-9828.678000211716,-2080.0,1332.0,-19744.0,16820.0,20439.0,-6267.0,0.12064946867879357,0.26424063167627815,0.8614335999797166,-0.41659662397195674
-9828.693596363068,-3560.0,3796.0,-17272.0,19143.0,15995.0,710.0,-0.6248721818010515,0.4593520866218214,0.13253828530690726,-0.6172228283653133
-9828.709182024002,-3108.0,3224.0,-17396.0,18009.0,15966.0,1197.0,-0.6299477834998143,0.1509177937114947,-0.7541874846448179,-0.10766079885477503
-9828.724803209305,-2976.0,5116.0,-16128.0,16348.0,15668.0,-193.0,0.0832347400938118,-0.26542811824651613,-0.7976770279428277,0.5350992909525543
-9828.740375518799,-2664.0,4880.0,-16480.0,14910.0,15421.0,-754.0,0.7240341808553468,-0.38849807393242786,-0.0032782847163280587,0.5699412288589409
-9828.755989789963,-3012.0,4948.0,-15172.0,12677.0,14575.0,-2957.0,0.660054616287762,-0.15772918291047486,0.7324584213098155,-0.05435135166619023
-9828.771575689316,-1372.0,3644.0,-14628.0,11887.0,14054.0,-2735.0,-0.04606334967949118,0.21959260096492633,0.7592876476723663,-0.6108514758187362
-9828.787154197693,-1888.0,3320.0,-15000.0,12587.0,13101.0,413.0,-0.604530416809245,0.47732483508025814,0.01486250467012694,-0.6375602582681698
-9828.802718162537,-2540.0,3848.0,-13996.0,11952.0,12184.0,1365.0,-0.5795839251766947,0.29294537653876157,-0.750756944642364,-0.1209524291306355
-9828.818305253983,-3252.0,3896.0,-13676.0,11365.0,10770.0,1597.0,-0.08676191213897855,-0.16056415307743377,-0.8572197798648771,0.4815244255039679
-9828.833934545517,-4772.0,5320.0,-13048.0,10972.0,9149.0,3500.0,0.3714045485031329,-0.5470356947717161,-0.2559523572279126,0.7051943000523224
-9828.849523305893,-6728.0,8124.0,-10912.0,9957.0,6995.0,3355.0,0.5352472005624959,-0.4906200271433289,0.4999658806077048,0.47205565507051467
-9828.865145206451,-8744.0,10152.0,-9920.0,7273.0,4138.0,2465.0,0.4489902537753237,-0.17012189089157018,0.874083607370429,0.07378442640926959
-9828.880736589432,-9356.0,11944.0,-9884.0,4245.0,979.0,2172.0,0.3895509307537079,0.14334794812488152,0.8946997977390128,-0.16496578446173568
-9828.896311759949,-9560.0,12048.0,-10756.0,1425.0,-1891.0,2699.0,0.5327252322793161,0.358269896814031,0.7406071245221829,-0.19836228229377723
-9828.911946773529,-9924.0,13072.0,-13328.0,-555.0,-5733.0,12334.0,0.7302691021477905,0.6636348959764669,0.06317104800826034,0.1493491947889298
-9828.927662849426,-6344.0,9016.0,-16944.0,-4954.0,-7145.0,2793.0,0.7977464698681762,0.35718199291803576,-0.4836062303241307,-0.046331498353143645
-9828.94328546524,-7876.0,11924.0,-16148.0,-7699.0,-8824.0,68.0,0.46539900857756267,-0.151840621658305,-0.7476166803044085,-0.44879559685903464
-9828.958882808685,-5900.0,8116.0,-19004.0,-10260.0,-9364.0,-3668.0,-0.26524999187475384,-0.4339190099130935,-0.48315096117688855,-0.7126863849971686
-9828.974472045898,-6576.0,12228.0,-25476.0,-17801.0,-11871.0,-1597.0,-0.7251540875032453,-0.3264715948235018,0.3948109427569714,-0.4601001702130598
-9828.990037441254,4372.0,212.0,-28744.0,-9564.0,-7317.0,-1402.0,-0.5506585313899837,-0.0436342220682653,0.8256917451426672,0.11447435728223274
-9829.005614757538,7396.0,6840.0,-23680.0,-8850.0,-4566.0,-2713.0,-0.1694219210406479,0.1721533117437543,0.7032880787665083,0.6686144839827117
-9829.02122759819,1348.0,11072.0,-18292.0,-7453.0,-4972.0,-1077.0,0.2440319029224689,0.39782772007042644,0.2815809396679669,0.8383875654584281
-9829.036865711212,2788.0,9120.0,-16320.0,-8525.0,-6069.0,3487.0,0.31269370264469715,0.5376285115796421,-0.42666750031147166,0.6566072464121673
-9829.05248451233,3128.0,3716.0,-18792.0,-7573.0,-6789.0,8482.0,-0.046349858677154326,0.26458911686467645,-0.9447187719667485,0.18801790268752958
-9829.06810927391,1040.0,60.0,-19908.0,-3216.0,-8370.0,15331.0,-0.49528103970684356,-0.4602625232082822,-0.7143692237215165,-0.18036550012785546
-9829.083707809448,-1916.0,-1044.0,-17704.0,-1871.0,-7688.0,10279.0,-0.5877429124459534,-0.7556621534249848,0.03977240793540726,-0.2862710853678426
-9829.099315404892,-4016.0,-396.0,-16572.0,-3390.0,-7241.0,6543.0,-0.46233885671022196,-0.5497340351128813,0.6887379610142733,-0.09836306864009302
-9829.114906549454,-4652.0,-52.0,-16488.0,-6537.0,-5453.0,190.0,-0.3582000037752232,-0.2580072330189047,0.7818196423985051,0.4403215549632247
-9829.130501508713,-5520.0,-3832.0,-18244.0,-2511.0,-5204.0,1247.0,-0.09542610103821877,0.09374119594704687,0.7787270975738029,0.6129360120986055
-9829.146146535873,-4340.0,5308.0,-14928.0,-1084.0,-3735.0,-4003.0,0.3429599613640997,0.027389353086606564,0.7055316316467661,0.6195590407576057
-9829.161742687225,-2724.0,5284.0,-15948.0,-9848.0,-3820.0,-14387.0,0.7453256853361456,-0.5114451494995019,0.050481403763195425,0.4246941366509952
-9829.177357912064,1904.0,2996.0,-16260.0,-7149.0,-1703.0,-10907.0,0.5503434304431399,-0.6316780900260301,-0.5334181467981123,-0.11649025631189448
-9829.192940235138,1392.0,4872.0,-16688.0,-8295.0,-1913.0,-13320.0,-0.07727101750363347,-0.25207872005889537,-0.7484594805063187,-0.6085178015371726
-9829.208521842957,2620.0,4056.0,-15936.0,-6887.0,-2635.0,-3981.0,-0.49422034806166587,-0.06914073564103845,-0.3655069839529128,-0.7857292478446165
-9829.224138975143,-352.0,4176.0,-15360.0,-5238.0,-2332.0,-5544.0,-0.8046627665308332,0.14250913911096347,0.04963124095192601,-0.5742348973637614
-9829.239728212357,1884.0,7692.0,-13740.0,-6488.0,-668.0,3049.0,-0.4812084972416167,0.48916084311025354,0.3249055869487642,-0.6508428468682821
-9829.255330324173,-3376.0,6488.0,-15056.0,-6619.0,-1865.0,-3132.0,-0.27003667356206873,0.4780078142876407,0.7621055964697907,-0.3431964222437488
-9829.270926237106,-1804.0,3128.0,-16828.0,-5707.0,-38.0,-2784.0,-0.09848988301260005,0.3728148830107419,0.9184583399669077,0.08799479356804876
-9829.286534547806,-2844.0,3832.0,-16172.0,-5101.0,-160.0,-2756.0,0.09081123719394184,0.17572443083487285,0.8657283664297101,0.4597702025642932
-9829.302166223526,-1356.0,5260.0,-16312.0,-4924.0,309.0,-2017.0,0.2030133448255953,-0.025435510865168275,0.6363262388621989,0.7437926689241027
-9829.317805051804,-1744.0,4896.0,-16128.0,-3406.0,-280.0,-308.0,0.22125432732594016,-0.08116081746871219,0.3926803250575953,0.8889665947942124
-9829.333379507065,-1192.0,5472.0,-15772.0,-3714.0,-706.0,84.0,0.20189783149050713,-0.09046816894924173,0.08722091812234767,0.9713111177621191
-9829.348976135254,-1392.0,5492.0,-15604.0,-2731.0,-1086.0,924.0,0.10648711859712583,-0.03825573418707374,-0.15045944800155517,0.9821196194363275
-9829.364581108093,-1924.0,5056.0,-15940.0,-2175.0,-976.0,470.0,0.045073183017548805,0.018330276374885532,-0.33688652594977114,0.9402871251772944
-9829.380165338516,-2136.0,4380.0,-15992.0,-2037.0,-1049.0,-551.0,0.06138961652657271,0.11023851344090631,-0.49714966059627325,0.8584410289041814
-9829.39579129219,-1776.0,3872.0,-15504.0,-2080.0,-571.0,-187.0,0.069385393962198,0.14741545475938045,-0.6430937571459666,0.748254482327156
-9829.41136598587,-1908.0,5220.0,-15072.0,-1901.0,-528.0,567.0,0.026731741602728575,0.13642876887790634,-0.7657226899469592,0.6279660557018484
-9829.42698264122,-2028.0,5036.0,-15592.0,-1928.0,-421.0,437.0,-0.0023835790105036863,0.12390358700212055,-0.8643759743192853,0.4873360182653186
-9829.442637443542,-1700.0,5920.0,-15384.0,-2217.0,-59.0,-757.0,0.048322149645319036,0.18025444563549875,-0.931290261392644,0.3128446159317994
-9829.458216667175,-1504.0,5940.0,-15312.0,-2323.0,-258.0,-2200.0,0.11933330260082631,0.3431113075553064,-0.9255988868899021,0.10630566356616017
-9829.473802566528,-1400.0,5492.0,-15664.0,-2589.0,-1280.0,-1666.0,0.10447645463860836,0.4441845769569843,-0.8766615844515873,-0.15247687813738878
-9829.489395618439,-552.0,4960.0,-15784.0,-2381.0,-1217.0,-40.0,0.1001302106249594,0.39869568738210975,-0.8321985503122145,-0.3721038331452079
-9829.504997491837,-800.0,5240.0,-16048.0,-2023.0,-1959.0,2470.0,0.10302614773498116,0.1312754167528889,-0.8266829973714838,-0.5373523980556377
-9829.520622253418,-1772.0,5620.0,-15636.0,-1604.0,-1817.0,1591.0,0.06286168938791849,-0.08052030362263816,-0.7622183532328591,-0.6392089413539233
-9829.536267518997,-1824.0,5340.0,-15492.0,-1429.0,-1639.0,1625.0,0.03345205779358627,-0.2800979235200671,-0.661995412916649,-0.6943977148194228
-9829.551948308945,-2268.0,6684.0,-14896.0,-1030.0,-1334.0,867.0,-0.016113527578244115,-0.4084940404675269,-0.5747136247235703,-0.7089268105302512
-9829.56752872467,-1884.0,5804.0,-15216.0,-636.0,-728.0,340.0,-0.05410944660238503,-0.4678935353191742,-0.520372678967921,-0.7122921327507817
-9829.583120822906,-2160.0,5980.0,-14984.0,-720.0,-483.0,-702.0,-0.1484319100145009,-0.4605504473898753,-0.4998554011473188,-0.7183354588507278
-9829.598694086075,-1580.0,4996.0,-15744.0,354.0,-396.0,920.0,-0.0934164658050484,-0.5279346685912631,-0.47809846178289966,-0.6956868623574494
-9829.614268779755,-2252.0,6468.0,-15208.0,372.0,-430.0,635.0,-0.05556998389404959,-0.5820539957948839,-0.46683467140113,-0.6634685466900623
-9829.629868507385,-1640.0,4708.0,-15444.0,916.0,-93.0,379.0,0.009025413298626375,-0.6051549892910085,-0.498461906848178,-0.6206784258150648
-9829.645443201065,-2224.0,7432.0,-14740.0,898.0,164.0,-691.0,0.025901539622808303,-0.5627749373241567,-0.5807503220029723,-0.5876585264066229
-9829.66101694107,-1684.0,6572.0,-14076.0,1022.0,861.0,-1212.0,0.05674817656585391,-0.44941011678941956,-0.6825051039272642,-0.573582578620555
-9829.676588535309,-1760.0,7068.0,-14460.0,1330.0,547.0,-391.0,0.12075624440169862,-0.388902582773495,-0.7555116672941259,-0.5132005759277284
-9829.69215631485,-2020.0,5852.0,-14908.0,1136.0,706.0,-683.0,0.17361165264085768,-0.2977449854410608,-0.8153181828788403,-0.4652560352957913
-9829.707796096802,-1776.0,5644.0,-15444.0,1284.0,373.0,161.0,0.23820890555334664,-0.27271450075078174,-0.8519051787729818,-0.37833964208777093
-9829.723444461823,-1200.0,5728.0,-15388.0,1290.0,300.0,1322.0,0.3302362301913537,-0.3298856078841135,-0.8457467542383186,-0.25851875304372335
-9829.739041805267,-2032.0,6196.0,-15004.0,1264.0,-184.0,806.0,0.3677591419196677,-0.3540191101970818,-0.849157417397276,-0.13548196791073125
-9829.754661083221,-1060.0,6092.0,-15100.0,1278.0,-96.0,34.0,0.397760348474059,-0.3146857887902305,-0.8610607931194897,-0.036522185965535164
-9829.770244121552,-1056.0,4136.0,-15796.0,1128.0,-26.0,233.0,0.4250979607684354,-0.2916639646008158,-0.8549903432903867,0.056704218397211355
-9829.785818338394,-2032.0,4132.0,-15972.0,834.0,-316.0,63.0,0.42088514170232116,-0.2630807638912683,-0.8585137035137603,0.1288348945111176
-9829.801399230957,-2300.0,2364.0,-16672.0,1314.0,-432.0,1453.0,0.39605696869587176,-0.31408569133459674,-0.8140141343634555,0.286129420197959
-9829.816956043243,-2416.0,4652.0,-16072.0,1072.0,-562.0,2361.0,0.3179345658693991,-0.41968394623294186,-0.7229770214200022,0.4473111038175151
-9829.832587003708,-2120.0,5128.0,-15236.0,827.0,-405.0,1707.0,0.2522757103271511,-0.4818867159345504,-0.6305801211703217,0.5536342382562406
-9829.848170757294,-1824.0,5920.0,-15012.0,691.0,-373.0,884.0,0.21680604608835705,-0.49481864780737994,-0.5653538050983616,0.6233175107619014
-9829.86378955841,-1472.0,5392.0,-15632.0,463.0,-326.0,48.0,0.2177185435670429,-0.47028545770546204,-0.5437255031285038,0.6601460454365118
-9829.87938117981,-1288.0,5636.0,-15428.0,544.0,-351.0,715.0,0.18144326671372718,-0.4721636438158824,-0.48811486683122374,0.7112550254311716
-9829.894949674606,-1480.0,5452.0,-15464.0,778.0,-507.0,1487.0,0.09835234019243135,-0.48626393984869754,-0.38224921006724777,0.7795894684925262
-9829.910579442978,-1640.0,5392.0,-15376.0,910.0,-560.0,2034.0,-0.019792502830831747,-0.49852672024535344,-0.23424640098662744,0.8343907895332466
-9829.926295518875,-1700.0,5284.0,-15452.0,1399.0,-428.0,2382.0,-0.13716505132655124,-0.5039652537672368,-0.02722560302139753,0.8523283042525518
-9829.94188117981,-2208.0,4924.0,-15364.0,2027.0,-462.0,3186.0,-0.27153055128334613,-0.47614471841676353,0.2555298059187191,0.7964056034023899
-9829.957508563995,-2088.0,5952.0,-15080.0,1992.0,-204.0,3179.0,-0.38493167568417264,-0.41665606349238943,0.5045872478109596,0.6508586936936173
-9829.973098278046,-2304.0,5172.0,-15668.0,2573.0,-102.0,2712.0,-0.4190243915610113,-0.35937530870419904,0.7157254822170129,0.4277908143893578
-9829.988725423813,-1444.0,5620.0,-15436.0,2518.0,-98.0,2762.0,-0.4152679686041648,-0.2618164586862108,0.8556403504985107,0.1639641631917404
-9830.004313707352,-764.0,4608.0,-15756.0,2745.0,-256.0,3741.0,-0.3583235345473448,-0.07263959209278668,0.9172229458768589,-0.15820809652817452
-9830.019957780838,-1952.0,4700.0,-16088.0,3070.0,-756.0,4465.0,-0.19534767974384565,0.16090098998553495,0.8364739873985637,-0.48606730382316216
-9830.035556793213,-1980.0,5180.0,-15576.0,3503.0,57.0,4435.0,-0.05421341682810025,0.38333996829919487,0.5603515226152946,-0.7322004815915623
-9830.051134586334,-2372.0,5740.0,-15460.0,3756.0,462.0,2996.0,-0.010076936962619121,0.4993229625834295,0.20096111935308839,-0.8427275140202272
-9830.066701412201,-2092.0,5512.0,-15316.0,4632.0,1202.0,2504.0,-0.044116495942090155,0.5679048210645152,-0.22601232561714246,-0.7902254600217606
-9830.082298517227,-2008.0,3984.0,-15692.0,4809.0,1393.0,2115.0,-0.09853853998833112,0.545646622099629,-0.6034559090031655,-0.573062724156262
-9830.097878456116,-1260.0,4036.0,-16468.0,5116.0,2270.0,3542.0,-0.039291579924244216,0.37116998748608304,-0.9069092706754452,-0.1954599368146056
-9830.11349439621,-2144.0,5040.0,-15988.0,5281.0,2126.0,2909.0,0.00678152439012579,0.13892615712152565,-0.9592743282875432,0.24585828617899838
-9830.129113435745,-1144.0,4392.0,-16608.0,4623.0,2599.0,2653.0,0.09892247660169495,-0.12097797318876227,-0.7912010810985529,0.591252503499653
-9830.144728899002,-2196.0,3808.0,-16920.0,4508.0,2078.0,29.0,0.2646961587811593,-0.17559078800897746,-0.4960337287914242,0.8081177875744114
-9830.16030216217,548.0,5684.0,-16832.0,2020.0,4002.0,-3566.0,0.6443665696322223,-0.22977810912120844,-0.28265549246013827,0.6723835342207611
-9830.175868034363,-2808.0,4088.0,-16520.0,2134.0,2606.0,-7447.0,0.9675020607477071,-0.0644988424834525,-0.13056727812726898,0.2067168296236938
-9830.191445589066,-440.0,3128.0,-16540.0,1149.0,3099.0,-5109.0,0.9728128299121525,0.03082814129256132,0.10842492781842454,-0.2023088201001742
-9830.207040786743,-3320.0,-2052.0,-16520.0,3255.0,2686.0,-6023.0,0.7004070287240899,0.25041869093620883,0.24868635733230612,-0.6203834048558007
-9830.222674131393,1664.0,3300.0,-15720.0,1234.0,4001.0,-7100.0,0.16409901851730188,0.3154898842285742,0.47221874230259275,-0.8065650032633801
-9830.238248348236,1424.0,648.0,-16072.0,1828.0,4040.0,-8004.0,-0.4814621826117181,0.23155477515555792,0.48603644973551335,-0.6916249867854093
-9830.25383901596,2160.0,-664.0,-16492.0,2508.0,4482.0,-7003.0,-0.912449813024953,0.07950472466584976,0.2296447927872731,-0.3292075433707833
-9830.269429445267,840.0,472.0,-15600.0,1942.0,4243.0,-7540.0,-0.9708691554110308,-0.08246827906897322,-0.08808846924371704,0.20700842399567282
-9830.285014867783,324.0,304.0,-14872.0,2085.0,4013.0,-7264.0,-0.635954839958568,-0.22115132326121179,-0.35485866457927645,0.6486361552720444
-9830.300589084625,-1448.0,2036.0,-13968.0,1866.0,3185.0,-6349.0,-0.11943734960974811,-0.25980007148394546,-0.46198252564624603,0.8395300997419041
-9830.316179037094,-5196.0,5200.0,-11768.0,709.0,1174.0,-5598.0,0.31629964584900394,-0.11413882716279801,-0.4907599462115135,0.8037919739361472
-9830.33180975914,-7456.0,8156.0,-9832.0,-2689.0,-2647.0,-4209.0,0.4226961191578574,0.15917560120311705,-0.7125112401690665,0.5369533047325918
-9830.347441673279,2056.0,-240.0,-14544.0,-5405.0,-4351.0,-2567.0,0.2918124621341845,0.2716182611961588,-0.9162989081641166,0.03827947263492884
-9830.363046646118,4784.0,-1124.0,-18316.0,-3963.0,-3524.0,-1346.0,0.09760636692840269,0.2617837476816816,-0.8910799441634426,-0.35765737751994925
-9830.378651857376,7900.0,2184.0,-18592.0,-2187.0,-2061.0,2595.0,0.06463059932398103,-0.02174443511678236,-0.8502173451199486,-0.5219966774124728
-9830.394224643707,1312.0,8192.0,-16128.0,-2476.0,-3500.0,5281.0,0.03507459159351313,-0.504720171921326,-0.6426748220347412,-0.5753228608380418
-9830.409800291061,-124.0,7868.0,-15912.0,-3165.0,-4545.0,6863.0,-0.011708853251110238,-0.8935696415309645,-0.15502500537483146,-0.42114539793081085
-9830.425389289856,-1736.0,5604.0,-16888.0,-2436.0,-4186.0,5708.0,-0.04070911641529196,-0.9394982173813116,0.32132079533559615,-0.1115294304787938
-9830.440951108932,-4432.0,3776.0,-17396.0,-2505.0,-3329.0,1613.0,-0.1276995501724211,-0.8550256477509237,0.4562829707492884,0.21078381621481
-9830.456533432007,-4996.0,2392.0,-16748.0,-2074.0,-1965.0,-976.0,-0.17982782783040924,-0.8072016246587437,0.3550941169124673,0.43588491327440615
-9830.472092628479,-3184.0,3948.0,-16012.0,-3712.0,-1165.0,-9838.0,-0.022709460222962666,-0.7418835646820714,-0.33852283746065803,0.5783557256469319
-9830.487728834152,-5736.0,-1904.0,-17532.0,-2071.0,-1142.0,-3345.0,-0.02043146741936012,-0.5475795359330725,-0.6190310510708728,0.5626186672840701
-9830.50330877304,300.0,3072.0,-17180.0,-4486.0,1130.0,-2058.0,-0.06652144510763668,-0.4426835184102424,-0.8595201978841928,0.24663987775264207
-9830.518886327744,-1044.0,5100.0,-15636.0,-3371.0,122.0,-2386.0,-0.12819666152421935,-0.23216808913762538,-0.9641875367693419,0.0024471000996035656
-9830.534487485886,-944.0,6020.0,-15600.0,-2731.0,-241.0,-1588.0,-0.19601834772998525,-0.0655122135935772,-0.9582499056182945,-0.1975906769202578
-9830.550081014633,168.0,4280.0,-16036.0,-2162.0,-983.0,75.0,-0.2829801794406601,-0.050721060516969625,-0.8850257078711485,-0.36616811503862284
-9830.565680265427,-1668.0,4724.0,-15744.0,-2223.0,-884.0,-435.0,-0.36664746959510275,0.009285811207432583,-0.7769919163103828,-0.5116316729230583
-9830.581281661987,-1296.0,5280.0,-15568.0,-1972.0,-376.0,-271.0,-0.39634407391301435,0.07281204586711747,-0.6666017569448816,-0.627097981729073
-9830.596896648407,-2528.0,4612.0,-15316.0,-2071.0,-501.0,-947.0,-0.45473109043130633,0.16867150844699363,-0.5195522810700324,-0.7034450830507645
-9830.612498044968,-1648.0,3484.0,-16072.0,-1582.0,-300.0,-823.0,-0.4894176805469471,0.24734888512305908,-0.3938337229787465,-0.7376881872723231
-9830.628093719482,-2304.0,3376.0,-16124.0,-1496.0,-417.0,-71.0,-0.47162327019839456,0.2843579724676975,-0.27593547278677577,-0.7877637014735897
-9830.643681287766,-1296.0,3112.0,-16432.0,-521.0,-697.0,1820.0,-0.3449785963671425,0.21099073481641245,-0.2529600558373944,-0.8789106257299025
-9830.659286022186,-1720.0,5460.0,-15816.0,-175.0,-813.0,2745.0,-0.14464717608658725,0.0906380305049399,-0.25793178466081923,-0.9509643191718847
-9830.674861907959,-1080.0,5552.0,-15532.0,317.0,-1028.0,1918.0,-0.01090953971055739,-0.04102421682423548,-0.2815970297407015,-0.9585932966688618
-9830.69044804573,-404.0,4752.0,-15540.0,-464.0,-167.0,906.0,0.058866919081252654,-0.07652505855636078,-0.2387302320621614,-0.9662745352902421
-9830.70603466034,-992.0,5636.0,-15344.0,-1273.0,971.0,-1787.0,-0.07840993445478801,0.03525267972629658,-0.13571354744836506,-0.9870111264772506
-9830.721629619598,-2724.0,3696.0,-15212.0,-667.0,1109.0,-975.0,-0.145754431996731,0.14556280554476225,-0.08233154491166991,-0.9750839101880956
-9830.737221717834,-1612.0,4064.0,-15980.0,-239.0,1464.0,-113.0,-0.1406043438442952,0.2718987465011694,-0.07876970574765972,-0.948734327195783
-9830.752806663513,-2756.0,5220.0,-15420.0,533.0,1089.0,-373.0,-0.17551952119442663,0.3561364576184398,-0.12682745813759214,-0.9089964340397743
-9830.768390655518,-1092.0,4464.0,-15636.0,520.0,978.0,222.0,-0.16239157733014317,0.42147331217638934,-0.189221760369894,-0.8718855132056101
-9830.784008264542,-1052.0,4988.0,-15772.0,1273.0,708.0,285.0,-0.174302728504639,0.4490449396563561,-0.3042354309843921,-0.8218381857388952
-9830.79958319664,-2356.0,9404.0,-14316.0,488.0,603.0,-2396.0,-0.3409988087428897,0.5358243271087761,-0.24882076119590704,-0.7312320641986694
-9830.815150022507,1528.0,3896.0,-16324.0,1279.0,257.0,-406.0,-0.41804732571084674,0.5195000486285337,-0.3170223489465817,-0.6744278784342712
-9830.830798625946,-2780.0,2828.0,-16912.0,66.0,-1350.0,-2235.0,-0.5750687197265779,0.4871958894328723,-0.16625357797526916,-0.6358426540600812
-9830.846369743347,-944.0,2656.0,-17040.0,-230.0,-1478.0,188.0,-0.5712648624452041,0.4107214511932634,-0.086706921781464,-0.7052986999706894
-9830.861994028091,-1360.0,3056.0,-16116.0,-572.0,-2101.0,1144.0,-0.4851071919190681,0.2948292889790287,0.011829685359460941,-0.8231687319455308
-9830.877565145493,-1904.0,4216.0,-15756.0,-973.0,-2263.0,156.0,-0.43646029353699295,0.17000815721506746,0.16949661036723088,-0.8671046867131775
-9830.893174171448,-984.0,4648.0,-15480.0,-1176.0,-2365.0,304.0,-0.3516206503206198,0.03955638318704193,0.3352332898354641,-0.8731648482407868
-9830.908760786057,-1336.0,4544.0,-15436.0,-1304.0,-2230.0,417.0,-0.24376540503384525,-0.07616951989801933,0.48926163805119127,-0.8339062783542619
-9830.924504518509,-1292.0,4296.0,-15588.0,-1418.0,-2001.0,742.0,-0.1109629609917813,-0.15614247892022845,0.6247645406627986,-0.7569517925832427
-9830.94011926651,-1656.0,4152.0,-15672.0,-1162.0,-2110.0,1554.0,0.08822105878376796,-0.19362999388891006,0.7211123832386145,-0.6593340587240866
-9830.955754756927,-1960.0,4304.0,-15648.0,-1322.0,-1923.0,2267.0,0.3052639775105398,-0.1652856335304541,0.7896424273293423,-0.5059243029785242
-9830.97132730484,-2264.0,4776.0,-15348.0,-1106.0,-1735.0,1801.0,0.4749713696665005,-0.14321191161561417,0.7960451582333531,-0.3467054260056596
-9830.986936092377,-2024.0,5080.0,-15260.0,-903.0,-1424.0,1510.0,0.5966173920839312,-0.11654703051429241,0.7685435899719545,-0.1995124744327775
-9831.002540111542,-2276.0,5228.0,-15056.0,-738.0,-1053.0,1004.0,0.670263757409951,-0.10486609233108303,0.7296255976692972,-0.08600049655451963
-9831.018171787262,-2188.0,5084.0,-15304.0,-760.0,-819.0,626.0,0.7154895837044511,-0.11484851998026754,0.6890872864445963,0.0065715088979749784
-9831.033802509308,-2012.0,5044.0,-15588.0,-345.0,-611.0,955.0,0.7440435224554328,-0.07815699141120436,0.6570441917233708,0.09264799786419144
-9831.049374580383,-2232.0,4620.0,-16092.0,-131.0,-685.0,1300.0,0.7653905330862025,-0.0064951084093491564,0.6155446682118416,0.18772295241856607
-9831.064949512482,-1948.0,4672.0,-15712.0,-253.0,-725.0,2101.0,0.7553212069998456,0.09952038253876054,0.5539669253278505,0.33571746061002383
-9831.080521583557,-1968.0,4620.0,-15568.0,88.0,-803.0,2288.0,0.7104255342148021,0.23434156678241047,0.473506600614465,0.46494202820148633
-9831.096094369888,-1724.0,5304.0,-15688.0,-169.0,231.0,2181.0,0.6046656619103818,0.29928077265255865,0.4287771028580614,0.6008000103958179
-9831.111712932587,-2212.0,3784.0,-15588.0,457.0,498.0,3955.0,0.3460460619968286,0.42037509584205407,0.35484281097941306,0.760015448045959
-9831.127323389053,-1164.0,5332.0,-15368.0,-123.0,-99.0,1896.0,0.2247693984891072,0.4755957554091594,0.27065810467193424,0.806245362972732
-9831.142921686172,688.0,6924.0,-15100.0,-2027.0,3325.0,2133.0,0.07488330958760976,0.2354537664516734,0.09785929199254649,0.9640423086045782
-9831.158493041992,-3724.0,8064.0,-14708.0,-2330.0,436.0,-3946.0,0.41856552738084807,0.13914221682457242,-0.012924868845602023,0.8973713225587612
-9831.174090862274,-5060.0,2796.0,-15280.0,86.0,-825.0,-75.0,0.4213911933303041,0.206504459715847,-0.0350142550067157,0.8823601148326305
-9831.18967294693,436.0,5704.0,-16544.0,-795.0,889.0,79.0,0.4300403323959173,0.10829098942990663,-0.06449083524534752,0.8939682915464385
-9831.205298662186,-2380.0,5868.0,-15008.0,91.0,285.0,-246.0,0.44975229831527846,0.0910139901397539,-0.04409803456050098,0.8874089739837356
-9831.220884561539,-2004.0,3972.0,-15556.0,1750.0,59.0,1785.0,0.29100856190213126,0.14506620645329163,0.07796751535166023,0.9424387933413995
-9831.236519575119,-1768.0,6952.0,-14916.0,535.0,464.0,1938.0,0.11978845458119664,0.13169920692907588,0.10777501106989722,0.9781056139457458
-9831.25208902359,-2676.0,3780.0,-15752.0,1514.0,-1008.0,3051.0,-0.14185869139719773,0.25056881760359506,0.18311568866276556,0.9399787358687279
-9831.267696857452,-1676.0,3680.0,-15776.0,1987.0,-747.0,4775.0,-0.514063881227661,0.33091953269347285,0.22856373621787118,0.7576207543258131
-9831.283295631409,-2180.0,5620.0,-15392.0,1568.0,-695.0,4626.0,-0.7818477914100228,0.3664142684990593,0.21133366033549866,0.45803132962360665
-9831.298862695694,-2268.0,5472.0,-15476.0,977.0,-136.0,2225.0,-0.8797893080957687,0.3388375519789794,0.18461829527344353,0.277625596405642
-9831.314426898956,-2656.0,6044.0,-15208.0,417.0,259.0,-1232.0,-0.8605922229858497,0.2789885956349986,0.2100600120805534,0.3707036290173088
-9831.330024957657,-1664.0,6328.0,-15116.0,-143.0,810.0,-3046.0,-0.7455474811567153,0.20030428450671467,0.21117262963027875,0.5995358766947674
-9831.345624446869,-2816.0,3912.0,-15664.0,423.0,682.0,-2981.0,-0.5884519578689781,0.07939157247368474,0.2330278906210308,0.7701423723526938
-9831.361210346222,-2044.0,3892.0,-15636.0,931.0,902.0,-1298.0,-0.5193135685826255,-0.05479143706592812,0.2553303131584898,0.8137061798294373
-9831.376790523529,-2056.0,4340.0,-15520.0,841.0,959.0,-1267.0,-0.4412209576469931,-0.1870910303949311,0.2625845147340402,0.8374785880849264
-9831.392370700836,-2448.0,4528.0,-15444.0,1010.0,957.0,-1258.0,-0.34999587065431914,-0.32066954345803306,0.27555651547372534,0.8359082133842928
-9831.407986164093,-1816.0,4128.0,-15964.0,468.0,1098.0,-1739.0,-0.23249480816839313,-0.4495248594852485,0.22392643425950712,0.8329048666680563
-9831.423563480377,-2080.0,3592.0,-15944.0,263.0,764.0,-1579.0,-0.12087296152275898,-0.5351006168078009,0.16379507327324846,0.8198952561370507
-9831.439231157303,-1116.0,3836.0,-16180.0,102.0,-48.0,-550.0,-0.0759896484732002,-0.540197169522342,0.14586817019484777,0.8253090744012068
-9831.45481300354,-1136.0,3960.0,-16284.0,246.0,-523.0,268.0,-0.07693971053537946,-0.5002255774604095,0.17953310153944244,0.843577215226182
-9831.47040271759,-1100.0,4208.0,-15712.0,-247.0,-1031.0,1032.0,-0.14634771707177407,-0.4034003059647366,0.21171516289496045,0.8780815615054204
-9831.486014842987,-1612.0,4372.0,-15628.0,-441.0,-1675.0,933.0,-0.19950453825597986,-0.2487892388492766,0.22899126321104213,0.9197091144601522
-9831.501597881317,-1696.0,4532.0,-15720.0,-532.0,-1723.0,973.0,-0.2507318234302907,-0.08073397071625972,0.23393834495363236,0.9358891117285546
-9831.517173528671,-1912.0,4728.0,-15816.0,-493.0,-1604.0,674.0,-0.27310095108913607,0.07375315304941431,0.23094769665488563,0.9309347476269655
-9831.532784223557,-1944.0,4956.0,-15504.0,-512.0,-1356.0,118.0,-0.2500092211179929,0.19687795175491302,0.21946830736682385,0.9222625025069089
-9831.548367261887,-2004.0,5188.0,-15124.0,-437.0,-1050.0,-30.0,-0.21883148442623923,0.2889861307075607,0.2070106518998685,0.9087058862373858
-9831.564019680023,-2216.0,4728.0,-15572.0,-126.0,-786.0,-19.0,-0.19938781688186097,0.3526648535584971,0.21226759640589413,0.8892774972187892
-9831.579624891281,-1960.0,4732.0,-15472.0,-214.0,-422.0,39.0,-0.18776757845085082,0.3896950138179041,0.20187514218810315,0.8787078921090331
-9831.59527683258,-1232.0,6320.0,-15284.0,-1257.0,1342.0,-10269.0,0.45761993574351384,0.09364721235743233,0.32014671640268727,0.8242088776544216
-9831.610851049423,-544.0,576.0,-15704.0,-2053.0,5807.0,2318.0,0.1260813201461306,-0.29585709757540857,0.3345091489663322,0.8858192297428884
-9831.626442670822,-1468.0,6400.0,-15764.0,-2615.0,2225.0,-4386.0,0.2991412332573693,-0.5619289995312613,0.0394679320793995,0.7701899794131521
-9831.64205288887,-4640.0,4384.0,-15068.0,337.0,577.0,-1019.0,0.3798995847832219,-0.5923257905027945,0.0271694364502485,0.7099917500293584
-9831.65763092041,-540.0,4668.0,-15896.0,280.0,1226.0,332.0,0.3683811912192003,-0.6542466750021156,0.10175804685914182,0.6526115890052915
-9831.673204421997,-2580.0,4836.0,-15164.0,837.0,123.0,445.0,0.3882193402248044,-0.6284268516941001,0.1782862291355102,0.6500611174696572
-9831.688781261444,-1708.0,4364.0,-15700.0,1183.0,507.0,1379.0,0.36194270973324316,-0.5879427410580444,0.3338333553222243,0.6417757388546376
-9831.704355716705,-2052.0,4536.0,-15792.0,1242.0,-234.0,1624.0,0.33599647049618825,-0.480776009492285,0.47194130813586155,0.6582037695013528
-9831.71994805336,-1992.0,4368.0,-15864.0,1351.0,-303.0,1733.0,0.29990623178195236,-0.3460949437761273,0.6023719581872438,0.6537756236053884
-9831.735533952713,-1908.0,4480.0,-15680.0,1208.0,-506.0,1460.0,0.27555886379066075,-0.20595724476675809,0.6922784641001675,0.634349630769656
-9831.75111079216,-1808.0,4404.0,-15764.0,1206.0,-760.0,1798.0,0.23876372233257592,-0.025807444233124116,0.7582298045867781,0.6061463718907695
-9831.766697645187,-1784.0,4472.0,-15828.0,1104.0,-903.0,1926.0,0.19481611817836983,0.16872567939564886,0.7853503554504376,0.562852684460383
-9831.782279014587,-1736.0,4488.0,-15620.0,951.0,-989.0,2029.0,0.14558401288148592,0.3643007783316732,0.7681973447713673,0.5059279371476548
-9831.79786491394,-1300.0,4436.0,-15648.0,786.0,-737.0,1722.0,0.09250388785568156,0.5142740491949872,0.7276015340644778,0.44447861667710614
-9831.81344294548,-1716.0,4512.0,-15648.0,601.0,-620.0,1306.0,0.05377266775926661,0.6203668130822666,0.6811027886545958,0.3851655601363352
-9831.82901263237,-1568.0,4512.0,-15688.0,414.0,-391.0,815.0,0.0271807276058955,0.6813689959367414,0.6467471971849079,0.34163659399490104
-9831.844584465027,-1996.0,5060.0,-15592.0,328.0,-181.0,508.0,0.0028803679911385736,0.7151587119706613,0.6250498855430173,0.3128136198367352
-9831.86014842987,-1496.0,3892.0,-15896.0,41.0,-341.0,223.0,0.01295711521900052,0.7362071656451487,0.6118653967061374,0.2888803536614754
-9831.875984668732,-2100.0,4080.0,-15768.0,-188.0,-485.0,91.0,0.048730839696238905,0.7523074407750482,0.6001768752553498,0.2672948525986262
-9831.891577720642,-1592.0,4124.0,-15780.0,-193.0,-437.0,899.0,0.06318295083091147,0.8056218855669443,0.5327804130882169,0.25124952467499156
-9831.90715265274,-1976.0,4264.0,-15804.0,-339.0,-460.0,719.0,0.09245245179408307,0.8445890715362683,0.4708295078497492,0.23757402832955063
-9831.922798156738,-2240.0,4472.0,-15852.0,-262.0,-344.0,20.0,0.1254794912639946,0.8498509660496683,0.46089296904768223,0.22267892549360566
-9831.938484430313,-2248.0,4440.0,-15552.0,-618.0,-189.0,-11.0,0.1788921707829993,0.8450061565864857,0.4469975125175025,0.23271315039474497
-9831.954087972641,-1800.0,4600.0,-15448.0,-604.0,-91.0,-533.0,0.2371782116178649,0.8146511265532158,0.4715203967634331,0.24033009252980067
-9831.969663619995,-1932.0,4476.0,-15556.0,-561.0,-30.0,-755.0,0.2930324544778375,0.7700823402199393,0.5111776414613626,0.24454567829768395
-9831.985957145691,-1964.0,4500.0,-15556.0,-547.0,-88.0,-485.0,0.34319740944116095,0.7349101290837324,0.5288563667317043,0.24986713207292582
-9832.00171136856,-1856.0,4372.0,-15528.0,-279.0,18.0,-417.0,0.3688030663396321,0.7063377094174124,0.5496300905575536,0.2509543824425938
-9832.017385005951,-2044.0,4828.0,-15676.0,-589.0,-13.0,-765.0,0.4207923230501845,0.6487825819822619,0.5815172751628593,0.2526908009121472
-9832.033028364182,-2032.0,4660.0,-15616.0,-556.0,-9.0,-776.0,0.46799932531724975,0.5872682923347471,0.6108659588715535,0.2508692181451655
-9832.048666238785,-2084.0,4468.0,-15688.0,-531.0,245.0,-690.0,0.49548915711647457,0.5219348102998088,0.6427417393268585,0.26259780178895775
-9832.064251422882,-2020.0,4396.0,-15660.0,-412.0,16.0,-462.0,0.5229529846023403,0.47726341917980214,0.6542261310931035,0.2659473143373671
-9832.079878807068,-2124.0,4672.0,-15540.0,-361.0,73.0,-306.0,0.5402228404874684,0.44135824895398995,0.6614998790438746,0.2752818350724551
-9832.095485925674,-2036.0,4480.0,-15684.0,-290.0,123.0,-239.0,0.5494797527348697,0.41080749566911906,0.6692990764875574,0.28521561852289185
-9832.11108803749,-1968.0,4636.0,-15572.0,-311.0,144.0,-361.0,0.5604501017544339,0.3709925928468776,0.6809282734348122,0.2908554038234141
-9832.12666106224,-1832.0,4652.0,-15592.0,-493.0,340.0,-615.0,0.5699963219563339,0.30098041686926513,0.7031566294648487,0.30014285941379365
-9832.14228439331,-2176.0,4432.0,-15688.0,-466.0,109.0,-431.0,0.5856921675416605,0.2482086658734019,0.706766264077456,0.30957808550944516
-9832.157838106155,-1876.0,4488.0,-15820.0,-457.0,110.0,-42.0,0.5892222732813853,0.21919863213342158,0.70055520638954,0.33762623585921525
-9832.173417806625,-1824.0,4660.0,-15608.0,-448.0,-73.0,-120.0,0.6050715502623537,0.19091082817541358,0.6855292106968854,0.35705906518361225
-9832.18897485733,-2056.0,4676.0,-15656.0,-398.0,-95.0,-39.0,0.6180005624615814,0.17050035335720748,0.6685477572716048,0.3768936594708694
-9832.204568386078,-2268.0,4536.0,-15620.0,-295.0,-129.0,97.0,0.6262617940670128,0.1645025090528819,0.6503892660896569,0.3971509692328984
-9832.220154047012,-2124.0,4684.0,-15448.0,-269.0,-158.0,108.0,0.6348968467881814,0.16142351159477167,0.6308483175991833,0.415787017624549
-9832.235796928406,-2092.0,4688.0,-15528.0,-149.0,-151.0,505.0,0.6260890100981957,0.1863177579028234,0.6094984337858131,0.44923257199024086
-9832.251415252686,-2088.0,4748.0,-15616.0,-33.0,-155.0,319.0,0.6218919880726883,0.20754625316167363,0.5944942826634637,0.465565737409878
-9832.266996383667,-2044.0,4928.0,-15504.0,91.0,-65.0,402.0,0.6067134958034319,0.2359185122054815,0.5872211577273397,0.481053532910937
-9832.282639026642,-2076.0,4800.0,-15644.0,113.0,-36.0,140.0,0.6001145928762948,0.2506528706866786,0.5873253892040241,0.48175149302289433
-9832.29822063446,-2068.0,4660.0,-15600.0,216.0,43.0,134.0,0.5872398358842188,0.26705593614720735,0.5957954278555071,0.47839137770834433
-9832.313791275024,-2100.0,4732.0,-15504.0,217.0,78.0,96.0,0.5738174548374013,0.2799440110348385,0.606684095821127,0.47360245680037893
-9832.329404830933,-2156.0,4628.0,-15624.0,222.0,109.0,105.0,0.5579631105645144,0.2921315673737065,0.6187917438403192,0.4695030269849276
-9832.345003604889,-2056.0,4368.0,-15692.0,502.0,121.0,37.0,0.5363958187969199,0.31338808080280506,0.6438511152359773,0.4466801739469805
-9832.36059165001,-2268.0,4580.0,-15560.0,205.0,160.0,76.0,0.5185168648741474,0.32101947184002333,0.6572644030571553,0.44282080350245406
-9832.376146793365,-2080.0,4520.0,-15584.0,106.0,167.0,34.0,0.5044003451746449,0.321355695664908,0.6680540497703287,0.44273535575655715
-9832.391741514206,-2184.0,4528.0,-15732.0,62.0,142.0,-259.0,0.5040386264011864,0.30348400258333835,0.6839164185402811,0.4313940840144157
-9832.407309293747,-2112.0,4548.0,-15372.0,-57.0,154.0,-375.0,0.5099670760327937,0.2727130736899098,0.6982213873094646,0.42195740911235463
-9832.422886133194,-2008.0,4476.0,-15692.0,-100.0,125.0,-288.0,0.5149344163025361,0.24609473229040205,0.7068580992444948,0.41788940783243317
-9832.438470840454,-1976.0,4512.0,-15696.0,-137.0,46.0,-245.0,0.5236210565669027,0.2231606137156594,0.7091703372417809,0.41605019214295447
-9832.45404458046,-2052.0,4488.0,-15652.0,-177.0,-8.0,-192.0,0.53420341527837,0.2035054774011655,0.7061371074425369,0.41783084767084394
-9832.469628572464,-1804.0,4540.0,-15556.0,-190.0,255.0,-166.0,0.5274633831154185,0.17511374418620265,0.7138976364703177,0.42599028241454107
-9832.485204696655,-2096.0,4676.0,-15388.0,-174.0,16.0,-274.0,0.5389030249795922,0.14945008349172337,0.7122746159669441,0.424161612668219
-9832.500785827637,-2216.0,4668.0,-15664.0,-131.0,49.0,-481.0,0.554646942336027,0.1115376439099286,0.7155312310475379,0.40980627221153293
-9832.516360998154,-2168.0,4580.0,-15624.0,-146.0,59.0,-384.0,0.5655465131239956,0.07839223124778678,0.7166483279001894,0.40053336152079366
-9832.53202676773,-2020.0,4448.0,-15612.0,-57.0,81.0,-167.0,0.5664220322536742,0.062348377772541465,0.7199087245310729,0.39624511291723713
-9832.547603607178,-2160.0,4852.0,-15572.0,-87.0,41.0,-15.0,0.5646109920913573,0.055738523818720784,0.7191983933631055,0.40107519937793545
-9832.563201189041,-2280.0,4588.0,-15556.0,-91.0,84.0,-233.0,0.5675818534961923,0.033730535780454256,0.7213115447434176,0.3955031554332469
-9832.578799724579,-2052.0,4564.0,-15600.0,-55.0,60.0,-238.0,0.5718351219144711,0.013996418439087378,0.7231298354385136,0.38715879780086115
-9832.594382047653,-2056.0,4536.0,-15468.0,-61.0,60.0,-227.0,0.5754523528182547,-0.005356505414599735,0.7243969406356731,0.37957208786125923
-9832.609946250916,-2100.0,4420.0,-15400.0,-94.0,82.0,-215.0,0.5769971567576877,-0.02634140244672534,0.7253496758416472,0.3744973422697431
-9832.625517129898,-2124.0,4572.0,-15580.0,-75.0,11.0,-144.0,0.5805602266958244,-0.03955513554923963,0.7232693718950749,0.37184221130619094
-9832.641185045242,-2044.0,4532.0,-15584.0,-46.0,42.0,47.0,0.5759945173089298,-0.04025118023665277,0.7242703457238605,0.3768854266546384
-9832.656770706177,-1968.0,4464.0,-15696.0,-34.0,-16.0,134.0,0.5722206694073938,-0.032934037483225494,0.7229862834708084,0.3857067391050815
-9832.67235159874,-2168.0,4500.0,-15688.0,-39.0,11.0,162.0,0.5656885945464463,-0.025000243035997835,0.7228321487599249,0.3960872209088765
-9832.687996149063,-2300.0,4464.0,-15572.0,-30.0,0.0,301.0,0.5548164711028093,-0.007465136086923465,0.7224200550372911,0.4125920736225391
-9832.703550338745,-2204.0,4684.0,-15512.0,-87.0,30.0,186.0,0.5458765503406073,-0.0009984714198572606,0.7209625918819182,0.4268849212023878
-9832.71913433075,-2180.0,4484.0,-15384.0,-12.0,62.0,145.0,0.5363209327632568,0.005273534907476419,0.7236314827548352,0.4343840743806899
-9832.734746217728,-1988.0,4484.0,-15564.0,-253.0,52.0,208.0,0.5248515813307175,0.004627430662837756,0.7163008017449092,0.4598070963781507
-9832.750328063965,-2072.0,4600.0,-15564.0,-7.0,51.0,225.0,0.5123429642779133,0.016351775875672384,0.7183393906933659,0.4703464958505764
-9832.76594543457,-2028.0,4476.0,-15628.0,20.0,54.0,391.0,0.492401173579515,0.039545818105660664,0.7208068190817011,0.4862249912264794
-9832.781527280807,-2136.0,4632.0,-15580.0,31.0,57.0,345.0,0.4736687876005059,0.06016443250721005,0.7232578364405519,0.4989150456154679
-9832.79712319374,-2112.0,4608.0,-15584.0,-15.0,124.0,210.0,0.45650222638598736,0.06741969092354563,0.7266771465879575,0.5089210422130277
-9832.812726974487,-2176.0,4540.0,-15556.0,-246.0,135.0,-17.0,0.4498443515136829,0.05056621904670608,0.7212309802920096,0.5243176422452152
-9832.828298330307,-2024.0,4592.0,-15512.0,-43.0,176.0,-43.0,0.44070350085025023,0.03814617735914004,0.7264827301468848,0.525878442503158
-9832.843963623047,-2020.0,4480.0,-15684.0,-67.0,109.0,255.0,0.4220228699393431,0.04674520828230652,0.7267428172782342,0.5399596839443657
-9832.85954117775,-2060.0,4852.0,-15832.0,-57.0,109.0,43.0,0.4131356552440789,0.042263058906610744,0.7280645219287474,0.5453941841700977
-9832.875113725662,-1820.0,4476.0,-15636.0,-52.0,122.0,124.0,0.39947264947068184,0.04248137902112522,0.7296553520976681,0.5533714863602616
-9832.89069199562,-2184.0,4532.0,-15628.0,4.0,103.0,58.0,0.38993438896382226,0.041358859871575365,0.7333998125600472,0.5553065207166413
-9832.906262874603,-2196.0,4636.0,-15380.0,0.0,170.0,-63.0,0.38191764063044403,0.02910652435060721,0.7395317172490645,0.5535201578968487
-9832.921895980835,-2200.0,4656.0,-15612.0,52.0,189.0,-191.0,0.37856342190716324,0.00940016815318507,0.7488236519743534,0.5439342889324256
-9832.93755364418,-2104.0,4852.0,-15664.0,87.0,196.0,-241.0,0.3768242681692602,-0.012754436851111245,0.7595306032226573,0.5300509956858293
-9832.95317530632,-1984.0,4352.0,-15772.0,128.0,234.0,-129.0,0.3671460366792239,-0.02789843169197842,0.7729458427331929,0.5167012574605756
-9832.968778371811,-1940.0,4504.0,-15656.0,77.0,243.0,-28.0,0.35195695301312235,-0.03825692602472348,0.7841356418775753,0.5096999175731741
-9832.98435664177,-2120.0,4612.0,-15760.0,103.0,211.0,-207.0,0.346780970633723,-0.058613496904363745,0.7944023789894953,0.49520932608625756
-9832.999959230423,-2088.0,4528.0,-15676.0,127.0,197.0,-254.0,0.3444280138025206,-0.08084977988378124,0.8043748603539872,0.4772983767323103
-9833.015534877777,-2100.0,4464.0,-15624.0,63.0,217.0,-331.0,0.3430440528850291,-0.11115767689364413,0.810873968055537,0.46092098734782005
-9833.031097888947,-1808.0,4328.0,-15560.0,49.0,149.0,-345.0,0.3464789303189954,-0.14001864410794954,0.813695837585289,0.44524848572853265
-9833.04669213295,-2100.0,4516.0,-15740.0,56.0,139.0,-201.0,0.3448281255779436,-0.15796350681109375,0.8176006551596906,0.4332092600681435
-9833.062256336212,-2108.0,4416.0,-15836.0,124.0,78.0,-157.0,0.3466490170653434,-0.16835851126886045,0.8225015798317171,0.41830732939466136
-9833.077862501144,-2252.0,4532.0,-15572.0,16.0,103.0,-124.0,0.34377836979611026,-0.1805208449693014,0.8244694633389511,0.41167798218204543
-9833.09351015091,-2224.0,4384.0,-15544.0,241.0,83.0,-375.0,0.3545891268917521,-0.20309953212765786,0.8292294946152986,0.38130771877805963
-9833.10909986496,-1856.0,4472.0,-15692.0,-49.0,202.0,-295.0,0.3485182566131995,-0.232570203564116,0.8283766607039225,0.37180402529082485
-9833.12471294403,-2196.0,4432.0,-15728.0,-77.0,61.0,-768.0,0.36639914750198,-0.2917500472385914,0.8104672008180889,0.3518188327025628
-9833.140318393707,-1772.0,4736.0,-15520.0,-406.0,762.0,-4159.0,0.4028276329908786,-0.5834845045036204,0.6719803960941624,0.2138178626033459
-9833.15593290329,2584.0,6536.0,-15220.0,-2484.0,5172.0,446.0,-0.031802498493275315,-0.6622867551480883,0.7418839311037737,0.09986534841982168
-9833.171496868134,-4916.0,4164.0,-15484.0,-1611.0,794.0,-5019.0,-0.12006797678046321,-0.8973409832738909,0.3948525318847003,0.15637876695106245
-9833.187150001526,-2108.0,4372.0,-15468.0,247.0,1524.0,-1213.0,-0.13457377405128645,-0.9487198718981017,0.2831778619329448,0.04038319594000844
-9833.202691078186,-1620.0,3980.0,-15864.0,-13.0,1153.0,-785.0,-0.16000385734767833,-0.9649570076185978,0.20306864831484842,-0.04494288768209455
-9833.21826839447,-2628.0,4324.0,-15508.0,145.0,710.0,-553.0,-0.16194973528669931,-0.9709807011873575,0.1455190349188756,-0.09895944441312694
-9833.233851671219,-1724.0,4456.0,-15816.0,332.0,888.0,-481.0,-0.1485545539279516,-0.9700142365508696,0.08892344922327519,-0.17057709569029575
-9833.249430656433,-2136.0,4836.0,-15776.0,423.0,584.0,-616.0,-0.12601786367903017,-0.9683447384854472,0.022787824223434065,-0.21426311056382533
-9833.265005588531,-1968.0,4372.0,-15748.0,630.0,464.0,-380.0,-0.08059190639742303,-0.9646559933602711,-0.02617641518011484,-0.249516641500433
-9833.280580282211,-1696.0,4472.0,-15872.0,750.0,291.0,89.0,-0.014881222823415606,-0.961485380995906,-0.037015741942578645,-0.27194529999041683
-9833.296153783798,-1588.0,4560.0,-15680.0,608.0,332.0,-1058.0,0.011900827268554673,-0.9453213658093789,-0.13984893523731257,-0.2943945668106066
-9833.311778306961,-1844.0,3868.0,-15428.0,516.0,683.0,-89.0,0.06022220705218449,-0.9236515610507776,-0.15934265302235873,-0.3432943321320959
-9833.327355146408,-1340.0,4324.0,-15784.0,513.0,898.0,74.0,0.1156532157463843,-0.8915608110551866,-0.16342216469173668,-0.40624727687161827
-9833.34292769432,-2360.0,4616.0,-15624.0,914.0,559.0,-325.0,0.1821964259443325,-0.8539505293716044,-0.21451960647392404,-0.4376691606651545
-9833.358510255814,-1876.0,4244.0,-15824.0,1307.0,706.0,-61.0,0.2879105242785143,-0.7985224962057423,-0.2557009654206193,-0.46269468264286806
-9833.374089241028,-1884.0,4184.0,-15680.0,1492.0,677.0,244.0,0.41238289428964725,-0.7317086455842453,-0.279131159185655,-0.46543377879805337
-9833.389669656754,-1592.0,4132.0,-15852.0,1626.0,708.0,349.0,0.5407712695390156,-0.6451482669853227,-0.2938959820724025,-0.45274197880105393
-9833.405302524567,-1752.0,4204.0,-15664.0,1948.0,800.0,279.0,0.6704026818208958,-0.5201024781926508,-0.31222529584872655,-0.42728096261990095
-9833.420879602432,-1708.0,4100.0,-15528.0,2153.0,1067.0,-47.0,0.7783710324512841,-0.34574441986876614,-0.3253249949847147,-0.41080771610149647
-9833.436465740204,-1644.0,4364.0,-15584.0,2430.0,1352.0,-392.0,0.850733993391939,-0.1177292395300463,-0.32312950522109535,-0.39746549724806474
-9833.452080011368,-472.0,5760.0,-15264.0,1580.0,3478.0,-1571.0,0.8565301633970572,0.15481972078163017,-0.12810509873056497,-0.47536934790470137
-9833.467656373978,-3524.0,3952.0,-15560.0,3064.0,2959.0,-2326.0,0.6920806957926786,0.49065224130360924,-0.0024849098686041404,-0.5294133676417809
-9833.483229637146,-1548.0,3908.0,-15596.0,3901.0,3741.0,-1479.0,0.41088351912060717,0.8081200670444412,0.09568667293877349,-0.4110483567380626
-9833.498805761337,-2172.0,4084.0,-16016.0,4613.0,3753.0,-1398.0,0.0034867596987971598,0.9676143712398085,0.1441443702036844,-0.20720200678462544
-9833.514440536499,-2108.0,2100.0,-16708.0,6591.0,3316.0,517.0,-0.4917550560865846,0.87056882174665,-0.014868368111718601,-0.008113140305955151
-9833.530024051666,-2400.0,2760.0,-17136.0,8395.0,3657.0,2482.0,-0.8649435508169506,0.3927361753353067,-0.28222338571442784,0.1340929194217415
-9833.545644760132,-2408.0,3708.0,-16376.0,9108.0,3140.0,3660.0,-0.8494999403805011,-0.31340940198154754,-0.40028416191407257,0.14105668280461695
-9833.561232805252,-1444.0,5984.0,-16160.0,10783.0,4751.0,4133.0,-0.2970421900700241,-0.8895590965617354,-0.34267744101400294,0.0549792912173993
-9833.576848745346,-828.0,3012.0,-18028.0,10048.0,4675.0,2741.0,0.43199690240065136,-0.8886071060881077,-0.14372549274853086,-0.05566929189555779
-9833.592443227768,-2072.0,4452.0,-19576.0,10186.0,4176.0,227.0,0.9195665476522398,-0.35139454754291166,-0.013112531071833872,-0.17534907449126622
-9833.608088970184,456.0,24.0,-24296.0,11268.0,5730.0,5199.0,0.8681455092068578,0.40753966715899304,0.278665132495086,0.05079900065354397
-9833.623704433441,-2944.0,5316.0,-24564.0,12843.0,5211.0,5703.0,0.15746002070196227,0.9087298685778585,0.32048732688734316,0.21611164045374961
-9833.639338254929,-2028.0,6316.0,-26464.0,13640.0,7533.0,7856.0,-0.7043028126373452,0.6443511041470896,0.032009359954246794,0.2962171561048932
-9833.654901742935,-6612.0,9560.0,-26616.0,14490.0,8389.0,5453.0,-0.918231969817285,-0.24425350217221556,-0.22675793507465658,0.21394184995636986
-9833.67048072815,-3624.0,9744.0,-26912.0,10750.0,12801.0,3651.0,-0.2803591793382548,-0.7884736581371795,-0.5419834707641662,-0.07721358949681563
-9833.68605351448,-7060.0,7364.0,-25952.0,10768.0,12938.0,3398.0,0.608065575127956,-0.6247030958402574,-0.3870689587928576,-0.30029971616856255
-9833.701609134674,-5724.0,9744.0,-20168.0,7398.0,12503.0,-2948.0,0.8295605755031936,0.11932566698514795,-0.04787738310755123,-0.543413648113601
-9833.717171907425,-5536.0,5672.0,-14892.0,5754.0,9302.0,-5847.0,0.36044709626520205,0.6796999838152185,0.28059508358910734,-0.5738921691931314
-9833.732763051987,3176.0,7136.0,-10824.0,5207.0,12119.0,-7380.0,-0.3714182531258569,0.7671632537421563,0.5066867953262718,-0.12952804636324003
-9833.74837589264,-3956.0,12684.0,-5176.0,5399.0,8052.0,-3380.0,-0.8394622489516109,0.3974765055988064,0.30605668687580123,0.20891353355078124
-9833.764005422592,-11004.0,12656.0,-3700.0,-1742.0,615.0,-2797.0,-0.7145103133009252,0.4214390008910146,0.31313062434768685,0.4623996029520621
-9833.77959561348,-7004.0,9172.0,-5300.0,-5046.0,-3100.0,4437.0,-0.5234999305578708,0.8253361073032943,0.1173325174625283,0.17607161336585372
-9833.795222520828,-8836.0,11072.0,-4728.0,-8889.0,-7043.0,5607.0,0.06910228656453811,0.9378189960796498,-0.06806510725848505,-0.3332979834286447
-9833.810812711716,-7700.0,9816.0,-4856.0,-11678.0,-10790.0,9501.0,0.6509376096320357,0.26140228229981766,-0.30044884658041804,-0.6462813363880117
-9833.826433897018,-6944.0,9488.0,-6828.0,-14745.0,-13741.0,12149.0,0.5744972710433559,-0.7309084460690229,-0.23058249899460942,-0.28732810545803555
-9833.842061519623,-5368.0,8712.0,-9216.0,-19172.0,-16172.0,14487.0,-0.22470705237628266,-0.8788490440365935,0.1336857488000595,0.3990729494416976
-9833.85764336586,-4992.0,7388.0,-11508.0,-21902.0,-16765.0,11444.0,-0.7550607412787036,0.0959412695851512,0.20689928666661692,0.6147123188507688
-9833.873241901398,-9092.0,15120.0,-11716.0,-30415.0,-20531.0,-1419.0,-0.015938012147028037,0.9459719126720881,-0.017828249008352694,0.3233655419824577
-9833.888859510422,1340.0,7988.0,-22736.0,-32515.0,-20775.0,17825.0,0.5552336988520268,0.4033989632200269,-0.6189608569061549,-0.3819322894834929
-9833.90445780754,-7284.0,6424.0,-21312.0,-26865.0,-19326.0,2485.0,0.17614704793291103,-0.5471896172557179,-0.24400309705919743,-0.7810366373593377
-9833.920125961304,-1240.0,8164.0,-23056.0,-31094.0,-16446.0,-5150.0,-0.6166218854297174,-0.6248028936599409,0.42226111964006,-0.2260405745072951
-9833.935764312744,-2656.0,6320.0,-24120.0,-32346.0,-16888.0,-13920.0,-0.5721989614530174,0.07586817568553651,0.3407145090447535,0.7421226258217908
-9833.951440811157,-52.0,2288.0,-26476.0,-30172.0,-16484.0,-11614.0,0.2619427223434897,0.6939971265277646,-0.21469214497079853,0.6353434358442094
-9833.96705365181,-1176.0,-2376.0,-27820.0,-25828.0,-18057.0,-5301.0,0.6013439560753788,0.4064669025814275,-0.5867824456379112,-0.3589658271878607
-9833.982669830322,352.0,-2844.0,-27340.0,-21258.0,-17387.0,-1242.0,0.16388791012862225,-0.4578920597559284,-0.30373788641927496,-0.8192795071767006
-9833.998256921768,1108.0,-32.0,-25372.0,-20454.0,-15475.0,-1538.0,-0.47799842588887903,-0.7397622510258156,0.3566678162474083,-0.3115403435484352
-9834.013835906982,3828.0,-1588.0,-21848.0,-17438.0,-12546.0,-1981.0,-0.5942816877979396,-0.19481097960120392,0.5752648312223211,0.5272080535553362
-9834.029403924942,3184.0,-1916.0,-20160.0,-14516.0,-8708.0,-5695.0,-0.07656290492511399,0.3632975653313944,0.1417440739080612,0.9176391546384969
-9834.04499912262,3376.0,-2560.0,-19244.0,-10885.0,-4777.0,-12393.0,0.7326839092439801,0.36943197316368537,-0.16931631943082762,0.5459178420914115
-9834.06060385704,3172.0,-2292.0,-16916.0,-4667.0,-2694.0,-4801.0,0.9070255698979052,0.22892676374370757,-0.3463420899297867,0.0703157815591954
-9834.076183319092,4976.0,-6088.0,-19332.0,13198.0,-560.0,14637.0,0.26957120532418266,0.4193903051651248,-0.3026804183883416,0.8122977911565619
-9834.091857671738,-6836.0,1980.0,-14292.0,114.0,2722.0,-23104.0,0.8727250042686844,0.37096255381792853,0.2717383966909587,0.164000287661127
-9834.107451677322,6232.0,-356.0,-16520.0,3300.0,5122.0,-9509.0,0.5557825183323553,0.23058784663316884,0.7243059594518525,-0.3366242926524388
-9834.12307214737,7368.0,1620.0,-16772.0,5598.0,10507.0,-5530.0,-0.25233229148135405,0.3033114438110365,0.7765106499710106,-0.4912858569210311
-9834.138662815094,3452.0,-3704.0,-21044.0,2292.0,11933.0,-32768.0,-0.7871351062930504,-0.4536282267441403,0.39974493402958683,0.12183490493153575
-9834.154293775558,13088.0,-9180.0,-29340.0,17340.0,23870.0,4710.0,-0.35212413543814053,-0.6210594478692829,-0.3111440374723992,-0.6272823474318544
-9834.169865846634,-13388.0,11420.0,-12488.0,9738.0,11037.0,-32768.0,-0.4006740203165415,0.17432442314316726,-0.8993746984350776,0.01401701658681234
-9834.185445785522,5952.0,26616.0,-17440.0,13638.0,23019.0,16581.0,0.4031304611031143,-0.5583358121339353,-0.6635288900706072,0.2923634112901225
-9834.200988292694,-30396.0,32767.0,-7912.0,-716.0,8370.0,-13327.0,0.7016870708813492,-0.014868971107413172,-0.6097916246340174,-0.3681960656801822
-9834.216568231583,6196.0,1340.0,-27876.0,3850.0,12190.0,5042.0,0.9717719598755521,0.22047541918419575,0.012291845969980756,0.08305876267939352
-9834.232140541077,-9312.0,-7340.0,-26960.0,14978.0,13007.0,1237.0,0.3298926631219044,0.6981001970366846,0.599493069795638,0.21079612183975865
-9834.247752189636,-5852.0,6500.0,-12296.0,11089.0,13574.0,1041.0,-0.5874917416258488,0.44930329711417755,0.6181092147152729,0.2663099686602528
-9834.263329029083,-9928.0,6612.0,-6144.0,5137.0,10425.0,-7353.0,-0.7555248616559365,-0.29008166106608396,0.314503767966933,0.4961070381152855
-9834.278916358948,-2060.0,2672.0,-10204.0,-2983.0,7417.0,-6404.0,-0.5645796049659104,-0.44028614625396373,-0.3471361684964021,0.6057181354351273
-9834.29450583458,5960.0,3532.0,-17128.0,4259.0,9742.0,719.0,-0.10520511463388128,-0.8691795599620545,-0.4206014393782266,0.23780917894817485
-9834.310094356537,-5492.0,6636.0,-18908.0,7460.0,4658.0,688.0,0.48907464115467614,-0.8397006600681359,-0.203112143360046,0.12022584614071025
-9834.325686216354,-3588.0,640.0,-19680.0,6686.0,5383.0,7816.0,0.6970296122772882,-0.5265753383753662,0.47037748793016904,0.12495259689956639
-9834.34135055542,-5000.0,5544.0,-15904.0,6294.0,4193.0,5981.0,0.5728550494101992,0.04283272168935198,0.8180261012766165,0.02890930556239048
-9834.356948852539,-868.0,6944.0,-13552.0,7390.0,6109.0,4385.0,0.07197807885675457,0.5224293491095808,0.8284151214097182,-0.1887196809364422
-9834.37253832817,-4720.0,5840.0,-14028.0,2908.0,4081.0,-2512.0,-0.35653336430558447,0.3830099097207256,0.8270910931402228,-0.20520159073646146
-9834.38811302185,-760.0,2420.0,-16396.0,2563.0,4459.0,-7819.0,-0.7000673597564507,-0.14036367014837356,0.7001432535506984,0.001776629830110884
-9834.403817892075,4696.0,5440.0,-17604.0,-2432.0,10976.0,4690.0,-0.9600923077364549,0.2007563933655105,0.05956387863727578,-0.18539626617018057
-9834.419432640076,-3472.0,5408.0,-17972.0,-3666.0,6392.0,-4639.0,-0.7993736387944232,0.46770452108841437,-0.2671981932233787,0.2661942750928011
-9834.435010671616,-3844.0,1308.0,-16564.0,-121.0,4323.0,-1038.0,-0.6239998966310245,0.37300063674974177,-0.4935251871136692,0.47741757788457667
-9834.450671434402,-1592.0,3580.0,-17500.0,-1844.0,3154.0,-2106.0,-0.3192849913041061,0.4061774026244553,-0.6322835051799084,0.5773167077112844
-9834.466237306595,-708.0,4656.0,-16104.0,-2420.0,2048.0,-1736.0,-0.031378833759258186,0.44470017424286395,-0.715141969471892,0.538357768886211
-9834.481815338135,-880.0,4328.0,-15368.0,-2438.0,1142.0,-844.0,0.1691513108577805,0.43741286145955427,-0.7769553336451623,0.4199978954532912
-9834.497411966324,-1592.0,4564.0,-15688.0,-2373.0,175.0,-268.0,0.2754093997731859,0.40545362290796383,-0.8332005628442655,0.25599578954228763
-9834.51299905777,-148.0,5108.0,-15908.0,-2460.0,6.0,-71.0,0.3562125448962146,0.3435968355122798,-0.8658098573794243,0.07366904607181153
-9834.528586387634,-1704.0,4640.0,-15548.0,-2538.0,-249.0,-132.0,0.40418125157709783,0.2697353841624428,-0.8647648570196724,-0.1267362634294368
-9834.544168710709,-1484.0,4944.0,-15772.0,-1225.0,-575.0,985.0,0.39602057298429033,0.14439561290166705,-0.8853978525162275,-0.19592921045009823
-9834.559811115265,-1372.0,5848.0,-15280.0,-701.0,-669.0,-1124.0,0.330878179048487,0.19403960369602746,-0.8751573715467741,-0.294903099092545
-9834.57543373108,-312.0,6708.0,-15156.0,-640.0,111.0,-4334.0,0.22265278344414113,0.4758596191719772,-0.7305944123880278,-0.43613663622019827
-9834.591032505035,-1272.0,6744.0,-14112.0,324.0,-59.0,-3008.0,0.08782079486071966,0.6494883318702067,-0.5987669225899812,-0.46035919363754557
-9834.60663986206,-412.0,5884.0,-15128.0,104.0,-135.0,-1165.0,0.027962855486139117,0.7021157430942844,-0.5352722543487475,-0.4687591873623726
-9834.62221622467,-1032.0,5052.0,-16012.0,176.0,-1012.0,-530.0,-0.05144639655829338,0.6825499925457756,-0.5100160477639711,-0.5209245693765531
-9834.637789011002,-1272.0,5152.0,-16312.0,-23.0,3.0,-906.0,-0.09074056389943456,0.7209673090341991,-0.45374459964760233,-0.5158373073536221
-9834.653372049332,-1092.0,6220.0,-15352.0,-598.0,171.0,-1979.0,-0.13311335544958133,0.7988867869426762,-0.29896178636633375,-0.5046608628990474
-9834.668946027756,-1864.0,4316.0,-15848.0,-1469.0,-160.0,-2509.0,-0.14075134918979332,0.8475802345761463,-0.05582969065076425,-0.508605789682872
-9834.684507608414,-1232.0,4216.0,-16160.0,-717.0,-35.0,-2662.0,-0.20018001066632507,0.8438946430673592,0.1684553623956201,-0.4683936225142317
-9834.700086832047,-796.0,6356.0,-15064.0,-1811.0,272.0,-1664.0,-0.13550251894426713,0.8428981071815854,0.3521354929935079,-0.38361757368983784
-9834.715710878372,-1356.0,4564.0,-15580.0,-1884.0,73.0,-2571.0,-0.08193504039661469,0.7598569079775978,0.5813828576743744,-0.2791023134198417
-9834.731312513351,-2308.0,4068.0,-15740.0,-929.0,-145.0,-3225.0,-0.08764333228054527,0.5752143767740241,0.78585774053034,-0.20946283371467522
-9834.746890306473,-1536.0,5428.0,-15392.0,-165.0,-128.0,-495.0,-0.07936213756502061,0.5396458000286717,0.8138522065889621,-0.20032136047561994
-9834.762484312057,-2160.0,4824.0,-15384.0,393.0,264.0,381.0,-0.10961889865559118,0.5678608757032657,0.7861545334959394,-0.21789624220448905
-9834.778048276901,-1272.0,5212.0,-14552.0,734.0,567.0,1502.0,-0.1543356067056025,0.6668746533762157,0.6843201504620464,-0.2513257823200155
-9834.793623447418,-544.0,5140.0,-13584.0,1942.0,1589.0,3058.0,-0.27886295405808703,0.8113229857765821,0.41818629405080315,-0.29851413546534833
-9834.809202432632,-2336.0,5780.0,-15776.0,1519.0,1488.0,1237.0,-0.39917406068611727,0.8392885357018703,0.24916004046963364,-0.27234921947370583
-9834.824795246124,-2308.0,6488.0,-15400.0,1642.0,1841.0,468.0,-0.5354219590054929,0.8168095859969333,0.10912820901555792,-0.18503097047601327
-9834.840381145477,-620.0,4912.0,-16036.0,1751.0,1632.0,735.0,-0.6483911135147712,0.7508283068336954,-0.04669902556801689,-0.1168974703888794
-9834.856077194214,-692.0,4420.0,-16628.0,1784.0,835.0,1378.0,-0.7316911468508588,0.639095660609573,-0.19817505360824988,-0.13004403230235406
-9834.871671676636,-848.0,3968.0,-16932.0,2515.0,213.0,4203.0,-0.7542537642873801,0.3755223862646866,-0.43658225466220524,-0.315404710469673
-9834.887292385101,-956.0,4484.0,-16180.0,2667.0,17.0,5700.0,-0.599459524080271,-0.014564609074592672,-0.6119273900974246,-0.5157334780683853
-9834.902878284454,-1376.0,5492.0,-15752.0,2689.0,-85.0,5905.0,-0.2912049765823303,-0.412799803409649,-0.6275721783990352,-0.5924096089853108
-9834.918544054031,-1084.0,3884.0,-15748.0,2809.0,-145.0,5646.0,0.08233410376938007,-0.7016547795746466,-0.49574625871446687,-0.5051111883804951
-9834.934179067612,-1888.0,5944.0,-15504.0,1466.0,-432.0,1547.0,0.21755987852894657,-0.7635446089989124,-0.46066809361274585,-0.3968025161845201
-9834.949845314026,-640.0,5652.0,-15748.0,2065.0,594.0,1189.0,0.4106739402813903,-0.7349916746943947,-0.43199778721765564,-0.3232832577519834
-9834.965409755707,-832.0,5540.0,-15240.0,1167.0,535.0,-1919.0,0.44241660161255725,-0.5939021984807661,-0.5577655414300561,-0.374760363499857
-9834.98100733757,-824.0,4356.0,-15192.0,644.0,386.0,-2584.0,0.3989750046118237,-0.4193214756473616,-0.6795273119561595,-0.4508115771157065
-9834.996586084366,-620.0,3464.0,-15792.0,463.0,56.0,-1488.0,0.357188550473244,-0.30996282281487625,-0.7435695294813339,-0.47269836334639903
-9835.012156963348,-848.0,2856.0,-16432.0,250.0,-499.0,1511.0,0.3898685031088803,-0.4167406542821372,-0.7216554501015949,-0.391845873642688
-9835.027769088745,-1152.0,3708.0,-16076.0,370.0,-788.0,2769.0,0.43442681398567434,-0.5869891146831636,-0.6403626437958767,-0.2380185013071195
-9835.043351888657,-1248.0,5280.0,-15184.0,12.0,-486.0,1757.0,0.4385878470389488,-0.6862562659269728,-0.562106463416115,-0.14397694847278683
-9835.058962345123,-1216.0,5376.0,-15320.0,-341.0,-236.0,-755.0,0.3956978307146693,-0.6634391193780489,-0.610460243927343,-0.17495728687526188
-9835.074586629868,-1492.0,3984.0,-15424.0,-445.0,-180.0,-1101.0,0.34137117379386017,-0.6195728648188907,-0.6700620247366457,-0.22497126458403888
-9835.090183496475,-1608.0,4560.0,-16236.0,-614.0,-213.0,-918.0,0.2760766329431976,-0.5855970642223038,-0.7106816671199838,-0.27529863627799955
-9835.105801582336,-1392.0,4016.0,-16000.0,-469.0,5.0,261.0,0.25813557741776083,-0.6123380573063861,-0.6853227230382851,-0.29789409616981294
-9835.121392250061,-1884.0,4364.0,-15912.0,-16.0,-2.0,-290.0,0.2492788949784517,-0.5952607180527917,-0.700342145978502,-0.3050337499815771
-9835.136976242065,-992.0,4652.0,-16140.0,68.0,-72.0,814.0,0.2691279700713241,-0.6438456360952337,-0.659871227605222,-0.27857296276772747
-9835.152572631836,-1544.0,5556.0,-15564.0,-172.0,-394.0,-907.0,0.21362264744584805,-0.602952745759105,-0.7132808989467118,-0.28643273220348586
-9835.168157577515,-968.0,4660.0,-15360.0,300.0,230.0,-225.0,0.2376571916110079,-0.5772133814453283,-0.7279122979967297,-0.28370311591721836
-9835.183743476868,-1816.0,4552.0,-14576.0,55.0,137.0,-1704.0,0.20440221942907827,-0.4593680149344288,-0.8034773592005019,-0.3187865944481622
-9835.199316501617,-1004.0,4676.0,-15336.0,124.0,660.0,-1616.0,0.20802466553970536,-0.32176619399755213,-0.8502063169351389,-0.36102835563291913
-9835.21489238739,-1040.0,4812.0,-15512.0,-238.0,954.0,-2291.0,0.19514098615131653,-0.1231673260828309,-0.8695218409510967,-0.4366710127985518
-9835.230456829071,-1380.0,4368.0,-15844.0,-331.0,749.0,-2822.0,0.13628604378463113,0.11031668457466264,-0.8472325195557291,-0.501451294924282
-9835.246036291122,-884.0,4096.0,-15968.0,-259.0,707.0,-2458.0,0.0813691820438714,0.31217569734276945,-0.7844994911832492,-0.5296092319203756
-9835.261627674103,-416.0,4408.0,-16100.0,-622.0,376.0,-1838.0,0.038514631453542086,0.4444576195211632,-0.6929602200783467,-0.5663745942417863
-9835.277212381363,-320.0,4296.0,-16404.0,-627.0,-334.0,-260.0,0.029737608209302234,0.44069362241735166,-0.6517719146247007,-0.6165210273178965
-9835.292801380157,-232.0,4212.0,-16316.0,-289.0,-671.0,1295.0,0.07177790307123978,0.3275407180239874,-0.6822339586036629,-0.6497090397978176
-9835.308400630951,-1024.0,4244.0,-15640.0,-203.0,-1024.0,2271.0,0.14201418227867832,0.13004879023594254,-0.7251995206824615,-0.6610634911956749
-9835.324053525925,-1056.0,4964.0,-15436.0,-259.0,-918.0,2066.0,0.2020267549479827,-0.05570903970238125,-0.7310243162576112,-0.6493728838046121
-9835.339646339417,-1704.0,4932.0,-15748.0,-306.0,-915.0,1082.0,0.20175809195772298,-0.18050391748932687,-0.7190466142152186,-0.6400656018614154
-9835.355320930481,-1320.0,5072.0,-15664.0,-360.0,-739.0,855.0,0.1962997082357171,-0.28026889753829803,-0.6949909489410464,-0.632379119286258
-9835.370904922485,-1448.0,4744.0,-15620.0,-340.0,-667.0,590.0,0.17933967378636798,-0.35747280072100607,-0.6711217520648236,-0.6242163663797357
-9835.386480808258,-1296.0,4348.0,-15772.0,-395.0,-689.0,684.0,0.16311707368033834,-0.4394583002204869,-0.6366005606023709,-0.6123797423837848
-9835.402059078217,-1332.0,4536.0,-15880.0,-365.0,-727.0,545.0,0.13722599615876988,-0.5119787229521844,-0.6045346099102916,-0.5946299005626063
-9835.417614459991,-1244.0,4756.0,-15848.0,-386.0,-680.0,858.0,0.127843713407493,-0.5941863515526077,-0.5516740848786033,-0.571186719597138
-9835.433170080185,-1200.0,4900.0,-15476.0,-259.0,-619.0,804.0,0.12403253671589425,-0.6639577315320327,-0.5020559185020165,-0.5401073182912393
-9835.448767662048,-1356.0,4948.0,-15532.0,-280.0,-753.0,757.0,0.10983942278250071,-0.7323483561046623,-0.451206805002693,-0.4980096441163238
-9835.464339733124,-1260.0,4660.0,-15756.0,-208.0,-638.0,819.0,0.10641425454402788,-0.7910471052808233,-0.39438679430634976,-0.4553894378808429
-9835.479965925217,-1232.0,4372.0,-15804.0,-259.0,-732.0,794.0,0.09429748979047009,-0.8460028157817371,-0.33461607929246967,-0.4042515288623211
-9835.495553731918,-1536.0,4756.0,-15684.0,-202.0,-849.0,1397.0,0.1026498715490811,-0.909154495488535,-0.2290697943849793,-0.3323072922828624
-9835.511142253876,-1288.0,4948.0,-15484.0,116.0,-574.0,1785.0,0.1499465608118955,-0.9478806421511572,-0.09475088116344016,-0.26468960624577953
-9835.526727199554,-1584.0,5008.0,-14996.0,171.0,-364.0,1385.0,0.19134250836464092,-0.9580351923098592,0.010984218846671622,-0.21315712919080765
-9835.542327404022,-1996.0,5000.0,-15228.0,241.0,-112.0,609.0,0.22232046396408808,-0.9540001937266945,0.055442585743465035,-0.1933477730885465
-9835.557989358902,-2452.0,4568.0,-15516.0,349.0,132.0,-383.0,0.24377622553094377,-0.9459258009318314,0.020203094452575995,-0.21304780208183352
-9835.573575019836,-1668.0,4684.0,-15428.0,384.0,603.0,-495.0,0.2642078021979654,-0.9248738911422723,-0.014941295177080772,-0.2730920731905351
-9835.589165687561,-1940.0,4696.0,-15356.0,410.0,787.0,-778.0,0.27808979417646384,-0.8910691928766424,-0.06902093542400056,-0.3519912930091555
-9835.604741573334,-1688.0,4632.0,-15500.0,424.0,985.0,-1389.0,0.27095849901317975,-0.8325999357894394,-0.16428547745354244,-0.45427868168538105
-9835.620316505432,-1560.0,4592.0,-15676.0,291.0,963.0,-1807.0,0.2303596989154566,-0.7496829348178964,-0.2799066118295407,-0.5536805893405625
-9835.635924100876,-1344.0,4256.0,-15768.0,120.0,769.0,-1852.0,0.1648343007197102,-0.655046696929682,-0.385648113790468,-0.6285053782408007
-9835.651532173157,-892.0,4280.0,-15772.0,75.0,573.0,-1124.0,0.12586729184790738,-0.5813393691360715,-0.4432413671277896,-0.6706258667856737
-9835.667101860046,-1224.0,4168.0,-15820.0,-69.0,302.0,-1016.0,0.07416586871694526,-0.5230197649302112,-0.48552680182901276,-0.6965726624807338
-9835.682655096054,-1424.0,4316.0,-15852.0,-120.0,220.0,-837.0,0.026968183797243857,-0.47370744852269664,-0.5137156748002268,-0.7148217790060277
-9835.698243141174,-1464.0,4516.0,-15676.0,-222.0,206.0,-794.0,-0.022508358978596658,-0.4247298024336114,-0.5309565563212597,-0.7329277617884761
-9835.713832378387,-1536.0,4520.0,-15404.0,-213.0,248.0,-1307.0,-0.10185108080850724,-0.34561196211734635,-0.562605843974917,-0.7440788891675454
-9835.729426145554,-1464.0,4456.0,-15776.0,-106.0,332.0,-1217.0,-0.16676550669136686,-0.26185879281307906,-0.5920043941337534,-0.7437405701793982
-9835.745013952255,-1516.0,4636.0,-15776.0,-130.0,279.0,-1112.0,-0.22633127435425607,-0.18355369372742875,-0.6101887199278072,-0.7367169889727395
-9835.760715007782,-1788.0,4516.0,-15944.0,-97.0,304.0,-1362.0,-0.2970117208231586,-0.08896066978911202,-0.6273577709233533,-0.7143474394063576
-9835.776312828064,-1572.0,4408.0,-15668.0,-113.0,329.0,-1149.0,-0.34951417247369465,-0.0026386527264525435,-0.6345341041243828,-0.6893470471793469
-9835.791919231415,-1564.0,4436.0,-15768.0,-109.0,384.0,-1105.0,-0.3925890567813306,0.08451402521639008,-0.6368521749865784,-0.6581417166933982
-9835.807500123978,-1792.0,4556.0,-15512.0,-182.0,396.0,-1036.0,-0.4265699037356756,0.17025661481932997,-0.6295504312848814,-0.6266714105543817
-9835.823077201843,-1504.0,4516.0,-15688.0,-231.0,393.0,-1530.0,-0.4804330674126037,0.281704177390695,-0.6032356635092395,-0.5709059103282396
-9835.838684797287,-1400.0,4300.0,-15716.0,-206.0,393.0,-1160.0,-0.5093178138864117,0.3688768389632615,-0.5777869592870024,-0.5202763417764816
-9835.854282617569,-1296.0,4388.0,-15660.0,-289.0,351.0,-1016.0,-0.525778553771721,0.4468558464821607,-0.5452222538543302,-0.47603514445934936
-9835.869866847992,-1408.0,4324.0,-15752.0,-314.0,271.0,-796.0,-0.5318706273283578,0.5089295979537972,-0.5122160915394997,-0.4424239772886682
-9835.88549733162,-1332.0,4136.0,-16000.0,-197.0,59.0,-419.0,-0.5360010549081835,0.5387475994600592,-0.48853310405280653,-0.4287065423548697
-9835.901089191437,-1104.0,4368.0,-15860.0,-241.0,11.0,193.0,-0.5165705272990446,0.5421250172584131,-0.4891181604591766,-0.447234592912471
-9835.916758060455,-1536.0,4476.0,-15800.0,-226.0,-102.0,171.0,-0.5031656498455558,0.5409643701074038,-0.4838148715890449,-0.469153545354903
-9835.932397127151,-1396.0,4396.0,-15496.0,-190.0,254.0,9.0,-0.48270103657889024,0.55922750278696,-0.48761589578739906,-0.46529028314352083
-9835.948019981384,-1480.0,4688.0,-15732.0,-224.0,-38.0,-278.0,-0.4842195111131455,0.5787836657847758,-0.46331502311012945,-0.4646290161392672
-9835.963607788086,-1584.0,4632.0,-15880.0,-149.0,30.0,-244.0,-0.48500349809977555,0.5960992055071006,-0.44625997641351445,-0.4585731975117974
-9835.979230880737,-1496.0,4536.0,-15868.0,-112.0,7.0,-32.0,-0.4799404780431797,0.6024650840597827,-0.4405637037953202,-0.46108196985207817
-9835.994830846786,-1520.0,4368.0,-15836.0,60.0,-18.0,262.0,-0.472895346503936,0.5891252247125447,-0.4560461879442748,-0.470450141166746
-9836.010451316833,-1436.0,4460.0,-15888.0,170.0,-137.0,645.0,-0.45958017073862245,0.5499743364434084,-0.4898455309077477,-0.49635234639034187
-9836.026043891907,-1036.0,4804.0,-15364.0,253.0,-147.0,902.0,-0.4372292538230221,0.49332858899554,-0.5365553684263822,-0.5268451570374941
-9836.041633605957,-1428.0,4384.0,-15524.0,7.0,-217.0,998.0,-0.4000260238069385,0.4347365596512741,-0.569502913233795,-0.5715327950328006
-9836.057244062424,-1380.0,4464.0,-15840.0,191.0,-95.0,1072.0,-0.3567310338354779,0.3684737472075342,-0.6138001359818596,-0.6001828556249839
-9836.072875499725,-1520.0,4612.0,-15584.0,-18.0,-16.0,559.0,-0.3271837705328357,0.33792513266068985,-0.6297960955251416,-0.618153915362071
-9836.088503837585,-1764.0,4272.0,-16108.0,-178.0,-129.0,225.0,-0.3166307233298845,0.3236373499977189,-0.623128570361521,-0.6377418251371436
-9836.104112625122,-1340.0,4200.0,-16016.0,-4.0,-143.0,514.0,-0.2952369792388257,0.2876022534640185,-0.6330052290692902,-0.655304852616923
-9836.119743347168,-1404.0,4500.0,-15564.0,-353.0,-199.0,595.0,-0.26270813841318824,0.25201899410557804,-0.6216287390099257,-0.6935766514657336
-9836.135344743729,-1580.0,4348.0,-15660.0,-402.0,-300.0,553.0,-0.23607615636401358,0.212697492865238,-0.6015449392395332,-0.7329198530538944
-9836.150965690613,-1504.0,4536.0,-15648.0,-354.0,-175.0,711.0,-0.1926562210168979,0.17110792522031382,-0.5872642788544974,-0.7672850351804047
-9836.166589021683,-1616.0,4660.0,-15572.0,-313.0,-130.0,454.0,-0.16399044877724991,0.14428241903902544,-0.5704561547465293,-0.7917509026062977
-9836.182156324387,-1548.0,4820.0,-15676.0,-268.0,-101.0,347.0,-0.14151641733353232,0.12382474745067289,-0.5546940254077307,-0.8105276514227177
-9836.197745800018,-1416.0,4656.0,-15528.0,-136.0,-40.0,373.0,-0.11549608518573168,0.10460792414638612,-0.548539764579601,-0.8214754793586417
-9836.213341474533,-1392.0,4848.0,-15468.0,243.0,16.0,333.0,-0.09299008217704306,0.0873552980708704,-0.5690479403148965,-0.8123461935277533
-9836.228928804398,-1452.0,4724.0,-15552.0,164.0,74.0,279.0,-0.07073967045588307,0.07742566896674095,-0.5834106523649428,-0.8053776601793456
-9836.244518518448,-1596.0,4568.0,-15712.0,119.0,156.0,94.0,-0.056975391349872895,0.082896498254245,-0.5935175808295832,-0.7985103985571584
-9836.260144472122,-1644.0,4476.0,-15452.0,74.0,238.0,-154.0,-0.05589086560372001,0.10709818549135937,-0.5987973696704189,-0.7917372669530677
-9836.275750875473,-1584.0,4560.0,-15512.0,56.0,333.0,-343.0,-0.06264721640048636,0.1476732170309209,-0.6008013728638366,-0.7831383387460599
-9836.29135131836,-1556.0,4532.0,-15740.0,-54.0,412.0,-674.0,-0.08618975591324976,0.2110149908118016,-0.5895156426494333,-0.7749292268974859
-9836.306944608688,-1596.0,4552.0,-15804.0,-184.0,358.0,-800.0,-0.11809299005172573,0.27699126145356184,-0.563555799959204,-0.7692429701410012
-9836.32254576683,-1336.0,4424.0,-15560.0,-206.0,326.0,-791.0,-0.14968913931290923,0.3389872041900689,-0.532635138417738,-0.760907777782484
-9836.338176965714,-1180.0,4456.0,-15496.0,-245.0,457.0,-577.0,-0.15908199855017646,0.39854021228715064,-0.5043421437241491,-0.7493314480195826
-9836.353842020035,-1476.0,4496.0,-15376.0,-237.0,750.0,-734.0,-0.16502572813241112,0.48117463136635147,-0.47186757404907803,-0.7201239308236195
-9836.369427919388,-1436.0,4568.0,-15364.0,-224.0,622.0,-977.0,-0.19030610897197467,0.5608825036819353,-0.42368353885272,-0.6853368958816288
-9836.384999513626,-1588.0,4656.0,-15520.0,-255.0,639.0,-1123.0,-0.21980094402813397,0.6407764641506385,-0.361876340377096,-0.6404206291729108
-9836.400576591492,-1660.0,4480.0,-15752.0,-262.0,798.0,-1399.0,-0.25542135777067415,0.7273910261579164,-0.2816249579400501,-0.5712701708690765
-9836.416143655777,-1780.0,4480.0,-15864.0,-239.0,878.0,-1739.0,-0.30081380491312204,0.8076201809856225,-0.17645125633283476,-0.47552671026663135
-9836.431730270386,-1788.0,4532.0,-15660.0,-235.0,950.0,-1697.0,-0.334970410008441,0.8669162544656671,-0.07109714388086619,-0.3622101990474302
-9836.447338342667,-1468.0,4260.0,-15568.0,-274.0,999.0,-1398.0,-0.34799450602394755,0.9049422950854668,0.01390933227142406,-0.24451134292371735
-9836.46295619011,-1492.0,4508.0,-15804.0,-300.0,1051.0,-1714.0,-0.35631188573227135,0.9201553092807513,0.12182131611982844,-0.10731082809852308
-9836.478634357452,-1580.0,4736.0,-15920.0,-391.0,1074.0,-2226.0,-0.34866846997546014,0.8976624003514682,0.2646057673273315,0.05114978922074283
-9836.494239091873,-1316.0,4540.0,-15712.0,-335.0,861.0,-2058.0,-0.32655680724657926,0.8404562782096737,0.390677462905541,0.18537803547495446
-9836.509834766388,-984.0,4352.0,-15688.0,-214.0,855.0,-1503.0,-0.31182893019623925,0.7726943992345598,0.46779097137163117,0.2947502176206103
-9836.525429725647,-1116.0,4388.0,-15848.0,-208.0,681.0,-1204.0,-0.2922063367664323,0.7065381796233631,0.5213344697178026,0.37898499729158686
-9836.541019678116,-1256.0,4160.0,-15652.0,-133.0,628.0,-927.0,-0.28033402282496434,0.643973599601892,0.5555270300129974,0.4450848880691106
-9836.556651592255,-1368.0,4720.0,-15772.0,-55.0,514.0,-1036.0,-0.2603805492424197,0.5723050509441597,0.5961548417342729,0.499267766751272
-9836.572265386581,-1540.0,4760.0,-15724.0,-187.0,709.0,-1441.0,-0.2227404279509776,0.466158496171083,0.6377221782658368,0.5713084819531442
-9836.587885141373,-1192.0,4364.0,-15768.0,-5.0,721.0,-1266.0,-0.19779539381891753,0.3570533368111893,0.6697624849971429,0.6203290340992166
-9836.603462219238,-1224.0,4580.0,-15656.0,-134.0,600.0,-1098.0,-0.16810548370255285,0.2611920714756621,0.6824743360137863,0.6616252933722567
-9836.619065523148,-1084.0,4448.0,-15956.0,-76.0,513.0,-531.0,-0.16581405388461506,0.20067961920684296,0.6814610700756543,0.6839913741712615
-9836.634675979614,-1144.0,4360.0,-15892.0,-112.0,403.0,-643.0,-0.14900866242217264,0.1397185387778293,0.6789175117223243,0.7052277367784896
-9836.650253772736,-1220.0,4328.0,-16024.0,-66.0,200.0,-445.0,-0.1324615965656047,0.10181848419925883,0.6772913954985506,0.7164937454676642
-9836.665878295898,-1088.0,4484.0,-16124.0,-62.0,159.0,-292.0,-0.12292541106241585,0.07530349785674653,0.6741150827397435,0.7244222399598618
-9836.68149471283,-1480.0,4796.0,-15720.0,-42.0,66.0,-449.0,-0.0979988675531563,0.045120555369632595,0.6734065274793646,0.7313576458816977
-9836.69709610939,-808.0,4068.0,-16084.0,17.0,-133.0,-71.0,-0.08566178322582778,0.04927929108743465,0.6760866484423583,0.7301646760577167
-9836.71272778511,-1292.0,4056.0,-16108.0,-68.0,-597.0,507.0,-0.08220676881300369,0.11744821257914934,0.6726934617318494,0.7259004553425413
-9836.728323221207,-1044.0,4200.0,-16036.0,-196.0,-819.0,928.0,-0.0903128406486226,0.22388069470707753,0.6529881736714662,0.7178631278988047
-9836.743946313858,-968.0,4344.0,-15424.0,-1.0,-879.0,1559.0,-0.1361483728472679,0.3634131155624486,0.622085604647063,0.6800029621252642
-9836.75956082344,-1316.0,4264.0,-15596.0,-494.0,-978.0,1235.0,-0.1391383650410803,0.48937056279410485,0.5596661530384767,0.6541641726565194
-9836.775158166885,-1384.0,4352.0,-15696.0,-672.0,-832.0,1100.0,-0.13131539861911656,0.5935478077065529,0.48034428317247074,0.6322393816235844
-9836.790722370148,-1708.0,4724.0,-15576.0,-830.0,-657.0,158.0,-0.06907464247362118,0.6432438109829804,0.4321904096395453,0.6282336692782671
-9836.806316614151,-1628.0,4760.0,-15296.0,-781.0,-454.0,-111.0,-0.0019122770242766042,0.6666802387474446,0.3972531124007507,0.6306534445701134
-9836.821941614151,-1364.0,4700.0,-15444.0,-636.0,-243.0,-62.0,0.04692052146340397,0.6769456539569586,0.36540529256291004,0.6371985706366596
-9836.837519407272,-1632.0,4780.0,-15516.0,-558.0,-136.0,32.0,0.08239877687018987,0.6825325924254054,0.3316666403015508,0.6460316877355426
-9836.853131055832,-1440.0,4716.0,-15684.0,-304.0,-15.0,119.0,0.09423619015032497,0.684518326698213,0.30735589808772334,0.6542832359085167
-9836.8687479496,-1380.0,5100.0,-15652.0,-258.0,188.0,168.0,0.09501003861318008,0.6760010415926018,0.28414455562451224,0.6732440536962714
-9836.884327888489,-1608.0,4392.0,-15716.0,-186.0,155.0,126.0,0.09474552197760167,0.6684658225751128,0.2671369044261129,0.6876151571975443
-9836.899965763092,-1392.0,4644.0,-15592.0,-84.0,283.0,309.0,0.07449308332738584,0.6577216025896208,0.24638549693429787,0.7079175523489717
-9836.915589571,-1288.0,4568.0,-15736.0,-165.0,190.0,94.0,0.07409366198720019,0.6469470162045334,0.23211150571939912,0.7225606800747263
-9836.93130517006,-1240.0,4504.0,-15900.0,-181.0,193.0,222.0,0.06641555367104793,0.6380138908337105,0.2094601507993387,0.7380065681014746
-9836.946911096573,-1300.0,4512.0,-15752.0,-327.0,38.0,329.0,0.06273109548079676,0.6393637705604779,0.17030264726486138,0.7471785508759256
-9836.96254324913,-1312.0,4736.0,-15528.0,-421.0,-252.0,362.0,0.06631686275280407,0.658148648979509,0.1212358690877958,0.7400974892590837
-9836.978157281876,-1416.0,4908.0,-15628.0,-477.0,-107.0,-54.0,0.0982926742744407,0.6613340570787787,0.09294213912748925,0.73779236503647
-9836.99379992485,564.0,6500.0,-15496.0,-1641.0,1970.0,-2240.0,0.3079951871786639,0.48167906229443985,0.1280526523365714,0.8103867989124071
-9837.009415626526,-3300.0,4068.0,-15608.0,-992.0,597.0,-2013.0,0.4757206783915955,0.38275519872925995,0.15556929669816175,0.7765220459981829
-9837.025002002716,-208.0,4468.0,-15808.0,-633.0,1079.0,-130.0,0.48806126273605277,0.2801729872141951,0.1610114120385114,0.8107864245566332
-9837.040600061417,-2276.0,4740.0,-15684.0,-612.0,180.0,-640.0,0.5440736009155177,0.23186501776987758,0.1408253164901182,0.7939715111745852
-9837.056199073792,-884.0,5220.0,-15768.0,-699.0,522.0,-1064.0,0.6210390774619511,0.14859417115763332,0.13794053455181848,0.7571014763495995
-9837.071848392487,-1788.0,4624.0,-15716.0,-630.0,569.0,-1197.0,0.6957391903119191,0.06212435833242062,0.14178468781605355,0.7014161713753145
-9837.087451934814,-1336.0,4756.0,-15824.0,-762.0,396.0,-815.0,0.7408864241161888,-0.01821918435691635,0.12323955824629267,0.6599752867834934
-9837.103058338165,-1400.0,4804.0,-15716.0,-137.0,59.0,-274.0,0.7554978154463744,-0.03332574298940778,0.11899924473670245,0.6433907253466234
-9837.118658542633,-1092.0,4968.0,-15628.0,-163.0,-56.0,198.0,0.7442563100847709,-0.038776738389980775,0.1070186771445175,0.6581230220871126
-9837.134248971939,-1460.0,4968.0,-15588.0,-223.0,-69.0,54.0,0.7408505323667404,-0.048716158961724744,0.09021365481384412,0.6637987052059245
-9837.149834632874,-1288.0,4984.0,-15872.0,-279.0,97.0,-1487.0,0.8178847793923919,-0.08329298437323951,0.07368235981794737,0.5645331489329181
-9837.165444374084,-2004.0,3928.0,-15692.0,-422.0,446.0,-351.0,0.8276274409851245,-0.1374049739784867,0.0823437462689758,0.537933266776443
-9837.181042671204,-1340.0,4728.0,-15716.0,-611.0,355.0,-546.0,0.8407823023232494,-0.20156695544393205,0.07285356586633167,0.49714006126406657
-9837.196698665619,-1516.0,4864.0,-15680.0,-459.0,336.0,-431.0,0.847556237037626,-0.252212709878466,0.07016370127365877,0.461642967083829
