programtime,ax,ay,az,gx,gy,gz,q0,q1,q2,q3
-10447.015310287476,280.0,300.0,17444.0,137.0,2944.0,-967.0,0.9653129167664535,0.011773683806869793,0.24778356710064162,-0.08145954191093818
-10447.030885219574,756.0,604.0,16780.0,-401.0,1914.0,-955.0,0.9015402823135378,-0.02854251060033086,0.4053625812128569,-0.14863250723548513
-10447.046477794647,1960.0,220.0,15736.0,-582.0,1594.0,-543.0,0.8268336362399527,-0.0719995192256735,0.5304156200288273,-0.17268896097586636
-10447.062059164047,2220.0,-1124.0,15528.0,-636.0,2156.0,66.0,0.7105774628815404,-0.08080560325254751,0.6828492527229706,-0.14922138514135805
-10447.077624320984,1484.0,-1808.0,16000.0,-656.0,2912.0,699.0,0.5231867916613357,-0.04047819927497772,0.8470646871251363,-0.08437127615585867
-10447.093176364899,1136.0,-1976.0,16864.0,-735.0,3011.0,1122.0,0.29435096624967866,0.02987824690752525,0.9551763586546934,0.010145092250639543
-10447.10878944397,1004.0,-1408.0,16964.0,-785.0,2594.0,1724.0,0.07570283086104906,0.1455466294751492,0.9788828881666528,0.12195716995141916
-10447.124369621277,768.0,-800.0,16276.0,-669.0,2309.0,2012.0,-0.12974710897062122,0.27824183667015445,0.9273564023965485,0.21390949248295593
-10447.139973640442,424.0,-380.0,15480.0,-405.0,2136.0,2027.0,-0.3200989324243185,0.39398366260882145,0.8192212044780811,0.2668148518947776
-10447.155565977097,228.0,192.0,14896.0,-247.0,1866.0,1946.0,-0.4772715388659014,0.48325633326806455,0.6757468480868354,0.28642868544471406
-10447.171170949936,-460.0,364.0,14936.0,274.0,1486.0,1833.0,-0.6094176087667604,0.5314636838140805,0.5319907022366361,0.251281562486271
-10447.186785459518,-388.0,572.0,15584.0,391.0,1145.0,1621.0,-0.7054542434389373,0.5522136162354528,0.3982280053024596,0.1969997163728529
-10447.202422857285,-96.0,764.0,16388.0,196.0,1076.0,1426.0,-0.7675323801982625,0.5642100593885605,0.263312659863712,0.15240569998344466
-10447.218019485474,-24.0,532.0,17008.0,-79.0,1175.0,1154.0,-0.7978783195708471,0.5743475113073291,0.1253549857771542,0.13342132870979836
-10447.233608484268,68.0,612.0,16956.0,-220.0,1256.0,797.0,-0.8030897776405612,0.57864997341121,-0.00463109935363988,0.1420900075276808
-10447.249179124832,-136.0,488.0,16768.0,-84.0,1575.0,366.0,-0.7949543527133646,0.559143103505983,-0.13324470077467182,0.1940423062613962
-10447.264779567719,-380.0,316.0,16624.0,71.0,1927.0,-211.0,-0.7616965095646026,0.5165252309352126,-0.251843488113832,0.2993241898328382
-10447.280348062515,-468.0,144.0,16068.0,130.0,1944.0,-652.0,-0.6967738869849692,0.46387865863986716,-0.3427707116266963,0.42641643932341944
-10447.295971155167,-612.0,-32.0,15808.0,166.0,1853.0,-824.0,-0.6079634951039713,0.40302783855077895,-0.40943310887742557,0.5480086489545732
-10447.311552286148,-1100.0,-612.0,16008.0,304.0,1560.0,-1002.0,-0.5082697403308198,0.343374990086414,-0.4364909671928599,0.6582029495575341
-10447.327136278152,-996.0,-984.0,16160.0,480.0,1358.0,-813.0,-0.41992223201859724,0.2720973043105532,-0.44010449376428545,0.7456114340673242
-10447.342725992203,-752.0,-1192.0,16144.0,594.0,1306.0,-447.0,-0.35180828180486734,0.18084168292794264,-0.4348194593145824,0.8089865613041235
-10447.358323097229,-688.0,-1392.0,16884.0,526.0,1419.0,-242.0,-0.2866568093683057,0.07293532542082652,-0.4333844399899285,0.8512850516267492
-10447.373982906342,-592.0,-1196.0,16496.0,296.0,1397.0,-134.0,-0.2240250833001261,-0.03299157425568636,-0.4418319594915367,0.8680488682397853
-10447.389566659927,-548.0,-1168.0,16412.0,221.0,1350.0,-101.0,-0.1625391969557757,-0.13473101005810764,-0.4483639375269679,0.8685610766704936
-10447.405192375183,-592.0,-1060.0,16396.0,253.0,1362.0,-214.0,-0.08938987685761711,-0.23142274196065102,-0.4474956756140164,0.8591860012392829
-10447.42078256607,-572.0,-888.0,16728.0,340.0,1392.0,-468.0,0.006879303869959556,-0.31737162115716266,-0.4383708587119966,0.8408679560397376
-10447.43636584282,-568.0,-696.0,16456.0,465.0,1377.0,-836.0,0.13240422022313728,-0.3820055626806981,-0.42194166049750675,0.8114838924370052
-10447.451987981796,-396.0,-644.0,16488.0,538.0,1201.0,-1131.0,0.27161246689756674,-0.4143705594238878,-0.4029519810502401,0.7695150474657656
-10447.467577695847,-208.0,-596.0,16404.0,599.0,1047.0,-1388.0,0.41802432032731474,-0.41623409772387887,-0.38308468735172085,0.71081007718202
-10447.483161449432,-120.0,-596.0,16132.0,548.0,930.0,-1466.0,0.553107011072503,-0.399781442319573,-0.36373758020087926,0.6339892786387895
-10447.498753070831,-112.0,-640.0,16556.0,459.0,867.0,-1576.0,0.6751304220939824,-0.37059925033892716,-0.3468322490947593,0.535315327446634
-10447.514342069626,-56.0,-824.0,16444.0,339.0,926.0,-1556.0,0.7769366532137452,-0.34225030531606776,-0.32248386924096084,0.41861476262007496
-10447.52998161316,64.0,-1068.0,16468.0,215.0,962.0,-1575.0,0.8568786007289694,-0.31423397286747545,-0.2924754527346646,0.28543682918701824
-10447.545544862747,-48.0,-1092.0,16324.0,182.0,885.0,-1625.0,0.9130908554934468,-0.27740102814749795,-0.2627247909398337,0.14244101734604842
-10447.561163902283,-20.0,-996.0,16360.0,198.0,538.0,-1512.0,0.9397929307247876,-0.2311804830989566,-0.251330311948436,0.013338136667069381
-10447.576749563217,48.0,-672.0,16076.0,138.0,316.0,-1506.0,0.9428141469583488,-0.1853509059477088,-0.2531513558324408,-0.1125207403093397
-10447.59234547615,-48.0,-384.0,16272.0,26.0,182.0,-1469.0,0.9252197017103827,-0.1475912691156316,-0.2598172755676388,-0.23383820082355472
-10447.607995033264,28.0,-356.0,16324.0,-239.0,115.0,-1537.0,0.8852943878926399,-0.12838190421538218,-0.26279122982633574,-0.36154211782611245
-10447.623604774475,-68.0,-448.0,16252.0,-339.0,-80.0,-1740.0,0.8151150545351843,-0.11570549007649614,-0.2742560491550815,-0.4969741511770074
-10447.639266490936,-180.0,-728.0,16232.0,-222.0,-407.0,-1888.0,0.7111514575143383,-0.10241142116387267,-0.3079965552581911,-0.6236293989538308
-10447.65486574173,-60.0,-820.0,16268.0,12.0,-743.0,-2015.0,0.5717264166150817,-0.08637425586738356,-0.36615986415596535,-0.7291058540082631
-10447.670458078384,60.0,-800.0,16392.0,227.0,-930.0,-1842.0,0.4197279405628195,-0.07411402611382106,-0.43361767946430546,-0.7939214539865294
-10447.68605518341,176.0,-1012.0,16596.0,286.0,-950.0,-1604.0,0.2708781284533738,-0.06782427563096191,-0.49179790306111404,-0.8247179697965991
-10447.701681613922,52.0,-580.0,16076.0,74.0,-862.0,-1496.0,0.12523769700950524,-0.06317203148671742,-0.520294977665245,-0.8423882417875495
-10447.717338323593,-440.0,-596.0,15504.0,-159.0,-764.0,-1389.0,-0.012339054750676573,-0.05742808602212193,-0.5194419183151066,-0.8524845196018621
-10447.732928276062,-856.0,-760.0,15176.0,-231.0,-838.0,-1195.0,-0.13926944885445572,-0.06478771184968218,-0.5029978293169778,-0.8505291039767348
-10447.74851679802,-1156.0,-752.0,15252.0,-54.0,-1149.0,-1116.0,-0.2702701388462064,-0.09942826742041454,-0.48641542960621253,-0.8249049045355656
-10447.764069080353,-1092.0,-656.0,15496.0,14.0,-1648.0,-961.0,-0.40379635982943163,-0.1751538169657467,-0.4504999886300208,-0.7767363776952776
-10447.77966594696,-824.0,-572.0,15908.0,98.0,-1849.0,-852.0,-0.5245886919184646,-0.26620417910452515,-0.3985650737649187,-0.7036248441558365
-10447.795283079147,-604.0,-376.0,16252.0,88.0,-1718.0,-857.0,-0.6262641429296252,-0.3410533427520442,-0.3403033912786631,-0.6129187895329362
-10447.810922384262,-676.0,84.0,16364.0,-49.0,-1413.0,-904.0,-0.7105558817859661,-0.3828870052808292,-0.28418806684222836,-0.5174408398173879
-10447.826536417007,-844.0,276.0,16340.0,-272.0,-1246.0,-1015.0,-0.7885434200840234,-0.39299053262783445,-0.22615888705303333,-0.4154634444978471
-10447.84216928482,-1068.0,272.0,16372.0,-429.0,-1039.0,-1394.0,-0.8639204970713615,-0.3689520245730124,-0.18457430890705584,-0.2888738527366736
-10447.857793569565,-1176.0,200.0,16012.0,-599.0,-1429.0,-1883.0,-0.9328957369840526,-0.3220489432380963,-0.11959183713713943,-0.10811019640334893
-10447.873387813568,-1128.0,140.0,15904.0,-699.0,-1799.0,-2065.0,-0.9620316189147499,-0.252725417179839,-0.02378066626556713,0.10029709682492143
-10447.888989925385,-868.0,-152.0,15984.0,-528.0,-2099.0,-2644.0,-0.9151139523301735,-0.17655807276601782,0.08578044225620995,0.35218662228728626
-10447.904609441757,-860.0,-728.0,15944.0,-316.0,-2215.0,-2719.0,-0.7837028053270645,-0.09877866760668809,0.20161017171272472,0.5791424923197246
-10447.920290708542,-972.0,-1032.0,16048.0,-140.0,-2498.0,-2586.0,-0.582270051008717,-0.007942593069782972,0.32709399836292025,0.7442499708757748
-10447.935956001282,-1016.0,-1560.0,16032.0,68.0,-2909.0,-2433.0,-0.32390234215111874,0.1026439700358895,0.453238357692006,0.8240913051846527
-10447.951554775238,-948.0,-1580.0,16548.0,288.0,-3415.0,-2200.0,-0.031249950796567293,0.2384643066436509,0.5559631249663208,0.7956526998068053
-10447.967158555984,-756.0,-1620.0,17140.0,429.0,-3589.0,-1853.0,0.2475929974397064,0.3737898099850762,0.5975588259385803,0.6647573505521
-10447.982778787613,-540.0,-1572.0,17860.0,584.0,-4010.0,-1782.0,0.5047816382143689,0.4907391235000076,0.562323202381641,0.4337778538045923
-10447.998373270035,-280.0,-1756.0,18180.0,815.0,-4106.0,-1333.0,0.6740999091879027,0.5757519478904409,0.43818176975752315,0.1486463709122731
-10448.014019012451,200.0,-1724.0,18912.0,1024.0,-4135.0,-1182.0,0.7428321543641704,0.6011581181725516,0.2495596030907018,-0.15661836387580227
-10448.02963066101,932.0,-1384.0,19224.0,1216.0,-4234.0,-1311.0,0.6992462661375446,0.5507662954285376,0.025187065650546007,-0.4550568742877553
-10448.045240163803,1948.0,-752.0,19924.0,1026.0,-3879.0,-1819.0,0.5472097679773421,0.42481064706178495,-0.15390549296830472,-0.7045640376909071
-10448.060864448547,3500.0,-424.0,20128.0,1080.0,-2839.0,-2495.0,0.29856943757746907,0.31697407125126026,-0.24911459214489792,-0.8650581767023279
-10448.076496124268,4604.0,-640.0,19020.0,672.0,-1630.0,-3391.0,-0.01087039466111792,0.2702980050922056,-0.2356498684772776,-0.9334291416330044
-10448.092103004456,5348.0,-1464.0,17504.0,478.0,-1375.0,-4182.0,-0.364834635500476,0.22724761617540262,-0.16276020409731357,-0.8881234855829635
-10448.10777926445,6088.0,-2516.0,16228.0,681.0,-1441.0,-4141.0,-0.6712438380347926,0.1421854059606774,-0.08145734039072287,-0.7228967574478311
-10448.123368740082,6976.0,-3612.0,15848.0,1017.0,-1048.0,-3522.0,-0.8668083449675997,0.03923190424369734,-0.03820477192712057,-0.495625409140755
-10448.138978242874,7244.0,-5000.0,15840.0,1257.0,363.0,-2420.0,-0.9476805200308432,-0.031214289124087524,-0.10834266798885638,-0.2986455531254484
-10448.154624462128,6512.0,-4864.0,16476.0,1305.0,1469.0,-1468.0,-0.947126095862348,-0.08495829114298942,-0.2616349380031562,-0.16517084040076258
-10448.170221805573,6148.0,-3796.0,17472.0,690.0,2022.0,-783.0,-0.8898650580589085,-0.09306308395945974,-0.43579508224796876,-0.09778592505190159
-10448.185805797577,5596.0,-2080.0,17868.0,-559.0,1749.0,-752.0,-0.8221760345936604,-0.005975875590966925,-0.5644025857025302,-0.0737602759150452
-10448.201382398605,5444.0,-1816.0,17884.0,-1928.0,999.0,-1009.0,-0.7640600170872109,0.18456114777068403,-0.6108688923421233,-0.09480859344471754
-10448.216971635818,5832.0,-2488.0,18152.0,-2544.0,373.0,-1452.0,-0.6926644412526612,0.42097837985752756,-0.5724718517578419,-0.12356842016315296
-10448.232572555542,6244.0,-3388.0,18400.0,-2846.0,268.0,-1918.0,-0.5702843588051034,0.6625088156606413,-0.46678842503446777,-0.1340387463684574
-10448.248161554337,6000.0,-3836.0,18016.0,-2633.0,971.0,-2372.0,-0.3868764935834309,0.8584953911669769,-0.33050402913099786,-0.0638696233418131
-10448.263809919357,5492.0,-3472.0,17244.0,-2355.0,1349.0,-2649.0,-0.17686474011770553,0.9701811813343246,-0.15606061517171801,0.05578909821869616
-10448.279435157776,4996.0,-3036.0,16264.0,-2148.0,1760.0,-2737.0,0.040064345865097585,0.9770111927246724,0.03607975106179231,0.20625767632850434
-10448.295048475266,4844.0,-2144.0,15448.0,-2171.0,1999.0,-2625.0,0.2516464849060333,0.8746137060968393,0.21541264979551056,0.3540089010887521
-10448.310683250427,4600.0,-1852.0,14592.0,-2326.0,2087.0,-2422.0,0.43941370663190465,0.6743991468663624,0.35378808376889437,0.47637734718715025
-10448.326279640198,4300.0,-1848.0,14236.0,-2328.0,2248.0,-2063.0,0.5621463593311354,0.40567952118006884,0.4405214504725883,0.5704002528570504
-10448.34186720848,4164.0,-2140.0,13704.0,-2836.0,2392.0,-1744.0,0.6190203342638394,0.07559505542736752,0.45034208077988874,0.6389767003902866
-10448.357489824295,4092.0,-2792.0,13808.0,-3037.0,2257.0,-1785.0,0.6105125555948012,-0.26729248932552546,0.3893339124792786,0.6358051975289648
-10448.373085975647,3844.0,-3232.0,13552.0,-2963.0,1958.0,-1222.0,0.5157398143824884,-0.5466865144074535,0.28559914354032084,0.5946254518894903
-10448.38871049881,4052.0,-3620.0,13672.0,-2669.0,1778.0,-820.0,0.37150992314933057,-0.7488649397791047,0.18050269362551466,0.5182667812672833
-10448.40433883667,3760.0,-4252.0,13776.0,-2195.0,869.0,-416.0,0.22828700340727076,-0.8475125653292498,0.08040056847080905,0.4723804020849443
-10448.41995882988,3776.0,-4408.0,13960.0,-1633.0,212.0,29.0,0.10378395101627044,-0.879515730273478,0.019210363289366632,0.4640171695694605
-10448.435544013977,3940.0,-4236.0,14364.0,-1147.0,-300.0,401.0,2.1863844282227054e-05,-0.8718648201167848,0.0007985059436858323,0.4897459518494838
-10448.451113939285,4068.0,-4052.0,14772.0,-679.0,-468.0,603.0,-0.07707444973620609,-0.8484152155157052,0.0175800821506187,0.5233947764268173
-10448.466700792313,4016.0,-3380.0,15552.0,-430.0,-757.0,404.0,-0.12577179248758133,-0.8074420379330232,0.03282284453294971,0.5754489312439403
-10448.482301712036,4176.0,-2788.0,16044.0,-319.0,-305.0,-95.0,-0.1425066454950155,-0.7882224155496179,0.013431866171827055,0.5985122092205183
-10448.497877836227,4184.0,-2368.0,16340.0,-320.0,-9.0,-637.0,-0.13099155856181982,-0.7829408760106567,-0.04692060428175229,0.6063359243447858
-10448.513530254364,4176.0,-2180.0,16356.0,-421.0,381.0,-1061.0,-0.10149729140597805,-0.7895403623332233,-0.14527909704344777,0.5875528061767835
-10448.529153108597,3708.0,-2368.0,15988.0,-622.0,638.0,-1398.0,-0.06390738508948453,-0.790729145260567,-0.27630897074372784,0.5425095553564556
-10448.54474568367,3436.0,-2836.0,16044.0,-538.0,744.0,-1495.0,-0.012145920238908581,-0.7777868348386892,-0.40441414957144173,0.48098784995004973
-10448.560338020325,3104.0,-3368.0,15940.0,-357.0,536.0,-1436.0,0.042455122323032564,-0.7422080023933008,-0.5126507133901314,0.429551032861605
-10448.57596540451,3048.0,-3748.0,16136.0,-112.0,786.0,-1410.0,0.12206552363427572,-0.7019942356701071,-0.5993346800693613,0.364831525902009
-10448.591550827026,2568.0,-3740.0,16384.0,58.0,682.0,-1766.0,0.21467229065283808,-0.6222257472985947,-0.6890736820179928,0.30319694552342535
-10448.607135534286,2660.0,-3228.0,16472.0,207.0,693.0,-1511.0,0.30440982415220813,-0.5400291264544469,-0.7447409374880463,0.2471115893071274
-10448.622767686844,2832.0,-2704.0,16492.0,187.0,983.0,-1437.0,0.4035077725176798,-0.4575035710477393,-0.7733179686027829,0.17277522806366674
-10448.638343334198,3012.0,-2452.0,16532.0,278.0,1376.0,-1562.0,0.5224261575185142,-0.3570428416736293,-0.7701622263552581,0.08025873314208792
-10448.653974533081,3260.0,-2352.0,16548.0,393.0,1710.0,-1761.0,0.6470036540502762,-0.22738752437378987,-0.7273167334126976,-0.026297427680909695
-10448.669555664062,2904.0,-2364.0,16128.0,443.0,2063.0,-2021.0,0.7579627383603138,-0.06714957697937106,-0.6316097869441145,-0.14850083705230901
-10448.685186386108,2536.0,-2452.0,16008.0,557.0,2291.0,-2327.0,0.8237192400369556,0.12265895170957707,-0.48103138465254897,-0.27395291956410966
-10448.700779676437,2552.0,-2564.0,15908.0,713.0,2376.0,-2396.0,0.8222033253290668,0.31718509782842363,-0.2886250486599046,-0.3742604531866353
-10448.71640253067,2064.0,-2788.0,15992.0,942.0,2452.0,-2217.0,0.7524470644343915,0.4986101216292706,-0.0784809076898485,-0.42314549384471567
-10448.732009887695,1868.0,-2968.0,15828.0,1100.0,2559.0,-2294.0,0.6080368782279909,0.6494821775220512,0.141956802315161,-0.43394967688941577
-10448.74758219719,1556.0,-2964.0,15548.0,1263.0,2440.0,-1633.0,0.4280789781894393,0.7596131019231931,0.3045657534153352,-0.3833745240172584
-10448.763186693192,1812.0,-2568.0,14964.0,1330.0,1982.0,-1108.0,0.24381820968016277,0.8246681451180808,0.39723781216043486,-0.3204329128629819
-10448.778800725937,1792.0,-2696.0,14680.0,1314.0,1495.0,-324.0,0.08700435548176058,0.8698265935137316,0.4093307342884528,-0.26130497375744116
-10448.794437885284,1768.0,-2840.0,14816.0,1530.0,1258.0,362.0,-0.06487484382742065,0.9091299176033155,0.3511153334106766,-0.2144576186589469
-10448.810060501099,1244.0,-2956.0,15096.0,1130.0,497.0,867.0,-0.15226988222140767,0.9305629970215972,0.25612714734302716,-0.2127563769582121
-10448.825650215149,1496.0,-2756.0,15348.0,1071.0,-478.0,1367.0,-0.20076844262938115,0.9266116135270711,0.12994729360669566,-0.2901665918144709
-10448.841250419617,1976.0,-2352.0,15300.0,988.0,-855.0,1821.0,-0.2207220681828037,0.8913688019215747,-0.02687844069630446,-0.3949949075668413
-10448.85687828064,2384.0,-2460.0,14744.0,851.0,-854.0,2181.0,-0.20890344365518085,0.8211645698153777,-0.2046750608340316,-0.4900573639702986
-10448.872501373291,2544.0,-2480.0,14408.0,692.0,-655.0,2534.0,-0.15751450623231159,0.7154973966276822,-0.39312650051359005,-0.5556115642599049
-10448.888090848923,1656.0,-2464.0,14660.0,536.0,-640.0,2730.0,-0.07818916627360974,0.5660411137377496,-0.5635631175767163,-0.5965572263774684
-10448.903710842133,1188.0,-2372.0,15172.0,537.0,-1419.0,2648.0,-0.03541770388294597,0.3460962410345929,-0.6886150148218476,-0.6362172109863831
-10448.919430494308,1184.0,-2340.0,15784.0,929.0,-2204.0,2637.0,-0.04729236271967471,0.059466885308355304,-0.7763689978383922,-0.625682268548122
-10448.935071706772,1952.0,-2332.0,16304.0,1426.0,-2546.0,2671.0,-0.07689964649800583,-0.251913150270028,-0.8105740455505946,-0.5230639786577305
-10448.950649023056,2488.0,-2544.0,16880.0,1629.0,-2324.0,2646.0,-0.08022200309327852,-0.5267923680737497,-0.7682544822004329,-0.3547383285435865
-10448.966227054596,2472.0,-2344.0,17204.0,1572.0,-1989.0,2493.0,-0.061237928163555076,-0.7321305120071895,-0.6574081739458639,-0.1674793192352133
-10448.981816768646,2708.0,-2120.0,17120.0,1380.0,-1459.0,2359.0,-0.021502438425011556,-0.8651396860178882,-0.50101501514566,-0.007411033480054242
-10448.99740409851,2656.0,-1772.0,17052.0,1349.0,-919.0,2238.0,0.04047547998399988,-0.9390836429758116,-0.32186675251957886,0.11351405480310922
-10449.013040542603,2372.0,-1392.0,16936.0,1519.0,-594.0,2087.0,0.12436420182038382,-0.9611080187160227,-0.1342840028639174,0.2068156866395382
-10449.02870631218,2252.0,-1464.0,16816.0,2047.0,-592.0,2063.0,0.2439077720391803,-0.9219655622329075,0.06711590471009964,0.2932302101257423
-10449.044297218323,2140.0,-1776.0,16800.0,2014.0,-789.0,2079.0,0.34578805499465454,-0.8190521891336401,0.2604012855385803,0.376530613613635
-10449.0599193573,1956.0,-1860.0,16988.0,2089.0,-1428.0,2219.0,0.43628868884181105,-0.6318614805522035,0.42655910023511834,0.4779650441085384
-10449.075489997864,2112.0,-1924.0,17248.0,1894.0,-2490.0,2358.0,0.5063586032734303,-0.34817161164764293,0.5116544862211755,0.6004891176894124
-10449.091104984283,2440.0,-1900.0,17000.0,1436.0,-3112.0,2540.0,0.5209604372659196,-0.0075583688914231196,0.4933443694668798,0.6965302771443103
-10449.10671377182,2748.0,-2104.0,16876.0,1051.0,-3302.0,2622.0,0.4716882652252543,0.33090590047728236,0.38206561446233583,0.7225215095231606
-10449.122367620468,2716.0,-2064.0,16636.0,728.0,-2483.0,2758.0,0.3414471160663131,0.5786558946312412,0.23353157212673645,0.7028756841423172
-10449.138006448746,2508.0,-2304.0,16252.0,540.0,-2014.0,2912.0,0.16854605746107543,0.742153470250883,0.05676062439733067,0.6462032842898006
-10449.153609514236,2356.0,-1880.0,16040.0,446.0,-1697.0,2888.0,-0.014231359638712344,0.823585909946454,-0.12485123570891882,0.5530966337652591
-10449.169199466705,2296.0,-1688.0,15852.0,412.0,-1555.0,2561.0,-0.17835022676148493,0.8413605439397759,-0.27763370020435446,0.42804574548327196
-10449.184790611267,2508.0,-1764.0,15492.0,442.0,-1523.0,2826.0,-0.34001196617073354,0.7917897887228735,-0.42815127346473253,0.27229998230889985
-10449.200376033783,2384.0,-1372.0,15480.0,415.0,-1804.0,2662.0,-0.4805725998229464,0.6955106439234647,-0.5279736504106696,0.0809860788074935
-10449.216053724289,2324.0,-1240.0,15564.0,577.0,-2077.0,2447.0,-0.6046762112951601,0.5512735756170122,-0.5629273299778756,-0.11652015054978797
-10449.23162651062,2292.0,-1228.0,16020.0,657.0,-2351.0,2163.0,-0.7020000981373212,0.37157658929538684,-0.5285318184787479,-0.29963447291382644
-10449.247267007828,2252.0,-1180.0,16592.0,608.0,-2351.0,1744.0,-0.7592195876227946,0.18606687640910183,-0.4420101552838105,-0.4399906338766943
-10449.26284813881,2628.0,-1236.0,17180.0,752.0,-2027.0,1213.0,-0.7849520084962586,0.011257045604301623,-0.3480150808549761,-0.5124540240640685
-10449.278453826904,2800.0,-1432.0,17384.0,324.0,-1661.0,698.0,-0.7944791429060218,-0.10511458044597481,-0.24601894808374022,-0.5451866594559608
-10449.294028043747,2932.0,-1580.0,17164.0,215.0,-1312.0,358.0,-0.7979453357419629,-0.18870845239106954,-0.16056194041700278,-0.5494471989675989
-10449.30963730812,3040.0,-1880.0,16848.0,143.0,-1115.0,327.0,-0.7914538053733001,-0.2552306875701215,-0.0837066331122119,-0.549045872086862
-10449.325211048126,2568.0,-2280.0,16504.0,178.0,-1191.0,412.0,-0.7717496130222367,-0.3253833258431809,-0.0006190887126512891,-0.5463770152490169
-10449.34080004692,2612.0,-2348.0,16632.0,343.0,-1265.0,628.0,-0.72637104282759,-0.4053593048590075,0.08546788461432824,-0.548419714092531
-10449.356403112411,2696.0,-2368.0,16312.0,401.0,-1435.0,902.0,-0.6508954103181845,-0.48693654108139145,0.18704121394678744,-0.5515827717321531
-10449.372046232224,2888.0,-1796.0,16236.0,298.0,-1792.0,1028.0,-0.5504973029778565,-0.5639133850968756,0.31302799528282566,-0.5300640411232441
-10449.387637853622,2988.0,-1736.0,16272.0,132.0,-1366.0,1261.0,-0.44258546049897174,-0.5911164887465234,0.4289553742935837,-0.5202852042404682
-10449.403259038925,3208.0,-1568.0,16296.0,54.0,-1080.0,748.0,-0.3630704674473015,-0.6101568022413905,0.503474395885474,-0.4923434218448701
-10449.418850898743,3276.0,-1460.0,16408.0,-19.0,-848.0,425.0,-0.3075529281408212,-0.6251209302212851,0.5518727214387846,-0.45833559574075416
-10449.434444665909,3340.0,-1384.0,16508.0,-256.0,-650.0,69.0,-0.28696221918961057,-0.639683480542243,0.5822027837329301,-0.41170092068486225
-10449.450045108795,3364.0,-1048.0,16736.0,25.0,-373.0,-171.0,-0.27263028601794964,-0.661940908993777,0.5806929378426409,-0.3876888856879263
-10449.465621232986,3276.0,-1480.0,16996.0,78.0,24.0,-367.0,-0.2816541180754934,-0.6811838677061359,0.5559472947191572,-0.38416415975787754
-10449.481183767319,3308.0,-1404.0,16724.0,90.0,369.0,-499.0,-0.31052528733574314,-0.6941581142807975,0.513386846399327,-0.39768392505523187
-10449.496762037277,3116.0,-1404.0,16484.0,33.0,499.0,-640.0,-0.35226996486239875,-0.7045941223114494,0.4587524826710994,-0.4110950672327574
-10449.512338638306,3004.0,-1540.0,16180.0,-252.0,394.0,-708.0,-0.407889156584055,-0.7090585664732642,0.4109789653865609,-0.40244089660696736
-10449.527958869934,2884.0,-1628.0,16012.0,39.0,208.0,-683.0,-0.4361411346373061,-0.7261656689055924,0.3592030567945704,-0.391710985255218
-10449.543544530869,2896.0,-1656.0,15980.0,53.0,247.0,-734.0,-0.464620318454751,-0.7409846546531338,0.3007483687142474,-0.3802895212378338
-10449.559146642685,3008.0,-1688.0,16140.0,-8.0,308.0,-786.0,-0.4980294608035734,-0.7489653237639188,0.2370229407448433,-0.3672025674359818
-10449.574775218964,3216.0,-1692.0,16320.0,-59.0,451.0,-934.0,-0.5390115260779689,-0.7481179617241552,0.15758710669473658,-0.3534860589957917
-10449.590352773666,3196.0,-1508.0,16280.0,-127.0,673.0,-1093.0,-0.5866530569764655,-0.7316984551069624,0.058093522058933755,-0.3421705776787955
-10449.605980157852,3320.0,-1308.0,16260.0,-156.0,843.0,-1233.0,-0.6323845718683355,-0.6987054881012524,-0.05865632427971684,-0.3293324001401703
-10449.621585607529,3348.0,-1412.0,15928.0,-272.0,823.0,-1451.0,-0.6791998973629545,-0.645508905667261,-0.182755214745493,-0.2976680762354874
-10449.637196779251,3316.0,-1492.0,16320.0,-302.0,638.0,-1662.0,-0.7204155589262625,-0.5772814561987324,-0.3025933873088346,-0.23703329880630136
-10449.652764558792,3436.0,-1564.0,16140.0,-293.0,555.0,-1887.0,-0.7484643029961583,-0.49010594784317646,-0.42016397670350025,-0.15185381032399886
-10449.668357372284,3384.0,-1708.0,16360.0,-293.0,641.0,-2120.0,-0.7515339457593594,-0.3775198923984042,-0.5386239206802803,-0.05059378702833706
-10449.683977365494,3352.0,-1604.0,16328.0,-270.0,699.0,-2063.0,-0.7236193817579797,-0.2550249475819856,-0.6395474499351771,0.0481282218289512
-10449.699564695358,3200.0,-1628.0,16044.0,-305.0,682.0,-2532.0,-0.6643845854236695,-0.09474486479208523,-0.7212815642808641,0.17137513902400742
-10449.715176343918,3260.0,-1616.0,15960.0,-373.0,614.0,-2700.0,-0.5717491231174182,0.08522660507054053,-0.7623717767078605,0.2909100205938487
-10449.730770349503,3156.0,-1532.0,15720.0,-467.0,537.0,-2763.0,-0.4487374240771065,0.2705179256263006,-0.7572664167368361,0.38987478788713564
-10449.746351957321,3112.0,-1668.0,15904.0,-575.0,405.0,-2893.0,-0.3000157259973431,0.45536290324014617,-0.7010269421469131,0.4595611133365626
-10449.761940002441,3056.0,-1836.0,15952.0,-661.0,500.0,-2837.0,-0.1252650437839737,0.6063482514693334,-0.607903988796589,0.4970947667709628
-10449.777531147003,3168.0,-1892.0,15908.0,-636.0,111.0,-2812.0,0.03519902545233113,0.7347303459538447,-0.47305991775309264,0.4849192319935218
-10449.793164014816,3340.0,-1848.0,16012.0,-612.0,92.0,-2773.0,0.1898862171385971,0.8186226788612424,-0.311369495916064,0.44367687702630293
-10449.808771848679,3408.0,-1936.0,16080.0,-662.0,24.0,-2786.0,0.33545060871107296,0.8560567205187992,-0.1334055048125119,0.3699226292830541
-10449.824374437332,3400.0,-2008.0,16116.0,-683.0,84.0,-2823.0,0.46397862371294835,0.8395835621965124,0.056174641991494405,0.27688930716801
-10449.840074062347,3420.0,-1796.0,16136.0,-614.0,215.0,-2757.0,0.5578223971737711,0.772673773887769,0.24471532321246867,0.17867238998333598
-10449.85569858551,3492.0,-2080.0,16460.0,-610.0,296.0,-2695.0,0.6168588940516501,0.6615422352330314,0.41920143016371914,0.07821212681516955
-10449.87128829956,3624.0,-2076.0,16484.0,-524.0,478.0,-2790.0,0.6291956209914641,0.5119973301354759,0.5842715882688314,-0.024460490615021244
-10449.886880397797,3600.0,-2188.0,16496.0,-471.0,694.0,-2422.0,0.5950511026470539,0.3552545946406408,0.7139418907515074,-0.09997667155592758
-10449.902455568314,3824.0,-2204.0,16272.0,-433.0,857.0,-2394.0,0.5212053516941154,0.18634655430169353,0.8160017688178847,-0.16661649483584454
-10449.918157815933,3440.0,-2196.0,16140.0,-403.0,843.0,-2306.0,0.42434570619555567,0.015626855172316958,0.877235190268207,-0.22393066781019827
-10449.933810710907,3304.0,-2196.0,15936.0,-321.0,522.0,-2155.0,0.3363627819537453,-0.1482866179907803,0.8889090698985487,-0.2733346361025087
-10449.949400901794,3284.0,-2340.0,16120.0,-227.0,663.0,-1918.0,0.232584809132155,-0.2834992575174341,0.8751368688848551,-0.3157022937300812
-10449.96498632431,3144.0,-2404.0,15808.0,-129.0,458.0,-1649.0,0.14733776040115037,-0.39506080742054894,0.8377997355954692,-0.34685752959444216
-10449.980639696121,3084.0,-2592.0,15720.0,25.0,271.0,-1243.0,0.09020181954315622,-0.4745151577003948,0.7927548452049269,-0.3718047232994569
-10449.996368169785,3080.0,-2720.0,15740.0,101.0,14.0,-769.0,0.06830753783346567,-0.5252668538647117,0.7559708843278188,-0.38462557709389666
-10450.012058258057,3204.0,-2748.0,15948.0,153.0,-133.0,-345.0,0.07247623798186148,-0.5512349246281573,0.7337434450420575,-0.39052248290719394
-10450.027665138245,3212.0,-2652.0,16060.0,185.0,-135.0,-8.0,0.08973986194228614,-0.5550501389928294,0.7260217491144177,-0.3959274178374888
-10450.043287277222,3164.0,-2560.0,16204.0,248.0,-188.0,325.0,0.12481542408530939,-0.5385735025833219,0.7311292560573958,-0.3997620581827341
-10450.05888557434,2952.0,-2332.0,16420.0,193.0,-123.0,567.0,0.16130950352697346,-0.5038399168517427,0.7486123303336782,-0.3996300303169048
-10450.074474096298,2836.0,-2148.0,16400.0,119.0,-19.0,654.0,0.19029758036250696,-0.45929895259753956,0.7716235865705185,-0.3967724079356171
-10450.090064048767,2696.0,-2020.0,16208.0,153.0,-48.0,665.0,0.22232362564009367,-0.41287701746174443,0.7907437524015586,-0.3934832804224856
-10450.105614185333,2588.0,-1860.0,15988.0,322.0,-97.0,960.0,0.27255264187366973,-0.34233420974102025,0.8091771508995499,-0.3921156522134272
-10450.121235609055,2940.0,-1900.0,15956.0,567.0,-28.0,1319.0,0.33403855588423975,-0.23478736321688348,0.8220401681519197,-0.39691699283502346
-10450.136851072311,2932.0,-1884.0,15944.0,709.0,-166.0,1449.0,0.4066695899356542,-0.11473932403511648,0.8141599928596953,-0.398243943040233
-10450.15243268013,2900.0,-1780.0,16108.0,844.0,-512.0,1567.0,0.499545833505428,0.008673723239993231,0.7722455358096153,-0.39244816113041375
-10450.168008565903,3264.0,-1620.0,15772.0,972.0,-820.0,1657.0,0.600998513750972,0.13246743427319374,0.6904699847397873,-0.3801372982221527
-10450.183594226837,3404.0,-1584.0,15728.0,857.0,-1012.0,1618.0,0.6943570811877949,0.2374041282129344,0.5805295889740341,-0.35283554248043325
-10450.199229717255,3412.0,-1804.0,15884.0,785.0,-950.0,1668.0,0.765242738130833,0.3347432927059358,0.45666567690869986,-0.30627918515617775
-10450.214845657349,3332.0,-2024.0,16156.0,838.0,-838.0,1846.0,0.8089059047159242,0.43391770909402044,0.3184408633702954,-0.2366053160566977
-10450.230460882187,3636.0,-2300.0,16620.0,868.0,-611.0,2001.0,0.8185924497132717,0.5278605287700605,0.17803471079551247,-0.13990462891189365
-10450.246055603027,3876.0,-2008.0,16900.0,816.0,-317.0,2180.0,0.7960854125182649,0.6034800419418636,0.04398448386770943,-0.011190180175567811
-10450.26163816452,3732.0,-1552.0,16796.0,659.0,66.0,2236.0,0.74806672507315,0.644570823355087,-0.06849640389606847,0.1422422974047594
-10450.277226448059,3464.0,-1296.0,16436.0,563.0,221.0,2078.0,0.6799812881961712,0.6544624453268773,-0.16115852329408709,0.2886733200860605
-10450.292850017548,3216.0,-1384.0,16000.0,564.0,331.0,1924.0,0.5947387579234968,0.6423826974099183,-0.23356539511242055,0.42317547908397557
-10450.308465003967,2968.0,-1548.0,15728.0,543.0,82.0,1823.0,0.49194933996733325,0.6217304542316847,-0.3072403976283791,0.5263462997416472
-10450.324070930481,2568.0,-1568.0,15616.0,618.0,-332.0,1886.0,0.357443893687804,0.6035930501179445,-0.38946272481511524,0.5968484553839478
-10450.33964586258,2748.0,-1712.0,15664.0,699.0,-515.0,1936.0,0.19890520732953326,0.5765179273859371,-0.46319457888075966,0.6430509933086912
-10450.355253696442,3036.0,-1688.0,15876.0,699.0,-1003.0,1968.0,0.012479995163529288,0.5540898891970948,-0.5296334988198641,0.6421191488642111
-10450.370828390121,3240.0,-1500.0,15976.0,687.0,-947.0,2005.0,-0.17338361642933026,0.5049016739896162,-0.5773365998574653,0.6178145932408775
-10450.386427879333,3296.0,-1456.0,15920.0,578.0,-810.0,1856.0,-0.3341897809644923,0.43889796934550507,-0.6054870889161732,0.5736472330266356
-10450.401997804642,3092.0,-1500.0,16180.0,487.0,-650.0,1681.0,-0.4652771579419111,0.36355405135368346,-0.6182994788844062,0.5187016217953178
-10450.417575120926,3396.0,-1400.0,16316.0,417.0,-485.0,1430.0,-0.5642359121075412,0.2886775662684114,-0.6192391444723017,0.46351481117082977
-10450.433173179626,3396.0,-1332.0,16132.0,378.0,-360.0,1099.0,-0.6341842934748964,0.22393552940653721,-0.6103615208627992,0.4184757751999645
-10450.448769569397,3416.0,-1244.0,16072.0,440.0,-485.0,796.0,-0.6949658176125074,0.1741621628204958,-0.5805266381428847,0.386883542940749
-10450.464359283447,3344.0,-1300.0,16212.0,374.0,-195.0,491.0,-0.7260354163547914,0.13295288751042936,-0.5624902088665982,0.37255988623357494
-10450.479969263077,3332.0,-1328.0,16404.0,438.0,-224.0,265.0,-0.7499234932434302,0.09934316010908016,-0.5363318051141255,0.37429117761995956
-10450.495565891266,3212.0,-1216.0,16288.0,403.0,-209.0,44.0,-0.7641159551833977,0.07766911298907954,-0.509292954682551,0.38822030115949696
-10450.51119351387,3188.0,-1124.0,16232.0,300.0,-506.0,-290.0,-0.7776202147110186,0.08755926886591506,-0.462470605474119,0.41684663268504074
-10450.52679347992,3092.0,-1188.0,16156.0,197.0,-193.0,-476.0,-0.7687876804688315,0.10031088517142721,-0.43785947994165536,0.45517282926455754
-10450.542430400848,3476.0,-1480.0,16056.0,142.0,-232.0,-664.0,-0.7511130174504292,0.12513534671727986,-0.40982158056138607,0.5022117602412599
-10450.55800819397,3352.0,-1772.0,16012.0,47.0,-326.0,-649.0,-0.7334201951259456,0.1592346845791658,-0.37831549799781194,0.5418639281065504
-10450.573582172394,3560.0,-2004.0,16104.0,12.0,-405.0,-651.0,-0.7146234447763679,0.19865562294841121,-0.34177835313681554,0.5770934352200016
-10450.58919763565,3492.0,-2304.0,16300.0,19.0,-347.0,-673.0,-0.689944966130512,0.2344709750268051,-0.30660388901875135,0.6123670148038047
-10450.604788303375,3356.0,-2016.0,16152.0,3.0,-124.0,-678.0,-0.6559454002006375,0.2585191717310792,-0.28435767968047376,0.6496492744626435
-10450.620372056961,3688.0,-1824.0,16268.0,-54.0,134.0,-746.0,-0.6078059386652501,0.2718391051831276,-0.27742587088593884,0.6926112387044187
-10450.636051654816,3532.0,-1640.0,16212.0,-133.0,252.0,-873.0,-0.5440653271089478,0.283785248260867,-0.27701840336196254,0.7394049343263411
-10450.651638269424,3384.0,-1572.0,16080.0,-196.0,325.0,-1045.0,-0.4617738908042328,0.29588156925696074,-0.2777067455319528,0.7887318519190221
-10450.667272090912,3552.0,-1404.0,16040.0,-204.0,295.0,-1255.0,-0.3606463358877102,0.31207837225339335,-0.2692876160469471,0.8366752594801603
-10450.682855129242,3208.0,-1560.0,15924.0,-182.0,294.0,-1361.0,-0.24755176558881956,0.3257510098087639,-0.25268593400026657,0.8767863033378439
-10450.698455810547,3108.0,-1296.0,16040.0,-242.0,228.0,-1524.0,-0.11793232716135398,0.3438172056590113,-0.2305053958898148,0.9026344541223852
-10450.71407175064,3172.0,-1348.0,16256.0,-245.0,193.0,-1514.0,0.012470961131697428,0.35817432017356193,-0.20436144912518855,0.9109292121828739
-10450.729652881622,3100.0,-1680.0,16196.0,-489.0,187.0,-1510.0,0.1497078989548285,0.3659680477681881,-0.19384093592463783,0.8978199288070702
-10450.745281219482,3308.0,-1828.0,16408.0,-215.0,243.0,-1517.0,0.27705018554742267,0.3662316789976548,-0.157525747283994,0.8742443542450342
-10450.7609000206,3120.0,-1888.0,16404.0,-168.0,271.0,-1514.0,0.39807775912591714,0.35882194668460654,-0.11430009171589808,0.8364905243339551
-10450.776528835297,2984.0,-1832.0,16472.0,-181.0,356.0,-1511.0,0.5128889199832974,0.33823995575908855,-0.06718031894684512,0.7861459742520193
-10450.792132139206,3060.0,-1676.0,16304.0,-169.0,439.0,-1561.0,0.6213282252718646,0.30636377452284064,-0.012934316091145915,0.7210583732319371
-10450.807751655579,3092.0,-1668.0,16352.0,-226.0,518.0,-1589.0,0.7202255542945597,0.26024069931281485,0.042875386687145835,0.6416475906435706
-10450.823472738266,3028.0,-1476.0,16264.0,-241.0,555.0,-1675.0,0.8077601178760205,0.20503907653104944,0.1009485018414821,0.5434077373760628
-10450.83908867836,3068.0,-1520.0,16056.0,-306.0,765.0,-1663.0,0.8740180977459785,0.13063315619489496,0.16772434619172036,0.4369163386846744
-10450.854701280594,2936.0,-1584.0,16028.0,-328.0,264.0,-1747.0,0.9292038269766965,0.06899980854038089,0.19265212374974086,0.30774085456430156
-10450.870295524597,2992.0,-1572.0,16328.0,-385.0,411.0,-1720.0,0.9589805803768657,-0.002237415795306821,0.22295223449106824,0.17505296788700386
-10450.88588476181,2992.0,-1664.0,16080.0,-395.0,332.0,-1745.0,0.9670530978743125,-0.07343669456044684,0.24105385695036588,0.03617175463097498
-10450.90150475502,3224.0,-1888.0,16332.0,-321.0,317.0,-1722.0,0.9524109355849668,-0.13611562900821894,0.2524478830802995,-0.10322795961434238
-10450.917141199112,3160.0,-1968.0,16260.0,-234.0,409.0,-1620.0,0.9162209543291916,-0.1855308011353625,0.26617053627338383,-0.23509727837241218
-10450.932792425156,3156.0,-1936.0,16384.0,-197.0,430.0,-1485.0,0.8646834124486249,-0.22482051894624772,0.27774481667722367,-0.35303845018053853
-10450.948371171951,3116.0,-1800.0,16352.0,-194.0,429.0,-1406.0,0.8005495259033061,-0.2580885251184393,0.28589449226016433,-0.45910250388500773
-10450.963994264603,3044.0,-1748.0,16188.0,-202.0,498.0,-1373.0,0.7226619726701611,-0.2840677791400037,0.2952074528987561,-0.5567025506174426
-10450.979598999023,2960.0,-1680.0,16004.0,-126.0,540.0,-1354.0,0.6347358850354994,-0.29813613072191486,0.299187991652676,-0.6470793996544818
-10450.99529337883,2912.0,-1740.0,16072.0,-96.0,576.0,-1152.0,0.5487055837274287,-0.29899889948901376,0.3044222920413757,-0.7189220462602156
-10451.010901212692,2896.0,-1768.0,16032.0,-209.0,419.0,-1081.0,0.4618900956017323,-0.30969274874964803,0.30758047684056355,-0.7721024486578459
-10451.026616334915,2900.0,-1724.0,16172.0,-3.0,275.0,-1264.0,0.3669411193406444,-0.32304177391008176,0.2827209117153702,-0.8252679039711239
-10451.042215585709,2784.0,-1716.0,15920.0,-296.0,192.0,-962.0,0.28345498754133464,-0.34093164394028064,0.2817714392846047,-0.850895845683596
-10451.057822465897,2988.0,-1716.0,16172.0,-275.0,101.0,-826.0,0.2108420551166424,-0.35935558731276235,0.2791387817253598,-0.8651535876352661
-10451.073418617249,3080.0,-1792.0,16328.0,-278.0,141.0,-731.0,0.14315390176590523,-0.3705940347944678,0.2789803294910264,-0.8742636887924792
-10451.089012145996,3080.0,-1812.0,16172.0,-269.0,167.0,-528.0,0.089971721951735,-0.3733757060034599,0.283967042737842,-0.8785547165966283
-10451.104582071304,3024.0,-1792.0,16280.0,-256.0,145.0,-770.0,0.018941017020693805,-0.38220941037918543,0.27878717967334254,-0.8808149141230528
-10451.120242595673,2948.0,-1632.0,16332.0,-160.0,160.0,-820.0,-0.05319076861114535,-0.3888963697468037,0.26314482292260144,-0.8812974287386443
-10451.135848522186,3032.0,-1628.0,16188.0,-79.0,170.0,-833.0,-0.12352142415160554,-0.3933251169272264,0.23937440227131884,-0.8790550072134232
-10451.151431798935,2836.0,-1644.0,16184.0,-90.0,132.0,-849.0,-0.19397337650823285,-0.3986514417151931,0.21499596337801377,-0.87018853874063
-10451.167009353638,3024.0,-1288.0,15904.0,-119.0,148.0,-878.0,-0.2667807500488672,-0.4004520786982204,0.190299480593356,-0.8557174018071253
-10451.1826338768,2944.0,-1564.0,16048.0,-157.0,58.0,-949.0,-0.3429251901749966,-0.40658863546784324,0.1668434388624166,-0.8302115768648392
-10451.198220968246,2972.0,-1692.0,15960.0,-190.0,-67.0,-853.0,-0.4093358491561763,-0.4167510683513309,0.15185144050416202,-0.797310384756418
-10451.213812351227,2948.0,-1580.0,15884.0,-183.0,-126.0,-706.0,-0.46252520847257245,-0.42723777448198397,0.14307194404679333,-0.7635893755217893
-10451.229416131973,3032.0,-1872.0,16164.0,-166.0,-187.0,-708.0,-0.5125071709373581,-0.44068631624045235,0.13497063309312896,-0.7245101093971329
-10451.24501156807,2984.0,-1928.0,16308.0,-163.0,-87.0,-610.0,-0.5555121573699213,-0.4451874616890044,0.1254977079956677,-0.6909881997957356
-10451.260605096817,3108.0,-1852.0,16212.0,-102.0,-28.0,-766.0,-0.6040429524388927,-0.44909278351208903,0.1029995897266929,-0.6502606153861717
-10451.276195526123,3064.0,-1852.0,16268.0,-95.0,-18.0,-521.0,-0.6365486186593579,-0.44910183403753356,0.08882776525080302,-0.6206633764509834
-10451.29185962677,2932.0,-1752.0,16236.0,-70.0,-44.0,-455.0,-0.6631188595149441,-0.4505491733839705,0.07717629040889287,-0.5927247596628158
-10451.307451486588,3004.0,-1772.0,16100.0,-15.0,-119.0,-513.0,-0.6887819947884851,-0.458602123997573,0.064615816081995,-0.5577528590981563
-10451.323088169098,2820.0,-1748.0,16260.0,-49.0,-221.0,-460.0,-0.7112475276253409,-0.46833828558312357,0.06183421216512539,-0.5205408100330066
-10451.33866906166,3004.0,-1732.0,16164.0,-29.0,-244.0,-450.0,-0.7309025838356972,-0.4793747590399521,0.05986906110099007,-0.48207566715254935
-10451.35424566269,2916.0,-1792.0,16120.0,16.0,-269.0,-387.0,-0.7445582320657773,-0.4931262790238543,0.06013791051663565,-0.4459180908169848
-10451.369829416275,2900.0,-1824.0,16152.0,37.0,-268.0,-14.0,-0.7419762391717561,-0.5057064476991113,0.07551501405001815,-0.4336239521902689
-10451.385417222977,2972.0,-1872.0,16312.0,34.0,-298.0,-498.0,-0.7564703395902045,-0.5216177273144769,0.07147122503403766,-0.38801989106706175
-10451.401005506516,3116.0,-1816.0,16332.0,-11.0,-328.0,-264.0,-0.763436986550911,-0.5331116721099394,0.08144615344619786,-0.35541867806156013
-10451.416681289673,3244.0,-1872.0,16200.0,-72.0,-273.0,-277.0,-0.7730673899595472,-0.5382602938682819,0.08894669119153535,-0.32362192872554496
-10451.432291984558,3100.0,-1972.0,16016.0,-81.0,-244.0,-275.0,-0.7824148499262243,-0.5413611284142568,0.09474232158410278,-0.29288056227380643
-10451.447916507721,3068.0,-2036.0,16016.0,-156.0,-251.0,-198.0,-0.792482187705836,-0.5383340191573938,0.1064769622783633,-0.26614117022886785
-10451.463490486145,3104.0,-2072.0,15968.0,-183.0,-397.0,-47.0,-0.7979891924405321,-0.5347726698575237,0.13589098521606038,-0.24241509948551415
-10451.479085445404,3144.0,-2128.0,16120.0,-205.0,-522.0,253.0,-0.7949621326480055,-0.527609886035017,0.1881281262464632,-0.23296099229022427
-10451.494676589966,3220.0,-2136.0,16244.0,-195.0,-563.0,171.0,-0.7901611381829421,-0.5217922789689795,0.23867264273571243,-0.2154380721305947
-10451.510262966156,3292.0,-2008.0,16192.0,-169.0,-467.0,188.0,-0.7838508885503698,-0.5142922766669783,0.28229252277336436,-0.20345065806170753
-10451.52586221695,3240.0,-1876.0,16200.0,-119.0,-353.0,98.0,-0.7784150789558486,-0.5095671694704842,0.31274142431029556,-0.1913218915136642
-10451.541489124298,3284.0,-1800.0,16304.0,-75.0,-185.0,146.0,-0.7741830050611498,-0.50331442394566,0.33293339975281916,-0.1909728165257184
-10451.557066440582,3240.0,-1764.0,16296.0,-46.0,-111.0,45.0,-0.7722808419212231,-0.5005776849752583,0.3431044838134062,-0.18783928155046273
-10451.572697639465,3276.0,-1776.0,16216.0,-248.0,-54.0,-226.0,-0.7849603080546774,-0.4911589397833966,0.3407312405651323,-0.16279567670089223
-10451.58826470375,3220.0,-1732.0,16272.0,27.0,-14.0,-34.0,-0.7839664093007332,-0.4940751002761027,0.33979009047620956,-0.16071452575745515
-10451.603855848312,3264.0,-1852.0,16272.0,71.0,83.0,-68.0,-0.7843731613447985,-0.49961463706526993,0.3301060043262111,-0.16178375721897625
-10451.619461536407,3300.0,-2032.0,16308.0,98.0,133.0,-114.0,-0.7855228631514086,-0.5075115632000112,0.3145451155365996,-0.1626259972352567
-10451.635068893433,3208.0,-1852.0,16192.0,134.0,162.0,-140.0,-0.7859332826680128,-0.5179750203382026,0.2952131320218845,-0.16389008567375088
-10451.650660276413,3256.0,-1920.0,16184.0,177.0,162.0,-143.0,-0.7840201000625419,-0.5311827965590666,0.2749783058757095,-0.16596460657422055
-10451.666234254837,3144.0,-2028.0,16088.0,169.0,167.0,-105.0,-0.781614412799431,-0.5425652450525833,0.2561313360844263,-0.17058312706958303
-10451.681827306747,3180.0,-2096.0,15872.0,159.0,124.0,-34.0,-0.7773397291536035,-0.5520938733680096,0.2436258909035815,-0.17771248057001107
-10451.697396755219,3216.0,-2136.0,16080.0,106.0,121.0,64.0,-0.7738228037348835,-0.5558398758286494,0.23680350784923648,-0.19016939693066304
-10451.712960243225,3256.0,-2116.0,16136.0,155.0,117.0,131.0,-0.7664849053886128,-0.5613973495578874,0.2326119959090544,-0.20790758783650604
-10451.728590250015,3312.0,-2068.0,16196.0,212.0,134.0,238.0,-0.7542519867783679,-0.5679146067572273,0.23133548036457902,-0.23465045364788487
-10451.744164705276,3292.0,-2172.0,16264.0,183.0,215.0,420.0,-0.7402912604930355,-0.5663827204523071,0.23400387798993555,-0.276444657565213
-10451.759771823883,3252.0,-2304.0,16612.0,180.0,380.0,436.0,-0.7277064125231364,-0.5590135702086952,0.2263220448587956,-0.32668874713734547
-10451.775339126587,3124.0,-2160.0,16228.0,197.0,474.0,447.0,-0.7135380563121299,-0.5480637484803922,0.21201030340818722,-0.38149862521993133
-10451.790912628174,3176.0,-2132.0,16228.0,214.0,262.0,509.0,-0.6902994101734385,-0.542321469289879,0.21259313373378952,-0.4291600025057283
-10451.806478500366,3052.0,-2064.0,16012.0,304.0,555.0,599.0,-0.6619323144698653,-0.5270509468386334,0.19553063554948885,-0.4958131513571219
-10451.822082519531,2916.0,-1960.0,15992.0,260.0,455.0,622.0,-0.6293027954340175,-0.5103133424441969,0.18611225511108445,-0.5558061826570748
-10451.837664365768,2596.0,-1900.0,16052.0,226.0,284.0,540.0,-0.5967544319719353,-0.49919857509884974,0.18328008380964841,-0.6009104271186008
-10451.853324651718,2832.0,-1904.0,15996.0,276.0,180.0,584.0,-0.5560830970064514,-0.49376728026252587,0.18453286807065558,-0.6425831329621715
-10451.868902921677,2892.0,-1936.0,16056.0,273.0,111.0,535.0,-0.5154183552524908,-0.49129709564235347,0.1865983160131437,-0.6768693753917844
-10451.884530544281,2972.0,-1908.0,16212.0,275.0,98.0,533.0,-0.473113769691975,-0.48833051153542456,0.1885033080999458,-0.7086347262636629
-10451.900106430054,3060.0,-1976.0,16308.0,324.0,164.0,746.0,-0.4148131558403655,-0.47785771130800714,0.19294967417480802,-0.7499016446982001
-10451.915742397308,3128.0,-2016.0,16404.0,339.0,243.0,528.0,-0.3696015398125883,-0.4643476151650378,0.18362914754269138,-0.7836174642205532
-10451.931445360184,3152.0,-1992.0,16460.0,426.0,404.0,609.0,-0.3163209550871096,-0.4393067720385032,0.165648863496872,-0.8243246129020316
-10451.947089910507,3164.0,-2040.0,16408.0,428.0,561.0,642.0,-0.2609416972192212,-0.39988493609655623,0.1434446987732211,-0.8668477876359063
-10451.962660551071,3160.0,-2048.0,16336.0,454.0,759.0,703.0,-0.20044330644552474,-0.3421090457527684,0.11574329141299096,-0.9107070726683761
-10451.978261470795,3072.0,-2096.0,16248.0,510.0,800.0,724.0,-0.13501404247270482,-0.27836766542350533,0.08234832288248803,-0.947365507552543
-10451.993860960007,2964.0,-2020.0,16036.0,532.0,798.0,686.0,-0.07071716290166465,-0.212322365333496,0.04537049890829889,-0.973580923128191
-10452.00948882103,2860.0,-1956.0,15936.0,528.0,579.0,692.0,-0.004387327903377504,-0.16266988132013507,0.009762908541534948,-0.9866224945144779
-10452.025110006332,2784.0,-1972.0,15640.0,499.0,400.0,702.0,0.06261965676202698,-0.1271252114837642,-0.023131138730777833,-0.9896377668688839
-10452.040711402893,2676.0,-2140.0,15656.0,507.0,214.0,1016.0,0.1556719080749767,-0.10724621047873935,-0.0539094458249166,-0.9804887959712218
-10452.056300401688,2708.0,-2112.0,16104.0,759.0,102.0,907.0,0.2396218450170781,-0.09193867505309951,-0.10808222467562122,-0.9604409841990608
-10452.071915388107,2852.0,-2140.0,16360.0,550.0,66.0,1067.0,0.3323107932040982,-0.08452422319515812,-0.14313797719789015,-0.928405467399355
-10452.087498188019,2780.0,-2064.0,16164.0,455.0,100.0,1272.0,0.43698381335497505,-0.07860189967421055,-0.16625190416813276,-0.8804698703498147
-10452.103104114532,2560.0,-1936.0,16072.0,436.0,45.0,951.0,0.5116252463511725,-0.07204835855690513,-0.19041591846714123,-0.8347397314850137
-10452.118673801422,2880.0,-1828.0,16052.0,410.0,-85.0,922.0,0.5777685454358884,-0.07501810611718611,-0.21713900348468865,-0.7832026843832728
-10452.134271144867,2876.0,-1764.0,16216.0,419.0,-238.0,771.0,0.6268014069854145,-0.0845460845108296,-0.25165144381648075,-0.7325595584115145
-10452.149847269058,3036.0,-1608.0,16328.0,388.0,-271.0,684.0,0.6657691040588175,-0.09544317468738046,-0.2852059002597507,-0.6828614024407432
-10452.165453195572,3088.0,-1680.0,16192.0,391.0,-124.0,546.0,0.6973258418507552,-0.09354988634215006,-0.3103464378406779,-0.639273163500634
-10452.181037187576,2944.0,-1760.0,16284.0,343.0,-42.0,582.0,0.7302741233347321,-0.09063279808354405,-0.3264582803335747,-0.5932203569508396
-10452.196641921997,2704.0,-1584.0,16236.0,291.0,-48.0,656.0,0.7637576178794203,-0.09308027962806072,-0.3384738510020209,-0.5417063917505286
-10452.212226629257,2728.0,-1888.0,16148.0,219.0,-87.0,791.0,0.7983876511352765,-0.10569400915301508,-0.347050809100659,-0.4805847176580174
-10452.227848052979,2740.0,-2012.0,16100.0,212.0,-81.0,841.0,0.8308624306000203,-0.1194438219055915,-0.3525644843853304,-0.4136412445297471
-10452.243443012238,2788.0,-1912.0,16308.0,281.0,28.0,868.0,0.8633500171659344,-0.12434923858234993,-0.35027648522040444,-0.3412775976023186
-10452.25903892517,2784.0,-1732.0,16464.0,279.0,235.0,913.0,0.8975502585705679,-0.1237464036736721,-0.3295149421124978,-0.2655376881769073
-10452.274633407593,2568.0,-1624.0,16580.0,234.0,361.0,967.0,0.9290007690103207,-0.12427962658408744,-0.29470925807534454,-0.1861682002895027
-10452.290223836899,2508.0,-1632.0,16264.0,241.0,451.0,931.0,0.9543271779892855,-0.12077170573794896,-0.2506253085185119,-0.10890724114655387
-10452.30580663681,2780.0,-1544.0,15912.0,384.0,455.0,933.0,0.9727342879962503,-0.10428734905818328,-0.20532391877633135,-0.027463469576423632
-10452.321413755417,2388.0,-1444.0,15792.0,627.0,372.0,1066.0,0.981500821130543,-0.06871530436456173,-0.16423153747647914,0.07044392922223551
-10452.336992025375,2328.0,-1520.0,15812.0,798.0,218.0,1168.0,0.9746956305850342,-0.01820905397825448,-0.13232304086651206,0.17924137615935284
-10452.352580547333,2568.0,-1588.0,15988.0,854.0,47.0,1448.0,0.9438639637549436,0.03648549400508684,-0.11117230879207599,0.30891802215126696
-10452.368158578873,2900.0,-1600.0,16172.0,747.0,-72.0,1530.0,0.889770343917645,0.08387383633481331,-0.10066121350282824,0.4371970205288398
-10452.383783340454,2952.0,-1832.0,16464.0,697.0,-56.0,1503.0,0.8183272399410351,0.1253037914997853,-0.0885079358941128,0.5539005628179391
-10452.399364471436,3204.0,-2288.0,16464.0,516.0,85.0,1564.0,0.7302210911997009,0.14416932728476378,-0.07390848807341466,0.6637242638536567
-10452.414938211441,3180.0,-1944.0,16304.0,818.0,3.0,1694.0,0.6136173230518223,0.18245479402816223,-0.04711029798673515,0.7667885293941592
-10452.43061041832,3148.0,-1816.0,16116.0,818.0,238.0,1747.0,0.47783694526259385,0.20000785694398893,-0.0074511061305053364,0.8553439027199631
-10452.446177244186,3032.0,-1588.0,15972.0,804.0,88.0,1913.0,0.3159030835634617,0.2218456274018208,0.02232842771985466,0.9222207982437547
-10452.461768865585,2864.0,-1492.0,16076.0,709.0,13.0,1974.0,0.1409149459396608,0.23995434276631356,0.040699359297519534,0.9596397519648613
-10452.477363109589,2864.0,-1460.0,16372.0,712.0,83.0,1998.0,-0.04095543764050998,0.24444851906873669,0.058366450485036324,0.9670371922064599
-10452.492939472198,2828.0,-1616.0,16388.0,645.0,270.0,1999.0,-0.22109372054030127,0.22547679088466596,0.06788231873314615,0.9463983169434588
-10452.508528470993,2412.0,-1668.0,16564.0,632.0,497.0,1928.0,-0.3893421141399441,0.18043558007732288,0.0712115424193784,0.900435803278308
-10452.52412056923,1944.0,-1568.0,16868.0,581.0,599.0,1806.0,-0.5361508968251997,0.12277148615981147,0.06687996136995625,0.832464082580623
-10452.53974032402,1636.0,-1296.0,16720.0,473.0,737.0,1407.0,-0.6410950759661828,0.05453541286162132,0.05090983766902593,0.7638266693068789
-10452.555323123932,1188.0,-836.0,16816.0,456.0,777.0,773.0,-0.6945428437533527,-0.019311124146433125,0.033657900964976555,0.7184041093826221
-10452.570903539658,760.0,-400.0,16296.0,462.0,734.0,-72.0,-0.6894456487750561,-0.09299290190202757,0.01779446769547334,0.7181228129647579
-10452.586483478546,500.0,64.0,16380.0,546.0,731.0,-809.0,-0.6319202211271588,-0.17162770598762336,0.001437972147753211,0.7557901143201933
-10452.602064847946,80.0,420.0,15900.0,588.0,300.0,-2197.0,-0.46896930975446777,-0.21946296185263175,-0.009031903268674188,0.8554660832590815
-10452.617646217346,184.0,368.0,15612.0,598.0,-100.0,-3269.0,-0.20509463938260172,-0.22435079411098927,-0.02196936016545355,0.952428610076477
-10452.633290529251,616.0,456.0,15304.0,551.0,-868.0,-3949.0,0.1246089084673519,-0.145260125332477,-0.03570749520672411,0.9808654804329848
-10452.648870229721,1216.0,220.0,15252.0,456.0,-1419.0,-4450.0,0.46907848726285195,-0.004306518971359077,-0.06334668463355293,0.8808711734569823
-10452.664462566376,1596.0,-812.0,15448.0,385.0,-1861.0,-4856.0,0.757463405644648,0.16533596101813858,-0.10159705765498772,0.6233708743430904
-10452.68006825447,2412.0,-1140.0,16016.0,267.0,-2276.0,-4957.0,0.905600589760905,0.3163874291252379,-0.14982309764430682,0.2394568978511335
-10452.695631027222,3528.0,-1944.0,16804.0,621.0,-2545.0,-4465.0,0.8644663833906948,0.43452786891658707,-0.19565280780492536,-0.16001056815182815
-10452.71124958992,4216.0,-2360.0,18576.0,400.0,-1547.0,-4326.0,0.7074161872000012,0.4794167901994106,-0.14273650635127966,-0.49934774367862955
-10452.726840734482,4640.0,-3060.0,19140.0,-433.0,-817.0,-3749.0,0.523125727863774,0.43931455263795666,-0.016493995444536693,-0.7301165282349006
-10452.742455720901,4996.0,-3496.0,18380.0,-924.0,229.0,-3254.0,0.3371149843932785,0.3990867770683405,0.17033021954815555,-0.8355063422712011
-10452.758028268814,3976.0,-3324.0,16836.0,-1134.0,429.0,-2497.0,0.18286232317872458,0.3495590393472242,0.34268284561441054,-0.8526067769458179
-10452.773619890213,3108.0,-3284.0,15596.0,-984.0,-187.0,-1455.0,0.10889754248947903,0.2730139960054816,0.4518968086459421,-0.842255280518017
-10452.789201021194,2696.0,-3004.0,15328.0,-943.0,-815.0,-383.0,0.1344743394998572,0.18767989495578521,0.5191326640289309,-0.8229180920259852
-10452.80477809906,2684.0,-2400.0,15316.0,-627.0,-1586.0,743.0,0.2664849847597788,0.0986755422210073,0.5263460456940964,-0.8013792675426279
-10452.820360183716,2456.0,-1636.0,15732.0,-705.0,-1903.0,1238.0,0.4372850005256581,0.00584653958570391,0.5097112403963667,-0.7409062678259278
-10452.836094379425,3104.0,-1776.0,16064.0,-620.0,-1925.0,1339.0,0.5966457814701935,-0.08099028694185373,0.4651549257707248,-0.6489108412610548
-10452.851724147797,3184.0,-1136.0,16304.0,-898.0,-1457.0,1096.0,0.7006465072682362,-0.16324763794579522,0.4408057192970783,-0.5367820771904791
-10452.867316484451,3912.0,-648.0,15568.0,-938.0,-377.0,1167.0,0.7497620452529037,-0.19162645809540058,0.4738524068124722,-0.42023811418530543
-10452.88288974762,3644.0,-832.0,15352.0,-935.0,15.0,775.0,0.7577746741411195,-0.2189611740835251,0.5190154935121767,-0.32932729156356905
-10452.898485660553,2968.0,-1172.0,14684.0,-785.0,-337.0,805.0,0.7772051453788298,-0.24280315175996295,0.5317398656736324,-0.2329195284760121
-10452.91408753395,3016.0,-1472.0,14900.0,-663.0,-921.0,515.0,0.8116768968011927,-0.28091311481249515,0.4906088029770617,-0.14687218786054224
-10452.929826498032,3732.0,-1848.0,15788.0,-523.0,-1100.0,534.0,0.8472090798259665,-0.3070942270723254,0.4294320573361063,-0.05931288975736273
-10452.94543671608,3936.0,-2472.0,16324.0,-376.0,-1002.0,354.0,0.8724032431263467,-0.3251863733536431,0.36483752465315156,0.007744970800378536
-10452.961015462875,4008.0,-2344.0,16216.0,-171.0,-1022.0,561.0,0.8950873915865439,-0.31788998213962044,0.30105446718817,0.0844436407559242
-10452.976631879807,4076.0,-2476.0,15988.0,144.0,-1189.0,762.0,0.9177773473482524,-0.2756386883547008,0.22842400717147393,0.1718444852889722
-10452.9922478199,4020.0,-2180.0,15672.0,463.0,-1072.0,956.0,0.9280080678265519,-0.2015392304898371,0.17080236058887388,0.2626966277660647
-10453.0078997612,3892.0,-1708.0,15792.0,475.0,-1250.0,1072.0,0.9202311550896698,-0.11697936057897175,0.09796815668286839,0.3604062855681461
-10453.023490428925,3916.0,-1768.0,15728.0,430.0,-1166.0,1128.0,0.8896400421600672,-0.03561310413830154,0.02877205985722751,0.4543616079409004
-10453.03912973404,3756.0,-1640.0,16048.0,144.0,-1270.0,786.0,0.8547994055438481,0.027747300406686118,-0.06146526714973084,0.5145581449517999
-10453.054730176926,3892.0,-1916.0,15872.0,63.0,-1229.0,954.0,0.7978439586896691,0.08168953231460761,-0.15154364695846645,0.5777597779000769
-10453.070324420929,4224.0,-2264.0,16568.0,195.0,-998.0,965.0,0.7291755251935695,0.13153658219285502,-0.21640913454677568,0.635742296444416
-10453.085980176926,4144.0,-2452.0,17004.0,2.0,-832.0,898.0,0.6599007975741494,0.15973215937467683,-0.2778051771933367,0.6795887419219678
-10453.101571559906,4396.0,-2656.0,16820.0,415.0,-470.0,1048.0,0.5773366422389801,0.18487934658827582,-0.2930165775937713,0.7393533079580731
-10453.117144346237,4560.0,-2844.0,16700.0,546.0,-159.0,1272.0,0.47888920035807897,0.18856307649899054,-0.2840361106426477,0.8089700784408737
-10453.132761955261,3944.0,-2872.0,16448.0,597.0,-228.0,1452.0,0.3575116388003059,0.19162257812273176,-0.2725154839423565,0.872468639371972
-10453.148369550705,3588.0,-2768.0,16164.0,532.0,-593.0,1592.0,0.21077708406173493,0.2128005540502941,-0.2736495577252706,0.9140048493236148
-10453.163978099823,3500.0,-2720.0,15720.0,601.0,-877.0,1737.0,0.03949771302170102,0.24829075622378396,-0.26967317495628,0.9295525857900006
-10453.179530382156,3520.0,-2528.0,15576.0,676.0,-1239.0,1827.0,-0.14953185419528967,0.3019276695271539,-0.25340468759117635,0.9067888239615873
-10453.195110082626,3756.0,-2168.0,15488.0,799.0,-1577.0,1943.0,-0.35017072455091686,0.3637522355175666,-0.21502905887874152,0.8359588977103967
-10453.210660219193,4160.0,-1844.0,15552.0,744.0,-1653.0,1949.0,-0.5328609742613327,0.4138645390754594,-0.16748301181055977,0.7188357017844792
-10453.22623038292,4308.0,-1756.0,15860.0,665.0,-1613.0,1982.0,-0.6868617606815708,0.44337236453860207,-0.11908287237502489,0.563436897605912
-10453.241805791855,4148.0,-2020.0,15632.0,526.0,-1464.0,1928.0,-0.7988599157592328,0.45314308704115663,-0.078142983829832,0.3877858323071295
-10453.257383584976,4036.0,-1848.0,15548.0,452.0,-1407.0,1630.0,-0.8657687256079034,0.44972571761358765,-0.0285880789458003,0.2176557245247624
-10453.272979736328,3908.0,-1852.0,15340.0,482.0,-1419.0,1466.0,-0.9012075515357638,0.4292725886808989,0.02983835132986839,0.05157195412265111
-10453.288571596146,4012.0,-1860.0,15132.0,576.0,-1344.0,1441.0,-0.9113521369139678,0.387378382216661,0.08290105454514057,-0.11181541346724312
-10453.30415725708,4016.0,-1940.0,15136.0,675.0,-1528.0,1510.0,-0.8914163411019822,0.3232750335432951,0.1440874819996729,-0.2830352575827434
-10453.319798469543,4148.0,-2188.0,15212.0,813.0,-1177.0,1474.0,-0.8496772152886837,0.24530994369420836,0.17126301073786573,-0.4342126696643179
-10453.33542561531,4104.0,-2172.0,15160.0,909.0,-1098.0,1552.0,-0.7808841430580008,0.1565798697361672,0.1819350481806069,-0.5767168609963617
-10453.351019382477,4720.0,-2116.0,15360.0,1022.0,-1268.0,1618.0,-0.679823156021537,0.0475506237250456,0.19096842178625217,-0.7064775131600043
-10453.366639137268,5100.0,-1964.0,15200.0,1066.0,-958.0,1618.0,-0.5587174534009751,-0.04726609488390595,0.17224022811839595,-0.8098975412712881
-10453.382225513458,5060.0,-1988.0,15152.0,1141.0,-885.0,1565.0,-0.42290140549820693,-0.13980608711989,0.1386567031925169,-0.8845241533681537
-10453.397793769836,4888.0,-2084.0,15228.0,1330.0,-973.0,1462.0,-0.2769733655874619,-0.24162030525989928,0.08799766654948754,-0.9258303265302517
-10453.413360834122,4896.0,-2232.0,15304.0,1287.0,-1004.0,1198.0,-0.14308585333635068,-0.339127416793773,0.03307922234114974,-0.9292065425959376
-10453.428927183151,5260.0,-2412.0,15412.0,1751.0,-984.0,1121.0,0.00247682343451797,-0.42877231915209674,-0.06213874975041474,-0.9012696263904948
-10453.444496631622,5460.0,-2452.0,15680.0,1935.0,-758.0,1000.0,0.14655129192062327,-0.483519257688988,-0.1735171657620725,-0.8453541503217357
-10453.460094451904,5720.0,-2392.0,15832.0,2060.0,-413.0,936.0,0.2905622589978613,-0.4918543666592338,-0.28549461673292165,-0.7695100255752527
-10453.475720405579,5736.0,-2344.0,15728.0,2099.0,8.0,1050.0,0.4422908355712149,-0.45468254888443577,-0.3733282994670544,-0.6769553732165118
-10453.49131989479,5588.0,-2712.0,15620.0,2138.0,341.0,1321.0,0.6018304557602983,-0.38560244165778,-0.42367846223643635,-0.5564237774788913
-10453.506909132004,5280.0,-3108.0,15692.0,2240.0,411.0,1703.0,0.7524029109626905,-0.3017066155107514,-0.4400538498671265,-0.3862843343303451
-10453.522493362427,5432.0,-3388.0,15772.0,2301.0,407.0,2172.0,0.8689072726956932,-0.2121489268904704,-0.41763737659466854,-0.15991249465528742
-10453.538133144379,5336.0,-3252.0,15368.0,2413.0,411.0,2606.0,0.9212206514830765,-0.11296235254865213,-0.35480338977348574,0.11272343497700048
-10453.553718566895,5688.0,-3016.0,15352.0,2520.0,384.0,2598.0,0.8886989107388583,0.005232241632571163,-0.26044365933786084,0.37730090115154735
-10453.569346427917,5828.0,-2676.0,15436.0,2598.0,418.0,3140.0,0.7473168322478048,0.11445905636612505,-0.13523172427022276,0.6404131927168468
-10453.584930181503,5992.0,-2228.0,15680.0,2511.0,420.0,3075.0,0.5244081265986572,0.2060816541929011,0.0014613004265941348,0.8261503090621389
-10453.600515842438,5772.0,-1724.0,16316.0,2288.0,537.0,3225.0,0.23670016078283004,0.2571760878618483,0.12535618928866163,0.9285038069520677
-10453.616080999374,6884.0,-1784.0,16460.0,2081.0,1498.0,3013.0,-0.06674453059083002,0.2000586073338466,0.24296187106768655,0.9468322187563858
-10453.631684064865,6628.0,-1920.0,16504.0,1850.0,2214.0,2843.0,-0.35921870977596404,0.06279971396734707,0.3139845672574324,0.8766024218519328
-10453.647292613983,5912.0,-2512.0,16328.0,1953.0,2612.0,2719.0,-0.6091373487591356,-0.11594947363591292,0.34353598857991724,0.7053300181196495
-10453.662876367569,5668.0,-2712.0,16360.0,2215.0,2922.0,2664.0,-0.7796653285800736,-0.31015979909052843,0.32670942899179295,0.4349526680526343
-10453.67845749855,5208.0,-2260.0,16404.0,2169.0,2977.0,2491.0,-0.8395204420365613,-0.4657234963854154,0.255264396702864,0.1146609789475219
-10453.694030284882,5008.0,-1792.0,16584.0,1846.0,2646.0,2215.0,-0.800312407947736,-0.5469264986692782,0.16073847179375028,-0.18583486869710528
-10453.709639072418,4736.0,-1692.0,16592.0,1591.0,2696.0,1959.0,-0.6952708636594774,-0.5583935284407454,0.03818489966424761,-0.45092904871978456
-10453.725222587585,3684.0,-736.0,17896.0,1238.0,3039.0,1637.0,-0.5530518443505514,-0.48408318289587987,-0.10968264758603145,-0.6691538285897839
-10453.740873098373,3544.0,120.0,19080.0,642.0,3695.0,935.0,-0.4131014373193277,-0.29185689615158233,-0.2709594366739483,-0.8189919037028428
-10453.756499528885,2904.0,728.0,19472.0,-68.0,3716.0,197.0,-0.2975785011287987,-0.026901250525967292,-0.3755559832020231,-0.8773146880494126
-10453.772105932236,3680.0,736.0,17960.0,-68.0,3832.0,-202.0,-0.17788736649830497,0.260647043044367,-0.44578873626280097,-0.8376703447142798
-10453.787729263306,3280.0,180.0,17912.0,291.0,4053.0,-584.0,-0.06543345110885745,0.5414131108878537,-0.48632079614222584,-0.6827022704476036
-10453.803328752518,3636.0,-208.0,16696.0,844.0,4318.0,-824.0,0.026903423558416132,0.7720215801405551,-0.48648938445395806,-0.40815066386290005
-10453.818915605545,3352.0,-148.0,16676.0,1614.0,4702.0,-859.0,0.07982558674605068,0.8967108997158263,-0.4347672302391989,-0.02269126575617626
-10453.834512710571,2536.0,416.0,17328.0,1850.0,5299.0,-858.0,0.12045906757416881,0.8535631986823976,-0.2995644050915463,0.40887729956110774
-10453.850178480148,800.0,1528.0,18444.0,1661.0,5966.0,-1063.0,0.16717397632925635,0.6013143764539346,-0.08620433720005471,0.7765582364227298
-10453.865816831589,-712.0,2820.0,18968.0,859.0,4975.0,-2012.0,0.26736615034989347,0.26345356778608164,0.1357602194863435,0.9168842468233832
-10453.881396055222,152.0,3632.0,17384.0,88.0,3161.0,-2938.0,0.43329084127289513,-0.02109040216119603,0.26582343344484066,0.8609019363651718
-10453.896980524063,1540.0,2584.0,15224.0,10.0,2238.0,-2636.0,0.5547731361068458,-0.23925905641241266,0.33135984396970636,0.7246947807064632
-10453.91258430481,2612.0,568.0,14456.0,391.0,2315.0,-2062.0,0.6044193970059922,-0.4112530077648028,0.41001081191404104,0.5453799503473745
-10453.928281545639,2708.0,-1140.0,15900.0,803.0,2482.0,-1234.0,0.584991538777819,-0.5150435819868651,0.5185959148522998,0.35152992093277796
-10453.943948030472,2688.0,-2784.0,17804.0,1245.0,2988.0,238.0,0.47962340712847246,-0.5121851297396746,0.6927594800915281,0.1664694655224903
-10453.959549427032,2156.0,-3072.0,18644.0,1666.0,3332.0,774.0,0.3240419676660588,-0.4213992513469423,0.8456307385132917,-0.04825068120566191
-10453.975152254105,1432.0,-2176.0,17936.0,2173.0,4003.0,1574.0,0.10615062113926854,-0.209124904539286,0.928764243536506,-0.2870466858565761
-10453.990787744522,56.0,-836.0,17144.0,2631.0,4056.0,1718.0,-0.120100486213821,0.051273246901953784,0.8503622229787225,-0.5097362230546505
-10454.006427049637,-964.0,496.0,15676.0,2853.0,3616.0,1299.0,-0.3169494261293271,0.25714649525325095,0.6271003338116475,-0.6634485003288351
-10454.022028446198,-1404.0,1428.0,15228.0,2672.0,2716.0,579.0,-0.4664071251024672,0.35273817387907586,0.3640471086835052,-0.7249206004806915
-10454.03762626648,-1428.0,2100.0,15168.0,2230.0,2126.0,-76.0,-0.5866060108661538,0.38041625120932865,0.13381746533109654,-0.702331652286795
-10454.053213119507,-868.0,1992.0,15856.0,1882.0,1748.0,-753.0,-0.6969475850246556,0.37218684318578427,-0.04494644327104708,-0.6113271094307723
-10454.068803310394,-792.0,1692.0,16632.0,1640.0,1281.0,-1278.0,-0.7955776619904694,0.33795617318847043,-0.16516081373871894,-0.47493548440893213
-10454.084399700165,-920.0,1616.0,16760.0,1344.0,1442.0,-1584.0,-0.8594939492548945,0.31932810190258326,-0.26777243997017663,-0.29596897628288044
-10454.100013017654,-1364.0,1380.0,16272.0,1288.0,1378.0,-1777.0,-0.8867902923646312,0.29226179419199566,-0.3460430567412745,-0.09187069121696143
-10454.115592479706,-1764.0,1216.0,15752.0,1248.0,1241.0,-1745.0,-0.8750042186529442,0.2523261098250722,-0.39824937691865697,0.10998447810485622
-10454.131195306778,-1948.0,1248.0,15276.0,1122.0,1037.0,-1758.0,-0.8299235451380634,0.21328936203703078,-0.41923782078772537,0.2999570084003117
-10454.14681315422,-1840.0,1552.0,14864.0,620.0,968.0,-1775.0,-0.7470598951003903,0.2044098875101004,-0.43261879289963784,0.4614749083653003
-10454.162464857101,-2004.0,1564.0,14740.0,185.0,790.0,-1757.0,-0.6407828362173191,0.2235889847190775,-0.43895992481871265,0.5888289285732577
-10454.178066015244,-2004.0,1528.0,14920.0,-331.0,618.0,-1879.0,-0.5064634906011067,0.27799590592517,-0.4469263295209821,0.6829859917728104
-10454.193640470505,-1576.0,1600.0,15032.0,-623.0,240.0,-1935.0,-0.36098576794292603,0.3608987007949975,-0.4406162728045062,0.7384434326656334
-10454.209253787994,-1336.0,1496.0,15444.0,-805.0,-48.0,-1850.0,-0.2149693599974926,0.4534315910320604,-0.42604547654955954,0.7527770044495659
-10454.224895000458,-1108.0,1244.0,15688.0,-911.0,-327.0,-1571.0,-0.0867552184220663,0.5433448100921543,-0.4121944593947744,0.7261857042566384
-10454.240551948547,-984.0,904.0,15904.0,-933.0,-550.0,-1324.0,0.02138641246062589,0.6258957729599619,-0.39988107700332665,0.6692475080323987
-10454.256142616272,-772.0,864.0,15976.0,-798.0,-657.0,-996.0,0.09946777100681721,0.6920779393442689,-0.39021335004374086,0.5990557819198198
-10454.271775484085,-588.0,668.0,16064.0,-490.0,-533.0,-608.0,0.14224422060717964,0.7338563034384765,-0.38240009408387154,0.543131361322578
-10454.287365674973,-664.0,652.0,15920.0,-210.0,-1087.0,-282.0,0.1321519046507397,0.7882464487030281,-0.38585010500470385,0.46078531516543053
-10454.30294752121,-116.0,704.0,16208.0,-336.0,-1578.0,128.0,0.09604393747944204,0.8352118986200486,-0.42216954794887,0.3390715547809715
-10454.318617582321,312.0,756.0,16056.0,-674.0,-1764.0,478.0,0.06511350004848353,0.851918925655224,-0.4847943125713292,0.1869996008561981
-10454.334238290787,476.0,560.0,16304.0,-855.0,-1939.0,642.0,0.035516705636248654,0.8360659787294574,-0.5473847365604271,0.010109055968495663
-10454.34983420372,500.0,380.0,16484.0,-912.0,-1831.0,577.0,0.013849272233023196,0.7937370151301034,-0.5859784180681342,-0.16253935532459965
-10454.36544585228,468.0,356.0,16348.0,-847.0,-1768.0,487.0,-0.010819141225473679,0.7314240308064407,-0.6005713498534431,-0.3228248551106548
-10454.381045341492,228.0,524.0,16124.0,-712.0,-1754.0,290.0,-0.04846813448174157,0.6583070246743157,-0.5891739540519995,-0.46600080801543914
-10454.39670920372,184.0,724.0,15928.0,-570.0,-1902.0,-81.0,-0.11511315202165863,0.5788287138492981,-0.5451107413123017,-0.5954498819893735
-10454.41230893135,236.0,1088.0,15744.0,-768.0,-2016.0,-438.0,-0.19150858775595178,0.4935032801971277,-0.4544320053524204,-0.7164290095758086
-10454.427937746048,264.0,1428.0,15944.0,-671.0,-2292.0,-905.0,-0.30269756688160904,0.38765900360269684,-0.32705498880532935,-0.8069260896930178
-10454.443545341492,448.0,1468.0,16000.0,-802.0,-2664.0,-1209.0,-0.42222381594553765,0.24704573529533375,-0.15385501512630545,-0.8585010706115985
-10454.459156513214,652.0,1352.0,16192.0,-1011.0,-3049.0,-1522.0,-0.5304593126028693,0.07260973553101012,0.0641668712538133,-0.8421539981574062
-10454.474791049957,996.0,964.0,15876.0,-1331.0,-3271.0,-1553.0,-0.5855670781862023,-0.10912895672677884,0.3061971121673455,-0.7425936952658408
-10454.490409374237,608.0,620.0,15728.0,-1558.0,-3580.0,-1555.0,-0.5685802268113259,-0.28451958512753295,0.5399569562856981,-0.5515538203264685
-10454.506007432938,196.0,20.0,15648.0,-1832.0,-4204.0,-1364.0,-0.4445036843344035,-0.4247000505652867,0.7408448590780684,-0.2705461817150279
-10454.52159833908,752.0,-348.0,15612.0,-2034.0,-5005.0,-1169.0,-0.2016703823837408,-0.48595799295764197,0.8463617733394638,0.08273835011319927
-10454.537208080292,1272.0,-884.0,15352.0,-2415.0,-5610.0,-895.0,0.10281670783722327,-0.412911696695418,0.7832353350277758,0.45329357516465385
-10454.552790641785,1756.0,-1216.0,15440.0,-3047.0,-6071.0,-820.0,0.3781979834976351,-0.2198422331541378,0.4967185354481797,0.7496041450941554
-10454.568383693695,2380.0,-1452.0,15832.0,-3385.0,-5965.0,-977.0,0.5440507839887839,0.014053238904069476,0.050834041508015265,0.8373930684818546
-10454.58404660225,3080.0,-1084.0,16100.0,-3776.0,-5391.0,-1334.0,0.5780334459041987,0.19230962420070732,-0.4138378934418674,0.6764854335516015
-10454.599644422531,3712.0,-344.0,16180.0,-3854.0,-4359.0,-2030.0,0.5330477521074557,0.2893371564785314,-0.7284428886887444,0.3186142836925299
-10454.615285396576,4144.0,216.0,16208.0,-4651.0,-3142.0,-2451.0,0.4576996861272309,0.2788005754239581,-0.8307677482341276,-0.15035353323517667
-10454.630884885788,4016.0,332.0,16044.0,-5143.0,-2147.0,-2859.0,0.34194995891108526,0.2215010653469784,-0.683866648153709,-0.6052552446644903
-10454.64651465416,3828.0,-48.0,15528.0,-5834.0,-1165.0,-3301.0,0.1813004910266711,0.1571729540168164,-0.29790132739568104,-0.9239489128815547
-10454.662141799927,3428.0,-1236.0,15736.0,-5685.0,-992.0,-2987.0,-0.00639456396692258,0.05628118633597569,0.16180441737560092,-0.9851958526780502
-10454.677765607834,3496.0,-2340.0,17420.0,-5118.0,-949.0,-2191.0,-0.14017888062479325,-0.04814045676476371,0.5498490344359191,-0.8220087695269116
-10454.693372011185,3680.0,-3828.0,19524.0,-3837.0,-1548.0,-1426.0,-0.17223306009422729,-0.16882914961052778,0.7828148718869095,-0.5736143021273491
-10454.708942174911,4048.0,-5576.0,20416.0,-1615.0,-2586.0,-1446.0,-0.08802595076512461,-0.3576496649921898,0.845287330253766,-0.3870755461603468
-10454.724524974823,3404.0,-5328.0,19136.0,473.0,-3309.0,-2504.0,0.08106315762265683,-0.6180567325160189,0.729555175073445,-0.2813963155256688
-10454.740089893341,3208.0,-2976.0,18152.0,1585.0,-2526.0,-3352.0,0.2282395065133761,-0.8215901228034825,0.45800393484034924,-0.25125443966036953
-10454.755789995193,2780.0,192.0,16640.0,1682.0,-1233.0,-3698.0,0.2973251547293534,-0.9029336692835238,0.12312420254050467,-0.28486658629632716
-10454.771384477615,2412.0,2140.0,16056.0,1322.0,443.0,-3799.0,0.2850613883411848,-0.8470969242912229,-0.18641387390628272,-0.40794199752979454
-10454.786971569061,2208.0,3040.0,15504.0,559.0,1679.0,-3134.0,0.2310065274563182,-0.6891244028094643,-0.3780627940922488,-0.573421368147573
-10454.802636384964,1816.0,2204.0,14748.0,-208.0,2584.0,-3141.0,0.13810060668182864,-0.43363797984495567,-0.47530604390849374,-0.7529744281807674
-10454.818221092224,1392.0,560.0,14624.0,-820.0,2991.0,-3073.0,0.027283959008215817,-0.11151698498511207,-0.468672122404386,-0.8758801226889651
-10454.833794593811,1284.0,-1076.0,14620.0,-1258.0,2630.0,-3195.0,-0.11378160389253637,0.203277895058095,-0.37153174643993203,-0.8987190914761333
-10454.849403142929,1532.0,-2668.0,14984.0,-1416.0,1568.0,-2660.0,-0.23631788968211576,0.40891083149866114,-0.219203280225097,-0.85375389242909
-10454.864987134933,944.0,-3624.0,16140.0,-1411.0,-187.0,-1736.0,-0.3129954795397788,0.4486061175662078,-0.047201634518432796,-0.8357980538195968
-10454.880561828613,1276.0,-4512.0,17548.0,-1044.0,-1320.0,-943.0,-0.34159690551767385,0.3791732697503285,0.10061760293818373,-0.8540581266088203
-10454.896139860153,1928.0,-4308.0,18980.0,-409.0,-1320.0,-471.0,-0.34881599100561816,0.2862729391602074,0.1845743588029826,-0.8731022361647074
-10454.911819458008,2632.0,-3080.0,19184.0,428.0,-461.0,-397.0,-0.38158818116958554,0.2309768396066407,0.17547880226006396,-0.8776373678885769
-10454.927503585815,2680.0,-1640.0,18928.0,851.0,1132.0,-661.0,-0.46248626042429747,0.27640748413231925,0.08503266169478875,-0.8381377023374442
-10454.943141460419,2588.0,-648.0,17308.0,828.0,1882.0,-1234.0,-0.5743230580196536,0.3633654130661767,-0.02129976174843616,-0.7332563820135904
-10454.958777189255,2196.0,-240.0,16196.0,549.0,2057.0,-1883.0,-0.6876677696666346,0.45692256428701206,-0.09685608207305457,-0.555836044326522
-10454.97437119484,1996.0,-24.0,15536.0,256.0,2024.0,-2098.0,-0.7583140833382982,0.5399793891878959,-0.14246141254017963,-0.3362837435858597
-10454.990019083023,1868.0,-648.0,14928.0,-36.0,1226.0,-2102.0,-0.7856539917075555,0.5911535848946848,-0.1207258306720396,-0.13678639621209818
-10455.005624771118,1676.0,-1520.0,15364.0,-113.0,864.0,-1904.0,-0.7806333436316562,0.6188938945104167,-0.07902060836304028,0.0365742204582004
-10455.021215438843,1724.0,-2012.0,15896.0,-50.0,777.0,-1770.0,-0.7563337409864638,0.6230775390245086,-0.03596082554118612,0.1960624177015554
-10455.036784648895,1856.0,-2404.0,16412.0,205.0,954.0,-994.0,-0.7421142695220223,0.5918317126437449,-0.04105039537824703,0.3119559262464116
-10455.052369594574,2004.0,-2644.0,16780.0,538.0,1032.0,-690.0,-0.74235338857617,0.5275225980512538,-0.05718648814375085,0.4090978618723369
-10455.06798028946,2360.0,-2412.0,16712.0,745.0,1152.0,-298.0,-0.7546987971132021,0.4361486314271057,-0.09079247218580178,0.4816231139953095
-10455.083553314209,2340.0,-2144.0,16728.0,722.0,1228.0,-94.0,-0.7626687564083356,0.33490755103648423,-0.13662748819146975,0.5361960739578363
-10455.099125146866,2356.0,-1952.0,16604.0,638.0,1261.0,144.0,-0.7671992119025146,0.22973419832944625,-0.19330141755808614,0.5667999023854201
-10455.114699602127,2252.0,-1740.0,16396.0,462.0,1109.0,220.0,-0.7643552151728139,0.13928342359255258,-0.2474905627984846,0.5788865642560279
-10455.130288362503,1996.0,-1592.0,16304.0,424.0,881.0,401.0,-0.7675352000226817,0.05751673642627098,-0.28822728547301196,0.5696547846423058
-10455.145918130875,1836.0,-1640.0,16260.0,467.0,657.0,460.0,-0.7737464037621483,-0.017930133890771735,-0.310047295626095,0.5521464365897385
-10455.161511182785,1824.0,-1732.0,16296.0,604.0,455.0,479.0,-0.7812530509649942,-0.09325074096988437,-0.30972298497377554,0.5338723089329412
-10455.177149534225,1892.0,-1664.0,16152.0,630.0,330.0,519.0,-0.7891291518976017,-0.16501177881280352,-0.2975416974059526,0.511385600875886
-10455.192734241486,1884.0,-1540.0,16132.0,653.0,273.0,603.0,-0.7970037749374169,-0.2369066720190717,-0.27740405607951435,0.48135974193838504
-10455.208321094513,1696.0,-1432.0,16032.0,670.0,217.0,724.0,-0.805273839347554,-0.30879658696142,-0.24825064797540308,0.4410785954036087
-10455.223904132843,1652.0,-1516.0,15876.0,594.0,161.0,755.0,-0.8120029378459989,-0.37158452161096117,-0.2154417292505589,0.39517215682047857
-10455.239533662796,1632.0,-1560.0,16360.0,456.0,74.0,969.0,-0.8257237368108225,-0.4226440313345734,-0.1726720342751676,0.33126530428601664
-10455.255110025406,1704.0,-1596.0,16216.0,320.0,-31.0,1100.0,-0.8420890761384845,-0.4589170273084316,-0.11992857768506991,0.2567066149304726
-10455.270685195923,1764.0,-1680.0,16352.0,292.0,-75.0,1248.0,-0.8538997155188158,-0.48852242539684937,-0.057464281111488574,0.16999697678960346
-10455.286237001419,1872.0,-1632.0,16332.0,284.0,-110.0,1302.0,-0.85595742048417,-0.5109389009463501,0.010435690925150272,0.07854572027002044
-10455.301811218262,1884.0,-1556.0,16636.0,416.0,-143.0,1365.0,-0.8401856320125108,-0.5354410800688741,0.08421005706490536,-0.01730952984747121
-10455.317380905151,1864.0,-1408.0,16892.0,481.0,-194.0,1357.0,-0.8078706151161471,-0.5564146959753771,0.15985158030067984,-0.1104320044636625
-10455.332956790924,1948.0,-1316.0,16940.0,506.0,-185.0,1248.0,-0.7634375130851176,-0.5723023304725601,0.2270222922532023,-0.1951770605634511
-10455.34857082367,2064.0,-1240.0,17048.0,546.0,-27.0,1239.0,-0.7096807648245114,-0.580418958352699,0.2794385344360125,-0.28527381635039323
-10455.364158630371,2076.0,-1252.0,17048.0,729.0,187.0,1187.0,-0.6430249096599029,-0.5874416239451477,0.30749587658194705,-0.3832461218312085
-10455.379791021347,1832.0,-1192.0,16996.0,767.0,349.0,1301.0,-0.5644812476621224,-0.5785093607393494,0.3259458805420544,-0.49035407975505596
-10455.395409345627,1784.0,-1168.0,16672.0,866.0,342.0,1350.0,-0.4679984357417433,-0.5622839419743956,0.3367165519653354,-0.5928205431440372
-10455.410997152328,1712.0,-1236.0,16324.0,955.0,391.0,1433.0,-0.35433613168310957,-0.5325365676976327,0.3376139585144145,-0.6905559534642373
-10455.426628351212,1664.0,-1272.0,16076.0,954.0,318.0,1533.0,-0.2241428359691063,-0.4913188365374567,0.337175345490319,-0.7711540548688636
-10455.442234754562,1664.0,-1164.0,15840.0,930.0,197.0,1645.0,-0.07828154459658128,-0.4416722107981364,0.3365867132453642,-0.8279535267458815
-10455.457834482193,1660.0,-1140.0,15892.0,929.0,-65.0,1758.0,0.08521135184356168,-0.3950171837317231,0.3325856800783848,-0.8521075140382516
-10455.473408460617,1736.0,-1160.0,16128.0,868.0,-177.0,1865.0,0.2548944157402367,-0.34193484010628145,0.32564171256547925,-0.8438405518718313
-10455.488970518112,1676.0,-1096.0,16304.0,821.0,-318.0,1985.0,0.427061487426114,-0.2854482089943347,0.31163900052505605,-0.799386601896145
-10455.504537820816,1648.0,-1172.0,16404.0,827.0,-448.0,2105.0,0.5948353494931053,-0.22399664766187458,0.2838101710609817,-0.7179472095021985
-10455.52012014389,1844.0,-1012.0,16148.0,866.0,-515.0,2080.0,0.7399963454828948,-0.15651111041896806,0.23844633031632656,-0.6091412221694232
-10455.53573513031,1772.0,-924.0,16336.0,858.0,-383.0,2124.0,0.855253530291182,-0.07561853736315818,0.19292375988947197,-0.47497753483889765
-10455.551351547241,1660.0,-816.0,16492.0,912.0,-240.0,2015.0,0.931480775088061,0.01617113354963392,0.14744879178628234,-0.3321760284575491
-10455.566954135895,1860.0,-820.0,16508.0,890.0,8.0,1872.0,0.9687106504574545,0.11095234851761113,0.11745038640937865,-0.18840026215748684
-10455.582607984543,1984.0,-764.0,16648.0,894.0,154.0,1746.0,0.9730060999085066,0.2037858103687526,0.09720522423081737,-0.0477662790619558
-10455.598209142685,2080.0,-640.0,16924.0,906.0,173.0,1640.0,0.9496255532190084,0.29122673631747525,0.07774188245851923,0.08575836075374672
-10455.613798379898,2440.0,-700.0,17072.0,881.0,322.0,1332.0,0.9060598818413013,0.36695451394763734,0.0762805886073678,0.19642084159501402
-10455.62938785553,2628.0,-540.0,17056.0,838.0,619.0,1111.0,0.8486858478533543,0.4260526783563572,0.10301516139026602,0.295971828798865
-10455.645007371902,2424.0,-884.0,16860.0,835.0,845.0,866.0,0.7813575361322105,0.4698257096027582,0.15363435911353246,0.38097334162043445
-10455.660641431808,2116.0,-968.0,16484.0,852.0,932.0,707.0,0.7049029634839653,0.5022692175069724,0.21474917232321533,0.4524602062092878
-10455.676238298416,2000.0,-804.0,16160.0,824.0,786.0,633.0,0.625102937900819,0.5302374812419945,0.26610437316028424,0.5072307099327511
-10455.691847085953,1752.0,-864.0,16112.0,785.0,525.0,640.0,0.5456203405614029,0.5617954772863734,0.29833110833790644,0.5456031849834739
-10455.707435131073,1848.0,-924.0,15804.0,717.0,304.0,818.0,0.46141634509519736,0.5997576852611833,0.30528935306275967,0.5780865734089135
-10455.723006486893,2004.0,-1088.0,15972.0,681.0,32.0,997.0,0.3725913543676963,0.6484552115160487,0.2870891488567894,0.5985493646448943
-10455.738569498062,2264.0,-1268.0,16048.0,601.0,-138.0,1197.0,0.27761934776668834,0.7003049517405674,0.24450690630679572,0.6105054013532722
-10455.754179000854,2300.0,-1312.0,15908.0,453.0,-274.0,1439.0,0.17753186927061096,0.7498320443642041,0.17245844764041154,0.6135897851784529
-10455.769808769226,2108.0,-1228.0,15844.0,385.0,-575.0,1593.0,0.07482418741709511,0.8013461345104834,0.07896755193776367,0.5882260104954847
-10455.785416841507,2128.0,-1032.0,15724.0,406.0,-934.0,1865.0,-0.04217999887434534,0.8502455557029236,-0.0361439483919148,0.523447187113494
-10455.801006555557,2488.0,-1496.0,15888.0,464.0,-1146.0,2303.0,-0.18083497904759746,0.8711943486133694,-0.17710503542652062,0.42065772752150055
-10455.816689252853,2432.0,-1440.0,16048.0,414.0,-1454.0,2522.0,-0.31716247080865306,0.8514242726343199,-0.3203566267928855,0.26806026701015095
-10455.83228111267,2528.0,-1436.0,15876.0,339.0,-1681.0,2850.0,-0.43802172799127254,0.7698515915861437,-0.45874723013364005,0.07082705404387576
-10455.847942352295,2324.0,-1496.0,16220.0,314.0,-1716.0,3281.0,-0.5214490489439225,0.6059530416530516,-0.5818164584505647,-0.14967100368119382
-10455.86354136467,2680.0,-1656.0,16328.0,297.0,-1692.0,3738.0,-0.5405346221828309,0.35805692775208436,-0.6647893711236622,-0.37104265354728244
-10455.879134654999,2748.0,-1872.0,16208.0,309.0,-1638.0,4229.0,-0.4725073586176386,0.04180516259375259,-0.6781701394317727,-0.5613148727904705
-10455.894721031189,2832.0,-2128.0,16240.0,417.0,-1663.0,4693.0,-0.314016946608026,-0.3067967011957311,-0.5930700480535097,-0.6749348557306825
-10455.91028881073,2844.0,-2240.0,16360.0,544.0,-1547.0,5092.0,-0.07208818205755413,-0.6128972571390937,-0.4043241664662056,-0.6750423798624947
-10455.926012277603,2876.0,-2380.0,16152.0,616.0,-1861.0,5544.0,0.19739811783448807,-0.8202886859060041,-0.1176384360990619,-0.5237572464435879
-10455.941622257233,3280.0,-2312.0,16448.0,647.0,-1894.0,5927.0,0.43471536381087417,-0.8395197487521097,0.21464851510510094,-0.24526548653479344
-10455.957262516022,3120.0,-2428.0,16484.0,745.0,-1820.0,6252.0,0.5705655755252242,-0.6362519924420338,0.5101934992260343,0.09664843240635732
-10455.972880840302,2848.0,-2228.0,16592.0,872.0,-1840.0,6485.0,0.5558381805506798,-0.24805726390964017,0.6759957134269707,0.4153809171015608
-10455.988799571991,2868.0,-2136.0,16372.0,1051.0,-1853.0,6708.0,0.3789756325838499,0.2266313357987257,0.6555212688249212,0.612623517064046
-10456.004448652267,2852.0,-1916.0,16100.0,1187.0,-1811.0,6805.0,0.08082918469522198,0.6382644177614563,0.4449820409520623,0.6229575901706891
-10456.020102500916,2692.0,-1464.0,16144.0,1158.0,-1778.0,6846.0,-0.24323367227249182,0.8553766721632702,0.09657591877048045,0.4470360402756861
-10456.035724878311,2728.0,-1152.0,16200.0,1065.0,-1863.0,6749.0,-0.4852313352761042,0.8185308198240898,-0.27750961610319924,0.1324623011823633
-10456.051337957382,2836.0,-784.0,16036.0,904.0,-1847.0,6562.0,-0.5748931856470016,0.5509472483712302,-0.5638767915154956,-0.21908427282441417
-10456.066935539246,2832.0,-800.0,16052.0,768.0,-1868.0,6414.0,-0.501218661508203,0.13877941137925853,-0.684083772254989,-0.5114191244669449
-10456.0825715065,2764.0,-896.0,16176.0,750.0,-1960.0,6213.0,-0.30378537554299345,-0.3059791274288745,-0.6135515119556915,-0.6615480038220597
-10456.098177909851,2584.0,-892.0,16352.0,814.0,-2029.0,5999.0,-0.03870611728777341,-0.6690898387739019,-0.38993988265657664,-0.6314804130357443
-10456.113795042038,3088.0,-1040.0,16308.0,981.0,-1984.0,5848.0,0.24000898786158967,-0.8608840381011518,-0.08399971757283603,-0.44070217396331696
-10456.129371881485,3224.0,-1084.0,16500.0,1098.0,-1919.0,5653.0,0.4647614657072042,-0.842189534963299,0.22831228682045185,-0.15028994270678606
-10456.14497756958,3456.0,-936.0,16628.0,1176.0,-1705.0,5387.0,0.5857996847871652,-0.6335746775255332,0.482012715112185,0.15193946087785834
-10456.160576105118,3584.0,-832.0,16796.0,1165.0,-1298.0,5371.0,0.5683849110752056,-0.296658249581698,0.6530535366351865,0.40305527425581283
-10456.17613363266,3460.0,-832.0,16840.0,1162.0,-954.0,4758.0,0.44513516440472256,0.060359032887654256,0.705689016359834,0.5479183194129739
-10456.191768407822,3508.0,-744.0,16440.0,1198.0,-590.0,4484.0,0.24139522153917814,0.38082019836266684,0.6631639309618493,0.5974260826313977
-10456.207377195358,3424.0,-668.0,16500.0,1217.0,-267.0,4234.0,-0.004101932273634322,0.6209779984440151,0.5413878926820574,0.5668056538685619
-10456.222968101501,3332.0,-656.0,16600.0,1162.0,70.0,3971.0,-0.2510187002368607,0.7568579122733903,0.36073455905625174,0.48376263876311654
-10456.23862695694,3476.0,-744.0,16528.0,1053.0,340.0,3903.0,-0.4677009973964685,0.7939552957280966,0.13183295498863168,0.3653913482810241
-10456.254210472107,3328.0,-852.0,16364.0,1072.0,435.0,3859.0,-0.632205463860029,0.7364312136689851,-0.11244269029885255,0.21293651729543175
-10456.269806146622,3072.0,-880.0,16284.0,1070.0,448.0,3664.0,-0.7250707453464366,0.600125741102803,-0.33446501225692216,0.047483309536631525
-10456.285395145416,2984.0,-844.0,16224.0,1110.0,386.0,3472.0,-0.7490325412202999,0.40651285417773014,-0.5106062673102381,-0.11392449852793438
-10456.300990819931,3024.0,-828.0,16212.0,1183.0,362.0,3195.0,-0.712045849420739,0.18231628137045744,-0.6316680734951028,-0.2464689164923879
-10456.31656241417,2956.0,-696.0,16356.0,1224.0,384.0,2928.0,-0.623633042757919,-0.04524956153585784,-0.7015588615536117,-0.3418325159151956
-10456.33212685585,2964.0,-628.0,16524.0,1269.0,398.0,2635.0,-0.4993971311770896,-0.25548426416756936,-0.7268534294345738,-0.39625041104590336
-10456.347752332687,2948.0,-676.0,16432.0,1230.0,405.0,2368.0,-0.3547140065796044,-0.4334653783821564,-0.714611051038766,-0.4190665639412536
-10456.363332509995,2868.0,-636.0,16416.0,1196.0,256.0,2083.0,-0.21265523196684974,-0.578341244849144,-0.6726343670793099,-0.40970985471097016
-10456.378906726837,2864.0,-600.0,16240.0,1167.0,610.0,1881.0,-0.04967775877782192,-0.6751897074095214,-0.6184004288674642,-0.3990387059767432
-10456.394475460052,2840.0,-612.0,16260.0,1108.0,585.0,1752.0,0.10637813629289045,-0.7411884940950505,-0.5466652867437344,-0.3748071138723933
-10456.41004705429,2820.0,-612.0,16052.0,1122.0,403.0,1694.0,0.24960997786556002,-0.7856573839076514,-0.4625058353438853,-0.326382729834461
-10456.425621509552,2696.0,-664.0,16204.0,1092.0,260.0,1550.0,0.3740258740929085,-0.8058350341756806,-0.3764124749780216,-0.2627702264051921
-10456.441229820251,2560.0,-724.0,16072.0,1094.0,109.0,1634.0,0.48499448075942997,-0.8093887322985392,-0.27889569458332014,-0.17857050485436224
-10456.45687842369,2572.0,-1004.0,16172.0,1201.0,-228.0,1770.0,0.5818011030859618,-0.7913005525536582,-0.1790673037696827,-0.057322008835084745
-10456.472504138947,2684.0,-728.0,16456.0,1255.0,76.0,2010.0,0.665716123204045,-0.7427843977415057,-0.041755220804049774,0.05787817648795126
-10456.488095521927,2720.0,-584.0,16784.0,1278.0,3.0,1880.0,0.7250500954686249,-0.662370188947391,0.08510433730148434,0.16830134766902707
-10456.503713607788,2548.0,-492.0,16824.0,1259.0,441.0,1899.0,0.7515036522100043,-0.5634921956301658,0.23647235876740536,0.24859531314548017
-10456.519296169281,2524.0,-376.0,16852.0,1282.0,584.0,1957.0,0.743843531447014,-0.4418659001703958,0.3902396855992601,0.3149036595126064
-10456.53488945961,2532.0,-372.0,16796.0,1337.0,837.0,2097.0,0.6914568264358276,-0.298791681305218,0.5479285817664746,0.36384784957654287
-10456.550505161285,2512.0,-344.0,16500.0,1392.0,1059.0,2201.0,0.5898083533810239,-0.138954477671624,0.6928032048417841,0.39094945808623904
-10456.566136837006,2452.0,-380.0,16356.0,1420.0,1157.0,2378.0,0.4411041029004757,0.03724979299442435,0.8025048100215952,0.40003206523782897
-10456.58171582222,2260.0,-180.0,15900.0,1397.0,1100.0,2313.0,0.27016970173952415,0.20802973321940096,0.858662689106351,0.38266218613196123
-10456.59732890129,2084.0,-220.0,16012.0,1373.0,1065.0,2581.0,0.07645423912268412,0.3843723032950006,0.8518802461369445,0.3474373728048357
-10456.61291384697,1928.0,-504.0,16048.0,1256.0,1132.0,2991.0,-0.1346575211159436,0.5563569423218427,0.763545859251654,0.29888463586616887
-10456.628525018692,1828.0,-508.0,16112.0,1084.0,1231.0,3142.0,-0.33566254734641765,0.6886968436327248,0.5968250066405679,0.2383846121873682
-10456.644120454788,1796.0,-520.0,15960.0,975.0,1201.0,3427.0,-0.501878470478882,0.7730708233831797,0.3571240077442699,0.15146598956894966
-10456.659779548645,1972.0,-644.0,15880.0,909.0,1029.0,3821.0,-0.6087922454513991,0.7905165285122308,0.06238157821130323,0.023752025746914363
-10456.67536020279,1880.0,-976.0,15636.0,796.0,828.0,4139.0,-0.6338155267982241,0.7200071864120693,-0.24867894117061612,-0.13426210829093502
-10456.690954446793,2260.0,-1220.0,15656.0,737.0,574.0,4386.0,-0.5739635653132676,0.5500342233533002,-0.5258493713269828,-0.3025072189354017
-10456.706610441208,2444.0,-1660.0,15968.0,877.0,157.0,4559.0,-0.4527598461778319,0.27886568725685995,-0.7188595882444118,-0.44775366279781553
-10456.722199678421,2976.0,-1952.0,16608.0,966.0,-198.0,4742.0,-0.2794666275249778,-0.05954189869942901,-0.7959433398814557,-0.5336922016457012
-10456.737821340561,3548.0,-1876.0,16948.0,1113.0,-234.0,4921.0,-0.055547687288736214,-0.40216399001494163,-0.7470600260229533,-0.5263837925798236
-10456.753430128098,3708.0,-1744.0,17080.0,1219.0,-399.0,5084.0,0.1771735574063823,-0.6891833861546834,-0.5661232820569115,-0.4161012140302433
-10456.769006967545,3568.0,-1488.0,16492.0,1286.0,-413.0,5372.0,0.38649254745152845,-0.8550342173349608,-0.2664834991959656,-0.22028740909796202
-10456.784634828568,3252.0,-1140.0,16040.0,1310.0,-564.0,4989.0,0.5166289596067355,-0.8541586413642253,0.05618649351010348,0.01872462083786164
-10456.8002409935,3048.0,-680.0,15436.0,1233.0,-715.0,5052.0,0.5490032617116816,-0.7023311318215992,0.36603467581184485,0.26710487829211216
-10456.815964460373,2980.0,-332.0,15480.0,1073.0,-1043.0,4986.0,0.48427982848015755,-0.4253574880670935,0.5887715605280821,0.48774184215198185
-10456.831554174423,2924.0,-376.0,15476.0,885.0,-1028.0,4932.0,0.3287654988542015,-0.08276388444859854,0.6994813839464742,0.6291177788828195
-10456.847155570984,2796.0,-340.0,15668.0,736.0,-1421.0,4805.0,0.14359692160564372,0.2833539193716666,0.6710758480364537,0.6698863236880213
-10456.862795591354,2572.0,-364.0,16328.0,570.0,-1472.0,4754.0,-0.05704659567840298,0.6001726926879324,0.5206725484717865,0.6045151132445876
-10456.878412723541,3136.0,-500.0,16352.0,453.0,-1386.0,4722.0,-0.2451497262740151,0.8131876508680113,0.27916392910712207,0.44798990710619213
-10456.894003391266,3244.0,-472.0,16496.0,390.0,-1305.0,4643.0,-0.3893464693682474,0.8926203564994534,-0.006691398521737356,0.2271419184983086
-10456.909589290619,3248.0,-580.0,16436.0,346.0,-1195.0,4605.0,-0.4693175888277613,0.8325382685023425,-0.2935980400195602,-0.020523722681096986
-10456.925246953964,3212.0,-384.0,16344.0,424.0,-1229.0,4386.0,-0.48648840384903513,0.6505673555519735,-0.5226127719632105,-0.2587799053084681
-10456.940886259079,3224.0,-44.0,16444.0,484.0,-1313.0,4113.0,-0.44977005978867635,0.38585668585823707,-0.665101363705548,-0.4543805533836245
-10456.95651936531,3344.0,48.0,16164.0,266.0,-1285.0,4085.0,-0.3477669771241569,0.08168995065633565,-0.7142691098268473,-0.6018342964062905
-10456.972130298615,3544.0,228.0,16432.0,519.0,-1269.0,3461.0,-0.23661548407313465,-0.20595237013511306,-0.6919732871355669,-0.65020743138122
-10456.987753391266,3692.0,336.0,16164.0,487.0,-1177.0,3088.0,-0.1187534325807325,-0.450570930531503,-0.6141108174054558,-0.6369861558588789
-10457.00337600708,3352.0,352.0,16148.0,436.0,-1083.0,2705.0,-0.008961636108838555,-0.639472391127597,-0.5042495152189226,-0.5802819801314597
-10457.018983602524,3500.0,512.0,16160.0,312.0,-1015.0,2293.0,0.07806165147351793,-0.7734252093020655,-0.3820295818619339,-0.49977317131642773
-10457.034634590149,3492.0,644.0,16236.0,129.0,-1019.0,1753.0,0.1272982916996605,-0.8619697159679396,-0.2719795034716494,-0.4084488993445969
-10457.050256490707,3388.0,620.0,16372.0,21.0,-1007.0,1516.0,0.1570756686578276,-0.9220388257019603,-0.16773438384951248,-0.3115073268616176
-10457.065860509872,3132.0,568.0,15944.0,-151.0,-978.0,851.0,0.1527795794459792,-0.9569539735980784,-0.1078436446525445,-0.22196225090589997
-10457.081506252289,3468.0,420.0,16016.0,-240.0,-1091.0,746.0,0.1360070862449438,-0.981581531989131,-0.05504955163887502,-0.12234915370933173
-10457.097135305405,3576.0,276.0,16172.0,-391.0,-1039.0,171.0,0.0988842948263946,-0.993375133154508,-0.048327375538361556,-0.03304853764577702
-10457.112723350525,3364.0,180.0,16308.0,-257.0,-821.0,-43.0,0.07282094768767938,-0.9949715163782125,-0.05823901335018208,0.03656512680008435
-10457.128312587738,3524.0,-36.0,16396.0,-627.0,-672.0,-188.0,0.015506936074145161,-0.9925346103047996,-0.0805728702485941,0.09023632783194956
-10457.143926620483,3468.0,-132.0,16416.0,-660.0,-492.0,-330.0,-0.04240740647388487,-0.9842862841196541,-0.1146875090410338,0.12739269225526584
-10457.159541130066,3568.0,-236.0,16676.0,-692.0,-406.0,-470.0,-0.10037816487581115,-0.9693150482678159,-0.1607350493906677,0.1565784311937814
-10457.175107240677,3728.0,-208.0,16884.0,-640.0,-197.0,-707.0,-0.1471153680549156,-0.947673217435052,-0.2267610654847292,0.16985864893667818
-10457.190727710724,3804.0,-160.0,16712.0,-544.0,-52.0,-950.0,-0.1782672347376475,-0.916918957680492,-0.3113259558452394,0.1748043686014757
-10457.206335067749,3792.0,-20.0,16608.0,-435.0,95.0,-1149.0,-0.1918872636754567,-0.8753173465828566,-0.40904725796309443,0.17227641035024713
-10457.222005844116,3820.0,-8.0,16520.0,-360.0,12.0,-1360.0,-0.19705720462491852,-0.8147775923632223,-0.5147092246790655,0.17994540038155676
-10457.237615585327,3780.0,-208.0,16316.0,-254.0,442.0,-1434.0,-0.1712550501764912,-0.7463565407109747,-0.6228206310999707,0.1603685860860183
-10457.253246545792,3732.0,-400.0,16456.0,-204.0,493.0,-1515.0,-0.13522575972279557,-0.6613663061456699,-0.7246627059692272,0.13846503378103212
-10457.268882513046,3668.0,-440.0,16344.0,-283.0,399.0,-1512.0,-0.10703049397746967,-0.5618175086308416,-0.8123070022372655,0.11429302022031027
-10457.284516572952,3620.0,-396.0,16216.0,-326.0,375.0,-1574.0,-0.07989979621330684,-0.44628951464258443,-0.8870969209577494,0.08660683871634592
-10457.300112485886,3708.0,-420.0,16160.0,-409.0,451.0,-1569.0,-0.04852140399305719,-0.32188777472194047,-0.9443245801385468,0.04780189520570677
-10457.315725326538,3756.0,-432.0,16092.0,-395.0,499.0,-1639.0,-0.011500846691750638,-0.1850186781432901,-0.9826345673367639,0.00807008911804033
-10457.331290245056,3572.0,-536.0,16044.0,-369.0,468.0,-1593.0,0.023564383484222583,-0.0478072549915536,-0.9981509513764385,-0.029220959386914866
-10457.346876859665,3540.0,-596.0,15904.0,-267.0,370.0,-1477.0,0.0504864468229732,0.08055317297544516,-0.993862919257398,-0.05655795908572103
-10457.362470388412,3560.0,-592.0,15984.0,-158.0,212.0,-1365.0,0.06281623349571526,0.1978765742491454,-0.9753900777755607,-0.0742507801293686
-10457.378046989441,3504.0,-616.0,15964.0,-100.0,120.0,-1252.0,0.06627248632035107,0.3028762370234942,-0.9467304233730005,-0.08703704994648151
-10457.39362859726,3580.0,-640.0,15924.0,-54.0,52.0,-1133.0,0.06310734381217932,0.39465911073516274,-0.9115945316928025,-0.09621361264645477
-10457.409219026566,3648.0,-592.0,15836.0,-113.0,-21.0,-1079.0,0.05604221955008796,0.4775840888675253,-0.8696936951866934,-0.11138035841651037
-10457.424814224243,3708.0,-596.0,16044.0,-204.0,-4.0,-771.0,0.056634157812570474,0.5337863883301585,-0.8335677155017854,-0.13049723167730645
-10457.440422058105,3756.0,-388.0,16032.0,-363.0,70.0,-1133.0,0.06540686318927653,0.6119269971882704,-0.7721237119060306,-0.15840538460651862
-10457.456061601639,3592.0,-332.0,15864.0,-521.0,53.0,-1267.0,0.0787521545792807,0.6901543301819195,-0.6919962627628234,-0.19653567361309346
-10457.471700906754,3752.0,-280.0,15960.0,-718.0,173.0,-1403.0,0.10739110371533711,0.7656325623995188,-0.5883511087989449,-0.2368900652441984
-10457.48728609085,3708.0,-196.0,15884.0,-887.0,177.0,-1629.0,0.14026375120758797,0.8336761609219508,-0.4535109557903262,-0.2822019698474093
-10457.502891540527,3736.0,-88.0,15616.0,-998.0,180.0,-1827.0,0.17220266875398707,0.883623985474733,-0.2889894020038017,-0.32563786434817227
-10457.518486499786,3692.0,28.0,15844.0,-1115.0,9.0,-1965.0,0.19878304057468077,0.8993437135706885,-0.10359024996976719,-0.37541343576378505
-10457.534086942673,3708.0,-96.0,15564.0,-1531.0,-107.0,-2125.0,0.24214704346911725,0.8660725422396978,0.10874269887972633,-0.4236250539781438
-10457.549669265747,3696.0,-160.0,15612.0,-1439.0,-246.0,-2297.0,0.26110040370645266,0.7829219630185978,0.32146048841707875,-0.4642444758896825
-10457.565295219421,3872.0,-272.0,15748.0,-1613.0,-441.0,-2538.0,0.27150080981589075,0.6350507406999218,0.5318167228696077,-0.4900702401513757
-10457.580891132355,4056.0,-352.0,15772.0,-1784.0,-597.0,-2751.0,0.269290281959339,0.42197844397411693,0.7167458589781492,-0.4854815243663942
-10457.596531152725,3848.0,-476.0,15668.0,-1794.0,-634.0,-2833.0,0.24439137673852612,0.16833893124650953,0.8454705655839503,-0.4439756546633904
-10457.612132072449,4356.0,-560.0,15760.0,-1818.0,-627.0,-2873.0,0.197263627671412,-0.10225265269133366,0.9044461913313615,-0.3641545594959566
-10457.627762079239,4536.0,-632.0,15692.0,-1918.0,-742.0,-2854.0,0.1414891077209746,-0.3672833040891456,0.8862940540747466,-0.24406281290977683
-10457.643362283707,4604.0,-740.0,15752.0,-1973.0,-900.0,-2627.0,0.08808370265642147,-0.5886078068047841,0.7984236440881387,-0.0911141902000699
-10457.658983945847,4540.0,-860.0,15724.0,-2107.0,-861.0,-2561.0,0.018643192754653568,-0.7570229869793169,0.6485802676463426,0.07689125417513047
-10457.674624681473,4616.0,-868.0,15660.0,-2238.0,-690.0,-2537.0,-0.0700546925287738,-0.8613982562716117,0.4450063109209833,0.23463752340029256
-10457.69021487236,4756.0,-776.0,15568.0,-2242.0,-614.0,-2488.0,-0.1570585605845634,-0.8931341152333486,0.20680923913034002,0.36725195624227575
-10457.705805778503,4548.0,-716.0,15260.0,-2140.0,-672.0,-2388.0,-0.22617513651029153,-0.8512073597120426,-0.03727209978946034,0.47212459052022343
-10457.721374988556,4480.0,-684.0,15480.0,-1954.0,-911.0,-2550.0,-0.25850946293935995,-0.736102659484785,-0.27772987960131146,0.5605281850601906
-10457.736944675446,4476.0,-1048.0,15656.0,-1627.0,-1085.0,-2160.0,-0.27494275825153325,-0.5755388736992471,-0.45707376712648695,0.6198750325273982
-10457.752557516098,4580.0,-1340.0,15652.0,-1178.0,-1234.0,-2011.0,-0.26756662299416745,-0.38997829171269394,-0.5770916808055302,0.6658004402201866
-10457.768137454987,4568.0,-1640.0,16220.0,-681.0,-1344.0,-1711.0,-0.25404122486468617,-0.20565588083873507,-0.6310725829245515,0.7035027432971594
-10457.783743858337,4632.0,-1924.0,16556.0,-222.0,-1409.0,-1424.0,-0.2444454490355603,-0.03515391547255357,-0.6292504417282112,0.7369223203687094
-10457.799341917038,4732.0,-2248.0,16500.0,199.0,-1406.0,-1099.0,-0.24734504527538217,0.11011214692723813,-0.5825700600442303,0.766360143024711
-10457.814924955368,4852.0,-2112.0,16344.0,497.0,-1213.0,-561.0,-0.274157016631657,0.20747118690459168,-0.5136165456212666,0.7861244690887741
