programtime,ax,ay,az,gx,gy,gz,q0,q1,q2,q3
-9.44775652885437,9872.0,8700.0,-10176.0,154.0,-70.0,-19.0,0.9998851845140564,0.013655652978412973,-0.006355500772538356,-0.0016578724181097236
-9.471253633499146,9876.0,8632.0,-10292.0,148.0,-3.0,-18.0,0.999612415137173,0.026795638228705402,-0.006863324746303794,-0.003147705350059825
-9.494680643081665,9832.0,8736.0,-10168.0,90.0,-43.0,-49.0,0.9993054423305031,0.03488589655673106,-0.010765951695326735,-0.007463339344053071
-9.518178939819336,9920.0,8616.0,-10204.0,119.0,-40.0,-80.0,0.9987557952789812,0.045529213231196276,-0.014330945971659513,-0.01444216489156968
-9.541619300842285,9924.0,8660.0,-10260.0,138.0,-45.0,-28.0,0.99801579036854,0.05775127581119448,-0.018557101595632865,-0.016879167562612176
-9.565049409866333,9904.0,8656.0,-10288.0,142.0,-42.0,-71.0,0.9970044215655254,0.07038613571673433,-0.02230500443443781,-0.023031761870018812
-9.588525533676147,9892.0,8696.0,-10148.0,114.0,-49.0,-84.0,0.9959309319540767,0.0805850748638098,-0.02651843506899793,-0.030403899219837882
-9.611982822418213,9916.0,8736.0,-10088.0,118.0,-42.0,-32.0,0.9948286728670552,0.09101874507425824,-0.030493723333681076,-0.03319085000311878
-9.635434627532959,9880.0,8656.0,-10268.0,123.0,-33.0,-51.0,0.9935149260378596,0.10195086848832585,-0.0335452769559493,-0.037534338257268485
-9.658913373947144,9868.0,8644.0,-10004.0,156.0,-67.0,-86.0,0.9914782583149206,0.11571266276604762,-0.039331447776677436,-0.045105212339515394
-9.682353496551514,9940.0,8656.0,-10200.0,132.0,-33.0,-19.0,0.9898488390844427,0.12727863604039974,-0.042747801543857405,-0.046605257579410954
-9.705831050872803,9912.0,8636.0,-10204.0,112.0,-55.0,-80.0,0.9879512873900399,0.13723574373615377,-0.04729614208194958,-0.053681275410628324
-9.729318857192993,9924.0,8628.0,-10460.0,130.0,-43.0,-67.0,0.9857723867449479,0.14872357846353368,-0.05103940732897414,-0.05940604043089574
-9.752746820449829,9880.0,8632.0,-10144.0,108.0,-60.0,-81.0,0.9835555334130615,0.1582678565086655,-0.05593787037959843,-0.06663897467770308
-9.776184558868408,9880.0,8712.0,-10024.0,109.0,-109.0,-82.0,0.9808773403194739,0.16758602167608286,-0.0650192827812112,-0.0746127432359589
-9.799597978591919,9928.0,8660.0,-9988.0,109.0,-49.0,-18.0,0.9787810457029834,0.176900993636592,-0.06989008467255287,-0.07621731487939169
-9.8231942653656,9932.0,8612.0,-10168.0,116.0,-48.0,-86.0,0.9759842688801244,0.18720856863063332,-0.07366042074469994,-0.08355717291479241
-9.84662652015686,9940.0,8676.0,-10488.0,133.0,-70.0,-85.0,0.9725726741161616,0.19875993098362998,-0.07942573065880412,-0.09104085185913109
-9.870119571685791,9888.0,8632.0,-10184.0,104.0,-51.0,-83.0,0.9696201731510852,0.20794866531530268,-0.08336598039817078,-0.09820481517876582
-9.89364218711853,9856.0,8648.0,-10304.0,98.0,-34.0,-72.0,0.9668559431961843,0.2166673760452059,-0.08600176570673834,-0.10415627469924732
-9.917104005813599,9880.0,8664.0,-10484.0,119.0,-43.0,-69.0,0.9635145835693892,0.22702301340794123,-0.08962973033300047,-0.10984857792760883
-9.940535068511963,9924.0,8708.0,-10240.0,140.0,-60.0,-72.0,0.9594097180753587,0.23896022173470524,-0.09480983722230742,-0.11594007097177737
-9.963950634002686,9940.0,8636.0,-10340.0,124.0,-56.0,-75.0,0.9554434355094412,0.2495744984130809,-0.09940953874463382,-0.1223035358865585
-9.98742151260376,9908.0,8680.0,-10224.0,100.0,-38.0,-130.0,0.9513737778507142,0.2588068707178875,-0.1010322074942083,-0.13303921052126602
-10.010881423950195,9884.0,8664.0,-10216.0,130.0,-56.0,-18.0,0.9475868774227235,0.26928541523714383,-0.10700492470332962,-0.13458982489789512
-10.03433895111084,9916.0,8460.0,-9992.0,157.0,-25.0,-77.0,0.9425710383653384,0.2828534266655803,-0.10932459198509811,-0.14000682213991866
-10.05780839920044,9916.0,8644.0,-10172.0,111.0,-87.0,-55.0,0.938167600788699,0.2916147395377709,-0.11669634428744696,-0.14554847901864193
-10.081246614456177,9968.0,8616.0,-10008.0,126.0,-67.0,-48.0,0.9335067332310205,0.3017327011108914,-0.1227783842917392,-0.14982664797486336
-10.104706764221191,9928.0,8664.0,-10312.0,117.0,-56.0,-32.0,0.9292596860644199,0.3110439984744051,-0.12824510426868507,-0.1525819782924058
-10.128183603286743,9920.0,8640.0,-10272.0,127.0,-53.0,-38.0,0.9245544130973837,0.3212258043555757,-0.13341809258795626,-0.15560440999038908
-10.151604652404785,9836.0,8640.0,-10272.0,102.0,-23.0,-11.0,0.9211499646060356,0.329445119644451,-0.13656927697672325,-0.1558765166239222
-10.175091743469238,9860.0,8692.0,-10272.0,112.0,-33.0,-53.0,0.9166672669473638,0.3387966808537965,-0.13943643396982874,-0.15967282684125894
-10.198590517044067,9928.0,8640.0,-9992.0,112.0,-86.0,-95.0,0.9107930145487524,0.3478583110914662,-0.14527618611088372,-0.1683612479250038
-10.222061157226562,9948.0,8560.0,-10220.0,111.0,-69.0,-73.0,0.9053050312928393,0.35674249089826077,-0.15038732176224628,-0.17476054748356176
-10.245498180389404,9908.0,8628.0,-10264.0,151.0,-58.0,-68.0,0.898604322432334,0.36881488700421056,-0.15536098575400137,-0.17985776306721463
-10.268917798995972,9900.0,8664.0,-10304.0,128.0,-60.0,-87.0,0.8921141235256912,0.3792272350148691,-0.15948120358174914,-0.18677483913279594
-10.29233455657959,9888.0,8608.0,-10300.0,99.0,-34.0,-73.0,0.8870212315048608,0.387547026808191,-0.1615394326314707,-0.19210842921859048
-10.315800905227661,9884.0,8696.0,-10336.0,91.0,-26.0,-63.0,0.8823780352230981,0.3951977117784187,-0.16316167597854106,-0.19648419542752207
-10.339283466339111,9904.0,8668.0,-10228.0,105.0,-33.0,-43.0,0.8774027609674341,0.40347909414013716,-0.16623443869054913,-0.19933671772108627
-10.362706661224365,9840.0,8704.0,-10312.0,114.0,-105.0,-42.0,0.8709467055715155,0.4111206623361859,-0.1749818600667426,-0.2044822381087478
-10.386162042617798,9920.0,8604.0,-9996.0,144.0,-86.0,-76.0,0.8628965662736983,0.42180037476241466,-0.18156137592119817,-0.21101996715227958
-10.40961217880249,9900.0,8660.0,-10372.0,145.0,-61.0,-58.0,0.85532765140804,0.4326314316698667,-0.1868918127075645,-0.2152117641091409
-10.433077096939087,9884.0,8620.0,-10308.0,85.0,-17.0,-58.0,0.8506112757091874,0.4397454221826634,-0.18778205893518962,-0.2186831489800731
-10.456537961959839,9868.0,8692.0,-10276.0,83.0,-57.0,-80.0,0.8448063255906797,0.44626158972033075,-0.19073673132474708,-0.22532724004391724
-10.47996973991394,9836.0,8656.0,-10172.0,102.0,-66.0,-59.0,0.8384110543200533,0.45359095792698284,-0.1955189611368379,-0.230422400640195
-10.50343132019043,9976.0,8636.0,-10288.0,116.0,-91.0,-46.0,0.8311595652773638,0.4611444005693893,-0.2028929786131424,-0.23527443146446894
-10.52690315246582,9904.0,8632.0,-10144.0,146.0,-76.0,-51.0,0.8226907847893977,0.4711725864915837,-0.20954967906348582,-0.23930148007445778
-10.55035924911499,9856.0,8628.0,-10252.0,156.0,-46.0,-41.0,0.8143825616674982,0.48225667614182754,-0.21462277389740828,-0.24113607464065176
-10.573821544647217,9856.0,8668.0,-10296.0,138.0,-43.0,-91.0,0.8056553795916768,0.4929539370681685,-0.21694989344247814,-0.24667502710911196
-10.597234010696411,9856.0,8664.0,-10208.0,97.0,-24.0,-55.0,0.799695868832499,0.5004159966091838,-0.21857008085963253,-0.24959460623756596
-10.620704174041748,9880.0,8632.0,-10268.0,105.0,-42.0,-51.0,0.7930432118363565,0.5079123545121039,-0.2217692770808954,-0.25283570166664343
-10.64418625831604,9968.0,8668.0,-10344.0,117.0,-44.0,240.0,0.7919676284455249,0.5103879490825011,-0.23818615418017292,-0.23570908527799248
-10.6676025390625,9864.0,8588.0,-10212.0,120.0,-52.0,-53.0,0.7842766537969877,0.5188094628999562,-0.24208756846490762,-0.2390407511475969
-10.691084861755371,9960.0,8648.0,-10280.0,142.0,-24.0,-89.0,0.7752843460126047,0.5299820207163938,-0.24285501472434637,-0.24305283863475668
-10.714563369750977,9820.0,8656.0,-10296.0,147.0,-49.0,-45.0,0.7663007477115261,0.5399192137708114,-0.24739878935096368,-0.24508008014839253
-10.738001108169556,9920.0,8752.0,-9992.0,113.0,-39.0,-62.0,0.7586429161578045,0.5480677895308663,-0.24970342530571527,-0.24845688405219468
-10.76147723197937,9856.0,8696.0,-10204.0,102.0,-75.0,244.0,0.7570847300796084,0.5478431725952688,-0.2686870334585975,-0.2334477409876891
-10.784886837005615,9952.0,8688.0,-10280.0,128.0,-51.0,-81.0,0.7479262052999486,0.5572272628356842,-0.2709799706769959,-0.23806306826167906
-10.808384418487549,9952.0,8904.0,-10296.0,111.0,-43.0,-113.0,0.7389696967847185,0.5663122551727192,-0.27078410813284587,-0.24472470994525586
-10.83195686340332,9884.0,8640.0,-10252.0,90.0,-12.0,-52.0,0.7329807010188409,0.5731812344808451,-0.27111409584191226,-0.24637311421655886
-10.855411767959595,9820.0,8916.0,-10484.0,118.0,-39.0,-31.0,0.7253254194845682,0.5807047751323371,-0.27478961962423043,-0.24733714831138437
-10.878895044326782,9824.0,8692.0,-10480.0,105.0,-59.0,-51.0,0.7173248016500414,0.5873763444029462,-0.27840009533260407,-0.2508536344013317
-10.902448415756226,9912.0,8640.0,-10196.0,137.0,-77.0,-58.0,0.7069731082365818,0.5957194268176591,-0.2834301950745244,-0.2549013794830529
-10.92586350440979,9904.0,8736.0,-10332.0,145.0,-44.0,-67.0,0.6966712994943799,0.6053849294483383,-0.2860704971035307,-0.25753030568183866
-10.949332475662231,9888.0,8604.0,-10068.0,89.0,-53.0,-46.0,0.6894710721085299,0.6108226616514323,-0.2890631999453676,-0.2607063159494198
-10.972805976867676,9920.0,8700.0,-10276.0,59.0,-21.0,-72.0,0.6840281352629959,0.6157888540912229,-0.288035313700193,-0.2644716533152061
-10.996236562728882,9852.0,8712.0,-10304.0,118.0,-243.0,-62.0,0.6698467441704244,0.6186992810499818,-0.30205579604474686,-0.2779907103273269
-11.019737482070923,9868.0,8736.0,-10108.0,101.0,-64.0,-50.0,0.6613535173539407,0.6244171841011638,-0.3057429411366342,-0.2814888261154693
-11.043230056762695,9896.0,8656.0,-10260.0,164.0,-57.0,-84.0,0.648644883501044,0.6347190243206666,-0.3086544924746688,-0.2848227159981147
-11.066671133041382,9944.0,8596.0,-10476.0,167.0,-71.0,-94.0,0.6349520570448772,0.6449196550077482,-0.3117809209315529,-0.2893219334620851
-11.090140104293823,9904.0,8672.0,-10296.0,86.0,-23.0,-79.0,0.6273724155710726,0.651296557683896,-0.3109769462760037,-0.29242090386030256
-11.113629817962646,9928.0,8628.0,-10104.0,108.0,-15.0,-58.0,0.6192313500267078,0.6584355100169598,-0.31145290455084673,-0.29327854087820365
-11.137147665023804,9896.0,8676.0,-10272.0,108.0,-4.0,-40.0,0.6117836973792019,0.6652951604867923,-0.31233022078592115,-0.29249425676020374
-11.160568952560425,9880.0,8660.0,-10472.0,97.0,-77.0,-60.0,0.6024005202747004,0.6701681725736782,-0.3156200714487188,-0.29727462747555927
-11.184049367904663,9884.0,8596.0,-10288.0,158.0,-80.0,-56.0,0.5893551982945732,0.6779186515732655,-0.3208163531073688,-0.3002725756227794
-11.207509756088257,9748.0,8572.0,-10452.0,164.0,-52.0,-91.0,0.5756612237688646,0.6875043273468951,-0.32256477973923564,-0.30315659023020525
-11.23097825050354,9860.0,8612.0,-10144.0,139.0,-68.0,-40.0,0.5642384190154052,0.6938025970768449,-0.3274325842216232,-0.3050587903771515
-11.254467487335205,9864.0,8684.0,-10328.0,105.0,-26.0,-112.0,0.5540541503846451,0.7014708906763866,-0.3249015409495173,-0.30887145653791825
-11.27788233757019,9928.0,8700.0,-10436.0,109.0,-22.0,-27.0,0.5459565769370371,0.7069302458285899,-0.327436236434521,-0.3081664399338759
-11.301344871520996,9972.0,8672.0,-10292.0,62.0,-63.0,-60.0,0.5386556192169906,0.7099217921098312,-0.32859083146163154,-0.31287255944374504
-11.324802160263062,9872.0,8868.0,-10228.0,150.0,-58.0,-43.0,0.5264359114176165,0.7165910664748837,-0.33291369708190155,-0.3138963920046738
-11.348239183425903,9920.0,8636.0,-10204.0,144.0,-67.0,-111.0,0.512344173971584,0.7245339664681298,-0.33314523831863735,-0.31869770789409885
-11.371726751327515,9820.0,8632.0,-10268.0,109.0,-56.0,-61.0,0.5020725376008488,0.7296106715223898,-0.3349943935633858,-0.3215123501030574
-11.395158529281616,9832.0,8652.0,-10192.0,109.0,-29.0,-53.0,0.49275691386376685,0.7351139564416879,-0.33612129511205263,-0.32221199520859073
-11.418633937835693,9876.0,8632.0,-10240.0,132.0,-49.0,-58.0,0.481171985880062,0.7410812409479468,-0.3383793348561896,-0.32368432161841165
-11.442108154296875,9912.0,8680.0,-10200.0,138.0,-29.0,-53.0,0.4698552456296106,0.7475860315796541,-0.3402250502469217,-0.3234162777687636
-11.465560674667358,9868.0,8596.0,-10176.0,133.0,-58.0,-25.0,0.45872093975261,0.7521086487396829,-0.3448810558354373,-0.32398261874564305
-11.48901653289795,9904.0,8632.0,-10152.0,131.0,-50.0,-55.0,0.44704054729064147,0.75755147248948,-0.34712708096471356,-0.3252280819179386
-11.512527227401733,9920.0,8656.0,-10324.0,114.0,-57.0,-55.0,0.43620571131788316,0.7620128732605173,-0.34910201105850514,-0.32739692160101014
-11.535987854003906,9872.0,8672.0,-10096.0,126.0,-36.0,-60.0,0.42501353919076157,0.7675650520254511,-0.3502288733210663,-0.3279437736959889
-11.559428215026855,9896.0,8700.0,-10196.0,82.0,-56.0,-39.0,0.4167124576853054,0.7701781981375045,-0.35219588999328433,-0.3303548483000932
-11.582895755767822,9872.0,8468.0,-10156.0,130.0,-31.0,-55.0,0.40544452876439724,0.7756561402331599,-0.353514489597726,-0.33015116516237164
-11.606333494186401,9916.0,8636.0,-10232.0,126.0,-68.0,-13.0,0.394459660183418,0.7785073778295,-0.3588073990869865,-0.33103638699310767
-11.629842519760132,9868.0,8648.0,-10156.0,130.0,-36.0,-56.0,0.38290664408673547,0.783642202592647,-0.36012985213991594,-0.3310496787910556
-11.653324365615845,9860.0,8460.0,-10252.0,83.0,-41.0,-78.0,0.3737264878052346,0.7876496525803925,-0.3587014122386762,-0.3335713326422553
-11.67676591873169,9824.0,8584.0,-10172.0,109.0,250.0,-60.0,0.37226770775217566,0.8001291236858256,-0.3496455801665748,-0.3145760757983243
-11.700202703475952,9820.0,8616.0,-10180.0,130.0,-50.0,-72.0,0.3597193798967595,0.8051092490024154,-0.34992894088286924,-0.31614996636098314
-11.723723411560059,9868.0,8676.0,-10224.0,160.0,-29.0,-102.0,0.3448012413348121,0.812339860176132,-0.34818461184296534,-0.3162017261476577
-11.747169017791748,9936.0,8636.0,-10304.0,113.0,-38.0,-76.0,0.33359135283744884,0.8169454283950747,-0.34717343393174227,-0.31747060195947424
-11.770626783370972,9864.0,8644.0,-10008.0,130.0,-57.0,-40.0,0.3215479464807958,0.8202987885087458,-0.3496914756437119,-0.3184849879463558
-11.794103860855103,9876.0,8700.0,-10328.0,93.0,-33.0,-101.0,0.3111424334309089,0.8250169487635314,-0.3460804766144631,-0.32057093454945496
-11.817626714706421,9888.0,8624.0,-10288.0,116.0,-36.0,-41.0,0.3006307250746152,0.8283519817082611,-0.3474613404195698,-0.3205070645944387
-11.841206550598145,10196.0,8632.0,-10300.0,144.0,-57.0,-65.0,0.28674141444428697,0.8324228701569361,-0.3483762876481833,-0.3216916049365429
-11.864721536636353,9848.0,8592.0,-10292.0,140.0,-71.0,-65.0,0.2726607595184535,0.8358236961675121,-0.34944836054309125,-0.32394552390401116
-11.888186693191528,9904.0,8628.0,-10216.0,99.0,-59.0,-44.0,0.26249100223532595,0.8378101377657227,-0.35054276184692673,-0.32602518141886494
-11.911716222763062,9868.0,8700.0,-10328.0,111.0,-52.0,-108.0,0.2497996707582912,0.8420987947859173,-0.3470797784086508,-0.32864170722681674
-11.93524694442749,9944.0,8668.0,-10216.0,99.0,-48.0,-93.0,0.23850176693922712,0.8456381783510203,-0.34421975866052,-0.3309467271778466
-11.958714723587036,9920.0,8636.0,-10136.0,119.0,-51.0,-36.0,0.22725300697111356,0.8476731532927861,-0.34615138848157306,-0.3316406372288095
-11.982182264328003,9904.0,8732.0,-10328.0,117.0,-31.0,-102.0,0.21481283076326618,0.8521058868849726,-0.3426854403064989,-0.3321711821898275
-12.005654335021973,9896.0,8656.0,-10144.0,129.0,-57.0,-55.0,0.20203063237768815,0.8544520945755973,-0.3434819748172291,-0.3333397285534718
-12.029163837432861,9968.0,8632.0,-10260.0,123.0,-76.0,-88.0,0.18812970075078173,0.8569664195103257,-0.34190665964110395,-0.3366238369755416
-12.052614450454712,9872.0,8640.0,-10208.0,110.0,-28.0,-56.0,0.1775452275988448,0.8595808832688349,-0.3414923567756326,-0.3361270110233152
-12.07606816291809,9884.0,8700.0,-10492.0,138.0,-41.0,-60.0,0.1643308785794965,0.862239216189974,-0.3417450612670278,-0.3357814907182725
-12.099539995193481,9956.0,8604.0,-10220.0,115.0,-59.0,-34.0,0.15304915695319912,0.8631293180880036,-0.34347795886454136,-0.33705582265716955
-12.123041152954102,9884.0,8712.0,-10024.0,125.0,-56.0,-33.0,0.14111610529919366,0.8640894741842372,-0.3454876183006495,-0.33774832498495094
-12.146509647369385,9928.0,8900.0,-10000.0,110.0,-65.0,-48.0,0.129584055665716,0.8649282199877066,-0.3459807455566835,-0.3397123349102347
-12.169980525970459,9888.0,8664.0,-10400.0,130.0,-46.0,-92.0,0.11578815919146204,0.8677403486410583,-0.34346828391225986,-0.3400725326716561
-12.19346570968628,9880.0,8668.0,-10284.0,101.0,-33.0,-41.0,0.10607666668675526,0.8689865801537481,-0.34376856630615416,-0.33975467195776987
-12.216916561126709,9944.0,8668.0,-10228.0,139.0,-18.0,-42.0,0.09389153160138032,0.8709483827731186,-0.3449327133798113,-0.33712715417016936
-12.240362882614136,9852.0,8660.0,-10368.0,123.0,-34.0,-256.0,0.07611441750121273,0.8784128620329074,-0.329355053058243,-0.33782049714102547
-12.263788938522339,9932.0,8656.0,-10240.0,128.0,-48.0,-78.0,0.06276784534640611,0.8800327741248047,-0.3275207173845062,-0.338131178303197
-12.287267923355103,9872.0,8668.0,-10364.0,150.0,-44.0,-7.0,0.04993163215537246,0.8797011472502128,-0.3317023330369073,-0.3370553157789277
-12.310718059539795,9908.0,8944.0,-10312.0,131.0,-66.0,-51.0,0.036617284219645184,0.8797533739321894,-0.3319782392437756,-0.33835428801761813
-12.334192991256714,9900.0,8672.0,-10212.0,103.0,-108.0,-72.0,0.023607977141115944,0.8789179086805244,-0.32988134487861254,-0.3436921173332836
-12.357680082321167,9956.0,8664.0,-10128.0,118.0,-23.0,-73.0,0.011860612444582209,0.8805382474648367,-0.32792174108118843,-0.3420220056520861
-12.381176471710205,9876.0,8668.0,-10168.0,115.0,-41.0,-67.0,7.906171586142572e-06,0.8813193442445081,-0.32630039329880167,-0.341766392044288
-12.404606819152832,9852.0,8628.0,-10348.0,114.0,-79.0,-89.0,-0.01350490120039982,0.8814430353022048,-0.32289714449447104,-0.3444027108460679
-12.42813229560852,9892.0,8640.0,-10252.0,113.0,-27.0,-83.0,-0.02529260247030847,0.8828067883292314,-0.31992577379049,-0.34301597339579215
-12.451572895050049,9916.0,8900.0,-10260.0,109.0,-48.0,-73.0,-0.037052830314060745,0.8831407293099723,-0.31750742961898354,-0.3433344901642036
-12.475072860717773,9892.0,8652.0,-10252.0,90.0,-34.0,-66.0,-0.04674724894803262,0.8836553143284621,-0.3150618018028121,-0.3430802256318822
-12.498549222946167,9860.0,8656.0,-10240.0,155.0,-41.0,-63.0,-0.06154835425858625,0.8834709490840658,-0.3147116493433826,-0.34153690866453573
-12.521991729736328,9884.0,8636.0,-10460.0,133.0,-46.0,-62.0,-0.07474759191141847,0.8830544856247623,-0.3136889412801521,-0.34092054945392763
-12.545464277267456,9852.0,8620.0,-10136.0,131.0,-39.0,-63.0,-0.08761800804760761,0.8827345759272918,-0.3125169893606037,-0.33975856794085135
-12.568893194198608,9920.0,8628.0,-10244.0,150.0,-67.0,-63.0,-0.1026976600204798,0.8812641693549208,-0.3116280626977047,-0.3401684949797302
-12.59235143661499,9844.0,8644.0,-10252.0,98.0,-34.0,-47.0,-0.11238803752381651,0.8806614474363067,-0.31066725556109587,-0.33954410662397194
-12.615783929824829,9820.0,8632.0,-10368.0,95.0,-42.0,-70.0,-0.12273356062203045,0.8803827072882465,-0.30773576535285474,-0.33935447621557707
-12.639278411865234,9928.0,8680.0,-10044.0,129.0,-42.0,-64.0,-0.13549781705479946,0.8794534053950595,-0.3062251687154838,-0.3382723685990194
-12.662702560424805,9916.0,8632.0,-10080.0,136.0,-18.0,-38.0,-0.14736852138788573,0.8783160289815939,-0.30714842427550665,-0.3354151421790996
-12.686164855957031,9856.0,8688.0,-10208.0,125.0,-30.0,-43.0,-0.15884123384823273,0.8769775951144856,-0.30716471313179794,-0.33366090436765994
-12.709630727767944,9872.0,8624.0,-10140.0,88.0,-39.0,-88.0,-0.16901329454978106,0.8769821496345129,-0.30249038842890713,-0.33292098221047367
-12.73310399055481,9868.0,8648.0,-10260.0,119.0,-236.0,-95.0,-0.1868973590764718,0.8706782731262179,-0.29516532850229493,-0.3462169128253555
-12.75654649734497,9848.0,8640.0,-10308.0,112.0,10.0,-57.0,-0.19670258761206785,0.8706329091761766,-0.2944224567500739,-0.3414994091464801
-12.779954671859741,9884.0,8648.0,-10228.0,131.0,-68.0,-69.0,-0.21028232445565861,0.8681078736102986,-0.29194441357983103,-0.3419627511540687
-12.803418636322021,9876.0,8652.0,-10256.0,140.0,-32.0,-6.0,-0.22170964229943402,0.8647349994794282,-0.2951148323221394,-0.3405663678789285
-12.827048063278198,9900.0,8668.0,-10260.0,133.0,-60.0,-36.0,-0.2341861283676281,0.8612993987781612,-0.2952212656844819,-0.34082929338924395
-12.850536346435547,9940.0,8644.0,-10212.0,108.0,-47.0,-45.0,-0.24468387801821556,0.8588709055835692,-0.29412831944494733,-0.3405276774074581
-12.873971223831177,9884.0,8648.0,-10024.0,120.0,241.0,-48.0,-0.24869186538044002,0.8645244444935533,-0.29921256694898246,-0.3181535490081964
-12.8974609375,9896.0,8672.0,-10336.0,128.0,-33.0,-72.0,-0.26103009817577677,0.8627060916421008,-0.29664376860864317,-0.3156009534770408
-12.92089581489563,9852.0,8664.0,-10360.0,139.0,-64.0,-76.0,-0.27505825088477937,0.8597213448328528,-0.29330988359414817,-0.31494678922793296
-12.944371700286865,9916.0,8664.0,-10260.0,124.0,-35.0,-51.0,-0.2864836665585166,0.8570992969511549,-0.29207910427331896,-0.31304584457858586
-12.967822790145874,9912.0,8612.0,-10304.0,138.0,-43.0,-108.0,-0.3006618342712559,0.8551973762606873,-0.28670752372940334,-0.30990112114420265
-12.991265058517456,9868.0,8672.0,-10188.0,165.0,-55.0,-60.0,-0.3157829909806482,0.8508494993281428,-0.285258568520551,-0.3081619398724811
-13.014660358428955,9904.0,8640.0,-10484.0,124.0,-33.0,-58.0,-0.3271943333931633,0.8480051186857622,-0.2834012171160947,-0.30580212068471024
-13.038149118423462,9852.0,8700.0,-10228.0,71.0,-50.0,-98.0,-0.3361275275110532,0.8470929220381135,-0.2766410104271414,-0.30483047425099596
-13.061668872833252,9860.0,8692.0,-10456.0,92.0,-60.0,-64.0,-0.3459076405197462,0.8443747907251852,-0.27262304036987967,-0.3050504792281839
-13.085161685943604,9848.0,8648.0,-10252.0,144.0,-32.0,-28.0,-0.35784721551621246,0.8398540521155148,-0.2734462493252483,-0.3030143399616555
-13.108596086502075,9940.0,8680.0,-10304.0,133.0,-42.0,-86.0,-0.3706878724595051,0.8366424541496921,-0.2693615014952986,-0.3001071252703346
-13.132080554962158,9868.0,8620.0,-10252.0,123.0,-46.0,-66.0,-0.38230207845622083,0.833029178457935,-0.2662933090471071,-0.29832093825692707
-13.155548810958862,9896.0,8620.0,-10388.0,126.0,-38.0,-46.0,-0.3933692940980803,0.8289333174833765,-0.26498067158400845,-0.2965053073954491
-13.178977012634277,9872.0,8672.0,-10184.0,124.0,-58.0,-62.0,-0.40510870948530375,0.8246284400448903,-0.26172790861793643,-0.29558986995288505
-13.20247483253479,9884.0,8648.0,-10224.0,116.0,-24.0,-63.0,-0.4154609936321929,0.8213825723488271,-0.2593564437568071,-0.29233040843127656
-13.225899457931519,9872.0,8636.0,-10056.0,118.0,-32.0,-81.0,-0.4265373893820427,0.8181463799504484,-0.25541380770148475,-0.288905076571107
-13.249368906021118,9948.0,8680.0,-10312.0,102.0,-32.0,-102.0,-0.43693088591158863,0.8158432675174502,-0.24952326487407508,-0.2850075508991769
-13.27283239364624,9896.0,8620.0,-10196.0,137.0,-53.0,-45.0,-0.44878294196495827,0.8103039375309504,-0.24771481534383924,-0.2839696640176239
-13.296260118484497,9896.0,8644.0,-10312.0,124.0,-47.0,-63.0,-0.4599566333155357,0.8056762324558806,-0.24450210423559077,-0.28203621212373403
-13.31972861289978,9884.0,8640.0,-10112.0,150.0,-43.0,-36.0,-0.4721299182957653,0.7993846622644806,-0.2439422769784026,-0.28030281391546635
-13.343239068984985,9912.0,8672.0,-10312.0,106.0,-51.0,-57.0,-0.4818422143652979,0.7950314706897237,-0.24046992203105533,-0.27915454083152497
-13.366671085357666,9880.0,8644.0,-10316.0,81.0,-25.0,-39.0,-0.4887900870669936,0.7919098883064356,-0.23870532435802916,-0.27745765030118996
-13.390124320983887,9852.0,8588.0,-10268.0,75.0,-19.0,-25.0,-0.4948323894862283,0.7888535871497658,-0.23800347597738217,-0.27605301986933617
-13.413620233535767,9940.0,8672.0,-10252.0,118.0,-40.0,-66.0,-0.505212043434263,0.7842078594668201,-0.23458258955761638,-0.27340415687382547
-13.437038898468018,9884.0,8608.0,-10320.0,138.0,-41.0,-69.0,-0.5169667693979157,0.7785863321000079,-0.2313467506632122,-0.27023575589272425
-13.460461378097534,9916.0,8672.0,-10216.0,143.0,-29.0,-49.0,-0.5282545612132759,0.7724745702557078,-0.23008313867891483,-0.2670054421941396
-13.483890771865845,9776.0,8640.0,-10292.0,145.0,-49.0,-52.0,-0.5400496360506423,0.7657222996230174,-0.22769669786923988,-0.26489613859218647
-13.507328987121582,9880.0,8656.0,-10212.0,136.0,-54.0,-30.0,-0.5507393840108389,0.7587021671913854,-0.2262917823727928,-0.2642899574879859
-13.530791521072388,9932.0,8600.0,-10452.0,131.0,-15.0,-97.0,-0.5617714575781707,0.7540076380384191,-0.2221655111486703,-0.25792982938441206
-13.554280757904053,9904.0,8688.0,-10328.0,77.0,-48.0,-82.0,-0.5694662545100875,0.7508083164428031,-0.21615307797608788,-0.255485623501674
-13.577710390090942,9868.0,8664.0,-10016.0,121.0,-32.0,-31.0,-0.5785416528509102,0.7447265194360841,-0.2152297505568655,-0.2536693155278778
-13.60118055343628,9936.0,8664.0,-10228.0,114.0,-60.0,-18.0,-0.5873279313856054,0.7380424682560061,-0.21355342163682328,-0.2544290710042647
-13.62460207939148,9940.0,8652.0,-10324.0,137.0,-72.0,-42.0,-0.5982594756195017,0.7302436115160739,-0.2101911992990208,-0.25426271336686346
-13.64806604385376,9944.0,8672.0,-10144.0,134.0,-42.0,-80.0,-0.6091800470101926,0.7238206980756844,-0.20586283768395472,-0.25020743278847307
-13.671502351760864,9884.0,8640.0,-10236.0,111.0,-66.0,-78.0,-0.6189237469039148,0.7179292431327983,-0.199840743537662,-0.24814244819357428
-13.694936275482178,9900.0,8604.0,-10156.0,94.0,-48.0,-45.0,-0.626492962495101,0.7126734086620561,-0.19645906611316782,-0.2469959835140238
-13.71845555305481,9896.0,8700.0,-10124.0,90.0,-67.0,-33.0,-0.6338196732660866,0.7069487593578334,-0.19267672307604,-0.24773323113375473
-13.741912364959717,9856.0,8636.0,-10184.0,126.0,-64.0,-66.0,-0.6439410367576385,0.6997529134791741,-0.18777305048934625,-0.24581920748149585
-13.765356302261353,9836.0,8628.0,-10216.0,124.0,-36.0,-37.0,-0.6527585694981988,0.6926839708742074,-0.18613772837937126,-0.24381942603979048
-13.788825750350952,9884.0,8616.0,-10300.0,112.0,-77.0,-23.0,-0.6611297057335012,0.6851032307268979,-0.18272865578890005,-0.24525764778673584
-13.812306642532349,9884.0,8644.0,-10288.0,142.0,-25.0,-74.0,-0.6714468180167292,0.6776007125634096,-0.17987954903930942,-0.24012453591039717
-13.835871696472168,9804.0,8672.0,-10084.0,117.0,-44.0,-36.0,-0.6796820123951848,0.6704562681641619,-0.17760684229549142,-0.23869764153766143
-13.859309911727905,9816.0,8632.0,-10356.0,93.0,-52.0,-90.0,-0.6876680932307891,0.6653169202153942,-0.17117261530675654,-0.23487427487163975
-13.882785558700562,9844.0,8648.0,-10312.0,103.0,-45.0,-64.0,-0.6955061092374201,0.659241179176355,-0.16684465947670798,-0.23202409205876912
-13.906320333480835,9920.0,8676.0,-10284.0,153.0,-34.0,-93.0,-0.7065195258676662,0.6506505005708141,-0.162492494811532,-0.2260094573344255
-13.929821252822876,9884.0,8676.0,-10424.0,108.0,-98.0,-53.0,-0.7149446171041711,0.6428654148510616,-0.15553707019909904,-0.2266858457337449
-13.953320264816284,9940.0,8640.0,-10268.0,109.0,-45.0,-50.0,-0.7225425605062615,0.6359252789382931,-0.15204747140796,-0.22452807018890805
-13.976794242858887,9872.0,8624.0,-10208.0,92.0,-81.0,-75.0,-0.7300657141079124,0.6295938598962119,-0.14454177189711256,-0.22298722125255535
-14.00022578239441,9868.0,8956.0,-10308.0,102.0,-18.0,-79.0,-0.7373200514700889,0.6238099607522067,-0.14100204812204875,-0.21757457799996563
-14.023727178573608,9888.0,8676.0,-10200.0,121.0,-39.0,-20.0,-0.7446559791416716,0.6156002185027443,-0.1396589218295799,-0.21683917833576868
-14.047256231307983,9892.0,8660.0,-10464.0,138.0,-43.0,-24.0,-0.7529231496764118,0.606172707846389,-0.13814036267104196,-0.21582080331756945
-14.07070779800415,9920.0,8600.0,-10320.0,103.0,-74.0,-54.0,-0.7601667821079917,0.5987275718741087,-0.13231202104592094,-0.21486108801748796
-14.09416675567627,9892.0,8672.0,-10348.0,110.0,-66.0,-62.0,-0.7677233489762468,0.5909700941396706,-0.1267037585954699,-0.21284117277215378
-14.117669582366943,9872.0,8464.0,-10324.0,112.0,-13.0,-22.0,-0.773958960598347,0.5835465061461635,-0.1267243134470705,-0.2107177041814488
-14.141192436218262,9908.0,8664.0,-10300.0,150.0,-44.0,-75.0,-0.7833243603088207,0.5734730039416682,-0.12262775863506739,-0.20614095446814043
-14.164632797241211,9940.0,8696.0,-10124.0,98.0,-39.0,-76.0,-0.7899175740505398,0.5669479356239804,-0.11785797286934285,-0.20176660459289633
-14.188068389892578,9980.0,8692.0,-10200.0,113.0,-89.0,-42.0,-0.7970526229724592,0.5580734751844196,-0.11156377163056819,-0.20202632840268683
-14.211530923843384,9896.0,8600.0,-10280.0,120.0,-63.0,-47.0,-0.8042352838276073,0.5491283393282285,-0.10693428604203908,-0.2005710189983321
-14.235002517700195,9956.0,8640.0,-10156.0,113.0,-47.0,-59.0,-0.8110290455255064,0.5409802700508225,-0.10270765674682339,-0.19754334201714321
-14.258491516113281,9860.0,8640.0,-10436.0,123.0,-18.0,-84.0,-0.818339304018372,0.5327665719552733,-0.09950572525354898,-0.19125682719191597
-14.281956195831299,9888.0,8636.0,-10284.0,111.0,-69.0,-19.0,-0.8243299955445855,0.5239084397221557,-0.09546037711948699,-0.19206072381818542
-14.305418729782104,9884.0,8656.0,-10300.0,130.0,-56.0,-86.0,-0.8320665950970398,0.5143672379335227,-0.0895839109872765,-0.18725984288277428
-14.32884955406189,9928.0,8636.0,-10168.0,129.0,-64.0,-37.0,-0.8388682725663251,0.5042822260127827,-0.08528319143522346,-0.1863497654085065
-14.35236644744873,9904.0,8588.0,-10260.0,126.0,-55.0,-77.0,-0.8459738571960022,0.49476911361435566,-0.07980999773112454,-0.18210469905068583
-14.375890970230103,9936.0,8640.0,-10048.0,111.0,-57.0,-51.0,-0.8518996056036519,0.48606100648180256,-0.07505122618115168,-0.17994186116339067
-14.399330139160156,9868.0,8664.0,-10292.0,117.0,-51.0,-15.0,-0.8573635235611452,0.4767010145174426,-0.0723446266695117,-0.18013935221629773
-14.44632887840271,9860.0,8652.0,-10000.0,142.0,-21.0,-56.0,-0.8641972987198899,0.46611868698443903,-0.07055273477406267,-0.17583716940695063
-14.46982717514038,9920.0,8664.0,-10472.0,149.0,-54.0,-129.0,-0.8724222781896752,0.45483771978760446,-0.06338525585897076,-0.16728516526112652
-14.493254899978638,9904.0,8644.0,-10172.0,130.0,-44.0,-61.0,-0.8786373006049351,0.44464985984362754,-0.0593720524929456,-0.16357859123213597
-14.516717672348022,9892.0,8644.0,-10256.0,127.0,-43.0,-42.0,-0.8843202371371471,0.4345315402794205,-0.056112198019382706,-0.16128074877531998
-14.540186643600464,9904.0,8636.0,-10256.0,105.0,-36.0,-49.0,-0.8891199025643886,0.4261805663886154,-0.05280200424001216,-0.1582651953046179
-14.563692569732666,9888.0,8612.0,-10240.0,115.0,-53.0,-31.0,-0.8940159437889794,0.41667883504024383,-0.04896652094910807,-0.1572148864031204
-14.587140321731567,9884.0,8592.0,-10212.0,140.0,-93.0,-76.0,-0.9004373811018864,0.40478226046951726,-0.04069922714130557,-0.15397213135390547
-14.610620260238647,9856.0,8660.0,-10260.0,118.0,-13.0,-97.0,-0.9058846385464734,0.39566577920852025,-0.037661258373248276,-0.14629847034943103
-14.634082794189453,9856.0,8696.0,-10112.0,116.0,-67.0,-8.0,-0.9101636918040918,0.3856521868302923,-0.033387318875630595,-0.14751180241884548
-14.657532930374146,9948.0,8640.0,-10228.0,119.0,-32.0,-78.0,-0.9152074020115867,0.37599181816781413,-0.029561990556848272,-0.1419565168929568
-14.68101716041565,9952.0,8664.0,-10200.0,133.0,-52.0,-42.0,-0.9201661333081594,0.3648011544553874,-0.025480602231178262,-0.13987545792834233
-14.704516410827637,9744.0,8632.0,-10436.0,133.0,-16.0,-69.0,-0.9252166082659998,0.35404329035498616,-0.023419406815849274,-0.13445857253358076
-14.727956295013428,9884.0,8664.0,-10320.0,133.0,-53.0,-26.0,-0.9296858932813713,0.34269169842480607,-0.01968630656851764,-0.13363752840437743
-14.751424789428711,9968.0,8692.0,-10316.0,103.0,-35.0,-88.0,-0.9338066596985125,0.3340264848046359,-0.015198030990566465,-0.1272809868196131
-14.77489972114563,9928.0,8624.0,-10180.0,131.0,-38.0,-66.0,-0.9383515712370497,0.32295352642546377,-0.011407166250126152,-0.12274862559091816
-14.798449277877808,9876.0,8628.0,-10220.0,114.0,-26.0,-87.0,-0.9424717979568537,0.31335805393109184,-0.007815704836220823,-0.1161574571450652
-14.82198977470398,9840.0,8620.0,-10160.0,102.0,-68.0,-53.0,-0.9458064412816162,0.3042438590965527,-0.00156974800608062,-0.11350500307668844
-14.845499515533447,9924.0,8732.0,-10284.0,140.0,-40.0,-39.0,-0.9498599347745017,0.29221266034381166,0.0016235194621424956,-0.1112440094096205
-14.869018316268921,9872.0,8640.0,-10212.0,138.0,-67.0,-21.0,-0.9535135998469194,0.280025245951899,0.006621836804243508,-0.11114777466906477
-14.892735242843628,9916.0,8672.0,-10204.0,153.0,-91.0,-54.0,-0.9576245710737852,0.2662636876984084,0.014282516165249788,-0.1088799302947192
-14.916206121444702,9872.0,8660.0,-10140.0,139.0,-38.0,-104.0,-0.9617066792199783,0.2540330842655046,0.018811851531603162,-0.1011611065785152
-14.939763307571411,9924.0,8668.0,-10312.0,83.0,-27.0,-84.0,-0.9642159398754008,0.24657890504500585,0.022472146257454504,-0.09477060472312636
-14.963344812393188,9856.0,8920.0,-10480.0,120.0,-23.0,-83.0,-0.9673844761673723,0.2360022193421214,0.025465351764098438,-0.08844062186293418
-14.986788034439087,9896.0,8656.0,-10260.0,102.0,-56.0,-142.0,-0.970354375808453,0.22650378425492365,0.03259877014214928,-0.07775436484729306
-15.010286569595337,9936.0,8616.0,-10324.0,122.0,-40.0,-17.0,-0.9727255011638134,0.21572636533403886,0.035769779605428965,-0.07738060191257225
-15.033697605133057,9880.0,8608.0,-10340.0,145.0,-57.0,-64.0,-0.9756224819690467,0.20268996899250455,0.04110865619188335,-0.07340046002902284
-15.057185649871826,9900.0,8660.0,-10236.0,119.0,-55.0,-55.0,-0.9778240668910434,0.1918631637111971,0.046278256773557964,-0.07004957936626954
-15.080606937408447,9984.0,8636.0,-10452.0,121.0,-42.0,-94.0,-0.9801747631930995,0.18075055484341124,0.05097425024469117,-0.0631529598288327
-15.10408616065979,9924.0,8564.0,-10264.0,111.0,-42.0,-37.0,-0.9818970038676638,0.17071067917839022,0.054819124093277084,-0.061081924034886007
-15.127565622329712,9936.0,8636.0,-10188.0,133.0,-58.0,-29.0,-0.9836834571621784,0.15870655947405482,0.059789700662347886,-0.060035620926912545
-15.15108585357666,9944.0,8720.0,-10324.0,110.0,-25.0,-78.0,-0.9854227730290449,0.14856217443746472,0.06271695763966484,-0.0542016784480353
-15.174594640731812,9888.0,8640.0,-10056.0,133.0,-20.0,-101.0,-0.9874146571884748,0.1363049642194459,0.06539127068392536,-0.046446024769017394
-15.198024988174438,9920.0,8940.0,-10252.0,124.0,-54.0,-65.0,-0.9887633692324392,0.12485383569328326,0.07058731277904552,-0.042142029512384736
-15.221490383148193,9936.0,8700.0,-10212.0,111.0,-24.0,-59.0,-0.989980432073127,0.11465221302334627,0.07316869006738207,-0.03794676474980937
-15.245012044906616,9868.0,8624.0,-10356.0,125.0,-51.0,-33.0,-0.9909389414515988,0.10329914748129063,0.07776564193105981,-0.03635664147681202
-15.268449068069458,9928.0,8616.0,-10240.0,140.0,-108.0,-46.0,-0.9914805308143101,0.0903553698186998,0.08734321720308795,-0.03425531447402367
-15.291914224624634,9876.0,8664.0,-10016.0,131.0,-20.0,-30.0,-0.9923715223739594,0.07855061132750582,0.0891881389502459,-0.032772532887421664
-15.315390586853027,9812.0,8660.0,-10440.0,81.0,-26.0,-56.0,-0.9928338542865868,0.07084424502615737,0.09186285813215743,-0.02869226419969898
-15.33890700340271,9848.0,8668.0,-10220.0,121.0,-51.0,-91.0,-0.993289461450566,0.05931685995824498,0.0968047258380363,-0.022054499571765005
-15.362437963485718,9836.0,8620.0,-10112.0,147.0,-73.0,-61.0,-0.9934159127855315,0.04573162330602386,0.10342491907291629,-0.018350176267442595
-15.385884523391724,9952.0,8632.0,-10308.0,129.0,-69.0,-76.0,-0.9933036186189619,0.03356599905895716,0.1097626798414913,-0.013168107672116132
-15.40935754776001,9920.0,8604.0,-10292.0,114.0,-6.0,-38.0,-0.9935436734485111,0.023128506758985864,0.11052630197087264,-0.010953433168707448
-15.432825326919556,9948.0,8640.0,-10268.0,80.0,-27.0,-69.0,-0.9934383763372532,0.01531387980626348,0.11319182007804902,-0.00576969436798652
-15.456359386444092,9832.0,8676.0,-10300.0,141.0,-60.0,-75.0,-0.9929307235944379,0.0021306217593985233,0.1186740383483524,-0.0007149931733925588
-15.479798078536987,9872.0,8684.0,-10260.0,120.0,-32.0,-107.0,-0.9924926103843298,-0.009565510039824499,0.12170945633255986,0.007329910600411843
-15.503255367279053,9876.0,8648.0,-10012.0,115.0,-67.0,-35.0,-0.9915534993910179,-0.020042608640395684,0.1278085510431328,0.009215528447655039
-15.526707410812378,9944.0,8652.0,-10244.0,130.0,-28.0,-60.0,-0.9908447163103299,-0.03212426969730635,0.13048049462317157,0.013023823524947669
-15.550228595733643,9944.0,8660.0,-10120.0,148.0,-30.0,-67.0,-0.9898654929353604,-0.04583555271730169,0.13329864520753643,0.01723018249383228
-15.5736563205719,9896.0,8736.0,-10284.0,122.0,-62.0,-103.0,-0.988343875421575,-0.05766514677599843,0.13866430833034996,0.024966464692275165
-15.597167015075684,9912.0,8944.0,-10192.0,89.0,2.0,-18.0,-0.9878014299450706,-0.06575618698064387,0.13884211512538863,0.025442600884122094
-15.62059736251831,9920.0,8744.0,-10492.0,143.0,-50.0,-87.0,-0.9860151309011066,-0.07920945677133978,0.1432050371519099,0.031501443242855
-15.64406442642212,9856.0,8696.0,-10204.0,133.0,-86.0,-45.0,-0.9837396580209076,-0.0911628263898871,0.15089253422124943,0.03430841642810278
-15.667550325393677,9728.0,8636.0,-10204.0,148.0,-62.0,-28.0,-0.9815029770263178,-0.10423345543988281,0.15666585525160676,0.03525766092382934
-15.690992593765259,9868.0,8564.0,-10168.0,122.0,-8.0,-82.0,-0.979888632742988,-0.11596088371920732,0.15721361164909148,0.040684409549442226
-15.71445369720459,9852.0,8668.0,-10216.0,131.0,-48.0,-111.0,-0.9773268873429579,-0.12869203381650707,0.16088336537940431,0.04885753220224692
-15.737890720367432,9924.0,8604.0,-10268.0,133.0,-36.0,-77.0,-0.9748390277691068,-0.14113936364846802,0.16388323979587177,0.05395214250701303
-15.761353492736816,9868.0,8660.0,-10312.0,127.0,-77.0,-79.0,-0.9716254486328146,-0.15288478780122836,0.17027986057720731,0.05979128958185997
-15.784827709197998,9936.0,8664.0,-10236.0,141.0,-25.0,-95.0,-0.9686940224343744,-0.16629118826148712,0.17208776940348355,0.06606762617369896
-15.808353900909424,9964.0,8924.0,-10168.0,144.0,-67.0,-74.0,-0.964981081544878,-0.17935826467149268,0.17772214287155316,0.07111234131746363
-15.831921815872192,9828.0,8684.0,-10288.0,97.0,-59.0,-100.0,-0.9617633339005861,-0.1888834582461642,0.1819460936657755,0.07893001815002944
-15.855427265167236,9960.0,8720.0,-9996.0,122.0,-45.0,-55.0,-0.9585037696796216,-0.19985613043723963,0.1858774103708841,0.08232641708723702
-15.878935098648071,9920.0,8640.0,-10196.0,93.0,-72.0,-87.0,-0.9549259662579741,-0.2086964784801314,0.191268591545389,0.08932247603212493
-15.902473449707031,9952.0,8632.0,-10248.0,147.0,-47.0,-58.0,-0.9508257896452921,-0.2217067003371128,0.19548783231807207,0.0925254785808639
-15.925915479660034,9852.0,8600.0,-10260.0,108.0,-48.0,-96.0,-0.9469683872432056,-0.23207946037911603,0.19869896714444166,0.0995425441099053
-15.949393272399902,9876.0,8628.0,-10472.0,101.0,-47.0,-65.0,-0.9433910709740642,-0.24131028732467863,0.20236135919392687,0.10407935790960512
-15.972857236862183,9860.0,8676.0,-10300.0,123.0,14.0,-59.0,-0.9403509923868867,-0.2527670105165813,0.20129874243968046,0.10643150757041445
-15.996364116668701,9892.0,8676.0,-10200.0,118.0,-69.0,-39.0,-0.9360052293985427,-0.2626532082617795,0.20740801479361334,0.10903860842723609
-16.01980710029602,9832.0,8904.0,-10180.0,146.0,-26.0,-73.0,-0.9312974155794773,-0.27580336989952664,0.20945024145477517,0.11290802115699092
-16.043275356292725,9932.0,8704.0,-10248.0,108.0,-74.0,-39.0,-0.9267938347024501,-0.2847205655183586,0.21579900739408722,0.11583685051036383
-16.066730499267578,9900.0,8656.0,-10160.0,117.0,-79.0,-79.0,-0.9214047065377796,-0.2950171006458365,0.22160993240694501,0.12193159949390393
-16.090269327163696,9944.0,8628.0,-10132.0,84.0,-16.0,-74.0,-0.9179957387327763,-0.30318918091412084,0.2220990876999406,0.1266180851535169
-16.113707065582275,9876.0,8688.0,-10132.0,109.0,-41.0,-122.0,-0.9127638060122777,-0.3139700864753284,0.22355892869484142,0.13530123662949547
-16.137187242507935,9864.0,8688.0,-10316.0,96.0,-27.0,251.0,-0.9122072143880172,-0.31648402232993006,0.2338763539463386,0.11409519136707363
-16.160695791244507,9844.0,8648.0,-10184.0,129.0,-67.0,-68.0,-0.9063981348974649,-0.3276122159692946,0.23881087456538258,0.11866770070833257
-16.1841561794281,9928.0,8640.0,-10120.0,136.0,-86.0,-61.0,-0.899869200386366,-0.338879110406799,0.24546761687472235,0.12305291460076541
-16.207594394683838,9896.0,8616.0,-10224.0,135.0,-62.0,-60.0,-0.8936993031048476,-0.3502308641904341,0.25020390826505123,0.12664083735993553
-16.23109269142151,9920.0,8616.0,-10032.0,92.0,-6.0,-85.0,-0.8896454493990014,-0.35933715848927833,0.24929307729687394,0.1313801450157325
-16.254614114761353,9884.0,8628.0,-10288.0,85.0,-18.0,-102.0,-0.8852390836097089,-0.36808728989377165,0.24866571872824578,0.13794517823347804
-16.278092622756958,9860.0,8696.0,-10168.0,96.0,-46.0,-52.0,-0.8803635629558055,-0.3762201105273216,0.25190609464385993,0.14128603942303708
-16.301509857177734,9916.0,8644.0,-10048.0,132.0,-77.0,-48.0,-0.8735375933528571,-0.386587428447177,0.258062875980675,0.14451915169443746
-16.325019121170044,9908.0,8616.0,-10188.0,92.0,-39.0,-33.0,-0.8689787634858048,-0.39399239508474565,0.26128629635115685,0.1462031893125554
-16.348534107208252,9892.0,8636.0,-10220.0,158.0,-32.0,-94.0,-0.8613774056935964,-0.4078097506352066,0.2626755069040492,0.15073735542366687
-16.371981620788574,9876.0,8712.0,-10288.0,125.0,-32.0,-35.0,-0.8555491463532716,-0.4177130682392513,0.26567322110634317,0.15155589854347087
-16.39543342590332,9820.0,8628.0,-10460.0,92.0,-28.0,-71.0,-0.8504321380237573,-0.42598858435884523,0.2665887910178134,0.1556577049681398
-16.418919801712036,9924.0,8716.0,-10252.0,90.0,-42.0,-18.0,-0.8457025916330899,-0.43265028082244855,0.27045960760712323,0.15637282904114935
-16.442450046539307,9884.0,8632.0,-10220.0,123.0,-70.0,-118.0,-0.8375575181386588,-0.44364877208702747,0.27302435217552057,0.16471452259658423
-16.465955018997192,9912.0,8616.0,-10232.0,149.0,-67.0,5.0,-0.8300478442035604,-0.45355547437030624,0.2804383500956271,0.16328606737070644
-16.489380598068237,9880.0,8632.0,-10340.0,119.0,-41.0,-63.0,-0.823240684713179,-0.4632415573440864,0.2827980659639072,0.16645506441522073
-16.512840270996094,9928.0,8640.0,-10000.0,132.0,-42.0,-48.0,-0.8159701022307974,-0.4733992268565728,0.2859787431701567,0.16823234745993063
-16.536312341690063,9844.0,8616.0,-10052.0,140.0,-40.0,-58.0,-0.8081256403527683,-0.4843205233039877,0.2886676555914332,0.17040412179969444
-16.559762716293335,9844.0,8708.0,-10268.0,100.0,-79.0,-53.0,-0.8009257721545677,-0.491634687292033,0.2936709191476404,0.17484459670477218
-16.583260536193848,9888.0,8692.0,-10184.0,113.0,-62.0,-255.0,-0.7902175354535711,-0.5050982904671051,0.288907323050603,0.1922615986530504
-16.60669183731079,9840.0,8600.0,-10328.0,93.0,-41.0,-86.0,-0.783455487676129,-0.5130882998801481,0.28969450026637256,0.1975221300808464
-16.63016176223755,9936.0,8696.0,-10020.0,125.0,-39.0,-86.0,-0.7751865276120247,-0.5232130049350626,0.29084893197851996,0.20184374561176832
-16.653682708740234,9844.0,8616.0,-10188.0,131.0,-14.0,-88.0,-0.7670947795025257,-0.5341354098559927,0.29026825786878413,0.20496170781822498
-16.67717719078064,9920.0,8688.0,-10228.0,128.0,-50.0,-37.0,-0.7590099598730581,-0.5428268978701292,0.29436710508917824,0.20637550049268863
-16.70059895515442,9936.0,8604.0,-10252.0,122.0,-47.0,-109.0,-0.7498468981868527,-0.5529194564167702,0.29469192777193076,0.21252381443358834
-16.724064350128174,9904.0,8636.0,-10204.0,112.0,-77.0,-43.0,-0.7414779839658749,-0.5599988267954035,0.29991946662137403,0.21600932114893512
-16.74760150909424,9844.0,8632.0,-10428.0,114.0,-25.0,-104.0,-0.7330941145669359,-0.5696883639265962,0.29878518908509344,0.22080669821666052
-16.77108120918274,9856.0,8464.0,-10264.0,135.0,-53.0,-82.0,-0.7232171001742399,-0.5794910081721045,0.30087923084034424,0.2249864127278896
-16.794607400894165,9896.0,8612.0,-9988.0,142.0,-11.0,-52.0,-0.7145400583594992,-0.5896552378701826,0.3019168745558431,0.2249119968127384
-16.818132877349854,9884.0,8668.0,-10236.0,142.0,-118.0,-53.0,-0.7028603573387683,-0.5976100667507004,0.3094996596053344,0.23034644973175672
-16.841659545898438,9872.0,8604.0,-10316.0,118.0,-75.0,-18.0,-0.6941431838582182,-0.6038803902760089,0.3157177459163342,0.23198279991581314
-16.865184545516968,9892.0,8696.0,-10420.0,124.0,-74.0,-40.0,-0.6845788531415883,-0.611040378163851,0.3207829178242965,0.2346907959781469
-16.888671398162842,10216.0,8668.0,-10348.0,100.0,-38.0,-67.0,-0.6766529994840965,-0.618163813431652,0.3217200016645328,0.2377192852542383
-16.912104606628418,9944.0,8700.0,-10236.0,127.0,-51.0,-52.0,-0.6671211134466669,-0.6261018543735186,0.32474336546331023,0.23976579099463607
-16.935575008392334,9872.0,8632.0,-10264.0,147.0,-50.0,-104.0,-0.6552956773941471,-0.6365616195540664,0.3252128118261308,0.24415877359495305
-16.959089279174805,9884.0,8640.0,-10212.0,107.0,-63.0,-24.0,-0.6469041798664771,-0.6420608007193576,0.32994991697140336,0.2457762448680958
-16.982566118240356,9984.0,8636.0,-10204.0,83.0,-32.0,-74.0,-0.6396081753095602,-0.6482344865643828,0.3295825480708531,0.24913606024200904
-17.006065607070923,9896.0,8544.0,-10060.0,138.0,-72.0,-78.0,-0.6278621023703268,-0.6566122832416401,0.332359365500728,0.2533510253921756
-17.029502868652344,9868.0,8472.0,-10184.0,108.0,-37.0,-95.0,-0.6183519928501028,-0.6644819957443577,0.3315108398951583,0.2573034265257819
-17.05303120613098,9856.0,8704.0,-10292.0,129.0,-49.0,-67.0,-0.6078025288229985,-0.6722890168067696,0.3333424474003147,0.2597814015639378
-17.076513290405273,9876.0,8620.0,-10216.0,94.0,-62.0,-82.0,-0.5984950192455772,-0.6782686697062262,0.3341324145659599,0.2647845410319564
-17.09995460510254,9868.0,8956.0,-10236.0,108.0,-90.0,-70.0,-0.5877254876562208,-0.6838670776102187,0.33735834554063837,0.2703588689394157
-17.123401880264282,9912.0,8660.0,-10224.0,144.0,-55.0,-47.0,-0.5762727381419068,-0.6913256760534084,0.34094204599320227,0.2715456907735714
-17.146835565567017,9916.0,8572.0,-10276.0,120.0,-51.0,-32.0,-0.5666497086833555,-0.6971078132213291,0.34459843967237413,0.27239809061410486
-17.17032217979431,9804.0,8696.0,-10356.0,132.0,-43.0,-11.0,-0.556957601320618,-0.7029409007440993,0.3493673822982482,0.2713203873252569
-17.19383978843689,9876.0,8696.0,-10364.0,88.0,-46.0,-69.0,-0.548433018545655,-0.708238741845453,0.3496336115276752,0.2745458912607979
-17.21731424331665,9884.0,8636.0,-10224.0,102.0,-25.0,-29.0,-0.5405944603869428,-0.7134146177950537,0.3516632956949113,0.27409877594816245
-17.240729331970215,9880.0,8576.0,-10456.0,73.0,-28.0,-25.0,-0.5345271421524517,-0.7169783186673709,0.3533603114736763,0.27451651159533025
-17.26429057121277,9932.0,8684.0,-10168.0,127.0,-48.0,-70.0,-0.5233354118791282,-0.7238811936347203,0.3544256228096647,0.2765836981299824
-17.287729740142822,9896.0,8720.0,-10232.0,138.0,-49.0,-69.0,-0.5113502162549775,-0.7310937836419273,0.35579248792550616,0.2782706261751267
-17.311179637908936,9912.0,8652.0,-10452.0,123.0,-34.0,-92.0,-0.5001349961432605,-0.7385748306984163,0.3545830418586486,0.28043372036517733
-17.334639310836792,9940.0,8872.0,-10312.0,127.0,-63.0,-50.0,-0.4887152968582014,-0.7440840141960241,0.35737417136074,0.28245360694980615
-17.358123064041138,9880.0,8632.0,-10492.0,141.0,-27.0,-61.0,-0.4771532640358015,-0.7512895090070405,0.3581904822388778,0.2821141873593404
-17.381623029708862,9896.0,8948.0,-10228.0,91.0,-18.0,-22.0,-0.47006513620852725,-0.755313471533877,0.3599058038030769,0.28108386618509945
-17.405060291290283,9904.0,8644.0,-10448.0,125.0,-45.0,-67.0,-0.45872770977719346,-0.7613961878819832,0.3605492510446007,0.28257560215371097
-17.428553819656372,9832.0,8692.0,-10284.0,107.0,-10.0,-12.0,-0.45099495749707497,-0.7657897648596741,0.3629488743259917,0.2800673115054167
-17.451984167099,9868.0,8636.0,-10248.0,132.0,-50.0,-47.0,-0.4394173597470638,-0.771197566907902,0.36514275338501245,0.2807801032813108
-17.475438594818115,9928.0,8636.0,-10272.0,99.0,-16.0,-61.0,-0.4307492324985726,-0.7765131460333368,0.3642252847525767,0.280753227383417
-17.498905420303345,9884.0,8656.0,-10216.0,94.0,-29.0,-58.0,-0.42204407522409754,-0.781147213305027,0.36383470843165405,0.28162410169316165
-17.522366523742676,9900.0,8652.0,-10204.0,146.0,-47.0,-63.0,-0.4090422271790389,-0.7872920521044074,0.364982768190632,0.2822113746849083
-17.545798301696777,9892.0,8620.0,-10320.0,137.0,-62.0,-31.0,-0.3968962607489284,-0.7915751854031805,0.3685645025751867,0.28291746411090346
-17.56926417350769,9872.0,8880.0,-10236.0,83.0,-22.0,-85.0,-0.3883885541901442,-0.796595785385752,0.36563680517320624,0.28442786850531576
-17.592708587646484,9868.0,8636.0,-10004.0,112.0,-70.0,-40.0,-0.3774078404868824,-0.7998708872374405,0.3681319333460433,0.28679045545471354
-17.616175174713135,9976.0,8724.0,-10256.0,115.0,-45.0,-83.0,-0.3658905166127844,-0.8051295156189426,0.3668144048483592,0.28868284557240415
-17.63962459564209,9848.0,8644.0,-10120.0,165.0,-57.0,-98.0,-0.3500207748399303,-0.8119735503294693,0.3659928649243118,0.2902303112535048
-17.663072109222412,9908.0,8560.0,-10356.0,122.0,-48.0,-56.0,-0.3384735479568092,-0.816208836958721,0.36669098102307845,0.2911640709983871
-17.68654227256775,9892.0,8616.0,-10304.0,115.0,-58.0,-57.0,-0.32703603350179844,-0.8198917894809371,0.3673731831676207,0.2930218944421168
-17.709998607635498,9864.0,8628.0,-10244.0,165.0,-45.0,-106.0,-0.31111811964079106,-0.8267188160288705,0.36536721949675965,0.2936806254627765
-17.733454942703247,9912.0,8636.0,-10216.0,125.0,-17.0,-17.0,-0.3012005228567673,-0.8301633738469082,0.36790899200115723,0.2911185177185077
-17.75691032409668,10188.0,8624.0,-10448.0,149.0,-48.0,-30.0,-0.2881738887823091,-0.8337392737612851,0.3708692342139088,0.2903285110451178
-17.780362606048584,9944.0,8468.0,-10272.0,113.0,-48.0,-55.0,-0.27709147742213835,-0.8370834788067184,0.3710304848967183,0.2912867005652076
-17.803781270980835,9904.0,8648.0,-10284.0,95.0,-38.0,-69.0,-0.2672641220675991,-0.8405957819354836,0.369417589529721,0.2924025735074149
-17.82749891281128,9884.0,8468.0,-10460.0,132.0,-42.0,-68.0,-0.2545803741345971,-0.8447169323685662,0.36885730527472343,0.2925515777103198
-17.850953578948975,9940.0,8660.0,-10228.0,123.0,-10.0,-25.0,-0.24465886960232286,-0.8479433949924107,0.3704634489679478,0.28963920555137374
-17.874511003494263,9920.0,8676.0,-10208.0,114.0,-19.0,-30.0,-0.23496269653753166,-0.8508160670945518,0.37161621563386377,0.2877602117867177
-17.897993803024292,9924.0,8640.0,-10292.0,95.0,253.0,-27.0,-0.23549762640259786,-0.8597440358730642,0.366806710732547,0.2661463839713162
-17.92146944999695,9876.0,8684.0,-10148.0,99.0,-44.0,-32.0,-0.2260369712732898,-0.8617314890751742,0.36768922140037097,0.26670351482473914
-17.9449725151062,9944.0,8476.0,-10164.0,83.0,-31.0,-78.0,-0.21710386219201694,-0.8650989294429594,0.3644424660244828,0.2676778740500397
-17.96843695640564,9868.0,8684.0,-10000.0,126.0,-33.0,-47.0,-0.20556450979394045,-0.8681407561693617,0.36452913669147885,0.2668208543083374
-17.99189305305481,9904.0,8716.0,-10220.0,137.0,-34.0,-31.0,-0.19350423581032383,-0.8707190131479395,0.3660423170624921,0.2653630211345639
-18.015292644500732,9956.0,8644.0,-10316.0,164.0,-42.0,-26.0,-0.17921837415214184,-0.8732456453673391,0.36862101779266865,0.26351729061816714
-18.038715600967407,9904.0,8604.0,-10296.0,120.0,-32.0,-47.0,-0.16809644225702053,-0.8758373487065007,0.36835926152387755,0.2626099372850982
-18.06219983100891,9836.0,8624.0,-10136.0,100.0,-46.0,-66.0,-0.15760044917999672,-0.8783151196886205,0.3663400212182394,0.26366576910635814
-18.085644006729126,9972.0,8616.0,-10216.0,132.0,-45.0,-44.0,-0.14516868756491969,-0.8804304525282682,0.3666741402673924,0.2632837732765089
-18.109093189239502,9848.0,8632.0,-10228.0,126.0,-61.0,-35.0,-0.13287341361413338,-0.8816767467043788,0.36770212793887314,0.2641702393997757
-18.13255786895752,9920.0,8620.0,-10240.0,92.0,-52.0,-47.0,-0.12319106167936679,-0.8830110190696483,0.36686723746709715,0.265563424810632
-18.156055450439453,9896.0,8656.0,-10132.0,156.0,-44.0,-70.0,-0.10828200544317361,-0.8858091741892009,0.3655929039502878,0.26449752891217365
-18.179537534713745,9912.0,8628.0,-10492.0,94.0,-24.0,-60.0,-0.09901848230638938,-0.8880208039750411,0.3634057893261333,0.2637245232311755
-18.20296812057495,9864.0,8684.0,-10284.0,146.0,-37.0,-87.0,-0.08467844527806045,-0.8910958957764361,0.3603727625908328,0.26250549978682874
-18.226462602615356,9964.0,8908.0,-10336.0,75.0,6.0,-195.0,-0.07471876275148581,-0.897781620531304,0.3468910060292652,0.26090591841711325
-18.249907732009888,9856.0,8624.0,-10144.0,129.0,-87.0,-32.0,-0.061404264223567144,-0.8975376044623428,0.3479219556403359,0.26382963763490574
-18.273380756378174,10080.0,8676.0,-10276.0,143.0,-23.0,-149.0,-0.04622758135602842,-0.9021667003410636,0.3396751480612959,0.26187601896169466
-18.296862840652466,9772.0,8632.0,-10216.0,164.0,-99.0,-27.0,-0.029922634596422238,-0.9012563568926236,0.34171227148957123,0.2647155806009204
-18.320347785949707,9952.0,8576.0,-9996.0,117.0,249.0,-151.0,-0.024812758209572672,-0.911493493626429,0.3318222544823222,0.24178074682858708
-18.343785047531128,9908.0,8616.0,-10192.0,77.0,-26.0,-43.0,-0.017193432225425423,-0.9123465624352066,0.3301276333915229,0.24154478171197047
-18.367266178131104,9912.0,8636.0,-10252.0,82.0,19.0,-86.0,-0.009565728540188915,-0.9153178005575493,0.32501623457480383,0.23762632026524733
-18.390703678131104,9892.0,8660.0,-10056.0,145.0,-85.0,-105.0,0.0064385259290712605,-0.9165404862859968,0.31971152821453114,0.24020120963312874
-18.414183616638184,9884.0,8612.0,-10236.0,165.0,-41.0,-71.0,0.022099608706339483,-0.9174768469745282,0.3174790697570967,0.23865222149997534
-18.43763566017151,9924.0,8660.0,-10240.0,125.0,-74.0,-16.0,0.0343212196379815,-0.9160913423930588,0.318683365824431,0.24091413122076624
-18.461087942123413,9924.0,8632.0,-10200.0,130.0,-1.0,-61.0,0.04585294421644422,-0.9173351306309637,0.3165610546231928,0.2370292478003686
-18.484546184539795,9960.0,8620.0,-10268.0,111.0,-34.0,-61.0,0.05676776200054925,-0.9178445059629866,0.3138644280609907,0.23627950581664323
-18.50803780555725,9856.0,8712.0,-10204.0,127.0,-54.0,-91.0,0.07011916520919732,-0.9185327385551133,0.3089405340775308,0.23650931752617957
-18.53147006034851,9828.0,8724.0,-10228.0,121.0,-36.0,-9.0,0.08079969356826526,-0.9172713417114131,0.31052335650125956,0.23592358987903267
-18.554901123046875,9900.0,8632.0,-10240.0,101.0,-52.0,-70.0,0.0915591532116579,-0.9173611533637274,0.306655959874077,0.23670141114079682
-18.578394889831543,9872.0,8696.0,-10160.0,106.0,-57.0,-31.0,0.10203537165087645,-0.9161518100879564,0.3059342724859314,0.2380312263614427
-18.601827144622803,9872.0,8608.0,-10224.0,122.0,-35.0,-125.0,0.1151377914636131,-0.9176072234331168,0.29816887078639076,0.23629557121159958
-18.625312566757202,9848.0,8644.0,-10004.0,164.0,-90.0,-37.0,0.1311906601685815,-0.9149838343963894,0.2976842042880986,0.23870003769411935
-18.648737907409668,9864.0,8944.0,-10264.0,153.0,-69.0,-39.0,0.14582703076257214,-0.9127514293578894,0.2969756110469882,0.23963470480581386
-18.67220664024353,9852.0,8628.0,-10152.0,110.0,-72.0,-50.0,0.15732101316925634,-0.9111226031571857,0.2943949393265996,0.24173812386622026
-18.69570255279541,10032.0,8628.0,-10328.0,105.0,-36.0,-91.0,0.16833459335482107,-0.9112401381470743,0.2888960745535779,0.24050765771031374
-18.719144105911255,9860.0,8620.0,-10184.0,115.0,-38.0,-60.0,0.17951796319803176,-0.9102562247180245,0.2859984119566827,0.2396076263593775
-18.742623805999756,9844.0,8692.0,-10452.0,127.0,-16.0,-3.0,0.18988842108181442,-0.908005692356639,0.2881856051470626,0.2375228561065597
-18.766125202178955,9892.0,8696.0,-10256.0,112.0,-60.0,-47.0,0.2010658282560439,-0.9060816992264572,0.2858054326518395,0.23854505172252427
-18.789611101150513,9904.0,8636.0,-10152.0,155.0,-66.0,-66.0,0.21615121663673467,-0.9035808187958001,0.2826560036148698,0.2385915737641241
-18.813164949417114,9908.0,8628.0,-10240.0,149.0,-54.0,-31.0,0.22969121606438933,-0.9003828228572003,0.28230284280789963,0.23844878382818321
-18.836681604385376,9904.0,8688.0,-10216.0,134.0,-39.0,-103.0,0.2431331312304609,-0.8993837132702692,0.2762183427296039,0.23600560150548236
-18.860168933868408,9860.0,8696.0,-10292.0,123.0,-36.0,-32.0,0.2541332408255962,-0.8968101553677507,0.27549122439182444,0.23505834684146776
-18.88366961479187,9928.0,8628.0,-10272.0,67.0,-40.0,-82.0,0.26184455368440346,-0.8964992164318533,0.2695787039931008,0.23463568994568718
-18.90714383125305,9932.0,8572.0,-10232.0,76.0,-68.0,-60.0,0.2704428885046652,-0.8948035005208727,0.26490274705458977,0.2366725039284828
-18.930641412734985,9868.0,8644.0,-10176.0,160.0,-58.0,-16.0,0.28441750026103296,-0.8901710729181083,0.26559072093616337,0.23698885087214167
-18.954118013381958,9936.0,8712.0,-10320.0,151.0,-41.0,-41.0,0.2977573825413579,-0.8865103378149428,0.2645150317956515,0.23552443619187569
-18.97759985923767,9792.0,8656.0,-10220.0,165.0,-73.0,49.0,0.3110007647029468,-0.8795490803568722,0.2697959112994027,0.23849969778531713
-19.00104570388794,9972.0,8644.0,-10360.0,113.0,255.0,-81.0,0.3150944626016131,-0.8834880460858654,0.2727936507429254,0.21388776537129744
-19.02454447746277,9768.0,8700.0,-10164.0,109.0,-75.0,-61.0,0.32623543032870544,-0.8805481207438054,0.2680671945172253,0.21527988823032482
-19.048038959503174,9896.0,8592.0,-10276.0,135.0,-41.0,-78.0,0.33884195030752845,-0.8777509867732364,0.26344091952073423,0.21292773387342054
-19.071511030197144,9800.0,8668.0,-10232.0,156.0,-48.0,-57.0,0.35275686806687123,-0.8735376462124456,0.2605486683196247,0.21120834291794088
-19.094964027404785,9740.0,8596.0,-10704.0,94.0,-19.0,-103.0,0.3620646089783888,-0.8726544960845682,0.2538477339715995,0.20723097583662223
-19.11847448348999,9948.0,8684.0,-10240.0,93.0,-37.0,-85.0,0.3713245959277044,-0.8709565404313118,0.24789056176418042,0.20519020085590572
-19.14196252822876,9896.0,8668.0,-9996.0,131.0,-23.0,-71.0,0.3828658044855325,-0.8678449455802049,0.24409168980929372,0.2016883069307213
-19.16545271873474,9812.0,8620.0,-10228.0,137.0,-58.0,28.0,0.39379713529633514,-0.8616622846299221,0.24668303652542797,0.2039838301663578
-19.188905477523804,9896.0,8564.0,-10276.0,161.0,-84.0,-19.0,0.407848398658436,-0.8550240158457488,0.24522051997260244,0.20605948806867574
-19.212342977523804,9904.0,8628.0,-10224.0,149.0,-89.0,-54.0,0.42164135390542684,-0.849260356274829,0.24068970478235677,0.2074701953258128
-19.235779285430908,10012.0,8676.0,-10352.0,65.0,-16.0,-106.0,0.4285405294741104,-0.8488478723662326,0.2334225751493173,0.20328355956158975
-19.259270191192627,9832.0,8464.0,-10284.0,119.0,-37.0,-65.0,0.43908300751232177,-0.8450968181179362,0.2293309872721435,0.20105914253686205
-19.282737731933594,9920.0,8776.0,-10300.0,87.0,-14.0,-56.0,0.4465981979030952,-0.842698609536877,0.22619431126876904,0.19810410562118416
-19.30628514289856,9864.0,8708.0,-10188.0,110.0,-75.0,-53.0,0.45690594404754553,-0.8381920585898504,0.2212689382564373,0.199276411483645
-19.329790353775024,9908.0,8628.0,-10232.0,142.0,-26.0,-52.0,0.46851671801688927,-0.8331055265510283,0.21888822682551246,0.19625292539475614
-19.353238582611084,9940.0,8584.0,-10460.0,158.0,-88.0,-63.0,0.48255678928971707,-0.8263277156883301,0.2133939182039208,0.19693777461239936
-19.376720428466797,9952.0,8596.0,-10352.0,142.0,-46.0,-92.0,0.49503989632748513,-0.8212769040865538,0.20724432914163549,0.19362214722678783
-19.40020179748535,9860.0,8712.0,-10308.0,151.0,-46.0,-255.0,0.5106938888661495,-0.8184118104206328,0.18946857254518515,0.18301781458776406
-19.423707008361816,9844.0,8652.0,-10424.0,76.0,244.0,-85.0,0.5131653046642154,-0.8202060966430479,0.19543177834617667,0.16040495357347664
-19.447177171707153,9916.0,8592.0,-10252.0,118.0,-39.0,-63.0,0.522984428384352,-0.815495736700172,0.19080821478105725,0.15825996418362492
-19.47064757347107,9948.0,8676.0,-10272.0,138.0,-18.0,-55.0,0.5336860968791033,-0.8099022143300132,0.18795583029017962,0.1546291016633638
-19.494133710861206,9888.0,8664.0,-10316.0,125.0,-57.0,-77.0,0.5443111727372303,-0.8046069050937162,0.1815195283038252,0.15291741677549128
-19.51766538619995,9856.0,8624.0,-10348.0,113.0,-43.0,-68.0,0.5536624197619141,-0.7997943333557508,0.17618612506295583,0.15081577706166185
-19.541188955307007,9860.0,8632.0,-10208.0,87.0,-70.0,-60.0,0.5614378430735218,-0.7956538501572675,0.1697368141439286,0.15136681610953404
-19.564722776412964,9940.0,8684.0,-10296.0,116.0,-74.0,-91.0,0.5716054500561351,-0.7903703685288045,0.16129147773760805,0.15022299832909672
-19.588204860687256,9924.0,8660.0,-10276.0,101.0,-87.0,-112.0,0.5810738653882047,-0.7857899909633761,0.15051276569415634,0.14910788184292548
-19.611741304397583,9896.0,8712.0,-10212.0,102.0,-39.0,-54.0,0.5891288748324373,-0.7808880987597394,0.1461286263031773,0.1476054559588243
-19.635179042816162,9820.0,8656.0,-10492.0,133.0,-49.0,-96.0,0.5998648915386677,-0.7746728462621569,0.13874039172043942,0.14420539819524839
-19.658636808395386,9872.0,8716.0,-10128.0,113.0,-50.0,-80.0,0.6089498059179571,-0.7691470687082341,0.13209698381596716,0.14192712015938835
-19.682161569595337,9876.0,8628.0,-10028.0,138.0,-30.0,-71.0,0.6192659155573715,-0.7623017828270983,0.12740208762785,0.13847175089375968
-19.70566439628601,9916.0,8608.0,-10252.0,108.0,-36.0,-65.0,0.6274816509955048,-0.7568198928713049,0.12239431259157563,0.1360516801199378
-19.729164361953735,9948.0,8684.0,-10440.0,141.0,-29.0,-53.0,0.6375637514203035,-0.7493714636199361,0.11893217028126224,0.13345415414730633
-19.75259757041931,9992.0,8628.0,-10304.0,123.0,-36.0,-64.0,0.6465668861705348,-0.7428324770397157,0.11412635921727876,0.1308676694015279
-19.77607822418213,9896.0,8640.0,-10204.0,112.0,-71.0,-63.0,0.6550935052180502,-0.7363867451590195,0.1072623926742407,0.13069751372168686
-19.799553871154785,9900.0,8952.0,-10444.0,159.0,-48.0,-48.0,0.6661280143944808,-0.7272339516344662,0.1031908110489487,0.12944460028925667
-19.823187351226807,9836.0,8672.0,-10236.0,148.0,-65.0,-45.0,0.676440875933386,-0.7183428536746238,0.09816813108048988,0.1295156514913749
-19.84663677215576,9852.0,8640.0,-10416.0,112.0,-28.0,-70.0,0.6843446196940702,-0.7120855404365811,0.09333353282067705,0.1260772630101575
-19.870149850845337,9912.0,8660.0,-10256.0,127.0,-66.0,-44.0,0.693102832412753,-0.7041916606381744,0.08799031149746853,0.12641310798982852
-19.893651962280273,9908.0,8724.0,-10188.0,113.0,-27.0,-67.0,0.7008522590765585,-0.6976429731352136,0.08342055142741646,0.12305041479771553
-19.917098999023438,9880.0,8632.0,-10244.0,123.0,-9.0,-75.0,0.7090629872168813,-0.6906330501674438,0.07955456727544721,0.11801161383991866
-19.9405574798584,9900.0,8740.0,-10164.0,164.0,-39.0,-63.0,0.7196900951522551,-0.6805532065781831,0.07495653491405434,0.11521726359174281
-19.96399211883545,9860.0,8696.0,-10016.0,116.0,-40.0,-75.0,0.7274526972859967,-0.6734182474258094,0.06907831836318631,0.1120206372834658
-19.9874324798584,9956.0,8628.0,-10204.0,120.0,-48.0,-20.0,0.7348575221944269,-0.6655251569626195,0.06594730307175285,0.11274591230599143
-20.010913372039795,9924.0,8612.0,-10252.0,129.0,-42.0,-117.0,0.743569019562059,-0.657548659249619,0.05763941508651006,0.10682963865440975
-20.034445762634277,9832.0,8580.0,-10296.0,127.0,-20.0,-53.0,0.7513144224329584,-0.6494571754492959,0.054394348461031625,0.10379436765621028
-20.057889938354492,9876.0,8716.0,-10392.0,99.0,-14.0,-59.0,0.7574073856712371,-0.6432028975454775,0.05093735420656309,0.10014724492565388
-20.081340074539185,9884.0,8676.0,-10076.0,87.0,-44.0,-92.0,0.7631622638675637,-0.6375453945047891,0.043527395365622154,0.09604475418758089
-20.10480785369873,9824.0,8644.0,-10256.0,96.0,-59.0,-67.0,0.7691622616413394,-0.6309843909822543,0.03657284143466069,0.09439566130351824
-20.128247022628784,9956.0,8636.0,-9992.0,128.0,-66.0,-71.0,0.7768591564055202,-0.6221226962843018,0.029178140348586814,0.09274609427168347
-20.1517276763916,9924.0,8628.0,-10276.0,120.0,-12.0,-116.0,0.7841882596185393,-0.6142300814839405,0.022923888177962874,0.08511566147003949
-20.175244331359863,9876.0,8652.0,-10308.0,91.0,-69.0,-27.0,0.7892925532942227,-0.607621948820954,0.017312167647159343,0.0866782641535307
-20.19868755340576,9856.0,8936.0,-10484.0,110.0,-26.0,-92.0,0.7957275739185806,-0.6000461561527228,0.011354772447880648,0.08144512099965577
-20.222140312194824,9844.0,8660.0,-10144.0,128.0,-50.0,-73.0,0.8028595469013766,-0.5909235533640701,0.004841407413832913,0.07875571600303298
-20.245664358139038,9900.0,8660.0,-10476.0,135.0,-63.0,-53.0,0.8100695724685253,-0.581104152335229,-0.0015121786037082625,0.0781214772984121
-20.269206047058105,9880.0,8680.0,-10292.0,81.0,-58.0,-80.0,0.8146020065639122,-0.575036299389158,-0.009257580647778946,0.07530685551409164
-20.292673587799072,9916.0,8648.0,-10476.0,96.0,-46.0,-100.0,0.8199099926806205,-0.5678825370831598,-0.017061071551872867,0.07046948145091084
-20.31610417366028,9844.0,8664.0,-10212.0,103.0,-61.0,-68.0,0.8252230437927203,-0.5600898779210665,-0.024314371962728367,0.06866635245810791
-20.33957290649414,9980.0,8688.0,-10272.0,104.0,-27.0,-78.0,0.8306033140335628,-0.5523266222202832,-0.029606744899332994,0.06447385330241255
-20.36304473876953,9904.0,8616.0,-10160.0,116.0,-34.0,-77.0,0.8364188830931721,-0.5435729740379096,-0.0352941162783569,0.060714077913465184
-20.38659691810608,9856.0,8660.0,-10340.0,127.0,-46.0,12.0,0.8421246161284627,-0.5341458916117802,-0.037578893665557604,0.0640478269390818
-20.410033464431763,9948.0,8584.0,-10052.0,128.0,-26.0,-67.0,0.8482612720355603,-0.524410021548219,-0.04207199525761057,0.06063737197020609
-20.433498859405518,9888.0,8624.0,-10328.0,140.0,-57.0,-13.0,0.8544034350752767,-0.5137314139412483,-0.046325188337498414,0.06267999191917922
-20.45697331428528,9924.0,8684.0,-10236.0,127.0,-27.0,-40.0,0.860101058539202,-0.5039896492018991,-0.049622678685098065,0.061304097393291984
-20.48052668571472,9880.0,8652.0,-10328.0,135.0,-23.0,-49.0,0.8660873103177545,-0.49355177856743815,-0.052972552242186895,0.0591043271548267
-20.503982067108154,9948.0,8584.0,-10376.0,121.0,-33.0,-79.0,0.8714376648152174,-0.48389706002486044,-0.05844299039826973,0.054994986262432814
-20.527430295944214,9928.0,8656.0,-10024.0,109.0,-33.0,-94.0,0.8762117817576374,-0.47498594787533177,-0.06460256038893122,0.049676674821022115
-20.55091428756714,9940.0,8640.0,-10176.0,138.0,-24.0,-114.0,0.8821419201087715,-0.46368223232434064,-0.07077233255510608,0.04261099809011462
-20.57444143295288,9848.0,8456.0,-10204.0,133.0,-63.0,-58.0,0.8872255535692198,-0.4528586476842716,-0.0776927120474719,0.04139691783300701
-20.597960233688354,9956.0,8676.0,-10228.0,135.0,-55.0,-83.0,0.8923547628951295,-0.44163826154871444,-0.08496611752732801,0.037939187483902015
-20.621442317962646,9888.0,8600.0,-10296.0,109.0,-29.0,-54.0,0.8964289541470154,-0.43266516393287374,-0.08917837153317312,0.03554158320220085
-20.64489245414734,9932.0,8668.0,-10160.0,116.0,-18.0,-67.0,0.9007794337175631,-0.42301255418788947,-0.09299373870862747,0.031764057547734786
-20.66840362548828,9864.0,8672.0,-10308.0,127.0,-45.0,-69.0,0.9051796631590248,-0.4123339837410193,-0.09896693744059368,0.028913812429441153
-20.691901445388794,9916.0,8664.0,-10192.0,123.0,-92.0,-71.0,0.9088567009624763,-0.401745268902091,-0.1087230205482385,0.027559768381784498
-20.715386629104614,9844.0,8664.0,-10112.0,110.0,-93.0,-54.0,0.9118446781673872,-0.3922575189549823,-0.11797915250061963,0.027463453831068293
-20.738852739334106,9848.0,8608.0,-10256.0,147.0,-38.0,-90.0,0.9165576223078593,-0.3795011734572897,-0.12398424666666466,0.02299762840823475
-20.762319326400757,9924.0,8672.0,-10200.0,100.0,-16.0,-78.0,0.9197621531841492,-0.37059819688486617,-0.1279113903980329,0.01825470465894914
-20.785837650299072,10200.0,8608.0,-10296.0,93.0,-42.0,-95.0,0.9223485985818607,-0.36197063516782146,-0.13447541599858737,0.01291063369042318
-20.809337377548218,9796.0,8680.0,-10444.0,131.0,-17.0,-49.0,0.9262366220985518,-0.35079356172309784,-0.1375142944217372,0.01092775213752936
-20.83288288116455,9920.0,8748.0,-10324.0,114.0,-38.0,-43.0,0.9292196283762701,-0.3409837213075507,-0.14206875786063689,0.009871782182395459
-20.85636281967163,9848.0,8624.0,-10224.0,154.0,-84.0,-52.0,0.9326513313123205,-0.32770882786295324,-0.15056346474865984,0.009952960611016973
-20.881245613098145,9884.0,8652.0,-10260.0,139.0,-33.0,-35.0,0.9361116626330047,-0.31584466555617896,-0.15440770275623858,0.009765431466059793
-20.905052185058594,9864.0,8684.0,-10432.0,117.0,-55.0,-47.0,0.9385324001216601,-0.305542524780937,-0.16037855842234158,0.008911648037164903
-20.9285728931427,9912.0,8644.0,-10372.0,110.0,-47.0,-40.0,0.9407459308375618,-0.29587044301321874,-0.16549471636953783,0.00832306539067563
-20.95206642150879,9844.0,8628.0,-10324.0,114.0,-12.0,-96.0,0.9434691654285605,-0.28503712600164227,-0.16915822976444614,0.00229433851437249
-20.975591897964478,9916.0,8700.0,-10240.0,114.0,-48.0,-103.0,0.9454860034235999,-0.2740313102487273,-0.17593017903010774,-0.0034103430719525244
-20.999115228652954,9936.0,8668.0,-10224.0,97.0,-37.0,-62.0,0.9471274341414264,-0.2650050009569131,-0.18078412833052118,-0.006250752616941562
-21.02261710166931,9880.0,8660.0,-10188.0,152.0,-41.0,-89.0,0.949788194955585,-0.25095614008452516,-0.18659082250314163,-0.010356902745949427
-21.046052932739258,9880.0,8628.0,-10204.0,157.0,-50.0,-42.0,0.9522274503326115,-0.23719991967163231,-0.19207656487420305,-0.010279794110355768
-21.06951594352722,9880.0,8644.0,-10260.0,111.0,-38.0,-115.0,0.9536431611670547,-0.2259740293869661,-0.197994699927672,-0.01727883105063856
-21.093011617660522,9912.0,8668.0,-10304.0,148.0,-35.0,-74.0,0.9556954127972667,-0.21231921069006818,-0.20286865775816698,-0.020276548759783644
-21.116544485092163,9832.0,8600.0,-10364.0,131.0,-44.0,-40.0,0.9571499579925106,-0.2006542955924213,-0.2077955993477082,-0.020562112415099736
-21.139983415603638,9968.0,8684.0,-10300.0,105.0,-42.0,-36.0,0.9580627883102002,-0.19119621294551842,-0.21241045415528326,-0.021011919858091112
-21.1634361743927,9912.0,8596.0,-10228.0,76.0,-69.0,-51.0,0.9578600729391124,-0.18391047055618961,-0.21945695986586852,-0.02279610175687101
-21.18692970275879,9856.0,8668.0,-10124.0,134.0,-43.0,-48.0,0.9589590963128717,-0.17175283577151382,-0.22436579682010388,-0.023630578082723057
-21.210465908050537,9900.0,8908.0,-10276.0,157.0,-43.0,-34.0,0.9602461479600094,-0.15790517506886,-0.22906751585377474,-0.022833400864019988
-21.233896493911743,9816.0,8716.0,-10296.0,119.0,-51.0,-97.0,0.960521592712441,-0.14596327570604628,-0.23518430778801086,-0.027952342452655245
-21.257341861724854,9840.0,8652.0,-10040.0,109.0,-26.0,-41.0,0.9611671685723253,-0.1359194892174356,-0.23842994586940036,-0.02889164969754439
-21.280802249908447,9868.0,8672.0,-10284.0,97.0,-40.0,-78.0,0.9611666675495277,-0.1261297755107142,-0.2432289512144666,-0.033009001991316525
-21.304224967956543,9860.0,8696.0,-10288.0,110.0,-18.0,-112.0,0.9615196158656207,-0.1144411880531895,-0.24655328664425022,-0.03993394079629453
-21.327720403671265,9904.0,8680.0,-10120.0,106.0,-29.0,-24.0,0.9617612598539003,-0.10499804111147644,-0.2498702983047476,-0.03944013732339057
-21.351157665252686,9924.0,8616.0,-10496.0,86.0,-35.0,-50.0,0.9615079124551904,-0.09667862874258885,-0.25383749393632554,-0.04150064701472257
-21.374639987945557,9876.0,8604.0,-9992.0,125.0,-69.0,-89.0,0.9605402688648575,-0.08432669574285892,-0.2610850126156652,-0.045672929198776566
-21.39810299873352,9888.0,8668.0,-10292.0,143.0,-33.0,-50.0,0.9604831314513886,-0.07119224487215985,-0.26504585960099863,-0.04641670793759837
-21.421555519104004,9924.0,8716.0,-10272.0,102.0,-48.0,-24.0,0.9597889406303395,-0.06214151196222254,-0.26989589182835483,-0.0458238967015732
-21.444966554641724,9848.0,8656.0,-10168.0,127.0,-31.0,-78.0,0.9592767808243898,-0.049647278737741475,-0.27367489984806415,-0.049246874807287254
-21.46840476989746,9916.0,8608.0,-10244.0,115.0,-31.0,-34.0,0.958756401412808,-0.03919935962061499,-0.27716969527128776,-0.049259851588466255
-21.49191403388977,9864.0,8576.0,-10480.0,138.0,-59.0,-113.0,0.957107444984873,-0.025029929316090563,-0.28331993978776204,-0.05521460958494798
-21.515342473983765,9904.0,8640.0,-10256.0,108.0,-32.0,-74.0,0.9560481681731561,-0.014189446352717081,-0.28692393044071945,-0.058695978443206565
-21.538799047470093,9904.0,8600.0,-10004.0,145.0,-30.0,-64.0,0.9549705059180585,-0.0004981516747914473,-0.2904864913861726,-0.0604043292626241
-21.562285661697388,9960.0,8680.0,-10220.0,98.0,-47.0,-59.0,0.9533311651015021,0.009063102164192498,-0.29516915480573286,-0.06287065990303425
-21.58581566810608,9888.0,8648.0,-10244.0,81.0,-27.0,-90.0,0.9519345443952567,0.01811846836317915,-0.2980333450892225,-0.06832619926569866
-21.609238386154175,9804.0,8448.0,-10156.0,124.0,-52.0,-64.0,0.9498338239409514,0.029916914681031297,-0.3032267252642184,-0.07052827942900443
-21.63270854949951,9864.0,8644.0,-10204.0,177.0,-38.0,-47.0,0.947857598126016,0.04573991372217933,-0.3075597309874118,-0.06986305062347675
-21.65617036819458,9888.0,8664.0,-10448.0,127.0,-75.0,-49.0,0.9448561912353705,0.057247184831790664,-0.3145674359733332,-0.07082983790879963
-21.67957901954651,9904.0,8604.0,-10004.0,87.0,-23.0,-42.0,0.943397941648625,0.06558005475017732,-0.31703175794405636,-0.07204474003702359
-21.70306921005249,9900.0,8676.0,-10472.0,135.0,-59.0,-75.0,0.9403233553422428,0.07854059592156648,-0.32252497417384296,-0.07483985050995956
-21.726511001586914,9896.0,8692.0,-10212.0,125.0,-39.0,-33.0,0.9379859649831055,0.0896177740125357,-0.32653971533420095,-0.07431553259722799
-21.749975442886353,9916.0,8708.0,-10204.0,121.0,-25.0,-54.0,0.9358080346929721,0.10104461814737446,-0.32917030133127234,-0.07549980178124929
-21.77346396446228,9900.0,8632.0,-10132.0,101.0,-31.0,-27.0,0.9337008454953238,0.11001207844384908,-0.3323569438292606,-0.07509284657179754
-21.796911239624023,9856.0,8668.0,-10244.0,125.0,-48.0,-56.0,0.930558619925372,0.1216506926607138,-0.33676262746718644,-0.07650291889302335
-21.820430040359497,9912.0,8644.0,-10316.0,115.0,-10.0,-46.0,0.928572127022741,0.13241979236823104,-0.3380732365238472,-0.07697590695735954
-21.843925952911377,9856.0,8632.0,-10208.0,112.0,-30.0,-79.0,0.9256808155020704,0.14376786563021673,-0.3405544419103232,-0.08042698998907187
-21.867541790008545,9872.0,8676.0,-10240.0,100.0,-23.0,-47.0,0.9232544748463798,0.15322819725050008,-0.3427424103790845,-0.08154712975349136
-21.89111828804016,9820.0,8652.0,-10212.0,157.0,-47.0,-61.0,0.9190919765071759,0.1675017812834786,-0.3470221628646187,-0.08239363123298268
-21.914612770080566,9876.0,8704.0,-10032.0,104.0,-35.0,-68.0,0.9158468016076904,0.17779408344755032,-0.34979005662657503,-0.08521042284360915
-21.9380464553833,9884.0,8692.0,-10148.0,82.0,-36.0,-67.0,0.9128142523869254,0.1862703724923269,-0.35244859323964545,-0.08861985158114168
-21.961456537246704,9928.0,8588.0,-10228.0,105.0,-25.0,-72.0,0.9096019564850453,0.1967943878439769,-0.3542868198266761,-0.09152649326174642
-21.984941005706787,9840.0,8668.0,-10232.0,162.0,-21.0,-31.0,0.9057038560970653,0.21057401943436424,-0.3569026045812731,-0.0893288208433661
-22.00837516784668,9916.0,8676.0,-10236.0,141.0,-58.0,-39.0,0.9007911536842075,0.2226116626363414,-0.3620570001631657,-0.08907341766996357
-22.031797885894775,9888.0,8656.0,-10352.0,122.0,-41.0,-72.0,0.896363258453722,0.2342902039371516,-0.3650194397619473,-0.09166143043389723
-22.055269718170166,9868.0,8648.0,-10396.0,127.0,-43.0,-82.0,0.8915264442838284,0.24661993799950127,-0.36790599036701094,-0.09489145154240751
-22.078704833984375,9916.0,8660.0,-10216.0,105.0,-26.0,-18.0,0.8881099914116632,0.2552896880088268,-0.3706106078660973,-0.09346440867117937
-22.102171897888184,9860.0,8708.0,-10276.0,137.0,-65.0,-36.0,0.8824455488854581,0.2666668517693411,-0.3761422327323765,-0.09325054517145394
-22.125624179840088,9916.0,8648.0,-10488.0,121.0,-17.0,-60.0,0.8783846931987186,0.2779446467094148,-0.3772263343857062,-0.09427299064787914
-22.1490740776062,9896.0,8612.0,-10180.0,117.0,-52.0,-23.0,0.8734509674826664,0.2873712572905671,-0.3818029725603906,-0.0934219354909886
-22.17254328727722,9944.0,8688.0,-10160.0,162.0,-72.0,-12.0,0.8666459800861509,0.29964209475754383,-0.3884715796445218,-0.0907148943576319
-22.195979118347168,9916.0,8652.0,-10300.0,130.0,-45.0,-76.0,0.8608946394896432,0.3118101111729097,-0.3910858372185433,-0.0932026941424222
-22.219432592391968,9872.0,8632.0,-10424.0,78.0,0.0,-40.0,0.8582766851977587,0.3191714626558017,-0.3908258098779431,-0.09351949211449759
-22.242889642715454,9916.0,8680.0,-10208.0,81.0,-49.0,-255.0,0.8518827693934522,0.3335850011647815,-0.3881493682405876,-0.11116142380730788
-22.266356706619263,9876.0,8624.0,-10148.0,136.0,-26.0,-58.0,0.8462611957063771,0.3455176595510244,-0.38988423132971706,-0.11157876921901896
-22.289839267730713,9872.0,8672.0,-10348.0,139.0,-68.0,-12.0,0.8394133926272533,0.35563567075321617,-0.3960629530605283,-0.10973861298052122
-22.31330895423889,9836.0,8584.0,-10160.0,162.0,-59.0,-65.0,0.8314650929780034,0.369272785661432,-0.4000672814768543,-0.11067781720220865
-22.336730003356934,9944.0,8680.0,-10292.0,74.0,-62.0,-18.0,0.8265585286352937,0.3747941771521642,-0.4048842557965175,-0.11135107956904057
-22.360204696655273,9892.0,8648.0,-10180.0,92.0,-48.0,-57.0,0.821101353569484,0.3830914936851013,-0.407552112818548,-0.11373104224272505
-22.38374423980713,9960.0,8684.0,-10148.0,125.0,-5.0,-138.0,0.8151122732820352,0.39698549314021225,-0.40468208340461104,-0.11927661779459797
-22.407257318496704,9968.0,8660.0,-10480.0,133.0,-40.0,-253.0,0.8060473634474623,0.41496213866454174,-0.4002182403950056,-0.13386348049214059
-22.4306960105896,9840.0,8604.0,-10348.0,158.0,-69.0,-68.0,0.7968609368954904,0.42771483441002867,-0.4045989508236526,-0.13554466668977652
-22.45414113998413,9928.0,8676.0,-9992.0,117.0,-37.0,-10.0,0.7908666036128386,0.43586350890730385,-0.4083552327076048,-0.13341297093320362
-22.477680921554565,10204.0,8680.0,-10300.0,106.0,-42.0,-65.0,0.7843718937991334,0.4450967190940633,-0.41018570142832306,-0.13563676940054234
-22.501177072525024,9888.0,8644.0,-10264.0,116.0,-73.0,-89.0,0.7759609853658538,0.45543194605743237,-0.4132504920867985,-0.14032220954080113
-22.524629592895508,9876.0,8668.0,-10312.0,114.0,-28.0,-71.0,0.7693354013217136,0.46545307094368227,-0.41388487726175616,-0.142041498852533
-22.54806613922119,9828.0,8700.0,-10276.0,142.0,-76.0,5.0,0.7606472250090673,0.473932240465552,-0.421099885239628,-0.13956689143374737
-22.57154154777527,9912.0,8600.0,-10068.0,110.0,-8.0,-90.0,0.7544876009142608,0.48451714732906026,-0.4194091748838238,-0.14173051200790487
-22.59505009651184,9872.0,8624.0,-10268.0,145.0,-90.0,-46.0,0.7442416322004792,0.4946851783294335,-0.42532285927299507,-0.1431482889195227
-22.618512868881226,9848.0,8648.0,-10324.0,97.0,-6.0,-65.0,0.7388169327044181,0.5034042490935192,-0.4242868042507424,-0.14392501409594335
-22.64199209213257,9832.0,8656.0,-10464.0,126.0,-57.0,-11.0,0.7308139291927712,0.511288239440588,-0.4292179323826804,-0.1423632804788652
-22.665442943572998,9872.0,8668.0,-10308.0,109.0,-27.0,-42.0,0.7242121758235982,0.5195520026213744,-0.43058499684611334,-0.1420528121932179
-22.68908452987671,9952.0,8596.0,-10264.0,120.0,-61.0,-99.0,0.7150111254039073,0.5301421464092685,-0.4315824050740973,-0.14644119222291718
-22.712547540664673,9920.0,8672.0,-10128.0,165.0,-77.0,-22.0,0.703941604881578,0.540306878113831,-0.437609114186284,-0.14502743726871123
-22.73606014251709,9948.0,8580.0,-10236.0,151.0,-51.0,-28.0,0.694285156447583,0.5500421036985151,-0.4414761717674615,-0.14325011503316104
-22.759557723999023,9852.0,8740.0,-10252.0,95.0,-46.0,-52.0,0.6871002805020627,0.5572869635969456,-0.4431166798979963,-0.14481730813359228
-22.783134937286377,9952.0,8568.0,-10280.0,114.0,-14.0,-66.0,0.6799705412564366,0.5665448729393963,-0.44234501699117673,-0.14490636946865804
-22.80665349960327,9728.0,8456.0,-10284.0,126.0,-64.0,-74.0,0.6701043358149191,0.5760971266139989,-0.44421978513300137,-0.14744850736962473
-22.830253839492798,9848.0,8664.0,-10436.0,108.0,-11.0,-91.0,0.6628628762781211,0.5858352987478617,-0.44182991386615633,-0.14898368100676268
-22.853729009628296,9852.0,8932.0,-10156.0,97.0,-73.0,-32.0,0.6544728875781206,0.5917724870465052,-0.44583552973673124,-0.15066931812522008
-22.87719702720642,9916.0,8596.0,-10412.0,109.0,-22.0,-79.0,0.6467436415680731,0.6008127431558365,-0.44460085133305843,-0.1519104760928167
-22.900723934173584,9916.0,8660.0,-10324.0,146.0,-65.0,-16.0,0.636134437716447,0.6088203209590654,-0.44950722350493,-0.15037968597975399
-22.92422366142273,9868.0,8656.0,-10480.0,169.0,-68.0,-106.0,0.6228343103113547,0.6214280668006998,-0.4499765567503599,-0.1530544937805298
-22.94773530960083,9852.0,8588.0,-10400.0,132.0,-57.0,-28.0,0.6128611275050806,0.6289482834740809,-0.4534669957607134,-0.15229241236503446
-22.97126054763794,9884.0,8712.0,-10492.0,85.0,-35.0,-53.0,0.6059303432522707,0.6351553252239808,-0.45372473820001313,-0.15349265100041154
-22.99474000930786,9940.0,8644.0,-10076.0,34.0,-54.0,-50.0,0.6010818790233322,0.6382415256750849,-0.45444040927262014,-0.15758249913570255
-23.01829242706299,9904.0,8900.0,-10196.0,124.0,-29.0,-148.0,0.5907656137781809,0.6501683588792899,-0.4495454693904322,-0.16182078247257284
-23.041821479797363,9896.0,8568.0,-10196.0,122.0,-32.0,-66.0,0.5814797134301843,0.6585847735524646,-0.4493262190586697,-0.16202897204031178
-23.06526756286621,9796.0,8904.0,-10172.0,181.0,-39.0,-43.0,0.5687338722524682,0.6688476427935914,-0.4515158892092042,-0.15911635702777718
-23.088725328445435,9864.0,8668.0,-10304.0,164.0,-39.0,-74.0,0.5564034203145983,0.6793040455512773,-0.45153566662987316,-0.1583565259817245
-23.112210035324097,9932.0,8636.0,-9992.0,118.0,-25.0,-77.0,0.5472096953734161,0.6876878983510908,-0.44996579680325566,-0.15867477889697626
-23.13571262359619,9860.0,8624.0,-10204.0,112.0,-75.0,-48.0,0.5367324388435574,0.6938469128291509,-0.45236499030971145,-0.16081251876828045
-23.159162998199463,9868.0,8616.0,-10092.0,94.0,-41.0,-59.0,0.5284736019130389,0.6999772404355068,-0.45218998096492763,-0.1620855825429576
-23.182637691497803,9884.0,8664.0,-10308.0,87.0,-26.0,-20.0,0.5217442253827438,0.704396868414653,-0.45356268685573736,-0.1609002925404267
-23.206149101257324,9972.0,8564.0,-10176.0,120.0,-30.0,-133.0,0.5111704178083515,0.7146174305519042,-0.4485613198111877,-0.16376652368013192
-23.2296404838562,9924.0,8624.0,-10136.0,150.0,-88.0,-28.0,0.49784560790104954,0.7210590472506925,-0.45300683816403153,-0.1643423428340516
-23.25311589241028,9844.0,8688.0,-10232.0,167.0,-64.0,-52.0,0.4839411228900358,0.7293477767557048,-0.4550223816596517,-0.1637297844200007
-23.276562690734863,9780.0,8656.0,-10280.0,139.0,-25.0,-74.0,0.4729544377355142,0.7377145709363907,-0.4534783375949453,-0.1626305905620021
-23.30008101463318,9900.0,8688.0,-10256.0,105.0,-53.0,-41.0,0.4634595899236739,0.7428548544486989,-0.4546532395663579,-0.16328596229192036
-23.323569536209106,9956.0,8568.0,-10056.0,83.0,-21.0,-79.0,0.4560841125947926,0.7489823407585311,-0.4517000066031024,-0.16425540936373784
-23.34707260131836,9744.0,8920.0,-10212.0,124.0,-41.0,-27.0,0.4459389264418179,0.7543153060035477,-0.4534702708264639,-0.1628238511068529
-23.370555639266968,9868.0,8652.0,-10444.0,145.0,-49.0,-108.0,0.43285955174873836,0.7634069987228723,-0.450421161320644,-0.1642045681318884
-23.394051790237427,9960.0,8680.0,-10324.0,152.0,-45.0,-69.0,0.4199440748843115,0.771095060711404,-0.44979729050725853,-0.16352913736813005
-23.41752600669861,9920.0,8632.0,-10176.0,147.0,-66.0,-39.0,0.4068947717008873,0.7769517130803826,-0.451781449668687,-0.16332850957258338
-23.4409921169281,9952.0,8664.0,-10328.0,131.0,-54.0,-53.0,0.39513738864453274,0.7828148883521081,-0.45206652947463327,-0.16341097759396897
-23.46444797515869,9860.0,8616.0,-10156.0,92.0,-49.0,-71.0,0.38594174447785967,0.7879988747662426,-0.4503175450686009,-0.16529020491218058
-23.487961769104004,9880.0,8648.0,-10196.0,79.0,-31.0,-61.0,0.3784617894524517,0.7925328891732699,-0.4484105729286159,-0.16609109424935437
-23.511432647705078,9844.0,8624.0,-10224.0,129.0,-15.0,-20.0,0.3687097051368602,0.7972615719533298,-0.4494825428296507,-0.1624579419904928
-23.534910202026367,9952.0,8632.0,-10144.0,134.0,-47.0,-80.0,0.3564551365059387,0.8039177860809208,-0.44739680793203845,-0.16276370951015562
-23.55840754508972,9892.0,8580.0,-10176.0,116.0,-46.0,-37.0,0.3460632181963181,0.8082191481551663,-0.4479593785104036,-0.1623405456794999
-23.5818612575531,9864.0,8652.0,-10184.0,122.0,-61.0,-69.0,0.33416586396307685,0.813618116955508,-0.4467273827276556,-0.1636868371155188
-23.605351448059082,9900.0,8612.0,-10292.0,114.0,-37.0,-87.0,0.32346454346945014,0.819692468294176,-0.443320205707875,-0.16414061578728475
-23.628844499588013,9860.0,8620.0,-10320.0,105.0,-62.0,-132.0,0.3117374396172938,0.8267308458478525,-0.43717437781270824,-0.16797154714004325
-23.652339458465576,9868.0,8700.0,-10472.0,118.0,-39.0,-89.0,0.3005210525919072,0.8326495955865225,-0.43359883188625636,-0.16844524601640296
-23.675769567489624,9892.0,8632.0,-10244.0,110.0,14.0,-50.0,0.29242973324302385,0.8375431688761205,-0.4312793988566919,-0.16433006878283318
-23.69931960105896,9912.0,8716.0,-10204.0,117.0,-46.0,-19.0,0.28198628946824633,0.8404906804213118,-0.4328005404387554,-0.1635323847828679
-23.722790956497192,9872.0,8632.0,-10236.0,113.0,-41.0,-100.0,0.2708307462294375,0.846344922350539,-0.42812848710284857,-0.16449005392209026
-23.746314764022827,9856.0,8704.0,-10400.0,125.0,-114.0,-26.0,0.2570743404227668,0.84850190893478,-0.4307288141458982,-0.16861192927756305
-23.76982283592224,9872.0,8576.0,-10304.0,142.0,-18.0,-76.0,0.2448821322512715,0.8541581646876315,-0.42762732131025183,-0.1660766240942611
-23.793312788009644,9940.0,8640.0,-10336.0,79.0,-51.0,-32.0,0.2367649506021936,0.856234088835194,-0.42753284944175834,-0.16739535815283718
-23.816877365112305,9916.0,8672.0,-10404.0,128.0,-30.0,-63.0,0.22529256757458924,0.8606880387347777,-0.42535088950105926,-0.16593968716129628
-23.840405464172363,9892.0,8692.0,-10208.0,118.0,-26.0,-97.0,0.21419533428758042,0.8661210751336088,-0.4203127342942796,-0.16520244359239822
-23.86391043663025,9904.0,8720.0,-10460.0,114.0,-60.0,-15.0,0.20330548139125032,0.8678513922789298,-0.4219824537585062,-0.1656250309456427
-23.88741946220398,9908.0,8648.0,-10220.0,166.0,-19.0,-106.0,0.18863330729535838,0.8742675545079049,-0.416690301059867,-0.16261276553893234
-23.910915851593018,9904.0,8664.0,-10048.0,182.0,-61.0,-46.0,0.172014507061255,0.8779148306055772,-0.41676445017377084,-0.1611953865177558
-23.934393882751465,9856.0,8608.0,-10200.0,119.0,-57.0,-33.0,0.16051678349054108,0.880014110427076,-0.4167921659153778,-0.1615358105766676
-23.957857847213745,9872.0,8644.0,-10368.0,113.0,-80.0,-118.0,0.14741723818271374,0.8846299887737709,-0.4104454805942787,-0.16502256908808177
-23.981334924697876,9796.0,8700.0,-10496.0,62.0,-37.0,-22.0,0.1411590792405415,0.8856445449275774,-0.4101602733790743,-0.16576008123064492
-24.004838943481445,9932.0,8688.0,-10248.0,108.0,-64.0,-77.0,0.1295692048590731,0.8887156322694059,-0.40657795384127793,-0.16760284473247294
-24.028276205062866,9900.0,8760.0,-10440.0,139.0,-71.0,-64.0,0.1154952887237266,0.8914095310954767,-0.40445785597222783,-0.16871197022474113
-24.05172109603882,9896.0,8660.0,-10180.0,149.0,-51.0,-55.0,0.10145876875271065,0.8939959698226246,-0.4028940099096819,-0.16779076542821428
-24.075161695480347,9888.0,8608.0,-10284.0,153.0,-78.0,-26.0,0.08656554087561548,0.895011610787617,-0.4037987521662438,-0.16854433077754888
-24.09865093231201,9956.0,8656.0,-10168.0,136.0,-40.0,-42.0,0.07408835757432258,0.8968499201409693,-0.40283353350011,-0.1670217958917103
-24.122126817703247,9896.0,8584.0,-10300.0,89.0,-37.0,-33.0,0.0655195072751997,0.8980064405664971,-0.40181605889911787,-0.16683968855846562
-24.14564800262451,9944.0,8620.0,-10456.0,78.0,-49.0,-39.0,0.0573008593903004,0.8990700024932557,-0.4002043196200291,-0.16800668048437792
-24.169155597686768,9764.0,8652.0,-10168.0,90.0,-75.0,-117.0,0.04608311933563951,0.9024128411150765,-0.39272057723585646,-0.17116646435107735
-24.192617893218994,9916.0,8696.0,-10000.0,140.0,-42.0,-29.0,0.03336341281600843,0.9032681603971959,-0.3927068819574682,-0.16963141796606385
-24.216085195541382,9840.0,8584.0,-10188.0,121.0,-60.0,-58.0,0.021091576204220874,0.9046507239023358,-0.3901105342523699,-0.1702233363012601
-24.239572286605835,9892.0,8628.0,-10280.0,138.0,-10.0,-62.0,0.00911800754712519,0.9067948706750582,-0.38729102105633556,-0.16626962881090507
-24.263078212738037,9828.0,8660.0,-10000.0,146.0,-63.0,-85.0,-0.005614048527015289,0.908767319880682,-0.3827245701774658,-0.16622979323362072
-24.286588668823242,9940.0,8740.0,-10296.0,83.0,-64.0,-47.0,-0.014829714596045769,0.9093347447977922,-0.3801888188062186,-0.16836526816201128
-24.31004524230957,9840.0,8660.0,-10496.0,127.0,-55.0,-67.0,-0.02752898564214848,0.9105185549854815,-0.3766710611841781,-0.16827664021797634
-24.333496809005737,9912.0,8640.0,-10232.0,119.0,-79.0,-28.0,-0.039805299393561255,0.9099370540314428,-0.37601125152263243,-0.17042779869831096
-24.35700225830078,9912.0,8448.0,-10056.0,125.0,-29.0,-104.0,-0.05204174602421614,0.912409898440191,-0.36950849081039994,-0.16811695071625535
-24.380526542663574,9868.0,8696.0,-10284.0,117.0,-28.0,-65.0,-0.06302459465298985,0.9135209898399976,-0.3659315629295088,-0.16613666916892292
-24.40399169921875,9864.0,8700.0,-10024.0,141.0,-51.0,-35.0,-0.0762109285734311,0.9130655849245556,-0.3649069275287171,-0.1653664604262486
-24.427427291870117,9880.0,8692.0,-10352.0,147.0,-62.0,-40.0,-0.09028148021588729,0.9124003850249717,-0.3634255423926293,-0.16521702960934503
-24.45090413093567,9916.0,8696.0,-10224.0,99.0,-59.0,-45.0,-0.10049348556502291,0.9121733368671132,-0.3608170294493703,-0.1662887071542764
-24.47445774078369,9884.0,8632.0,-10072.0,96.0,-33.0,-89.0,-0.11027457725920407,0.9136232867144277,-0.3548431123224875,-0.1649799176285431
-24.497915029525757,9940.0,8948.0,-10176.0,124.0,-47.0,-49.0,-0.1221288594577623,0.9132344870816922,-0.35227449134894745,-0.16428632334136994
-24.521379709243774,9940.0,8680.0,-10496.0,129.0,-27.0,-33.0,-0.1335188133827584,0.9124592047440336,-0.3512129991020001,-0.16198875088265974
-24.54485511779785,9944.0,8680.0,-10240.0,106.0,-57.0,245.0,-0.14001894989763378,0.9026885624247737,-0.3714859102405348,-0.16597069449098845
-24.568370819091797,9896.0,8724.0,-10484.0,131.0,-49.0,-65.0,-0.1526682726881123,0.9024426502956158,-0.36766332370322913,-0.16466129431456492
-24.59190273284912,9864.0,8580.0,-10180.0,171.0,-57.0,-65.0,-0.1686914459101992,0.9013465463017022,-0.36422275083727207,-0.162663417273984
-24.61542272567749,9880.0,8596.0,-10344.0,142.0,-44.0,-83.0,-0.18223354581514345,0.9012150074807312,-0.35905263902293166,-0.16026118520032825
-24.638927221298218,9932.0,8568.0,-10152.0,94.0,-21.0,-117.0,-0.19172126345062662,0.9030603940361761,-0.3508286451932195,-0.1569845329196856
-24.662463188171387,9892.0,8704.0,-10156.0,113.0,-26.0,-57.0,-0.20200842594579327,0.9025496529023761,-0.34745525826792145,-0.15450425040973936
-24.68589997291565,9876.0,8664.0,-10148.0,116.0,-17.0,-68.0,-0.21238077667813435,0.9023246051944913,-0.34336622450979354,-0.1510110870899482
-24.709370613098145,9952.0,8736.0,-10292.0,154.0,-60.0,-37.0,-0.22658757795784176,0.8997429455183066,-0.3413591063340167,-0.15031520890476086
-24.732881546020508,9952.0,8616.0,-10144.0,104.0,-68.0,-103.0,-0.237927557014829,0.8998292511541236,-0.33328206591379594,-0.15040233017010282
-24.75635290145874,9872.0,8636.0,-10304.0,140.0,-46.0,-27.0,-0.250412837874173,0.8970851507308076,-0.33204073846806526,-0.14926684482385608
-24.779797554016113,9888.0,8716.0,-10480.0,112.0,-18.0,-72.0,-0.26044207026991784,0.8964881281340187,-0.32747080521433464,-0.14574579198233392
-24.803276777267456,9836.0,8652.0,-10232.0,110.0,-17.0,-79.0,-0.2703409274797029,0.896027652751928,-0.32230210282946303,-0.14202669800072967
-24.826838493347168,9880.0,8668.0,-10460.0,114.0,-58.0,-36.0,-0.28113513456721895,0.8936360722871164,-0.31953172771293525,-0.1423976172690886
-24.850353717803955,9896.0,8636.0,-10292.0,96.0,-49.0,-58.0,-0.29051577498459824,0.8923042490019252,-0.31500167674271123,-0.14201287035860208
-24.873859167099,9916.0,8692.0,-10080.0,115.0,-86.0,-58.0,-0.302353200016383,0.8899034407229655,-0.30972129172532487,-0.1439691983768637
-24.89739418029785,9852.0,8612.0,-10200.0,134.0,-28.0,-73.0,-0.31423206003306753,0.8879776848330067,-0.3049879618061707,-0.14048553960926285
-24.920830488204956,9964.0,8676.0,-10208.0,116.0,-26.0,-114.0,-0.3251059786023931,0.8874924534448001,-0.2968489290760697,-0.13617621327493387
-24.94438076019287,9832.0,8660.0,-10296.0,135.0,-56.0,-38.0,-0.3372634146260296,0.8839789564158479,-0.2939123102580476,-0.1358313205689928
-24.96789026260376,9916.0,8640.0,-10252.0,96.0,-45.0,-75.0,-0.3465203580179382,0.8825634271912861,-0.28793610145629006,-0.13452969910634732
-24.991347789764404,9832.0,8632.0,-10240.0,124.0,-79.0,-15.0,-0.35803393224615254,0.8782683882986251,-0.2858385423892105,-0.13694038542557196
-25.014809370040894,9732.0,8640.0,-10004.0,126.0,-64.0,-59.0,-0.3697942543020047,0.8750400095906377,-0.2808115049536233,-0.1367555841145882
-25.038321495056152,9884.0,8688.0,-10312.0,145.0,-52.0,-119.0,-0.3833414615032636,0.8726132117321324,-0.27174941393122554,-0.13322072898430595
-25.061839818954468,9900.0,8676.0,-10288.0,128.0,-26.0,-72.0,-0.39434579439795564,0.8697474244026032,-0.26687260975702903,-0.12965269895823892
-25.08527112007141,9892.0,8648.0,-10268.0,135.0,-83.0,-21.0,-0.40656221935421455,0.8646542740220591,-0.26393348956768825,-0.13198204913466316
-25.108720541000366,9928.0,8708.0,-10240.0,94.0,-17.0,-46.0,-0.41439852092606944,0.8622340494185309,-0.26093946937461193,-0.1293711838088546
-25.132189989089966,9924.0,8572.0,-10152.0,130.0,-64.0,-47.0,-0.4259733502544387,0.8578944996468574,-0.25654037445276495,-0.12942476047616508
-25.155715942382812,9948.0,8624.0,-10496.0,118.0,-41.0,-22.0,-0.43578844531466016,0.8535779377837488,-0.254693239385775,-0.12893598749090326
-25.17916202545166,9888.0,8600.0,-10148.0,67.0,-9.0,-71.0,-0.44160565096292753,0.8525683300142329,-0.24981184986334498,-0.12532250939956685
-25.20265221595764,9940.0,8652.0,-10224.0,91.0,-11.0,-68.0,-0.44918212330837165,0.8504752306596624,-0.24531517275634662,-0.12144038928668148
-25.226098775863647,9936.0,8664.0,-10248.0,129.0,-59.0,-90.0,-0.4607705419285585,0.8467246308522595,-0.23766563197854856,-0.11942761228126753
-25.249579429626465,9888.0,8608.0,-10292.0,147.0,-49.0,-37.0,-0.4728370063226393,0.8410869844970331,-0.23447114351431325,-0.11841086445348775
-25.27300477027893,9940.0,8608.0,-10324.0,139.0,-37.0,-52.0,-0.48414077910279024,0.8360582461600807,-0.23054220829043132,-0.11603708559785722
-25.296453952789307,9944.0,8620.0,-10224.0,121.0,-36.0,-86.0,-0.4943724337438289,0.8323385711528073,-0.22394829623667997,-0.11249693479466423
-25.319907665252686,9876.0,8688.0,-10232.0,110.0,-253.0,-105.0,-0.5080243803425833,0.8269903208655969,-0.20641006696061578,-0.1240690228440018
-25.343339681625366,9952.0,8676.0,-10196.0,102.0,-27.0,-62.0,-0.5163723484641576,0.8233497536263649,-0.2018232585007885,-0.12133488069446023
-25.366797924041748,9884.0,8684.0,-10248.0,124.0,-50.0,-45.0,-0.5264588420914951,0.8180688363598986,-0.1976254683200597,-0.12061774675279238
-25.39031457901001,9888.0,8676.0,-10452.0,159.0,-78.0,-45.0,-0.5394211801626125,0.8107243078325129,-0.19246773220862476,-0.1212726644381833
-25.413824319839478,9916.0,8648.0,-10496.0,153.0,-69.0,-85.0,-0.552093177469132,0.8042213858146526,-0.1847866827034192,-0.11947789705992927
-25.437267780303955,9912.0,8652.0,-10176.0,135.0,-39.0,-48.0,-0.5625179690414251,0.7981272905289525,-0.18091524774429998,-0.1176266795928629
-25.46070122718811,9896.0,8568.0,-10236.0,78.0,8.0,-102.0,-0.568702804659285,0.7960523185558995,-0.17497426142459657,-0.11073316546255138
-25.484225273132324,9884.0,8708.0,-10212.0,102.0,-52.0,-72.0,-0.57710775685292,0.7916438266765063,-0.16834432807960834,-0.10911863208725466
-25.507760286331177,9960.0,8624.0,-10168.0,101.0,-35.0,-81.0,-0.5852025329171292,0.7874725175526619,-0.1619115896600339,-0.10587571345879912
-25.531280279159546,9756.0,8916.0,-10248.0,144.0,-14.0,-110.0,-0.59611051402969,0.7815582282248035,-0.1549232184051575,-0.09908474835388574
-25.554715156555176,9916.0,8612.0,-10476.0,158.0,-47.0,-120.0,-0.6083366730932042,0.7745490534887708,-0.1456053040233764,-0.09380485781558132
-25.57818865776062,9992.0,8664.0,-10104.0,149.0,249.0,-11.0,-0.6150141153174977,0.7686841635644145,-0.15921794283310473,-0.07437702148853591
-25.601657152175903,9852.0,8652.0,-10228.0,116.0,-22.0,-31.0,-0.623141878151314,0.762820689297201,-0.15666768426459915,-0.07248470446489834
-25.62518882751465,9860.0,8452.0,-10484.0,65.0,-34.0,-63.0,-0.6281818570205584,0.7600267981923831,-0.15099339260715788,-0.07034071316540501
-25.64863133430481,9876.0,8636.0,-10252.0,112.0,-47.0,-52.0,-0.6363840492207005,0.7543526142456651,-0.14560648001529516,-0.069037875515918
-25.672085523605347,9864.0,8700.0,-10344.0,154.0,-56.0,-66.0,-0.6474340968274577,0.7463326838338297,-0.13902133769130212,-0.06700509662053873
-25.695570945739746,9908.0,8660.0,-10440.0,122.0,-74.0,-31.0,-0.656286965011156,0.739444984756555,-0.1334785371994439,-0.0684982786785219
-25.71906542778015,9876.0,8604.0,-9988.0,129.0,-13.0,-85.0,-0.6650973803962327,0.7330207063309264,-0.1279593587450069,-0.06286907975901376
-25.74254322052002,9904.0,8644.0,-10256.0,164.0,-32.0,-17.0,-0.6758543669726,0.7235597403225744,-0.12584952752792838,-0.062000590718090005
-25.765998601913452,9940.0,8596.0,-10320.0,107.0,-68.0,-83.0,-0.6836356514455473,0.7178524146345284,-0.1171107794884447,-0.06012713367197934
-25.78946614265442,9852.0,8644.0,-10136.0,85.0,-81.0,-47.0,-0.6898850144372782,0.7129147041564589,-0.10971388359482356,-0.0614341533589132
-25.81300926208496,9932.0,8536.0,-10236.0,124.0,-42.0,-85.0,-0.698286309850001,0.7060946298237029,-0.10248856743417717,-0.05764283785073912
-25.83655834197998,9900.0,8624.0,-10356.0,118.0,-69.0,-51.0,-0.7062686643110796,0.6990795249958376,-0.09565984108002826,-0.05763320525861339
-25.86003828048706,9856.0,8640.0,-10496.0,113.0,-44.0,-72.0,-0.7137332509564832,0.692566517573153,-0.08904652718514226,-0.05483777176318355
-25.883641719818115,9860.0,8640.0,-10296.0,127.0,-42.0,-114.0,-0.7220953168800489,0.6853823361354444,-0.08006294482938563,-0.04918670062800475
-25.907127857208252,9876.0,8644.0,-10272.0,125.0,-36.0,-38.0,-0.7298372599891632,0.6776905756739752,-0.07597196229752917,-0.04797205977284741
-25.930641174316406,9892.0,8636.0,-10380.0,108.0,-38.0,-65.0,-0.7366024562464875,0.6711618635194584,-0.07007024694227579,-0.04526295286630958
-25.954111576080322,9984.0,8676.0,-10044.0,124.0,-57.0,-70.0,-0.7443324207628135,0.6634517294734205,-0.06269972721646329,-0.043241117782478626
-25.977522134780884,9960.0,8592.0,-10224.0,73.0,-22.0,-96.0,-0.7489058624736463,0.6592339244424897,-0.05588891760395087,-0.03777659203549569
-26.001051664352417,9952.0,8708.0,-10324.0,131.0,-55.0,-34.0,-0.7566703606661209,0.6507231281795373,-0.050666938364955234,-0.037976796841781235
-26.024547576904297,9928.0,8932.0,-10244.0,99.0,-30.0,-43.0,-0.7624441734052094,0.6443615052932637,-0.04646814072384296,-0.03630213264142552
-26.048025369644165,9952.0,8656.0,-10024.0,61.0,-81.0,-62.0,-0.7662725054359756,0.6403776549301208,-0.037674287002991025,-0.03638068962909186
-26.07146644592285,9916.0,8448.0,-10132.0,132.0,-56.0,-37.0,-0.7738011937792825,0.6315578409933184,-0.03216414503770112,-0.03649484565811264
-26.094908237457275,9972.0,8608.0,-10276.0,133.0,-77.0,-47.0,-0.781337869822,0.6225166452494414,-0.024676741612855393,-0.037083931732933006
-26.118441343307495,9852.0,8616.0,-10332.0,96.0,-30.0,-39.0,-0.7866275651885676,0.6160447560532821,-0.020699799413185043,-0.03574143994038101
-26.141880989074707,9916.0,8688.0,-10204.0,109.0,-60.0,-117.0,-0.792794401639645,0.608628480968542,-0.010501613536195963,-0.030628826224630538
-26.165331840515137,9952.0,8648.0,-10452.0,134.0,-45.0,-36.0,-0.7999059378543258,0.5993331059807415,-0.005699249272655942,-0.030295828402547294
-26.188790559768677,9932.0,8624.0,-10268.0,99.0,-50.0,-45.0,-0.8051087817152242,0.5923875863535897,2.338389857617667e-05,-0.029610751297274484
-26.21224331855774,9852.0,8684.0,-10216.0,112.0,-34.0,-19.0,-0.8108323541925226,0.5845039633683689,0.0032487545632837096,-0.02992416740808993
-26.235737800598145,9868.0,8656.0,-10284.0,134.0,-44.0,-60.0,-0.8176680393785785,0.574942053869212,0.009220839210209077,-0.027849384117124145
-26.25918221473694,9916.0,8652.0,-10212.0,133.0,-83.0,-45.0,-0.824232822153141,0.5652557043467379,0.01723257011100584,-0.028797258833284375
-26.282620429992676,9872.0,8652.0,-10284.0,101.0,-52.0,-97.0,-0.8292433110809323,0.5577637120177836,0.025664604586874393,-0.024423362894459632
-26.3061466217041,9948.0,8456.0,-10252.0,136.0,-50.0,-45.0,-0.8357082863759363,0.5477615903224302,0.031352203067105976,-0.02378948534284065
-26.32964539527893,9900.0,8736.0,-9988.0,90.0,-32.0,-92.0,-0.8399975365304317,0.540928444251255,0.03807029205476043,-0.018740589254025754
-26.35309886932373,9932.0,8684.0,-10172.0,97.0,-59.0,-57.0,-0.8443605449163646,0.5335845277835056,0.04510738783724909,-0.01755407249310181
-26.37653398513794,9940.0,8576.0,-10120.0,144.0,-74.0,-65.0,-0.8507158048865667,0.5226255680229904,0.05355000568363058,-0.016659287383640146
-26.399976015090942,9888.0,8612.0,-10288.0,163.0,-71.0,-74.0,-0.8577457284077226,0.5100818989573558,0.062147522518135975,-0.015046833528058367
-26.423417806625366,9908.0,8660.0,-10296.0,106.0,-8.0,-75.0,-0.8624069834460606,0.5017707655409663,0.06614626526924582,-0.010245259529617693
-26.44690775871277,9848.0,8564.0,-10024.0,134.0,-50.0,-55.0,-0.8679035602259566,0.49134625653722297,0.0724027746686671,-0.008950114761554266
-26.470465183258057,10004.0,8936.0,-10468.0,112.0,-31.0,-86.0,-0.8724542956419834,0.4823201344237567,0.07856094963685649,-0.0043551277197513
-26.493915557861328,9936.0,8648.0,-10196.0,110.0,-41.0,-72.0,-0.8767143730697006,0.4734597089707145,0.08488986557966538,-0.0012340000950494309
-26.517401695251465,9884.0,8652.0,-10276.0,106.0,-72.0,-88.0,-0.8804354994705099,0.46470172403336973,0.09424536346369089,0.0018575301139777032
-26.540823936462402,9868.0,8620.0,-10296.0,117.0,-71.0,-72.0,-0.8844504313642317,0.45513975259253464,0.10286783893672241,0.0036671217758942145
-26.564250469207764,9924.0,8684.0,-10208.0,110.0,-47.0,-81.0,-0.888249204981861,0.44594332326107805,0.10998311419603776,0.0071844888265397006
-26.58774423599243,9872.0,8448.0,-9996.0,106.0,-60.0,-91.0,-0.8916105186035882,0.4368883416833705,0.1184826037676741,0.011006026577626456
-26.611260652542114,9940.0,8704.0,-10300.0,118.0,-55.0,-36.0,-0.8953919563703323,0.4273893913606054,0.12449497538974573,0.010609133915016725
-26.634687185287476,9872.0,8624.0,-10264.0,126.0,-65.0,-33.0,-0.8992306600728712,0.4172382362212402,0.13117155104409883,0.00951306557226629
-26.658155918121338,9928.0,8664.0,-10104.0,123.0,-47.0,-56.0,-0.9030052170260183,0.4069687470938198,0.1372554240494557,0.010907129855478334
-26.68163752555847,9904.0,8672.0,-10204.0,118.0,-55.0,-75.0,-0.9063380743761797,0.39680142002891616,0.14462304281862837,0.01356847393760446
-26.70509433746338,9844.0,8672.0,-10316.0,110.0,-17.0,-81.0,-0.9097206554967414,0.38707829394609233,0.14916624178767307,0.018115066362090565
-26.728602647781372,9828.0,8732.0,-10196.0,118.0,-47.0,-49.0,-0.912903634087543,0.3771195556369668,0.15500615000443227,0.018997081005701136
-26.75207257270813,9964.0,8608.0,-10240.0,84.0,-37.0,-76.0,-0.9149414218456202,0.36943634032229594,0.16086811777129792,0.02281301657176305
-26.775545597076416,9900.0,8632.0,-10240.0,125.0,-45.0,-7.0,-0.918213593629513,0.3594137994292044,0.16520970018289255,0.02027984761574963
-26.799001693725586,9948.0,8584.0,-10220.0,141.0,-8.0,-102.0,-0.9221833863318867,0.34660330437315134,0.16956787936253562,0.02628089913909923
-26.82261872291565,9812.0,8620.0,-10292.0,100.0,-79.0,-32.0,-0.9238538247981761,0.3382197548564123,0.17740254250068613,0.0250967277735853
-26.84619951248169,9892.0,8628.0,-10304.0,95.0,-40.0,-63.0,-0.9257975178849114,0.32962753592161526,0.18297813640811753,0.02763412812074994
-26.86965847015381,9888.0,8696.0,-10196.0,97.0,-55.0,-54.0,-0.9274734944538497,0.3210078079366079,0.18949248472861852,0.028974170577825153
-26.89338779449463,9900.0,8664.0,-10164.0,129.0,-26.0,-71.0,-0.930346228874398,0.3093925063110846,0.1941916212874746,0.031965382517243374
-26.91683292388916,9908.0,8496.0,-10220.0,136.0,-66.0,-59.0,-0.9325867985333387,0.2974629523584005,0.2018010780228994,0.03277163536287958
-26.94027829170227,9896.0,8636.0,-10240.0,116.0,-36.0,-75.0,-0.9346222518000283,0.28673145679578194,0.20729285954525128,0.035999840354726614
-26.963714361190796,9908.0,8596.0,-10188.0,99.0,-58.0,-69.0,-0.9357132858820846,0.27751582129717156,0.21434670388486773,0.038485141122277425
-26.987159490585327,9900.0,8648.0,-10260.0,124.0,-44.0,-47.0,-0.937608323527198,0.2665786311920138,0.2197787146702476,0.03903564553332308
-27.010631561279297,9872.0,8616.0,-10300.0,80.0,-66.0,-90.0,-0.9377700249583236,0.25844767608391733,0.22782983216942979,0.04342518382387265
-27.034115314483643,9872.0,8644.0,-10156.0,112.0,-45.0,-61.0,-0.9390441167925574,0.24815179681090024,0.23359689288264435,0.045269460924357165
-27.05761480331421,9876.0,8600.0,-10232.0,118.0,-51.0,-72.0,-0.9401347523517567,0.23712241525687552,0.24008226214534528,0.04775054980228694
-27.081029415130615,9920.0,8632.0,-10488.0,113.0,-68.0,-37.0,-0.9407617836997478,0.2272676250298379,0.24718065927214414,0.04710004909927613
-27.104533910751343,9968.0,8608.0,-10212.0,119.0,-41.0,-50.0,-0.941900539542086,0.21649016103013943,0.25230893869845344,0.047912245202365984
-27.128050804138184,9868.0,8684.0,-10036.0,146.0,-71.0,-82.0,-0.9425667476156874,0.20286449300801038,0.26056855581987903,0.050179193733366025
-27.151515007019043,9892.0,8676.0,-10252.0,101.0,-61.0,-54.0,-0.9426013294605424,0.19349034640021703,0.2672634619066126,0.05132700535618943
-27.17493963241577,9916.0,8692.0,-10268.0,121.0,-61.0,-93.0,-0.942636121339785,0.1815260240323892,0.27465989027942517,0.055203170345303136
-27.19849705696106,9920.0,8688.0,-10212.0,98.0,-47.0,-69.0,-0.9425963559477167,0.1719256990371609,0.28036668938835274,0.05786348802209925
-27.221978664398193,9924.0,8632.0,-10160.0,128.0,-35.0,-71.0,-0.9431447577806872,0.15971992396409498,0.28522445343253583,0.060120902553302207
-27.245422840118408,9924.0,8924.0,-10088.0,120.0,-50.0,-50.0,-0.9431645134405748,0.1487386823390386,0.2909330296436673,0.0606257142210091
-27.269022703170776,9852.0,8712.0,-10020.0,148.0,-62.0,-77.0,-0.9429108362127225,0.1348018261398195,0.29806931752776655,0.062468428590174326
-27.292799711227417,9816.0,8668.0,-10272.0,145.0,-43.0,-62.0,-0.942982162668492,0.12136664757051811,0.30338194029013077,0.06335752561726785
-27.316571950912476,9908.0,8592.0,-10288.0,92.0,-44.0,-48.0,-0.942397025993662,0.1126477443808537,0.3082885923852765,0.06447072893423555
-27.340073347091675,9848.0,8660.0,-10300.0,119.0,-41.0,-41.0,-0.9420850351110323,0.10186371560287391,0.3129936282067048,0.0643005347211428
-27.36354351043701,9908.0,8584.0,-10388.0,121.0,-14.0,-117.0,-0.9419318906283208,0.08867044877766228,0.3161093663616868,0.07054596678292875
-27.38699173927307,9900.0,8456.0,-10244.0,111.0,-41.0,-59.0,-0.9411444703379662,0.07804612319029353,0.32087627076289793,0.07207154409703055
-27.410504579544067,9904.0,8680.0,-10260.0,112.0,-66.0,-37.0,-0.9396700150680498,0.06809663925570549,0.3275051588878094,0.07157849820972811
-27.433997869491577,9928.0,8720.0,-10304.0,105.0,-18.0,-72.0,-0.9391780755976191,0.05741031400823267,0.3303168098865159,0.07442716754401199
-27.457470417022705,9856.0,8672.0,-10448.0,126.0,-44.0,-37.0,-0.9381374185756042,0.046171723718807706,0.3351732749666644,0.07365617112813
-27.48091459274292,9936.0,8628.0,-10228.0,109.0,-49.0,-71.0,-0.9365214104028167,0.03535381593853571,0.340414479625679,0.07612974199930686
-27.504387617111206,9908.0,8648.0,-10164.0,109.0,-248.0,-61.0,-0.9287100476190866,0.026141163800673405,0.3617510724424261,0.07713915084608262
-27.52790141105652,9884.0,8608.0,-10276.0,111.0,-30.0,-46.0,-0.9275473749259793,0.01576323130711684,0.3652750939319532,0.07734011610856042
-27.55140995979309,9872.0,8612.0,-10208.0,75.0,-21.0,-60.0,-0.92643604789718,0.007788335958840791,0.3678097436983091,0.07982219879350906
-27.57488441467285,9900.0,8696.0,-10264.0,137.0,-53.0,-75.0,-0.9241012150391953,-0.005458932463958724,0.37331823135248127,0.08149013780385951
-27.598371744155884,9896.0,8660.0,-10412.0,116.0,-43.0,-59.0,-0.922048835117709,-0.016562664251344138,0.3778107334033623,0.08252680495564266
-27.6218478679657,9916.0,8660.0,-10272.0,110.0,-44.0,-53.0,-0.9198859583106747,-0.02697805752406096,0.38229448832255153,0.08326423189628737
-27.645315170288086,9916.0,8616.0,-10260.0,140.0,-62.0,-63.0,-0.9168193137753907,-0.03999919323286928,0.3883495864960397,0.08382725748523748
-27.66881036758423,9900.0,8636.0,-10180.0,118.0,-45.0,-50.0,-0.9143353811988605,-0.05093923721680544,0.3928576628381265,0.08401703130359559
-27.692248821258545,9892.0,8632.0,-10264.0,115.0,-34.0,-42.0,-0.912175718066444,-0.061439986276621755,0.39644730564070557,0.08360694532466012
-27.71583390235901,9932.0,8692.0,-10280.0,120.0,-29.0,-59.0,-0.9099131608742865,-0.07295578859027566,0.3995286071210984,0.08433495521319116
-27.7392897605896,9924.0,8668.0,-10156.0,87.0,-39.0,-35.0,-0.9075844200525751,-0.08093450388112189,0.40326662011875214,0.08435733315690992
-27.762775182724,9896.0,8680.0,-10260.0,130.0,-47.0,-33.0,-0.9045756293897486,-0.09217926416305047,0.40791912450489454,0.08275205034111999
-27.786303997039795,9928.0,8632.0,-10348.0,101.0,-50.0,-53.0,-0.9014211978833684,-0.10181191327312666,0.4123802334031941,0.08376575326770362
-27.80991530418396,9896.0,8652.0,-10276.0,107.0,-47.0,-34.0,-0.898351976666453,-0.11124365999680022,0.4167669341318904,0.08302949321956347
-27.833497047424316,9900.0,8684.0,-10492.0,109.0,-16.0,-93.0,-0.8958373462805685,-0.123186384481508,0.4181067205734322,0.08652938170756133
-27.85701632499695,9856.0,8624.0,-10260.0,129.0,-77.0,-18.0,-0.8912955367083064,-0.13347582011622983,0.4250979344672297,0.08407269354461407
-27.880553722381592,9900.0,8668.0,-10132.0,152.0,-61.0,-65.0,-0.8865458869897539,-0.1473858976703819,0.4303744046866531,0.08421198976425769
-27.904043912887573,9928.0,8664.0,-10124.0,122.0,-40.0,-30.0,-0.8830591354856482,-0.1577883230252449,0.4341733833858215,0.08247958239182132
-27.927581310272217,9948.0,8612.0,-10012.0,124.0,-42.0,-100.0,-0.8788113598874884,-0.17095356426621677,0.4371003410666107,0.08607417984989822
-27.951090812683105,9924.0,8660.0,-10468.0,121.0,-37.0,-41.0,-0.8750873686778454,-0.18164732115001922,0.4404242430197887,0.08516357237664884
-27.974782466888428,9884.0,8688.0,-10232.0,108.0,-42.0,-55.0,-0.8711556293627596,-0.1918260632328609,0.44375012138697345,0.08588632407550714
-27.99830651283264,9872.0,8660.0,-10472.0,145.0,-51.0,-13.0,-0.8664328300372164,-0.20309244178709873,0.4486695625494363,0.08211720139137466
-28.021833181381226,9872.0,8692.0,-10320.0,121.0,-48.0,-72.0,-0.861673829698379,-0.2148393974375746,0.45206229024982647,0.08367753734229125
-28.0452663898468,9928.0,8636.0,-10208.0,99.0,-39.0,-31.0,-0.857864691789353,-0.22335136606019643,0.4553242966437607,0.08283793059985886
-28.068701028823853,9904.0,8644.0,-10300.0,141.0,-41.0,-54.0,-0.8528672677433454,-0.23587338484792306,0.4585245085697138,0.08207584890384495
-28.092210292816162,9892.0,8752.0,-10192.0,108.0,-33.0,-72.0,-0.8485983603970656,-0.24667961609446987,0.46044429384024266,0.0837916583250211
-28.115741729736328,9880.0,8644.0,-10260.0,85.0,254.0,-74.0,-0.8560318930667656,-0.2578690756688662,0.4407425419239426,0.08036759051157334
-28.139256477355957,9840.0,8672.0,-10124.0,102.0,-28.0,-68.0,-0.8519813778441029,-0.2680339638426986,0.44219596218105595,0.08214777577272141
-28.162699222564697,9924.0,8660.0,-10060.0,163.0,-35.0,-56.0,-0.8461650851987483,-0.28216927400547703,0.44480591189515734,0.08082604865347971
-28.186172008514404,9920.0,8640.0,-10296.0,130.0,-57.0,-81.0,-0.8399403527775027,-0.29461991091761497,0.44809111318088557,0.08314845852579467
-28.2096529006958,9912.0,8476.0,-9996.0,83.0,-49.0,-26.0,-0.8355144219852315,-0.30149028244559134,0.45179791414618115,0.08305362736642947
-28.233182191848755,9896.0,8652.0,-10272.0,109.0,-35.0,-56.0,-0.8306518659427418,-0.3115102430070667,0.45383465929359446,0.08374334678878591
-28.25660514831543,9896.0,8672.0,-10304.0,126.0,-27.0,-106.0,-0.8251359895948644,-0.32474622435159156,0.45397776236856824,0.08714745962744444
-28.28007984161377,9892.0,8632.0,-10196.0,98.0,-48.0,-16.0,-0.8201369238187768,-0.3321913234609413,0.4578977765554684,0.08575533238172776
-28.30353879928589,9908.0,8632.0,-10208.0,138.0,-41.0,-44.0,-0.8139361313397342,-0.34362292178651355,0.4607409170165576,0.08455216797544629
-28.327041625976562,9924.0,8620.0,-10212.0,129.0,-53.0,-79.0,-0.80711068210233,-0.3556678489640998,0.4632324722846506,0.08653556881775587
-28.350501537322998,9900.0,8720.0,-10280.0,132.0,-56.0,-71.0,-0.7999694467220998,-0.3675074826917728,0.4661113321086076,0.0879054068680264
-28.373963356018066,9896.0,8624.0,-10388.0,115.0,-5.0,-9.0,-0.7958005550640285,-0.3759737097178109,0.46721714242241696,0.08398445086706409
-28.397425651550293,9884.0,8640.0,-10284.0,91.0,-63.0,-110.0,-0.7891976812082909,-0.3864094582732581,0.4687911356309526,0.08994232422094388
-28.420904397964478,9968.0,8648.0,-10440.0,122.0,-72.0,-72.0,-0.7813273555979957,-0.397278991931256,0.47241799730975864,0.09229410480721428
-28.44438672065735,9948.0,8448.0,-10220.0,139.0,-37.0,-56.0,-0.7742899280316099,-0.408850662036671,0.47426016162621604,0.09161627909523289
-28.467888116836548,9936.0,8636.0,-10224.0,125.0,-26.0,-52.0,-0.7681093051054018,-0.41933172763549165,0.47530805253007125,0.09083640684660396
-28.491349697113037,9904.0,8448.0,-10208.0,106.0,-57.0,-125.0,-0.7606136841262162,-0.43123836726948367,0.4755218741796012,0.09684648311329636
-28.514835357666016,9864.0,8668.0,-10180.0,105.0,-62.0,-28.0,-0.753632337200272,-0.4389370295796635,0.4796207964929068,0.09662544158422612
-28.538334369659424,9928.0,8676.0,-10184.0,120.0,-39.0,-87.0,-0.7464265589131378,-0.4502156205245751,0.4800004449518173,0.09875656955778285
-28.56182551383972,9728.0,8652.0,-10236.0,81.0,-69.0,-52.0,-0.7396881142986267,-0.45716564863941417,0.48330017188324326,0.10140023238175208
-28.585313320159912,10180.0,8640.0,-10196.0,88.0,-11.0,-70.0,-0.7348813956260511,-0.46578544183302806,0.4821528302937052,0.10257633634950977
-28.608752727508545,9840.0,8452.0,-10204.0,131.0,-19.0,-85.0,-0.7277492413004173,-0.4776546057520074,0.4812219321643499,0.10321129489823841
-28.63225030899048,9900.0,8672.0,-10284.0,119.0,-26.0,-42.0,-0.721093765390715,-0.4868170267357097,0.482339746258842,0.10188882752195813
-28.655736207962036,9832.0,8628.0,-10220.0,115.0,-74.0,-16.0,-0.7127189883497778,-0.49413780734600526,0.4874776835585903,0.1011186383873053
-28.679247856140137,9928.0,8600.0,-10344.0,128.0,-54.0,-74.0,-0.70400113295134,-0.5048233712659742,0.4889027043407322,0.10251787315002515
-28.702687740325928,9860.0,8624.0,-10240.0,133.0,-55.0,-30.0,-0.6952873393503629,-0.5138377481799365,0.4922817370418681,0.10101967956545156
-28.72621440887451,9936.0,8936.0,-10132.0,96.0,-15.0,-111.0,-0.6891202268243951,-0.5243519534549982,0.48919165650477253,0.10421067649496636
-28.749707460403442,9880.0,8644.0,-10304.0,109.0,-79.0,-38.0,-0.6801811690298023,-0.5318637882591633,0.4933298444973203,0.10535726156327886
-28.773191213607788,9880.0,8952.0,-10264.0,140.0,-28.0,-48.0,-0.671795162983694,-0.5420266682636271,0.49417782725082626,0.10337613330162997
-28.79669165611267,9884.0,8648.0,-10084.0,142.0,-52.0,-12.0,-0.6624869885349228,-0.5504359948053348,0.4980665903604754,0.10030392420678777
-28.820321321487427,9916.0,8636.0,-10152.0,128.0,-23.0,-87.0,-0.6543333038873836,-0.5614453135472486,0.49646229679105636,0.1007584993169399
-28.843871116638184,9940.0,8644.0,-10212.0,128.0,-75.0,-97.0,-0.6437004353044835,-0.5723066670685679,0.49722885583086907,0.10429905726712109
-28.867342710494995,9812.0,8668.0,-10008.0,103.0,-23.0,-12.0,-0.6372411491340022,-0.578452580966256,0.4990080270237788,0.10152496436684476
-28.890791416168213,9916.0,8716.0,-10020.0,144.0,253.0,-61.0,-0.6400534566091085,-0.5912296450056125,0.4831469651655208,0.08572099859787424
-28.9143385887146,9896.0,8652.0,-10112.0,136.0,-17.0,-105.0,-0.6312796754253152,-0.6031318496760538,0.4798115706189115,0.0865956119065178
-28.93783974647522,9888.0,8604.0,-10172.0,142.0,-44.0,-61.0,-0.6212595768130723,-0.613186122813457,0.4802201807432134,0.08618523663596812
-28.96133017539978,9936.0,8648.0,-10188.0,141.0,-45.0,-125.0,-0.6106220241154857,-0.6257061945832032,0.47713393807197463,0.08930681309532318
-28.98480987548828,9924.0,8640.0,-10372.0,108.0,-74.0,-73.0,-0.6008462809210823,-0.63393137887864,0.47806239001424755,0.09258026155825924
-29.008241415023804,9892.0,8664.0,-10216.0,97.0,-40.0,-27.0,-0.5933943639894599,-0.6398469625486755,0.47959984874536066,0.09199444758356581
-29.03172469139099,9944.0,8612.0,-10264.0,108.0,-20.0,-76.0,-0.5857073555613109,-0.6484661840410798,0.47739927501582125,0.09234952090262698
-29.055186986923218,9884.0,8636.0,-10124.0,117.0,-38.0,-10.0,-0.577223579496223,-0.6545634148525865,0.4798628772431845,0.08995162174180535
-29.078636407852173,9816.0,8948.0,-10256.0,79.0,-39.0,-6.0,-0.570847497502304,-0.6585130075309205,0.48225982536429396,0.08898996767916814
-29.10212254524231,9924.0,8624.0,-10280.0,122.0,-24.0,-61.0,-0.5621499401246784,-0.6669604453505269,0.48103398886163423,0.08807673197566088
-29.12566351890564,9856.0,8656.0,-10496.0,147.0,-46.0,-70.0,-0.5509036545465488,-0.676719154204072,0.4804635531327738,0.08781300502552146
-29.14908003807068,9944.0,8452.0,-10264.0,151.0,-60.0,-82.0,-0.538625926937745,-0.6868940698131547,0.4797743411058765,0.08874248870973737
-29.17255687713623,9912.0,8652.0,-10260.0,100.0,-41.0,-41.0,-0.5304320574765911,-0.6929747044573922,0.48016503782575465,0.08870979558725219
-29.19604516029358,9908.0,8668.0,-10008.0,134.0,-20.0,-49.0,-0.5209448144753195,-0.7010258778923641,0.4792983639652649,0.08632668820669387
-29.219520807266235,9920.0,8648.0,-10236.0,100.0,-63.0,-49.0,-0.5116697413575041,-0.7071061565529849,0.48005759993232106,0.0879753368349914
-29.242964267730713,9896.0,8464.0,-10440.0,126.0,-36.0,-110.0,-0.5013698344728792,-0.716985258827017,0.4759598551285902,0.08956921352431621
-29.266481399536133,9940.0,8648.0,-10272.0,136.0,-72.0,-31.0,-0.48948570441315514,-0.7235809584164392,0.478354005686322,0.0895085863822842
-29.28993797302246,9968.0,8684.0,-10252.0,116.0,-66.0,-61.0,-0.4788121010187273,-0.7304861315449805,0.4783505905437643,0.09115753432883807
-29.313408851623535,9888.0,8640.0,-10172.0,129.0,-40.0,-41.0,-0.46849578894313354,-0.7371846390491698,0.4785560848479045,0.08974729716009058
-29.336860418319702,9924.0,8636.0,-10296.0,106.0,-48.0,-73.0,-0.4590182286006177,-0.744104271621751,0.4767722350906075,0.09110068393443181
-29.360352039337158,9868.0,8644.0,-10196.0,104.0,-38.0,-55.0,-0.45018923741380373,-0.7501724178094302,0.4756708342441028,0.09114961066428501
-29.383784770965576,9916.0,8668.0,-10240.0,81.0,-50.0,-92.0,-0.4420331857074205,-0.7566812565122388,0.4723695208903703,0.09437782848853024
-29.40725564956665,9944.0,8580.0,-10292.0,66.0,-57.0,-39.0,-0.43498245480033365,-0.7602925774695124,0.4726604759199996,0.09663092239920222
-29.430726051330566,9960.0,8632.0,-10356.0,139.0,-33.0,-105.0,-0.4234664964597132,-0.7694811564238616,0.46819913120215495,0.0967700874561946
-29.45419931411743,9880.0,8672.0,-10460.0,150.0,-48.0,-68.0,-0.4108287543327984,-0.7772592489874162,0.4667517014765439,0.09607623871504341
-29.47771644592285,9924.0,8608.0,-10040.0,127.0,-71.0,-61.0,-0.3988195085742522,-0.7835683321738104,0.46629927939956384,0.09761480638915702
-29.501190662384033,9912.0,8664.0,-10284.0,92.0,-82.0,-56.0,-0.3887437588438228,-0.7882363471694508,0.46618913296992043,0.10114071020954331
-29.52470564842224,9872.0,8672.0,-10224.0,92.0,-30.0,-95.0,-0.38039964705324447,-0.7948412838589222,0.46155937486490756,0.10240305400515723
