programtime,ax,ay,az,gx,gy,gz,q0,q1,q2,q3
-9606.992557525635,-896.0,-5572.0,-15324.0,-81.0,131.0,109.0,0.9998615061610407,-0.007393373832842426,0.01148270836781474,0.009510727063820553
-9607.008138656616,-928.0,-5552.0,-15300.0,-111.0,106.0,-61.0,0.99962347112729,-0.017548525499508395,0.020666262071716415,0.004227391181803214
-9607.023765087128,-972.0,-5524.0,-15152.0,-87.0,57.0,-1.0,0.9993364650265762,-0.02547856446694984,0.025686482146780282,0.004204409091994186
-9607.039360284805,-900.0,-5540.0,-15332.0,-110.0,35.0,-376.0,0.9985493794168979,-0.03622414884140182,0.027929332182541636,-0.02840599075337934
-9607.054939985275,-880.0,-5580.0,-15252.0,-139.0,55.0,-221.0,0.9971392347748943,-0.04904164232045995,0.03244839565490863,-0.0474906876184476
-9607.07051706314,-856.0,-5568.0,-15360.0,-114.0,129.0,-116.0,0.9956190390794367,-0.059059692723948315,0.04373610395884901,-0.05780860600630949
-9607.086136579514,-896.0,-5560.0,-15356.0,-148.0,193.0,20.0,0.993966212513832,-0.07116109584705295,0.06144711249606338,-0.056493532237329926
-9607.101731300354,-908.0,-5584.0,-15272.0,-82.0,127.0,-67.0,0.9923092438882115,-0.07830159443254273,0.07256384120757432,-0.06265551653708956
-9607.117361783981,-976.0,-5568.0,-15604.0,-111.0,80.0,-132.0,0.990148457360536,-0.08859669554615046,0.07931769381120218,-0.07392808244047788
-9607.132972478867,-944.0,-5520.0,-15276.0,-100.0,47.0,-285.0,0.986818827057422,-0.09916629907028256,0.08192600988168719,-0.09819764049397152
-9607.1485517025,-832.0,-5536.0,-15288.0,-146.0,57.0,-321.0,0.9818738631740385,-0.11378465883759568,0.08539931058290837,-0.12523468361785972
-9607.164121866226,-788.0,-5556.0,-15336.0,-109.0,115.0,-139.0,0.9781997387741059,-0.12317568220733309,0.09518069181802011,-0.13745420430118507
-9607.17971944809,-708.0,-5664.0,-15248.0,-109.0,106.0,-82.0,0.9749988966355101,-0.1321658442780162,0.1047784374975019,-0.1446748775751994
-9607.195296287537,-728.0,-5516.0,-15296.0,-87.0,172.0,141.0,0.973933113609053,-0.13636480492041755,0.12225215995901643,-0.13384072466983568
-9607.210866451263,-768.0,-5480.0,-15204.0,-92.0,178.0,77.0,0.9716049975131233,-0.14153952465693,0.13949753966065181,-0.12841623026720012
-9607.226466178894,-888.0,-5520.0,-15260.0,-82.0,153.0,137.0,0.9700167036337684,-0.14535651598049198,0.1552131489964688,-0.117677339841157
-9607.242062568665,-908.0,-5540.0,-15424.0,-78.0,101.0,-90.0,0.9665735283683794,-0.1523953733063771,0.16357452479067006,-0.1255174860002303
-9607.257650136948,-916.0,-5588.0,-15240.0,-111.0,109.0,-105.0,0.9621860513945601,-0.16230703372296357,0.1727337781767742,-0.13422917411119833
-9607.27321434021,-880.0,-5536.0,-15216.0,-101.0,235.0,-155.0,0.9549904313655815,-0.1705764122903155,0.19155767869306284,-0.1490054338071948
-9607.288807868958,-772.0,-5496.0,-15356.0,-8.0,-69.0,-287.0,0.9518938508059405,-0.1771374559303245,0.18175679309256534,-0.1717116381293846
-9607.304394245148,-752.0,-5476.0,-15164.0,-127.0,21.0,-237.0,0.9456984731026045,-0.19133882153026818,0.1818620169445735,-0.18965774473947056
-9607.320051908493,-1016.0,-5556.0,-15532.0,-111.0,25.0,-62.0,0.9422736195745394,-0.20131429362175027,0.1848887135352192,-0.19341443752926962
-9607.335673093796,-700.0,-5632.0,-15300.0,-17.0,60.0,152.0,0.9433863596620398,-0.19948994929934796,0.19292459983826354,-0.18167563212878574
-9607.351262331009,-828.0,-5580.0,-15304.0,-20.0,25.0,164.0,0.9450266815085645,-0.19821749531409227,0.19830421994759387,-0.1682552588755977
-9607.366835594177,-852.0,-5516.0,-15216.0,-12.0,39.0,508.0,0.9505731994484254,-0.189914387408801,0.2104481103325125,-0.12670718528559738
-9607.382442712784,-944.0,-5556.0,-15180.0,-70.0,16.0,-62.0,0.9483078675811277,-0.1969302709701099,0.2116912534676645,-0.13083374895134148
-9607.3980281353,-988.0,-5536.0,-15172.0,-15.0,-49.0,-137.0,0.9472205350283373,-0.20149981434458955,0.20561314928689375,-0.1410472108198232
-9607.413585186005,-1008.0,-5632.0,-15236.0,-35.0,-14.0,-343.0,0.9421130837252004,-0.21087987897699026,0.19893836376007207,-0.16845219363638053
-9607.429178476334,-972.0,-5680.0,-15200.0,-282.0,-318.0,-604.0,0.9315349396237496,-0.24896317915646834,0.1656511165773155,-0.20692921316520305
-9607.444755077362,-828.0,-5832.0,-15268.0,-212.0,-308.0,-628.0,0.9180771218437714,-0.2805347045723512,0.1306780964690836,-0.24770529461595617
-9607.460336208344,-772.0,-5880.0,-15096.0,-62.0,-568.0,628.0,0.9339551993320488,-0.2901018266052064,0.10173320709754793,-0.18226072098673082
-9607.475957632065,-904.0,-5136.0,-15896.0,-243.0,887.0,1973.0,0.9344919152040541,-0.2736759160445862,0.22392987275761542,-0.04100933408595902
-9607.491548538208,-1980.0,-6100.0,-14740.0,-864.0,-391.0,-1644.0,0.9031840603514143,-0.3728229456061404,0.15393297432694045,-0.14685449864255173
-9607.507132768631,-2152.0,-6020.0,-14092.0,-117.0,-1669.0,-4178.0,0.8080649515559616,-0.42799679559693565,-0.10415489579751225,-0.3911541060848343
-9607.522693395615,-1624.0,-5776.0,-15196.0,599.0,-2032.0,-6191.0,0.5215344671177232,-0.3466249470453423,-0.43341246288367713,-0.6480791484927991
-9607.538305282593,-548.0,-5600.0,-15992.0,525.0,-2640.0,-8961.0,-0.05369004083112571,-0.10327883723994699,-0.6618599570583477,-0.7405351163426611
-9607.553928852081,984.0,-5092.0,-15684.0,-243.0,-1761.0,-8530.0,-0.564262493005129,0.22026985945582975,-0.569147180586682,-0.5560220452762432
-9607.569531202316,1840.0,-5568.0,-16404.0,107.0,-599.0,-8693.0,-0.8101154899612477,0.49179436823726747,-0.30080350843457865,-0.10662289439141624
-9607.585133314133,3080.0,-5024.0,-15772.0,-918.0,2788.0,-695.0,-0.6806042213165572,0.5812997733385841,-0.44441821789281066,0.03689058209858126
-9607.600732326508,2388.0,-6076.0,-15836.0,455.0,5168.0,7972.0,-0.4068244498564752,0.17597282548259413,-0.8882486283720336,-0.120589410338759
-9607.616312026978,-60.0,-4992.0,-15168.0,1494.0,5047.0,9645.0,0.045611739133660706,-0.41251115245441944,-0.888770994636263,-0.19452567297710974
-9607.63190984726,-2488.0,-3624.0,-14772.0,1236.0,4318.0,5697.0,0.4407957078795233,-0.6558359761036829,-0.5808983163309562,-0.19528303164120522
-9607.647483587265,-3976.0,-3996.0,-15384.0,-575.0,1661.0,-2678.0,0.42979572361768625,-0.49507556925068114,-0.6361814212840645,-0.40675424509653363
-9607.663076639175,-3456.0,-5364.0,-15484.0,-1431.0,-1858.0,-7930.0,-0.013648498479858924,-0.14155346023197546,-0.8091146817050854,-0.570183977532584
-9607.678674697876,-1736.0,-6584.0,-15976.0,-405.0,-4704.0,-9139.0,-0.5994836263101139,0.20105258395870237,-0.66703715218376,-0.39402877797971053
-9607.694259643555,880.0,-6104.0,-15780.0,194.0,-4497.0,-7171.0,-0.8936722708182543,0.3650259147113847,-0.25157464422503983,-0.06939850389386314
-9607.709841012955,2688.0,-5336.0,-14976.0,-348.0,-1985.0,-2174.0,-0.9092662684597581,0.4145113034147816,-0.02466889674528756,0.028402075910333738
-9607.725423812866,2324.0,-5944.0,-14792.0,-745.0,1006.0,4448.0,-0.8263966820272065,0.42833296637476787,-0.24780083500079875,-0.2686896723432502
-9607.741008758545,344.0,-6580.0,-15052.0,27.0,1986.0,7155.0,-0.5174530064734837,0.26730643517584857,-0.5531714617775165,-0.5956433410020281
-9607.75659942627,-1656.0,-6084.0,-14624.0,455.0,956.0,5125.0,-0.19598493586491025,0.04479228691541102,-0.672881619485142,-0.7119086192103358
-9607.77217054367,-2848.0,-5740.0,-14900.0,36.0,-1055.0,39.0,-0.25458989765242057,-0.023481414043577786,-0.6546673024046916,-0.7113672261005618
-9607.787801504135,-2736.0,-5860.0,-14960.0,-425.0,-3221.0,-4474.0,-0.6459827970463026,0.037534649295016785,-0.5098437460785904,-0.5668833483240492
-9607.80338025093,-952.0,-5976.0,-14968.0,-231.0,-3753.0,-4401.0,-0.9192768640202409,0.05430617787161161,-0.2433750665454893,-0.30454796552606767
-9607.818948030472,728.0,-5992.0,-15432.0,226.0,-2613.0,-805.0,-0.9698428702424011,-0.01547496506044314,-0.035128579173577854,-0.24068925073963082
-9607.834525108337,1296.0,-5456.0,-15232.0,591.0,-12.0,3668.0,-0.8485763815626998,-0.07294301374346648,-0.03944891248994156,-0.5225334675437898
-9607.850134372711,700.0,-5452.0,-15240.0,506.0,1941.0,7262.0,-0.42406204133868014,-0.03901417898041801,-0.1335316118025001,-0.8948846783712312
-9607.865691661835,-872.0,-5564.0,-14980.0,330.0,2669.0,7825.0,0.1778118029231288,0.05374508826427226,-0.18758201139808875,-0.9645244513378286
-9607.881298780441,-2056.0,-5768.0,-15020.0,172.0,2331.0,6147.0,0.635389431674692,0.1320529233730427,-0.16886774660468062,-0.7418395916243636
-9607.89688205719,-3360.0,-5984.0,-14908.0,215.0,1152.0,3319.0,0.8266269559327254,0.16238099884283963,-0.1501245613492451,-0.5174774420396452
-9607.912533283234,-3740.0,-6040.0,-14952.0,345.0,-453.0,-291.0,0.8013788914724421,0.1705288318093928,-0.19384248063257892,-0.5395710171296564
-9607.92818069458,-3184.0,-5588.0,-15076.0,155.0,-1401.0,-2334.0,0.6472991365076608,0.15086269458167337,-0.2572528104499029,-0.7014736394018093
-9607.94391322136,-2200.0,-5504.0,-15112.0,-167.0,-1864.0,-4114.0,0.3308679343876218,0.11147769821962324,-0.2775187320633626,-0.8950321145901228
-9607.95951128006,-1140.0,-6136.0,-14984.0,-464.0,-2079.0,-4235.0,-0.042394701045729656,0.0354778243850721,-0.24049464813443153,-0.9690749906580197
-9607.97519993782,-456.0,-6164.0,-15068.0,-36.0,-1724.0,-3145.0,-0.32880315461191684,-0.04203245934070094,-0.21134777832524873,-0.9194856575694945
-9607.990728855133,408.0,-6028.0,-15352.0,13.0,-1021.0,-587.0,-0.3926423917188807,-0.11290045781488282,-0.18438956810568888,-0.8939160620686176
-9608.006335735321,256.0,-5656.0,-15252.0,58.0,721.0,2742.0,-0.16159445504390413,-0.0999178027504365,-0.1812046432518909,-0.964918930302719
-9608.021936893463,-772.0,-6020.0,-14864.0,274.0,1102.0,4284.0,0.20433684077889364,-0.07356785400286928,-0.1701610452245704,-0.9611864777690099
-9608.037525892258,-1880.0,-5620.0,-15048.0,357.0,399.0,2778.0,0.43266708004724097,-0.07298796991010552,-0.16999073854710017,-0.8823690287515803
-9608.053119421005,-2284.0,-5452.0,-15348.0,43.0,-563.0,-732.0,0.3670550787651058,-0.1037839514350807,-0.19853901412163738,-0.9028187638994171
-9608.068747758865,-1860.0,-5404.0,-15212.0,-311.0,-1530.0,-2953.0,0.10086204567238925,-0.1760764483820573,-0.2398562242529992,-0.9493644841445442
-9608.084317922592,-976.0,-6008.0,-15132.0,-206.0,-1146.0,-1991.0,-0.08943255069033365,-0.2268774114969501,-0.2583666679667676,-0.9347593935945304
-9608.099959135056,-452.0,-6088.0,-15284.0,205.0,-362.0,744.0,-0.03268986002224426,-0.27428235638364695,-0.25691375408643746,-0.9261187207856094
-9608.115557909012,-588.0,-5696.0,-15180.0,213.0,401.0,2283.0,0.16266304790259056,-0.28805125084631,-0.21628495475413956,-0.91857935317528
-9608.131160974503,-1156.0,-5552.0,-15124.0,-75.0,762.0,2067.0,0.3347715591919564,-0.2625237181783939,-0.14486800392991123,-0.8933210856054729
-9608.146728515625,-1752.0,-5752.0,-15240.0,-82.0,294.0,551.0,0.3790261942887634,-0.2488929604816497,-0.11702847018802529,-0.8835699040999003
-9608.162300348282,-1832.0,-5988.0,-15084.0,-66.0,-27.0,-632.0,0.32811113605207026,-0.24662302250084123,-0.1262678514220743,-0.9030927952699117
-9608.177874326706,-1504.0,-5824.0,-15036.0,64.0,-268.0,-404.0,0.29446056776951135,-0.2615241769654021,-0.14746456360081556,-0.9072774004533823
-9608.193449735641,-1036.0,-5716.0,-15396.0,179.0,-225.0,233.0,0.3139659363769891,-0.2778992764474375,-0.1619730725128737,-0.8932872476004853
-9608.209032058716,-1176.0,-5324.0,-15224.0,-102.0,115.0,-196.0,0.2977943666383226,-0.2692035198809206,-0.15557007525128402,-0.9025773827038392
-9608.224704504013,-1292.0,-5636.0,-15240.0,-246.0,166.0,-707.0,0.23808016234288892,-0.25266579492691454,-0.1481231989325245,-0.9260331259251635
-9608.240305662155,-1504.0,-6024.0,-15212.0,-137.0,-174.0,-904.0,0.15927016005215683,-0.25734220859541357,-0.16001186816656024,-0.9395766098823675
-9608.255927801132,-1076.0,-6004.0,-15084.0,63.0,-78.0,-499.0,0.11861057849685933,-0.2559432067044255,-0.17724985369979082,-0.9428717277413184
-9608.271491289139,-1108.0,-5800.0,-14872.0,9.0,-25.0,196.0,0.13458389758952216,-0.2611977907657869,-0.17382558133729234,-0.9399189092051705
-9608.287109136581,-1084.0,-5744.0,-15064.0,-97.0,-172.0,-457.0,0.09223652515260983,-0.26955941185659754,-0.17811956286648611,-0.941861756433262
-9608.302695512772,-932.0,-5784.0,-15064.0,-286.0,112.0,-643.0,0.03437984878755049,-0.2524728392388257,-0.16849790763311293,-0.952199530858577
-9608.318285703659,-860.0,-6200.0,-15184.0,-92.0,226.0,567.0,0.08273577885717082,-0.24224897365855697,-0.1474284338783308,-0.9553716986296253
-9608.333889007568,-1108.0,-5996.0,-15188.0,343.0,420.0,2178.0,0.27187875597035505,-0.22872348245754087,-0.12451709320640192,-0.926424850769848
-9608.349517345428,-1492.0,-5584.0,-14948.0,120.0,789.0,1951.0,0.43335654168876064,-0.18055665555478476,-0.07520635532121599,-0.8797416700541854
-9608.365110397339,-1988.0,-5572.0,-15248.0,-70.0,272.0,-380.0,0.40455165244081587,-0.15997114407368387,-0.06531687101368149,-0.8980428163134228
-9608.380727291107,-1892.0,-5864.0,-15464.0,-295.0,-376.0,-1602.0,0.26991356591419097,-0.18898365272894707,-0.0768334147267181,-0.9410252240605151
-9608.396292686462,-1500.0,-6076.0,-15300.0,66.0,-835.0,-1525.0,0.13861776502387646,-0.24325791940158592,-0.1254627028329399,-0.9517719317494346
-9608.411933422089,-924.0,-5708.0,-15132.0,45.0,-528.0,-790.0,0.06798664827046613,-0.27726606273605053,-0.15175734479888137,-0.9462933236641744
-9608.427510738373,-612.0,-5572.0,-14996.0,-186.0,145.0,167.0,0.07922628629007689,-0.26882409207729063,-0.13141615382172422,-0.9508872686045429
-9608.443107366562,-768.0,-5948.0,-15256.0,-102.0,389.0,623.0,0.13277310661818795,-0.24418142238530022,-0.1053533373006869,-0.9548022881416103
-9608.45870089531,-1020.0,-5996.0,-15024.0,-110.0,650.0,1370.0,0.2484386112365215,-0.20240582370938923,-0.05882918700878835,-0.9454360188459487
-9608.474284410477,-1456.0,-6084.0,-15136.0,85.0,565.0,1758.0,0.39285016432828823,-0.16114884330897292,-0.02206761647275724,-0.9051037614498287
-9608.489860773087,-1936.0,-5784.0,-15100.0,173.0,183.0,828.0,0.459753022033936,-0.14218179747869739,-0.017532575797602094,-0.8764154859324947
-9608.505449295044,-1840.0,-5456.0,-15332.0,59.0,-506.0,-985.0,0.38260958569149517,-0.17641592899540062,-0.054085627451883306,-0.9052966750390772
-9608.52102470398,-1676.0,-5456.0,-14852.0,-403.0,-500.0,-1796.0,0.2290324392417898,-0.21815958971035204,-0.06550490884604172,-0.946392963894723
-9608.536662817001,-1152.0,-5896.0,-15132.0,-255.0,-514.0,-2295.0,0.031079118363943316,-0.24764352409583268,-0.09622067366037496,-0.9635602499768556
-9608.552265167236,-640.0,-6068.0,-15196.0,29.0,-286.0,-716.0,-0.03077704597404318,-0.2652881866970344,-0.11452494727996655,-0.95684846652468
-9608.567857503891,-456.0,-5696.0,-15272.0,208.0,190.0,366.0,0.006556953371464752,-0.25372997244411555,-0.12374654164672909,-0.9593043838513755
-9608.583446264267,-624.0,-5608.0,-15332.0,-189.0,1188.0,1833.0,0.16571619689793657,-0.17136565873120393,-0.06539588606732016,-0.9689661145668484
-9608.599043369293,-1336.0,-6124.0,-15216.0,-34.0,1153.0,2112.0,0.34294952166067805,-0.08480502574739737,-0.013752803864815123,-0.9354168020655558
-9608.614649772644,-2000.0,-5984.0,-15180.0,206.0,763.0,1248.0,0.44361839471642006,-0.017844858329272812,0.0017853429364250678,-0.8960363237341632
-9608.63021683693,-2108.0,-5420.0,-15024.0,-86.0,-135.0,-919.0,0.3704243282702009,-0.03182659621162744,0.002170197072209418,-0.9283146961261682
-9608.645800828934,-2028.0,-5760.0,-14624.0,-399.0,-540.0,-1877.0,0.21415266913302486,-0.08757203175520711,0.011968586334256345,-0.9727931570989928
-9608.661394834518,-1524.0,-6144.0,-15192.0,-172.0,-773.0,-1718.0,0.06691789604505949,-0.156201897094505,-0.0006875179642817246,-0.9854554732975149
-9608.67698597908,-780.0,-5912.0,-15212.0,249.0,-437.0,-318.0,0.04292034734400857,-0.19224334302519508,-0.028686051276715356,-0.9799884954980423
-9608.692578077316,-688.0,-5632.0,-15160.0,-47.0,180.0,22.0,0.044505404367510985,-0.17729809569077543,-0.023405361745553282,-0.9828717328767109
-9608.708158493042,-968.0,-5776.0,-15324.0,-117.0,385.0,669.0,0.10067726996056235,-0.14597762902611608,-0.0012832583727173245,-0.9841508890333589
-9608.723789215088,-1192.0,-5832.0,-15232.0,-111.0,347.0,413.0,0.13465446217505997,-0.1172399514736046,0.016813771294025222,-0.9837887307189914
-9608.739443540573,-1392.0,-5872.0,-14992.0,-201.0,371.0,698.0,0.1915222895805811,-0.0866404112836023,0.045754047031091365,-0.9765854898096208
-9608.755066156387,-1540.0,-5932.0,-15096.0,-90.0,107.0,-24.0,0.18837282967309668,-0.07920773371878682,0.055341025392520324,-0.9773326879157315
-9608.770649433136,-1544.0,-5736.0,-15268.0,-81.0,252.0,-556.0,0.13899208125381438,-0.06172402417843876,0.06277546169398532,-0.9863724385834488
-9608.786215782166,-1404.0,-5844.0,-15284.0,-35.0,-83.0,-731.0,0.07619366643169798,-0.07319825721190988,0.061041536190672874,-0.9925273150882635
-9608.801785945892,-1244.0,-5700.0,-15084.0,-15.0,-80.0,-165.0,0.062243231443137446,-0.08115293550262094,0.061069485400503096,-0.9928799016757973
-9608.817384719849,-1152.0,-5520.0,-15164.0,-231.0,200.0,-219.0,0.04056487513424578,-0.06627940756441247,0.08089563977912012,-0.9936887976137098
-9608.83298778534,-1184.0,-5976.0,-15176.0,-163.0,317.0,-266.0,0.01432512141313189,-0.04125381756399816,0.09486611438741302,-0.9945317158210338
-9608.848566532135,-1084.0,-5980.0,-15128.0,-144.0,296.0,-31.0,0.008674694771264186,-0.016002550581385076,0.10790228754009291,-0.9939948512890451
-9608.864133358002,-1172.0,-5924.0,-15188.0,-140.0,379.0,15.0,0.006215243618818029,0.016919565112466558,0.12060220497213764,-0.9925372573455479
-9608.879757642746,-1352.0,-5940.0,-15068.0,-139.0,425.0,579.0,0.05199108063881375,0.059686285680630516,0.13206521151845665,-0.9880755308893363
-9608.895441055298,-1628.0,-5892.0,-15336.0,21.0,87.0,65.0,0.05647255573579284,0.06812416439788166,0.13061237014298646,-0.9874767629870536
-9608.911090612411,-1792.0,-5432.0,-15396.0,8.0,-221.0,-1535.0,-0.07267212382699458,0.03145039785922205,0.13701240451754113,-0.9873992282259958
-9608.926791191101,-1136.0,-5540.0,-15192.0,-642.0,75.0,-1923.0,-0.23385216645999882,0.018781509566550027,0.19441639406302336,-0.9524508831745068
-9608.94247341156,-1000.0,-6356.0,-15168.0,-362.0,155.0,-433.0,-0.271494496285216,0.03174522948946848,0.2220650042556545,-0.9359327501356249
-9608.958067178726,-528.0,-6056.0,-15176.0,91.0,488.0,1273.0,-0.1759626665988336,0.09352942968640893,0.19844499658915057,-0.9596400205674493
-9608.973664283752,-1080.0,-5740.0,-15036.0,45.0,1009.0,1343.0,-0.08046982126877449,0.19858649680606827,0.16672948442752322,-0.9624392397309024
-9608.989348173141,-1592.0,-5748.0,-14876.0,-284.0,1082.0,882.0,-0.017098546074749393,0.30213538327469724,0.16666565219659035,-0.9384265609377574
-9609.004928350449,-1940.0,-6088.0,-15060.0,-195.0,434.0,-86.0,-0.025321169276138412,0.33661932977223874,0.1843087162061014,-0.9230799328013998
-9609.020540714264,-1760.0,-5724.0,-15064.0,-74.0,142.0,-1259.0,-0.12610173562967925,0.32618557055022057,0.2257661553017952,-0.9092474739894828
-9609.03613948822,-1376.0,-5948.0,-14984.0,-463.0,644.0,-786.0,-0.18709429874926292,0.36534920902396856,0.27668977117869864,-0.8688834498171556
-9609.051759719849,-1420.0,-6628.0,-14776.0,-84.0,1408.0,1057.0,-0.1366608949007483,0.4933677422566868,0.22395108811930345,-0.8293117512947987
-9609.06734585762,-1604.0,-6888.0,-14468.0,-110.0,3532.0,5074.0,0.14627379531914222,0.7477162268973587,-0.02505432239843003,-0.6472222970251152
-9609.082919597626,-2444.0,-8044.0,-11088.0,-1462.0,9570.0,19634.0,0.636011769847619,0.5689619494814394,-0.5107801668977314,0.10428302719764505
-9609.098511695862,-7488.0,-12432.0,-11244.0,1689.0,9185.0,28451.0,0.251023560181539,-0.24631396257673185,-0.499738116925024,0.7915670651093087
-9609.114140033722,-11944.0,-10748.0,-12060.0,11244.0,-5924.0,17551.0,-0.4572440558207649,-0.1666283121293164,0.24508077064111078,0.8385095675515405
-9609.129747390747,-9192.0,3588.0,-20552.0,13073.0,-19557.0,-16143.0,0.4965962103082351,0.14805377814109674,0.6512753697961189,0.5543578946696571
-9609.145360708237,472.0,15516.0,-31172.0,-3954.0,-23996.0,-32768.0,0.9453610762408103,-0.19593049325183504,-0.042248591306063156,-0.2571356332279963
-9609.160959720612,11156.0,5100.0,-18308.0,-28316.0,-3616.0,-32768.0,-0.07329157142908094,-0.6354584492782762,-0.06775460499975847,-0.7656567235384478
-9609.176560878754,18056.0,-17708.0,-10272.0,-17225.0,5032.0,-10800.0,-0.8257071018800938,-0.06017816795896041,0.21709538718709404,-0.5171614475847608
-9609.192156791687,12952.0,-25268.0,-17580.0,3507.0,8300.0,23064.0,0.032077565514314746,0.2094783871720143,-0.17547877490948577,-0.9614036793432571
-9609.207783460617,4592.0,-9976.0,-15272.0,16783.0,8854.0,32767.0,0.7560261090168171,0.1441340532336741,-0.6249913397533561,-0.13052096542942493
-9609.223361968994,736.0,888.0,-17268.0,14420.0,18793.0,18746.0,0.6430462362572946,0.10186954877599086,0.07611760098733583,0.7551955004417309
-9609.238945007324,-5132.0,5572.0,-13376.0,827.0,15022.0,26149.0,-0.4216172819450231,-0.2371771125189293,0.2632807376386751,0.8346670821656437
-9609.254521369934,-9740.0,-488.0,-13452.0,-7328.0,14307.0,6936.0,-0.7705938048110994,-0.4658314573727937,-0.3577679776442016,0.24736272047556057
-9609.270096302032,-12720.0,-6904.0,-14320.0,-9198.0,696.0,-4409.0,-0.766640741100106,0.20538915739241825,-0.583965533109311,0.17047440937416602
-9609.285677671432,-10480.0,-13380.0,-16608.0,-3000.0,-9434.0,-27507.0,-0.286234695061171,0.7110309364581378,0.18075508335281634,0.6163053679669022
-9609.301287651062,-3368.0,-9640.0,-16468.0,3386.0,-17155.0,-21537.0,0.35603945007593013,0.4617713264220126,0.812288695595947,0.01379228375286212
-9609.316884756088,3300.0,-2332.0,-15284.0,3816.0,-13262.0,-14638.0,0.5740090333854112,-0.2184440132021867,0.49237827777797083,-0.6167329035007524
-9609.332526683807,7084.0,-100.0,-15624.0,-1436.0,-4000.0,-9745.0,0.14208893465117017,-0.6777697986294051,0.1346414558816771,-0.7087386775629038
-9609.348136425018,7460.0,-3776.0,-15724.0,-3955.0,3269.0,-149.0,-0.12728072849884114,-0.48061857367377986,0.37510003842705747,-0.7823716277860577
-9609.363759279251,5620.0,-8188.0,-16280.0,-2189.0,8443.0,11355.0,0.17486777040347345,0.30718784575339125,0.5668930725199055,-0.7441029059373776
-9609.379348754883,1388.0,-8072.0,-15852.0,1384.0,9059.0,21807.0,0.48199724850697045,0.8699632198379427,0.013498080959846979,-0.10324945700249863
-9609.394919395447,-3516.0,-6248.0,-15432.0,2616.0,8644.0,15105.0,0.22317368317670722,0.5869871708390373,-0.43282629624457414,0.6467619080364347
-9609.410536289215,-6944.0,-4844.0,-14572.0,1532.0,3729.0,5170.0,-0.005583397028487459,0.18325453221222737,-0.4676311628308358,0.8647009295998126
-9609.42615032196,-7836.0,-4364.0,-14524.0,-622.0,-2620.0,-6378.0,0.3240971866628837,0.5490804518848071,-0.35228959203144666,0.6851012438329803
-9609.441804885864,-5592.0,-4588.0,-15044.0,-1711.0,-6925.0,-13919.0,0.605904366240092,0.7935686161532324,0.009672067069342814,-0.05509266327236579
-9609.457401037216,-1412.0,-5860.0,-15552.0,-1868.0,-8082.0,-15808.0,0.3596513777652637,0.34717963800583157,0.370620051191892,-0.7827885813425018
-9609.472996711731,2276.0,-6408.0,-15832.0,-830.0,-6014.0,-10257.0,-0.0842033647070544,-0.29202556647735034,0.38090434848284455,-0.8732369318818651
-9609.488585710526,4528.0,-5976.0,-15524.0,403.0,-1555.0,321.0,0.0022067114775636476,-0.3988985343582119,0.3662973286005912,-0.8406553138899413
-9609.504138708115,4176.0,-5588.0,-15752.0,739.0,2839.0,8619.0,0.4458754946157531,0.06639723127242078,0.4798533404262941,-0.7526800267459216
-9609.519764661789,1796.0,-4984.0,-15424.0,209.0,5944.0,12189.0,0.6429757251519069,0.629452867573352,0.404705017593449,-0.16304954186918028
-9609.535350084305,-1168.0,-5516.0,-15248.0,68.0,6411.0,11011.0,0.3806343800347014,0.7445801923797355,0.10616166699302047,0.5380032586449802
-9609.55096244812,-4052.0,-6092.0,-15000.0,200.0,4065.0,6696.0,0.012714344779256329,0.5139052471363245,-0.1523349618062042,0.8441171730358822
-9609.56658244133,-5124.0,-6012.0,-14892.0,267.0,506.0,-396.0,0.03648432780530708,0.48149300573916953,-0.11433044411211807,0.8681946376233733
-9609.582167387009,-4576.0,-5556.0,-14904.0,-116.0,-2975.0,-5881.0,0.3963027021645527,0.6634711866962757,0.09911976396731934,0.6268376385252982
-9609.59776520729,-2504.0,-5268.0,-15212.0,-272.0,-4177.0,-8676.0,0.7062453874935611,0.6182573958070713,0.3384278064905415,0.06664731778495299
-9609.613369226456,-164.0,-5484.0,-15428.0,-662.0,-3650.0,-7563.0,0.7199397104842473,0.30251698540598865,0.4172108447469189,-0.4648713777318339
-9609.62895321846,1488.0,-5760.0,-15364.0,-306.0,-1833.0,-3402.0,0.6219540506500914,0.08062833733136908,0.3832163226627113,-0.6780984295395407
-9609.644560098648,1968.0,-5764.0,-15560.0,122.0,503.0,1432.0,0.6828952205204892,0.16339766088841373,0.39009067500016636,-0.5956379667922305
-9609.660151481628,1372.0,-5536.0,-15420.0,205.0,2253.0,5328.0,0.7855558955145648,0.4231638408743891,0.390977127893688,-0.22576798768370074
-9609.675781726837,-236.0,-5604.0,-15160.0,47.0,3050.0,5982.0,0.6879862312137593,0.595919286444184,0.32652397367783387,0.2548278719406089
-9609.691375017166,-1736.0,-5708.0,-15180.0,-77.0,2428.0,4547.0,0.4755740615977086,0.608318633591917,0.21362457826070175,0.5984499072798485
-9609.706965208054,-2724.0,-5656.0,-15076.0,-36.0,924.0,2034.0,0.34735199260160227,0.5856739683837761,0.1395407717947524,0.7189304340478436
-9609.722625494003,-2916.0,-5788.0,-15004.0,-51.0,-768.0,-1093.0,0.4249018794632711,0.6150629901925131,0.16779588535292816,0.6426511120216405
-9609.738250494003,-2240.0,-5592.0,-15304.0,-162.0,-2015.0,-3772.0,0.63190018452607,0.6248866003108055,0.26838471539180997,0.3717371895465659
-9609.753836631775,-1076.0,-5552.0,-15396.0,-349.0,-2551.0,-4474.0,0.7801494551595157,0.5322797849191462,0.3286554783660799,-0.005534864108660499
-9609.769423246384,52.0,-5620.0,-15296.0,-358.0,-1549.0,-3326.0,0.7990852014324706,0.3921347826589915,0.35987264135454655,-0.2796155129550489
-9609.784999847412,652.0,-5684.0,-15112.0,-512.0,-376.0,-331.0,0.8185804852718579,0.33632369315084565,0.35702143938471576,-0.2989114490566243
-9609.800567388535,472.0,-5692.0,-15352.0,-70.0,948.0,2453.0,0.8332499458983369,0.42161065123849084,0.3458379447314168,-0.09129678201680409
-9609.81615638733,-372.0,-5696.0,-15276.0,-86.0,1643.0,3578.0,0.7708998696495418,0.5074430942346568,0.31640651013547305,0.21932126534325735
-9609.831776618958,-1432.0,-5748.0,-15052.0,-142.0,1284.0,2742.0,0.6661731577480059,0.5309435198322612,0.2695409141468763,0.4490656947987077
-9609.847346305847,-2188.0,-5740.0,-15136.0,-228.0,530.0,521.0,0.6422459099049167,0.5082034125620237,0.2667962202203785,0.508005176692953
-9609.862964630127,-2300.0,-5768.0,-14916.0,-354.0,-275.0,-1688.0,0.7306387081602876,0.4561763316730709,0.30714199829295413,0.40464061269696755
-9609.878625392914,-1872.0,-5684.0,-15292.0,-359.0,-1308.0,-3141.0,0.8535568238391176,0.37891887191181306,0.3222276722819037,0.15501794800132845
-9609.894223690033,-1100.0,-5576.0,-15132.0,-355.0,-1477.0,-3209.0,0.9075506844363289,0.2696978341643462,0.29969437862344916,-0.11746536871655545
-9609.909806728363,-344.0,-5548.0,-15436.0,-254.0,-895.0,-2302.0,0.8925063069959326,0.17618459184103086,0.27939378553879163,-0.30713286078274826
-9609.925538778305,24.0,-5608.0,-15340.0,-244.0,-14.0,-291.0,0.8882022580838438,0.1496246636816046,0.28946721098204586,-0.32391039273108163
-9609.941224098206,-164.0,-5600.0,-15320.0,-89.0,919.0,1530.0,0.8984244440417118,0.204851040345908,0.3394426614470717,-0.18880743949132142
-9609.95686340332,-720.0,-5724.0,-15212.0,-29.0,1263.0,2137.0,0.8762771118814036,0.28020045654550446,0.3919460888887385,0.0020954114865236947
-9609.972450494766,-1088.0,-5660.0,-15220.0,-89.0,1097.0,1614.0,0.8285290967995393,0.32378193758042995,0.4304173952993707,0.15311975207956446
-9609.989405155182,-1572.0,-5728.0,-15148.0,-191.0,440.0,174.0,0.8141174498296343,0.31038741595985425,0.45457147595623104,0.18503297852985723
-9610.005048751831,-1860.0,-5764.0,-15200.0,-275.0,-50.0,-1376.0,0.8393415042838995,0.23535995845037722,0.48051552583288676,0.09600186757673827
-9610.020723819733,-1404.0,-5656.0,-15232.0,-294.0,-690.0,-2095.0,0.8753620455070927,0.12934924997699737,0.46218113276710543,-0.05829803881900256
-9610.036326408386,-876.0,-5572.0,-15384.0,-240.0,-746.0,-2012.0,0.8822493633851044,0.02557799102780419,0.42198612979310646,-0.20714616444384218
-9610.052025079727,-756.0,-5496.0,-15272.0,-204.0,-318.0,-1298.0,0.86481259146909,-0.04346974683947351,0.40158361445186375,-0.2982283744884209
-9610.067608356476,-332.0,-5588.0,-15180.0,-261.0,161.0,-370.0,0.8476650586052878,-0.07201389823276985,0.41901712640652405,-0.31733672125840223
-9610.083273887634,-280.0,-5588.0,-15292.0,-201.0,766.0,596.0,0.8316414874166291,-0.043854793814664686,0.48343669701348213,-0.2697001176262711
-9610.09888100624,-532.0,-5680.0,-15392.0,-205.0,720.0,1056.0,0.8199531570626554,0.0026273124718822734,0.5413664764199251,-0.18598993429977353
-9610.114490270615,-932.0,-5676.0,-15200.0,-72.0,792.0,1507.0,0.7980562209773508,0.08054415256550589,0.5925995839242659,-0.07378780915328052
-9610.130083084106,-1344.0,-5656.0,-15012.0,-157.0,576.0,1099.0,0.7716732335473463,0.12932234130353185,0.6225574938381451,0.014775639827890326
-9610.145688772202,-1292.0,-5524.0,-15056.0,-243.0,-393.0,494.0,0.7935675221503039,0.1400212113727836,0.5894381636312939,0.05663302401332188
-9610.161343812943,-1412.0,-5068.0,-15332.0,-328.0,647.0,436.0,0.7598784217502088,0.1361350052079662,0.625845020028626,0.11122075085525712
-9610.176952838898,-2020.0,-6836.0,-14028.0,-1750.0,-1268.0,-3191.0,0.8347775895112052,-0.1345519261014903,0.5335569004342614,-0.018952288284653857
-9610.192556142807,-1528.0,-6136.0,-14912.0,505.0,-2013.0,-3248.0,0.8804427608456675,-0.2393064616669582,0.33001499405690154,-0.2421633043558058
-9610.208163022995,-464.0,-5288.0,-15808.0,-16.0,-1224.0,-1817.0,0.8612402047921108,-0.31327183388050406,0.19504282143620313,-0.3494057319979085
-9610.223778486252,-400.0,-5412.0,-15280.0,-586.0,-678.0,-2013.0,0.7809585012462064,-0.40507546494135627,0.10514988342806719,-0.4636390719610318
-9610.239358186722,-236.0,-5928.0,-15856.0,-395.0,-873.0,-2921.0,0.634295610383682,-0.47749894301379386,-0.040085441060537345,-0.6066770108415876
-9610.254930973053,152.0,-5620.0,-15728.0,-210.0,-290.0,-637.0,0.5895271742134323,-0.5015060035916253,-0.0713655380046013,-0.6291712002394864
-9610.27052640915,64.0,-5428.0,-15564.0,-23.0,876.0,2381.0,0.7074934451976538,-0.45859604156294503,0.07732781778770165,-0.5321307210275911
-9610.28610086441,-640.0,-5168.0,-15176.0,203.0,1616.0,3369.0,0.8185217936611326,-0.3313454446889325,0.2876426316605801,-0.37080181504009907
-9610.30167388916,-1304.0,-4992.0,-15372.0,-44.0,1679.0,2585.0,0.8291339712196499,-0.20809928852891899,0.4672960214125764,-0.225534858182205
-9610.317306756973,-2188.0,-5172.0,-15336.0,-98.0,1135.0,1184.0,0.7960554817604535,-0.1432577728114073,0.567260206312953,-0.15488298428824784
-9610.332905292511,-2348.0,-5460.0,-15252.0,-35.0,72.0,-1375.0,0.7677484435962485,-0.21137750948864625,0.5517999560485368,-0.24778757907277835
-9610.348568201065,-1832.0,-5480.0,-15176.0,-348.0,-389.0,-2366.0,0.7129472038182082,-0.34943429489076416,0.47924435221007616,-0.37406792029889024
-9610.364163160324,-1084.0,-5696.0,-15304.0,-413.0,-482.0,-2083.0,0.640872944309377,-0.46972800934943437,0.39239310711600356,-0.4633196693134197
-9610.379794836044,-720.0,-5764.0,-15792.0,-264.0,-169.0,-1173.0,0.5849832725134074,-0.5287137830378951,0.3437750259165721,-0.5099755269239127
-9610.395437002182,-404.0,-5456.0,-15580.0,-15.0,170.0,-266.0,0.566997993403298,-0.5298896428231352,0.34086789327697486,-0.5306027904547063
-9610.411033630371,-484.0,-5168.0,-15424.0,-27.0,599.0,349.0,0.5629272802958903,-0.4924063463681118,0.38733400105401283,-0.5390929778642725
-9610.426634311676,-652.0,-5136.0,-15740.0,-125.0,635.0,-525.0,0.5099164460102473,-0.485322190325856,0.4009560400395768,-0.5862438431415493
-9610.44222354889,-396.0,-5460.0,-15424.0,-178.0,932.0,-365.0,0.4492156576009554,-0.45671992915709964,0.43453890689558133,-0.6330783029538039
-9610.457805871964,-364.0,-5852.0,-15428.0,-94.0,1517.0,780.0,0.42622840102995346,-0.34339647763340947,0.5246689645601503,-0.6520204651173124
-9610.473378896713,-464.0,-5836.0,-15764.0,425.0,2423.0,2353.0,0.44268922184969456,-0.07874029889421026,0.6339504233962479,-0.6292321343223664
-9610.488957881927,-860.0,-5384.0,-15372.0,567.0,3338.0,3224.0,0.40630024241995083,0.28214691193155417,0.6982684877768409,-0.5174305287425748
-9610.504524469376,-1636.0,-5476.0,-15128.0,733.0,4297.0,3316.0,0.24896848293063342,0.6353516653012393,0.6640997418776405,-0.30547420307484546
-9610.520100593567,-2392.0,-5524.0,-15028.0,880.0,3968.0,455.0,-0.016890929685195684,0.740806289291038,0.6608584077876601,-0.11910878681932564
-9610.535734176636,-2328.0,-5224.0,-15192.0,620.0,3504.0,-2252.0,-0.2653655680813695,0.6066963106728096,0.7460370917192717,0.07020939874336396
-9610.55133843422,-1752.0,-5312.0,-15344.0,-55.0,3828.0,-2989.0,-0.4541155603832159,0.35910896482759047,0.7507582795036707,0.31809089102799304
-9610.566936016083,-1348.0,-5972.0,-15508.0,-176.0,4522.0,-4780.0,-0.5307650497784937,-0.06288260494971631,0.6214326092494696,0.5728488038651798
-9610.582531690598,-788.0,-6520.0,-15736.0,97.0,5015.0,-6270.0,-0.40020552706623436,-0.5390190254989423,0.2946615408371453,0.6800504412227724
-9610.598147630692,84.0,-6144.0,-16020.0,239.0,6612.0,-3618.0,-0.2874406764397661,-0.8628821601060679,-0.07704397981126879,0.4085051535456763
-9610.613785028458,432.0,-6044.0,-15700.0,-317.0,9026.0,-1307.0,-0.15940330045032575,-0.9135993408369086,-0.32322820174494094,-0.18828266469497676
-9610.629377365112,252.0,-6288.0,-16804.0,-913.0,10655.0,-2531.0,0.019511366642529494,-0.47237376840830725,-0.4751091674551754,-0.7421277575266443
-9610.64499425888,-392.0,-6452.0,-17620.0,-2126.0,11352.0,-3047.0,0.14212039719764477,0.2668410648293798,-0.3072748587653714,-0.9023191231442607
-9610.660572767258,-532.0,-7296.0,-19760.0,-2998.0,11961.0,-5873.0,0.04507367715210863,0.8542949305429229,0.13742021400867113,-0.4992636778882087
-9610.676147222519,-232.0,-7696.0,-21884.0,-4025.0,12120.0,-4974.0,-0.010933332714419456,0.8382418661983145,0.46905900300394254,0.2778753096067913
-9610.691773414612,568.0,-8224.0,-22664.0,-3784.0,14394.0,-6605.0,-0.09398845455663525,0.1280521832199168,0.48736119021113683,0.8586313988311004
-9610.707339286804,516.0,-9424.0,-21880.0,-4669.0,17663.0,-498.0,-0.4014983626188416,-0.6259631741776505,-0.0008787623189570124,0.6685569513247291
-9610.722911834717,-580.0,-11260.0,-21000.0,-1886.0,18442.0,5518.0,-0.4204033407667621,-0.8340498864169251,-0.23229255883745167,-0.2714074154270829
-9610.738488435745,-3060.0,-10036.0,-18760.0,585.0,17410.0,7390.0,0.07791755957582747,-0.3071767402446075,-0.17975542944152048,-0.931267571511399
-9610.754140138626,-5412.0,-7160.0,-16428.0,1394.0,15510.0,4922.0,0.4357941381194598,0.5086284651395272,-0.03191956757575642,-0.7418636632402902
-9610.76973414421,-7460.0,-5444.0,-13644.0,543.0,13197.0,2095.0,0.3799044966726787,0.896552547311269,0.2224732324778959,-0.04870076127114629
-9610.785354852676,-9028.0,-5496.0,-9356.0,-1966.0,12050.0,9219.0,0.20308788552501358,0.6364256321985318,-0.05451023624940547,0.7421228736386665
-9610.800945043564,-11824.0,-8356.0,-6920.0,-665.0,9825.0,21886.0,-0.48724118130062094,-0.04994632922339732,-0.49080190814135494,0.7205656683513919
-9610.816541671753,-15636.0,-8916.0,-6904.0,3416.0,4537.0,27865.0,-0.7587687714533241,-0.6256563809820817,-0.12996657573144355,-0.12622493254607225
-9610.83212351799,-18460.0,-6660.0,-7536.0,5704.0,-4465.0,22916.0,-0.10561321057868053,-0.5648678354826769,0.5827519517463217,-0.5746045082700201
-9610.847770690918,-18336.0,-3348.0,-8916.0,2942.0,-13804.0,14094.0,0.721459260337233,-0.28257865184048037,0.6262448064705469,-0.08639029787155836
-9610.863354206085,-15800.0,-3852.0,-11092.0,-2743.0,-21164.0,6028.0,0.8519827769610101,-0.13104756861830816,-0.2463386422651262,0.4430227486800309
-9610.87893128395,-11904.0,-7396.0,-14672.0,-4896.0,-27094.0,2746.0,0.04105293217086625,0.18866940983750255,-0.9254624879188957,0.3259412431815136
-9610.894499540329,-7280.0,-12476.0,-18352.0,-2641.0,-28721.0,-3800.0,-0.7795663567542646,0.4774836801323098,-0.38145355216587185,-0.13703582803131167
-9610.910080432892,-3176.0,-14368.0,-20184.0,2921.0,-31043.0,6010.0,-0.6323210939262073,-0.09920574876216816,0.4905063571747838,-0.5913812367328078
-9610.925726413727,-44.0,-11960.0,-20784.0,6285.0,-30755.0,11859.0,0.4364720875174691,-0.49296987341435206,0.6353705158882955,-0.4034564762943106
-9610.941385507584,844.0,-8652.0,-20224.0,5683.0,-28529.0,9055.0,0.9088145489042351,-0.2742805968804254,-0.0921083039768628,0.3005700088388977
-9610.957016468048,1608.0,-6312.0,-20444.0,3843.0,-27013.0,8146.0,0.21278953741180487,0.2513521168368647,-0.7238279687760805,0.6063132834988779
-9610.972599983215,1580.0,-6100.0,-20900.0,1351.0,-24422.0,6438.0,-0.7015959092402635,0.47951092660545946,-0.5147069631195357,0.11361863192085471
-9610.988239526749,1092.0,-7572.0,-21180.0,93.0,-22795.0,4569.0,-0.7845686958924761,0.21878444451631682,0.30530321814269595,-0.49333079495910165
-9611.003869533539,848.0,-9512.0,-21100.0,881.0,-22879.0,668.0,-0.07293795797294571,-0.36170710569166975,0.8148324560607053,-0.44709740832280687
-9611.019467115402,1336.0,-9796.0,-20104.0,2956.0,-23973.0,-2598.0,0.6926724621856521,-0.6401383133951767,0.32859230185297505,0.04954693750584457
-9611.035087108612,3636.0,-7488.0,-18984.0,3891.0,-23386.0,-3086.0,0.688923049726703,-0.16968931166475065,-0.5362337091847653,0.4572132742998072
-9611.050690174103,6344.0,-5308.0,-18520.0,3224.0,-19808.0,-1619.0,-0.0621849294308651,0.44026597043214116,-0.8026000331080702,0.39765826621113753
-9611.066277742386,7772.0,-3904.0,-17500.0,1576.0,-12848.0,1092.0,-0.7014336384228405,0.5300402430640996,-0.4764641990028024,0.005482580602625612
-9611.081873178482,7360.0,-5112.0,-16324.0,325.0,-5788.0,6348.0,-0.767981236027933,0.19934010777696867,-0.3325521300344135,-0.5097817408951102
-9611.097450971603,4352.0,-7248.0,-14896.0,392.0,-1184.0,8489.0,-0.3453779070323736,-0.1006458825067228,-0.3349337120629241,-0.8708638907384612
-9611.113018751144,432.0,-8412.0,-14332.0,2198.0,-849.0,6451.0,0.1196679690376356,-0.36029585549534077,-0.3601236779665543,-0.8521604369290618
-9611.128599643707,-2276.0,-6864.0,-13016.0,2375.0,-1949.0,1676.0,0.24653150259037512,-0.5100548951323527,-0.4824598945140595,-0.6680558901525674
-9611.144243955612,-3916.0,-5552.0,-12672.0,867.0,-3768.0,-6478.0,-0.2098601283412609,-0.36622454924866266,-0.7538049395649261,-0.5036034344081874
-9611.159810304642,-3976.0,-4812.0,-12348.0,-676.0,-5650.0,-13147.0,-0.7376350831148393,0.16410475145311856,-0.6501758053918396,-0.0789654151622536
-9611.175417900085,-2348.0,-5064.0,-12428.0,-1469.0,-6774.0,-17201.0,-0.6409302205239839,0.6245165176966319,0.022128383578293758,0.4457554331506932
-9611.19102191925,-520.0,-5020.0,-12724.0,-1583.0,-5953.0,-15606.0,0.03609043114065192,0.5159224286320874,0.6451872898511591,0.562365441175902
-9611.206652641296,692.0,-4592.0,-12716.0,-1652.0,-3564.0,-11581.0,0.6013434226402098,0.023021768216950497,0.734649894358028,0.3132820118603386
-9611.222249984741,920.0,-4352.0,-13552.0,-1478.0,-794.0,-7833.0,0.7123713941333562,-0.43854770697275314,0.5478936745525024,-0.003927711139494216
-9611.237823486328,516.0,-3764.0,-13572.0,-1487.0,762.0,-5376.0,0.5537175678187913,-0.7071653580456767,0.35018113802002143,-0.2658706114710213
-9611.25342464447,-156.0,-3272.0,-14100.0,-2024.0,1250.0,-6426.0,0.20710502381175605,-0.8346373020457963,0.05243126870570621,-0.5076800618574225
-9611.269016504288,-404.0,-2636.0,-14196.0,-3563.0,1156.0,-9349.0,-0.3544918495390991,-0.66909407006959,-0.33779919909842093,-0.5590530879053658
-9611.284609794617,128.0,-2564.0,-14468.0,-4968.0,1499.0,-10835.0,-0.7792078340111661,-0.08493468761654113,-0.5346343493089529,-0.31589137815727114
-9611.300178527832,712.0,-3420.0,-14460.0,-5776.0,2315.0,-10883.0,-0.6840165862324372,0.5933312685363764,-0.4140757762395342,0.09284700893170668
-9611.315795898438,932.0,-3984.0,-14856.0,-6371.0,4508.0,-9440.0,-0.07825333991627108,0.8732900899612024,-0.16812043022573217,0.45052897188551394
-9611.331376314163,528.0,-4376.0,-14540.0,-5783.0,6850.0,-7223.0,0.5269547257973605,0.5288560497818137,0.07627757164287219,0.6609173379729654
-9611.346977949142,1348.0,-5368.0,-14888.0,-12194.0,32767.0,16205.0,-0.018019721333638963,-0.5169879482273121,0.037579498811841854,0.8549775039729542
-9611.362580060959,-25740.0,-26840.0,-28028.0,-30158.0,32767.0,32767.0,-0.7977155997424057,-0.5696893130408309,-0.1594948460343204,-0.11689868529272934
-9611.378156900406,-32768.0,-32768.0,-22268.0,14208.0,-1433.0,118.0,-0.06877523208146788,-0.9857173289485807,-0.12451583929580029,0.09015054424172017
-9611.393736124039,-30128.0,-11188.0,-21588.0,24694.0,-32768.0,-32768.0,0.41729094582072707,-0.11082979142323834,-0.5441561386491608,0.7193602161918324
-9611.409362792969,-5736.0,13232.0,-11664.0,17864.0,-32768.0,-32768.0,0.24526510491398,0.9336607105978948,-0.20972234725201358,0.15536808829510143
-9611.424954414368,9748.0,20048.0,-6996.0,-16637.0,-30455.0,-32768.0,0.3473451167412737,0.3711751206185991,0.3695135482535998,-0.7778432601538654
-9611.440539121628,15436.0,8124.0,-27268.0,-26039.0,-13061.0,-32560.0,-0.15180414347023943,-0.597378099990719,0.7093292402581141,-0.34197505258657723
-9611.456155061722,19260.0,-3548.0,-23636.0,-19878.0,9698.0,-3647.0,-0.8635579085221105,-0.1231255254427828,0.4478265275442973,0.19636508050306123
-9611.471784591675,17288.0,-16432.0,-16040.0,-9012.0,29804.0,32767.0,-0.6601973553384063,0.3258523270687471,-0.3932597351334117,-0.5507326880355431
-9611.487354278564,6948.0,-18080.0,-20564.0,6341.0,25582.0,32767.0,0.4239120617912414,0.017278688701412772,-0.8160009689943006,-0.39260976730720915
-9611.50294470787,-2172.0,-6064.0,-18044.0,15628.0,30134.0,32767.0,0.8658755997817078,-0.1665126404345191,-0.0675447647312986,0.4668733136896838
-9611.518521547318,-8532.0,4080.0,-14344.0,9405.0,24964.0,32767.0,-0.048524282616404894,-0.17438267035275828,0.701011141696342,0.6897966783732694
-9611.534088134766,-13304.0,4680.0,-12560.0,-5633.0,21024.0,13924.0,-0.9156267942923153,-0.22886545158801067,0.19660112989558923,0.26569940603466147
-9611.549704790115,-18116.0,-5024.0,-12308.0,-15458.0,9893.0,-174.0,-0.736102670818233,0.4098226769759945,-0.5063332247367427,0.18391546149844254
-9611.565363168716,-18956.0,-16768.0,-15004.0,-13136.0,-4109.0,-32768.0,0.023957368644996122,0.849271615639272,0.22045131644827426,0.4791294025973476
-9611.580936670303,-12860.0,-15812.0,-15172.0,-516.0,-18186.0,-32626.0,0.5208917722681353,0.2876461295006014,0.756293572877152,-0.2719402459942189
-9611.596515655518,-3600.0,-6436.0,-19308.0,5263.0,-23572.0,-31365.0,0.33365747522764705,-0.5846400707441731,0.09661044818319624,-0.7331678513183746
-9611.612088441849,4328.0,2256.0,-16200.0,2086.0,-19924.0,-26730.0,-0.35764515979655465,-0.6568129700926427,-0.6426848842832403,-0.1662612447505908
-9611.627729415894,9064.0,5208.0,-14016.0,-5476.0,-9685.0,-15234.0,-0.7453525639295882,0.11834662353433757,-0.5888660190863593,0.2892757226367164
-9611.643313884735,10168.0,1000.0,-14888.0,-11955.0,4360.0,-5694.0,-0.16114551344750203,0.6848701309766485,-0.7083081150632505,0.05731179047381492
-9611.658898591995,7548.0,-6220.0,-17812.0,-13056.0,15652.0,3985.0,0.7569454022101412,0.26271394331784864,-0.5950419488711681,0.06277038428204677
-9611.674494504929,2384.0,-14076.0,-17528.0,-4098.0,19399.0,30715.0,0.5053980893792676,-0.5112418088432659,-0.012089685700209593,0.6950240453697423
-9611.690161705017,-5724.0,-13328.0,-17420.0,5705.0,18784.0,30678.0,-0.32441089241041854,-0.4296487698867472,0.7595929547121161,0.36493568004786525
-9611.705784797668,-12784.0,-4924.0,-14200.0,9702.0,12363.0,16951.0,-0.5861968372685953,0.011355701517076143,0.6014498620795465,-0.5426807343400405
-9611.721374750137,-14732.0,-896.0,-13804.0,4468.0,1470.0,-8418.0,-0.8159584217138096,-0.450992459737235,0.2471945467906104,-0.26403126960921136
-9611.736946344376,-13164.0,2252.0,-12012.0,-4598.0,-10857.0,-24230.0,-0.5168699227258027,-0.3508403263779888,0.06748648918514219,0.7779473774914809
-9611.752536535263,-6644.0,-532.0,-15284.0,-11098.0,-14428.0,-32768.0,0.42478000694121354,0.2736260422400731,-0.30359694510710317,0.807786871416397
-9611.768108129501,-4.0,-5212.0,-15604.0,-12570.0,-13343.0,-32768.0,0.7826421307310586,0.4718545365605045,-0.2633318571536976,-0.3089998778964235
-9611.783719301224,5000.0,-10784.0,-16500.0,-4055.0,-8240.0,-19466.0,0.11049393209575145,0.1974145545464182,0.0397926807204967,-0.9732600511601898
-9611.79933333397,8924.0,-11296.0,-17568.0,996.0,-1204.0,4560.0,0.4468775504532871,0.11109368129382635,-0.12415172043621993,-0.8789453903344521
-9611.81490445137,6784.0,-4204.0,-16244.0,2563.0,7294.0,15711.0,0.9342956469992675,0.3285946487337942,-0.10338425713848137,-0.09180902024125466
-9611.830495357513,2448.0,-1240.0,-16028.0,1227.0,13694.0,16677.0,0.5415676188541301,0.18181630806147844,0.24588058904136112,0.783064544124068
-9611.84610748291,-2984.0,-2980.0,-15316.0,-1923.0,12917.0,13337.0,-0.3225693630334565,-0.26449212668113387,0.26871555407664754,0.8682078506631701
-9611.861722230911,-7268.0,-5464.0,-15052.0,-2556.0,7505.0,5615.0,-0.7496818130983429,-0.4803708719923259,-0.005041945955466106,0.45518741550255515
-9611.877371549606,-8564.0,-7188.0,-14808.0,-938.0,91.0,-5759.0,-0.4990113412697481,-0.3744887458764598,-0.25830143551295026,0.7375813371472955
-9611.892975568771,-6420.0,-6056.0,-15352.0,-711.0,-4712.0,-13662.0,0.15582151120415336,0.1660900576048434,-0.3387285995709711,0.912905627786116
-9611.908574819565,-2876.0,-5672.0,-15264.0,-1600.0,-5886.0,-16388.0,0.7183184337005158,0.601658265275265,-0.16937768271520667,0.3055113094961026
-9611.924268245697,528.0,-6108.0,-15332.0,-1296.0,-4829.0,-13204.0,0.6722806131564778,0.5321990672907179,0.11754961102189412,-0.5009840505419724
-9611.939943313599,2644.0,-6156.0,-15236.0,-806.0,-2359.0,-8541.0,0.2845828432980967,0.2324806321549298,0.32478807630262185,-0.8714803878830881
-9611.955580949783,3492.0,-4940.0,-15012.0,-552.0,791.0,-1461.0,0.1602888430754866,0.23482192347395803,0.41156243194608483,-0.8658998300335536
-9611.971169233322,2736.0,-4848.0,-15624.0,-583.0,3914.0,2671.0,0.2154525629895005,0.570811826317984,0.42083571354827454,-0.6713057084809406
-9611.98670387268,608.0,-5532.0,-15496.0,-1021.0,4938.0,4472.0,0.2989109008350244,0.8664357937830373,0.3024607500835571,-0.2616462942073601
-9612.002306222916,-1448.0,-6340.0,-14708.0,-610.0,3089.0,2438.0,0.30120745090048695,0.9308707248509189,0.20091859832455017,0.04884139622137771
-9612.017874956131,-2296.0,-6336.0,-14884.0,-762.0,99.0,-993.0,0.36317539910740454,0.8877885115091433,0.2793175376913631,0.04378243316207368
-9612.033457279205,-2000.0,-5968.0,-14616.0,-901.0,-1865.0,-4907.0,0.45062960617283876,0.6772352482169052,0.5413945703776419,-0.21254951371082387
-9612.049080848694,-808.0,-5784.0,-14920.0,-863.0,-3742.0,-5853.0,0.4860730349497373,0.25380449237920255,0.6454181629719953,-0.531743997849286
-9612.064731359482,340.0,-5532.0,-15472.0,-262.0,-3723.0,-3973.0,0.46689703151558176,-0.13890970717291318,0.5309082835123365,-0.6934317916803769
-9612.08032155037,1568.0,-5028.0,-15328.0,-365.0,-2776.0,-1388.0,0.4891066965048228,-0.3725714639430382,0.4084021467504292,-0.6746649762801694
-9612.095939397812,2196.0,-5044.0,-15192.0,-814.0,-2032.0,1076.0,0.5851617775144711,-0.4780687832804352,0.39587943620023014,-0.5218384851490517
-9612.111512422562,2264.0,-4876.0,-15140.0,-21.0,142.0,7287.0,0.7687493449344943,-0.1866230989351845,0.5975983498102924,-0.13066168493720617
-9612.127088308334,1240.0,-4012.0,-15812.0,412.0,3936.0,12096.0,0.47368225760562704,0.34564638226158784,0.7053650669651544,0.39826350518765335
-9612.142660856247,-1276.0,-4984.0,-15924.0,-650.0,6613.0,14228.0,-0.24079020474482846,0.5687227255963876,0.3107185539270371,0.7225154108630836
-9612.158257961273,-4456.0,-7080.0,-15328.0,396.0,4507.0,10621.0,-0.7413766760545363,0.3976114720053361,-0.20161201637529994,0.5016157258152528
-9612.173837900162,-5692.0,-6596.0,-14764.0,1734.0,1155.0,5068.0,-0.9048551214188335,0.13163148598784977,-0.33965981657741706,0.2203215153845264
-9612.189435005188,-5684.0,-4516.0,-15296.0,682.0,-1883.0,-3265.0,-0.8589514751108119,0.20000204480073802,-0.1333972679705911,0.4521136078227086
-9612.205022096634,-3980.0,-4392.0,-15624.0,-785.0,-3926.0,-10545.0,-0.3384487326451499,0.3824976691360669,0.22357273392627766,0.8301585517966418
-9612.220619678497,-1524.0,-5512.0,-15240.0,-1174.0,-4851.0,-10441.0,0.38825580333640436,0.397662646618728,0.4435085522812568,0.7031514877415647
-9612.236247062683,848.0,-5640.0,-15468.0,76.0,-3552.0,-5475.0,0.7463911760390065,0.353196220588159,0.45008121897236325,0.3399699081120281
-9612.251893997192,2164.0,-4960.0,-15828.0,-227.0,-652.0,-1706.0,0.8189773890395226,0.28720900954421213,0.44792490251331923,0.21482621531617777
-9612.26747751236,2052.0,-4912.0,-15540.0,-435.0,2152.0,3292.0,0.6464039693514795,0.32568649496132995,0.4832868323428199,0.4924673116974348
-9612.28309249878,500.0,-5648.0,-15640.0,-302.0,3514.0,5800.0,0.2214024774249023,0.3461752246484965,0.4335265432913807,0.8019965044135201
-9612.29865527153,-1500.0,-5872.0,-15516.0,174.0,3240.0,6124.0,-0.28679236616788,0.3034414423079687,0.27677264437547483,0.8654884939288882
-9612.314222574234,-3016.0,-5644.0,-15220.0,500.0,1688.0,3162.0,-0.552767157329945,0.2289148670308666,0.17986692865305814,0.7808292652088089
-9612.329786777496,-3588.0,-5488.0,-15392.0,101.0,-634.0,-639.0,-0.49974007874806403,0.25671371347562405,0.2293514611262138,0.7948306928432651
-9612.345394611359,-2824.0,-5256.0,-15488.0,-256.0,-2101.0,-3228.0,-0.2160918781918285,0.33101635676016183,0.35593223880070884,0.8467849273098055
-9612.361003160477,-1772.0,-5156.0,-15072.0,-86.0,-2574.0,-4233.0,0.16445718613405505,0.3594287932697085,0.4777707219788953,0.7845380256668983
-9612.37657380104,-188.0,-5260.0,-15464.0,-132.0,-1724.0,-2917.0,0.42205604165853017,0.33956169905724365,0.5136401290637811,0.6653873819424541
-9612.39215350151,564.0,-5420.0,-14888.0,-86.0,-492.0,132.0,0.4384436032845981,0.37064809171668467,0.4863076165698554,0.6587048663185545
-9612.407782793045,372.0,-5576.0,-15220.0,98.0,916.0,3041.0,0.21340006338055723,0.4345601080211153,0.41320246278178824,0.7712857124418393
-9612.423362731934,-608.0,-5476.0,-15200.0,51.0,1516.0,3510.0,-0.0754715957541562,0.4365770044131923,0.29584363718310935,0.8462748370300238
-9612.438950777054,-1568.0,-5760.0,-15152.0,-326.0,1260.0,1704.0,-0.21770713909678704,0.38326953572233824,0.19521839985505485,0.8761266123863077
-9612.454588890076,-2164.0,-5968.0,-15312.0,-309.0,306.0,897.0,-0.28014829982156164,0.37987613632363154,0.1352529347024883,0.8711588229555404
-9612.470183372498,-2312.0,-5696.0,-15360.0,217.0,-936.0,-85.0,-0.26890311077330614,0.4434431295053045,0.176769991565745,0.8365414980697773
-9612.485795259476,-1820.0,-4748.0,-15288.0,-348.0,-1782.0,-2503.0,-0.04365768040777691,0.5245989848914986,0.28002514689564906,0.8027925193337889
-9612.501389503479,-1128.0,-5336.0,-15308.0,-560.0,-1220.0,-2947.0,0.20999786145484048,0.5200680359284444,0.366069767869378,0.742578656602776
-9612.516958713531,-624.0,-6096.0,-15400.0,-176.0,-1237.0,-1308.0,0.33799607264655435,0.5486407466048672,0.38665638473221836,0.6597339055908599
-9612.532504320145,-200.0,-5992.0,-15736.0,505.0,-439.0,1518.0,0.2386063981374875,0.6336246351589101,0.32677777831683275,0.6593960055125506
-9612.548095464706,-200.0,-5628.0,-14628.0,464.0,633.0,3457.0,-0.003991649804513526,0.6741236155909978,0.16769378743401162,0.7193192693723667
-9612.563726186752,-980.0,-5596.0,-15564.0,534.0,350.0,2121.0,-0.17058940143330897,0.6708113861534062,0.07490502697976212,0.7178443962717355
-9612.5793197155,-1036.0,-5684.0,-15376.0,-371.0,313.0,603.0,-0.18829114621004853,0.6594009676069704,0.011617352775841618,0.7277374837758316
-9612.59488940239,-1056.0,-6328.0,-15544.0,294.0,-55.0,1317.0,-0.28683432947078635,0.6550859614150328,-0.04437643234152823,0.6975809507481008
-9612.610480308533,-892.0,-5792.0,-16048.0,1769.0,-427.0,2709.0,-0.5333000784134977,0.6025720353557159,-0.07786457702589995,0.5885873564867028
-9612.626068592072,-600.0,-4616.0,-15656.0,1270.0,477.0,4237.0,-0.759163663359771,0.4571873061117001,-0.24024289168102847,0.3961485231087405
-9612.641654729843,-792.0,-4636.0,-15368.0,1073.0,1231.0,4899.0,-0.8619218426917536,0.2198094407522428,-0.43788562677627857,0.13050181879875836
-9612.657247066498,-1560.0,-5268.0,-15448.0,996.0,1029.0,4614.0,-0.8238897709473665,-0.03957189901125574,-0.5461210006985021,-0.14625854755536735
-9612.67287349701,-2288.0,-5856.0,-15588.0,1398.0,-258.0,2445.0,-0.7767146201370317,-0.25225004091852393,-0.521595374115426,-0.2470274912299803
-9612.688503026962,-1964.0,-5476.0,-15004.0,1448.0,-1668.0,1587.0,-0.7651688642995896,-0.44623753871373784,-0.3941318310846584,-0.24504850106669807
-9612.704088687897,-1384.0,-5248.0,-14820.0,1237.0,-1954.0,1241.0,-0.7383883310975884,-0.5979780832133561,-0.23586499599900454,-0.20389357066319772
-9612.71969127655,-980.0,-5472.0,-14964.0,1433.0,-1943.0,2335.0,-0.6351239611073727,-0.7419383948378662,-0.013811677307104992,-0.21436933050848453
-9612.735316038132,-724.0,-5736.0,-15584.0,1606.0,-1540.0,2128.0,-0.47603918444650983,-0.8329504400367184,0.17316120630203038,-0.2227003725775167
-9612.75094461441,-852.0,-6020.0,-15236.0,2114.0,-1059.0,5597.0,-0.1743075720445883,-0.7570156470142635,0.5150436533582002,-0.3623178378701974
-9612.766524076462,-1392.0,-5572.0,-14988.0,3006.0,-499.0,6480.0,0.21356093299701023,-0.44715246592074476,0.7257005935307551,-0.4772892714775324
-9612.782144546509,-2052.0,-5044.0,-14716.0,2661.0,-539.0,6116.0,0.523497393713216,-0.02830168194357299,0.7285428076086837,-0.4408796559791473
-9612.797715425491,-2744.0,-4868.0,-15084.0,2144.0,-889.0,5290.0,0.7042567705133113,0.33193125293719433,0.5525399065205788,-0.29756292815459323
-9612.813349485397,-3120.0,-5460.0,-14664.0,1904.0,-941.0,4465.0,0.7439577860912662,0.5875215054843178,0.290331090661786,-0.1305877134448735
-9612.828926324844,-3620.0,-6044.0,-14744.0,1774.0,-1287.0,4953.0,0.670719887253837,0.735668404859895,-0.06078209748171452,0.07233510599163735
-9612.844527482986,-3656.0,-6272.0,-15140.0,2893.0,-2409.0,2374.0,0.4259492058228233,0.8461766436410026,-0.31314258864599387,0.06703790712305571
-9612.86012506485,-3456.0,-5872.0,-14700.0,2537.0,-3357.0,536.0,0.1344990944952255,0.886705567376711,-0.43390606675552645,-0.0859578710523832
-9612.875741004944,-2788.0,-5892.0,-14684.0,2104.0,-2998.0,578.0,-0.13111582676967462,0.8248966554740934,-0.5038595758648738,-0.2201810063730052
-9612.891323328018,-2616.0,-6632.0,-15356.0,2624.0,-2670.0,1718.0,-0.3806787237560555,0.6287195846331827,-0.6092236572786746,-0.29772794391883234
-9612.906905174255,-2396.0,-5840.0,-14912.0,2775.0,-2383.0,2520.0,-0.553908742121333,0.3177868063924766,-0.6904639438901569,-0.3397884537062485
-9612.922584056854,-2676.0,-5580.0,-14028.0,2981.0,-2078.0,3744.0,-0.5921767531101987,-0.10317034535764145,-0.7120990970518667,-0.3627636267496561
-9612.93820977211,-2688.0,-6344.0,-14440.0,3114.0,-1791.0,4378.0,-0.48116330954745734,-0.5314703231057663,-0.608657600656721,-0.3399368917402078
-9612.953855276108,-3096.0,-6384.0,-14532.0,3573.0,-1847.0,5075.0,-0.228798595526787,-0.8757603882205782,-0.3498311039825142,-0.24148114583769728
-9612.969507932663,-3648.0,-6312.0,-14804.0,3731.0,-1890.0,4702.0,0.08585373722070214,-0.9936522560042983,-0.027487727398071565,-0.0672960235474334
-9612.985054731369,-3800.0,-6608.0,-15012.0,3277.0,-2514.0,4051.0,0.3462940226439487,-0.8868472584472842,0.255077354019109,0.16887253634685057
-9613.000701665878,-3932.0,-7060.0,-13868.0,3329.0,-3312.0,2961.0,0.5704652747718033,-0.6045520705287335,0.3898855048397323,0.396327462352559
-9613.016286849976,-3816.0,-7276.0,-14692.0,3707.0,-4592.0,1570.0,0.7659627072324307,-0.1836061282636383,0.3286694798361744,0.5211202297142384
-9613.031922340393,-3092.0,-6960.0,-14216.0,3600.0,-4684.0,3005.0,0.7110290125071732,0.3081629755302174,0.197038718421761,0.6005406458585019
-9613.04747748375,-2744.0,-7288.0,-14472.0,3895.0,-4331.0,5430.0,0.3252116311521404,0.7147201288687224,-0.011076810676941272,0.6191040596042546
-9613.063093662262,-2876.0,-7352.0,-14124.0,4905.0,-3385.0,8024.0,-0.31478078754545585,0.7755418552908465,-0.25823895405017505,0.4824526184977814
-9613.078689575195,-3372.0,-7276.0,-14428.0,5345.0,-3185.0,8702.0,-0.8147490538697004,0.4143271949485444,-0.3909057766948497,0.10821103682663373
-9613.094277143478,-4736.0,-6952.0,-14736.0,5773.0,-4247.0,8637.0,-0.8929495192498057,-0.17891782083834862,-0.24786513314168226,-0.3304428017534256
-9613.109869003296,-5616.0,-7264.0,-14684.0,5789.0,-6839.0,3208.0,-0.6600686792411089,-0.6897793043416292,0.12921232950065406,-0.2679888503126401
-9613.12550330162,-4616.0,-7424.0,-15212.0,4465.0,-9244.0,-3374.0,-0.2660354074258066,-0.8739484657020224,0.2576756396544558,0.3147101937045142
-9613.141098737717,-2192.0,-7948.0,-15524.0,2036.0,-10551.0,-3969.0,0.16676175118012596,-0.5097355466900427,0.18091799295720562,0.8243960641635047
-9613.15672492981,232.0,-8964.0,-16540.0,4340.0,-9279.0,2423.0,0.24457949977807592,0.19076269021239975,0.34311611232714373,0.8866012619959105
-9613.172306776047,1504.0,-7208.0,-18684.0,7295.0,-7579.0,11722.0,-0.3276616225935537,0.7553759203101021,0.324004992798933,0.46590325684243633
-9613.187950611115,1680.0,-3416.0,-20160.0,6395.0,-795.0,15979.0,-0.7621575775568332,0.5852549289928316,-0.24727187857197727,-0.12429446138014626
-9613.203507900238,-1068.0,-3440.0,-20324.0,1746.0,3113.0,15783.0,-0.354147007453905,0.09396032493350044,-0.7394140603345536,-0.5648169631211547
-9613.219164848328,-3992.0,-7064.0,-16996.0,1204.0,2687.0,11626.0,0.26423853453893403,-0.3875047782671158,-0.6751610246066064,-0.5693642371426462
-9613.234732866287,-5608.0,-8160.0,-15684.0,4255.0,1782.0,10446.0,0.7310798225461137,-0.5782868422550778,-0.3486929350393109,-0.09756976065495253
-9613.250304460526,-6612.0,-6624.0,-20280.0,4281.0,-9510.0,-2572.0,0.46374817419629666,-0.2247880849350679,-0.8183556055154929,0.2543659779180324
-9613.265888214111,-176.0,-1080.0,-22476.0,420.0,-13039.0,-23673.0,0.02577725377342684,0.6916966070539433,-0.7030445697313459,-0.16315535525758837
-9613.281496047974,8384.0,-432.0,-18144.0,-5652.0,-5694.0,-14306.0,-0.10652414695190048,0.845169999287022,0.13070884631673263,-0.5072035842892813
-9613.297094106674,11796.0,-5540.0,-16648.0,-7780.0,6555.0,-7153.0,0.05141539621576865,0.7629870446092337,0.6381449789077257,0.08932084127067404
-9613.312715291977,10928.0,-9100.0,-17540.0,-5012.0,16783.0,10395.0,-0.30930259954372213,0.582737950948816,-0.008767568895519284,0.7514462802989536
-9613.328306913376,5644.0,-10344.0,-18736.0,1481.0,21287.0,11996.0,-0.4897049289016464,-0.3654926988444582,-0.46483874956666715,0.6407254533746298
-9613.343925952911,612.0,-6764.0,-16252.0,3786.0,20716.0,7480.0,0.024328604787838187,-0.9074932847722463,-0.41066796028236474,-0.08494635648382995
-9613.3595328331,-2516.0,-4060.0,-13352.0,-769.0,15605.0,-6233.0,0.2683448458647073,-0.3209593728632712,-0.48729457646773777,-0.7664986108364388
-9613.375119686127,-2304.0,-4260.0,-11820.0,-6524.0,12097.0,-19139.0,-0.29753112364477297,0.5026491523627657,-0.13287718563390125,-0.8007263662635854
-9613.390706300735,-16.0,-7032.0,-13676.0,-9475.0,9945.0,-21550.0,-0.5205796657658363,0.6929312434918826,0.49761831030790254,0.03491590798234112
-9613.406302213669,2180.0,-9752.0,-15992.0,-9215.0,11313.0,-21171.0,-0.1587370860836243,0.0643051135942713,0.503113919565945,0.8470795557716524
-9613.421874284744,3316.0,-11736.0,-16548.0,-5354.0,14214.0,-13040.0,0.10492046846118985,-0.7376670364397815,-0.008121292358895556,0.6669131002300495
-9613.437447071075,2696.0,-8768.0,-15508.0,-2200.0,16383.0,-3232.0,0.09172747817879641,-0.9612840146841137,-0.10929497813060114,-0.23574079115669036
-9613.453052282333,860.0,-4576.0,-14768.0,-1453.0,18827.0,-3912.0,0.03526111632634995,-0.28015939666776263,-0.13121572547550078,-0.9502893241124583
-9613.468696594238,-976.0,-2552.0,-13144.0,-6339.0,18978.0,-7112.0,-0.23376417920522732,0.6437233031889171,0.13249445682056468,-0.7165332067419341
-9613.484275817871,-2720.0,-5628.0,-13016.0,-11922.0,18442.0,-15005.0,-0.283090213108636,0.7386014887411099,0.5320452537345142,0.30208545156974964
-9613.4998524189,-2868.0,-13676.0,-14004.0,-11484.0,15972.0,-18888.0,0.08270497084153473,-0.10682119868316649,0.4075872165803038,0.9031178108033928
-9613.51545548439,-1536.0,-17308.0,-15376.0,-6085.0,12193.0,-10616.0,0.23715321594841407,-0.8233536573110043,-0.0459214194817255,0.5135546031248301
-9613.531070947647,-692.0,-12708.0,-14856.0,-809.0,11400.0,-2078.0,0.22324105965813756,-0.9428903341644335,0.003025776789672161,-0.24720859956080374
-9613.546659469604,-668.0,-9012.0,-15176.0,-936.0,14991.0,2798.0,0.12162714633585413,-0.3822649482039411,0.3273950262126149,-0.8555073602606095
-9613.562245368958,-2648.0,-7716.0,-14048.0,-2394.0,17215.0,6681.0,0.025558371123975757,0.5599107397535787,0.47798729417238317,-0.6762949650735639
-9613.577834367752,-5508.0,-9460.0,-14280.0,-2361.0,17799.0,9809.0,-0.011080892572974453,0.9842740553979382,0.08696278585687783,0.15335994120464974
-9613.593415021896,-9044.0,-10320.0,-14948.0,-945.0,15166.0,12276.0,-0.10598094593743783,0.4428868079310112,-0.5034146011702615,0.73429766020836
-9613.609000205994,-11988.0,-9536.0,-14352.0,1356.0,11434.0,9355.0,-0.15629015657274103,-0.4360785380320388,-0.540406800249809,0.7024025810531102
-9613.62458062172,-13412.0,-7788.0,-13840.0,2242.0,6018.0,4820.0,-0.06765578520796522,-0.8704501881511768,-0.24716714668665185,0.4202946184217131
-9613.64014673233,-12912.0,-5204.0,-12904.0,1729.0,471.0,3324.0,-0.04538652927828804,-0.9209545261255732,0.06250835821814747,0.3819365509109646
-9613.655763864517,-10980.0,-4016.0,-14008.0,-1110.0,-2548.0,-1601.0,-0.06456605805353105,-0.8093342652432017,-0.08972992931309885,0.5768516369363451
-9613.671334028244,-8204.0,-4572.0,-13836.0,-3827.0,-4436.0,-911.0,-0.2874215168308643,-0.4952160085752596,-0.2858355076982089,0.7684061680207549
-9613.68690085411,-5812.0,-7228.0,-14888.0,-3798.0,-5027.0,-952.0,-0.44836095616227434,-0.034368610694677386,-0.3983512892883404,0.7994419940874296
-9613.702471494675,-3456.0,-9284.0,-15644.0,-2519.0,-4595.0,3422.0,-0.7497581036075135,0.2332675806260258,-0.33730713440543253,0.5193004130394477
-9613.718032836914,-1704.0,-9168.0,-17596.0,-446.0,-4387.0,8719.0,-0.962482945346999,0.1558460662226751,-0.1888790068502711,-0.11689013786602624
-9613.733620882034,-264.0,-7184.0,-18020.0,93.0,-1788.0,9592.0,-0.6817084608070029,-0.021327774083418582,-0.1296199423607922,-0.7197342364089531
-9613.749214172363,-312.0,-6376.0,-14772.0,-2165.0,3325.0,17708.0,0.24781565370346265,0.06210454254979204,-0.08459642992111027,-0.9631063656828406
-9613.764863729477,-3988.0,-8792.0,-14676.0,-1224.0,6919.0,20082.0,0.9452251712568299,0.22241972575281801,0.028149161060242442,-0.23724768903014035
-9613.780481815338,-9044.0,-9760.0,-14364.0,374.0,3927.0,19995.0,0.6578502163663179,0.18804423852110597,-0.021300738788441253,0.7289847294099325
-9613.796091079712,-12052.0,-9076.0,-13800.0,875.0,-2941.0,10173.0,-0.00676886751824092,0.2978648366551766,-0.22103016837065464,0.9286422272258276
-9613.811695337296,-11316.0,-6724.0,-16020.0,400.0,-15085.0,-9347.0,0.24367167070316983,0.9222728189730409,0.03416710246711434,0.29811000216237016
-9613.827305555344,-5064.0,-2376.0,-16948.0,-1899.0,-20994.0,-25446.0,0.36724793885313084,0.4430315071520708,0.5197424023606915,-0.6314426896140526
-9613.842908620834,3300.0,-2504.0,-16532.0,-6649.0,-19435.0,-27828.0,-0.0087403843545012,-0.6614283232484018,0.4212247808025433,-0.6204884067603459
-9613.858527183533,8752.0,-5088.0,-15976.0,-7705.0,-13023.0,-17634.0,-0.4111221516220437,-0.888559558773482,-0.07488233769917221,0.18929638786475303
-9613.874139547348,11492.0,-9000.0,-16976.0,-4453.0,-4153.0,-9858.0,-0.4363658761542567,-0.41895761462090775,-0.5371982093308546,0.587773275312012
-9613.889719486237,10688.0,-8284.0,-15876.0,283.0,1732.0,15678.0,-0.6751918352514619,-0.736756944598275,-0.009130811100118447,-0.03495452023173982
-9613.905355453491,6772.0,-7164.0,-15772.0,3407.0,10506.0,23279.0,-0.15297231522217655,-0.37549535916787563,0.34874160122828396,-0.8449745567717927
-9613.92100930214,-264.0,-4824.0,-14196.0,4982.0,11203.0,29506.0,0.6228842567353754,0.43275030020540994,0.26971075667812705,-0.5932946048258476
-9613.936614274979,-6408.0,-3060.0,-13488.0,2899.0,5904.0,14551.0,0.6574591446812695,0.722162093821505,-0.06339657108290915,0.20545135214264934
-9613.95229959488,-9788.0,-2416.0,-14268.0,-2646.0,-3157.0,-7628.0,0.7522879129230937,0.533728979611227,0.15061187289593084,-0.3556857266404628
-9613.967922449112,-7860.0,-4520.0,-17080.0,-6707.0,-8319.0,-20713.0,0.2342501733415506,-0.19274091331707183,0.34308593269671755,-0.8889712252985346
-9613.983527421951,-4332.0,-7812.0,-17988.0,-6436.0,-9529.0,-17762.0,-0.4603004567846297,-0.7597320610134919,0.1662625138254985,-0.4281208491167875
-9613.999129772186,-1368.0,-10896.0,-16972.0,-2166.0,-9891.0,-16689.0,-0.5486093019245567,-0.650273098630537,-0.23384326925502447,0.47062730101792105
-9614.014714241028,1988.0,-8508.0,-16148.0,2262.0,-11466.0,-11760.0,-0.09721906209391713,-0.027148930771278425,-0.14753436465218714,0.9838927791025965
-9614.030311584473,4824.0,-4496.0,-14876.0,2058.0,-6386.0,-5856.0,0.25918774920570137,0.45734735360098294,0.05462302227275857,0.8489236916552922
-9614.045893907547,4912.0,-2792.0,-15140.0,-478.0,-368.0,1984.0,0.1308333120841168,0.47580155770820237,-0.06724995634233928,0.8671637478028597
-9614.061529636383,2632.0,-3336.0,-15492.0,-1515.0,4310.0,5748.0,-0.1818710831188903,0.08327724483997986,-0.31277318466792525,0.928526114102187
-9614.077114105225,-584.0,-5064.0,-15224.0,-1511.0,5420.0,8966.0,-0.5504878318948524,-0.42350418095587017,-0.43094583826580174,0.5761015883765535
-9614.092726230621,-3720.0,-5664.0,-15876.0,513.0,2612.0,6096.0,-0.6396329806021899,-0.6995014549192313,-0.26428095909409727,0.1781093466164566
-9614.108321428299,-5208.0,-4564.0,-14940.0,1000.0,-1922.0,-2794.0,-0.5534826761993371,-0.6317526121446438,-0.2982818486322843,0.4534021426638233
-9614.123955726624,-3940.0,-3660.0,-14732.0,-1742.0,-4928.0,-11221.0,-0.22663493916373137,-0.041255180315247574,-0.508123624951639,0.8299066189719264
-9614.139543533325,-1308.0,-5132.0,-15936.0,-2837.0,-6854.0,-17456.0,0.37411179764347025,0.6646126941010901,-0.3315629507772036,0.5553344392126026
-9614.155176877975,2052.0,-7044.0,-15800.0,-2803.0,-7360.0,-15737.0,0.5926983071660911,0.7559087359820188,0.11179161107328739,-0.2545846327690568
-9614.170799970627,5372.0,-8044.0,-16264.0,-1238.0,-3527.0,-6054.0,0.4877153818460852,0.4711562677506368,0.3026922078197959,-0.6697185266925164
-9614.186393976212,5808.0,-6412.0,-15832.0,731.0,1186.0,5971.0,0.6835036646327872,0.6431851895703629,0.057412522801294684,-0.3403518100091106
-9614.20199751854,3792.0,-4140.0,-15752.0,186.0,6046.0,10213.0,0.6569507110405857,0.6148026874375361,-0.1116365976785173,0.42186572371030234
-9614.217552661896,-88.0,-4008.0,-15752.0,-973.0,7218.0,7974.0,0.35348433821112574,0.1570624765385836,-0.11757837871780458,0.9146340940294658
-9614.233143806458,-3276.0,-5132.0,-15352.0,-1351.0,4005.0,1503.0,0.2728974510333525,-0.20459582048137193,-0.1143394705976662,0.9330562774691024
-9614.248737096786,-4292.0,-6032.0,-15280.0,-993.0,-1093.0,-5365.0,0.6126518375261064,-0.07734608722432737,-0.28531474908694027,0.7329875870166074
-9614.264331102371,-2968.0,-5452.0,-15388.0,-693.0,-5242.0,-10298.0,0.7992566207236532,0.33565165836470423,-0.4781468167695212,0.14107600816440818
-9614.27994966507,152.0,-4880.0,-15444.0,-1153.0,-6391.0,-12578.0,0.4536350706126855,0.5403560928037906,-0.35858223972397135,-0.6112685932015365
-9614.295538902283,2880.0,-5108.0,-15780.0,-1341.0,-4273.0,-7726.0,-0.022986769633542334,0.3953897877409883,-0.07255772261855965,-0.9153545220625496
-9614.311126708984,4496.0,-5544.0,-15824.0,-958.0,-956.0,-394.0,-0.027311249210331998,0.32126983884196053,0.019440767724672472,-0.9463941266022877
-9614.326704263687,3944.0,-5236.0,-15720.0,-486.0,2209.0,6722.0,0.4572193485684321,0.4391897986688563,-0.11390132178356814,-0.7649112869711259
-9614.342287063599,1864.0,-4760.0,-15644.0,-230.0,3790.0,8793.0,0.836763781476782,0.4571830350483251,-0.21817533739738845,-0.2078691141661361
-9614.3578851223,-80.0,-4664.0,-15684.0,-265.0,3500.0,6745.0,0.8633959003169012,0.31089716998335803,-0.18916826849881505,0.349436453744407
-9614.37352347374,-1724.0,-5176.0,-15816.0,-710.0,1701.0,3734.0,0.7488466728349015,0.135375866033943,-0.17311791122788797,0.6252457311263716
-9614.389149665833,-2128.0,-5456.0,-15408.0,-409.0,-316.0,469.0,0.7218914111201642,0.11852268238312294,-0.22152640265416076,0.6447877303723714
-9614.404749155045,-1332.0,-4988.0,-15404.0,-437.0,-1712.0,-1997.0,0.7846194986485744,0.22000959985108468,-0.32493974915860935,0.479981434776977
-9614.420320272446,-284.0,-4816.0,-15824.0,-613.0,-1679.0,-2678.0,0.8287104705245243,0.31225997503786795,-0.3990006904182013,0.23776272432442028
-9614.435915470123,580.0,-5024.0,-15640.0,-630.0,-1099.0,-2004.0,0.8314113686136038,0.3519107623575915,-0.42814164573043223,0.04010838650694019
-9614.451481103897,980.0,-4992.0,-15428.0,-325.0,-488.0,575.0,0.8188629041307129,0.3078540883586971,-0.4813599075028238,0.0546080943480279
-9614.467085123062,680.0,-4772.0,-15704.0,-161.0,222.0,859.0,0.825686877238409,0.2584753504323972,-0.4880912777766822,0.11488506662512706
-9614.482653856277,288.0,-4668.0,-15576.0,-370.0,528.0,905.0,0.8433232846390611,0.18714235970970422,-0.47222709439143473,0.17545696369905572
-9614.49824976921,-232.0,-5128.0,-15220.0,-545.0,190.0,153.0,0.8563881286790292,0.13763257653058109,-0.4687360722357397,0.16716202176390296
-9614.513834238052,-584.0,-5384.0,-15496.0,-313.0,-758.0,-1166.0,0.8395133022483102,0.17163780904605982,-0.512278007516418,0.057698534374926766
-9614.529418706894,-352.0,-5024.0,-15796.0,-364.0,-941.0,-1919.0,0.7982203307365258,0.23138923408705106,-0.5449112522928701,-0.11124321584750906
-9614.545010089874,-188.0,-4972.0,-15768.0,-560.0,-347.0,-1329.0,0.7735022044663148,0.2501558501659843,-0.5326281504799609,-0.2354222666397149
-9614.560635089874,-352.0,-5236.0,-15684.0,-235.0,-211.0,-638.0,0.7541060935438004,0.25916078608077997,-0.5273517220330675,-0.29335958806021584
-9614.576253414154,-576.0,-4776.0,-15548.0,-9.0,-410.0,-1259.0,0.6984010808232426,0.3040562024996801,-0.5223990366324257,-0.3832557925875531
-9614.591873884201,-660.0,-4464.0,-15724.0,-306.0,-715.0,-3480.0,0.5321944068842067,0.4012691686644643,-0.4426894601666425,-0.5998151460390638
-9614.607457399368,-416.0,-4620.0,-15268.0,-904.0,-618.0,-5024.0,0.252580087888667,0.4755290641868304,-0.22653883384096762,-0.8116375823467793
-9614.623065710068,-80.0,-5380.0,-15668.0,-579.0,-817.0,-3706.0,-0.002043121307967043,0.45364760500427925,-0.04718820239382852,-0.8899286205556272
-9614.638667106628,204.0,-5188.0,-15408.0,-106.0,-461.0,-2325.0,-0.17662151993668868,0.41883070846427134,0.0521505719712356,-0.8891940138044361
-9614.654240369797,0.0,-4644.0,-15728.0,-147.0,412.0,-2115.0,-0.33141226741717006,0.43602109998049515,0.13230572496880463,-0.8261638484693509
-9614.669845104218,-36.0,-4776.0,-15672.0,-401.0,758.0,-2082.0,-0.4660572381885991,0.46948289216988626,0.21455126116711326,-0.7185709575424097
-9614.685414552689,-460.0,-4976.0,-15720.0,-194.0,506.0,-2606.0,-0.6145451312432932,0.44859318882758414,0.3049241797297299,-0.5728173157463157
-9614.700982093811,-448.0,-4792.0,-15580.0,-74.0,-585.0,-4000.0,-0.7505493947619047,0.2990440606033329,0.4684256451092849,-0.35752716098830717
-9614.716575145721,-104.0,-4812.0,-15572.0,-278.0,-1002.0,-5114.0,-0.784227513113942,0.07019894528940887,0.6155528364998358,-0.0339708880128698
-9614.732154130936,408.0,-4744.0,-15528.0,-443.0,-889.0,-4821.0,-0.6871509356773045,-0.14791745147765137,0.6500514806001223,0.2887509163894559
-9614.74779009819,520.0,-5032.0,-15628.0,-356.0,-842.0,-3612.0,-0.5257020201139954,-0.29504795056533606,0.6135732592361082,0.5100117140474706
-9614.763426065445,1008.0,-4992.0,-15640.0,-55.0,-1003.0,-2327.0,-0.3609789452176043,-0.36376005571562525,0.5833435134687612,0.6301453548739944
-9614.779020786285,1204.0,-4932.0,-15484.0,-228.0,-375.0,-1108.0,-0.2865522751846449,-0.39036685491574113,0.5447059663220472,0.6846874633165565
-9614.794641494751,1228.0,-5080.0,-15456.0,-292.0,-62.0,-324.0,-0.2739131226929558,-0.39460538862340405,0.5175755526919789,0.7080774927517176
-9614.810219287872,1032.0,-5376.0,-15412.0,-185.0,226.0,1166.0,-0.360497223423642,-0.3497059580674595,0.538124182045919,0.6768824561867264
-9614.825814008713,900.0,-5264.0,-15688.0,66.0,699.0,2603.0,-0.5305102020533129,-0.26374152795639244,0.5837325763760867,0.5552077189898538
-9614.841388225555,336.0,-4932.0,-15680.0,109.0,1083.0,3536.0,-0.7178982491910153,-0.13435963599938128,0.5904707878058862,0.34338584823851537
-9614.856984615326,-320.0,-5116.0,-15724.0,130.0,1256.0,3212.0,-0.8399392114853939,-0.013991844922105106,0.530069862909474,0.11546553477164495
-9614.872569561005,-656.0,-4656.0,-15636.0,109.0,533.0,1976.0,-0.8704033564451227,0.06313439139207648,0.4870471942749098,-0.03459878988570917
-9614.888147354126,-596.0,-4688.0,-15496.0,-101.0,57.0,291.0,-0.8709090862705104,0.08344504829629289,0.4814949574114462,-0.05212382712007437
-9614.903771400452,-340.0,-4816.0,-15612.0,-79.0,-299.0,-625.0,-0.8588663959413034,0.06185264724905338,0.5084391645978231,-0.003518501690775986
-9614.919444084167,140.0,-4844.0,-15512.0,-116.0,-416.0,-642.0,-0.8379060945042213,0.0419615108402229,0.5421362088468502,0.047338562059416
-9614.935092449188,644.0,-4868.0,-15568.0,-157.0,173.0,344.0,-0.8462142139206429,0.06906390953185684,0.527486546151152,0.03015997659767852
-9614.95068192482,744.0,-5080.0,-15500.0,-98.0,790.0,1548.0,-0.8758578801391327,0.1439519735125937,0.45459977645331184,-0.07409349747861296
-9614.966305732727,516.0,-5096.0,-15532.0,152.0,858.0,2485.0,-0.8728391772964995,0.23061770847830199,0.34799175358010964,-0.25272313418606335
-9614.981918096542,176.0,-4896.0,-15456.0,15.0,813.0,2079.0,-0.836131681013758,0.3050139871803181,0.2396044655760077,-0.3878659300654128
-9614.997522830963,40.0,-4864.0,-15504.0,-175.0,756.0,1449.0,-0.7900339604295051,0.3701225745660676,0.15042843737033856,-0.4650020498825512
-9615.013170719147,-60.0,-5080.0,-15592.0,-156.0,563.0,1143.0,-0.7412603398860765,0.41638636513419763,0.08064924167497917,-0.520241485523367
-9615.02874135971,-12.0,-5180.0,-15508.0,-131.0,14.0,1063.0,-0.6852558792951766,0.4313717456973915,0.04695779463836541,-0.5849254332204067
-9615.044336795807,32.0,-4980.0,-15448.0,32.0,270.0,1259.0,-0.6193204305372395,0.44587078483077797,-0.01801216175460041,-0.646000781410116
-9615.05993437767,116.0,-4848.0,-15448.0,-137.0,368.0,1114.0,-0.5476398151314337,0.47006195738306733,-0.07307072887321167,-0.6883262726977273
-9615.075510501862,68.0,-4884.0,-15584.0,-141.0,445.0,958.0,-0.47934665740830007,0.49556573277959665,-0.1245865830778915,-0.713526152178802
-9615.091079950333,92.0,-5016.0,-15560.0,-157.0,483.0,862.0,-0.4120173652067682,0.5211318878702845,-0.17161794894421253,-0.7274685737631611
-9615.106660842896,116.0,-5056.0,-15568.0,-196.0,467.0,865.0,-0.3398632992948973,0.5430697464809018,-0.2144807492243515,-0.7372694191825108
-9615.122238636017,44.0,-4984.0,-15620.0,-106.0,478.0,752.0,-0.2766399930443741,0.5614372996979845,-0.256703178059107,-0.736452273491364
-9615.137826919556,-56.0,-4840.0,-15444.0,-180.0,450.0,270.0,-0.24009425989688463,0.5882177571931696,-0.268939652293602,-0.7238964566230455
-9615.153421163559,-504.0,-4864.0,-15472.0,-222.0,336.0,-239.0,-0.23570942694138958,0.6194303673041377,-0.24950567606607282,-0.706041077929064
-9615.169027805328,-512.0,-4752.0,-15496.0,-226.0,-59.0,-1047.0,-0.2880212985764128,0.6406798275664574,-0.17701574727106556,-0.6893754530978295
-9615.184698104858,-40.0,-4788.0,-15600.0,-294.0,-274.0,-2015.0,-0.3907793677192655,0.6525453130778953,-0.03915236397451261,-0.6480302404519482
-9615.200274944305,168.0,-4988.0,-15840.0,-416.0,-279.0,-2181.0,-0.4822062673311365,0.6464285870982664,0.11594167019115274,-0.5797971426645682
-9615.215883255005,388.0,-5116.0,-15604.0,-314.0,-176.0,-1768.0,-0.5453407644365025,0.6253625019390034,0.23614645070499607,-0.5057272443045101
-9615.231479406357,492.0,-4968.0,-15676.0,-148.0,-1.0,-879.0,-0.5741605128022994,0.6126029369121082,0.2899294980133961,-0.45934544017216516
-9615.247106552124,396.0,-4796.0,-15544.0,-195.0,10.0,-602.0,-0.5870644349350851,0.6068172158754683,0.3290414266306308,-0.42291837901937235
-9615.262771606445,172.0,-4744.0,-15484.0,-308.0,213.0,-967.0,-0.6098864167105654,0.6004293914694426,0.37926617374012983,-0.35168206384190687
-9615.278370380402,16.0,-4884.0,-15536.0,-280.0,7.0,-1204.0,-0.6285476472189173,0.5725653184219162,0.4480823756706056,-0.2762589291396016
-9615.293953895569,8.0,-4920.0,-15588.0,-262.0,-271.0,-1676.0,-0.6379138525853644,0.5093612026031834,0.5470041548894052,-0.18548190341934762
-9615.309538841248,216.0,-4792.0,-15592.0,-341.0,-408.0,-2010.0,-0.6253642700550698,0.41912182577478246,0.6540254065762052,-0.07421046051960596
-9615.325142383575,400.0,-4920.0,-15508.0,-381.0,-304.0,-1821.0,-0.5975894963829671,0.3297342579504435,0.7300117911661218,0.035283107927915384
-9615.340747594833,500.0,-5056.0,-15592.0,-9.0,-179.0,-1236.0,-0.578453676259771,0.2506652899252015,0.7704716626582695,0.09450753350327366
-9615.356333971024,504.0,-4940.0,-15656.0,-270.0,-94.0,-771.0,-0.5581985288804167,0.21279927902084148,0.7879876267765902,0.1490180165313778
-9615.371950149536,764.0,-4896.0,-15496.0,-323.0,255.0,-531.0,-0.5616489403523801,0.188487989481216,0.7800549634502439,0.20133802328178438
-9615.387539863586,368.0,-4844.0,-15568.0,-301.0,226.0,-336.0,-0.5654279638589141,0.17633127123727582,0.7686465843300753,0.24162145779693744
-9615.403133869171,240.0,-4844.0,-15580.0,-284.0,-69.0,-619.0,-0.5422165181394706,0.15011346771889397,0.7743859938536259,0.2894711156392806
-9615.41873717308,312.0,-4836.0,-15552.0,-290.0,-89.0,-452.0,-0.5202176088273586,0.13548029334668374,0.7764980042673701,0.328739378458731
-9615.434336423874,144.0,-5104.0,-15576.0,-299.0,-200.0,-659.0,-0.4830219762634228,0.1099904028425514,0.7832935791190458,0.3755569872069825
-9615.44999909401,304.0,-4868.0,-15524.0,-281.0,-231.0,-914.0,-0.43283467715147755,0.06676089031942924,0.7898755663446,0.4292944391332486
-9615.465607404709,340.0,-4916.0,-15708.0,-325.0,-218.0,-395.0,-0.40051276843777817,0.05996919783079179,0.7874978632104465,0.4645861955211529
-9615.481194972992,320.0,-4920.0,-15644.0,-131.0,-69.0,114.0,-0.39953688639102114,0.07522975219958418,0.7840851511001417,0.46895760642218565
-9615.496778726578,288.0,-4816.0,-15628.0,-202.0,-17.0,211.0,-0.40543521833192403,0.09743860749614283,0.7749619678641869,0.4749336268042355
-9615.512351512909,272.0,-4748.0,-15644.0,-178.0,-12.0,141.0,-0.40875902188987834,0.11381780285966552,0.7668488045564585,0.48156461739434153
-9615.527945518494,128.0,-4768.0,-15624.0,-86.0,5.0,168.0,-0.41512955493239123,0.1279758810221493,0.7614733146431982,0.4810904463658992
-9615.543506383896,84.0,-4640.0,-15588.0,-142.0,-53.0,136.0,-0.4155497905467665,0.1444390604560058,0.7559827615955163,0.4847120728448401
-9615.559114694595,68.0,-4624.0,-15732.0,-194.0,-31.0,-169.0,-0.4036928611572336,0.1416830909450533,0.7510300916020276,0.5029033476714908
-9615.574699878693,124.0,-4700.0,-15660.0,-135.0,-72.0,-273.0,-0.38507266722749034,0.13174000650002946,0.7509294659178667,0.5200659081866318
-9615.590287208557,188.0,-4812.0,-15668.0,-153.0,-12.0,-33.0,-0.3808961992514921,0.13533159188281593,0.7448915265548264,0.5307919171399003
-9615.605867147446,352.0,-4828.0,-15484.0,-96.0,-9.0,71.0,-0.38235328571850746,0.14363146480958153,0.7400576417583673,0.534313254647458
-9615.621502399445,356.0,-4876.0,-15812.0,-53.0,10.0,651.0,-0.4119295505157397,0.18676271827045862,0.7281001590843739,0.5150765873318641
-9615.637131214142,500.0,-4812.0,-15656.0,-77.0,380.0,880.0,-0.47261956903277336,0.22767084305303234,0.6943822712010252,0.492574858912331
-9615.652727842331,216.0,-4756.0,-15716.0,-14.0,513.0,1092.0,-0.547234530309651,0.27099545869271435,0.6475323347165021,0.45584833629322
-9615.668340682983,240.0,-4752.0,-15704.0,-38.0,443.0,787.0,-0.600687150161247,0.29888068734402534,0.6045584494613727,0.4293650702476666
-9615.68395447731,-56.0,-4736.0,-15624.0,15.0,253.0,316.0,-0.6257433416157043,0.30526263466579173,0.5834309330604596,0.41817262063496347
-9615.699553966522,68.0,-4672.0,-15624.0,-62.0,60.0,-162.0,-0.6210190689732573,0.2983465430017623,0.582311711366129,0.4315526932558021
-9615.715112447739,332.0,-4788.0,-15872.0,-53.0,62.0,27.0,-0.6236567778628793,0.30042150753112096,0.5764161532641612,0.4342160286016248
-9615.730687379837,344.0,-4876.0,-15572.0,-254.0,138.0,444.0,-0.639950210063248,0.33117464018792625,0.547232292253823,0.42582144691293905
-9615.746262550354,388.0,-4820.0,-15596.0,93.0,236.0,520.0,-0.6722441224350764,0.34179953211024644,0.5219837569562359,0.39848949443437537
-9615.761865377426,292.0,-4792.0,-15532.0,4.0,396.0,905.0,-0.7190707725197345,0.3678544577376661,0.47031852878608904,0.35555703271189687
-9615.777447938919,224.0,-4824.0,-15444.0,-1.0,407.0,821.0,-0.7586552469578224,0.38796511017620444,0.4172142176349023,0.316002509725204
-9615.793022155762,4.0,-5116.0,-15704.0,20.0,276.0,696.0,-0.7867524060280388,0.4037441217263426,0.37526394549951503,0.2778278369578057
-9615.80862736702,4.0,-4844.0,-15568.0,7.0,116.0,309.0,-0.7978107070557119,0.4106435384352408,0.3565602120899576,0.26025905402697186
-9615.824249744415,76.0,-4772.0,-15496.0,-70.0,246.0,-165.0,-0.798782330714358,0.40490256626009274,0.34375787921538903,0.2825441920335064
-9615.839875459671,192.0,-4836.0,-15572.0,-78.0,25.0,-110.0,-0.7938640138312422,0.40664525489539743,0.3440724561152483,0.29331503397819053
-9615.855472564697,248.0,-4796.0,-15796.0,-16.0,165.0,113.0,-0.8008792024940908,0.407112237595861,0.32829246027190995,0.291678229459685
-9615.871147632599,220.0,-4796.0,-15572.0,-52.0,178.0,291.0,-0.8110306263386563,0.4146195707091208,0.3041672674949567,0.27893047182113806
-9615.886774778366,204.0,-4848.0,-15616.0,3.0,229.0,169.0,-0.8209402802184155,0.4134529963182811,0.28193770366642507,0.2749996498209551
-9615.902366161346,108.0,-4716.0,-15656.0,-42.0,14.0,-59.0,-0.8181982529162387,0.4149305120970447,0.2821486697765488,0.28067136868413034
-9615.9180290699,80.0,-4884.0,-15448.0,-28.0,61.0,-269.0,-0.8117255702961428,0.40895987188820193,0.2868594136407559,0.3025972546443025
-9615.933628797531,72.0,-4860.0,-15560.0,-255.0,-140.0,-362.0,-0.7887772331537916,0.42157523011831044,0.3028086670558948,0.32925933998107787
-9615.949201345444,164.0,-4884.0,-15560.0,-71.0,-183.0,-352.0,-0.7706030735846418,0.4224185377807931,0.326209657050697,0.34831127108939
-9615.964867830276,180.0,-4788.0,-15460.0,-39.0,-239.0,-535.0,-0.7449869775133044,0.41678485003499416,0.360447887218993,0.37598153241384413
-9615.981701374054,304.0,-4904.0,-15696.0,-22.0,-235.0,-359.0,-0.7243725335004602,0.41458963043511576,0.3879011908925086,0.3910658987306008
-9615.99752163887,296.0,-5112.0,-15404.0,30.0,-290.0,-160.0,-0.7097483540061112,0.4172400452931318,0.4129857958703426,0.38937225247665086
-9616.013167142868,4.0,-4772.0,-15452.0,30.0,-320.0,-227.0,-0.6910480633918205,0.418061106316977,0.4419514370504445,0.39032859587338326
-9616.028760194778,352.0,-4724.0,-15588.0,-36.0,-122.0,146.0,-0.6897609276900377,0.4301806097240895,0.4428227267566985,0.37826252565824137
-9616.044346094131,340.0,-4776.0,-15624.0,-59.0,195.0,691.0,-0.7163318826814258,0.453327187144151,0.4025311349990526,0.34544432345376663
-9616.05995464325,220.0,-4828.0,-15476.0,-55.0,451.0,1063.0,-0.7580472955658973,0.4783180528373594,0.32907434615285275,0.2971299593093547
-9616.075600385666,-28.0,-4968.0,-15656.0,46.0,439.0,700.0,-0.7885209281799849,0.4829893953222838,0.27139488605000917,0.2670221070516306
-9616.091233730316,-100.0,-4888.0,-15612.0,-15.0,179.0,348.0,-0.7996173890596812,0.4880686362204534,0.24399438772884252,0.25073447351354144
-9616.106817007065,-144.0,-4848.0,-15488.0,51.0,-46.0,75.0,-0.8022654906590615,0.487358779572014,0.24518186786645865,0.24235790505194385
-9616.12242937088,20.0,-4660.0,-15568.0,-10.0,-95.0,-128.0,-0.7968661040120758,0.48754464576722806,0.2571105263933886,0.24738392809161722
-9616.138023138046,172.0,-4688.0,-15632.0,-52.0,-77.0,-293.0,-0.7861604686333672,0.48633406513924243,0.27378512306480246,0.2654667606908533
-9616.15361237526,360.0,-4844.0,-15388.0,-84.0,70.0,-232.0,-0.778543682025009,0.48506897702148244,0.2768934874592471,0.28619542154431804
-9616.169207334518,324.0,-5008.0,-15576.0,-8.0,119.0,396.0,-0.7903032047407357,0.4921467505094972,0.2517612044367418,0.2642512374238325
-9616.184800386429,288.0,-4996.0,-15564.0,41.0,132.0,699.0,-0.80936401105727,0.500925465777245,0.21324301992428876,0.22029750292435749
-9616.200368404388,336.0,-5120.0,-15576.0,134.0,168.0,965.0,-0.8336437995935807,0.50457934779002,0.16123368041852335,0.1563374474707626
-9616.215986251831,136.0,-4780.0,-15532.0,104.0,183.0,922.0,-0.8503242000318539,0.5060394647615486,0.10842387388070505,0.0954833939317942
-9616.231568336487,-52.0,-4784.0,-15680.0,-32.0,103.0,765.0,-0.8541561995277965,0.5138996133129942,0.06661437735920361,0.04343845041011324
-9616.24714589119,-232.0,-4940.0,-15400.0,-43.0,-56.0,234.0,-0.8524289753616568,0.5188318412606939,0.06013446097915342,0.023710948118126008
-9616.262711524963,20.0,-5084.0,-15432.0,0.0,-181.0,309.0,-0.8515353295411353,0.5208451713244691,0.05959865640402858,-0.007475975260067424
-9616.278309106827,96.0,-4988.0,-15552.0,106.0,-279.0,335.0,-0.8538630793718444,0.5144076464058266,0.06500929080905225,-0.045567610353777446
-9616.293926000595,248.0,-4760.0,-15564.0,129.0,-65.0,686.0,-0.8547958755446388,0.5077540746954151,0.03850772914834162,-0.1001347371191196
-9616.309532165527,148.0,-4840.0,-15500.0,18.0,268.0,958.0,-0.8447842605169952,0.5103276434377169,-0.02396806215433752,-0.15915646867980537
-9616.325148582458,-32.0,-4996.0,-15712.0,139.0,310.0,1044.0,-0.8318625948200029,0.500190545354262,-0.09480086243938332,-0.22096795731120486
-9616.340730190277,-192.0,-4940.0,-15520.0,187.0,208.0,965.0,-0.816417902776001,0.4810781395607699,-0.15504774706345342,-0.2792594274042182
-9616.356305122375,-276.0,-4724.0,-15136.0,171.0,67.0,432.0,-0.8113427339222095,0.4645728247148128,-0.1820105186382673,-0.3045771326826153
-9616.371918678284,-188.0,-4716.0,-15544.0,-11.0,23.0,-428.0,-0.8211922145825968,0.47270559608949875,-0.16592915833403163,-0.27324033477721016
-9616.387505531311,-248.0,-5056.0,-15612.0,-185.0,221.0,-557.0,-0.822261396527337,0.49882167960251633,-0.15418968925362847,-0.22647001449928741
-9616.403086662292,92.0,-5204.0,-15492.0,71.0,-251.0,-82.0,-0.8299652194451055,0.4900065595883894,-0.13400925816287595,-0.23041880304876114
-9616.41866517067,168.0,-5008.0,-15532.0,133.0,47.0,295.0,-0.8286887009330518,0.47795404949940723,-0.15266597226486217,-0.24804851224192673
-9616.434235095978,32.0,-4768.0,-15524.0,35.0,231.0,185.0,-0.8226421341023624,0.47807387164881615,-0.1778206290847261,-0.2511675064934446
-9616.449783802032,-4.0,-4612.0,-15408.0,-27.0,242.0,54.0,-0.8162335256607868,0.48463621531798895,-0.1968547037820742,-0.24523212674625158
-9616.465401172638,-52.0,-4956.0,-15520.0,17.0,111.0,-49.0,-0.8158964462638223,0.4868849352435204,-0.20309300088850563,-0.23666280188715758
-9616.480979204178,208.0,-4944.0,-15452.0,-21.0,-72.0,-136.0,-0.8188624186318726,0.4895292126325974,-0.19178891415428007,-0.23030957804483776
-9616.496538877487,44.0,-5000.0,-15400.0,-8.0,76.0,-90.0,-0.8188606276668928,0.49337838047871946,-0.19325278154248987,-0.22067715912451974
-9616.51209974289,60.0,-5108.0,-15760.0,92.0,-54.0,90.0,-0.8217866770882577,0.4844827033925055,-0.19507652809098813,-0.2277900692780425
-9616.527729034424,52.0,-5028.0,-15572.0,178.0,66.0,339.0,-0.8208311510857962,0.4672647505427297,-0.21760679209183043,-0.24606332181556478
-9616.543311595917,72.0,-4848.0,-15600.0,172.0,129.0,260.0,-0.8193126000335585,0.45285428986034876,-0.24110007552272034,-0.25596993800887635
-9616.558892965317,-28.0,-4876.0,-15488.0,28.0,135.0,23.0,-0.8168584938530621,0.45361885205355407,-0.2523406418320413,-0.25158763594723
-9616.574469327927,20.0,-5012.0,-15536.0,70.0,107.0,349.0,-0.8090414169527417,0.4433286687857604,-0.2752505238610661,-0.2704603967348165
-9616.590053319931,-4.0,-5080.0,-15488.0,119.0,25.0,226.0,-0.8073679940433448,0.43024802620312397,-0.2885791246974608,-0.28242812701922737
-9616.605629444122,60.0,-4976.0,-15552.0,87.0,108.0,312.0,-0.7997314968403223,0.4190025022254683,-0.3099999595788906,-0.29793700869717454
-9616.621208190918,-252.0,-4984.0,-15460.0,32.0,283.0,372.0,-0.7827793439565149,0.41397626384235503,-0.34399689584261345,-0.3123240101253489
-9616.636781215668,-108.0,-4868.0,-15420.0,-7.0,362.0,372.0,-0.7605967990790437,0.41298029661877034,-0.3816908154253787,-0.3244255003160121
-9616.652358055115,-224.0,-5176.0,-15580.0,84.0,193.0,144.0,-0.752789086463472,0.40821469703597413,-0.4020865371178507,-0.3240305064247723
-9616.6679956913,-284.0,-5140.0,-15540.0,80.0,-34.0,-376.0,-0.7668841963416108,0.41519348497203584,-0.38862553724583104,-0.2974444338673142
-9616.68357014656,-84.0,-4980.0,-15512.0,24.0,-101.0,-672.0,-0.7870868741289249,0.4332331366933578,-0.357634303441095,-0.2547567601595595
-9616.699119091034,72.0,-4980.0,-15504.0,-14.0,-99.0,-396.0,-0.7977896116696754,0.4443171055303203,-0.335450027206153,-0.23148936151041166
-9616.71468448639,228.0,-5012.0,-15456.0,102.0,47.0,-248.0,-0.8049948943314504,0.4455510763102333,-0.33117474125393687,-0.2092623933115501
-9616.730253219604,328.0,-4904.0,-15480.0,79.0,1.0,507.0,-0.7978253611682266,0.4251963705110828,-0.3521502687817899,-0.24222495283909984
-9616.745831251144,224.0,-4944.0,-15400.0,65.0,469.0,554.0,-0.7723981470200122,0.41297348997030947,-0.4060207636793297,-0.26077027921726087
-9616.761403083801,84.0,-4856.0,-15504.0,96.0,534.0,1072.0,-0.7283919127038146,0.3788299917916166,-0.48032442303596073,-0.30857982348496743
-9616.777008771896,-40.0,-5056.0,-15540.0,97.0,553.0,947.0,-0.6796319197535865,0.34648014362147456,-0.5470183700851045,-0.3447069284443421
-9616.792580604553,-292.0,-5100.0,-15544.0,124.0,408.0,591.0,-0.6446696662547267,0.3227269619897782,-0.5917774437787339,-0.3606213893414746
-9616.808145999908,-208.0,-5112.0,-15396.0,118.0,244.0,109.0,-0.6316032688176193,0.3182112318245498,-0.6122515538235751,-0.3535066584948847
-9616.823767185211,-156.0,-5124.0,-15392.0,85.0,126.0,-184.0,-0.6326142653135284,0.32734296054880363,-0.6167381926573356,-0.33508175005322566
-9616.839356660843,-80.0,-5068.0,-15824.0,79.0,81.0,-393.0,-0.6414306146154325,0.3464484249728236,-0.6120650583638286,-0.3064581860515422
-9616.854934215546,-80.0,-5084.0,-15568.0,23.0,110.0,-395.0,-0.6462270728530458,0.36913460292344175,-0.6066601659002725,-0.2794524259085815
-9616.870542049408,80.0,-5368.0,-15532.0,7.0,187.0,-370.0,-0.6449748851500275,0.3928067332243786,-0.6052050120746579,-0.25186734845750414
-9616.886154651642,92.0,-5164.0,-15556.0,42.0,189.0,-36.0,-0.6369428007813601,0.39661543589719694,-0.6155812214515373,-0.24095606308434447
-9616.901720523834,80.0,-5180.0,-15400.0,27.0,183.0,-39.0,-0.628590405579263,0.40117616701805164,-0.6250235040151322,-0.23081898634871362
-9616.917405366898,156.0,-4988.0,-15296.0,20.0,230.0,-66.0,-0.6177424513311294,0.4083902873369622,-0.6357285997374269,-0.21785496209205568
-9616.933048248291,144.0,-5088.0,-15576.0,-2.0,511.0,-180.0,-0.59187605807524,0.4278818529703364,-0.6562161617770667,-0.18968447695729207
-9616.948661088943,188.0,-5208.0,-15600.0,-27.0,375.0,104.0,-0.5671303276430786,0.429436812821274,-0.6787487095710862,-0.18233870822440737
-9616.964247703552,228.0,-5320.0,-15436.0,91.0,226.0,502.0,-0.5483061315277954,0.39847732307061706,-0.7094737428769602,-0.19293319386683053
-9616.97991847992,-112.0,-4880.0,-15300.0,164.0,53.0,-119.0,-0.5524262492421735,0.3989651502860225,-0.7106409260890032,-0.17504719984289838
-9616.995511770248,-140.0,-4920.0,-15420.0,64.0,-26.0,-443.0,-0.562385078747319,0.4227725772295135,-0.6945361143878536,-0.15035277501964844
-9617.011104345322,-20.0,-5016.0,-15144.0,-98.0,-208.0,-997.0,-0.5819181281132397,0.4835032646049686,-0.6438179320646165,-0.11443057127167355
-9617.026693344116,244.0,-5268.0,-15220.0,-183.0,-332.0,-1192.0,-0.600951747420214,0.553324142304212,-0.5715492756007381,-0.07759391971134579
-9617.04228401184,476.0,-5628.0,-15204.0,-215.0,-129.0,-663.0,-0.600109402033363,0.5958278386799187,-0.5303885727695185,-0.05954707482899229
-9617.057873010635,536.0,-5356.0,-15456.0,51.0,-149.0,494.0,-0.6062343663403682,0.5691207112566208,-0.5480614162722145,-0.09061011577271383
-9617.073527812958,300.0,-4964.0,-15800.0,58.0,96.0,1126.0,-0.5925067682702019,0.5106570467927181,-0.6066681538691455,-0.14184097149957786
-9617.08912229538,-224.0,-5076.0,-15132.0,-337.0,-279.0,738.0,-0.5812807573469492,0.4843765858145859,-0.6193378038791103,-0.20955354671053172
-9617.104725122452,-432.0,-5724.0,-15340.0,-264.0,-1440.0,-2655.0,-0.673146338820336,0.5946469026879244,-0.415070613386971,-0.14486356877765785
-9617.120309591293,304.0,-5240.0,-15652.0,310.0,-1697.0,-2342.0,-0.7561316396235093,0.6203652560897773,-0.19178119335711552,-0.08143627245551767
-9617.13592672348,1116.0,-4788.0,-15900.0,275.0,-627.0,-1525.0,-0.7838556683348691,0.6170041818492709,-0.06911090016675446,-0.009990709581829939
-9617.151491165161,1248.0,-4756.0,-15824.0,152.0,1268.0,424.0,-0.7784782318681297,0.6012782191182467,-0.17758218175101273,0.03001190507132667
-9617.167098283768,996.0,-4992.0,-15900.0,-225.0,2826.0,5092.0,-0.6560516002562573,0.4728675439140932,-0.5681002671791815,-0.15249482005891105
-9617.182710170746,-712.0,-5332.0,-15772.0,711.0,3183.0,3885.0,-0.43496388916249296,0.25795680976557345,-0.8414402973564598,-0.1903757479430583
-9617.198296070099,-1536.0,-4848.0,-16356.0,564.0,2567.0,1553.0,-0.22528646170333336,0.1596762616358965,-0.9501395181261291,-0.14485992454169144
-9617.213871240616,-1560.0,-4616.0,-15348.0,-192.0,2120.0,-1220.0,-0.06072403792165208,0.28499884030730893,-0.9508668930387658,-0.10459638600249656
-9617.229504108429,-1260.0,-5164.0,-15360.0,-220.0,2278.0,-2696.0,0.10429002688143137,0.5071110519134202,-0.8541262788034135,-0.04929778065763227
-9617.245132446289,-52.0,-5512.0,-15756.0,-12.0,3816.0,-3244.0,0.3437156636676838,0.7012038971333102,-0.6192438494039577,0.0819127106736806
-9617.260745286942,388.0,-5756.0,-16876.0,-96.0,5596.0,221.0,0.5841353796673914,0.5807997719477952,-0.4184093533728949,0.3826108939069787
-9617.276369571686,588.0,-5572.0,-15444.0,-867.0,7751.0,825.0,0.7290365075904331,0.20451209649709304,-0.0777724811087258,0.6485614960579305
-9617.291994810104,184.0,-5536.0,-16012.0,-904.0,10150.0,1593.0,0.5380585728332835,-0.3257316566769166,0.36284271482182434,0.6875587424648527
-9617.307569503784,-1060.0,-5760.0,-16340.0,-2186.0,11544.0,47.0,0.07506335859794576,-0.7817382639759531,0.5411599484856733,0.3006604213840633
-9617.323155879974,-1740.0,-6372.0,-18092.0,-2999.0,11948.0,-3967.0,-0.39084012554950354,-0.8632498558383347,0.17903567779846033,-0.2645560597128492
-9617.338736534119,-1792.0,-6632.0,-20348.0,-4493.0,11113.0,-5766.0,-0.6761483340407307,-0.354848544124639,-0.34637719199683814,-0.5449117194288946
-9617.354303836823,-920.0,-7340.0,-23500.0,-4381.0,10496.0,-11316.0,-0.6001105094615965,0.432844274344948,-0.6439839253752587,-0.19441685744505705
-9617.369875192642,1436.0,-7872.0,-25304.0,-5977.0,12905.0,-12664.0,0.0702409151155724,0.8643681461921815,-0.38158249591684024,0.3198886063958718
-9617.385491371155,3820.0,-9908.0,-27992.0,-6647.0,19088.0,-5640.0,0.6540419915320925,0.22943096105367514,-0.011887440467636349,0.7207282401722923
-9617.401072025299,3552.0,-12160.0,-27904.0,-5678.0,25114.0,4465.0,0.20597309379899448,-0.6742148908614702,0.39148551036388746,0.5913953506298921
-9617.41673374176,1208.0,-13748.0,-25468.0,-2363.0,29862.0,19578.0,-0.5988131973179354,-0.48460544166426034,0.5971450887693934,-0.22360246775438744
-9617.43232536316,-4908.0,-14588.0,-22496.0,5112.0,27441.0,24172.0,-0.3973646006331881,0.30926192187298074,0.025414934089986106,-0.8636043764179633
-9617.447921276093,-11984.0,-9224.0,-15764.0,9921.0,19586.0,15879.0,0.19012322708278453,0.5752187543618767,-0.7127407449957044,-0.3535211076823658
-9617.463510513306,-15156.0,-4248.0,-11476.0,10209.0,11964.0,-4576.0,0.16071453092462568,0.8015887391519028,-0.34357214966942523,0.4621520429318369
-9617.479120016098,-15404.0,1168.0,-6968.0,5657.0,-256.0,-3654.0,-0.08225073690197025,0.8627174536999334,0.11782758247068424,0.4848402542793864
-9617.494709253311,-13760.0,4108.0,-4740.0,-1205.0,-733.0,2278.0,-0.07821258062011821,0.9015471332335028,-0.09682213623344627,0.4143923656709741
-9617.510291814804,-15016.0,-3232.0,-5368.0,-5859.0,-4263.0,4799.0,0.1379843575556773,0.8406573041127928,-0.5236867304135479,-0.0027968733483079884
-9617.525889873505,-16000.0,-9340.0,-8148.0,-2299.0,-15869.0,-15.0,-0.24350294841984196,0.47073200882529326,-0.4145556579542404,-0.7397711108419109
-9617.54150390625,-11588.0,-10712.0,-7828.0,1259.0,-22361.0,1463.0,-0.459242542540281,-0.47853809960287547,-0.036692308472286446,-0.7474966547407293
-9617.557067871094,-6108.0,-10632.0,-8692.0,3641.0,-23917.0,12174.0,0.1599799106590221,-0.8664241382583476,0.464807907745688,-0.0875742526424693
-9617.57271361351,-2836.0,-9552.0,-9692.0,6892.0,-22357.0,27722.0,0.5422011939551893,0.05531035588050609,0.6614721764757194,0.5151826759067251
-9617.588270187378,-2312.0,-8540.0,-10764.0,6823.0,-20411.0,32767.0,0.06010386383035672,0.894257647621556,-0.04366894815410697,0.4413431864095521
-9617.603870868683,-4264.0,-7772.0,-14016.0,5109.0,-20266.0,32767.0,-0.47452503182950106,0.4458804860798859,-0.709910492913917,-0.2684095347618917
-9617.619453668594,-7148.0,-8032.0,-17772.0,426.0,-23873.0,28396.0,-0.3851031825210081,-0.5577869945686244,-0.2468305182825945,-0.6925632842900629
-9617.63507771492,-9084.0,-10500.0,-21448.0,-4030.0,-30893.0,12141.0,-0.1662421314373283,-0.8270312178084943,0.5271093538748965,0.10265791524749601
-9617.650656700134,-8272.0,-12792.0,-23604.0,-4323.0,-32768.0,-6106.0,0.3498164160690687,-0.24251763671838147,0.1687673086657636,0.8890057741403248
-9617.666248083115,-4132.0,-11908.0,-27188.0,-714.0,-32768.0,-21704.0,0.6999912705428364,0.5479487029900669,-0.37678556437277483,0.26037872135721557
-9617.681862354279,3116.0,-7940.0,-29904.0,2295.0,-32768.0,-27792.0,0.03707549528872164,0.6038902684689793,-0.2567032266262569,-0.7536878695701746
-9617.697442054749,11700.0,-5952.0,-28924.0,2911.0,-32768.0,-24119.0,-0.659065149481319,-0.27087278466438947,0.19388067750621069,-0.674293219717549
-9617.713032722473,17376.0,-6664.0,-26520.0,4699.0,-32768.0,-14322.0,-0.25320253326321074,-0.8210491806087964,0.4431635076059046,0.25568110156432755
-9617.728667259216,20320.0,-6236.0,-22932.0,8736.0,-21504.0,8237.0,0.43058690047245674,-0.09095563397372895,0.7186204094363382,0.5384298477346043
-9617.744254112244,19568.0,-4300.0,-20604.0,11059.0,-6450.0,25632.0,-0.10463288099614108,0.8300235869200616,0.4453630272066084,0.31900561024560065
-9617.759842395782,14212.0,-1164.0,-18716.0,11748.0,4183.0,32767.0,-0.6307982455391633,0.5839855324929524,-0.5092372423970349,-0.041616129319049
-9617.77544593811,6864.0,1928.0,-16440.0,7617.0,11615.0,32767.0,-0.11754199786306707,-0.3828669574253316,-0.8723369947835414,-0.28040138940855414
-9617.79103922844,-820.0,-572.0,-13844.0,-1214.0,14100.0,20365.0,0.5929943097996309,-0.660960335411518,-0.12874191809076393,-0.4414914518813067
-9617.806648015976,-8016.0,-7340.0,-12080.0,-6344.0,6197.0,7363.0,0.4091016602795383,-0.5875268902704819,0.607147946913997,-0.3447018353936347
-9617.822216749191,-11264.0,-14324.0,-12412.0,-3316.0,-4781.0,-15505.0,0.014834618818510385,-0.9509991889377397,-0.14714953286319304,-0.2715280679826943
-9617.837829351425,-8444.0,-12456.0,-13176.0,2452.0,-15926.0,-25173.0,-0.20854312365179672,-0.3586318288223084,-0.8287216673847607,0.37565060220920704
-9617.853418588638,-920.0,-6092.0,-14244.0,5643.0,-18758.0,-26287.0,-0.17374632047881322,0.6779879436161225,-0.37130143494869733,0.6101473664913202
-9617.869014978409,5848.0,1752.0,-13328.0,2924.0,-13730.0,-17163.0,0.05618140561600789,0.8819270733344476,0.4627531873002045,0.07005551103408766
-9617.884664773941,9628.0,2492.0,-13128.0,-4531.0,156.0,-15592.0,0.2847357856110794,0.13202270944818192,0.9432070605846423,0.10888515714128122
-9617.90024971962,8768.0,-1804.0,-13952.0,-7709.0,10722.0,2001.0,-0.3440015135721575,0.0021458412165775353,0.7248759004897581,0.5968360603337404
-9617.915902614594,4084.0,-8164.0,-16980.0,-3629.0,17867.0,13561.0,-0.9815935754902182,0.017303853721598372,-0.0013211510900878172,0.1901917026647274
-9617.931570529938,-1696.0,-8812.0,-14080.0,337.0,18508.0,19694.0,-0.5101049082283609,-0.12518401271255672,-0.6288217539087271,-0.5733281323759285
-9617.94716835022,-6680.0,-6696.0,-16208.0,5598.0,16793.0,19386.0,0.5771100277383396,-0.23919479898341342,-0.5780194818852035,-0.5249984215064823
-9617.962789297104,-11440.0,-1776.0,-13928.0,4631.0,12363.0,10865.0,0.9994314381909084,0.006917114241326024,0.03297906358661808,-0.0011555306896448836
-9617.978410243988,-12284.0,1448.0,-12248.0,-1830.0,7322.0,-4635.0,0.7744970128878264,-0.13073018731261699,0.5339097888741771,-0.3130564366010927
-9617.994022607803,-10720.0,-2384.0,-13696.0,-9348.0,6714.0,-20052.0,-0.08562125155634015,-0.6720359652353664,0.4505557717245085,-0.5814087712425982
-9618.009599685669,-8268.0,-5604.0,-17144.0,-20433.0,32767.0,32767.0,-0.20074624476906414,0.5366115439901364,0.6983142984803035,-0.4290759100737334
-9618.025167942047,-30596.0,-32768.0,-23872.0,-7934.0,27938.0,25308.0,-0.16646524893219594,0.9306309096643289,-0.19369463918150012,0.2621026852736045
-9618.040753126144,-32768.0,-23740.0,-14008.0,11667.0,-20845.0,-12430.0,-0.4628634575420445,0.5669072713539609,0.5424905092988567,-0.4124046710197375
-9618.056329965591,-18516.0,948.0,-24264.0,25304.0,-32768.0,-32768.0,-0.28473373617357267,-0.675681391647804,0.5464796779682436,-0.40464962378982905
-9618.071995735168,3180.0,25312.0,-17792.0,9435.0,-32515.0,-32768.0,0.15715744430567752,-0.8556773588829365,-0.21529262280312927,0.4435841315477591
-9618.08759188652,14964.0,13352.0,-19588.0,-32768.0,-6562.0,-32768.0,-0.2722128529142893,-0.10352454353804277,-0.956138716571087,-0.03133027716599624
-9618.103203773499,15624.0,-10312.0,-22616.0,-26171.0,15112.0,-32768.0,0.1650650737495187,0.8200333128791077,-0.3832916298733837,-0.39164577575353265
-9618.118796825409,16892.0,-26676.0,-11608.0,-5113.0,17282.0,32767.0,0.6530029461808059,0.07056489115920439,-0.6751424025447846,0.33584294648084095
-9618.134408473969,10732.0,-15456.0,-17352.0,15942.0,23856.0,32767.0,0.2544205650196736,-0.4200316383781459,0.2415862517863425,0.8369466421488687
-9618.150027990341,3248.0,-1048.0,-15520.0,20880.0,31335.0,32767.0,-0.4551190077368784,-0.3478012133807501,0.8196772846130063,-0.0054912527647206465
-9618.165590763092,-3552.0,11920.0,-13128.0,3530.0,28585.0,32739.0,-0.6041360126696792,0.47467527466995835,0.17190259125357807,-0.616565131136108
-9618.181206941605,-10736.0,2068.0,-17464.0,-10779.0,32068.0,12999.0,0.018349877807026987,0.8933821133287472,-0.4453234672661668,0.056733509240731256
-9618.1968023777,-19180.0,-9968.0,-14332.0,-15020.0,18386.0,12546.0,0.7228913218872944,0.11404545340807959,-0.5763546228516431,0.36364422175324895
-9618.212391138077,-24488.0,-21284.0,-13552.0,-2635.0,425.0,-25432.0,0.6450825734089076,0.4962126530682352,-0.15540947874883085,-0.5599012147996654
-9618.227992296219,-19320.0,-12944.0,-14496.0,3943.0,-22543.0,-32768.0,-0.3948412214509326,0.016874856854769846,-0.054554419637106444,-0.9169729899769813
-9618.243587970734,-7636.0,-2116.0,-16592.0,4218.0,-28926.0,-32768.0,-0.7981736139508879,-0.5774587641938934,0.16482874039892237,0.04787216296288389
-9618.259175539017,1676.0,7452.0,-16612.0,-5444.0,-28925.0,-32768.0,-0.13078970806900456,-0.13824338743799827,0.12730972525739576,0.9734346675292485
-9618.274827718735,9532.0,4652.0,-16628.0,-13317.0,-15979.0,-32768.0,0.755955813978912,0.28521454315632605,-0.3445021702985517,0.47801854184037335
-9618.290432214737,12328.0,-628.0,-16220.0,-16269.0,-3830.0,-16475.0,0.7603427127802963,-0.05826390329919733,-0.3799772966547187,-0.5235470663858346
-9618.3060400486,10888.0,-14356.0,-18832.0,-8378.0,13477.0,-11235.0,0.33073600030512734,0.18984698138828113,0.4264161791464015,-0.820207939441035
-9618.321609735489,6240.0,-13384.0,-16892.0,260.0,13252.0,32767.0,0.6718687699121165,0.7294197321020452,0.07639758388201226,0.10345346593493548
-9618.337285041809,-1448.0,-7064.0,-17296.0,7180.0,17636.0,21828.0,-0.036829726346917994,0.41818759295256513,-0.07878513985506695,0.9041878179315227
-9618.352884054184,-8556.0,-484.0,-13512.0,3394.0,12705.0,14340.0,-0.6115031636978302,-0.352104359849803,-0.19043586102495128,0.6825105005770905
-9618.368487119675,-11932.0,-1344.0,-14084.0,-4570.0,4076.0,-7864.0,-0.16278415185185066,-0.16639759770706505,-0.6955586282702931,0.6797141708261932
-9618.384116888046,-12164.0,-5132.0,-14968.0,-8739.0,-5033.0,-28584.0,0.3890816440932947,0.7041344945915312,-0.5508632545093066,0.22217057093009093
-9618.399739265442,-7496.0,-10856.0,-15992.0,-5190.0,-13876.0,-32768.0,0.20522873978768322,0.7202023480408658,0.2704890663438483,-0.6050003365536389
-9618.41532254219,-2212.0,-9508.0,-16888.0,1655.0,-18204.0,-21680.0,-0.23001205777988848,-0.27084301607931055,0.457031679124241,-0.8153898197756704
-9618.430890083313,3216.0,-4040.0,-15748.0,2950.0,-14509.0,-12228.0,-0.23144253661244957,-0.9481038787444404,0.1279016900996911,-0.17656314741696497
-9618.446479797363,5948.0,-472.0,-14988.0,-665.0,-5241.0,-8233.0,-0.2696364728861347,-0.8422750143763079,-0.332461121637092,0.3276256632907771
-9618.462065696716,6504.0,-3848.0,-15376.0,-3463.0,3477.0,2556.0,-0.44682758447056464,-0.841462529321943,-0.2930721103722501,-0.07996661569226451
-9618.477672338486,4572.0,-7716.0,-15972.0,-2057.0,7955.0,17167.0,-0.14149087641373323,-0.5905131455471725,0.3464930073874916,-0.7149945123280521
-9618.493258476257,112.0,-7348.0,-15648.0,523.0,9266.0,27410.0,0.4843761678799386,0.2981501250791975,0.5935312097375695,-0.569391722782007
-9618.508872747421,-4504.0,-4652.0,-15028.0,1146.0,10145.0,20133.0,0.42065639089276197,0.8570861230505811,0.2000006511518056,0.22011660095061805
-9618.52445435524,-7644.0,-3784.0,-14400.0,-316.0,7899.0,11843.0,0.0493553467427893,0.5646152836930552,-0.25197471643708624,0.7843993711398295
-9618.540066242218,-8840.0,-5100.0,-14552.0,-1977.0,3367.0,2501.0,0.04588778111685643,0.2509354920489796,-0.4600169360382741,0.8504764011612942
-9618.555638313293,-8412.0,-6060.0,-15196.0,-1548.0,-1409.0,-6069.0,0.4131478841322062,0.5172835470954582,-0.39079095339982844,0.6395381055748555
-9618.571237564087,-5920.0,-5328.0,-15544.0,-1106.0,-4519.0,-12075.0,0.6515052020540941,0.7567894922571103,-0.0467441363052798,-0.025012433443235827
-9618.58681511879,-2228.0,-4360.0,-15408.0,-1307.0,-4375.0,-12846.0,0.4450311512546884,0.4667964603992897,0.35760968737835636,-0.6753988824870643
-9618.602425336838,564.0,-4604.0,-15844.0,-2872.0,-1802.0,-10601.0,-0.004817466453840402,-0.05855629867447375,0.6376646221314021,-0.7680701670970747
-9618.618023395538,2124.0,-5748.0,-17372.0,-1941.0,82.0,-6122.0,-0.37475125315965224,-0.34274796795215606,0.6425991556699349,-0.5737173989450074
-9618.633613586426,3056.0,-5772.0,-16160.0,-673.0,3354.0,3248.0,-0.38856669504976454,0.027035557603843935,0.6140137366745309,-0.6864926316415438
-9618.649204015732,1112.0,-5020.0,-14172.0,135.0,7353.0,11499.0,-0.06039018615968738,0.6938586475900618,0.2120312663425647,-0.6855333286378259
-9618.66479063034,-2320.0,-5092.0,-14032.0,-893.0,6732.0,8051.0,0.258185967344924,0.9205847383063974,-0.18947781400686686,-0.22352159596487986
-9618.680388450623,-4508.0,-5988.0,-14304.0,-1558.0,3226.0,-630.0,0.40426538902546866,0.9139982877634336,-0.034063466361722326,-0.004038002107753963
-9618.696051120758,-4212.0,-7328.0,-16060.0,-1134.0,-74.0,-3356.0,0.47105972547686664,0.8445997827355043,0.22113808177218613,-0.12590429232919673
-9618.711647987366,-2876.0,-7092.0,-16660.0,853.0,-1233.0,-2044.0,0.3995769277163465,0.8072535993637516,0.3044594749980337,-0.309813384531648
-9618.727229595184,-1880.0,-5724.0,-15996.0,1087.0,-1053.0,-717.0,0.3278362248567982,0.7893679735579265,0.285933950714366,-0.43320132481511414
-9618.742808818817,-1208.0,-4696.0,-15644.0,1091.0,-1459.0,-1249.0,0.23727521595791873,0.7211309838939652,0.28387607001330517,-0.5857345412676681
-9618.758410453796,-288.0,-3864.0,-14900.0,421.0,-1003.0,-1763.0,0.14304195158877125,0.6249513366483759,0.34703871748663384,-0.6844990543984092
-9618.774018526077,644.0,-4212.0,-15132.0,-158.0,136.0,-919.0,0.09222385565017199,0.6013980368654834,0.4070771103804006,-0.6812513397474547
-9618.789593696594,1380.0,-4908.0,-14896.0,-520.0,2340.0,3516.0,0.2299580729188444,0.8074651475954497,0.25542733901151526,-0.47945405890826126
-9618.805170536041,956.0,-5800.0,-15048.0,415.0,5165.0,11652.0,0.382923146915635,0.8633776813464817,-0.32033170721094895,0.07305094293928852
-9618.820749282837,-912.0,-5796.0,-15580.0,1833.0,6901.0,13169.0,0.21475618920828507,0.31140248047213553,-0.6502927682247232,0.6588077033149832
-9618.836346387863,-2776.0,-4612.0,-15148.0,1979.0,6647.0,10877.0,-0.05797528141829337,-0.43227717944478056,-0.4700509723334283,0.767350891238248
-9618.851980924606,-4356.0,-4512.0,-15212.0,815.0,3944.0,4621.0,-0.15418201851172558,-0.7849105019622601,-0.23041211565387423,0.5541242333961841
-9618.867580413818,-4968.0,-4652.0,-14968.0,-442.0,591.0,-1904.0,-0.0791050488885169,-0.7574531725094957,-0.38419109097461507,0.5219236422230559
-9618.88319849968,-3932.0,-5400.0,-15256.0,-1159.0,-1912.0,-7066.0,0.08575396355384472,-0.35738257437361093,-0.7481092615281049,0.5525002136513341
-9618.898817777634,-2176.0,-6176.0,-15460.0,-636.0,-3105.0,-8098.0,0.2020151804671314,0.25180478456635697,-0.8401945787525797,0.43572616075362974
-9618.914467334747,360.0,-5980.0,-15584.0,-97.0,-1954.0,-5435.0,0.23872593212156587,0.6454910149163055,-0.6778223515064711,0.2586660758453747
-9618.930137634277,1656.0,-5372.0,-15524.0,-32.0,981.0,-602.0,0.31029631166823446,0.6550363917805534,-0.6212008021442744,0.2979145646381079
-9618.945732593536,1500.0,-5460.0,-15560.0,83.0,3527.0,3996.0,0.35596646028579043,0.3164595516886771,-0.6819498408367869,0.5550546332382852
-9618.96135520935,-260.0,-5564.0,-15612.0,184.0,4414.0,5068.0,0.3173303215871039,-0.16663505681132323,-0.5831698511657522,0.7290042177753342
-9618.976979017258,-2076.0,-5512.0,-15224.0,275.0,3459.0,3073.0,0.2797457324019555,-0.4964731235250533,-0.39440590240121126,0.7209027305894025
-9618.992584705353,-2992.0,-5260.0,-15292.0,119.0,1309.0,-523.0,0.3600397726887869,-0.5538891265686158,-0.3749257316834499,0.6503913385592496
-9619.008169651031,-2664.0,-5120.0,-15272.0,-457.0,-756.0,-5037.0,0.5469880691936925,-0.3294386236707414,-0.6101926517414482,0.46897672986452515
-9619.023785591125,-1272.0,-5260.0,-15080.0,-663.0,-1654.0,-5818.0,0.5986090377726011,0.014340451357508853,-0.7805013398983186,0.17966421393464213
-9619.039377689362,208.0,-5636.0,-14916.0,-686.0,-709.0,-4800.0,0.5757555827081302,0.29100030275604827,-0.756252657394189,-0.10911576861543369
-9619.05497455597,840.0,-5960.0,-15308.0,-356.0,300.0,-1088.0,0.590881492712765,0.3459487962045679,-0.7066018080206236,-0.17858436907000286
-9619.07063126564,556.0,-5708.0,-15480.0,-83.0,1645.0,1603.0,0.7055648059279859,0.2632487079102756,-0.6560142825943496,-0.05023627625127949
-9619.086252450943,-340.0,-5256.0,-15288.0,-95.0,2160.0,2219.0,0.8118040488926972,0.13500396078193025,-0.5539278341160857,0.12614305912762894
-9619.101841688156,-1036.0,-5296.0,-15244.0,-142.0,1626.0,974.0,0.8693263777809201,0.059120897328237686,-0.445958498760602,0.2046885091464564
-9619.117429971695,-1700.0,-5352.0,-15184.0,-134.0,355.0,-775.0,0.8950128023072367,0.07248086099074884,-0.41652703344453945,0.14214020861838592
-9619.13300538063,-1464.0,-5232.0,-15216.0,-221.0,-462.0,-2985.0,0.8860968147026638,0.16375241168807617,-0.4222636128138632,-0.09854452766904667
-9619.148604154587,-1068.0,-5084.0,-14972.0,-257.0,-852.0,-3376.0,0.7932097963546498,0.24963356990678748,-0.41896296401540045,-0.364652347484612
-9619.164176940918,228.0,-6112.0,-15700.0,-60.0,-1112.0,-2533.0,0.6543223016514107,0.29430636280374617,-0.42683871016038527,-0.5505041379349012
-9619.179800271988,752.0,-5408.0,-15604.0,223.0,-116.0,891.0,0.6847438697322991,0.26750620915119605,-0.4657789146652787,-0.4925609237270326
-9619.195354700089,572.0,-5044.0,-15612.0,227.0,1340.0,1312.0,0.779684413900142,0.28162307822503896,-0.42066129406881736,-0.36854407091227703
-9619.21093082428,-372.0,-5440.0,-15596.0,-426.0,1449.0,840.0,0.8605404235449462,0.2655023738956057,-0.32557410111848994,-0.2880627945114912
-9619.22648525238,-1112.0,-5736.0,-15508.0,-289.0,608.0,429.0,0.8930444074655743,0.24640931704035737,-0.2821438136411455,-0.24929701802106732
-9619.242060184479,-1484.0,-5468.0,-15280.0,-216.0,-250.0,-514.0,0.8790093105743647,0.23657343891733582,-0.2857074044026703,-0.29957790137440793
-9619.25764632225,-1384.0,-5184.0,-15416.0,-298.0,-833.0,-2787.0,0.7668483364593014,0.2534289860296041,-0.27568168635274143,-0.5212647942450339
-9619.273241519928,-1052.0,-5340.0,-15516.0,-367.0,-1164.0,-3724.0,0.546367232055158,0.25138812252969506,-0.24101064729562105,-0.7617090832316007
-9619.288897514343,-696.0,-5372.0,-15368.0,-325.0,-1531.0,-3393.0,0.28107203684710136,0.19557844089717333,-0.20734806588783317,-0.9163811232950116
-9619.30452632904,-120.0,-5292.0,-15416.0,-342.0,-982.0,-2617.0,0.058039914602659726,0.1517574815473333,-0.15489028281805456,-0.9744793663263834
-9619.320109844208,-8.0,-5220.0,-15380.0,-329.0,-296.0,-1992.0,-0.10935394157003867,0.14978643929503938,-0.10042378113870887,-0.9775074435768839
-9619.335720539093,-368.0,-5288.0,-15544.0,-367.0,105.0,-954.0,-0.18432078185623454,0.17022359176625507,-0.057306078333622494,-0.966315575559104
-9619.35129070282,-636.0,-5372.0,-15456.0,-332.0,247.0,-631.0,-0.23089409657549118,0.19940353315374898,-0.02371190972814925,-0.9520314556092323
-9619.366893291473,-700.0,-5448.0,-15272.0,-121.0,46.0,-697.0,-0.2860758522278484,0.20698900241464066,-0.00229416200926734,-0.9355805130891609
-9619.382486104965,-616.0,-5300.0,-15328.0,-152.0,-117.0,-750.0,-0.34381694882453956,0.20119899544233824,0.026685972000093552,-0.9168406234631994
-9619.398062705994,-276.0,-5248.0,-15368.0,-168.0,-57.0,-575.0,-0.3862122347969224,0.2003255956215512,0.05204581558899779,-0.8988887575844486
-9619.413626909256,-292.0,-5404.0,-15268.0,-232.0,149.0,-481.0,-0.4200674467561068,0.21764276174177424,0.0737406972482969,-0.8779164413579197
-9619.429192781448,-336.0,-5532.0,-15372.0,-267.0,412.0,232.0,-0.3994139047328846,0.2604399647899298,0.07479825046573539,-0.8758109266123115
-9619.44476222992,-280.0,-5464.0,-15308.0,-129.0,565.0,753.0,-0.3414397880711027,0.3122127171143466,0.047869552211116356,-0.8852404172681819
-9619.460334300995,-872.0,-5288.0,-15320.0,-154.0,478.0,66.0,-0.3338092361382352,0.353925158890179,0.04382769941366767,-0.8725752165501118
-9619.475953817368,-1068.0,-5256.0,-15436.0,-245.0,128.0,-978.0,-0.3996199706890721,0.365903191961313,0.08873811497493622,-0.835789614729498
-9619.491586208344,-1060.0,-5216.0,-15480.0,-271.0,-507.0,-1938.0,-0.520322684321136,0.31871464803862015,0.18533720879029075,-0.7702826730131543
-9619.507217884064,-780.0,-5340.0,-15412.0,-326.0,-680.0,-2307.0,-0.6410451812951149,0.24529723438761372,0.2958967473930546,-0.6643308341649604
-9619.522799491882,-468.0,-5252.0,-15428.0,-530.0,-653.0,-3068.0,-0.7617854977522278,0.15231570133101563,0.4133972914075401,-0.4749583792284759
-9619.538413763046,-204.0,-5292.0,-15144.0,-455.0,-466.0,-2109.0,-0.8112839141676104,0.08575274612845804,0.48263168721547767,-0.318640128734362
-9619.554028272629,-124.0,-5468.0,-15500.0,-331.0,-101.0,-1292.0,-0.8346529867918779,0.05174634370535671,0.5054752340763926,-0.21253586823861143
-9619.569612979889,-124.0,-5332.0,-15608.0,-249.0,205.0,-998.0,-0.8573391152072777,0.029659073924930977,0.49784953390134745,-0.12741986683295847
-9619.585234880447,-24.0,-5376.0,-15556.0,-261.0,403.0,-368.0,-0.8768913739921439,0.03774366552323534,0.47116326346843057,-0.08741918032570661
-9619.60085606575,-588.0,-5408.0,-15416.0,-271.0,406.0,-358.0,-0.8940368336267723,0.046926706750345396,0.44298707832943673,-0.04752339155964584
-9619.616433382034,-744.0,-5332.0,-15436.0,-211.0,147.0,-719.0,-0.899711340010761,0.036268858255310545,0.4346340716472393,0.01724234149525967
-9619.63206076622,-760.0,-5256.0,-15500.0,-215.0,-135.0,-1391.0,-0.8849814844073324,0.000729910357991871,0.4461920587357077,0.13311606292350547
-9619.647618055344,-588.0,-5280.0,-15136.0,-359.0,-503.0,-1265.0,-0.8442037675234495,-0.014725487185657209,0.4776238028373912,0.2428552282523635
-9619.663204908371,-268.0,-5304.0,-15548.0,-361.0,-228.0,-1876.0,-0.7843117972418363,-0.06054536832373902,0.4779429031102613,0.39084503891997774
-9619.67882490158,-232.0,-5164.0,-15512.0,-370.0,-466.0,-960.0,-0.7304369938103753,-0.05901872545297614,0.49004599543643823,0.4720524446244065
-9619.694454669952,-164.0,-5300.0,-15428.0,-197.0,-155.0,-388.0,-0.7081674663658858,-0.05656425213200184,0.4896854106317583,0.5054775203469245
-9619.710025310516,-168.0,-5240.0,-15556.0,-76.0,-37.0,-300.0,-0.693379619886099,-0.06297727084212114,0.48722931676327214,0.5271301157876316
-9619.725596904755,-240.0,-5144.0,-15340.0,-232.0,182.0,-445.0,-0.6811003394718779,-0.07610411888264117,0.4628696457332238,0.5621940783387793
-9619.741158723831,-284.0,-5216.0,-15312.0,-303.0,308.0,-400.0,-0.6749675497241285,-0.08920978977080767,0.42675264650844297,0.5952668300237249
-9619.756724834442,-400.0,-5412.0,-15556.0,-262.0,184.0,-1.0,-0.6834781499320265,-0.08331393377596925,0.40241438484572667,0.6033067792371501
-9619.772290945053,-492.0,-5392.0,-15472.0,-167.0,54.0,-94.0,-0.6814767228814903,-0.07945276548142903,0.38993477898522183,0.6141885723178214
-9619.787969827652,-564.0,-5232.0,-15540.0,-175.0,-100.0,-285.0,-0.6636426071282852,-0.07331827327103976,0.3846259156062372,0.6373898538983732
-9619.803549051285,-580.0,-5192.0,-15360.0,-167.0,-309.0,-987.0,-0.596886741849916,-0.07922447197868607,0.3855870933305844,0.6991225170886441
-9619.819138288498,-344.0,-5212.0,-15168.0,-236.0,-410.0,-985.0,-0.5222007832246222,-0.07470112957706038,0.3842673125640028,0.7576705852376356
-9619.834713220596,-96.0,-5228.0,-15340.0,-231.0,-263.0,-522.0,-0.479607884308144,-0.06417467140255718,0.37728343978501516,0.7896297201371201
-9619.850291967392,112.0,-5316.0,-15384.0,-143.0,44.0,511.0,-0.5164872200466909,-0.04431847623741512,0.3683243609305493,0.771760318581836
-9619.865883111954,24.0,-5336.0,-15452.0,-46.0,337.0,1728.0,-0.6363881723309693,-0.009229401784935332,0.3528455535052011,0.6858753003509814
-9619.881527662277,-124.0,-5256.0,-15752.0,50.0,632.0,2547.0,-0.7878299735841175,0.027985692609455073,0.3148975620560102,0.5285643377516107
-9619.897149324417,-400.0,-5160.0,-15556.0,-5.0,652.0,2531.0,-0.8993430447974964,0.06628921076419753,0.25729174390697074,0.3472589621995926
-9619.912759780884,-604.0,-5148.0,-15492.0,-60.0,547.0,2142.0,-0.9584509804067951,0.10089933431522256,0.1967207207924553,0.1802553757947179
-9619.928400754929,-752.0,-5260.0,-15408.0,-67.0,432.0,1707.0,-0.9805473562107117,0.12779503892475175,0.1429701813984673,0.041890780433099954
-9619.944088697433,-724.0,-5324.0,-15536.0,-78.0,331.0,1289.0,-0.9818390196650687,0.1486408823993473,0.09942604914700902,-0.06334420489434371
-9619.959706068039,-660.0,-5256.0,-15420.0,-73.0,266.0,1317.0,-0.9692009592022676,0.1669549659201494,0.059629519862817656,-0.17093817711949572
-9619.975303649902,-580.0,-5260.0,-15476.0,41.0,213.0,1300.0,-0.9452265003428573,0.17260498530289145,0.021983292288291927,-0.2761722595742569
-9619.99095416069,-528.0,-5028.0,-15564.0,-24.0,270.0,1254.0,-0.9094258377893443,0.18267220776530108,-0.018431902302762853,-0.3731431026413344
-9620.006583929062,-440.0,-5024.0,-15512.0,-125.0,324.0,891.0,-0.8748059134542774,0.20132690567516698,-0.0540578519062345,-0.4373326416859067
