programtime,ax,ay,az,gx,gy,gz,q0,q1,q2,q3
-9607.000336885452,1656.0,-2108.0,16316.0,144.0,-175.0,63.0,0.9997894787595528,0.01230427761932287,-0.015472232399966165,0.005496629742812915
-9607.015974283218,1628.0,-2212.0,16140.0,89.0,-131.0,49.0,0.9993913330137538,0.01976189058058791,-0.02704144495610848,0.00975660967543175
-9607.031557798386,1624.0,-2124.0,16260.0,128.0,-177.0,41.0,0.9985360984565506,0.03065588845564725,-0.04252056520017169,0.013337095531748848
-9607.047145605087,1656.0,-2208.0,16288.0,139.0,-180.0,66.0,0.9972184405137198,0.042396455804692264,-0.05823940597964917,0.01913358371354136
-9607.062713861465,1684.0,-2116.0,16308.0,102.0,-166.0,25.0,0.9958269140895704,0.05108852846130106,-0.07258128899753735,0.021229129090902358
-9607.078304767609,1652.0,-2188.0,16304.0,115.0,-155.0,35.0,0.9941458659011505,0.06081819605680746,-0.08592673492697633,0.024325718177204185
-9607.093934297562,1656.0,-2168.0,16320.0,79.0,-220.0,31.0,0.9918304706998482,0.06757962781224439,-0.10490629468837429,0.02645714706524488
-9607.109522104263,1728.0,-2104.0,16340.0,115.0,-240.0,37.0,0.9886349404585543,0.07742883233159945,-0.1254847243457937,0.029314064613017016
-9607.125158071518,1668.0,-2164.0,16384.0,95.0,-8.0,32.0,0.9878271071376802,0.08501049661162156,-0.1260005556621358,0.033085976526023284
-9607.140750169754,1612.0,-2084.0,16376.0,102.0,-249.0,16.0,0.984060779706071,0.09404029257578106,-0.14711004709446132,0.0337555811741768
-9607.156325101852,1712.0,-2116.0,16372.0,91.0,-230.0,-26.0,0.9802600820290575,0.10257609409484966,-0.1661874474386145,0.030822861879905364
-9607.171924829483,1708.0,-2124.0,16364.0,86.0,-197.0,-39.0,0.9766195106884157,0.11075669446207731,-0.18226000149518506,0.0269921808961202
-9607.187499761581,1720.0,-2108.0,16156.0,109.0,-229.0,-23.0,0.9718025842869046,0.12068101266048896,-0.20107706958403776,0.024573205815049366
-9607.203078269958,1692.0,-2300.0,16468.0,106.0,-182.0,-67.0,0.9675259801714794,0.13098231443440211,-0.2153636322128316,0.018857807898096202
-9607.2186460495,1664.0,-2136.0,16372.0,60.0,-176.0,-102.0,0.9636089411478451,0.13801167471247533,-0.2287411525542949,0.009384631645364142
-9607.234248638153,1632.0,-2096.0,16364.0,38.0,-193.0,-71.0,0.9592744476023952,0.1425477455439376,-0.24386301845290445,0.0018715364005691447
-9607.249841690063,1680.0,-2176.0,16356.0,71.0,-194.0,-31.0,0.954190225359863,0.14895487131240692,-0.2594819755598804,-0.0016014054889200503
-9607.265424251556,1760.0,-2148.0,16280.0,84.0,-162.0,-60.0,0.9493725468050013,0.15706834560718266,-0.2719841564362066,-0.006776490898191706
-9607.280999422073,1808.0,-2092.0,16456.0,92.0,-75.0,-83.0,0.9462932645625581,0.16641446660445677,-0.27691097875474047,-0.012473676017206425
-9607.29658961296,1784.0,-2300.0,16416.0,110.0,-34.0,-111.0,0.943749394470379,0.17793654305034848,-0.2780239702220625,-0.019450939978475284
-9607.312172412872,1700.0,-1960.0,16312.0,90.0,255.0,-109.0,0.9481330857063657,0.18817766583949846,-0.25522037144353515,-0.022257130730332964
-9607.3278632164,1688.0,-1960.0,16440.0,69.0,-51.0,-151.0,0.9455495183843644,0.1969257116494457,-0.2569014692019436,-0.03402950919920498
-9607.343450069427,1644.0,-1952.0,16348.0,100.0,-36.0,-165.0,0.942484744966836,0.20853740560831827,-0.25713585418079576,-0.045997918014432086
-9607.359040260315,1580.0,-2048.0,16344.0,73.0,-1.0,-218.0,0.9401594566233515,0.2191824599718816,-0.2533383268720598,-0.06228111672107479
-9607.374641418457,1468.0,-2084.0,16408.0,98.0,17.0,-219.0,0.9373550801061065,0.23190227540228547,-0.248082880537387,-0.07772819853045355
-9607.390223741531,1576.0,-2144.0,16628.0,123.0,76.0,-183.0,0.9351680874999255,0.24618258820897423,-0.23880615435282135,-0.08846695443881147
-9607.405799150467,1592.0,-2276.0,16400.0,112.0,169.0,-217.0,0.9343866144374253,0.2608490292096092,-0.2210112378225988,-0.10016721757487981
-9607.421366214752,1624.0,-2088.0,16656.0,156.0,311.0,-253.0,0.9340560261259779,0.28075113576139105,-0.1909992981242516,-0.11062281836257136
-9607.436958551407,1604.0,-1948.0,16740.0,200.0,428.0,-225.0,0.9332373674164781,0.30439094448640197,-0.1522670260336316,-0.11501704984527604
-9607.452539205551,1308.0,-1540.0,16752.0,194.0,617.0,-374.0,0.9306446970473408,0.33041796750436087,-0.09374337146003928,-0.12624022700888846
-9607.468122005463,1520.0,-1740.0,16648.0,228.0,699.0,-424.0,0.9226846892801778,0.3588809994504407,-0.027141056304690804,-0.13827781985575333
-9607.483747720718,1384.0,-1824.0,16444.0,267.0,743.0,-499.0,0.9071505904708178,0.38900484681714875,0.04495097157225889,-0.15405338527901177
-9607.499334335327,1300.0,-1552.0,16400.0,352.0,700.0,-566.0,0.8818166060643525,0.42234785757477283,0.11441726728400708,-0.1758705473307168
-9607.514917850494,1288.0,-1768.0,16328.0,342.0,717.0,-639.0,0.8489949407805433,0.4513188361577448,0.18711547996661543,-0.20126275317386444
-9607.530504226685,1292.0,-1640.0,16440.0,381.0,643.0,-724.0,0.8075528882056956,0.47689456987995704,0.2554736398761798,-0.23486830628687674
-9607.54612994194,1280.0,-1676.0,16788.0,331.0,662.0,-733.0,0.7609554726374067,0.4952681209598486,0.3244551358945084,-0.2653019446136
-9607.561732769012,1360.0,-1668.0,16984.0,267.0,747.0,-796.0,0.7065381446129378,0.505215679520675,0.4003108899879326,-0.2920824519385566
-9607.577340126038,1512.0,-1868.0,17148.0,123.0,1014.0,-843.0,0.6400266098508625,0.5057347559635396,0.49353783896244885,-0.30169305064185187
-9607.592906475067,1580.0,-2048.0,17116.0,-7.0,1251.0,-806.0,0.5605964183887682,0.4993001200719189,0.5941494346401563,-0.2888208702684682
-9607.608515739441,1712.0,-2396.0,16500.0,-36.0,1425.0,-711.0,0.46592882008909037,0.4918103214635569,0.6891097450384088,-0.25721722649426104
-9607.624081134796,1676.0,-2748.0,16336.0,100.0,1429.0,-550.0,0.36017099947396825,0.49046816978630814,0.7617692459888693,-0.2223183335443609
-9607.639683961868,1700.0,-3028.0,15612.0,330.0,1150.0,-329.0,0.26169677370872635,0.4983504544962911,0.8009090232927194,-0.2042213493787714
-9607.655284643173,1768.0,-2972.0,15544.0,440.0,903.0,56.0,0.1797549811714149,0.5263774621113356,0.8081387334699713,-0.19371809825321973
-9607.670860290527,1648.0,-2600.0,16044.0,305.0,522.0,344.0,0.13449945342726105,0.5632129143059809,0.793897458599853,-0.18554766345989518
-9607.686453580856,1700.0,-2284.0,16892.0,253.0,411.0,594.0,0.10297732057948311,0.6126343554080911,0.7637141273002052,-0.17554358371091033
-9607.702036619186,1808.0,-1924.0,17400.0,-343.0,708.0,662.0,0.08393145791037071,0.6618702768633802,0.7369670778552606,-0.10845631901973354
-9607.71761727333,1732.0,-1708.0,17252.0,-263.0,1257.0,581.0,0.023584802728994058,0.7039123915837288,0.7097457804158743,-0.014561223745659697
-9607.733199596405,1432.0,-1824.0,17016.0,-369.0,1771.0,317.0,-0.062276384137459256,0.7159016371070713,0.6856261527306594,0.11628962403384613
-9607.748792648315,976.0,-1880.0,16424.0,-222.0,2002.0,57.0,-0.1662714267074361,0.6896044049901422,0.6588054029718886,0.2505494328349461
-9607.764374494553,608.0,-1944.0,15888.0,-87.0,1963.0,-100.0,-0.2678522012603516,0.6329004907440554,0.625256342910717,0.3697927429599364
-9607.779999494553,312.0,-1972.0,15776.0,-72.0,1716.0,-274.0,-0.34478748715390384,0.5578133204871618,0.5911351124110408,0.4696010722559838
-9607.79558300972,308.0,-1980.0,15684.0,-172.0,1375.0,-308.0,-0.39180077311196737,0.48696238321494234,0.5534048840762438,0.5505477507020147
-9607.811155080795,488.0,-2028.0,15744.0,-211.0,1063.0,-443.0,-0.41081758708124855,0.41945000616951644,0.5229317629044552,0.6179263498304408
-9607.82672405243,244.0,-2100.0,15780.0,-254.0,796.0,-766.0,-0.39467383694467423,0.3488880904461008,0.5061547029762011,0.6828741314702995
-9607.842307806015,316.0,-1940.0,15960.0,-508.0,663.0,-689.0,-0.36585636836093816,0.2950439609978448,0.47178403624834486,0.7460013417881152
-9607.85790348053,396.0,-1920.0,15840.0,-259.0,456.0,-789.0,-0.3255327895962914,0.24023818837687938,0.45895816185621785,0.7909939452414371
-9607.873497486115,440.0,-1892.0,16040.0,-254.0,303.0,-941.0,-0.2663699349595887,0.18802746410952528,0.4505898204371132,0.8310604937118691
-9607.889081478119,460.0,-2384.0,16312.0,-235.0,236.0,-996.0,-0.1987544361458461,0.13657449396487917,0.44236258631828235,0.8638052002253656
-9607.904705762863,644.0,-2632.0,16380.0,-208.0,225.0,-984.0,-0.13027926954799643,0.08484631985241534,0.43256163238337697,0.8880984450630293
-9607.920374393463,808.0,-2628.0,16412.0,-160.0,409.0,-963.0,-0.06961526444536092,0.018504855330441123,0.4206389982881622,0.9043639302872121
-9607.936079740524,1240.0,-2736.0,16220.0,-62.0,490.0,-836.0,-0.021455020531591946,-0.05029823886896492,0.4124233144530503,0.9093496461517044
-9607.951707363129,1068.0,-2668.0,16164.0,37.0,397.0,-600.0,0.012008402751765084,-0.10323593652659738,0.4109574827704642,0.9057108186544927
-9607.967299938202,1116.0,-2620.0,16172.0,57.0,192.0,-408.0,0.03785857079299122,-0.1328281641293555,0.4114596517858576,0.9009019715728221
-9607.982960939407,1080.0,-2712.0,16292.0,6.0,58.0,-218.0,0.052981390900741804,-0.14510508530615238,0.40931663922475575,0.8992204264196118
-9607.99852514267,940.0,-2696.0,16328.0,-39.0,-24.0,-60.0,0.05806020085283065,-0.14547451745759996,0.40517699432620863,0.9007207009479613
-9608.014132261276,1016.0,-2624.0,16332.0,-45.0,-26.0,100.0,0.050550978808311726,-0.14004499149029573,0.40255780759037946,0.9032049659119638
-9608.029714345932,848.0,-2452.0,16224.0,-33.0,-39.0,178.0,0.037486599811146284,-0.13077620254967476,0.40170484914637883,0.9056078366785318
-9608.045331716537,956.0,-2428.0,16228.0,-241.0,18.0,133.0,0.02358799527144478,-0.1282191880156042,0.3839143606083155,0.91411881614066
-9608.06091594696,864.0,-2352.0,16304.0,14.0,3.0,131.0,0.013193298912599152,-0.12396106822184473,0.3862672350393743,0.9139240742885257
-9608.076535463333,792.0,-2372.0,16164.0,-251.0,39.0,89.0,0.002063670759944805,-0.12425790010846038,0.3669376207108239,0.9219069899022948
-9608.092119216919,852.0,-2340.0,16480.0,-19.0,100.0,-253.0,0.01900789392958371,-0.14029714183319927,0.36236277803187367,0.9212212704116314
-9608.107748746872,776.0,-2320.0,16412.0,-7.0,132.0,-119.0,0.02431610475048649,-0.15458791380803405,0.360303641473727,0.9196154576207466
-9608.123334169388,812.0,-2220.0,16284.0,64.0,71.0,-181.0,0.037473525776685064,-0.16573045087322646,0.36288119679708725,0.9162130699407943
-9608.138921499252,792.0,-2256.0,16024.0,61.0,-33.0,-199.0,0.05531267831352953,-0.16907788293895976,0.3645045533392364,0.9140512062864024
-9608.154503583908,684.0,-2288.0,16216.0,43.0,-181.0,-189.0,0.07677390237176705,-0.16031262080790545,0.363967734695207,0.9142937819022673
-9608.170078754425,716.0,-2400.0,16332.0,28.0,-248.0,-222.0,0.10272914722290145,-0.1472402942234758,0.3610699471298868,0.915093170856094
-9608.18565583229,656.0,-2276.0,16244.0,-19.0,-250.0,-222.0,0.12805553874834505,-0.13430269313960594,0.35408998446317524,0.9166159765758984
-9608.201229810715,740.0,-2300.0,16112.0,-24.0,-282.0,-160.0,0.14924694109358305,-0.11683156369700753,0.3467802697909181,0.918596310019836
-9608.216851234436,804.0,-2340.0,16256.0,-56.0,-414.0,-206.0,0.17759412104836178,-0.09045749010801217,0.3342900154342831,0.9211557719698474
-9608.232493638992,836.0,-2400.0,16408.0,-83.0,-392.0,-155.0,0.20071612070564943,-0.06464463396537845,0.31985031267491293,0.9237044373987373
-9608.248086214066,828.0,-2544.0,16448.0,-91.0,-352.0,-122.0,0.21976200588875874,-0.04119692683769,0.3052355124722899,0.9256558517681709
-9608.2636885643,976.0,-2488.0,16496.0,-42.0,-311.0,-71.0,0.2335593795800484,-0.01872452076900735,0.2952449009248728,0.9262450307613077
-9608.279299259186,800.0,-2412.0,16224.0,-43.0,-292.0,-29.0,0.24329599708930644,0.0032744925841191467,0.2854064877410094,0.9270056484477199
-9608.294888973236,988.0,-2052.0,16404.0,12.0,-293.0,-25.0,0.2525475254379383,0.026612829516935187,0.27979962417808474,0.9258637453805388
-9608.31048130989,948.0,-2356.0,16452.0,25.0,-155.0,-77.0,0.2624837428073661,0.03779209232572012,0.27827814434573894,0.9231659205684386
-9608.32607126236,820.0,-2336.0,16524.0,76.0,-65.0,-166.0,0.2771664477381949,0.04070824729568285,0.28314941910275765,0.9172502413802217
-9608.341669082642,928.0,-2336.0,16504.0,96.0,43.0,-96.0,0.28344649651794146,0.03718806586516299,0.29192572294513075,0.912718195091933
-9608.35731601715,840.0,-2304.0,16324.0,133.0,68.0,-231.0,0.2996205703500132,0.029143599604272406,0.3046005121468425,0.9036573977039749
-9608.372892141342,812.0,-2348.0,16256.0,147.0,50.0,-500.0,0.33702823402168286,0.015715874487456878,0.31818176807663695,0.8859601250761489
-9608.388499736786,788.0,-2448.0,16464.0,104.0,251.0,-292.0,0.3523137999923715,-0.00875134000912077,0.33355029992640106,0.8743812656970572
-9608.40409207344,808.0,-2484.0,16280.0,89.0,22.0,-225.0,0.36886579631452854,-0.014239321294895023,0.3405199573238182,0.8647435600815392
-9608.419718503952,848.0,-2436.0,16216.0,46.0,40.0,-255.0,0.3869174250342077,-0.023345714903319572,0.34462439224758185,0.8549759716322654
-9608.43530368805,720.0,-2560.0,16192.0,50.0,-67.0,-217.0,0.4051862901283528,-0.023174539058150565,0.3453328970506101,0.8461868595328679
-9608.450901269913,708.0,-2364.0,16260.0,70.0,-196.0,-186.0,0.4248898500913205,-0.011819846572876408,0.34284622825978406,0.8377263098914876
-9608.466490268707,756.0,-2360.0,16352.0,30.0,-280.0,-235.0,0.450295180793923,0.002731546559525123,0.33399337031303267,0.8280550811353691
-9608.48206782341,732.0,-2504.0,16284.0,21.0,-232.0,-146.0,0.467516064860348,0.016050986188210322,0.3260819114343474,0.8214874813259196
-9608.497648477554,804.0,-2384.0,16148.0,81.0,-211.0,-132.0,0.48279214862953407,0.030700338277608052,0.3231264460181578,0.8133624839731621
-9608.513222694397,792.0,-2508.0,15880.0,106.0,-270.0,-81.0,0.4957489495147163,0.05200099457845545,0.3191276151875884,0.8060312902379094
-9608.528850078583,824.0,-2380.0,16312.0,128.0,-287.0,-60.0,0.5072324215085232,0.07598589360340878,0.3156117028496021,0.7983299240090312
-9608.544465065002,920.0,-2428.0,16412.0,90.0,-313.0,-65.0,0.519615090622257,0.09988991825349157,0.3080787100990005,0.7906387735323066
-9608.560067176819,864.0,-2412.0,16508.0,84.0,-232.0,-68.0,0.5297287297936893,0.11777704431821426,0.3036264648474919,0.7831519715272666
-9608.575626850128,820.0,-2412.0,16416.0,71.0,-167.0,-38.0,0.5359998776900091,0.13136412591528657,0.30087025136190493,0.7777690463011704
-9608.591245412827,904.0,-2408.0,16488.0,52.0,-158.0,-76.0,0.5446905210680539,0.14241565803472186,0.2976061285383322,0.7710127164071776
-9608.6068212986,852.0,-2440.0,16536.0,94.0,-94.0,-155.0,0.5563558694886057,0.1490596093372338,0.3011104577955775,0.759988073298487
-9608.622418880463,852.0,-2456.0,16360.0,91.0,-83.0,-115.0,0.5649719880960661,0.1558418402728973,0.30435186775647866,0.7509260376896503
-9608.638005971909,840.0,-2520.0,16368.0,89.0,-116.0,-102.0,0.5735117837195448,0.164998307317031,0.3055914522402969,0.7419391193588643
-9608.65358042717,820.0,-2548.0,16320.0,139.0,-115.0,-175.0,0.5858243237874997,0.1745843290778626,0.31106252114152133,0.7277157973003143
-9608.669178724289,908.0,-2528.0,16284.0,141.0,-128.0,-124.0,0.594967071962974,0.1864109184246296,0.31508642368075734,0.715531759172129
-9608.684770584106,884.0,-2324.0,16156.0,155.0,-119.0,-145.0,0.6046963736431643,0.19774726245043048,0.32066496812995254,0.7017209517396382
-9608.700354337692,892.0,-2464.0,16416.0,158.0,-15.0,-99.0,0.6084332261118329,0.20409248137965308,0.331012776337385,0.6917989666867532
-9608.715980052948,828.0,-2392.0,16400.0,161.0,44.0,-139.0,0.6126409991458605,0.20581930700524143,0.34528799750586014,0.6805039440060853
-9608.731564283371,864.0,-2452.0,16384.0,156.0,48.0,-62.0,0.6120692326206625,0.20930878048994192,0.3579993202065838,0.6733480345412693
-9608.747255563736,796.0,-2444.0,16324.0,169.0,11.0,-89.0,0.6138508351568481,0.21477432356505113,0.3699049603944055,0.6634978993109383
-9608.7628262043,744.0,-2516.0,16312.0,143.0,-32.0,-75.0,0.6165522876892214,0.22174125738799352,0.37765493958022395,0.6542712265779662
-9608.778424263,840.0,-2440.0,16376.0,95.0,-60.0,-55.0,0.6198646934451933,0.22835199510608023,0.38071196157015097,0.6470560489390214
-9608.793995141983,892.0,-2448.0,16212.0,76.0,-106.0,236.0,0.6084440696046322,0.24612364608862883,0.3742829065812084,0.6550811177557443
-9608.809559822083,892.0,-2444.0,15968.0,120.0,-108.0,60.0,0.6059633997392617,0.26049701197314695,0.3739039318255992,0.6520318356452048
-9608.825166940689,976.0,-2440.0,16328.0,167.0,-155.0,-1.0,0.6072301808837722,0.27795716430828826,0.3749901039664474,0.6429570313487439
-9608.84076833725,1072.0,-2464.0,16300.0,139.0,-132.0,34.0,0.6062511854196861,0.29369536957336906,0.3747528517859168,0.6369951570826188
-9608.856341123581,1108.0,-2404.0,16404.0,200.0,-81.0,-16.0,0.6046249644413325,0.3080957656371058,0.3817721671820289,0.6274995330165115
-9608.871954917908,1028.0,-2396.0,16296.0,109.0,-55.0,-20.0,0.6046564839190214,0.3160674912186606,0.38520476321704683,0.6213768324006995
-9608.887591123581,1272.0,-2368.0,16280.0,141.0,-252.0,-49.0,0.6117667552215913,0.3353151149244089,0.38063088395557343,0.6069805112918164
-9608.903267621994,1112.0,-2360.0,16276.0,146.0,-49.0,-63.0,0.6124666249089948,0.3434690995439019,0.38741210019197997,0.5973487052433655
-9608.918925762177,1080.0,-2392.0,16232.0,155.0,-55.0,-46.0,0.6120830167830376,0.3529213589993758,0.3937527133170498,0.5880133465179771
-9608.934661388397,1052.0,-2496.0,16384.0,126.0,-110.0,-10.0,0.6125034796859925,0.36481084060292496,0.3944768124085948,0.5797763210265598
-9608.95025897026,1172.0,-2572.0,16384.0,126.0,-154.0,33.0,0.6121023986988419,0.3803140916841406,0.3913800725377586,0.5722879380119154
-9608.965864658356,1172.0,-2620.0,16268.0,159.0,-131.0,99.0,0.6063072042688167,0.39855184949281813,0.3888366273637815,0.5677623398376694
-9608.981508016586,1180.0,-2568.0,16220.0,194.0,-102.0,188.0,0.5935881520793715,0.42001789098978726,0.38627270036528977,0.5674781739520872
-9608.997126340866,1028.0,-2588.0,16016.0,239.0,-124.0,8.0,0.588521376674659,0.4385890997350119,0.3911761189252924,0.5552147645489459
-9609.012734889984,836.0,-2536.0,16036.0,220.0,-7.0,329.0,0.5641305640584573,0.4610876205136632,0.3885496323373921,0.5640780939857639
-9609.028323173523,868.0,-2408.0,16144.0,191.0,-413.0,388.0,0.5506675599575642,0.5032041700513633,0.36141226759073947,0.5594032306737429
-9609.043950557709,848.0,-2364.0,16012.0,157.0,-525.0,455.0,0.5371482602760376,0.5495799369019226,0.32314791489477274,0.5522762574441032
-9609.059539794922,836.0,-2480.0,15884.0,180.0,-632.0,489.0,0.5215027218171921,0.6006481939709069,0.27795086072994313,0.5385164595778218
-9609.075122833252,1064.0,-2496.0,15216.0,311.0,-718.0,467.0,0.4991533074748131,0.6577158648274456,0.23459809076093016,0.5130492691765247
-9609.090698003769,1164.0,-2444.0,14040.0,603.0,-947.0,534.0,0.45738895762850074,0.7329507573374682,0.18852816566948338,0.46694288677229573
-9609.106286525726,520.0,-2744.0,13000.0,1240.0,-1424.0,381.0,0.38067340669322053,0.8349938486208028,0.15562597508293785,0.3655866327992347
-9609.12193441391,-1292.0,-3296.0,12992.0,2119.0,-2169.0,496.0,0.23171521045050006,0.947844469281499,0.11108534891838258,0.1885708581781258
-9609.137561559677,-1668.0,-3476.0,15084.0,2709.0,-2847.0,15.0,0.03305798546174775,0.9928518250879366,0.09160810263261837,-0.0689954965835875
-9609.153145313263,560.0,-1324.0,20596.0,1910.0,-4314.0,230.0,-0.08930550520438917,0.9006535717507691,0.04411721231399298,-0.4229673060774477
-9609.1687438488,4296.0,-144.0,23996.0,-299.0,-3733.0,-187.0,-0.05544595796270109,0.7264638794995262,0.09405051062094848,-0.6784765869063095
-9609.184344768524,4796.0,-648.0,20680.0,-1517.0,-584.0,-856.0,-0.005097751422973741,0.6833708708525155,0.23796142359876815,-0.6901830385336574
-9609.199979305267,2480.0,-1744.0,16976.0,-1204.0,1144.0,-1017.0,-0.018066973039425418,0.7212754165983213,0.3654037306965585,-0.5881457910154143
-9609.21556854248,880.0,-2576.0,15164.0,-660.0,1253.0,-795.0,-0.05674836836667495,0.7536959743066755,0.44292530767712235,-0.4822231566616825
-9609.231130838394,200.0,-2848.0,14540.0,-128.0,357.0,-431.0,-0.08019750813914708,0.7517077209416628,0.4742914895370994,-0.45116675954423135
-9609.246736764908,-232.0,-2796.0,15024.0,2.0,-232.0,-146.0,-0.07647715629416403,0.736261076964351,0.48526033038248195,-0.4653958346069897
-9609.26229596138,80.0,-2724.0,15640.0,312.0,-538.0,23.0,-0.0727231506471955,0.7122015677853569,0.47397833776477344,-0.5126644180492415
-9609.277872562408,444.0,-2548.0,15764.0,168.0,-553.0,116.0,-0.05504797138762911,0.6902222486580626,0.4621227932703281,-0.5540807632859526
-9609.293486356735,1136.0,-2492.0,15648.0,242.0,-646.0,486.0,-0.020032672888996027,0.6755298763366665,0.42306680149302006,-0.6035499645165725
-9609.309079408646,1932.0,-2484.0,16176.0,294.0,-1004.0,634.0,0.03290300280255243,0.6418127375042492,0.36981575566531777,-0.6709918846346555
-9609.324710130692,2588.0,-2256.0,16980.0,434.0,-1228.0,630.0,0.08444582351848344,0.5867170886343238,0.3031306638261513,-0.7461526395068673
-9609.3403403759,2884.0,-2008.0,17556.0,552.0,-1001.0,454.0,0.11158435112737543,0.5344095181704953,0.23515515571422377,-0.8041501428298579
-9609.355959892273,2672.0,-1500.0,17672.0,454.0,-394.0,306.0,0.11976608981560906,0.5164154381554278,0.1848105634762741,-0.8275362436731087
-9609.371549129486,2096.0,-1312.0,17356.0,168.0,228.0,229.0,0.12499862216120253,0.5379066755210685,0.1646140142025124,-0.8172722797304507
-9609.38713669777,1596.0,-1720.0,16840.0,-22.0,740.0,261.0,0.13370979460192084,0.5926694544459927,0.16159774345153516,-0.7776572367731
-9609.40273141861,1528.0,-2016.0,16108.0,-23.0,922.0,511.0,0.15592899281129002,0.6592832305771262,0.14684725822483843,-0.7207410449200823
-9609.418323278427,1128.0,-2216.0,15596.0,43.0,825.0,194.0,0.15466998644224578,0.7122030901498795,0.14380530583293916,-0.6694505117551356
-9609.433928966522,1264.0,-2184.0,15456.0,193.0,480.0,23.0,0.137858438348635,0.742300558671648,0.13743237110738274,-0.6411686790101628
-9609.449590206146,1108.0,-2240.0,15920.0,296.0,82.0,-91.0,0.11256428019000958,0.7489847823142708,0.12769539591113924,-0.640347534195336
-9609.465184688568,1340.0,-2196.0,16348.0,308.0,-126.0,-239.0,0.0804237756965284,0.7417471527656775,0.12478421932576479,-0.6540428703640035
-9609.48077750206,1368.0,-2108.0,16508.0,278.0,-183.0,-174.0,0.05445217897834266,0.7308766028010119,0.1188269306695275,-0.6698764902802768
-9609.496357679367,1396.0,-2060.0,16772.0,214.0,-82.0,-5.0,0.04134399966099597,0.7268117273645291,0.10621825131524765,-0.6773131253304868
-9609.511950731277,1428.0,-2012.0,16704.0,219.0,46.0,-141.0,0.018674828739384024,0.7287292453652143,0.10235293650209897,-0.6768521360758176
-9609.527544736862,1364.0,-2072.0,16528.0,225.0,185.0,-106.0,-0.003563118476393731,0.7387194741229575,0.09606801792397549,-0.6671220118317064
-9609.5431599617,1296.0,-2028.0,16240.0,139.0,310.0,-117.0,-0.02194271525136861,0.7552910646163921,0.09537559000674141,-0.6480412192051526
-9609.558779001236,1152.0,-2096.0,16200.0,151.0,336.0,-118.0,-0.04136434630180259,0.7725067848221865,0.09391797794639078,-0.6266591351581609
-9609.574365854263,1096.0,-2248.0,16052.0,117.0,262.0,-110.0,-0.05741960788436612,0.7851577661624706,0.09395840738032057,-0.6094276729421781
-9609.589967250824,1120.0,-2156.0,16016.0,78.0,45.0,-112.0,-0.06911011097701239,0.7861086881887954,0.09725438915896292,-0.6064639368537533
-9609.605536699295,1264.0,-2112.0,16188.0,98.0,-194.0,-147.0,-0.08197266559310491,0.7737233600212567,0.10329868908944215,-0.6196466937581289
-9609.621159791946,1328.0,-2124.0,16440.0,103.0,-284.0,-165.0,-0.09527624304299441,0.7557177322556144,0.11085463923232713,-0.6383763745837671
-9609.636754989624,1400.0,-2224.0,16480.0,166.0,-250.0,-43.0,-0.10619546493370471,0.7396466085105039,0.10648325739008832,-0.6559776929454384
-9609.652353525162,1372.0,-2228.0,16600.0,245.0,-127.0,-90.0,-0.12597699142372043,0.7289429025850079,0.09941102002297772,-0.6654994301280526
-9609.667979955673,1316.0,-2272.0,16400.0,228.0,-22.0,-30.0,-0.14204167043968877,0.7246564332290174,0.08830051895333824,-0.6685059730406847
-9609.68357014656,1264.0,-2288.0,16368.0,182.0,9.0,-54.0,-0.15678965543133347,0.7223139104056349,0.08097624388911193,-0.6686721668425083
-9609.699164628983,1232.0,-2188.0,16340.0,124.0,27.0,-30.0,-0.16657716451457258,0.721837614208381,0.07525925850695687,-0.6674867421793639
-9609.714793205261,1324.0,-2248.0,16312.0,119.0,11.0,-21.0,-0.175401175144429,0.7204730985657654,0.06948995486992572,-0.6673260733503329
-9609.73041677475,1296.0,-2280.0,16128.0,118.0,252.0,-29.0,-0.18602665919139483,0.7328560784140215,0.06056983465699733,-0.651649710758268
-9609.746049880981,1088.0,-2100.0,16444.0,127.0,19.0,-51.0,-0.19717969182331255,0.7314582437156906,0.05630110444583386,-0.6503223758037242
-9609.761622905731,1276.0,-2232.0,16316.0,188.0,73.0,-29.0,-0.21119930193993974,0.7320145635576241,0.04622386961380443,-0.6460749859556161
-9609.77719783783,1380.0,-2180.0,16620.0,193.0,124.0,-37.0,-0.22611810172105629,0.7350562844138814,0.03541839048254707,-0.6382071767328781
-9609.79277396202,1060.0,-2080.0,16252.0,160.0,95.0,-43.0,-0.23908774261558763,0.7368625881684975,0.02739362666824793,-0.6317595798296741
-9609.808357954025,1276.0,-2140.0,16348.0,163.0,28.0,-84.0,-0.2542876982323256,0.7346153762652955,0.023230641430658727,-0.6286003124251721
-9609.82397389412,1352.0,-2268.0,16348.0,179.0,-10.0,-84.0,-0.2703670697678449,0.7297204830230617,0.01902619726655775,-0.6277321626771347
-9609.839547395706,1464.0,-2296.0,16312.0,199.0,5.0,-87.0,-0.28782171567004466,0.7249278449765589,0.013556239068004532,-0.625663254433825
-9609.855140447617,1496.0,-2244.0,16320.0,169.0,19.0,-45.0,-0.3010178255584498,0.7214844803879061,0.006709581626715891,-0.6235410129011966
-9609.870778083801,1508.0,-2260.0,16260.0,227.0,-50.0,-253.0,-0.32896642777809604,0.7122307704347484,0.011611662291308129,-0.6199786999080502
-9609.886410713196,1480.0,-2176.0,16136.0,176.0,-94.0,-47.0,-0.3423642472521305,0.7018267289220498,0.0077215750434195965,-0.6246329658710839
-9609.902007579803,1488.0,-2120.0,16188.0,161.0,-147.0,-232.0,-0.364700778791581,0.6884704044889792,0.01755811708813691,-0.6266526602639734
-9609.917623996735,1608.0,-2200.0,16336.0,170.0,-167.0,79.0,-0.37031763875784907,0.6737700847506592,0.008840954437695352,-0.6393907700651702
-9609.933371305466,1532.0,-2228.0,16348.0,145.0,-129.0,128.0,-0.3715928095599553,0.6617278654183744,-0.0025920532704044627,-0.651174552076495
-9609.949014902115,1504.0,-2228.0,16164.0,183.0,-136.0,187.0,-0.3715089012372278,0.6476826026329559,-0.01935742890309334,-0.6649162898398342
-9609.964650630951,1564.0,-2192.0,16424.0,139.0,-128.0,196.0,-0.3681703161612285,0.6351089918336918,-0.03432141936401921,-0.6781660762398631
-9609.981389522552,1540.0,-2204.0,16632.0,211.0,-115.0,202.0,-0.3681818530622773,0.6205518583087521,-0.054266568982204146,-0.6902265234805757
-9609.99722790718,1472.0,-2132.0,16624.0,217.0,-108.0,193.0,-0.3687493769680294,0.6058007735159027,-0.07426442125374826,-0.7010806769046412
-9610.012879371643,1444.0,-2052.0,16352.0,212.0,-112.0,187.0,-0.3691759819153221,0.5905648769668227,-0.09345069292465019,-0.7114837935342746
-9610.028517961502,1752.0,-1944.0,16340.0,229.0,-120.0,177.0,-0.3708914055078105,0.5739339552978615,-0.1128440234200615,-0.7213221240575985
-9610.044166326523,1612.0,-2016.0,16340.0,171.0,-82.0,191.0,-0.3682012947998606,0.5610555741286355,-0.13043799871378056,-0.7298153038532674
-9610.059817552567,1600.0,-2040.0,16128.0,175.0,-152.0,182.0,-0.366848787430033,0.5433509800054236,-0.14550890037480377,-0.7409580552230846
-9610.075434446335,1576.0,-2136.0,16336.0,164.0,-85.0,97.0,-0.3694336694763244,0.5311344563588435,-0.15790403237174436,-0.7459767219467353
-9610.091068267822,1580.0,-1800.0,16208.0,187.0,-73.0,155.0,-0.3689861920150693,0.5179380219751317,-0.1748033193891987,-0.7516868995966499
-9610.106682538986,1480.0,-2108.0,16404.0,195.0,-121.0,127.0,-0.3712789371644672,0.5014997019661185,-0.18931709470603794,-0.7581616169379607
-9610.122285842896,1568.0,-2120.0,16412.0,203.0,-85.0,106.0,-0.3745304583361132,0.4872835188426159,-0.2045076735244791,-0.7618781526678029
-9610.137864351273,1652.0,-2076.0,16180.0,0.0,248.0,155.0,-0.35974044321930115,0.5007003076581289,-0.21904910544222939,-0.7562430196890382
-9610.153502702713,1616.0,-2152.0,16460.0,338.0,74.0,509.0,-0.3390692960444361,0.48440083206385687,-0.2654623392618877,-0.7615232056932868
-9610.169142723083,1716.0,-2204.0,16472.0,508.0,202.0,376.0,-0.3303784912362872,0.47315878429820596,-0.3204769540798172,-0.7511759709106788
-9610.184752225876,1700.0,-2224.0,16616.0,582.0,356.0,519.0,-0.30961758133024525,0.46378969730134456,-0.38915643124186533,-0.7332075709043324
-9610.200356721878,1668.0,-2068.0,16724.0,594.0,449.0,653.0,-0.2756438776806904,0.45250890416905104,-0.4639209221288598,-0.7099531832142072
-9610.215971708298,1588.0,-1996.0,16556.0,612.0,259.0,802.0,-0.23868856166206695,0.41955005951125257,-0.5374539052274848,-0.6914830568072682
-9610.231560468674,1532.0,-1964.0,16404.0,623.0,461.0,857.0,-0.18723684069503876,0.3921412108820021,-0.6128584713020484,-0.6599788863045954
-9610.247127532959,1472.0,-1992.0,16344.0,627.0,5.0,1055.0,-0.14684173031932332,0.3238430772865537,-0.6812043914472197,-0.6399404226984147
-9610.262724637985,1520.0,-1856.0,16160.0,590.0,123.0,1189.0,-0.08920498481719218,0.2507230892897587,-0.7442620574983768,-0.6125801114540426
-9610.27829694748,1504.0,-1740.0,16228.0,511.0,93.0,1233.0,-0.02823076233498347,0.1704277580493247,-0.7938405624400832,-0.5830733785460271
-9610.29387497902,1488.0,-1616.0,16076.0,290.0,201.0,1310.0,0.04772924733197192,0.08852891995046502,-0.8227795966271437,-0.5593909944355577
-9610.309484958649,1532.0,-1460.0,15656.0,148.0,157.0,1290.0,0.12008991490669856,0.00412092556564984,-0.833849888582223,-0.5387539267806764
-9610.325091362,1636.0,-1412.0,15740.0,27.0,79.0,1214.0,0.18192991904626518,-0.07980627964655776,-0.8300031320274178,-0.5211787247283522
-9610.340747356415,1848.0,-1532.0,15984.0,-80.0,247.0,1123.0,0.24914199257783848,-0.1504488350852409,-0.8104666140793174,-0.5083672717815783
-9610.356352090836,2064.0,-1260.0,16512.0,-84.0,12.0,1077.0,0.2954220077575042,-0.22693023671506315,-0.7887704130422615,-0.4889475846203871
-9610.371982812881,2172.0,-1496.0,16836.0,-138.0,176.0,917.0,0.34284229370498165,-0.285141757455552,-0.7575431930729406,-0.47674065321841347
-9610.38757967949,2160.0,-1768.0,16640.0,-241.0,369.0,815.0,0.39394056432847363,-0.32980056052225104,-0.7137820043905786,-0.47598074778707267
-9610.403218507767,2036.0,-2008.0,16512.0,-272.0,409.0,823.0,0.4443085636582469,-0.37211684806590467,-0.6623289620238242,-0.474804483666578
-9610.418797969818,1796.0,-2196.0,16452.0,-207.0,289.0,935.0,0.49125531655518506,-0.42059263084859755,-0.609763142469246,-0.4582127921808273
-9610.434421539307,1972.0,-2360.0,16232.0,-76.0,158.0,998.0,0.5347913888379106,-0.46877976739961824,-0.5610272051505583,-0.423665168715263
-9610.450003623962,2000.0,-2280.0,16296.0,-40.0,120.0,1154.0,0.5788356233523826,-0.5200056629949297,-0.5040546303695397,-0.3747964263363367
-9610.465580701828,1992.0,-2132.0,16404.0,-77.0,63.0,1226.0,0.6147852618569882,-0.5724204740387074,-0.4400911974329242,-0.3173225813691662
-9610.48115825653,1836.0,-2052.0,16272.0,-298.0,22.0,1031.0,0.6266543300887403,-0.6245962733616105,-0.37741683822680117,-0.27338686162049763
-9610.496723413467,1592.0,-2096.0,16336.0,-416.0,-49.0,1405.0,0.6308466025339301,-0.6891068570113215,-0.29113503152878256,-0.20592400809063147
-9610.512300729752,1508.0,-2296.0,16128.0,-383.0,-1.0,1674.0,0.6309292495438968,-0.7443570363492499,-0.1815410197364049,-0.12208088572910415
-9610.527927398682,1352.0,-2572.0,15892.0,-323.0,-398.0,1878.0,0.6149402950753303,-0.784815385330306,-0.07687049456491385,0.0020424267072002983
-9610.543531179428,1220.0,-2704.0,16008.0,-156.0,-596.0,2064.0,0.5896583335168353,-0.792959896786459,0.03195391310101679,0.14998866370526087
-9610.559134721756,1080.0,-2644.0,16120.0,-89.0,-803.0,2224.0,0.5452108121008906,-0.7646077787631221,0.14042503211092652,0.31368921782531395
-9610.574730157852,848.0,-2504.0,15780.0,-35.0,-1101.0,2407.0,0.47795836694626564,-0.6884005018443862,0.2413354386176951,0.48930333597234016
-9610.590317964554,680.0,-2072.0,15872.0,18.0,-1370.0,2524.0,0.3881608082283244,-0.5585831300348881,0.3264673397212018,0.6563041595870946
-9610.60598063469,612.0,-2204.0,15640.0,-32.0,-1571.0,2526.0,0.27751508462724905,-0.38481123811723095,0.38182133199993895,0.7931696913352191
-9610.621577739716,380.0,-1944.0,15684.0,-2.0,-1750.0,2799.0,0.13647481645244103,-0.16364291717856588,0.41623478691929405,0.8839367750522722
-9610.637166976929,68.0,-1760.0,15320.0,63.0,-2021.0,2453.0,0.020774058899010843,0.07923101008320257,0.41613338155026325,0.9056069204006774
-9610.652774572372,36.0,-1488.0,15536.0,79.0,-2339.0,2349.0,-0.0773220468997525,0.33577353228065254,0.3858454234045214,0.8558041512640563
-9610.66834974289,112.0,-1480.0,16008.0,142.0,-2683.0,2122.0,-0.1433946312095508,0.5812209486511272,0.33748479221523536,0.7264462840518906
-9610.683959245682,672.0,-1468.0,16864.0,20.0,-2720.0,1961.0,-0.18107043737374778,0.7784868277518866,0.2622426422489518,0.5407407440838654
-9610.699543237686,1432.0,-1448.0,17692.0,307.0,-2332.0,2046.0,-0.23656530142398813,0.8978555995932377,0.16840760643671115,0.33095476811114716
-9610.715116500854,2216.0,-1528.0,18012.0,296.0,-1459.0,1434.0,-0.275346747747972,0.9397737310081962,0.09318380947597746,0.17979510745038138
-9610.730691432953,2744.0,-1320.0,17560.0,285.0,-530.0,932.0,-0.30765575503742015,0.9443834054740325,0.03377952442727897,0.11111644156960282
-9610.746290445328,2780.0,-2072.0,16292.0,303.0,-179.0,604.0,-0.33739698621342656,0.9379945578583284,-0.00824969877821061,0.07912917029973583
-9610.76192522049,2664.0,-2604.0,15488.0,399.0,-412.0,379.0,-0.3723780057779886,0.927120740639517,-0.024343891464788135,0.03448373583578812
-9610.777513027191,2664.0,-3340.0,15404.0,603.0,-901.0,483.0,-0.42236119853826565,0.9043314807675391,-0.032152075010408725,-0.05255316293654239
-9610.793133020401,3040.0,-4144.0,16372.0,669.0,-1182.0,513.0,-0.4724405064383659,0.8658351816947144,-0.0318729817001452,-0.16159677921754262
-9610.808730602264,3160.0,-4136.0,16904.0,531.0,-1151.0,1048.0,-0.49599588847100856,0.8163591853124963,-0.07036721998468137,-0.28739209023109763
-9610.824316263199,3284.0,-4152.0,17432.0,85.0,-934.0,1171.0,-0.4744540042767467,0.7753691825406166,-0.11450599433424209,-0.4007298414812442
-9610.839923858643,3216.0,-3504.0,16752.0,-555.0,-793.0,1078.0,-0.4039773550734779,0.7537675722507026,-0.13411193766364451,-0.500650308885575
-9610.855553627014,2972.0,-2584.0,16024.0,-1065.0,-988.0,820.0,-0.3064738670899344,0.7307643460799281,-0.10553663441468385,-0.6007655600030161
-9610.871132850647,2936.0,-2136.0,15136.0,-1305.0,-1366.0,686.0,-0.19688645414506398,0.6772878884995178,-0.0436190092995867,-0.7075409686327504
-9610.886706590652,3208.0,-2120.0,14708.0,-1291.0,-1470.0,562.0,-0.09007814163797845,0.5970789104839448,0.027746070464342163,-0.7966259213885409
-9610.902284145355,3340.0,-2464.0,14676.0,-1126.0,-1190.0,434.0,0.001620589366261142,0.5184438440205924,0.09180361251388454,-0.8501678957809794
-9610.917871952057,3132.0,-3092.0,14692.0,-888.0,-1062.0,413.0,0.08030286773380524,0.43915962948400095,0.13778102099506817,-0.8841417643787441
-9610.933552980423,2824.0,-3588.0,14808.0,-624.0,-1117.0,593.0,0.16217183468658863,0.3528414776173733,0.15420931960540896,-0.9085277505139903
-9610.949214458466,3008.0,-4856.0,15124.0,-356.0,-1327.0,860.0,0.2566099272260187,0.25139924244505407,0.13581774359401294,-0.9233110562925916
-9610.964784145355,2868.0,-5028.0,15336.0,-112.0,-1399.0,1097.0,0.35970423790882955,0.14710473316515216,0.0883807216217006,-0.9171487920487411
-9610.980402469635,3544.0,-4880.0,15316.0,67.0,-1417.0,1426.0,0.4766030956714086,0.045773097023543534,0.01994262594472733,-0.8776996094654094
-9610.996060848236,4172.0,-4404.0,15388.0,171.0,-1414.0,1815.0,0.6052398038022475,-0.05154988261982238,-0.05799443794459011,-0.7922525068832478
-9611.01166844368,4528.0,-4076.0,15408.0,226.0,-1339.0,2199.0,0.7330980735887176,-0.14008636784401973,-0.13100418534750494,-0.6525189096617949
-9611.027289867401,4512.0,-3892.0,15616.0,253.0,-1141.0,2597.0,0.8453682651191359,-0.21222486807888463,-0.1808592532968877,-0.45563475744861115
-9611.042889118195,4240.0,-3828.0,15696.0,241.0,-992.0,2579.0,0.9105225346786466,-0.26679190332751884,-0.20955114603086886,-0.2363453222689251
-9611.058482170105,4328.0,-3784.0,15868.0,105.0,-936.0,2972.0,0.9236727124030589,-0.3202811046036435,-0.209123130653994,0.02272114920769858
-9611.074074983597,3884.0,-3652.0,15732.0,-79.0,-1005.0,2973.0,0.8654385575511512,-0.36524395788053776,-0.1997411978215018,0.2787766278373681
-9611.089654684067,3664.0,-3756.0,15376.0,-13.0,-1243.0,2894.0,0.7453945612130959,-0.3723964602200536,-0.19443872767885112,0.5175919297169728
-9611.105221033096,3348.0,-3760.0,15040.0,-508.0,-1596.0,2722.0,0.5576413594678977,-0.36536608013002597,-0.22417217514178064,0.7108379404571884
-9611.120801448822,3360.0,-3744.0,14748.0,-163.0,-1907.0,2695.0,0.3343714570567477,-0.2954357564325402,-0.2316803578218256,0.8644290915549009
-9611.136384487152,3380.0,-3856.0,14588.0,29.0,-2178.0,2618.0,0.08974161019496926,-0.17536782615951746,-0.21615471427147717,0.9562790954767941
-9611.152044773102,3380.0,-4076.0,14828.0,1.0,-2511.0,2621.0,-0.16807646311092125,-0.014254352837511365,-0.18641763084071375,0.967882008761937
-9611.167590856552,3628.0,-4376.0,14920.0,430.0,-3071.0,2737.0,-0.42197410842449107,0.18303796425159133,-0.0954856692906696,0.8827895799238354
-9611.183202266693,3936.0,-4944.0,15628.0,697.0,-3069.0,2916.0,-0.6399779461870758,0.34586923161521255,0.02329750830185943,0.6857550066335639
-9611.198801994324,4304.0,-5580.0,15904.0,1115.0,-2740.0,3144.0,-0.8013581788714326,0.4246114480684126,0.13857610111301877,0.39790306800202146
-9611.214433908463,4688.0,-6064.0,16200.0,1492.0,-2543.0,3487.0,-0.879806011848705,0.4185331454504653,0.22196406130273988,0.03877296950466439
-9611.23002576828,5064.0,-6048.0,16472.0,1905.0,-2059.0,3652.0,-0.8554537184040542,0.32452760318074925,0.23478583267521647,-0.3282626741154721
-9611.245615243912,5144.0,-5596.0,16136.0,2280.0,-1552.0,3801.0,-0.7211801788880443,0.17346189589852815,0.16435803211642316,-0.6502280811600754
-9611.261206150055,5296.0,-4968.0,15936.0,2572.0,-1143.0,3727.0,-0.4929144643657576,-0.00010954989980768938,0.03149855951412214,-0.8695074235257414
-9611.276798963547,4828.0,-4136.0,15920.0,2654.0,-639.0,3462.0,-0.21321505031104873,-0.14314554790607942,-0.13258876644792497,-0.9573238289352995
-9611.292384386063,4800.0,-3532.0,16168.0,2568.0,-308.0,3073.0,0.06802822954570602,-0.23801290624015664,-0.2856820168051945,-0.9258011674879804
-9611.307997465134,5104.0,-3296.0,16088.0,2400.0,150.0,2565.0,0.3144861296034061,-0.26343943452653995,-0.40649466083497315,-0.8163701546088432
-9611.32357597351,5276.0,-3628.0,15856.0,2070.0,760.0,1994.0,0.5141954438015801,-0.21603250823874282,-0.471469112047812,-0.6831177624265242
-9611.339148759842,4612.0,-3816.0,15576.0,2006.0,1091.0,1834.0,0.6843657212328743,-0.13216391472904684,-0.49153170161086246,-0.5220850941718518
-9611.35478401184,960.0,-3684.0,18100.0,2282.0,1753.0,2222.0,0.8456880777318099,-0.010756144344521669,-0.44320059607595247,-0.29710135001214094
-9611.37036204338,1244.0,-1268.0,22712.0,1609.0,1055.0,1377.0,0.9047215651202759,0.08039386827359846,-0.3971603924480185,-0.13145089661490209
-9611.385933160782,2436.0,1084.0,25308.0,-746.0,844.0,424.0,0.9389908396284339,0.016335498624040642,-0.32291809922041254,-0.11727427584286514
-9611.401524066925,4212.0,2068.0,22088.0,-3257.0,2129.0,-1145.0,0.9350859635893551,-0.18523833272250742,-0.10670437261676613,-0.28269272656510824
-9611.417155981064,2728.0,648.0,17520.0,-3138.0,2358.0,-2124.0,0.7957500752881472,-0.3383324522494109,0.12007951469524344,-0.4877436617572422
-9611.432742357254,2888.0,-1876.0,14848.0,-2504.0,2376.0,-2393.0,0.5587513804040977,-0.4093539947228669,0.30129556462352,-0.6553221991044867
-9611.448346614838,2768.0,-4364.0,15268.0,-1512.0,1646.0,-1465.0,0.3678289917451244,-0.41617102825981084,0.4047215989711685,-0.726432333665812
-9611.463982582092,2260.0,-5816.0,16736.0,-795.0,1350.0,-109.0,0.2817629634119034,-0.35649466904260463,0.4898208911273372,-0.7440407771142433
-9611.479573011398,1172.0,-6324.0,18000.0,-384.0,1692.0,1105.0,0.26504319322906494,-0.20542100826041776,0.5813392060110651,-0.7413494740287054
-9611.495148181915,716.0,-4812.0,17476.0,-250.0,2182.0,1982.0,0.26929629881992717,0.029645310807319882,0.661692539041293,-0.6991163299237922
-9611.510718345642,132.0,-2640.0,16912.0,210.0,2138.0,2715.0,0.2976887545826411,0.30810148194134324,0.6624023769327986,-0.614555101886204
-9611.526292324066,68.0,-752.0,17060.0,402.0,2100.0,2998.0,0.3106715603783837,0.575521445145279,0.5852103236397832,-0.4793611632739665
-9611.541872262955,80.0,968.0,17056.0,624.0,2162.0,3102.0,0.2833045896225746,0.7978899006538975,0.43799184972012634,-0.3021148051851156
-9611.55752491951,108.0,1768.0,17192.0,775.0,2055.0,3038.0,0.21947687207266395,0.9384246246455318,0.24402439477646848,-0.10789449123134473
-9611.57313656807,-52.0,1936.0,17060.0,677.0,2533.0,2834.0,0.12963259786849285,0.9813805854401358,0.05118481083346089,0.13216524214400974
-9611.588717460632,-924.0,1468.0,15972.0,693.0,2498.0,2522.0,0.028640190248066515,0.9265796945934371,-0.12264194261930429,0.35438504903600354
-9611.604295015335,-1452.0,832.0,14972.0,888.0,2095.0,1960.0,-0.0787223611776516,0.815422794446732,-0.24034056245486116,0.5206965240772967
-9611.619911432266,-1604.0,700.0,14228.0,1212.0,1469.0,1359.0,-0.191991755897433,0.6973598793543261,-0.28615729924967037,0.6284444004209718
-9611.635507822037,-1480.0,684.0,14436.0,1580.0,975.0,789.0,-0.3024726396603791,0.5885397179758975,-0.25981931193550417,0.7032959745136429
-9611.651090860367,-892.0,648.0,15324.0,1699.0,683.0,320.0,-0.3888604795239078,0.4879816944139017,-0.18748191066083864,0.7586250236818813
-9611.666669130325,-256.0,452.0,16544.0,1635.0,905.0,-108.0,-0.4308628896487058,0.3692501524101134,-0.10388565101059348,0.8168349079114949
-9611.68229174614,304.0,136.0,17096.0,1594.0,1428.0,-270.0,-0.44229006446239005,0.2060843013968828,-0.03456142108721861,0.872189353161368
-9611.697969436646,584.0,-64.0,16496.0,1733.0,1972.0,-921.0,-0.38618128981224803,-0.008200369135592892,0.036792760386970665,0.9216523520981735
-9611.713562011719,440.0,-96.0,15604.0,1811.0,2138.0,-1249.0,-0.2814073909751901,-0.23670451677050983,0.10552150142750463,0.9239296860592049
-9611.72916150093,140.0,-224.0,15120.0,1790.0,1950.0,-1401.0,-0.14458126375257027,-0.43594711253212226,0.1673025112695251,0.8723853752611431
-9611.744733810425,-120.0,-764.0,15220.0,1580.0,1656.0,-1327.0,-0.007409171674524987,-0.5857915349867557,0.21060558280676756,0.7825846089743778
-9611.76031422615,-176.0,-568.0,15428.0,1256.0,1303.0,-1128.0,0.10806711138831905,-0.6844829403891518,0.23382132619345677,0.6820060052298211
-9611.775918483734,-152.0,-928.0,15784.0,900.0,1076.0,-1006.0,0.19756594107637498,-0.7520146818362197,0.2347594007825743,0.5833777858074322
-9611.791501283646,-260.0,-1004.0,16204.0,632.0,879.0,-413.0,0.2408821654849264,-0.7902464923725612,0.25367273066001694,0.5031266335264383
-9611.807107925415,-304.0,-1324.0,16464.0,298.0,762.0,-42.0,0.24582881619124483,-0.8162424207057616,0.27915237148649663,0.44202992801831265
-9611.822687864304,-384.0,-1420.0,16336.0,99.0,603.0,331.0,0.22505057283435004,-0.8277577150419241,0.3188927170976221,0.4030841597453311
-9611.838282346725,-416.0,-1504.0,16348.0,-161.0,387.0,684.0,0.17818423559213772,-0.8234479379741421,0.36933400749787515,0.3921431658694798
-9611.853909015656,-500.0,-1104.0,16208.0,-448.0,271.0,1044.0,0.10101710128743639,-0.801849267228007,0.4310088345321046,0.4013286464341525
-9611.869534254074,-564.0,-1148.0,16452.0,-677.0,228.0,1333.0,-0.001612360722248736,-0.7590423432592982,0.4982675241051419,0.4190245766711864
-9611.885170698166,-720.0,-1244.0,16552.0,-526.0,195.0,1568.0,-0.10123069133846856,-0.6906162251737926,0.5768128937907981,0.4243683096256396
-9611.900771856308,-776.0,-1416.0,16436.0,-737.0,248.0,1716.0,-0.2187874419039768,-0.5988180240721194,0.6421211090775325,0.42571059487463575
-9611.916407585144,-984.0,-1532.0,16332.0,-691.0,431.0,1685.0,-0.3372399670602759,-0.5005269800129087,0.6871486909315565,0.40443617969636403
-9611.932083129883,-828.0,-1448.0,15956.0,-618.0,538.0,1762.0,-0.4523040616377775,-0.3900362813492161,0.7162049183701683,0.3610308158033398
-9611.947782039642,-656.0,-1636.0,16068.0,-465.0,722.0,2044.0,-0.5672305151834557,-0.2617521427395378,0.7290515664194888,0.27967690629950437
-9611.963370323181,-320.0,-1964.0,16032.0,-189.0,739.0,2360.0,-0.660962400787334,-0.1174885822049823,0.7249000599767045,0.15441839541543326
-9611.978928089142,-444.0,-2240.0,16480.0,91.0,428.0,2599.0,-0.7038508744778197,0.03506128636352811,0.709460416752686,-0.005528992353757924
-9611.994488954544,-304.0,-2160.0,17132.0,504.0,169.0,2622.0,-0.6959658111216244,0.16220066993764554,0.6726034690123702,-0.19216426799518077
-9612.010081529617,-180.0,-1988.0,17180.0,398.0,86.0,2433.0,-0.6510115603276906,0.2759698924774871,0.6121078519620156,-0.35404596358681595
-9612.025653362274,-72.0,-1312.0,17408.0,551.0,218.0,2267.0,-0.5936676598604077,0.36492231140393994,0.5172528141789154,-0.4968298929205703
-9612.041235208511,-52.0,-988.0,16980.0,757.0,297.0,1690.0,-0.5506447617354897,0.40934921056218204,0.4096274224499328,-0.6011896081623571
-9612.05687212944,-344.0,-960.0,16544.0,1010.0,151.0,1313.0,-0.517864478197185,0.41124680927538365,0.29919503346842563,-0.687877006470053
-9612.072514533997,-488.0,-948.0,16512.0,1135.0,-149.0,1058.0,-0.4867594546160506,0.3750132851558353,0.19786323077186327,-0.7637279693758987
-9612.088101387024,144.0,-768.0,16524.0,1138.0,-171.0,848.0,-0.46100074446305633,0.3271671203574286,0.1006316343721067,-0.8187266107347031
-9612.103714942932,456.0,-608.0,16172.0,1044.0,23.0,624.0,-0.4439716417480894,0.29040193875902964,0.007184851915701213,-0.8476463137367214
-9612.119287490845,432.0,-712.0,15872.0,823.0,123.0,575.0,-0.4207745032589918,0.26666285893988306,-0.07274248959181728,-0.8640302467374281
-9612.134864807129,12.0,-1044.0,15800.0,542.0,248.0,557.0,-0.3888706330824227,0.26100966360740946,-0.13524182836741794,-0.8731341443841608
-9612.150451660156,-12.0,-1172.0,16152.0,350.0,418.0,423.0,-0.3590705649244986,0.2752754894071021,-0.18525203503724855,-0.8723379034818101
-9612.1660323143,-92.0,-1208.0,16176.0,238.0,638.0,323.0,-0.32921705282778607,0.3103120867557518,-0.23046913194621896,-0.8615140858747663
-9612.18161702156,-120.0,-1300.0,16052.0,274.0,707.0,239.0,-0.303763458218667,0.34978892455436544,-0.27704231160266124,-0.8417974977938523
-9612.19721198082,-164.0,-1372.0,15952.0,327.0,505.0,182.0,-0.2877786194612019,0.37311777272878555,-0.31939359714428744,-0.8221644141886388
-9612.212800741196,-220.0,-1660.0,15696.0,262.0,225.0,163.0,-0.27823551929011203,0.3778027740222116,-0.3488249750515726,-0.8112775089491594
-9612.228397846222,316.0,-1724.0,15936.0,292.0,-135.0,126.0,-0.28296922245847256,0.3570330192508492,-0.3700770683745043,-0.8096288073983058
-9612.244061231613,684.0,-1884.0,16412.0,265.0,-388.0,190.0,-0.2900937055205972,0.3165066241383841,-0.38462591989269457,-0.817148762858117
-9612.25966835022,812.0,-1980.0,16740.0,281.0,-765.0,178.0,-0.3100644623538612,0.24808526444721143,-0.38903001158934175,-0.8312456801885737
-9612.275285959244,956.0,-2044.0,16944.0,286.0,-551.0,270.0,-0.31487018079583945,0.19076811943553776,-0.399840614559727,-0.8393996526096039
-9612.29086446762,948.0,-2116.0,17088.0,251.0,-530.0,410.0,-0.30694936062373385,0.13039506907301285,-0.409500335313499,-0.8491694126334609
-9612.306432962418,948.0,-2204.0,17164.0,207.0,-511.0,389.0,-0.298257945946851,0.0728858706728019,-0.4146553488417822,-0.8566158936260364
-9612.321993112564,900.0,-2192.0,17372.0,231.0,-352.0,397.0,-0.28245864146510324,0.02611713532025702,-0.42453473400799063,-0.8598286286959259
-9612.337555408478,828.0,-1980.0,16832.0,275.0,-156.0,399.0,-0.25869777606716754,-0.0071630591874195645,-0.4415892347992593,-0.8590827078636746
-9612.353207588196,572.0,-1740.0,16476.0,328.0,-48.0,262.0,-0.2405632589068604,-0.02824645652208344,-0.46441611277579714,-0.8518504154793112
-9612.368779659271,256.0,-1612.0,16164.0,369.0,-21.0,130.0,-0.2307342150639733,-0.04278811092438311,-0.49061050701536013,-0.8391854562422217
-9612.384357213974,140.0,-1768.0,16044.0,425.0,-105.0,-24.0,-0.2352603115902863,-0.05795083839021136,-0.5191550285902985,-0.8196171926025707
-9612.399984359741,192.0,-1500.0,16248.0,433.0,-196.0,-223.0,-0.2576676152093512,-0.07066594580014775,-0.5464930065124809,-0.7936996396682097
-9612.415568828583,476.0,-1432.0,16372.0,437.0,-11.0,-332.0,-0.2782130687916928,-0.06532619862183231,-0.5777490833038288,-0.7645495228359738
-9612.431154727936,368.0,-1240.0,16416.0,454.0,-196.0,-533.0,-0.3204738343306726,-0.062410630387944296,-0.6049640582074522,-0.7262368229449305
-9612.446780920029,440.0,-1208.0,16768.0,455.0,-9.0,-543.0,-0.3522655586576645,-0.046931554350780565,-0.6351658322948558,-0.6857629115627399
-9612.462377548218,204.0,-1264.0,16712.0,438.0,181.0,-697.0,-0.38118154419244993,-0.01087910377431444,-0.6678771247108074,-0.6391575875761403
-9612.477994441986,180.0,-1044.0,16540.0,376.0,256.0,-746.0,-0.40639923983791126,0.03428996024813765,-0.6959478289538286,-0.5910333965689261
-9612.493587970734,132.0,-1168.0,16496.0,340.0,332.0,-700.0,-0.422276118850412,0.08165934706341424,-0.7211062502556072,-0.5431578097828543
-9612.509159564972,172.0,-1264.0,16468.0,375.0,333.0,-620.0,-0.43240521241041563,0.1223506411243988,-0.7448490271356046,-0.4932098738588827
-9612.524729967117,248.0,-1292.0,16872.0,346.0,363.0,-565.0,-0.4359462466423062,0.16129655258551498,-0.765670654740688,-0.44461527260259537
-9612.540288448334,188.0,-1320.0,17048.0,465.0,554.0,-435.0,-0.4212785109115177,0.19364289555087458,-0.7964497622273796,-0.38819405133875706
-9612.555926561356,28.0,-1124.0,17388.0,633.0,913.0,-312.0,-0.37723740751856816,0.22186348632025954,-0.8418894463273783,-0.31573832831803944
-9612.571494102478,20.0,-904.0,17448.0,856.0,1351.0,-92.0,-0.2942652921915577,0.235376210096465,-0.8994063300137226,-0.22152704363866887
-9612.587098360062,-276.0,-604.0,16968.0,1054.0,1556.0,94.0,-0.18945000213012514,0.22795381424162217,-0.9489591437681166,-0.1078067656711502
-9612.602664232254,-936.0,-264.0,16720.0,1058.0,1455.0,117.0,-0.08782623122123094,0.21184967937360086,-0.9733245254304742,0.0067553426500443995
-9612.618261098862,-1076.0,364.0,16560.0,1279.0,1207.0,-185.0,-0.008731502684715847,0.214509919984889,-0.9669502733633679,0.1375369911385717
-9612.63385128975,-1032.0,924.0,16460.0,1048.0,963.0,-553.0,0.05904265767307407,0.24664493721936656,-0.936460370464463,0.24232666809188722
-9612.64943575859,-1056.0,1228.0,16480.0,1047.0,833.0,-935.0,0.12313712751922533,0.30774266478113166,-0.8809774337976511,0.3376543517252923
-9612.665024518967,-852.0,1540.0,16424.0,993.0,832.0,-1328.0,0.19703943907413907,0.39092099233275085,-0.7966852929461155,0.41671186832905094
-9612.68068909645,-888.0,1652.0,16256.0,795.0,940.0,-1679.0,0.29161224662183227,0.47930034111862124,-0.6830735566234,0.4675938374974587
-9612.696277141571,-956.0,1500.0,16316.0,587.0,1039.0,-1939.0,0.4003645103043332,0.5565328045210964,-0.5409050063001457,0.4872384124225983
-9612.711889266968,-1100.0,1044.0,16184.0,349.0,1159.0,-2010.0,0.5130311288345678,0.601789992360757,-0.3799575188447786,0.4798751398171078
-9612.727483510971,-1212.0,768.0,16252.0,175.0,1323.0,-2001.0,0.6181305411803614,0.6072445242398916,-0.2037572875853396,0.45568814950205416
-9612.743126630783,-1180.0,292.0,16200.0,36.0,1479.0,-1889.0,0.702501544270198,0.5714252569661459,-0.0218690930048597,0.42365846948964225
-9612.758723258972,-1412.0,84.0,15760.0,-122.0,1491.0,-1920.0,0.7654352963110848,0.5011204519167037,0.15732256181653212,0.3718019787137287
-9612.774309396744,-1312.0,-8.0,15648.0,-218.0,1354.0,-1834.0,0.8001612942977717,0.4091548500117467,0.3146708687023273,0.3054774234042548
-9612.789917469025,-1288.0,116.0,15584.0,-322.0,1203.0,-1812.0,0.8122147574053725,0.2992020601213732,0.44657397575288604,0.22662082704888098
-9612.80552148819,-1408.0,292.0,15168.0,-487.0,1085.0,-1800.0,0.804221686210783,0.1699532441412532,0.5510523892851992,0.14382155087893272
-9612.82113313675,-1508.0,380.0,15668.0,-645.0,1010.0,-1749.0,0.7741379686041105,0.027350475504485994,0.6289779297960705,0.06594786489818143
-9612.836723566055,-1316.0,416.0,15340.0,-758.0,992.0,-1766.0,0.7190688882546463,-0.12435128472103836,0.6836603692403648,-0.009229922133056734
-9612.852316617966,-1744.0,332.0,15236.0,-927.0,652.0,-1860.0,0.6569469802348232,-0.28783563204892754,0.6926324032362927,-0.07636535909991451
-9612.867941379547,-1744.0,168.0,15224.0,-1006.0,264.0,-1983.0,0.5914076745557185,-0.4550148711612768,0.6522342580550262,-0.1333750430856295
-9612.88353061676,-1628.0,140.0,15248.0,-1034.0,-96.0,-2070.0,0.5212587787885682,-0.6148894659115922,0.5656031393540166,-0.1740497601253399
-9612.899111032486,-1492.0,52.0,15448.0,-1147.0,-285.0,-2208.0,0.4301478188129051,-0.762382897909452,0.44109638168117177,-0.19793724513962618
-9612.914726257324,-1424.0,-60.0,15196.0,-1331.0,-763.0,-2407.0,0.3196593207252185,-0.8909572126383706,0.26707473754562844,-0.1807878549186603
-9612.930398702621,-1364.0,-68.0,15320.0,-1481.0,-727.0,-2472.0,0.17661893416452681,-0.9692869890700978,0.07539982586483406,-0.1536338217111171
-9612.9460105896,-1604.0,-396.0,15276.0,-1556.0,-765.0,-2371.0,0.017656959441361142,-0.9872034040501281,-0.11250606787980413,-0.1116246187243217
-9612.961661338806,-1944.0,-624.0,15560.0,-1425.0,-661.0,-2076.0,-0.12858440825102807,-0.9511983306530875,-0.2716191799312579,-0.07007714899297406
-9612.977257966995,-2388.0,-840.0,15620.0,-1131.0,-611.0,-2003.0,-0.24404577480007977,-0.8760345426610937,-0.4152924700690604,-0.023179822491456465
-9612.992864131927,-2724.0,-568.0,15484.0,-784.0,-735.0,-2084.0,-0.3281023453255978,-0.7693027720734038,-0.5460918704716881,0.04801838061359068
-9613.008482694626,-2660.0,-320.0,15404.0,-373.0,-1013.0,-2150.0,-0.3841068590333067,-0.6379396943589316,-0.6488586381115156,0.15645234083537837
-9613.024089813232,-2396.0,108.0,15224.0,-175.0,-1470.0,-2070.0,-0.43822575993850543,-0.48294216567786885,-0.7001345318874522,0.2907519306822011
-9613.039698123932,-2268.0,248.0,14992.0,-225.0,-1962.0,-1798.0,-0.5084225216675312,-0.3063950574766978,-0.6880779205054316,0.41734564036060157
-9613.055296421051,-2296.0,-336.0,15168.0,-336.0,-2519.0,-1437.0,-0.5973336509732298,-0.10985040377531621,-0.6074380069283604,0.5120004550235209
-9613.070876836777,-2060.0,-1364.0,15420.0,-282.0,-3138.0,-966.0,-0.6951223505428372,0.09258874870223277,-0.44738157506640164,0.555051319862102
-9613.086469888687,-1960.0,-2648.0,16264.0,-248.0,-3819.0,-433.0,-0.7785066872888629,0.2933825758647346,-0.2122891486668539,0.5126278566209571
-9613.10205578804,-1400.0,-3880.0,17168.0,682.0,-4584.0,447.0,-0.8346957162450344,0.4109987216850942,0.10967064938569855,0.34976486490030245
-9613.117648124695,-1048.0,-5372.0,17992.0,1472.0,-5359.0,1046.0,-0.7786000986291512,0.4279191012337584,0.45500903431303685,0.060281903648489496
-9613.133286476135,-292.0,-5656.0,18016.0,2065.0,-5907.0,1998.0,-0.5480678084136733,0.34523244619370097,0.6875950698954092,-0.3280994595107915
-9613.1489071846,436.0,-4872.0,17744.0,3047.0,-6325.0,2345.0,-0.16225581186610719,0.13357037701454036,0.6989653926474269,-0.6835783684268341
-9613.164501905441,892.0,-3948.0,18000.0,3475.0,-6857.0,2653.0,0.3048613623295702,-0.13288370678466885,0.4547436692115344,-0.8262019520321622
-9613.180097818375,1676.0,-2828.0,20064.0,3095.0,-7064.0,3000.0,0.6789029925541318,-0.357349880115503,0.0633593273433468,-0.6382612204427578
-9613.195733070374,3820.0,-1252.0,22340.0,1960.0,-6106.0,2904.0,0.7971932702725697,-0.4814643534495568,-0.27023518642143707,-0.24422921653499394
-9613.211356639862,5892.0,84.0,23972.0,426.0,-3774.0,1950.0,0.7194421176533221,-0.5417375875572055,-0.43099331410132186,0.056286666042339464
-9613.22692489624,7656.0,224.0,23188.0,-614.0,-966.0,1111.0,0.6425298221901273,-0.6113530022144609,-0.4378755217465665,0.14720041350098445
-9613.242505311966,6468.0,-1440.0,21864.0,-906.0,1769.0,25.0,0.6518458291346456,-0.6756720281954754,-0.34379164928134687,0.019277635705406245
-9613.258087873459,5060.0,-3132.0,21156.0,-821.0,3159.0,-913.0,0.6711095563639695,-0.6714387735268251,-0.21023227997952873,-0.23363288556270953
-9613.273659467697,3880.0,-4176.0,20448.0,-1071.0,3532.0,-1968.0,0.5947157280866971,-0.587946100283697,-0.09092050835963143,-0.5407088376262488
-9613.289291143417,3148.0,-4196.0,18708.0,-1738.0,3377.0,-2996.0,0.36020292557817835,-0.4558652701172846,0.011695277146350854,-0.8138205750644834
-9613.30488395691,2576.0,-3480.0,16748.0,-2260.0,2524.0,-3670.0,0.006471385618789713,-0.3218967042960551,0.09679119040756397,-0.941791961311519
-9613.320509672165,2564.0,-2692.0,15372.0,-2596.0,1215.0,-4515.0,-0.4058132793643437,-0.2368404028507812,0.16673746807743936,-0.8668453279612008
-9613.33609366417,2836.0,-2448.0,15104.0,-2563.0,270.0,-5028.0,-0.7562025195583788,-0.17806712531966234,0.221594920573691,-0.5893602798542595
-9613.351733922958,3748.0,-3000.0,15320.0,-2324.0,158.0,-5319.0,-0.9535501950955725,-0.10629220506470913,0.22116401167511443,-0.17472971274356047
-9613.367318153381,3636.0,-3980.0,15652.0,-1863.0,745.0,-5125.0,-0.9585574690169768,-0.03473542071055375,0.12612083438816926,0.2530900319512021
-9613.382906198502,3328.0,-5208.0,15808.0,-1232.0,1548.0,-5197.0,-0.7778160920028022,-0.020472624348575094,-0.04177382946348916,0.6267678564235134
-9613.398496389389,2748.0,-6108.0,14832.0,-767.0,2758.0,-4802.0,-0.4551978078781333,-0.09115956666079099,-0.251233190121376,0.84933313445938
-9613.414078712463,2356.0,-6056.0,13988.0,38.0,3229.0,-4225.0,-0.06429307524467194,-0.21689192205647384,-0.37209666135954567,0.9002046263085471
-9613.429653167725,2620.0,-5076.0,13640.0,706.0,3043.0,-3832.0,0.32048338112282443,-0.30786058025124763,-0.3728938343652482,0.8145320459281086
-9613.445218324661,2892.0,-4004.0,13732.0,740.0,2804.0,-2783.0,0.594075988679757,-0.3734391158583535,-0.2986796893240206,0.6468441772223098
-9613.460872888565,2908.0,-3164.0,14160.0,410.0,2135.0,-2101.0,0.7559398754057796,-0.40392626265917747,-0.22551084245805275,0.46318823283794985
-9613.476475715637,2684.0,-2612.0,14784.0,2.0,1953.0,-1673.0,0.841264424132827,-0.4387041248277112,-0.15172200040478467,0.27711603010433233
-9613.492050647736,2380.0,-2760.0,14684.0,-146.0,2148.0,-1662.0,0.8799735865042405,-0.46620728373439496,-0.05948941601530576,0.06898017852991566
-9613.507635831833,2312.0,-2696.0,14396.0,-35.0,2334.0,-1670.0,0.8738267240272202,-0.4598592162010987,0.05005264885702797,-0.149836877947863
-9613.523261547089,2088.0,-2872.0,14688.0,195.0,2140.0,-1701.0,0.8268250654608053,-0.41258465131055,0.13848172534143177,-0.3563102978797373
-9613.538846969604,1996.0,-3044.0,15156.0,251.0,1710.0,-1755.0,0.7437002543535022,-0.3542105571612072,0.18651515101277916,-0.5354035032690424
-9613.554432630539,2292.0,-2976.0,16176.0,211.0,1578.0,-1915.0,0.620611908285079,-0.29096591562475177,0.21471984093662444,-0.695755046799916
-9613.570028066635,2460.0,-2988.0,16568.0,172.0,1733.0,-2100.0,0.4523664975459301,-0.20973208200213608,0.23797535330738856,-0.8335134893301374
-9613.585608959198,2308.0,-2840.0,16540.0,252.0,2073.0,-2232.0,0.24306163335053277,-0.09198440845981473,0.251597973524473,-0.932286635489133
-9613.601191282272,1812.0,-2632.0,16388.0,392.0,2341.0,-2549.0,-0.012064540331853467,0.048672161119927296,0.2378688328991897,-0.9700020030565268
-9613.6167781353,1416.0,-2464.0,16132.0,764.0,2486.0,-2852.0,-0.2922589279139254,0.18856838445715887,0.17288753251228214,-0.9214860739803044
-9613.632349967957,1080.0,-2272.0,15884.0,434.0,2812.0,-3202.0,-0.5614634348996334,0.33260775707676166,0.11130958575367751,-0.7494938741059969
-9613.647969007492,880.0,-2156.0,15624.0,249.0,2392.0,-3411.0,-0.7659236676596588,0.4167183994058062,0.07215622725006195,-0.48425219646840706
-9613.663541078568,556.0,-2200.0,15576.0,136.0,2183.0,-3740.0,-0.881852357098521,0.4453434836691158,0.052840118775867174,-0.14564863089295188
-9613.679105758667,420.0,-2432.0,15072.0,77.0,1985.0,-3897.0,-0.8815790789163178,0.4170990184159108,0.04721537046480684,0.21591073443766376
-9613.694676399231,168.0,-2812.0,15356.0,61.0,1797.0,-3956.0,-0.7636592740173779,0.3384821558412419,0.05055424955094217,0.5474473593293309
-9613.710245847702,68.0,-3164.0,15144.0,151.0,1578.0,-3964.0,-0.5488825173386379,0.22047794362738024,0.06521604604926101,0.8036568458437605
-9613.725816011429,60.0,-3268.0,15120.0,7.0,1259.0,-4060.0,-0.25451853193850776,0.10173754713418698,0.0781097887218653,0.9585242038200242
-9613.741415262222,-24.0,-3196.0,15516.0,342.0,906.0,-4071.0,0.07213245519981713,-0.00894616601478871,0.11501709265149473,0.9907007335308073
-9613.757016658783,48.0,-2980.0,16052.0,381.0,667.0,-4061.0,0.3921340398013029,-0.09874945052037899,0.13984996143196485,0.9038370589539417
-9613.772683382034,852.0,-2688.0,16496.0,315.0,555.0,-4195.0,0.6742741382697135,-0.17145987592059278,0.1380876329124834,0.7049026195486562
-9613.788267850876,1524.0,-2752.0,16516.0,328.0,527.0,-4159.0,0.8718960641931172,-0.2201866175377315,0.11902866454247235,0.4208886832870184
-9613.803901910782,1304.0,-2896.0,16196.0,454.0,729.0,-4161.0,0.961960365321923,-0.23952601809426396,0.10406628352857063,0.08018572714747715
-9613.819482803345,1048.0,-3308.0,15916.0,631.0,829.0,-3993.0,0.9367217599517764,-0.21490242696752165,0.08881549527928205,-0.26168893578944324
-9613.835106134415,1148.0,-3436.0,15828.0,895.0,960.0,-3750.0,0.8129657297587831,-0.1404496863788044,0.07211029161844378,-0.5605004136274726
-9613.850689172745,1000.0,-3776.0,15648.0,1194.0,972.0,-3620.0,0.6094891274931356,-0.02909902094343494,0.03599148911774964,-0.7914422677358576
-9613.866303682327,720.0,-3640.0,15388.0,1353.0,782.0,-3440.0,0.3541364214780986,0.08148593359651658,-0.0231806254920789,-0.9313485363763593
-9613.881921291351,844.0,-3532.0,15392.0,1481.0,385.0,-3044.0,0.09294838389761206,0.157641931388909,-0.10525355582238372,-0.977461665941709
-9613.897534370422,900.0,-3400.0,15816.0,1548.0,-198.0,-2668.0,-0.15234075680695805,0.17148571975035515,-0.19502171450682076,-0.9535992201171338
-9613.91315317154,1132.0,-3176.0,16252.0,1581.0,-729.0,-2217.0,-0.36216233910232865,0.12369008239659399,-0.2752901646809963,-0.8819039227050551
-9613.928807973862,1736.0,-2828.0,16160.0,1551.0,-792.0,-1745.0,-0.5203896282768115,0.05429479072810184,-0.3427154393042,-0.78025177868701
-9613.944406032562,1484.0,-2660.0,16184.0,1500.0,-712.0,-1170.0,-0.6188898404831955,-0.026933755225740444,-0.4005011292632583,-0.6751657453062763
-9613.960096120834,896.0,-2704.0,16480.0,1481.0,-849.0,-639.0,-0.6743444165836125,-0.13293229522337346,-0.4376981684352951,-0.5796627692525554
-9613.975707530975,544.0,-2392.0,17308.0,1352.0,-922.0,-148.0,-0.6943564634967987,-0.25087728335445386,-0.44877713397588087,-0.5035164091837548
-9613.991312503815,1000.0,-1632.0,18264.0,975.0,-531.0,126.0,-0.6851110319767252,-0.33656779652902274,-0.4543796637273909,-0.4592212031193332
-9614.006897449493,1192.0,-856.0,18668.0,350.0,-241.0,209.0,-0.6755221279401642,-0.37504211388215786,-0.4473451087579545,-0.4504393645634547
-9614.022495508194,1216.0,-660.0,16976.0,-17.0,438.0,-47.0,-0.6604222501085028,-0.3546309640870229,-0.4735717911502991,-0.4623949496902276
-9614.038077354431,864.0,-1192.0,15896.0,-46.0,392.0,-209.0,-0.6536680211149228,-0.3271847521074053,-0.5002840496323776,-0.46409495347778257
-9614.053688287735,628.0,-1904.0,15540.0,167.0,56.0,-78.0,-0.6496097570920837,-0.33091404596243923,-0.5122827759124078,-0.453948692231854
-9614.069317817688,460.0,-2264.0,15364.0,396.0,-307.0,40.0,-0.6497794623186891,-0.3668940778823141,-0.5088102694473818,-0.4292871948574806
-9614.08490037918,476.0,-2380.0,15572.0,618.0,-350.0,237.0,-0.6353880487097086,-0.42460758201253485,-0.503352681043674,-0.4032697699313489
-9614.10048866272,520.0,-2124.0,15688.0,514.0,-400.0,418.0,-0.6178798122586399,-0.48438524593449206,-0.4825812380124248,-0.3882149145030429
-9614.116107702255,672.0,-1792.0,15704.0,888.0,-597.0,563.0,-0.5832532600143158,-0.5729756982609256,-0.45407309344296765,-0.3540227530769901
-9614.131732225418,732.0,-1548.0,15904.0,1010.0,-828.0,654.0,-0.5410520544627015,-0.6704197695140337,-0.40706807504696274,-0.30347255112118476
-9614.147324800491,796.0,-1376.0,16728.0,1103.0,-1013.0,802.0,-0.4860183577023764,-0.7693833128584341,-0.33777734402655035,-0.24029552582941555
-9614.162951946259,968.0,-1056.0,17116.0,1005.0,-1035.0,928.0,-0.4249089369472146,-0.8515619658096907,-0.24981296734971103,-0.17857238037461257
-9614.178607702255,980.0,-1036.0,17100.0,899.0,-1049.0,969.0,-0.36200916947011924,-0.9125160488729449,-0.15124089306370517,-0.11571522818608188
-9614.194175720215,972.0,-1000.0,16828.0,789.0,-1016.0,1087.0,-0.2984394974635963,-0.9518141344100698,-0.04007882692549746,-0.058115467159454405
-9614.209771871567,964.0,-944.0,16544.0,658.0,-837.0,1177.0,-0.23849118049778828,-0.9680625524420471,0.07546582742218255,-0.01678571641740524
-9614.225353479385,776.0,-1016.0,16196.0,765.0,-532.0,1361.0,-0.1666603241005258,-0.9658360185352961,0.19838985105337603,-0.005156420232495054
-9614.240933656693,580.0,-1196.0,16352.0,398.0,-865.0,1453.0,-0.11616348919606498,-0.9361460747572649,0.32953453718549264,0.03928815720168396
-9614.25652718544,576.0,-904.0,16164.0,315.0,-892.0,1456.0,-0.06898289435395483,-0.8842948141660338,0.4534666345751604,0.0873616234549738
-9614.272109746933,492.0,-840.0,16544.0,141.0,-915.0,1455.0,-0.03261517616261426,-0.8114237664407311,0.5659915421146352,0.1420608876282163
-9614.28773856163,516.0,-880.0,16568.0,51.0,-987.0,1454.0,0.0017087096879867185,-0.7190670591873279,0.6646415682270193,0.20295622800894375
-9614.30333018303,492.0,-948.0,16596.0,-41.0,-1122.0,1361.0,0.039654989698229164,-0.6129959735510124,0.7404425719852387,0.2727786938053717
-9614.318912267685,600.0,-908.0,16444.0,-101.0,-1176.0,1345.0,0.07730531204814231,-0.49242512638227276,0.796270981785995,0.34277384264571537
-9614.33448958397,640.0,-848.0,16756.0,-124.0,-1172.0,1029.0,0.12153443012576196,-0.3830984239997316,0.8212398582834268,0.4050062653707287
-9614.350071907043,624.0,-808.0,16788.0,-88.0,-1083.0,1320.0,0.14794252316093273,-0.24834789042341476,0.8414320793772687,0.4565395831227147
-9614.365675210953,552.0,-704.0,16628.0,-109.0,-898.0,1231.0,0.16107574211434797,-0.12245159385289692,0.8446590311056028,0.49559190231171174
-9614.381340026855,520.0,-652.0,16660.0,-35.0,-745.0,1220.0,0.16162216489052922,-0.0007448545639908058,0.8391480706450684,0.5193344168649295
-9614.396919727325,620.0,-556.0,16644.0,-18.0,-626.0,1159.0,0.15394158077377823,0.11154665019581812,0.824088824077941,0.5336074817399007
-9614.412527799606,568.0,-684.0,16472.0,-69.0,-460.0,1277.0,0.12734893306727685,0.22234577481167606,0.7966148071254027,0.5474937942466375
-9614.428093194962,548.0,-716.0,16432.0,-99.0,-434.0,895.0,0.11625035254355273,0.3030599073415968,0.7667166500033722,0.5538827734306319
-9614.443690538406,512.0,-744.0,16588.0,-106.0,-540.0,791.0,0.11655387456470928,0.379674429578233,0.732542447036292,0.552850870613838
-9614.459310531616,548.0,-780.0,16208.0,-132.0,-783.0,1018.0,0.12111655293316681,0.47816531088763914,0.6801067474397232,0.5423500052145991
-9614.474860429764,620.0,-1040.0,16216.0,-96.0,-992.0,814.0,0.1445839431191976,0.5688362874407854,0.6271056804448226,0.5121125140401519
-9614.49043726921,692.0,-1104.0,16336.0,-173.0,-1060.0,957.0,0.16712337304128808,0.6612053360576645,0.5540817113782731,0.47735808243738515
-9614.506030082703,732.0,-1148.0,16616.0,-214.0,-1146.0,1049.0,0.18944559029284036,0.7495541663174121,0.4635430764173553,0.4329049969454504
-9614.521602153778,516.0,-1184.0,16172.0,-239.0,-1135.0,1180.0,0.20432259573979034,0.8276243987916473,0.3548272100555365,0.3839111647231982
-9614.5371966362,832.0,-1088.0,16508.0,-296.0,-1216.0,1256.0,0.2187022246220085,0.8913610606647736,0.22972523290068797,0.32383809819828047
-9614.552788972855,856.0,-1268.0,16500.0,-399.0,-1253.0,1183.0,0.23863418082443974,0.9318243540346535,0.10126412284526755,0.2539737750133421
-9614.568417787552,828.0,-940.0,16480.0,-462.0,-1299.0,1084.0,0.2606617555787282,0.9495009200271061,-0.023940842011982204,0.17300372287916713
-9614.584063768387,796.0,-1024.0,16292.0,-526.0,-1353.0,926.0,0.28429201897251133,0.9453959926525167,-0.13787760298752788,0.07996393949468304
-9614.59965634346,764.0,-1104.0,16460.0,-547.0,-1400.0,860.0,0.3031786268261089,0.9207679008294192,-0.24463497375413742,-0.02056508337771813
-9614.615265130997,676.0,-1252.0,16424.0,-459.0,-1350.0,749.0,0.3095865303882469,0.8815161839745039,-0.33643195140793514,-0.11789376431790011
-9614.63083434105,800.0,-1500.0,16748.0,-276.0,-1262.0,735.0,0.2988662654006509,0.8324886711442843,-0.42072568989656456,-0.20157247253271268
-9614.646450042725,868.0,-1648.0,16904.0,-44.0,-1120.0,739.0,0.27211436360469626,0.7791401614366681,-0.4994497981348667,-0.26352282842193203
-9614.662046670914,1112.0,-1312.0,16764.0,123.0,-871.0,709.0,0.2409566045128965,0.7275634197852243,-0.5684231505636326,-0.29914295384541373
-9614.677614927292,1176.0,-1296.0,16668.0,201.0,-678.0,680.0,0.211569021407562,0.6778439821401216,-0.628807305128187,-0.31680823549032955
-9614.693192005157,1212.0,-1420.0,16476.0,163.0,-615.0,585.0,0.1838554705173152,0.6299265704149399,-0.6773503125906865,-0.3325450884909106
-9614.708770036697,1204.0,-1452.0,16448.0,116.0,-692.0,491.0,0.15042283145023866,0.5810296508060996,-0.7168083796304864,-0.35491303660777496
-9614.72436118126,1188.0,-1460.0,16432.0,82.0,-513.0,491.0,0.12914928181844607,0.5344336553138975,-0.7495143304157954,-0.368686044725004
-9614.739991664886,1260.0,-1568.0,16504.0,-256.0,-722.0,443.0,0.10781121445655888,0.4778857176771404,-0.7677752767244532,-0.41294443612706
-9614.755572080612,1436.0,-1464.0,16508.0,-89.0,-700.0,407.0,0.07909987618513242,0.42344926292736557,-0.7861241873331288,-0.44321856166410173
-9614.771220684052,1376.0,-1504.0,16388.0,-166.0,-707.0,409.0,0.05242005919096421,0.3658959972557174,-0.7975643513634069,-0.47672147216265387
-9614.786810874939,1340.0,-1432.0,16616.0,-245.0,-673.0,438.0,0.031543945520370556,0.3054350403403416,-0.802250917981754,-0.5119647255727048
-9614.80242562294,1292.0,-1472.0,16572.0,-9.0,-638.0,412.0,0.005513235114252801,0.24748195568987658,-0.8127642610334447,-0.5273865203370743
-9614.818017244339,1184.0,-1620.0,16440.0,-297.0,-678.0,377.0,-0.018764183100477456,0.18886485018546093,-0.8053997775351004,-0.5615239729017861
-9614.833597660065,1164.0,-1792.0,16292.0,-267.0,-673.0,322.0,-0.045784288278003356,0.13334057581582115,-0.7945642097112408,-0.59058598563963
-9614.84915971756,1140.0,-1648.0,16568.0,-148.0,-645.0,305.0,-0.07293005113081075,0.0793506502067876,-0.7862537678753861,-0.6084321609313363
-9614.864770889282,1276.0,-1632.0,16524.0,-84.0,-592.0,158.0,-0.10444150495426763,0.037533182205388184,-0.77791583556621,-0.6184902465291997
-9614.880350351334,1336.0,-1736.0,16548.0,241.0,-490.0,103.0,-0.13279826320380209,0.0018764130684331482,-0.7858026557299582,-0.6040490763272426
-9614.895965337753,1432.0,-1812.0,16236.0,47.0,-288.0,14.0,-0.1517871488684421,-0.014814792358275113,-0.7846200600035257,-0.6009264054822638
-9614.91156053543,1456.0,-1868.0,16380.0,40.0,-219.0,-252.0,-0.17989300018711252,-0.009571875056911986,-0.7837353030052532,-0.594395375583322
-9614.92727279663,1528.0,-1752.0,16232.0,51.0,-254.0,10.0,-0.19667871733184028,-0.024233585918792773,-0.7821139960499417,-0.5907858433011155
-9614.942871809006,1568.0,-1712.0,16452.0,70.0,-3.0,-33.0,-0.198455478375445,-0.023338976695513127,-0.7856541734830742,-0.5855068188827584
-9614.958493947983,1628.0,-1776.0,16388.0,30.0,-213.0,-72.0,-0.21666250777152915,-0.02980413087744139,-0.783421237971937,-0.5817389753173756
-9614.974097251892,1720.0,-1752.0,16464.0,250.0,-162.0,-84.0,-0.2312975832249189,-0.03700336154394922,-0.7929135973222071,-0.5625124055612606
-9614.989708900452,1692.0,-1872.0,16368.0,-47.0,-159.0,-131.0,-0.24887250452830145,-0.03478970329985897,-0.7876179014844079,-0.5625923873422178
-9615.005351781845,1660.0,-1876.0,16224.0,-38.0,-227.0,-81.0,-0.26854243838511366,-0.03953506909176902,-0.780820347256964,-0.5627090921671701
-9615.020951509476,1676.0,-1896.0,16276.0,-24.0,-344.0,-96.0,-0.29667648318758677,-0.04930268169202622,-0.7714609388415087,-0.5607141247937298
-9615.03652215004,1700.0,-1888.0,16292.0,-5.0,-347.0,-63.0,-0.3230340707642405,-0.06188461805610721,-0.7620652735351657,-0.5577416983203842
-9615.052117109299,1692.0,-1900.0,16312.0,52.0,-391.0,-84.0,-0.3526763600136308,-0.07674931842254468,-0.7534811098923024,-0.5495408485678518
-9615.06771659851,1672.0,-1896.0,16256.0,70.0,-436.0,45.0,-0.3784878503341886,-0.10269759257814448,-0.7424777624901537,-0.5430717483313536
-9615.08329296112,1700.0,-1888.0,16388.0,48.0,-367.0,74.0,-0.39816918063666595,-0.12640119037956712,-0.7314849063751205,-0.538900616447166
-9615.098857164383,1544.0,-1872.0,16452.0,78.0,-339.0,159.0,-0.41129892196050294,-0.15511409211712446,-0.7211304428561393,-0.5354845465621925
-9615.114442110062,1632.0,-1848.0,16388.0,94.0,-316.0,193.0,-0.4207169008840645,-0.18529168039629523,-0.7110844289865618,-0.5319992644161089
-9615.13001871109,1556.0,-1716.0,16416.0,127.0,-328.0,202.0,-0.4294283080469447,-0.2175720162170485,-0.7011432151780053,-0.5259771267051793
-9615.145610570908,1560.0,-1704.0,16240.0,59.0,-385.0,205.0,-0.44218914615884736,-0.24980108447895646,-0.6849346933217348,-0.5224295580235749
-9615.16122508049,1636.0,-1696.0,16280.0,57.0,-450.0,224.0,-0.4572478627222463,-0.2856115179021658,-0.6645444654257084,-0.5174273923456489
-9615.176862955093,1672.0,-1680.0,16212.0,52.0,-463.0,197.0,-0.47350935489952944,-0.3196848238640422,-0.6427866470148861,-0.5103095439368228
-9615.192470788956,1700.0,-1780.0,16420.0,64.0,-401.0,214.0,-0.4843630914896636,-0.35188205973445785,-0.6225033027223521,-0.5040446902203958
-9615.20807313919,1772.0,-1788.0,16496.0,82.0,-383.0,211.0,-0.4930630656493662,-0.3833369151595785,-0.6028946990507816,-0.496446980678556
-9615.223675489426,1712.0,-1752.0,16520.0,95.0,-303.0,154.0,-0.4989837345844548,-0.4084225503175622,-0.5884528570183999,-0.4877801636794299
-9615.23930311203,1636.0,-1728.0,16412.0,139.0,-276.0,107.0,-0.5035095921997093,-0.4315016563694741,-0.5782169647468401,-0.47534151174943096
-9615.254914999008,1544.0,-1728.0,16372.0,133.0,-304.0,11.0,-0.5132384816118075,-0.45027770705589626,-0.5696417735363836,-0.45754179848797905
-9615.270555257797,1484.0,-1696.0,16264.0,135.0,-292.0,-77.0,-0.5253768191370047,-0.46391493307598064,-0.5646670174958491,-0.43579042226158893
-9615.286151647568,1488.0,-1692.0,16620.0,142.0,-319.0,-92.0,-0.5386531926462343,-0.47773841715555676,-0.5588140036875693,-0.4115162841351376
-9615.301738262177,1304.0,-1684.0,16292.0,112.0,-314.0,-43.0,-0.5506804758252762,-0.4919216434116494,-0.5495592057415845,-0.3908308965175455
-9615.317340135574,1604.0,-1688.0,16460.0,115.0,-276.0,-87.0,-0.5618175513187927,-0.5024535245542892,-0.5436811204129174,-0.36920500267423634
-9615.332919836044,1712.0,-1824.0,16552.0,128.0,-239.0,-99.0,-0.5706315324739366,-0.5115196975582839,-0.5401888939220312,-0.3477401501690897
-9615.348535299301,1720.0,-1856.0,16644.0,178.0,-91.0,-20.0,-0.5675721455435749,-0.5220723682102105,-0.5418042829807248,-0.334290922548292
-9615.364111185074,1728.0,-1868.0,16740.0,172.0,-11.0,34.0,-0.5592735333345598,-0.5324092425157754,-0.5446032713703187,-0.3273542274173382
-9615.379727840424,1760.0,-1892.0,16636.0,241.0,113.0,105.0,-0.5396089864038468,-0.5457187047002198,-0.5518964659230251,-0.326226191520857
-9615.395318031311,1716.0,-1868.0,16588.0,292.0,189.0,122.0,-0.5129282102331753,-0.5596335871661045,-0.5629577156163622,-0.32679276260437135
-9615.410914421082,1652.0,-1880.0,16368.0,315.0,146.0,108.0,-0.48710935887496243,-0.5745498046751855,-0.5728675363998682,-0.3231714408534186
-9615.426522016525,1604.0,-1744.0,16300.0,318.0,201.0,197.0,-0.4553055629736774,-0.5918089694584326,-0.5800621994329841,-0.3255561899008217
-9615.442154884338,1604.0,-1720.0,16268.0,306.0,171.0,261.0,-0.42317536159499464,-0.6118485840847985,-0.5816081304420502,-0.32908343333579726
-9615.45775938034,1512.0,-1736.0,16356.0,259.0,148.0,243.0,-0.394681851060458,-0.6291161495086292,-0.5811731156048907,-0.33268140400243434
-9615.473391532898,1544.0,-1708.0,16380.0,5.0,118.0,286.0,-0.380028209514261,-0.6401078679099871,-0.5694353606169767,-0.34868875446754655
-9615.488978385925,1628.0,-1620.0,16504.0,13.0,134.0,256.0,-0.36478166663662087,-0.6489485246509871,-0.5597590559732335,-0.36396421155804715
-9615.504556894302,1672.0,-1648.0,16540.0,502.0,161.0,238.0,-0.32055415124169684,-0.670565664138696,-0.5665988819924058,-0.3557420879301476
-9615.520118951797,1676.0,-1572.0,16608.0,502.0,195.0,144.0,-0.2767653401623971,-0.6848454079142638,-0.5785035632885637,-0.3460077181306407
-9615.535728931427,1596.0,-1296.0,16360.0,236.0,236.0,116.0,-0.2471514915566224,-0.6889278598004395,-0.5840965598469764,-0.35089279415093455
-9615.551286697388,1624.0,-1612.0,16264.0,214.0,180.0,48.0,-0.22359304934085739,-0.6902477902443536,-0.5914440513082799,-0.35179265273921306
-9615.566891670227,1572.0,-1300.0,16236.0,219.0,168.0,-249.0,-0.2092856324016993,-0.6761329979953088,-0.6161058888096067,-0.34562584808752556
-9615.582486391068,1576.0,-1560.0,16248.0,226.0,144.0,-16.0,-0.1886551996877572,-0.6748554392986713,-0.6263070272030288,-0.341641419262762
-9615.598082780838,1780.0,-1536.0,16284.0,156.0,153.0,-23.0,-0.17177276905798497,-0.6714659174276506,-0.634697160920418,-0.34174135170148323
-9615.613667488098,1540.0,-1504.0,16140.0,172.0,103.0,-57.0,-0.15767507778361037,-0.6676897369902618,-0.6445880270537485,-0.33739481374609703
-9615.629329919815,1612.0,-1536.0,16460.0,133.0,88.0,-118.0,-0.1484387040181844,-0.6601768472797828,-0.6564773224403341,-0.3334216648430301
-9615.644922494888,1676.0,-1508.0,16476.0,171.0,55.0,-142.0,-0.1395498248847268,-0.6525120252322991,-0.6701988638776157,-0.3249421273996934
-9615.660532951355,1736.0,-1720.0,16396.0,194.0,58.0,-206.0,-0.1309180417427989,-0.6409641710404023,-0.6879069026323911,-0.3143397701523473
-9615.676126480103,1660.0,-1580.0,16424.0,213.0,166.0,-164.0,-0.11349827755643292,-0.6287466267794497,-0.7045413713496295,-0.3088968701071118
-9615.691743850708,1540.0,-1628.0,16520.0,199.0,192.0,-111.0,-0.09373589660624289,-0.61849655074313,-0.7176444977322295,-0.30604243705886697
-9615.707306623459,1684.0,-1664.0,16380.0,147.0,220.0,-189.0,-0.07703824552056208,-0.6017317192170002,-0.7332662765652941,-0.3070905639503376
-9615.722895145416,1676.0,-1608.0,16388.0,137.0,218.0,-192.0,-0.06101127681824628,-0.5842822429899956,-0.7481815939380373,-0.30840912295184253
-9615.738466024399,1716.0,-1552.0,16364.0,105.0,186.0,-185.0,-0.048471560660896085,-0.5675716277666265,-0.7611885130141391,-0.31000806895428185
-9615.754037380219,1692.0,-1600.0,16584.0,52.0,219.0,-175.0,-0.0360638408470089,-0.5500597066844748,-0.7719386790463287,-0.31661395145786025
-9615.76964712143,1664.0,-1584.0,16336.0,56.0,170.0,-165.0,-0.026467658294562484,-0.5342915578708308,-0.7817522069558783,-0.3204613567530049
-9615.78522157669,1612.0,-1628.0,16448.0,89.0,182.0,-170.0,-0.014640865956567422,-0.5176602598528658,-0.7923641857751195,-0.32244766631817534
-9615.800809383392,1468.0,-1636.0,16360.0,59.0,92.0,-178.0,-0.010611062057139532,-0.5027442806026376,-0.8020367813375938,-0.32229271643179974
-9615.816410303116,1436.0,-1656.0,16408.0,71.0,100.0,-227.0,-0.0068693726352878955,-0.4839750194338677,-0.8138668864764089,-0.3214680129978423
-9615.832060575485,1516.0,-1588.0,16600.0,94.0,112.0,-262.0,-0.0022826880080011043,-0.4621104173204253,-0.827341204289711,-0.319304373950391
-9615.847658395767,1468.0,-1620.0,16480.0,121.0,131.0,-276.0,0.004374993882488731,-0.4383645710922963,-0.8415118497789656,-0.3157137452205383
-9615.863327741623,1472.0,-1636.0,16408.0,95.0,193.0,-248.0,0.015358224296523188,-0.4146167245965038,-0.8531804815980648,-0.31613314038774704
-9615.87893152237,1560.0,-1628.0,16468.0,109.0,510.0,-285.0,0.049369184092997426,-0.37865660653576066,-0.8646403558274939,-0.32646426000914475
-9615.894559383392,1608.0,-1648.0,16524.0,141.0,308.0,-331.0,0.06780539237028883,-0.3439905075261225,-0.8775045727890706,-0.32719823384563446
-9615.910163640976,1660.0,-1648.0,16524.0,138.0,339.0,-293.0,0.08949557453091021,-0.3107835124688203,-0.8874760131091094,-0.32831460015187414
-9615.925818920135,1684.0,-1668.0,16416.0,116.0,419.0,-316.0,0.1159448619839186,-0.27308465116674213,-0.8950951866273703,-0.3328455635173493
-9615.941405534744,1776.0,-1672.0,16416.0,135.0,495.0,-281.0,0.14951156671022317,-0.23507105523837665,-0.8995118214790597,-0.3365506996403283
-9615.956977367401,1704.0,-1656.0,16372.0,144.0,474.0,-213.0,0.18326039891924925,-0.2023152866397326,-0.9009045582631555,-0.3374242550269755
-9615.972645044327,1624.0,-1692.0,16228.0,124.0,412.0,-184.0,0.21229467599099633,-0.17358001311178325,-0.9004377790659467,-0.33765774924437414
-9615.989659070969,1568.0,-1752.0,16320.0,88.0,351.0,-172.0,0.23604762256136191,-0.14799292251829937,-0.8985546585317972,-0.33908574195684904
-9616.00535416603,1288.0,-1752.0,16324.0,84.0,316.0,-166.0,0.25692038397979494,-0.1238243008133029,-0.8961844580388862,-0.339871852311013
-9616.020951032639,1468.0,-1844.0,16216.0,92.0,280.0,-126.0,0.27602369962049733,-0.10355740100209221,-0.8936135651884356,-0.3384399179421939
-9616.036539316177,1500.0,-1736.0,16360.0,112.0,507.0,-215.0,0.30991399224525795,-0.0690272999379579,-0.8855489677026706,-0.3391040770539568
-9616.052100419998,1472.0,-1624.0,16464.0,155.0,281.0,-292.0,0.3237521227433444,-0.033922116018375886,-0.8836224621455,-0.33651923786900895
-9616.067787885666,1548.0,-1584.0,16612.0,145.0,378.0,-399.0,0.3412573364768493,0.012037347945366752,-0.8772608922572138,-0.33736013319781255
-9616.083411455154,1448.0,-1348.0,16836.0,139.0,456.0,-272.0,0.3676607573693009,0.0503726039551317,-0.86644740100153,-0.33400160113254806
-9616.099019289017,1492.0,-1432.0,16588.0,132.0,501.0,-599.0,0.3866513767614722,0.11424030095117677,-0.8495089918527802,-0.34027097914502746
-9616.114624500275,1452.0,-1396.0,16576.0,87.0,602.0,-730.0,0.40741058669299407,0.18853204839626816,-0.8216237575601529,-0.3512928715341554
-9616.130215406418,1476.0,-1456.0,16360.0,63.0,690.0,-779.0,0.4302651211370511,0.26668213468964186,-0.7829081072907282,-0.36167313987735383
-9616.145801067352,1420.0,-1580.0,16356.0,121.0,731.0,-841.0,0.4487840095008475,0.3500838427613185,-0.7361253105041843,-0.36627004121130347
-9616.161384820938,1404.0,-1632.0,16464.0,166.0,725.0,-809.0,0.46238384577081487,0.42974626490796014,-0.6851090677662397,-0.36351738917460685
-9616.176994085312,1484.0,-1676.0,16532.0,182.0,717.0,-750.0,0.4727183087219392,0.502538082864035,-0.6310961964350779,-0.3545567186157766
-9616.192582130432,1132.0,-1612.0,16448.0,160.0,686.0,-740.0,0.478762848152863,0.5688375038463053,-0.5729577173530925,-0.34486154261093954
-9616.208148241043,1144.0,-1524.0,16388.0,59.0,668.0,-728.0,0.48559349351202646,0.6254451714463923,-0.508730222236971,-0.3379509691595817
-9616.22376871109,1096.0,-1444.0,16376.0,-248.0,678.0,-797.0,0.5035907585090601,0.6673401269045892,-0.42724426702887097,-0.3442612950335821
-9616.239346981049,1020.0,-1304.0,16380.0,-19.0,655.0,-780.0,0.5037751035402269,0.7124079421338493,-0.3510222778908193,-0.33980719454124003
-9616.254914999008,980.0,-1420.0,16556.0,-57.0,670.0,-796.0,0.5022410790982393,0.7510042607672486,-0.26922697876411245,-0.33356158753852727
-9616.270528554916,784.0,-1528.0,16516.0,-17.0,665.0,-736.0,0.49577284100935365,0.7839237362546362,-0.19059231728682524,-0.32147695787618086
-9616.286127567291,596.0,-1660.0,16456.0,32.0,620.0,-689.0,0.4830553535721209,0.8114567168392052,-0.11711098101119766,-0.3073768699958502
-9616.301695346832,716.0,-1768.0,16292.0,62.0,509.0,-560.0,0.4678849355913398,0.8315738805157913,-0.05750887689670025,-0.2937027363997081
-9616.317353487015,532.0,-1544.0,16340.0,41.0,395.0,-534.0,0.45250620178533113,0.8445807871183554,-0.003652237793029491,-0.2861958988795183
-9616.332931995392,576.0,-1772.0,16512.0,57.0,387.0,-482.0,0.43581091854001375,0.8553521244135225,0.04568189773615873,-0.27632363409923316
-9616.348514080048,688.0,-1704.0,16472.0,54.0,456.0,-753.0,0.41064454217132096,0.862806583586136,0.1176030210996156,-0.2703800819838063
-9616.364087820053,632.0,-1596.0,16480.0,56.0,767.0,-579.0,0.3835944069422335,0.873856248316718,0.18672395814755413,-0.23316250061743823
-9616.379707336426,628.0,-1592.0,16528.0,39.0,597.0,-526.0,0.3593693357104165,0.8765925647518163,0.2454486261108083,-0.20541209290887263
-9616.395293712616,548.0,-1672.0,16468.0,12.0,271.0,-618.0,0.34102184949027037,0.867057509799797,0.3004992456543229,-0.20399896134831974
-9616.410868883133,508.0,-1708.0,16448.0,-247.0,473.0,-617.0,0.33551943498265535,0.8497673321581526,0.364749926294601,-0.17966547028802882
-9616.426441431046,516.0,-1720.0,16232.0,-31.0,378.0,-694.0,0.3141969674432817,0.8306924282632345,0.42676632220028005,-0.1705897462077455
-9616.442009925842,640.0,-1708.0,16152.0,-32.0,344.0,-647.0,0.2935086387880282,0.8091594256453069,0.48260061756352385,-0.16189609869747118
-9616.45755815506,796.0,-1680.0,16520.0,-23.0,289.0,-644.0,0.273376812551399,0.7840202829825901,0.5347977134955877,-0.1567441222854239
-9616.473175287247,840.0,-1848.0,16500.0,19.0,301.0,-581.0,0.2497022171598686,0.7602153734940644,0.5805322041793121,-0.15067763125107705
-9616.48874759674,856.0,-1564.0,16412.0,31.0,314.0,-598.0,0.22350990954580552,0.7334293292609501,0.6255597541232766,-0.1442211265241141
-9616.504311084747,932.0,-1732.0,16488.0,59.0,337.0,-593.0,0.19354572233885364,0.7051740062118246,0.6681623037339237,-0.13721811176544024
-9616.519924640656,848.0,-1708.0,16368.0,67.0,328.0,-553.0,0.16342863289232964,0.6768964137500129,0.7058166507785375,-0.13009681966552283
-9616.535511255264,844.0,-1664.0,16280.0,53.0,331.0,-490.0,0.13417564077955857,0.6503426726830706,0.7378978179016576,-0.12065701738733546
-9616.551092386246,848.0,-1652.0,16100.0,19.0,506.0,-460.0,0.09550110100950049,0.6251465487505239,0.768368820342603,-0.09839048844577784
-9616.566662073135,808.0,-1748.0,16264.0,-12.0,139.0,-392.0,0.0834175877440151,0.5995490304844778,0.790500586254024,-0.09322708421985842
-9616.582246780396,892.0,-1768.0,16300.0,-50.0,42.0,-301.0,0.08066212739796268,0.5785442759031413,0.806674465156028,-0.08975772550917707
-9616.597828388214,948.0,-2004.0,16404.0,-90.0,37.0,-249.0,0.08063254825695218,0.560511312492695,0.8199915906993165,-0.083302172310879
-9616.613402366638,1036.0,-2020.0,16532.0,-61.0,89.0,-211.0,0.07569929144952038,0.545506721465656,0.8312072831543373,-0.07606895911616607
-9616.628970861435,792.0,-2048.0,16580.0,-9.0,167.0,-71.0,0.06353438783200675,0.5413345218262863,0.8356459097983895,-0.06794284715214818
-9616.644558668137,968.0,-1948.0,16684.0,62.0,161.0,-61.0,0.048493135864557335,0.5381133705613191,0.8389462718668025,-0.06520405752674452
-9616.660125732422,840.0,-1724.0,16700.0,6.0,237.0,-89.0,0.030340247056248874,0.5328384810060454,0.8438896668857373,-0.054889458835147696
-9616.675779342651,716.0,-1628.0,16396.0,-63.0,-175.0,-179.0,0.04529085092350642,0.5185141099365811,0.8518375271705996,-0.058861565755404195
-9616.691340208054,748.0,-1624.0,16148.0,-123.0,-173.0,-198.0,0.06268518100238273,0.502253068592553,0.8604711849011153,-0.05832463567767422
-9616.706888914108,848.0,-1736.0,16224.0,-51.0,-91.0,-192.0,0.07076842259335946,0.4869987472078111,0.8684925007141873,-0.05953844795497931
-9616.722465753555,928.0,-1572.0,16132.0,-12.0,123.0,-163.0,0.06109997501050077,0.4751290544873045,0.8761041408510725,-0.05441239766193331
-9616.7380361557,972.0,-1780.0,16132.0,92.0,355.0,-135.0,0.02947681226647837,0.4667086640485242,0.8826462495448877,-0.04743140947718603
-9616.75361609459,828.0,-1736.0,16456.0,121.0,427.0,-180.0,-0.009093833725659195,0.45452108286414183,0.8897998962505116,-0.03979990016013768
-9616.769218921661,672.0,-1588.0,16268.0,100.0,414.0,-269.0,-0.04611736511158135,0.4345649218837282,0.8989277558372778,-0.03090966011960798
-9616.784791469574,640.0,-1556.0,16628.0,70.0,244.0,-495.0,-0.06918791513812658,0.395631114895119,0.9154546961595502,-0.02513468927816847
-9616.80035829544,528.0,-1688.0,16272.0,37.0,36.0,-338.0,-0.07406852011437555,0.3683110865473468,0.9264153649102616,-0.024806642508936976
-9616.815969944,488.0,-1820.0,16460.0,-15.0,-56.0,-409.0,-0.06991545460299184,0.33499241164148374,0.9393479197388652,-0.02274640702498247
-9616.83156466484,280.0,-1816.0,16404.0,10.0,-96.0,-479.0,-0.06324530435837954,0.29519406952374244,0.9530535240859087,-0.023440840899126143
-9616.84714126587,544.0,-1944.0,16464.0,52.0,-143.0,-512.0,-0.05369331686908767,0.2517440153808612,0.9658797250704322,-0.028606557663987398
-9616.8627243042,604.0,-1816.0,16376.0,2.0,-74.0,-533.0,-0.048789097283935226,0.20638148488038874,0.9768565521003204,-0.027885180714107564
-9616.878321409225,628.0,-1772.0,16376.0,34.0,-86.0,-559.0,-0.04338863817009343,0.15816536048182708,0.9860047616356606,-0.02992916392421504
-9616.893931388855,692.0,-1784.0,16368.0,-12.0,-28.0,-486.0,-0.04205664862769798,0.11620106577642732,0.9919557023895291,-0.027430550769622475
-9616.909536838531,692.0,-1852.0,16424.0,-35.0,-53.0,-478.0,-0.038234349847779896,0.07474516159972172,0.9961998795870165,-0.023175314883789034
-9616.925237894058,812.0,-1924.0,16452.0,-254.0,-34.0,-343.0,-0.034301286189587665,0.045663987458865817,0.9983677633184279,-0.00017658328372614378
-9616.940850019455,876.0,-1940.0,16128.0,10.0,22.0,-157.0,-0.036267981374446645,0.03194864261400551,0.9988311507971088,-0.0004999594669013877
-9616.956444740295,928.0,-1984.0,16428.0,74.0,47.0,-92.0,-0.040584866578862164,0.02369351229878918,0.9988737271971742,-0.006539357380387104
-9616.97207570076,864.0,-1900.0,16408.0,46.0,26.0,-49.0,-0.04298546125281501,0.019272691462667156,0.9988363408326159,-0.010333330381734953
-9616.987703084946,920.0,-1840.0,16468.0,-254.0,13.0,83.0,-0.04361671484220069,0.027467454618084662,0.9986043426873211,0.011510338361703759
-9617.003291845322,852.0,-1832.0,16296.0,29.0,-43.0,133.0,-0.04008003572784865,0.03899171814512029,0.9984003529762756,0.008364916556309077
-9617.018880605698,892.0,-1836.0,16636.0,34.0,-54.0,245.0,-0.035670897961018785,0.06025098282096078,0.9975361978296936,0.004352025648072446
-9617.034473896027,920.0,-1840.0,16168.0,208.0,-45.0,378.0,-0.03297734783596684,0.09247072498631313,0.9950535032382052,-0.015171856959062167
-9617.05006313324,836.0,-1988.0,16556.0,340.0,-29.0,451.0,-0.032576323986982424,0.13047017670636818,0.9898396214557584,-0.046193504976623695
-9617.065647602081,896.0,-1900.0,16524.0,476.0,68.0,640.0,-0.04120315718735474,0.184242482907682,0.9780505834850295,-0.08817064973334442
-9617.081319332123,1008.0,-1828.0,16740.0,551.0,218.0,752.0,-0.06268440920601358,0.24728044786090297,0.957588407023567,-0.13396823385516246
-9617.096898078918,1260.0,-1592.0,16804.0,631.0,310.0,768.0,-0.09287278201994374,0.31037034272285613,0.9281022065648492,-0.183497114111995
-9617.112510442734,916.0,-1436.0,16816.0,607.0,466.0,839.0,-0.13300343534925235,0.3790263636221478,0.8875092327888717,-0.2257796792875239
-9617.128084659576,892.0,-1284.0,16728.0,560.0,661.0,844.0,-0.18510718345425056,0.448441303271812,0.8362096836024656,-0.25571291168608923
-9617.143692016602,960.0,-1312.0,16920.0,532.0,877.0,1034.0,-0.24493436606795113,0.530616548963681,0.7635198956515067,-0.27475553357316895
-9617.159298181534,968.0,-1528.0,16836.0,487.0,1117.0,1021.0,-0.3144853781546122,0.6091886196130112,0.6741793066265643,-0.27471882931002267
-9617.174909353256,1000.0,-1324.0,16532.0,367.0,1213.0,1113.0,-0.3747151038520985,0.6862799321910157,0.5667541726160289,-0.25961154334760644
-9617.19049334526,1076.0,-1180.0,16044.0,128.0,1138.0,1075.0,-0.4105484328688807,0.7539798822270926,0.45791914034252473,-0.23081243981572805
-9617.206077337265,968.0,-988.0,15428.0,-286.0,985.0,907.0,-0.4099785032669904,0.8144989858376334,0.36605965127328344,-0.18576695249184447
-9617.221665620804,912.0,-992.0,14724.0,-538.0,730.0,648.0,-0.38281084412900807,0.86219401852655,0.30115073347684196,-0.13923206441274844
-9617.237325906754,1028.0,-988.0,14628.0,-1178.0,-18.0,359.0,-0.28772464362618727,0.9055366602191446,0.28738826357860625,-0.1209374731281189
-9617.252917528152,1044.0,-1360.0,15056.0,-1299.0,-1064.0,170.0,-0.1549363565164339,0.9212387845917362,0.3110292445044946,-0.17485604438027433
-9617.2685379982,1324.0,-2088.0,15500.0,-1161.0,-1747.0,293.0,-0.00953994061802859,0.9029192187751869,0.3233365944834523,-0.2830182336303692
-9617.28416275978,1212.0,-2928.0,15664.0,-797.0,-2140.0,665.0,0.12737655805513848,0.8513081092408671,0.28628730349412657,-0.42081978976377493
-9617.299764871597,1060.0,-2996.0,15752.0,-194.0,-2370.0,951.0,0.23027359843927067,0.7668807413045071,0.19165204157800633,-0.5675715756070433
-9617.315347909927,720.0,-2616.0,15300.0,391.0,-2692.0,1502.0,0.3122804538863809,0.6431661273536629,0.016997596364549793,-0.6989487337875616
-9617.330939531326,420.0,-2236.0,15072.0,931.0,-2972.0,1750.0,0.3543819368065502,0.467471486506359,-0.2091192418365457,-0.7824020672662372
-9617.346508264542,8.0,-1372.0,14940.0,1029.0,-3362.0,1889.0,0.358905651413897,0.2219644408041974,-0.43475118940637164,-0.795556361115535
-9617.36207652092,196.0,-872.0,15204.0,1573.0,-3861.0,1979.0,0.29625421062956786,-0.0668447015234824,-0.6522028555815642,-0.6945478124173606
-9617.377659320831,384.0,-616.0,16364.0,1494.0,-4164.0,1883.0,0.16793297782485456,-0.35765226551185386,-0.7739836336633621,-0.4948057262748417
-9617.393268108368,472.0,-768.0,17452.0,1179.0,-4347.0,1475.0,-0.02330290070616917,-0.580100208256154,-0.778558540839966,-0.23830090575780088
-9617.40889596939,1228.0,-680.0,17936.0,1039.0,-3515.0,824.0,-0.18285811735520677,-0.6759190986576125,-0.7138834264276468,0.008169116176972439
-9617.424514055252,2528.0,-836.0,17304.0,944.0,-2446.0,212.0,-0.27266308237640285,-0.6846354027470568,-0.6448704821543035,0.20266047976961404
-9617.440082550049,3396.0,-1044.0,16348.0,990.0,-1769.0,-826.0,-0.293190045097892,-0.6191868719357743,-0.6233251223539802,0.3769787884222176
-9617.455700397491,3744.0,-2488.0,15728.0,1100.0,-1994.0,-1067.0,-0.2999960844712964,-0.5114459391982111,-0.5799285006340531,0.5586665684752308
-9617.471307754517,4092.0,-3612.0,16572.0,1060.0,-2729.0,-903.0,-0.3350199099836069,-0.3480958796624087,-0.48015471237159646,0.7321491450954369
-9617.486899137497,4272.0,-4372.0,18556.0,398.0,-3251.0,-366.0,-0.41880138177643084,-0.13117814173489042,-0.3562156942444274,0.8249291344879836
-9617.50248336792,4620.0,-4852.0,20036.0,-394.0,-3035.0,298.0,-0.5206810159764655,0.08948980699301684,-0.26081521569678406,0.8079964587218859
-9617.51808476448,4812.0,-4592.0,19520.0,-1329.0,-1752.0,875.0,-0.5992298248764403,0.24836692563441845,-0.275659509441983,0.7094006780964222
-9617.533665180206,3896.0,-3356.0,17172.0,-2081.0,-657.0,1157.0,-0.627215231592492,0.3616747873609143,-0.386144472381757,0.5715635116894958
-9617.54927611351,2844.0,-2380.0,15268.0,-2485.0,-916.0,1226.0,-0.6210608538213198,0.4864955820098744,-0.4831128887475976,0.3797464960490854
-9617.564880609512,2672.0,-2024.0,14204.0,-2625.0,-1444.0,1301.0,-0.5901869674102114,0.5979342215648618,-0.526048361814226,0.13201186012374014
-9617.580491781235,2924.0,-2028.0,14016.0,-2721.0,-1782.0,1332.0,-0.5214470952653525,0.6667818487155523,-0.51153590297523,-0.14773595713337004
-9617.596071243286,2800.0,-2652.0,14128.0,-2667.0,-2109.0,1345.0,-0.42214507261744044,0.6677067404557812,-0.4376338704938198,-0.429462270532966
-9617.611650943756,2440.0,-3724.0,14240.0,-2307.0,-2559.0,1402.0,-0.3166767504357776,0.5736903217994844,-0.3219597931793119,-0.6833279900479529
-9617.627279043198,2308.0,-4644.0,14288.0,-1716.0,-3066.0,1314.0,-0.2267456781527828,0.3812967393416962,-0.1906005637291495,-0.8757114930800871
-9617.642866373062,2484.0,-4988.0,14416.0,-829.0,-3555.0,1214.0,-0.1569368764323042,0.10011813975571664,-0.09206933480374478,-0.978197532452583
-9617.65844988823,3040.0,-4808.0,14992.0,97.0,-3568.0,1267.0,-0.07434538972573525,-0.2052332057827883,-0.05913654272410864,-0.974091866091329
-9617.674062252045,3996.0,-4060.0,15448.0,939.0,-3090.0,852.0,-0.0009545983782709751,-0.45919801592113435,-0.09924414805381726,-0.8827722639464278
-9617.689636707306,4812.0,-3296.0,16104.0,1370.0,-2217.0,774.0,0.09188440168693598,-0.6194935840850098,-0.16880490972658319,-0.7611109370232061
-9617.705230474472,5212.0,-2104.0,16528.0,1282.0,-1406.0,690.0,0.1835313131853498,-0.7018096032831497,-0.22441112997849816,-0.650706679358513
-9617.7208609581,4988.0,-1744.0,16712.0,884.0,-807.0,743.0,0.2621528846010188,-0.7423599639034152,-0.24018458418376856,-0.5678810743537376
-9617.736455202103,4440.0,-2084.0,16388.0,469.0,-376.0,446.0,0.306173887184226,-0.757922737242584,-0.2425852157930767,-0.5224586952629237
-9617.75205206871,4340.0,-2472.0,15816.0,91.0,79.0,339.0,0.329228411626335,-0.7586147827230613,-0.2220534828289158,-0.5165312334947342
-9617.767615556717,4372.0,-2704.0,15208.0,-94.0,576.0,197.0,0.342621174083356,-0.7380126425051229,-0.18791198122484443,-0.5501246748551658
-9617.783247709274,4332.0,-2580.0,15064.0,66.0,1136.0,76.0,0.3674022721926734,-0.6792738745994712,-0.15142835102719304,-0.6169862463454656
-9617.798815011978,4244.0,-3192.0,15188.0,337.0,1508.0,111.0,0.4096296683400657,-0.5832788611790102,-0.11355768029444192,-0.6921661347996377
-9617.814419746399,4336.0,-3736.0,15264.0,694.0,1758.0,203.0,0.4683126934190308,-0.44796873744530824,-0.08112595911183897,-0.7572488429918222
-9617.83002114296,3920.0,-4188.0,15232.0,1186.0,1876.0,527.0,0.552023499124948,-0.2736420006123787,-0.06093474034591976,-0.7852878894607245
-9617.845606565475,3168.0,-4912.0,14832.0,1585.0,938.0,900.0,0.6463557649225665,-0.1354456622793455,-0.10104329422343312,-0.7440893430318367
-9617.861201763153,2892.0,-5584.0,15028.0,2091.0,-393.0,1335.0,0.7368844631509461,-0.05361486407605923,-0.23728180281922892,-0.6307329707314375
-9617.876844644547,3108.0,-5908.0,15548.0,2408.0,-1507.0,1728.0,0.7800051954370295,-0.016941801475369927,-0.44027282684273084,-0.4443700129373284
-9617.892443180084,3804.0,-5200.0,16080.0,2450.0,-1945.0,1869.0,0.7447532121702315,0.0023836285298861537,-0.6335146314153399,-0.20975267116258542
-9617.908064126968,4580.0,-3960.0,16292.0,2511.0,-1469.0,1932.0,0.6681475566310846,0.030459000113509473,-0.7415813555714412,0.05204022433484016
-9617.923742055893,4884.0,-2948.0,16296.0,2326.0,-850.0,1913.0,0.5772158086691095,0.04449439512368841,-0.7578151773216761,0.3009290880688664
-9617.939340114594,4968.0,-2568.0,16592.0,1970.0,-343.0,1910.0,0.4829277949671006,0.02567182964558858,-0.710264997839711,0.5115127905093059
-9617.954948186874,4864.0,-2576.0,16740.0,1641.0,64.0,1702.0,0.39889242785204093,-0.013246599296788395,-0.6248082219021623,0.6710618782592503
-9617.970568418503,4596.0,-3284.0,16844.0,1376.0,17.0,1436.0,0.3126871839348387,-0.04396550347938139,-0.5338140588535033,0.78443375123528
-9617.986193418503,4428.0,-3596.0,16724.0,1153.0,636.0,1180.0,0.26289994755844276,-0.10966839240661487,-0.4277325982787255,0.8578468893983631
-9618.00179862976,2432.0,-3688.0,17520.0,1145.0,775.0,1402.0,0.1950038401084748,-0.1908721568211238,-0.30610194627361803,0.9120542311622174
-9618.017373800278,1776.0,-3164.0,18668.0,986.0,1793.0,761.0,0.1952837062185154,-0.33102411657122066,-0.18098553785930468,0.9052798149851689
-9618.032954216003,812.0,-1464.0,20424.0,-128.0,1750.0,-757.0,0.27528303196438825,-0.4530614098128337,-0.18056466793180126,0.8284630419913609
-9618.048532485962,2008.0,72.0,19896.0,-1739.0,1702.0,-1612.0,0.3391293613997986,-0.5740267587295258,-0.3189397129351533,0.6736185983268883
-9618.06412577629,1736.0,-632.0,19812.0,-2141.0,1962.0,-1924.0,0.38238827344704246,-0.6688801663351701,-0.4622279687433014,0.4390032304266867
-9618.079793453217,2904.0,-840.0,20020.0,-2045.0,2250.0,-2550.0,0.42669349942825024,-0.6807437259037862,-0.5805227948529813,0.1323401747179888
-9618.095417499542,4984.0,-1528.0,18908.0,-2209.0,2512.0,-2799.0,0.42535388690663084,-0.6076117530752034,-0.6343611572849426,-0.2178714082811401
-9618.110995292664,5124.0,-3212.0,16996.0,-2344.0,2671.0,-2717.0,0.37012768394074086,-0.45955688075005835,-0.5911916575851194,-0.549823057844702
-9618.126620292664,4376.0,-4712.0,16668.0,-1746.0,2124.0,-1921.0,0.30478447677322296,-0.3021676659010511,-0.49494806273676545,-0.7555312962380225
-9618.142199277878,3896.0,-5136.0,16512.0,-1005.0,1977.0,-1178.0,0.27943862496210453,-0.14417612644088557,-0.3975358382214457,-0.8620281647216421
-9618.157804489136,2432.0,-3924.0,16268.0,330.0,2350.0,-547.0,0.31695146380123923,0.058377714241967665,-0.36358329760367775,-0.8740371832924332
-9618.173407316208,1028.0,-2132.0,16680.0,897.0,2484.0,-25.0,0.37939994593380755,0.26644276358610025,-0.35366686227492605,-0.8123937993895781
-9618.189001560211,392.0,-300.0,17472.0,790.0,2465.0,280.0,0.4456714708733366,0.447235029004706,-0.3260950466737666,-0.7035764275582221
-9618.204595088959,212.0,1488.0,18124.0,-190.0,2791.0,434.0,0.5429287429658831,0.5812825131417977,-0.21620022876220146,-0.5662123992462665
-9618.220163583755,-328.0,2160.0,17484.0,-1252.0,3487.0,332.0,0.6550892255079592,0.6542682138723797,-0.00557714038345661,-0.3778360840956979
-9618.235790729523,-1032.0,1852.0,15972.0,-1760.0,3709.0,265.0,0.72116144263951,0.6359359098741075,0.23475330074085615,-0.14283760000071752
-9618.251373767853,-2192.0,904.0,15296.0,-1924.0,3476.0,822.0,0.7230876812214779,0.5419074266192153,0.4071232655511539,0.1331585254035607
-9618.266965389252,-2632.0,204.0,14780.0,-1905.0,2838.0,1233.0,0.6654469361190585,0.41215233822584096,0.48206039302832887,0.39360970869390755
-9618.282634735107,-2756.0,-788.0,15080.0,-1600.0,2074.0,1389.0,0.5693520493503055,0.296523139136206,0.4816305294674228,0.5966106812171129
-9618.298210144043,-2376.0,-1328.0,15760.0,-1111.0,1359.0,1767.0,0.4387854170377783,0.23912697454669812,0.43528378654718525,0.748874938162755
-9618.313823223114,-1556.0,-1860.0,16872.0,-384.0,1278.0,2012.0,0.2610499614120701,0.2125502339768851,0.40801820481026746,0.8486438948266434
-9618.329481124878,-356.0,-2000.0,17684.0,271.0,1007.0,2120.0,0.06184591906327889,0.21501766491626828,0.40304793101145914,0.8874090665395277
-9618.345058441162,212.0,-1520.0,18152.0,1583.0,1189.0,2050.0,-0.16350448255101013,0.19748364811382885,0.4788410196538005,0.8396295437931472
-9618.360684394836,148.0,-1112.0,17656.0,2350.0,1260.0,2106.0,-0.3940935713353356,0.15297999768181833,0.5720026159187177,0.7029227444915805
-9618.37630391121,-116.0,-140.0,16880.0,2479.0,1585.0,1965.0,-0.599045376561396,0.06547178916089892,0.6145634815771521,0.5090872309892046
-9618.391922712326,-188.0,576.0,16604.0,2183.0,1762.0,1783.0,-0.7542489767874403,-0.03010814901474622,0.5849785628479169,0.2966514139295327
-9618.4075152874,-436.0,920.0,15936.0,1862.0,1908.0,1571.0,-0.8568429580487893,-0.11767039888268897,0.4938453474400405,0.08994773638516686
-9618.42309975624,-556.0,620.0,15948.0,1672.0,2027.0,1202.0,-0.9081295274455349,-0.20050677991712532,0.3563650956348401,-0.09000950617565996
-9618.438670158386,-452.0,440.0,15208.0,1635.0,1730.0,520.0,-0.9089944057942828,-0.29366757284110756,0.21057458498033155,-0.2077182492143446
-9618.454257965088,-760.0,220.0,14588.0,1785.0,1305.0,-487.0,-0.8791465510180345,-0.41241808843536093,0.060857688668728,-0.2308874268866058
-9618.469843626022,-804.0,608.0,14560.0,1281.0,622.0,-1729.0,-0.8551051460434793,-0.49773566383600737,-0.07358975710934355,-0.12505577077558883
-9618.485449314117,-520.0,928.0,14476.0,1229.0,-284.0,-3017.0,-0.8044620270195781,-0.5510064426725496,-0.18930867443631375,0.11573665365846407
-9618.50104045868,284.0,1136.0,15156.0,1334.0,-926.0,-4162.0,-0.6649051470310926,-0.5277070585755024,-0.2896850292189567,0.44216398499602444
-9618.516650676727,1132.0,1224.0,15980.0,1329.0,-840.0,-5117.0,-0.3873270413117174,-0.40126535936132374,-0.3852777553255729,0.7352040027751663
-9618.532247304916,1076.0,1092.0,16052.0,1040.0,-533.0,-5818.0,0.003991234203724814,-0.18331207597128168,-0.4476808588306154,0.8751928938750089
-9618.547843933105,1124.0,604.0,15836.0,556.0,-549.0,-6299.0,0.4134259436412546,0.09188949446126128,-0.4426132505506391,0.7903978873763449
-9618.563441991806,652.0,-60.0,15596.0,21.0,-702.0,-6739.0,0.7325937837282872,0.3455021919127799,-0.3548318942514198,0.4669356596449723
-9618.579016208649,228.0,-1336.0,15472.0,-173.0,-1112.0,-6766.0,0.8401749680734911,0.5055157620150175,-0.19632769166617461,-0.003908306809306356
-9618.594624519348,600.0,-2228.0,15940.0,-185.0,-1295.0,-6565.0,0.7114654721036592,0.5213767816493375,-0.0012977007272562346,-0.47114907357875463
-9618.610214948654,1468.0,-2432.0,16664.0,-70.0,-852.0,-6166.0,0.40511145846565505,0.42396554946479587,0.20146620890285008,-0.7845694907126818
-9618.62581539154,1972.0,-2284.0,17004.0,-177.0,-1.0,-5698.0,0.019244603131701603,0.2840233377441658,0.37991828368650177,-0.8801264037555456
-9618.641405820847,1940.0,-1696.0,16188.0,-538.0,461.0,-5290.0,-0.35272210167442075,0.12958782026342505,0.5013046037846826,-0.7794150435127849
-9618.656991958618,1768.0,-748.0,14860.0,-1534.0,275.0,-4927.0,-0.6222957738482233,-0.01835624407409724,0.595039210074812,-0.5082709480460956
-9618.672580718994,664.0,100.0,14572.0,-2807.0,-312.0,-4142.0,-0.7278254731226322,-0.0869074957646491,0.6685460012200869,-0.12555242771991934
-9618.688178062439,-1008.0,-136.0,16092.0,-3999.0,-786.0,-2974.0,-0.6818055934959537,-0.013723144262340475,0.6769053214238064,0.2770415019763625
-9618.703847646713,-1792.0,-2140.0,18112.0,-4334.0,-2136.0,-1642.0,-0.47607362896352173,0.18165493702643373,0.6368187164714448,0.5786340000476009
-9618.719433307648,-1240.0,-5632.0,19412.0,-2353.0,-2731.0,-670.0,-0.24113663047650188,0.36204114697836093,0.6114257572857966,0.6610127658861984
-9618.735012054443,184.0,-7188.0,18308.0,-291.0,-2429.0,-449.0,-0.07470780972023343,0.47331928372538473,0.6448504494803723,0.5954456286055477
-9618.750610351562,644.0,-5192.0,16492.0,592.0,-1139.0,-282.0,-0.020292757080790723,0.509429721524565,0.6901241113468486,0.513612961066197
-9618.76617884636,172.0,-2876.0,15404.0,762.0,-879.0,-110.0,0.0036741777822196166,0.538055806990771,0.7269330855517194,0.4266740419938756
-9618.78180217743,256.0,-1340.0,15352.0,343.0,-1204.0,35.0,0.06228681690683997,0.5817528544120165,0.7332878866638769,0.3463709631235129
-9618.797379732132,920.0,-396.0,15644.0,152.0,-1227.0,-13.0,0.1327380049889979,0.6152644329829134,0.7276310764427917,0.27273304921197045
-9618.812942266464,736.0,-296.0,15628.0,246.0,-1270.0,-246.0,0.20472083365790777,0.628579439757226,0.7271853327410185,0.1848749848606821
-9618.828533411026,196.0,-616.0,15952.0,-22.0,-1359.0,-665.0,0.30035076061005533,0.6026618464156861,0.7326595783139579,0.0989851593957939
-9618.84412431717,-40.0,-1036.0,15984.0,38.0,-1389.0,-934.0,0.39114823790866876,0.5500673996905524,0.737853603262901,-0.0009858653920940185
-9618.859759569168,172.0,-1756.0,16388.0,318.0,-1335.0,-878.0,0.4572455319327415,0.49921481231580567,0.7270640289622937,-0.11440713474760349
-9618.87538266182,916.0,-2268.0,16996.0,262.0,-1009.0,-722.0,0.49966598016207675,0.45098864814080153,0.7112604512728528,-0.20261223549416132
-9618.89097571373,1412.0,-2648.0,17356.0,510.0,-517.0,-480.0,0.5018168566302367,0.4330034914878265,0.6965376040812995,-0.27481481921792933
-9618.906629562378,1436.0,-2748.0,17340.0,434.0,-103.0,-190.0,0.4867470233574468,0.4375601861640651,0.6881348045782907,-0.3131914900898993
-9618.922288656235,1172.0,-2552.0,17088.0,307.0,150.0,63.0,0.46758278359898514,0.45823887319062195,0.6833493073481413,-0.323136503239156
-9618.937927246094,832.0,-2548.0,16492.0,92.0,324.0,150.0,0.4486375925452903,0.4797931270519549,0.6875813838131397,-0.3094425737071109
-9618.953513383865,644.0,-2080.0,15932.0,-2.0,352.0,156.0,0.43162658426722716,0.4982696406660187,0.6944576228616961,-0.2883651625866847
-9618.969141244888,748.0,-1944.0,15620.0,-1.0,54.0,143.0,0.4320169693853883,0.5081820185108515,0.6902017061195629,-0.28059575744288345
-9618.984778165817,552.0,-1892.0,15404.0,-52.0,-386.0,7.0,0.45754585829954414,0.4968659186267601,0.6761808585673605,-0.2942031491456654
-9619.000365018845,760.0,-1916.0,15676.0,-78.0,-821.0,-256.0,0.5014516824681919,0.4562199850230751,0.6545957468276487,-0.33453541464322967
-9619.015985965729,960.0,-2092.0,16360.0,-70.0,-981.0,-248.0,0.5509603005006077,0.4086878617157888,0.6210887148985605,-0.37903269935997713
-9619.031572818756,1148.0,-2356.0,16744.0,11.0,-804.0,103.0,0.5961419290635703,0.3871692861266073,0.5768681666671314,-0.4024150377143991
-9619.047173023224,1396.0,-2388.0,17008.0,129.0,-740.0,168.0,0.6335889341594982,0.3754268507496491,0.5268784516921163,-0.42428627056428514
-9619.062804460526,1520.0,-2308.0,16920.0,197.0,-105.0,251.0,0.641061346379567,0.39372293253315105,0.5052408747787835,-0.42279340229984946
-9619.078452825546,1476.0,-2316.0,16688.0,171.0,161.0,403.0,0.642506569602548,0.4265651404880549,0.49359241661251035,-0.40198758090343323
-9619.094042778015,1404.0,-2212.0,16492.0,210.0,284.0,395.0,0.6357162739895869,0.464743381936961,0.48684358435444536,-0.3779705442273361
-9619.109632253647,1368.0,-2100.0,16328.0,190.0,362.0,472.0,0.6273521668525294,0.5064544230987195,0.4807309268515661,-0.3447186563527042
-9619.125199079514,1272.0,-2100.0,16272.0,274.0,352.0,410.0,0.6120359513083028,0.5484121575449309,0.47291500550007354,-0.31781676692068966
-9619.140796899796,1176.0,-2248.0,16228.0,339.0,335.0,387.0,0.5919497948801707,0.5908728433922207,0.46216736536067093,-0.2947304695454688
-9619.156372308731,1168.0,-2248.0,16344.0,463.0,346.0,472.0,0.5651387139187011,0.6413164438537131,0.4428083719948695,-0.2706514337009819
-9619.172003746033,1120.0,-2172.0,16580.0,767.0,466.0,417.0,0.5122129552593857,0.703605995012822,0.4227246762517893,-0.2527456039860701
-9619.187556266785,1020.0,-2304.0,16292.0,750.0,393.0,404.0,0.45909444290565393,0.7581351747387496,0.39758262714164516,-0.2374687430213515
-9619.203135728836,1212.0,-1892.0,16624.0,474.0,343.0,362.0,0.4226281365125222,0.7953348949718704,0.37684976370635215,-0.21636108398347342
-9619.21870803833,1204.0,-1820.0,16436.0,401.0,445.0,507.0,0.3888724013507323,0.8332293031490628,0.3496614668216455,-0.17956626203598852
-9619.234261512756,1040.0,-1652.0,16432.0,270.0,403.0,104.0,0.3582820646614768,0.8510639886633596,0.3512068398898991,-0.15484768308526015
-9619.249834537506,1028.0,-1712.0,16192.0,118.0,249.0,43.0,0.3424106652978722,0.8591635513815398,0.3540927510757834,-0.1386046604675048
-9619.265425920486,1056.0,-1860.0,16280.0,38.0,126.0,-71.0,0.3348243020166233,0.8595375134414349,0.3626869332387854,-0.13246183685817126
-9619.281039953232,1004.0,-1944.0,16200.0,-14.0,108.0,-48.0,0.33192677951716526,0.8587934592421121,0.3695811227126714,-0.1253323626872614
-9619.296714782715,1060.0,-2004.0,16564.0,-56.0,138.0,-113.0,0.3304361711166007,0.8549042242963858,0.3826069461592908,-0.11645870018447242
-9619.312304019928,988.0,-2152.0,16436.0,-37.0,182.0,-115.0,0.3259332700778491,0.8516752188508343,0.39673752196349754,-0.10495791403227538
-9619.327911138535,980.0,-2112.0,16388.0,255.0,214.0,-183.0,0.29776555470856514,0.8540694831875177,0.4138626982252401,-0.10304687930563802
-9619.343497514725,988.0,-2080.0,16468.0,25.0,258.0,-214.0,0.28457107823037664,0.8489310714858681,0.4361069240162057,-0.09025568195842258
-9619.359078168869,1100.0,-2012.0,16412.0,28.0,322.0,-240.0,0.26821692955856824,0.8424963259562471,0.4613821123843342,-0.07339050224769285
-9619.374670267105,1164.0,-2028.0,16428.0,106.0,356.0,-276.0,0.24414835325498466,0.8354528967602716,0.4889346572011744,-0.05790457568552182
-9619.390265226364,1216.0,-2116.0,16396.0,135.0,360.0,-316.0,0.21716363450140777,0.8258771662833908,0.5184792885600055,-0.04411450324061098
-9619.40583205223,1156.0,-2124.0,16412.0,137.0,369.0,-15.0,0.19043920102531173,0.8287221292207798,0.5257157051414469,-0.023990427679583693
-9619.42140007019,1184.0,-2072.0,16436.0,122.0,338.0,-159.0,0.16569099792083522,0.8236737485790941,0.5422614807341809,-0.007780464101484841
-9619.436966180801,1232.0,-2168.0,16440.0,118.0,365.0,-129.0,0.13976884548389898,0.8190090916195325,0.5563880849335907,0.011003482202371592
-9619.452535152435,1240.0,-2136.0,16160.0,168.0,430.0,-110.0,0.10689714636558886,0.8146034143174213,0.5691715709096313,0.032218012812028816
-9619.468099594116,1132.0,-2180.0,16312.0,127.0,400.0,-84.0,0.07817882257342089,0.8099244161783171,0.5788303162833283,0.053534817928036486
-9619.48378276825,1188.0,-2092.0,16212.0,168.0,334.0,-24.0,0.049510561475264156,0.8078653068962932,0.5832791073527898,0.06846775256640569
-9619.499412298203,1212.0,-2160.0,16376.0,178.0,223.0,244.0,0.02412741582199019,0.8192856816397502,0.5677933791852203,0.07615456794750629
-9619.51500082016,1220.0,-2128.0,16348.0,129.0,171.0,-41.0,0.006688689595777979,0.816240280029186,0.5718385590744138,0.08190072676762684
-9619.530611991882,1260.0,-2144.0,16356.0,139.0,154.0,250.0,-0.012696722327822227,0.8273670380675301,0.5548841703955478,0.08605890428036458
-9619.546201467514,1216.0,-2104.0,16148.0,170.0,186.0,-14.0,-0.033885631279517894,0.8249021676819698,0.5568293387474541,0.09126480842279237
-9619.561814785004,1488.0,-2288.0,16288.0,211.0,213.0,57.0,-0.059885509918822355,0.8250575682448992,0.5535768218461505,0.0961583958803983
-9619.577399253845,1176.0,-1992.0,16316.0,243.0,240.0,76.0,-0.08960270863333655,0.8250583035755418,0.5486294010859767,0.10127156842204645
-9619.593014717102,1208.0,-2012.0,16356.0,208.0,195.0,74.0,-0.11456538663693719,0.824975574048579,0.5434299148714703,0.10475687104306451
-9619.60864162445,1032.0,-2064.0,16304.0,172.0,97.0,96.0,-0.13243753865165805,0.8267666542652276,0.537016219864601,0.1026195758776401
-9619.624238967896,1260.0,-2160.0,16128.0,139.0,67.0,100.0,-0.14652159091303954,0.829135683613132,0.5301963937342667,0.09978589893804964
-9619.639817476273,1376.0,-2192.0,16396.0,81.0,85.0,129.0,-0.1574605720917071,0.8332275947398539,0.5204122987965188,0.10054343768696558
-9619.65541267395,1376.0,-2200.0,16384.0,132.0,128.0,13.0,-0.17300692017036703,0.8307662917877809,0.5187930431597902,0.10368101258836113
-9619.670965909958,1368.0,-2120.0,16632.0,185.0,255.0,241.0,-0.20007349195462684,0.8360697611269493,0.4988331002301698,0.11010672305070664
-9619.686638593674,1172.0,-2040.0,16368.0,192.0,285.0,305.0,-0.22928809479754036,0.8425709298532621,0.47305262629193845,0.11714269293738844
-9619.702222108841,1136.0,-1984.0,16288.0,175.0,244.0,285.0,-0.2550317427945746,0.8477761506907073,0.44869442475831117,0.12209718128612769
-9619.717799901962,1068.0,-1988.0,16244.0,177.0,207.0,272.0,-0.2790324067154799,0.8517874418565181,0.4255929758145297,0.12437720384149484
-9619.733370542526,1088.0,-2016.0,16184.0,186.0,112.0,261.0,-0.29978182665759845,0.855344474702693,0.40528899460390155,0.11940484435049666
-9619.74892950058,1000.0,-1996.0,16288.0,235.0,44.0,244.0,-0.32134445460917993,0.8569681989012117,0.38818493076055516,0.10796160009172254
-9619.764493227005,1124.0,-2052.0,16432.0,241.0,55.0,235.0,-0.34336193267812937,0.8572507538525208,0.37115766945572176,0.09729189386080218
-9619.780126571655,1172.0,-2056.0,16508.0,267.0,75.0,235.0,-0.36764864982028855,0.8557691256511878,0.3534019299764837,0.08718227891273052
-9619.79574728012,1156.0,-2092.0,16452.0,268.0,142.0,233.0,-0.39367283394499947,0.852771825514722,0.33328016645849184,0.0820136821963358
-9619.811339139938,1156.0,-2068.0,16368.0,223.0,216.0,164.0,-0.4176081678607124,0.8479027517564934,0.3150842700744591,0.08594326297872815
-9619.826919078827,1060.0,-2036.0,16300.0,224.0,248.0,190.0,-0.4422612557082581,0.8425916115053386,0.2934816032024179,0.09117514190792217
-9619.842498064041,1252.0,-1936.0,16220.0,223.0,156.0,196.0,-0.4641001959319431,0.837362362347583,0.2746857051752134,0.089347891032765
-9619.858084201813,796.0,-1896.0,16300.0,239.0,70.0,198.0,-0.4846874008951066,0.8315168406080196,0.259125669025311,0.08069544504486369
-9619.87366771698,1040.0,-1852.0,16272.0,193.0,-29.0,184.0,-0.4992842016267653,0.8274428607058315,0.24827373281423792,0.06643607353959066
-9619.889350652695,1276.0,-1864.0,16296.0,151.0,-134.0,117.0,-0.5079468780218541,0.8239533060465387,0.24647397409116822,0.04838903448651052
-9619.90493273735,1228.0,-1944.0,16456.0,134.0,-94.0,104.0,-0.516016002334419,0.8204770846258619,0.24367877461368173,0.034139328368111774
-9619.920581102371,1068.0,-2016.0,16580.0,26.0,-67.0,61.0,-0.5167069647165909,0.8207229487339909,0.24238260904330308,0.026046590335625838
-9619.936181783676,1092.0,-2068.0,16536.0,35.0,36.0,126.0,-0.5203160274078358,0.8216178123800228,0.2317806178338176,0.022206917817822774
-9619.951905965805,1192.0,-2020.0,16424.0,50.0,98.0,156.0,-0.5262043736634867,0.8221447646912977,0.21619423479880412,0.021142276790069806
-9619.96747994423,1188.0,-1948.0,16456.0,68.0,173.0,122.0,-0.534564286664045,0.8207938351203398,0.19956720641419215,0.026672715944206966
-9619.983142375946,1156.0,-1860.0,16484.0,110.0,218.0,96.0,-0.5464144192764363,0.816553163011082,0.18271227250309505,0.03589484447865418
-9619.998779773712,1476.0,-1888.0,16332.0,84.0,204.0,89.0,-0.5559071115804788,0.8130897803877098,0.1668548291864114,0.044852628690952634
-9620.014359235764,1144.0,-1984.0,16360.0,124.0,170.0,19.0,-0.5672558284488893,0.806482087262438,0.15770437384844221,0.054192236387294444
-9620.029979228973,1124.0,-1992.0,16616.0,132.0,42.0,247.0,-0.5782135631727179,0.802835070635469,0.1388067702110014,0.043099945063085704
-9620.04556465149,1096.0,-1960.0,16352.0,122.0,21.0,-49.0,-0.5868901742841297,0.7958809392695442,0.14162075918329786,0.04557427349413421
-9620.061152935028,1044.0,-1972.0,16608.0,109.0,-22.0,-82.0,-0.5939187351704255,0.7892413281146299,0.1488571150932728,0.04690651655713881
-9620.076736927032,1176.0,-1936.0,16356.0,146.0,-2.0,-88.0,-0.603622032046593,0.7803761402176111,0.1555930824621242,0.049440013116299364
-9620.092344284058,1112.0,-1968.0,16164.0,145.0,38.0,-52.0,-0.6138313657953207,0.7717146931757527,0.15773098540157937,0.0528055200405391
-9620.107979774475,1068.0,-2000.0,16244.0,158.0,-43.0,-30.0,-0.6237789670075993,0.762873565774633,0.16275314424092402,0.049347107320715886
-9620.123564243317,1108.0,-2004.0,16348.0,150.0,-48.0,-86.0,-0.632739140128215,0.7535161169570482,0.1717038842907348,0.04870747535290005
-9620.139157772064,1068.0,-1808.0,16628.0,113.0,-79.0,-12.0,-0.6389919289208307,0.7472925140405532,0.1773076034979459,0.04248796270475722
-9620.15471792221,1064.0,-2052.0,16352.0,113.0,-106.0,8.0,-0.6447965135261613,0.7413526294360602,0.18308253015087383,0.03338445935313188
-9620.170306444168,1076.0,-2284.0,16408.0,141.0,-72.0,10.0,-0.6528414181196781,0.7336275757487973,0.18686125356582575,0.025913988582198358
-9620.185965776443,1028.0,-2016.0,16408.0,107.0,-79.0,251.0,-0.6588749839380372,0.731488540965722,0.1754569086498419,0.004810736277485334
-9620.201564311981,1072.0,-2032.0,16444.0,126.0,-11.0,-44.0,-0.6667928843170897,0.7234309525724635,0.17892091145404704,0.004713144242150588
-9620.21715426445,1076.0,-1940.0,16468.0,90.0,242.0,-82.0,-0.6761383662343882,0.7165172939341597,0.16998283874170056,0.023360473721108152
-9620.232725858688,1112.0,-1940.0,16416.0,117.0,0.0,-106.0,-0.6832813617126867,0.7078739437884559,0.17681478394424763,0.027885347768739813
-9620.248334407806,1064.0,-1936.0,16472.0,116.0,94.0,-108.0,-0.6916541160136416,0.6988688612820214,0.17811896798010912,0.038347513315200796
-9620.263957977295,1112.0,-1928.0,16460.0,166.0,74.0,-125.0,-0.7024896030497394,0.6864244108069079,0.1817755743341355,0.04782809248657236
-9620.279533147812,1140.0,-2036.0,16424.0,146.0,73.0,-150.0,-0.711744430939931,0.6745527338424507,0.18683598661460374,0.05908289428774876
-9620.295140504837,992.0,-2068.0,16360.0,104.0,61.0,-129.0,-0.7182213404153296,0.6654835181633404,0.19112666875902898,0.06899557749614588
-9620.310715913773,1048.0,-2092.0,16380.0,143.0,34.0,-191.0,-0.7258936198637685,0.6528692655986723,0.2008762962316931,0.08055363610639893
-9620.326294898987,1048.0,-2060.0,16420.0,99.0,-247.0,-105.0,-0.7263506345532111,0.6461761293433037,0.22310374446327216,0.07138546601039016
-9620.341863155365,1264.0,-2076.0,16360.0,139.0,26.0,-135.0,-0.7338588959809775,0.634364633557763,0.22986523770184933,0.07870581285380593
