programtime,ax,ay,az,gx,gy,gz,q0,q1,q2,q3
-1278.8452382087708,4536.0,-3728.0,-15296.0,-157.0,103.0,-91.0,0.9998336236615449,-0.013908051395200231,0.008732048079213925,-0.007939926860793128
-1278.8608107566833,4404.0,-3848.0,-15260.0,-52.0,30.0,-320.0,0.99912053538083,-0.018899340788371768,0.010765185314161086,-0.03584803318510422
-1278.8763852119446,4576.0,-3752.0,-15140.0,-76.0,-19.0,-490.0,0.9965412390354643,-0.026263958664517154,0.008307396665207195,-0.07840121515370255
-1278.8920094966888,4720.0,-3748.0,-15132.0,-106.0,62.0,-20.0,0.996051401943179,-0.0353216566973838,0.014164155942660865,-0.0802082411078312
-1278.9075841903687,4544.0,-3628.0,-15344.0,-115.0,61.0,64.0,0.9959811125656678,-0.045071270912624764,0.020268705021815225,-0.07469527125269843
-1278.923308134079,4524.0,-3788.0,-15164.0,-93.0,37.0,-61.0,0.9950888337542378,-0.05329300517316061,0.023667853663546252,-0.07998688167571838
-1278.938912153244,4504.0,-3716.0,-15180.0,-85.0,-66.0,-177.0,0.9934163432017716,-0.06177066022477722,0.017531558659969772,-0.09487359509350768
-1278.954519033432,4680.0,-3756.0,-15288.0,-123.0,-119.0,-233.0,0.9906699817764508,-0.07403033514721354,0.006801422335139278,-0.11422012668202049
-1278.970145702362,4724.0,-3760.0,-15184.0,-130.0,-50.0,-75.0,0.9889930186825414,-0.08608125034268324,0.0031155015391309206,-0.12030428498933177
-1278.9857552051544,4656.0,-3816.0,-15276.0,-159.0,-84.0,-22.0,0.9874364860626822,-0.10096039079396574,-0.0027958647128217893,-0.12152517691169949
-1279.001386642456,4672.0,-3736.0,-15292.0,-190.0,-78.0,40.0,0.9859670499212243,-0.1184303261600111,-0.007313707892880101,-0.11742974066278325
-1279.0169715881348,4664.0,-3784.0,-15228.0,-284.0,249.0,117.0,0.9837656049792614,-0.1405875800732007,0.018058084362228336,-0.11006485532682928
-1279.032559633255,4432.0,-3948.0,-15300.0,-223.0,-89.0,-47.0,0.9804455359541916,-0.16092342261044926,0.011858719767537381,-0.11264800863003269
-1279.0481593608856,4472.0,-4068.0,-15140.0,-239.0,-136.0,-24.0,0.9766533539118127,-0.18297854999311844,0.0021152963128495375,-0.112528227821877
-1279.0637741088867,4512.0,-3816.0,-15264.0,-335.0,-95.0,-42.0,0.9703883212794739,-0.21266417745481336,-0.0034846290916518336,-0.11449153205353432
-1279.0793409347534,4540.0,-3892.0,-15352.0,-177.0,-45.0,228.0,0.9689818572112012,-0.22839170893323826,-0.0014135296430641117,-0.09438956308848108
-1279.0949265956879,4508.0,-3828.0,-15252.0,-295.0,-125.0,74.0,0.9632200487028895,-0.25456266334460276,-0.008190854331626278,-0.08566153228272184
-1279.110500574112,4684.0,-3608.0,-15352.0,-308.0,21.0,581.0,0.9590724342974454,-0.28053693871475643,0.008647710188171719,-0.03747410967356503
-1279.1260752677917,4548.0,-3740.0,-15316.0,-230.0,248.0,1087.0,0.9520390745060462,-0.2969880637016574,0.05638174582129574,0.0473369767787747
-1279.1416490077972,4072.0,-3644.0,-15260.0,-302.0,170.0,472.0,0.9401066549446593,-0.320342696912914,0.08131278123117144,0.08347613713975957
-1279.157220840454,4280.0,-3796.0,-15280.0,-246.0,-78.0,7.0,0.9333953918862496,-0.34012186745425416,0.07323926038312313,0.08789862583384599
-1279.172809123993,4364.0,-3800.0,-15604.0,-296.0,118.0,462.0,0.9191066623022712,-0.3620497127451485,0.09411605376048807,0.12371385224495837
-1279.1883993148804,4508.0,-3644.0,-15280.0,-195.0,280.0,668.0,0.9014018775506975,-0.3747244728383177,0.1352275599313082,0.1696164250276097
-1279.2040815353394,4164.0,-3548.0,-15236.0,-190.0,143.0,127.0,0.8912631520558971,-0.3904796343543966,0.14775017945228772,0.17704669839807985
-1279.2196552753448,4260.0,-3668.0,-15420.0,-77.0,85.0,-17.0,0.8876460966024899,-0.3982785495045575,0.15256490148023377,0.17373127245040135
-1279.235277414322,4704.0,-3656.0,-15144.0,-152.0,226.0,30.0,0.8785315638218192,-0.4132566039075029,0.1687333062774111,0.17008921790730824
-1279.250863790512,4636.0,-3592.0,-15388.0,123.0,296.0,701.0,0.8661336851129018,-0.3972982480989974,0.21802769941413633,0.2107853501987066
-1279.2664387226105,4280.0,-3568.0,-15136.0,252.0,197.0,178.0,0.8672934464632707,-0.37858970546189225,0.24362263474096021,0.2124145109968057
-1279.2820105552673,4348.0,-3732.0,-15600.0,-43.0,33.0,-239.0,0.8692838992544498,-0.3877384761807381,0.2374111535476814,0.19401113565251368
-1279.2975752353668,4640.0,-3728.0,-15236.0,95.0,185.0,128.0,0.866186099953411,-0.38121788832589165,0.2573536646912032,0.1953551973658629
-1279.3131947517395,4496.0,-3820.0,-15232.0,-87.0,206.0,81.0,0.8569779927477738,-0.38969086783927126,0.2741179381152603,0.19644109415321082
-1279.3287665843964,4440.0,-4032.0,-15396.0,68.0,57.0,216.0,0.853926151053793,-0.3806226388749535,0.2868823642310609,0.20889002947847568
-1279.3443324565887,4472.0,-3668.0,-15192.0,-110.0,61.0,-51.0,0.8494900971948929,-0.3914621271860999,0.2877670946729235,0.20570385745106864
-1279.359940290451,4540.0,-3908.0,-15208.0,-85.0,-233.0,-121.0,0.8542386703662069,-0.3967865953415221,0.2648115634354518,0.20666767449006115
-1279.3755280971527,4636.0,-3800.0,-15180.0,-36.0,118.0,143.0,0.8474488766655227,-0.3985254400368388,0.2779124154917306,0.21394523691201792
-1279.3911111354828,4552.0,-3828.0,-15308.0,-203.0,145.0,181.0,0.8330637951310721,-0.4119879908799849,0.29108275597945027,0.2270273943467979
-1279.4066915512085,4424.0,-3876.0,-15456.0,-28.0,139.0,222.0,0.8237813413236014,-0.4113074812175526,0.30858842736509456,0.2387124631809121
-1279.4222750663757,4244.0,-3716.0,-15332.0,-39.0,88.0,-62.0,0.8211290087178967,-0.41786522501322715,0.3119276720062224,0.23202786945405462
-1279.4378514289856,4428.0,-3804.0,-15120.0,-55.0,-112.0,-325.0,0.8282372649822483,-0.42845959705285636,0.2908636287502132,0.21411155050180616
-1279.453438282013,4648.0,-3728.0,-15260.0,-57.0,28.0,53.0,0.8242498500632751,-0.4320221815145316,0.2938446368911464,0.21823003624708442
-1279.4690289497375,4624.0,-3720.0,-15128.0,-187.0,89.0,237.0,0.8099625319156082,-0.4411986357998646,0.3055532359503081,0.2365199371331965
-1279.4846622943878,4344.0,-3928.0,-15276.0,-63.0,-51.0,-168.0,0.8121191961102795,-0.4492900097006878,0.2941947126430368,0.2281455008218006
-1279.5002582073212,4440.0,-3720.0,-15240.0,-142.0,-117.0,-311.0,0.8152012062218286,-0.46504875665797213,0.270794266227646,0.21411938885486495
-1279.5158545970917,4544.0,-3704.0,-15372.0,-90.0,121.0,169.0,0.8052322832745837,-0.46990105908849694,0.28455768789804076,0.22320592935231517
-1279.5314497947693,4324.0,-3828.0,-15188.0,-127.0,24.0,-86.0,0.8008847355378277,-0.48165449684580725,0.28025743026819877,0.21919935864454973
-1279.5470387935638,4372.0,-3992.0,-15308.0,-97.0,-23.0,-26.0,0.7976891759115344,-0.48888036664720413,0.2757248804853215,0.22059863105157235
-1279.5626497268677,4420.0,-3724.0,-15092.0,-29.0,34.0,-110.0,0.7975613151170382,-0.49444325960039404,0.2728575281985618,0.2120626817002198
-1279.578230381012,4272.0,-3760.0,-15296.0,-128.0,-53.0,-362.0,0.7993887641055941,-0.5109660355396212,0.2510681099533728,0.1919794741921495
-1279.5938696861267,4456.0,-3840.0,-15192.0,-63.0,23.0,-222.0,0.7994758831730706,-0.5207720740376273,0.24168525115594744,0.17670030701974804
-1279.6095058918,4488.0,-3952.0,-15136.0,-310.0,510.0,460.0,0.7657218174498572,-0.5396618639456056,0.29276805913258047,0.19162994138647574
-1279.625097990036,3892.0,-4388.0,-15540.0,93.0,170.0,324.0,0.7597638030518807,-0.5279854935071231,0.320802397963575,0.2026724048285868
-1279.640715122223,3456.0,-3472.0,-15124.0,131.0,-308.0,-1398.0,0.7927616500968939,-0.5489382833907758,0.23648670759290014,0.11945611870267901
-1279.656304359436,4324.0,-3840.0,-15252.0,-109.0,-693.0,-2241.0,0.8082228880053762,-0.5836296891938036,0.07843531519136208,-0.00022478128204439477
-1279.6719121932983,5120.0,-3496.0,-15192.0,152.0,-259.0,-783.0,0.8153570845822706,-0.576988138552627,0.020177602593134794,-0.04324785479845114
-1279.687480211258,5252.0,-3564.0,-15040.0,-261.0,82.0,-359.0,0.7999074565907938,-0.5956680816368007,0.008838526391066108,-0.07245328053867092
-1279.703115940094,4616.0,-4548.0,-15400.0,33.0,-272.0,80.0,0.8019006787107771,-0.5950892580238558,-0.006257761455246526,-0.05277231176840115
-1279.7186975479126,4436.0,-3320.0,-15428.0,-226.0,-89.0,77.0,0.790080791149391,-0.6114527303558531,-0.007513698805728679,-0.04291207670786333
-1279.734257698059,3768.0,-4132.0,-15404.0,-8.0,-240.0,-281.0,0.7878377443674166,-0.6126472919890973,-0.03905990774323083,-0.049490481666452944
-1279.7498362064362,4080.0,-3804.0,-15172.0,251.0,-485.0,-956.0,0.7916328023492694,-0.5917468959575589,-0.12409433861982905,-0.0880551673199473
-1279.7654049396515,4608.0,-3724.0,-15580.0,-152.0,-375.0,-978.0,0.768734244223074,-0.5922451935616114,-0.19858235235580368,-0.13732567784206962
-1279.7809720039368,4364.0,-4108.0,-15384.0,367.0,-674.0,-932.0,0.7604446213986473,-0.5566959436351997,-0.29482777088707607,-0.15776625000214808
-1279.7965593338013,4744.0,-3456.0,-15048.0,-162.0,-761.0,-1136.0,0.7120260869708692,-0.5449726847271554,-0.39555841862145746,-0.19888982334931263
-1279.8121366500854,5028.0,-3772.0,-15528.0,39.0,-279.0,297.0,0.7087450511700011,-0.5574707503507476,-0.39932783616365025,-0.165662591463081
-1279.8277623653412,3884.0,-3376.0,-15436.0,327.0,-456.0,-399.0,0.7015148234349082,-0.5291682096149269,-0.4509850126676115,-0.15643042154011141
-1279.8433458805084,3704.0,-3632.0,-15452.0,302.0,-1378.0,-2608.0,0.6054690728585392,-0.4134183132197888,-0.6389690877530201,-0.232832568603275
-1279.8589313030243,5060.0,-2928.0,-15664.0,435.0,-1229.0,-895.0,0.5292128339003126,-0.36219457180259046,-0.738166784160054,-0.20942461019360314
-1279.874512910843,4340.0,-3328.0,-15808.0,532.0,-338.0,-171.0,0.5200636756117369,-0.3323623533860383,-0.7677923504293258,-0.17194169355661076
-1279.8900837898254,2740.0,-2656.0,-15860.0,1451.0,-925.0,-1871.0,0.4606556239404552,-0.15145172643766486,-0.864917020700954,-0.12952728667298768
-1279.9056859016418,2468.0,-3020.0,-15856.0,1453.0,-877.0,-4280.0,0.33872141134178174,0.20415249523997042,-0.9031277110757863,-0.1671822409017668
-1279.9214103221893,3180.0,-3812.0,-16356.0,2235.0,-1248.0,-5083.0,0.11301013756889904,0.5844718701706447,-0.7900858951778028,-0.14623823038787573
-1279.9369831085205,4056.0,-4140.0,-16340.0,2624.0,-885.0,-4935.0,-0.12994026831502162,0.8422174933073207,-0.5205805362611639,-0.052736381212519716
-1279.9525635242462,4072.0,-4088.0,-16584.0,3684.0,-912.0,-5149.0,-0.4066621970187417,0.8995292605481962,-0.12984654952632074,0.09280539052023933
-1279.9681499004364,4032.0,-3152.0,-16664.0,3940.0,-953.0,-6156.0,-0.56906662337478,0.7042571954126405,0.3525226084967517,0.23645885766660102
-1279.9838120937347,4792.0,-3292.0,-16260.0,4999.0,-1572.0,-7374.0,-0.5302542576490007,0.20550344574274923,0.774717272441789,0.2764270316255613
-1279.9994661808014,6680.0,-2156.0,-14452.0,3218.0,-2027.0,-7872.0,-0.20740841839143273,-0.33913192810293225,0.8645799341464572,0.30736431281601245
-1280.0151019096375,8864.0,-4132.0,-15088.0,1871.0,-386.0,-1423.0,-0.0829758389054386,-0.4601397237035665,0.8613093984197601,0.19882797846816022
-1280.0306956768036,7228.0,-4480.0,-15560.0,2035.0,805.0,5559.0,-0.14033294390945616,-0.06290719488647717,0.9878133114586887,-0.02396270832439393
-1280.046261548996,1868.0,-1704.0,-17108.0,49.0,2290.0,15809.0,-0.1772575091521071,0.7601323322799118,0.610001172643944,-0.13666448787049762
-1280.0618288516998,-6424.0,-616.0,-15840.0,472.0,-1428.0,4445.0,-0.07330798044114249,0.8999191384017791,0.3068282407623092,-0.30104470600318994
-1280.0774009227753,-3404.0,1712.0,-15780.0,-5471.0,-6525.0,-8706.0,0.2073218122345108,0.3635540716790285,0.8059151620666564,-0.41874437869477515
-1280.0929696559906,4992.0,-4460.0,-16024.0,-5606.0,-5072.0,1477.0,0.6603702063467296,0.1499290113845861,0.7239700953725116,-0.13152863992733632
-1280.1085438728333,6000.0,-2244.0,-14700.0,-4567.0,-1174.0,14237.0,0.5813108156993733,0.46918421777181124,0.3172860785653793,0.5841861430172637
-1280.124122619629,-1444.0,-1600.0,-14864.0,-6606.0,-1460.0,12898.0,0.14503215173063624,0.3498980103279205,-0.3843298610400427,0.8419190075333172
-1280.139778137207,-6124.0,-3164.0,-15328.0,-7107.0,-6006.0,823.0,0.07752201800579801,0.5220986827304079,-0.7811170813477929,0.33355570365710596
-1280.1553699970245,20.0,-3796.0,-15404.0,-7948.0,-7748.0,-2081.0,-0.020001287512020283,0.5951733786656703,-0.6909185902913418,-0.40987815191270843
-1280.1709649562836,5644.0,-3948.0,-15780.0,-6861.0,-5982.0,5101.0,0.11697000639929155,0.06331359574313049,-0.5176880615544761,-0.8451677212961899
-1280.186516046524,5784.0,-3028.0,-15436.0,-7405.0,-4285.0,7965.0,0.38631410116852494,-0.48183405249711414,-0.04165629095379532,-0.7854057005882603
-1280.2021412849426,4824.0,-3900.0,-14816.0,-6833.0,-3931.0,7616.0,0.4383510673390461,-0.7294820202981146,0.4439168259710909,-0.28043212270396634
-1280.2177345752716,4864.0,-3432.0,-14968.0,-6229.0,-2383.0,9487.0,0.2572702184392213,-0.46300330799610545,0.7795760974771321,0.3342171146593541
-1280.2333691120148,2808.0,-4660.0,-15120.0,-4777.0,-2397.0,7911.0,-0.002727818669284559,0.029051700417491427,0.6962481516958827,0.7172078282954159
-1280.2489581108093,2684.0,-4300.0,-14992.0,-4687.0,-2497.0,5263.0,-0.14119782049279003,0.4240618064080301,0.3269166922112554,0.8326825542712514
-1280.2645370960236,3280.0,-5396.0,-15708.0,-3555.0,-2068.0,4837.0,-0.26429431134508724,0.6615959437642486,-0.07422592344641477,0.6978035801526433
-1280.2800953388214,3440.0,-4888.0,-15528.0,-1669.0,-1768.0,4337.0,-0.4067673277694582,0.7153943306489506,-0.35364356806212605,0.444620646734857
-1280.2957067489624,3124.0,-5088.0,-14724.0,-1200.0,-1900.0,1716.0,-0.4435607391849349,0.756214867734288,-0.4271233856018785,0.22126580834669543
-1280.3113129138947,3956.0,-4368.0,-13932.0,-934.0,-2229.0,-636.0,-0.4420483207096033,0.8395265191148797,-0.3096495963977582,0.06249506629629774
-1280.3268821239471,6032.0,-4608.0,-14920.0,-2130.0,-1088.0,-994.0,-0.3020797938890536,0.9311035031087083,-0.20134744051671177,-0.03540159346707233
-1280.3424530029297,5772.0,-6308.0,-17188.0,-222.0,59.0,2218.0,-0.2708982419647446,0.8817248663091678,-0.37535447681141365,-0.09101878580886975
-1280.3580412864685,3892.0,-4576.0,-16504.0,541.0,760.0,2011.0,-0.2665328688247507,0.7944587822601371,-0.5422891347234792,-0.06097513826674172
-1280.3736205101013,2684.0,-5324.0,-16064.0,38.0,244.0,1230.0,-0.24939192457141332,0.7323795687245968,-0.6296788474922799,-0.07020245219459281
-1280.3891932964325,2124.0,-4260.0,-16224.0,878.0,676.0,3622.0,-0.23353193779900736,0.49226891060226724,-0.8367613415457259,-0.054448241265391974
-1280.404799938202,1240.0,-3468.0,-16464.0,419.0,881.0,4585.0,-0.15286557282333776,0.1417644692381335,-0.9752717309424853,-0.07334850190338929
-1280.4203729629517,132.0,-3696.0,-17012.0,598.0,306.0,3787.0,-0.10407658659254734,-0.176848109591168,-0.9765359452886171,-0.06534797484651936
-1280.4360046386719,908.0,-2036.0,-16156.0,503.0,253.0,2979.0,-0.05560302181588439,-0.41941607832179456,-0.9046271535663284,-0.05146037544160484
-1280.4515843391418,1224.0,-1904.0,-15672.0,50.0,461.0,3329.0,-0.002082173501334702,-0.6529020790344336,-0.7535059503366075,-0.07709294749424576
-1280.4671750068665,640.0,-1248.0,-15612.0,-66.0,-45.0,987.0,-0.0020147660888966703,-0.7154514850719632,-0.6942401453091833,-0.0784584849905573
-1280.4827773571014,1568.0,-1016.0,-16512.0,-1215.0,-970.0,-1828.0,-0.14578523098038482,-0.5982009504511602,-0.782930153776458,-0.08900934566042212
-1280.4983839988708,3344.0,-1712.0,-16832.0,-686.0,-159.0,759.0,-0.1855057929541795,-0.6400165952092974,-0.7330115394042601,-0.13660322740453945
-1280.5139825344086,2552.0,-1772.0,-16188.0,-697.0,224.0,772.0,-0.19975692708318452,-0.6726238660753607,-0.682326764212738,-0.2051937906153433
-1280.529557466507,860.0,-2716.0,-15812.0,-597.0,-31.0,-547.0,-0.24559949410624465,-0.6287102388070223,-0.7015261529413758,-0.22861623051141305
-1280.5451681613922,1028.0,-2192.0,-15948.0,-714.0,-98.0,-590.0,-0.30131991228001026,-0.5774268888133346,-0.7152847295731773,-0.25328295279853785
-1280.5608613491058,928.0,-3156.0,-16840.0,-465.0,-80.0,-131.0,-0.332112049308445,-0.5583694862053417,-0.7089635959425583,-0.2744006618197641
-1280.5765142440796,272.0,-2016.0,-16172.0,-32.0,-288.0,-794.0,-0.3692763285227995,-0.5139038670160033,-0.7366530207059993,-0.2384955675551351
-1280.592097043991,608.0,-2548.0,-16332.0,-165.0,-467.0,-1250.0,-0.42953177777354146,-0.4350432042204288,-0.7690793550745368,-0.18643177825268317
-1280.6077644824982,752.0,-1644.0,-16032.0,-193.0,-971.0,-3167.0,-0.5314698921813437,-0.22200161201020988,-0.8163911125051527,-0.04195937788168606
-1280.6233494281769,1840.0,-2156.0,-16708.0,-783.0,-1197.0,-4445.0,-0.6000350161881952,0.11723778979039924,-0.781886978171286,0.12192634399205737
-1280.6389300823212,3564.0,-2308.0,-15984.0,-176.0,-599.0,-1881.0,-0.6097847619916938,0.25742920290547655,-0.7226061686562212,0.19933156938669047
-1280.6545069217682,3316.0,-2120.0,-15916.0,-326.0,10.0,258.0,-0.6056667246480756,0.2582763575577366,-0.734296144587281,0.16513725753153097
-1280.670078754425,1752.0,-2964.0,-15964.0,99.0,349.0,1169.0,-0.5987185141608921,0.1722346787255119,-0.7734402154881653,0.11688280160448733
-1280.6856582164764,1152.0,-2220.0,-16024.0,-223.0,600.0,1946.0,-0.5654864229434148,0.04576722960025833,-0.8234373499396246,0.009022022267017043
-1280.7012238502502,164.0,-2544.0,-16644.0,10.0,284.0,1056.0,-0.5432107678492843,-0.03065299060353306,-0.8380337634430681,-0.041010574113248655
-1280.7168011665344,772.0,-2012.0,-16236.0,-31.0,-187.0,-707.0,-0.5580937783367851,0.021824437819201715,-0.8294399325366297,-0.009188406242550974
-1280.7323670387268,1836.0,-2288.0,-16016.0,-328.0,-238.0,-988.0,-0.572741212762274,0.10868655169590942,-0.812365771806467,0.014716979354984042
-1280.7479858398438,2712.0,-2388.0,-16164.0,43.0,399.0,780.0,-0.544003636373539,0.05063342199025213,-0.8373740932791172,-0.0173472791785812
-1280.7635271549225,1912.0,-2460.0,-16032.0,3.0,891.0,1712.0,-0.4694232135943422,-0.07221183905662065,-0.8750766545581644,-0.09310287582084775
-1280.7791059017181,832.0,-2756.0,-16372.0,858.0,545.0,1419.0,-0.4059074705985,-0.20887272580205066,-0.8853601402114745,-0.08802688142304939
-1280.7946848869324,1112.0,-1884.0,-15964.0,192.0,352.0,627.0,-0.3693273925465346,-0.2608819041819627,-0.886133599715534,-0.10151429771397269
-1280.8102614879608,1808.0,-2544.0,-16064.0,246.0,443.0,929.0,-0.31959255100117606,-0.33532308325229554,-0.8778159459796888,-0.12189420070913545
-1280.8258402347565,2172.0,-2220.0,-15980.0,115.0,877.0,2020.0,-0.22317062738555543,-0.47525846248854065,-0.8292571460447477,-0.1914597885695218
-1280.8414206504822,1484.0,-2992.0,-15712.0,197.0,813.0,1877.0,-0.12260005726296959,-0.5919490803921602,-0.7584992609125354,-0.24340169140153917
-1280.8569951057434,516.0,-2404.0,-16008.0,511.0,493.0,1276.0,-0.03600455422451673,-0.6660733020149469,-0.7030790725861761,-0.24643426326175102
-1280.8725776672363,588.0,-2260.0,-16044.0,-88.0,24.0,-288.0,-0.04571963004324438,-0.6474533803238521,-0.7178030721079369,-0.25193766175054955
-1280.8881475925446,2240.0,-2336.0,-16000.0,113.0,193.0,189.0,-0.022922000223480902,-0.6553587268900473,-0.7101841716283084,-0.2561600346725163
-1280.9038121700287,3044.0,-1956.0,-15936.0,352.0,1022.0,3217.0,0.1271631296434662,-0.7983785137015502,-0.5140598630628858,-0.286642188986112
-1280.9195766448975,1028.0,-1216.0,-15904.0,236.0,1117.0,2900.0,0.2568474499346112,-0.866546787861092,-0.2948599447827066,-0.31013491398494675
-1280.9352838993073,-164.0,-2520.0,-16280.0,-115.0,307.0,154.0,0.2599497946257996,-0.8644845699900139,-0.27310256583127795,-0.3324267153216746
-1280.950873374939,952.0,-1916.0,-16632.0,252.0,147.0,-213.0,0.27599622614809644,-0.8491478747737263,-0.29302810019794984,-0.3419188535510335
-1280.9664542675018,1320.0,-2724.0,-16380.0,-33.0,-171.0,-1566.0,0.22024076781055368,-0.8075470212345124,-0.4083819211633961,-0.3641236316917342
-1280.9820449352264,2360.0,-2484.0,-16028.0,36.0,-107.0,-783.0,0.1935277854800831,-0.7806288332835222,-0.4656867047668543,-0.36919034913845034
-1280.9976468086243,2472.0,-2812.0,-15988.0,58.0,418.0,313.0,0.22425279763182823,-0.7782238752468038,-0.43875361199614415,-0.38932447997843944
-1281.0156376361847,1304.0,-2348.0,-15912.0,98.0,294.0,-56.0,0.24007809817020886,-0.7640317791583161,-0.44001690734921883,-0.4062056972298426
-1281.033714056015,1220.0,-2952.0,-16436.0,228.0,315.0,48.0,0.26883255055208904,-0.7496485988900963,-0.43809262998020854,-0.4169303125257241
-1281.0516760349274,1292.0,-2036.0,-16288.0,393.0,47.0,-866.0,0.263804664231619,-0.7033425561977299,-0.5062586668755038,-0.42357822180126736
-1281.069729566574,1844.0,-2356.0,-15852.0,-52.0,-293.0,-1080.0,0.20666054415218665,-0.6646360874533788,-0.5746962139923301,-0.4304353056712109
-1281.0876863002777,2476.0,-2684.0,-15584.0,-361.0,-15.0,-574.0,0.16307196682910619,-0.6419459470674204,-0.5937324637833024,-0.45694058271071675
-1281.1049346923828,2280.0,-2856.0,-16072.0,-348.0,328.0,559.0,0.1824647724856984,-0.6615684058078587,-0.542835114372684,-0.4841114436187039
-1281.1205406188965,1392.0,-2916.0,-16260.0,21.0,157.0,400.0,0.20782809790428472,-0.6732291121189738,-0.517841732632894,-0.4851906679448273
-1281.1361100673676,1700.0,-2208.0,-16216.0,-6.0,427.0,923.0,0.26475057449284944,-0.6943989757275871,-0.4539166049426098,-0.49160646005881464
-1281.1517145633698,1136.0,-2780.0,-16208.0,304.0,227.0,650.0,0.31928054385354815,-0.7020436436220376,-0.4214875856279183,-0.47701454058343357
-1281.1672959327698,1132.0,-1724.0,-15784.0,-147.0,-218.0,-875.0,0.26486866678062604,-0.6810391074152974,-0.4736213473260517,-0.49164330859464006
-1281.182871580124,1440.0,-2480.0,-15972.0,-212.0,-420.0,-1379.0,0.1742589049417885,-0.6419602247958037,-0.5518201031232132,-0.5030064389425808
-1281.1984548568726,2448.0,-2516.0,-15892.0,-572.0,-85.0,-624.0,0.11040025658107283,-0.6227883950013616,-0.5615022038929661,-0.53353694663238
-1281.2140219211578,2564.0,-2928.0,-16280.0,-184.0,529.0,1656.0,0.20111287354692686,-0.6734462039550697,-0.4526845076122723,-0.5487263061308787
-1281.229594707489,1776.0,-2524.0,-15832.0,59.0,757.0,2102.0,0.32890197796450926,-0.7060788976039107,-0.3128755385634688,-0.543493308715111
-1281.2451748847961,832.0,-2476.0,-16060.0,-316.0,146.0,277.0,0.32621236638626966,-0.7154515192981313,-0.2764778246445272,-0.5525166314514848
-1281.260769367218,1548.0,-2832.0,-16384.0,203.0,249.0,1214.0,0.4009350190272807,-0.7228373815876015,-0.20221733716187493,-0.525228882344007
-1281.2763404846191,1852.0,-2140.0,-16052.0,67.0,531.0,1787.0,0.48985959611289015,-0.7184524302682774,-0.07307210349637192,-0.4883893418455581
-1281.2919554710388,1044.0,-2688.0,-16048.0,31.0,60.0,-13.0,0.4914720529884492,-0.7147018078551721,-0.07264514210880664,-0.49232025177506034
-1281.3075625896454,1948.0,-2536.0,-16016.0,-217.0,172.0,360.0,0.49394956718667105,-0.7185623015547201,-0.033480580439911714,-0.488427164062248
-1281.3231382369995,2228.0,-2804.0,-16124.0,304.0,848.0,2575.0,0.6080967111458894,-0.6586725022940167,0.1474523470244391,-0.4178836320942419
-1281.3387143611908,1240.0,-1968.0,-15900.0,421.0,898.0,2414.0,0.6909078133935832,-0.558474808203034,0.31060322820397973,-0.3380501687968051
-1281.3543057441711,620.0,-2112.0,-16376.0,214.0,310.0,568.0,0.708251194133593,-0.5203419701776159,0.3501577196881336,-0.3240587160111929
-1281.3698751926422,1516.0,-2164.0,-16316.0,239.0,317.0,978.0,0.733778101781433,-0.4649851567764322,0.4058028447490441,-0.28404674354270754
-1281.3854324817657,1436.0,-2512.0,-16000.0,357.0,330.0,557.0,0.7486372166364107,-0.41358147470676426,0.43991642320633534,-0.2737996023364725
-1281.4010288715363,1304.0,-2560.0,-16332.0,198.0,89.0,-545.0,0.738185569882473,-0.4190984524620366,0.4209436083231415,-0.31975776796367045
-1281.4165687561035,1612.0,-3000.0,-16272.0,20.0,202.0,-448.0,0.7181440746887936,-0.42844764472101793,0.4167833665872602,-0.3563612339446847
-1281.4321355819702,1596.0,-2744.0,-16024.0,582.0,460.0,392.0,0.7332247845037088,-0.36266088404282154,0.44114692309467446,-0.36911771945934846
-1281.4477524757385,1224.0,-2252.0,-16096.0,315.0,456.0,-205.0,0.717907203524231,-0.33546162041411476,0.4532734066129799,-0.4081886417021168
-1281.4633407592773,1128.0,-2680.0,-15956.0,293.0,64.0,-1173.0,0.6782261154539492,-0.3594130539770634,0.41041934847371975,-0.49232870254082717
-1281.478920698166,2116.0,-2772.0,-16076.0,185.0,118.0,-1174.0,0.6258142588828282,-0.3835762180789645,0.3707988060760302,-0.5689763120866859
-1281.494502067566,2408.0,-2864.0,-15992.0,394.0,564.0,581.0,0.647467048519794,-0.31451910897083013,0.4004133751362346,-0.5670390464379601
-1281.5101511478424,1328.0,-2396.0,-16036.0,468.0,625.0,756.0,0.6727341342519283,-0.2299054526674099,0.43158696311420297,-0.555252159577936
-1281.5257456302643,604.0,-2532.0,-15992.0,31.0,-195.0,-1946.0,0.5779176378406413,-0.3065491269016733,0.37441771868671436,-0.6571531089494682
-1281.5413682460785,1604.0,-2712.0,-15884.0,138.0,-222.0,-1963.0,0.469222073893833,-0.3711599381359102,0.2985713581889415,-0.7435900011181756
-1281.5569565296173,2700.0,-2444.0,-16112.0,-78.0,432.0,-497.0,0.42238831509982483,-0.3589136107907492,0.3048671036347081,-0.774483815439459
-1281.5725269317627,1588.0,-3060.0,-15992.0,443.0,512.0,319.0,0.44318761718883876,-0.299087783560544,0.3033293047152569,-0.7887474669349368
-1281.588098526001,972.0,-2560.0,-16200.0,-38.0,-5.0,-1728.0,0.3197064026947253,-0.34297202478310523,0.25794083961183667,-0.8447630020026422
-1281.603713274002,1720.0,-3272.0,-16436.0,424.0,-213.0,-2544.0,0.14593838083110933,-0.39440827801757466,0.1412316788163603,-0.896212983687649
-1281.6192932128906,2776.0,-1988.0,-16676.0,812.0,335.0,-1092.0,0.08371588281154377,-0.36886183772428327,0.0441908732028516,-0.9246511571188984
-1281.6348445415497,2628.0,-2220.0,-16608.0,765.0,544.0,-729.0,0.0471722135422,-0.32077199272252466,-0.03675793160935094,-0.9452666107602405
-1281.6504380702972,3140.0,-2148.0,-16616.0,842.0,288.0,-1090.0,-0.018095524191334037,-0.2882016723724952,-0.13450623162559494,-0.947903171056949
-1281.6659891605377,4528.0,-2300.0,-17172.0,673.0,631.0,-876.0,-0.06578725838921047,-0.22571336221333826,-0.21194359852931258,-0.9485807428966853
-1281.681574344635,6256.0,-3396.0,-17872.0,803.0,2434.0,4570.0,0.33958786395704965,-0.10337791209051243,-0.18411373957673238,-0.9165670847482829
-1281.6971549987793,5316.0,-3144.0,-18036.0,2617.0,5765.0,13261.0,0.9325878608122335,0.13648366760220687,-0.06341145709235047,-0.32807175656087384
-1281.7127568721771,-148.0,-4988.0,-17860.0,3642.0,5391.0,5286.0,0.8638311680546226,0.45045351111434945,0.16791917442062265,0.15063365588087316
-1281.7283236980438,-4.0,-9716.0,-17156.0,6149.0,3455.0,-5052.0,0.5083586521115993,0.6335516336704063,0.5643828102912275,-0.14715927338979898
-1281.7439353466034,5560.0,-9696.0,-16480.0,9932.0,5238.0,-4093.0,-0.24334959986368704,0.6504021629771481,0.619753479860321,-0.36560035946625274
-1281.7595052719116,4344.0,-11160.0,-15292.0,13194.0,6648.0,-5494.0,-0.8979694381516522,0.16770022313083385,0.2173427663239609,-0.3439326172873442
-1281.7750914096832,2316.0,-10916.0,-13308.0,14719.0,4110.0,-15228.0,-0.7733048531181251,-0.5399395039874783,-0.1517316609368127,0.2957066777180841
-1281.7906699180603,7248.0,-9912.0,-11848.0,14067.0,4652.0,-16941.0,0.17631667494379966,-0.6283925300123181,-0.4087718201467831,0.637919162132136
-1281.806268453598,11140.0,-10032.0,-11524.0,13618.0,7919.0,-10216.0,0.924381372009439,-0.25797905460633713,-0.04646528517222293,0.27714051262894024
-1281.821828365326,9596.0,-8452.0,-11416.0,13126.0,10199.0,-3112.0,0.7498008599355195,0.31787278038595573,0.5741447075651575,-0.08434109736408196
-1281.8373963832855,6428.0,-7464.0,-11144.0,11898.0,10176.0,-1676.0,-0.06046553232670261,0.6397732715869145,0.705492159735971,-0.2988559735298924
-1281.8529641628265,5340.0,-6016.0,-11808.0,10747.0,9110.0,-1352.0,-0.7908231757260854,0.4639469611483265,0.2848142945247592,-0.27970116125984545
-1281.8685233592987,4724.0,-4596.0,-12452.0,8557.0,8786.0,-200.0,-0.9288198657501889,0.056745395974800585,-0.35643495841657286,-0.08383160169077132
-1281.884096622467,3628.0,-6124.0,-12184.0,7276.0,7769.0,721.0,-0.5253593439646028,-0.36477007049120663,-0.7634694552492052,0.08974823833593634
-1281.8997466564178,1508.0,-4300.0,-15884.0,9020.0,5048.0,1864.0,0.061771807758134005,-0.6944056107856904,-0.6376456809964651,0.32770882957619357
-1281.9153714179993,-1212.0,-648.0,-14512.0,6538.0,3953.0,3511.0,0.4655778302769689,-0.7802184287282171,-0.17470955287968926,0.37943782041335933
-1281.931033372879,-4992.0,-1824.0,-12564.0,3114.0,-1387.0,-6277.0,0.7333341964673069,-0.43479192376483605,-0.47129294713137965,0.22596437175966727
-1281.9467039108276,-868.0,1424.0,-13096.0,-1939.0,-3716.0,-5471.0,0.5266415759138154,-0.2234331232034653,-0.8184215746716694,-0.05396680541316846
-1281.962310552597,1608.0,2536.0,-15872.0,-7135.0,-2258.0,3279.0,0.1965594978799668,-0.6482208083680983,-0.6715565417249176,-0.30030977116679625
-1281.977941274643,-1664.0,808.0,-15468.0,-11357.0,-2879.0,2130.0,-0.38759293790462845,-0.72345255144696,-0.21001954523607813,-0.5313002078958499
-1281.9941701889038,444.0,-8228.0,-16288.0,-14395.0,-7895.0,-20667.0,-0.9554731810086418,-0.08918149378488695,-0.2311140544102333,0.16032453147783457
-1282.0098474025726,13444.0,-11832.0,-21200.0,-10331.0,-6820.0,-12952.0,-0.5344884474862546,0.6083604706810793,0.04970494586049458,0.5845930683590372
-1282.0254516601562,16988.0,-10116.0,-19740.0,531.0,3807.0,20792.0,-0.7813467597450439,0.22865275713796232,-0.5739419107202478,-0.08835066953860617
-1282.0410516262054,3440.0,836.0,-13672.0,1491.0,6907.0,24523.0,-0.1129759113677997,-0.4292492692598225,-0.633215786892815,-0.6340498998661198
-1282.056710243225,-8276.0,-740.0,-12732.0,-8661.0,-2090.0,-10480.0,-0.7251283985184641,0.07658643485789203,-0.33673504952940886,-0.5957623939761822
-1282.0723044872284,568.0,-9896.0,-18028.0,-7924.0,-9738.0,-21734.0,-0.8672565321988801,0.29514184326329135,0.3474487217377838,0.20009194255716406
-1282.0879204273224,15208.0,-8248.0,-17372.0,-1781.0,-1970.0,3883.0,-0.767165142669111,0.5385628924151087,0.338226338147483,-0.08372931965744944
-1282.1035442352295,11012.0,-2988.0,-14256.0,-1886.0,6351.0,19520.0,-0.35142436394647464,0.6256159991424658,-0.4812093543315646,-0.5035306299974099
-1282.1191203594208,-2244.0,-4536.0,-15256.0,-2403.0,2926.0,7679.0,0.1923674621602265,0.40504129770734243,-0.7086896449860806,-0.5446974332077297
-1282.1347131729126,-3876.0,-4284.0,-15480.0,-1776.0,-3473.0,-10417.0,-0.3264731587133347,0.6131428070154505,-0.2256244546566119,-0.683055473812968
-1282.1502931118011,5104.0,-2892.0,-14948.0,-2229.0,-4058.0,-10966.0,-0.6524477059485211,0.4514081183604818,0.4228184217380113,-0.43791241580907314
-1282.165871143341,9600.0,-3580.0,-15252.0,-2522.0,-40.0,-2179.0,-0.6094913371588939,0.49268884413803954,0.5833227951431063,-0.21333665755471973
-1282.1814486980438,6364.0,-5652.0,-15816.0,-1281.0,1255.0,1204.0,-0.5853707454070214,0.6343835291592489,0.48037657690554714,-0.15536078241819448
-1282.197027683258,3152.0,-4928.0,-15240.0,-451.0,-231.0,-1181.0,-0.5629594465721856,0.6011494756522924,0.5602697961351655,-0.0882820761920156
-1282.2127087116241,3328.0,-4136.0,-14840.0,-1630.0,-930.0,-4166.0,-0.4308275020412454,0.437037243684003,0.7776003291245671,0.1368350805289168
-1282.228295326233,4828.0,-5196.0,-15448.0,-955.0,-468.0,-2423.0,-0.3249610070841747,0.3061832316709772,0.8538252309679332,0.2676464972326579
-1282.2439255714417,4804.0,-4880.0,-14844.0,-736.0,-356.0,-2849.0,-0.20538578953103798,0.11927846700421064,0.8935656298641823,0.3809590396529062
-1282.259520292282,5064.0,-4888.0,-15052.0,-710.0,-762.0,-2316.0,-0.06011875469343023,-0.022639562877490266,0.8863640319139524,0.4585106197854847
-1282.2751116752625,4688.0,-4556.0,-14808.0,-796.0,-505.0,-3005.0,0.09408256464095122,-0.22243176922831143,0.8209468906556265,0.5174154827519206
-1282.290694952011,4572.0,-4240.0,-14904.0,-1067.0,-906.0,-4200.0,0.3058469113013794,-0.4582351975185033,0.6380045858649551,0.5379854263991466
-1282.30632686615,5108.0,-4488.0,-14688.0,-1439.0,-1376.0,-5322.0,0.5148942858316224,-0.6526761989118559,0.28757199153766394,0.4756048816769826
-1282.3219842910767,5780.0,-4600.0,-14708.0,-1537.0,-1298.0,-4551.0,0.5950313023814005,-0.7175450451177117,-0.08602794700795943,0.35166184004937323
-1282.3375589847565,6196.0,-4556.0,-14780.0,-1764.0,-717.0,-1665.0,0.5176697092713654,-0.7565761305705798,-0.27514179402995076,0.289668127227918
-1282.3531529903412,5096.0,-4756.0,-15012.0,-1770.0,-51.0,-295.0,0.401964642657715,-0.8182840248888607,-0.3376632953510101,0.2341349603058851
-1282.3687262535095,4196.0,-4580.0,-14896.0,-1307.0,-256.0,-669.0,0.31196044506142023,-0.8322491914302865,-0.41769745437109024,0.1886022287583738
-1282.3842997550964,4468.0,-4648.0,-15012.0,-1346.0,-438.0,-905.0,0.21074866958776473,-0.8199600887940478,-0.5121132467354661,0.14488089442678123
-1282.3998675346375,5128.0,-4784.0,-15060.0,-1311.0,-338.0,-376.0,0.10579819386543574,-0.8168640532483123,-0.5577085707339244,0.10247443981536544
-1282.415468454361,5524.0,-4332.0,-15024.0,-1113.0,-211.0,1112.0,0.006343651408886168,-0.8710533526444676,-0.4857433835701731,0.07265796757022135
-1282.4311075210571,5120.0,-3772.0,-14888.0,-1332.0,76.0,1142.0,-0.09756752141279212,-0.9100738337600962,-0.40265528949086465,0.010719781508648558
-1282.4466922283173,5016.0,-4012.0,-14892.0,-1380.0,-246.0,1463.0,-0.21360263795870602,-0.9350543964721958,-0.281295169854168,-0.03033506406477988
-1282.4622781276703,5080.0,-4080.0,-14788.0,-1126.0,392.0,2436.0,-0.2813597358477221,-0.9467437614294266,-0.08448200934575602,-0.13181706769255988
-1282.4778625965118,4732.0,-3728.0,-15268.0,-1339.0,748.0,2762.0,-0.3416587210947214,-0.892424236597821,0.1357433486640545,-0.2615760759820837
-1282.493439912796,4500.0,-4732.0,-15376.0,-1526.0,305.0,2280.0,-0.40033530943967827,-0.7904602336523996,0.3297145163253379,-0.325872055804697
-1282.5090372562408,5320.0,-4428.0,-14868.0,-779.0,354.0,3157.0,-0.3598239870312437,-0.6369967815545732,0.5359875489064351,-0.4212827388623068
-1282.5246624946594,5488.0,-3468.0,-15076.0,-1173.0,1188.0,4678.0,-0.2829624365780605,-0.309944038194305,0.7358365713512548,-0.531424023671911
-1282.5402467250824,4260.0,-4232.0,-15056.0,-906.0,1039.0,4513.0,-0.15236731745009394,0.04651764858958058,0.8085659657240737,-0.5664286257027047
-1282.5558433532715,3900.0,-3988.0,-15068.0,-746.0,438.0,3142.0,-0.02398504238787578,0.28830669539455517,0.795506547243099,-0.5324221073788034
-1282.5714318752289,4932.0,-4040.0,-15136.0,-1151.0,757.0,3546.0,0.1111079443126941,0.5429037605499215,0.719737688644303,-0.41819635464254934
-1282.5870122909546,4676.0,-4628.0,-15500.0,-782.0,908.0,4042.0,0.22378511479179278,0.7717994316122164,0.5309195105077495,-0.2690173472527294
-1282.602646112442,4120.0,-4376.0,-15336.0,-640.0,680.0,3696.0,0.3054605645711612,0.8981910091048178,0.29448138193036233,-0.11501074015725925
-1282.6182126998901,4412.0,-4056.0,-15148.0,-741.0,636.0,3574.0,0.3642442964379205,0.9293914680987313,0.03684944678287546,0.04690106405536169
-1282.6338241100311,4540.0,-4144.0,-15300.0,-875.0,723.0,3119.0,0.40326276400683164,0.8728709240270106,-0.1890052573996814,0.19938030451647756
-1282.64941072464,4468.0,-4012.0,-15192.0,-677.0,800.0,3526.0,0.3869330724257943,0.7398838404499118,-0.4201933459864229,0.35537621205274694
-1282.6649761199951,4144.0,-3980.0,-15244.0,-746.0,1040.0,3516.0,0.34595885705619817,0.5262810201416787,-0.6039793963251227,0.48841544393860364
-1282.6805658340454,3556.0,-4224.0,-15116.0,-540.0,643.0,2362.0,0.2967665726936932,0.3499041398737051,-0.6996809090846644,0.5476708132567765
-1282.6961388587952,3756.0,-4004.0,-15304.0,-631.0,239.0,907.0,0.2857554645488678,0.26555056438671953,-0.747887741267141,0.5371132456909711
-1282.7117593288422,4568.0,-4196.0,-15256.0,-527.0,255.0,994.0,0.2665568909481955,0.17477151320858625,-0.7854668416270147,0.5305131315653693
-1282.727341413498,4616.0,-3948.0,-15212.0,-511.0,667.0,1784.0,0.23394980734521106,0.009652084973913148,-0.8091044256583165,0.5390031106393735
-1282.7429065704346,3980.0,-3460.0,-15300.0,-254.0,602.0,878.0,0.23424421108676707,-0.08541356125805795,-0.8060210973097028,0.5368092434163337
-1282.7584955692291,3716.0,-3628.0,-15176.0,-286.0,-146.0,-1292.0,0.2804156621497207,0.006421819023907347,-0.8266471570436444,0.4878322400305437
-1282.774052143097,4872.0,-3864.0,-15136.0,-193.0,-201.0,-1401.0,0.3230718917442498,0.11048958252592588,-0.8327150224449226,0.4358925283972997
-1282.7896263599396,5444.0,-3800.0,-15220.0,-181.0,369.0,-177.0,0.35795764957153536,0.10417491998242027,-0.8270261391874281,0.4207632021227796
-1282.8051760196686,4660.0,-4300.0,-15316.0,-33.0,134.0,-482.0,0.38508777061408,0.13290159010605768,-0.8190599148147086,0.40396216681080566
-1282.8207747936249,4568.0,-3772.0,-15184.0,20.0,-40.0,-848.0,0.41057920854785757,0.19507882705081603,-0.8078233345311782,0.3752205017474673
-1282.836341381073,4624.0,-3736.0,-15096.0,-290.0,49.0,-976.0,0.44894489885424527,0.250916997936616,-0.7959789853244349,0.3192281204109546
-1282.8519570827484,4528.0,-4448.0,-15300.0,-2.0,64.0,-825.0,0.47493548822639226,0.3055757918831376,-0.7736298499873266,0.287326595787334
-1282.867553472519,4500.0,-3956.0,-15264.0,71.0,252.0,-1179.0,0.5165059323664016,0.37971474073845807,-0.7261346648747603,0.24852924569043996
-1282.8831326961517,4508.0,-3888.0,-15096.0,-210.0,-123.0,-1629.0,0.545139605507609,0.47132977120129016,-0.6755055009482268,0.1560877172458902
-1282.8987214565277,4860.0,-4056.0,-15328.0,-25.0,-86.0,-1608.0,0.5572635212979739,0.5606379102557739,-0.6080156822627791,0.0738879661186353
-1282.9145827293396,4760.0,-3812.0,-15212.0,-204.0,55.0,-1459.0,0.5745836923855403,0.6227179845722053,-0.5310838715004982,-0.005080705361611164
-1282.9306707382202,4516.0,-3992.0,-15348.0,-119.0,28.0,-1712.0,0.574940203420365,0.6885287291427825,-0.4319478837010375,-0.09377087715367462
-1282.9463245868683,4576.0,-4180.0,-15068.0,-212.0,-321.0,-2284.0,0.5456393557116954,0.7463988121115364,-0.3031023950581603,-0.23085806220927263
-1282.961998462677,4924.0,-4316.0,-15072.0,-6.0,-282.0,-2288.0,0.48261669886509007,0.7853747497383641,-0.1641927756253476,-0.3511528967307681
-1282.9775757789612,5132.0,-4164.0,-15040.0,-147.0,44.0,-1019.0,0.4600735699948954,0.7921086723673706,-0.08770012812609607,-0.39141390992045727
-1282.993170261383,4564.0,-4124.0,-14996.0,-195.0,20.0,-1259.0,0.4278953386457351,0.7899123714578131,0.0067263603983493655,-0.43920243699111816
-1283.0087885856628,4412.0,-4032.0,-15068.0,-138.0,-454.0,-2185.0,0.3472085514304191,0.7520791572549256,0.14300390801228538,-0.5416392206344781
-1283.0243711471558,4976.0,-3956.0,-15048.0,-16.0,-367.0,-1848.0,0.2618177340385839,0.7019376752047296,0.25063405817905876,-0.6131211488374685
-1283.0399897098541,5288.0,-3920.0,-14920.0,-301.0,75.0,-650.0,0.24322047549453066,0.6836705713612681,0.30777625588059054,-0.6153959103462558
-1283.0555684566498,4504.0,-3892.0,-15212.0,-208.0,191.0,-586.0,0.21853498380300332,0.672844039042511,0.35751837967109584,-0.6096752973317316
-1283.0711483955383,3904.0,-3924.0,-15244.0,-103.0,-360.0,-2164.0,0.11837524210748503,0.5739013854992165,0.47470572032084296,-0.65671834211688
-1283.0867924690247,4460.0,-3888.0,-15104.0,-204.0,-686.0,-2932.0,-0.010783315020431698,0.3975527450400757,0.6056816600305338,-0.6891917452573904
-1283.1024324893951,5336.0,-3848.0,-15208.0,-301.0,-275.0,-1811.0,-0.09359572222583465,0.28192958219422176,0.6782403243990849,-0.6721202376240727
-1283.1180665493011,4996.0,-3944.0,-15180.0,-225.0,95.0,-1117.0,-0.15846366259088687,0.22212609956683288,0.7148031010552962,-0.6438988975384561
-1283.1336691379547,4492.0,-4020.0,-15176.0,-258.0,-211.0,-1517.0,-0.22350822960341596,0.11813015321455737,0.7549207959535159,-0.6051313328839962
-1283.149263381958,4748.0,-3868.0,-15328.0,-3.0,-219.0,-1445.0,-0.2830350476795758,0.011321186496277802,0.7682213148144765,-0.5741071363308887
-1283.1648910045624,4888.0,-3880.0,-15128.0,-191.0,-112.0,-1066.0,-0.32720040395807376,-0.06079260932967411,0.7782950617295085,-0.5324480737011106
-1283.18052983284,4952.0,-3832.0,-15036.0,-229.0,26.0,-632.0,-0.358823406701804,-0.0958419604603663,0.7836772122228629,-0.497905722462222
-1283.1961064338684,4980.0,-3588.0,-15252.0,-265.0,166.0,-156.0,-0.37886552507814,-0.09099851409820361,0.7885077932273313,-0.4758525447646029
-1283.2117247581482,4868.0,-3884.0,-15020.0,-136.0,224.0,142.0,-0.3891864163971745,-0.06744073624814616,0.787799329662376,-0.4726075502673904
-1283.2273049354553,4672.0,-3828.0,-15128.0,-234.0,85.0,-97.0,-0.400148974569859,-0.06266561168240332,0.7939634806141643,-0.4534046875741384
-1283.2428619861603,5104.0,-3780.0,-15396.0,-132.0,232.0,386.0,-0.4011844803805783,-0.022144679598120682,0.7927206084904153,-0.458426289322338
-1283.2584092617035,4744.0,-3640.0,-15156.0,-148.0,343.0,464.0,-0.4059400789622926,0.028793236579699115,0.7866615949686473,-0.4642705427019217
-1283.27401471138,4856.0,-4040.0,-15240.0,-133.0,226.0,376.0,-0.40541886543873024,0.06840394164163048,0.7826679458134965,-0.46731930295071555
-1283.2895843982697,4836.0,-3752.0,-15200.0,-226.0,272.0,568.0,-0.39866880811324806,0.1260589448213465,0.7777420054110207,-0.4693502923055816
-1283.3051681518555,4688.0,-3768.0,-15072.0,-79.0,300.0,415.0,-0.4006251587836426,0.1690863386627369,0.7653919592395755,-0.47443064926142325
-1283.320795059204,4824.0,-3908.0,-15340.0,-21.0,198.0,390.0,-0.39698163098858796,0.20392379895620294,0.7532350265597613,-0.48317456849510027
-1283.336377620697,4900.0,-3724.0,-15108.0,-7.0,387.0,870.0,-0.38417886839231774,0.2767236361833505,0.7223591934619573,-0.5040117279183628
-1283.3519933223724,4672.0,-3772.0,-15276.0,-17.0,445.0,795.0,-0.3755720762146604,0.34591214083911737,0.6870306404464374,-0.5169906241661122
-1283.3675739765167,4448.0,-3892.0,-15248.0,-251.0,259.0,348.0,-0.36738191156370903,0.38635664836334077,0.6789120122476472,-0.5048143727619998
-1283.3831791877747,4600.0,-3908.0,-14880.0,69.0,59.0,-67.0,-0.376054576923595,0.38280062660478054,0.676405106756919,-0.504502494541865
-1283.3987848758698,4804.0,-3744.0,-15160.0,-114.0,73.0,-318.0,-0.3902908068482672,0.37085862370892086,0.6895324368845179,-0.48443986808947936
-1283.414404630661,5016.0,-3984.0,-15300.0,-136.0,188.0,225.0,-0.3874412038575966,0.3968567580065348,0.6815222763356147,-0.4774111582653266
-1283.4300031661987,4732.0,-3704.0,-15160.0,-89.0,295.0,167.0,-0.39466416888183364,0.4219355337185621,0.6693534962905402,-0.46709366961036114
-1283.44557929039,4400.0,-4000.0,-15224.0,-164.0,32.0,-342.0,-0.4041028102607497,0.4087402446500946,0.6873330502750371,-0.44407838175524655
-1283.4611501693726,4456.0,-4068.0,-15228.0,-77.0,-80.0,-742.0,-0.4242816455430721,0.3631250302807975,0.7182451003554423,-0.4150292440952006
-1283.4767544269562,4748.0,-3892.0,-15104.0,-178.0,-44.0,-1004.0,-0.45032200750380036,0.3040322764558296,0.7553200814352418,-0.36642330577010673
-1283.4923255443573,5100.0,-3868.0,-15268.0,-59.0,24.0,-506.0,-0.46589162817445523,0.2735294637766013,0.7691037341277593,-0.341476308685942
-1283.5079472064972,4812.0,-3840.0,-15200.0,-163.0,-97.0,-805.0,-0.47804769447451995,0.22269612887725265,0.7952209946794971,-0.2991661839373451
-1283.5235629081726,4944.0,-3684.0,-15156.0,-239.0,-256.0,-1060.0,-0.4808243829088222,0.15174124995801816,0.8289764120460361,-0.242034324286472
-1283.53915309906,5180.0,-3844.0,-15256.0,-312.0,-196.0,-687.0,-0.4756878635608409,0.11077083069584295,0.8510748019722223,-0.19267215931685125
-1283.5547766685486,5184.0,-3760.0,-15188.0,-259.0,3.0,414.0,-0.46576896963199876,0.15220891641329878,0.8506841567477451,-0.19033701203553008
-1283.5703656673431,4404.0,-3840.0,-15212.0,-197.0,188.0,67.0,-0.4755944293601439,0.16830182527619766,0.8453261901781945,-0.17580690136942262
-1283.586008310318,4020.0,-3900.0,-15200.0,-187.0,-400.0,-1403.0,-0.460818827189135,0.0659461126888473,0.878339288278182,-0.10870700711654503
-1283.6016101837158,4660.0,-3688.0,-15164.0,-229.0,-327.0,-1104.0,-0.44231571435726746,-0.012452442283378082,0.8954665630179801,-0.0483878086976982
-1283.61722946167,5352.0,-3672.0,-15072.0,-249.0,171.0,111.0,-0.45502418675558154,0.006597778550769693,0.8898258699565293,-0.03345713588642089
-1283.63280916214,4800.0,-3696.0,-15248.0,-139.0,239.0,279.0,-0.4721357515316457,0.03450729605748673,0.8802068628237042,-0.033659430810723465
-1283.6483755111694,3864.0,-3776.0,-15220.0,-14.0,-47.0,-736.0,-0.4693987099539612,-0.021487420855438713,0.8827213949265186,-0.0024659232590148383
-1283.6639993190765,4152.0,-3928.0,-15132.0,-80.0,-404.0,-1755.0,-0.4332133702236873,-0.15156640740111,0.8852582011036345,0.07531080523877239
-1283.6795690059662,4884.0,-4048.0,-15152.0,108.0,-234.0,-1153.0,-0.4037607929764765,-0.24185560403173995,0.8750678011313319,0.11286909354037157
-1283.6951370239258,4728.0,-3720.0,-15220.0,275.0,51.0,-793.0,-0.3927719870970673,-0.311735548767193,0.8570754578962816,0.11820648568719726
-1283.7107033729553,4324.0,-3952.0,-15168.0,329.0,-200.0,-1471.0,-0.3504066356005609,-0.4272115798864808,0.820253487210138,0.14795158822263635
-1283.7262880802155,4376.0,-3332.0,-15176.0,421.0,-284.0,-1748.0,-0.28800793438038125,-0.5545943609348536,0.7598033868114784,0.17937485315119853
-1283.7418859004974,4300.0,-3600.0,-15408.0,555.0,-259.0,-2545.0,-0.19884532578545017,-0.7148558787596162,0.6355571094268612,0.2133278455173345
-1283.7575159072876,4800.0,-3852.0,-15168.0,529.0,-1183.0,-3836.0,-0.027047112184645988,-0.8625741439851512,0.4023148686161755,0.3055765801580748
-1283.7731249332428,5956.0,-3832.0,-15096.0,287.0,-951.0,-2806.0,0.09951901566986401,-0.906424568959163,0.1945472494476993,0.3614440953171481
-1283.788741827011,6372.0,-3488.0,-15080.0,244.0,-94.0,-188.0,0.12629472633033206,-0.9042877337793097,0.18647700558719468,0.36268397128169305
-1283.8043184280396,5180.0,-3516.0,-15164.0,41.0,-115.0,-96.0,0.134415563631085,-0.9017957538324447,0.1789045161367743,0.3697161732050372
-1283.8199791908264,4656.0,-3828.0,-15484.0,188.0,-533.0,-539.0,0.17451232159679683,-0.8888772482100269,0.13596799313366825,0.40119246262694064
-1283.835552930832,4608.0,-3524.0,-15228.0,344.0,-486.0,-328.0,0.2180418468281165,-0.8691312777999348,0.114942671461895,0.4287852111008953
-1283.8511204719543,5020.0,-3552.0,-15516.0,151.0,-610.0,-603.0,0.2574004743902555,-0.8471949290475019,0.06303587031204817,0.4604695723214209
-1283.8666965961456,5200.0,-3508.0,-15404.0,173.0,-589.0,-187.0,0.2804659817226545,-0.8195560795191988,0.04281994240439676,0.49782840231544867
-1283.8822600841522,5436.0,-3244.0,-15272.0,193.0,-134.0,1107.0,0.24543685351970626,-0.8011599938329172,0.12644220253113858,0.5309574226197997
-1283.8978035449982,4796.0,-3268.0,-15592.0,248.0,153.0,1434.0,0.19303102421084214,-0.7809597862894586,0.23951337474578366,0.5435753666316403
-1283.9134171009064,4052.0,-3388.0,-15120.0,314.0,11.0,862.0,0.1727270986260371,-0.7559383065053831,0.31236210973777484,0.5487736678797291
-1283.9290606975555,4064.0,-3784.0,-15532.0,315.0,-52.0,544.0,0.16859288264069142,-0.7329386872676533,0.36204094388336405,0.5507301295383377
-1283.9447169303894,3936.0,-3748.0,-15580.0,890.0,-120.0,22.0,0.22753150271452718,-0.7113695497631244,0.4032706538662411,0.5287301378516011
-1283.9603185653687,4048.0,-3540.0,-15240.0,677.0,-369.0,-982.0,0.3258821068084991,-0.7114212777686568,0.364118389719737,0.5050726841435511
-1283.9759454727173,4616.0,-3844.0,-15536.0,780.0,-745.0,-1122.0,0.4433028486680059,-0.6859461666742503,0.30489140978156604,0.48989965199940877
-1283.9915568828583,5208.0,-3388.0,-15480.0,1056.0,-79.0,-38.0,0.5079848727944286,-0.6402042440026021,0.343274047777562,0.46287452197706097
-1284.0071568489075,5084.0,-3548.0,-15300.0,938.0,-400.0,-930.0,0.6054635353430005,-0.6061602300954556,0.30927636460602675,0.41271274891461673
-1284.0227987766266,6184.0,-3584.0,-15788.0,1103.0,359.0,1681.0,0.5842600494493235,-0.5076728860614097,0.44984725300446915,0.44558487893990073
-1284.0383653640747,5528.0,-3160.0,-15900.0,1771.0,2024.0,5325.0,0.3335490432483138,-0.2547529656275553,0.7609964921984896,0.494702234797554
-1284.0540046691895,2112.0,-3364.0,-16292.0,2523.0,1525.0,2415.0,0.17455577110636206,-0.08239002454790578,0.9186463859500529,0.34471870301648144
-1284.069594860077,2344.0,-3412.0,-16320.0,3271.0,260.0,-998.0,0.19840633090628101,-0.11533908423534449,0.9713076478791447,0.06239612708768981
-1284.0851764678955,4216.0,-3008.0,-16228.0,4014.0,1086.0,-419.0,0.13974723507671366,-0.08199662399531706,0.946741322096917,-0.2782591112182418
-1284.10076212883,5160.0,-2532.0,-16856.0,4382.0,2051.0,1706.0,0.03907612727768947,0.14799680984661884,0.8010537035695081,-0.5786907330775017
-1284.1163659095764,4224.0,-2592.0,-17304.0,6577.0,3261.0,2755.0,-0.11125472938994481,0.43553075108339817,0.3670032174028344,-0.8143979300471417
-1284.1319980621338,2392.0,-1252.0,-17224.0,7171.0,4194.0,1414.0,-0.33647844504811936,0.5715682215591463,-0.19086199294567327,-0.7236461315936957
-1284.1475660800934,1712.0,-2148.0,-18060.0,8205.0,5683.0,479.0,-0.467840213363215,0.5138325563312982,-0.6781503511813597,-0.23919393806470782
-1284.163164615631,940.0,-3164.0,-19004.0,10951.0,6374.0,-2270.0,-0.4180867352516711,0.22222868944381227,-0.7082706157350421,0.523613050143891
-1284.1787414550781,2240.0,-2808.0,-18936.0,12378.0,7377.0,-4290.0,-0.003623497441779756,-0.18259809284530204,-0.19935206951614937,0.9627583077466411
-1284.1943151950836,4168.0,-3964.0,-19476.0,12111.0,9035.0,-4043.0,0.40560500861684545,-0.5173041021311738,0.44361909631213486,0.6091659382224139
-1284.2099173069,5476.0,-5172.0,-20436.0,11677.0,10293.0,-2826.0,0.40143495551999736,-0.4462078617571127,0.7632295146538632,-0.23922631241991685
-1284.225516796112,5552.0,-6780.0,-20568.0,10667.0,9632.0,-4973.0,0.04281791190333456,-0.1220363987182888,0.4118528317596632,-0.9020260466193067
-1284.2410819530487,6212.0,-6416.0,-23136.0,10274.0,9423.0,-6655.0,-0.423233445537246,0.24951442825035597,-0.25755157420106045,-0.8320355685306516
-1284.2567129135132,6692.0,-6684.0,-23368.0,11195.0,10189.0,-3167.0,-0.3975958484790002,0.3853108486811301,-0.8202492653167595,-0.14368101443199607
-1284.2722795009613,5184.0,-4960.0,-20628.0,14030.0,10458.0,2693.0,-0.04712165132532565,-0.08859870440578523,-0.7875972383521419,0.6079641516521102
-1284.2879843711853,2084.0,-3832.0,-15176.0,12511.0,10184.0,3371.0,0.3258743854179199,-0.5207039307580071,-0.0798636385293242,0.7850446488337532
-1284.3036704063416,-12.0,-4476.0,-9452.0,8747.0,5673.0,-3643.0,0.7289961651431903,-0.4575581622491748,0.3708266661227391,0.34884481228473924
-1284.3194465637207,2416.0,-808.0,-6528.0,4254.0,1456.0,-1819.0,0.8352528124509669,-0.2673693604215336,0.47926494891230026,0.034226789867296895
-1284.33505153656,3156.0,7068.0,-6040.0,-1068.0,2298.0,19933.0,0.324186218280031,0.23865137902898978,0.5492311364398083,0.7323209500826058
-1284.3506562709808,-7724.0,6624.0,-7092.0,-8934.0,1288.0,15210.0,-0.2846453368086141,0.3439779571601616,-0.16409884645065986,0.8796179658320965
-1284.366221666336,-13656.0,2344.0,-10972.0,-13858.0,-10859.0,-7142.0,0.2706882382228345,0.8387486892047222,-0.38421089808778214,0.27497363480115333
-1284.3817851543427,-4992.0,-1600.0,-13764.0,-15891.0,-18881.0,-14485.0,0.42680824321550276,0.5212267318201683,-0.0562504023994617,-0.7368807975441218
-1284.3973734378815,6312.0,-2508.0,-16548.0,-16641.0,-15874.0,2490.0,0.561963850567405,-0.5023060828560075,0.13731308937830847,-0.6426743695423787
-1284.4129538536072,4976.0,-5160.0,-17808.0,-15137.0,-12323.0,16476.0,0.3970320099786801,-0.7115862961479468,0.4519292678350834,0.36300201522964215
-1284.4285480976105,-1940.0,-3940.0,-17320.0,-15216.0,-16480.0,7570.0,-0.06006305978246826,-0.1822993279342863,-0.05704422977497905,0.9797475898075253
-1284.444124698639,-1968.0,-4016.0,-17428.0,-18822.0,-22499.0,-6492.0,0.029789137843941653,0.6671695779920728,-0.5886944507118761,0.45545164965058205
-1284.4597580432892,4304.0,-5264.0,-19028.0,-19075.0,-23310.0,-8305.0,0.09395535373995578,0.6785669127688018,-0.31815759013113826,-0.6553587446894744
-1284.4753351211548,7248.0,-5324.0,-19172.0,-18363.0,-20421.0,-2904.0,0.1718095543538738,-0.2143429007367137,0.28232108585906596,-0.9191481939360228
-1284.4909195899963,5432.0,-6544.0,-18744.0,-17222.0,-19104.0,-2808.0,0.03850269201949546,-0.8398853827522623,0.536491507381007,-0.07271140938252245
-1284.5064833164215,5300.0,-6900.0,-18280.0,-16126.0,-19739.0,-4817.0,-0.10094890375265822,-0.5030334454921133,0.08864625990096811,0.8537613906432169
-1284.5220787525177,8308.0,-6504.0,-18236.0,-15495.0,-18681.0,-2459.0,-0.19276940355814703,0.42783117765797934,-0.42913628153982836,0.7717787845890763
-1284.537644147873,9744.0,-6744.0,-17564.0,-13882.0,-15042.0,6582.0,-0.32026535164915154,0.6716430664149113,-0.6381408262560684,-0.19774221030180306
-1284.553202867508,6540.0,-5932.0,-15936.0,-12841.0,-13224.0,10213.0,-0.060977229386335936,0.11161313822433117,-0.3084157528594014,-0.9427109887236126
-1284.5687699317932,3336.0,-5276.0,-15404.0,-13538.0,-13120.0,4757.0,0.05542627951978095,-0.5198562230979236,0.4207900222499646,-0.7413590169545599
-1284.5843420028687,4028.0,-5404.0,-15696.0,-13916.0,-12466.0,467.0,-0.04594277289868223,-0.7195245867532565,0.6701100723166872,0.17642596650056888
-1284.599972486496,6316.0,-6276.0,-16072.0,-12845.0,-10115.0,-241.0,-0.14765306609948803,-0.3021088047380581,0.2856901305669966,0.8973906571096975
-1284.6156034469604,6212.0,-8180.0,-16028.0,-10342.0,-7018.0,-704.0,-0.128424916903178,0.24526647059158477,-0.3054786021055825,0.9110621399101042
-1284.6312272548676,7148.0,-6244.0,-16096.0,-8812.0,-4389.0,3245.0,-0.23340504878866164,0.4498518521224743,-0.7611636914164395,0.4047038784237698
-1284.6467974185944,6612.0,-2376.0,-14472.0,-8070.0,-1991.0,9484.0,-0.2579246723339216,0.03678922834575487,-0.926682685485278,-0.2708885684205897
-1284.6624019145966,3128.0,-3532.0,-14956.0,-8382.0,241.0,10481.0,0.023676825941883077,-0.40028400342560094,-0.4984704134716514,-0.7685957138888377
-1284.6780064105988,484.0,-4892.0,-14856.0,-5817.0,658.0,8299.0,0.3037054856468279,-0.5458668973109158,0.13684792224447773,-0.7688074886377917
-1284.6935892105103,976.0,-2752.0,-14372.0,-4696.0,1182.0,8285.0,0.4766090186566375,-0.3774499170247512,0.6730850665476287,-0.42110793944514957
-1284.709172964096,-1740.0,-2644.0,-15836.0,-3825.0,982.0,4807.0,0.4125035831484068,-0.19174828755885712,0.8901895714210744,-0.025217355950522394
-1284.7247524261475,-3796.0,-3900.0,-16872.0,-1479.0,-610.0,-3044.0,0.41008851753473585,-0.46246867998653346,0.786042487205747,-0.009345379878806981
-1284.7403147220612,-2416.0,-3528.0,-16120.0,1180.0,-1234.0,-8617.0,0.42463232945761614,-0.8034859780367603,0.3121312424544512,-0.27689665104791344
-1284.755928993225,24.0,-4004.0,-15452.0,4014.0,-851.0,-10353.0,0.343446946337429,-0.6866802603416025,-0.38885961143049513,-0.5092176525875832
-1284.7715005874634,2228.0,-3832.0,-15080.0,5694.0,133.0,-12926.0,0.07226052380788504,-0.04517100066719506,-0.8899412330544457,-0.44804307728974785
-1284.7870490550995,4796.0,-5664.0,-15800.0,8165.0,1649.0,-14674.0,-0.19168262753353785,0.6799980948252564,-0.7060111214360201,0.04907807804421268
-1284.8026387691498,7820.0,-7328.0,-14820.0,11583.0,3595.0,-15282.0,-0.29976059601071886,0.7152648537207245,0.09644827586657287,0.6238890159263383
-1284.8182120323181,12804.0,-4916.0,-13620.0,13016.0,7508.0,-9653.0,-0.35092567595215124,-0.062062332713881,0.6541281706227482,0.6671699732552223
-1284.8337993621826,11904.0,18828.0,-32768.0,29745.0,-3674.0,31999.0,-0.46604516081837377,0.26993609619305253,0.6756524460159837,-0.5034184981131
-1284.8493821620941,-4908.0,32767.0,-10724.0,-29772.0,32767.0,32767.0,-0.05236019835557786,0.988339086454713,-0.02466442239495908,0.14084007271352472
-1284.8649678230286,-32768.0,-32768.0,-19204.0,16186.0,9702.0,-26324.0,-0.3682624177896192,0.28403156767150894,0.800626680275588,0.37776418443349036
-1284.8805520534515,-2632.0,-1560.0,-11060.0,5575.0,-11551.0,-32768.0,0.42762309950316224,-0.5585026598285159,0.6712636551424591,0.23370573168103348
-1284.8961117267609,29636.0,3756.0,-32768.0,7676.0,277.0,-32768.0,0.4684950959046695,-0.7081785641175452,-0.2446324902863424,-0.4681350351490361
-1284.9117455482483,30224.0,-12768.0,-19876.0,163.0,32767.0,32767.0,0.6041493640527242,-0.015055680909818854,0.7473705865538769,-0.27606897460805796
-1284.9274463653564,-28036.0,-22772.0,-9912.0,32767.0,15248.0,13359.0,-0.0072866137629834325,0.8412046429470845,0.22224181674673302,-0.49287952770758153
-1284.9430811405182,-14864.0,21692.0,668.0,-337.0,-12856.0,-32768.0,-0.35366275229539534,-0.10750140451481238,0.8204112281152567,-0.4362241653652453
-1284.9586555957794,15544.0,-1376.0,-15740.0,-18540.0,-7730.0,-32768.0,-0.3490054220252331,-0.6215860883251795,0.4164004121785123,0.5643019111567462
-1284.9742286205292,30548.0,-19992.0,-21832.0,4467.0,13446.0,18359.0,-0.6641845767344556,-0.33336179428720014,0.5416564817417306,-0.3928575033327742
-1284.989792585373,10124.0,-2748.0,-16744.0,17848.0,20328.0,32767.0,0.004589129396850172,0.22856245228966043,-0.07680011767500801,-0.9704843570196382
-1285.0054059028625,-7436.0,2760.0,-11004.0,3818.0,10794.0,3486.0,0.20467468536677724,0.7752382908856201,-0.3218440045993351,-0.5035179264119763
-1285.0210058689117,-8184.0,-8964.0,-15396.0,1507.0,-1253.0,-21045.0,-0.4086520271862617,0.6378000306000238,0.4829723560722972,-0.43926341176239775
-1285.036591053009,6804.0,-5828.0,-13832.0,4005.0,-818.0,-15014.0,-0.69528348538641,-0.10026670972888176,0.7082644978090123,-0.06992040483590929
-1285.0521748065948,12176.0,-2060.0,-13540.0,-179.0,3865.0,-3492.0,-0.8710470202848454,-0.2563785170702389,0.4046978233759698,0.10847495652227619
-1285.067790031433,7008.0,-4816.0,-15124.0,-1058.0,6072.0,1228.0,-0.9826944591501245,-0.16667858600533053,-0.03428443739939651,-0.07317394532970764
-1285.0833625793457,200.0,-5844.0,-15216.0,1197.0,2240.0,-6171.0,-0.8623414671787699,-0.2043602472111185,-0.2799088739624813,0.36912749236657066
-1285.09894490242,440.0,-2320.0,-13632.0,-404.0,-2529.0,-16936.0,-0.21443301350809432,0.17854258246549973,-0.22515592330654932,0.9335126347106197
-1285.1145312786102,5564.0,-2876.0,-14800.0,-2320.0,-2688.0,-16408.0,0.6232577330823204,0.4304592294391731,-0.06110464510819752,0.6500160554093428
-1285.130161523819,8384.0,-2660.0,-14164.0,-2268.0,693.0,-6868.0,0.9304042570916428,0.2573252621639879,0.08932247500356934,0.2452613367353693
-1285.1457633972168,7860.0,-4544.0,-16352.0,-2522.0,3070.0,1207.0,0.8812009425896613,-0.0033355067870382608,0.24194280115661146,0.4061249243053899
-1285.1613709926605,4608.0,-4332.0,-15652.0,-583.0,2825.0,2480.0,0.6960447877931917,-0.09121158722662409,0.41704217483302625,0.5773022814367444
-1285.1769335269928,3076.0,-1912.0,-14856.0,-2005.0,1177.0,-2492.0,0.7310426353484032,-0.3480133355925644,0.35268624259299775,0.4691223697909019
-1285.1925330162048,4228.0,-3284.0,-15560.0,-2189.0,516.0,-2853.0,0.7295552706836257,-0.5689235166277157,0.19964803482833324,0.3228247224654267
-1285.2080962657928,5240.0,-4216.0,-15256.0,-1780.0,73.0,-3175.0,0.6949424366419318,-0.7051045422872568,-0.0033483111881781103,0.14096589308141105
-1285.2237150669098,5616.0,-3208.0,-14916.0,-2017.0,397.0,-1476.0,0.5750188640804028,-0.8124594478423902,-0.09275285779887642,0.02568771950685796
-1285.239308834076,3988.0,-1648.0,-15232.0,-1791.0,-45.0,-1724.0,0.4409962934554687,-0.8681964950641009,-0.21628159228494853,-0.07056477843539292
-1285.2548897266388,3172.0,-1352.0,-15476.0,-2407.0,-1102.0,-5165.0,0.18353079157625535,-0.7763049397563224,-0.5666584085380423,-0.2063136861346308
-1285.2704799175262,4516.0,-2488.0,-15364.0,-1757.0,-1408.0,-4387.0,-0.07731969082120323,-0.5630478910629684,-0.7851738553280664,-0.24596901164601612
-1285.2860598564148,5476.0,-2860.0,-15044.0,-1661.0,-932.0,-3126.0,-0.27594316689284576,-0.34077163954634154,-0.854384479164075,-0.2788498163699908
-1285.301629781723,5972.0,-2824.0,-14844.0,-3220.0,-201.0,-857.0,-0.3910767310002503,-0.19614453657528477,-0.7650096101230546,-0.4725956069000182
-1285.317211151123,5244.0,-4536.0,-16228.0,-3118.0,398.0,1450.0,-0.34261731289522596,-0.16292741514772252,-0.5986411269884773,-0.7054763180828273
-1285.3327977657318,3564.0,-4148.0,-15648.0,-2303.0,421.0,932.0,-0.2889788290267096,-0.11421855871850711,-0.4457668576275395,-0.8394863107040446
-1285.3483839035034,2880.0,-4684.0,-15748.0,-2926.0,-516.0,-819.0,-0.38451525820537485,-0.04489899304690433,-0.21900314774577967,-0.8956392788997524
-1285.3639886379242,5436.0,-4796.0,-15908.0,-2008.0,-531.0,890.0,-0.3266078320606514,-0.035619498639134044,-0.040002880267540876,-0.9436410042614929
-1285.3795630931854,7252.0,-2676.0,-15528.0,-2165.0,2180.0,6955.0,0.20583732434527852,0.15085145400910527,0.08159186688168273,-0.9634405025679983
-1285.3951148986816,5668.0,-3732.0,-16344.0,-1613.0,3121.0,10160.0,0.7723844617072014,0.3329783325227321,0.10197573553208134,-0.5311766398726026
-1285.4106731414795,3696.0,-1088.0,-15576.0,250.0,2758.0,9050.0,0.8943427211027751,0.430599252142268,0.010280037476753922,0.12095330543015252
-1285.4262506961823,3252.0,1412.0,-15712.0,-1949.0,1654.0,4711.0,0.8299642849810444,0.24054857750803427,-0.05279837951474884,0.5005077408346262
-1285.4418206214905,3892.0,-964.0,-16740.0,-660.0,500.0,2378.0,0.7248942388919495,0.1564910169630466,-0.09327395234620285,0.664333405636696
-1285.4573831558228,6024.0,788.0,-16088.0,61.0,601.0,4119.0,0.4606750822244314,0.08670047650772666,-0.10165643438880098,0.8774551073064661
-1285.4729516506195,6452.0,1300.0,-14860.0,-2529.0,2061.0,5656.0,0.05649043587186351,-0.19347166531076396,-0.2219124887856295,0.9540085915220337
-1285.4885346889496,4592.0,-3596.0,-17380.0,-1758.0,2357.0,6655.0,-0.4065307849558374,-0.4451520638797129,-0.20649504249408887,0.7706699412408579
-1285.5041062831879,1980.0,-1908.0,-16744.0,1900.0,1812.0,6677.0,-0.634851233980456,-0.6398947989888015,0.09852332702338508,0.4216535437688348
-1285.5197637081146,1108.0,1944.0,-14928.0,-36.0,191.0,-1280.0,-0.5875079057042857,-0.6520284929481809,0.015113953449522832,0.4790249195290509
-1285.5353462696075,4304.0,132.0,-15636.0,-612.0,-1852.0,-3883.0,-0.42773313236676386,-0.5129705827532416,-0.12755423753429754,0.7332362956050118
-1285.550920009613,8492.0,900.0,-15820.0,-26.0,128.0,1858.0,-0.5392636426765465,-0.5340834470183121,-0.05013675593481887,0.6491809462796887
-1285.5664920806885,7712.0,1860.0,-15872.0,-115.0,3185.0,8634.0,-0.7950306556772594,-0.5824492310347509,0.15279027663966563,0.07303616340409087
-1285.5821650028229,2968.0,3584.0,-14628.0,-622.0,2683.0,6064.0,-0.7788932419224024,-0.41136280468344566,0.23430396154859512,-0.41134853131281945
-1285.5977749824524,1540.0,1108.0,-14720.0,-2255.0,916.0,-1734.0,-0.9102816057378722,-0.25248817309166566,0.18471733514302327,-0.27113949694165607
-1285.613394498825,3956.0,-3128.0,-15600.0,-2315.0,346.0,-4488.0,-0.9815208108994852,-0.12157502288091104,0.10373392856766933,0.10524107395233623
-1285.6290040016174,5708.0,-10724.0,-17940.0,-1741.0,477.0,-314.0,-0.9888573425186257,0.020276438130047533,0.04325254022918178,0.14099375861180072
-1285.64457321167,5932.0,-8576.0,-16592.0,2008.0,1979.0,8706.0,-0.8650491464471951,-0.11268947061826086,-0.09224788638546824,-0.48008476845258174
-1285.6601407527924,3184.0,-480.0,-15016.0,759.0,2791.0,7439.0,-0.4294814524201831,-0.09294155370118956,-0.2146318966743766,-0.8722618291273662
-1285.6757352352142,984.0,-52.0,-16280.0,-464.0,77.0,-1737.0,-0.5571595303648507,-0.036869743366847424,-0.1941848387518645,-0.8065396011025089
-1285.6913180351257,4808.0,-2008.0,-15744.0,523.0,-2200.0,-4475.0,-0.8315689856718204,-0.12972182220475395,-0.12693098953692825,-0.5249321811508553
-1285.7069075107574,9976.0,1580.0,-14640.0,239.0,-56.0,2795.0,-0.6812509350072394,-0.1756993579428493,-0.09912954489315605,-0.7037046486271838
-1285.7224915027618,8052.0,248.0,-15588.0,-1905.0,4296.0,9669.0,-0.05796177640223933,0.08562651555568701,-0.06507106681204858,-0.992509087401234
-1285.7380681037903,312.0,-3468.0,-16408.0,1681.0,2433.0,6173.0,0.4103170718095406,0.21728362658943876,-0.23090758658040145,-0.8550493627021776
-1285.7536437511444,-1688.0,-1024.0,-14824.0,862.0,-1173.0,-5341.0,-0.02544953542120803,0.24176695444354906,-0.21261514025588943,-0.9464120999965628
-1285.7692186832428,2612.0,-2168.0,-15372.0,-339.0,-2077.0,-9381.0,-0.6371368399993681,0.1878879695660202,0.013593245703179121,-0.7473753954200197
-1285.784795999527,6720.0,-2300.0,-15336.0,541.0,-516.0,-5013.0,-0.8892518017030736,0.10819187733211721,0.08184672854588142,-0.4368373425813394
-1285.8003890514374,6660.0,-2700.0,-15508.0,-495.0,617.0,-2785.0,-0.9648057253817156,0.14573987223158325,0.07702348838955277,-0.20488334278044126
-1285.8159687519073,4884.0,-5372.0,-16592.0,281.0,56.0,-616.0,-0.9780101348953603,0.11896794102486472,0.07520818087486482,-0.15390430331786484
-1285.8315670490265,4544.0,-1188.0,-15272.0,888.0,605.0,-187.0,-0.9892318665122286,0.050017572563335146,0.013809622485718131,-0.1368497389051438
-1285.8471207618713,3468.0,-1108.0,-15348.0,-504.0,91.0,-3435.0,-0.983944350214958,0.08673163530764548,0.02608431465494357,0.15378799577960398
-1285.8626899719238,4268.0,-2384.0,-15136.0,150.0,-1293.0,-7036.0,-0.7529342920517326,0.06398893885394563,0.1633453087283031,0.6342820174601812
-1285.878229856491,7824.0,-2112.0,-15288.0,-1014.0,-668.0,-4104.0,-0.47830372177692765,0.10239460672776249,0.16324817757827162,0.8567910636583339
-1285.893806695938,8088.0,-2588.0,-16088.0,-248.0,1790.0,3753.0,-0.7351444309406503,0.030692524913419627,0.03441869091064625,0.6763401424485938
-1285.9093837738037,4124.0,-1604.0,-15672.0,-96.0,2101.0,2778.0,-0.8660454815935315,-0.07513423868378663,-0.1084048648812537,0.4822535176221247
-1285.9250934123993,2172.0,-3284.0,-15600.0,19.0,-8.0,-2978.0,-0.7167978313066583,-0.04637505135239288,-0.12273552326083915,0.6848256821819858
-1285.9407587051392,5256.0,-2044.0,-15512.0,230.0,-759.0,-2100.0,-0.5872816633527307,0.007247815599874199,-0.06881909824527205,0.8064190280340535
-1285.9563505649567,7072.0,-944.0,-15576.0,-148.0,1832.0,2076.0,-0.7020431115321963,-0.12270388685129112,-0.16949558158435915,0.6806985188210398
-1285.971973657608,4260.0,-1656.0,-15392.0,173.0,1302.0,591.0,-0.710377311621227,-0.21766210160605598,-0.23113363441441262,0.6281437158012629
-1285.9875576496124,3516.0,-2264.0,-15236.0,134.0,-605.0,-3435.0,-0.5085574275249996,-0.11826725459553777,-0.24087240854581068,0.8181458807577835
-1286.0031297206879,5700.0,-1512.0,-15184.0,2.0,-116.0,-2400.0,-0.3322878240303483,-0.05825727460283291,-0.2550830421856963,0.9061586690786094
-1286.018726348877,6096.0,-1788.0,-15548.0,-199.0,783.0,-482.0,-0.2767419444074325,-0.1031649240777866,-0.29525127354396125,0.9086240037090628
-1286.0343554019928,4580.0,-2788.0,-15120.0,340.0,308.0,-1155.0,-0.17306812779953565,-0.10535288511083717,-0.28476335336196806,0.9369407800500699
-1286.050011396408,4480.0,-1760.0,-15216.0,-4.0,-410.0,-2820.0,0.045948706121046345,-0.0015872858901559797,-0.2961087685710954,0.9540470607389416
-1286.065595626831,5444.0,-2420.0,-15784.0,-423.0,-293.0,-2479.0,0.23897180648277822,0.0832889081012922,-0.3252722350589083,0.911127546830538
-1286.0811834335327,6196.0,-2524.0,-15424.0,-154.0,399.0,-3.0,0.2514847085559781,0.04856432635386577,-0.32920638803915536,0.9088564802225504
-1286.0967609882355,5916.0,-2652.0,-15460.0,-888.0,892.0,960.0,0.2028157646902383,-0.06845781727291471,-0.3807838796853346,0.8995459575914543
-1286.1123404502869,5860.0,-3400.0,-15456.0,68.0,776.0,2933.0,-0.0011609237033021098,-0.2180505618657587,-0.33301649529270066,0.9173617708347939
-1286.127943277359,5756.0,-1180.0,-15576.0,-463.0,1487.0,3401.0,-0.22717852766167204,-0.4143998808732483,-0.2907176572728115,0.8319530630098796
-1286.1435248851776,4640.0,-1424.0,-15680.0,-490.0,1297.0,3211.0,-0.42566414547971376,-0.5552074475967241,-0.22579578638510356,0.6779166528688381
-1286.1590950489044,4112.0,-1324.0,-15344.0,-174.0,518.0,1503.0,-0.5077788146576541,-0.6033817358446758,-0.1808540659358928,0.5876929156186839
-1286.1746683120728,4712.0,-1844.0,-15680.0,-754.0,129.0,343.0,-0.5614203410475715,-0.5806776972207054,-0.2066955161254798,0.5521753129415592
-1286.1902439594269,5188.0,-2420.0,-15648.0,-215.0,-118.0,473.0,-0.5964681452960636,-0.5725961638592268,-0.18717959021264546,0.5303990816249565
-1286.2058115005493,5504.0,-1968.0,-15540.0,-334.0,-689.0,-269.0,-0.610322025816989,-0.5178631650070548,-0.17982488598179777,0.5718284511224988
-1286.2213823795319,5980.0,-2008.0,-15816.0,-519.0,-305.0,516.0,-0.6626368394632974,-0.4821815329688285,-0.16582389029428296,0.5485579510476467
-1286.2369530200958,5248.0,-1568.0,-15660.0,-86.0,-221.0,1630.0,-0.7397848356743063,-0.4854801011341772,-0.0877145855936578,0.4575299113535872
-1286.2525453567505,4428.0,-1076.0,-15660.0,245.0,371.0,2250.0,-0.8004018477769692,-0.5232212689743221,-0.006413465997212566,0.29249829610104777
-1286.268129825592,3672.0,-648.0,-16352.0,187.0,-20.0,-137.0,-0.7880683117461705,-0.5358556518973574,-0.0064372759452787556,0.30292840380129904
-1286.2837686538696,4540.0,-1544.0,-15768.0,225.0,-1208.0,-2487.0,-0.6923494150294093,-0.5037167199522853,-0.032698255836953974,0.5156089386484363
-1286.2993450164795,6968.0,-2116.0,-15588.0,290.0,-788.0,40.0,-0.681738860178895,-0.48483100672919094,0.02972068873354431,0.5470719350297033
-1286.3149242401123,7040.0,-1076.0,-15308.0,-101.0,1377.0,4133.0,-0.8289000485358783,-0.49917377917038863,0.11027438309172383,0.22713389918660398
-1286.3304924964905,3952.0,-2768.0,-15948.0,-387.0,1003.0,2852.0,-0.881160079850788,-0.4482632181255084,0.14923579166414577,-0.01859245652116891
-1286.3460750579834,2248.0,-2812.0,-15492.0,1353.0,-1523.0,-1870.0,-0.7886071522034169,-0.5631844264440627,0.18581762455427173,0.16246190848779446
-1286.3616540431976,3400.0,396.0,-14484.0,-150.0,-3219.0,-6940.0,-0.5365990338065176,-0.5156186449795048,0.053458062207194644,0.6658386632304127
-1286.3771963119507,6900.0,-1312.0,-15404.0,-590.0,-2175.0,-4304.0,-0.27881838539440423,-0.35161594610672103,-0.06679689775967129,0.8911591938925485
-1286.3927731513977,7384.0,-1820.0,-16020.0,431.0,677.0,2574.0,-0.44954376672626467,-0.4185347123531472,0.02839984445270938,0.788627000037465
-1286.4083449840546,3972.0,-1768.0,-15592.0,915.0,1091.0,2773.0,-0.5882267275848617,-0.5045695155517953,0.14464375219004216,0.6152049299892005
-1286.4239530563354,2216.0,-2300.0,-15528.0,841.0,-961.0,-2435.0,-0.3969456721584424,-0.5125891738531475,0.12835280068363003,0.7504745370496579
-1286.4395365715027,4012.0,-2488.0,-15468.0,987.0,-1974.0,-4643.0,-0.02417763951647183,-0.4285955719176383,0.04904522568249505,0.9018402537687908
-1286.4551208019257,6856.0,-1372.0,-15552.0,739.0,-705.0,-1088.0,0.09136758664984053,-0.37637818488463315,0.06744859851005915,0.9194792616539873
-1286.4707071781158,6104.0,-1564.0,-15896.0,638.0,1127.0,2525.0,-0.09409976704715399,-0.43400125289540115,0.20441265489886462,0.8723552102464288
-1286.4862895011902,3492.0,-2256.0,-16116.0,1463.0,-379.0,344.0,-0.05757123829047901,-0.4075571330100915,0.32905496162308234,0.8498856205899282
-1286.5018730163574,3500.0,-1584.0,-15256.0,1302.0,-1281.0,-2921.0,0.2319279294978191,-0.3860890554062658,0.31445301702212425,0.8356219102560893
-1286.5174934864044,5096.0,-1960.0,-15388.0,1441.0,-1039.0,-2100.0,0.4493533817366713,-0.3296108783950524,0.31886178673812215,0.7666585733712444
-1286.53311753273,5416.0,-1964.0,-15668.0,1532.0,-60.0,-785.0,0.5414757352510384,-0.2843579935151562,0.3921944832649939,0.6871157449475933
-1286.5487399101257,4756.0,-2912.0,-15668.0,1507.0,-437.0,-849.0,0.6370029795777765,-0.213600389894835,0.43578323113290307,0.598911556833875
-1286.5643212795258,4648.0,-2184.0,-15588.0,1948.0,-845.0,-1216.0,0.7519686078454318,-0.10514009347123154,0.4578665505595483,0.4624359365777756
-1286.5799243450165,4912.0,-1648.0,-15332.0,879.0,-1021.0,-2800.0,0.8818869135146225,-0.11407576953963855,0.3869269759338906,0.2440280841834537
-1286.5954928398132,5184.0,-3212.0,-15308.0,1161.0,-797.0,-1638.0,0.9386323160383853,-0.06213246031907398,0.32842942694104427,0.08510607605977975
-1286.611074924469,4912.0,-3528.0,-15220.0,956.0,-451.0,-353.0,0.954799239425077,0.009174409382311097,0.29548593167103965,0.031021070102072452
-1286.6266686916351,4888.0,-3944.0,-15924.0,1044.0,78.0,1377.0,0.9375521199010929,0.12984613809799084,0.3005386636870104,0.11752665450539497
-1286.6422522068024,3736.0,-2472.0,-15272.0,1956.0,-277.0,281.0,0.9060194010501056,0.2957592610297792,0.29063304609676893,0.08478052224680116
-1286.657819032669,4088.0,-1716.0,-14884.0,848.0,-1450.0,-3443.0,0.897439298616099,0.2716741725128674,0.2572741258097844,-0.23367899665503655
-1286.6734018325806,6080.0,-3040.0,-15868.0,385.0,-987.0,-528.0,0.8948635690304182,0.2686051263862392,0.1837952513218196,-0.3054337644935864
-1286.688990354538,6240.0,-1940.0,-15664.0,1571.0,1278.0,5070.0,0.8779823553666121,0.45762731403780116,0.11095008223559051,0.08610635495339186
-1286.7045712471008,3352.0,-1592.0,-15616.0,595.0,1286.0,2344.0,0.8014008018958981,0.5023700373641022,0.11703805810039258,0.3027923269098661
-1286.7201402187347,2068.0,-3444.0,-16140.0,1040.0,-1173.0,-2127.0,0.8027421641447996,0.5696901863395952,0.15175843965387187,0.08959623589360816
-1286.7357909679413,4384.0,-2944.0,-15108.0,1340.0,-2129.0,-4432.0,0.7298550150026073,0.5681155544339588,0.21328688756827388,-0.31474605236154773
-1286.751382112503,6452.0,-2208.0,-15792.0,974.0,-224.0,1038.0,0.7085034159195134,0.6385201585900265,0.11987716062004868,-0.27558008466909123
-1286.7669701576233,4884.0,-2284.0,-15628.0,1155.0,1606.0,3652.0,0.6721607706326495,0.7398573468720794,-0.011388325578720137,0.02610192986052231
-1286.7826218605042,2216.0,-3412.0,-15292.0,961.0,-422.0,-1789.0,0.6037066004442309,0.7863879202017459,0.0802195718314948,-0.1034272683387414
-1286.7981970310211,3736.0,-3644.0,-15784.0,1249.0,-1080.0,-1890.0,0.49647369606271746,0.8101878384205091,0.13846106094996524,-0.2791739067211288
-1286.813789844513,5452.0,-3220.0,-15056.0,1080.0,-494.0,424.0,0.4335841879531315,0.8451294899813874,0.06039880419112121,-0.30677822864914345
-1286.8294291496277,5176.0,-3820.0,-14956.0,1051.0,-791.0,-356.0,0.3480513400325149,0.8559673345250315,0.028379463369993252,-0.38128046499462154
-1286.8450033664703,5924.0,-3160.0,-14912.0,1162.0,-1852.0,365.0,0.2727673455699696,0.8155846913840399,-0.09211910118860692,-0.5019299329258182
-1286.8605778217316,6460.0,-3272.0,-13496.0,-317.0,-2142.0,-611.0,0.24654977240673046,0.7058235922630844,-0.08415862121993042,-0.658743950868154
-1286.8761296272278,8280.0,-4508.0,-14824.0,-666.0,-920.0,5606.0,0.5395928459658403,0.5346716843594459,-0.36777483192888616,-0.5363836532990146
-1286.8917398452759,6620.0,-3500.0,-14528.0,-979.0,250.0,8375.0,0.7934111311503519,0.18647095902312924,-0.5646289087770737,-0.13008287274243413
-1286.9073150157928,4160.0,-3712.0,-14420.0,-2678.0,-1741.0,4137.0,0.7260106238440828,-0.20247709919209927,-0.6571905486756855,-0.003490143210569139
-1286.9229698181152,4044.0,-4148.0,-16020.0,-1937.0,-3285.0,4345.0,0.45039790227938487,-0.5137387913961101,-0.7036123322211829,0.1953045564841266
-1286.9386756420135,3940.0,-3148.0,-14840.0,-2139.0,-5026.0,902.0,0.027305148186269064,-0.5110424309297529,-0.8078899782662321,0.2922393636882638
-1286.9542801380157,3948.0,-1728.0,-14384.0,-3300.0,-6152.0,-3159.0,-0.39314366138203655,-0.11578977008742235,-0.8709373920902298,0.2711067127853856
-1286.9698691368103,4540.0,-2160.0,-15260.0,-3435.0,-7291.0,-3151.0,-0.7240179668241696,0.33047996150416253,-0.5858092465092891,0.15299838386147074
-1286.985505104065,3544.0,-1960.0,-14828.0,-4049.0,-8649.0,-4798.0,-0.7204373342798613,0.6927450085910055,0.03277743380073379,-0.00020070230087020291
-1287.001135110855,5008.0,-3104.0,-14588.0,-5058.0,-9724.0,-6294.0,-0.259758241495049,0.6667719387904627,0.6882449686311324,-0.11941398900857068
-1287.016758441925,6832.0,-4632.0,-15472.0,-6820.0,-7749.0,1241.0,0.4557968205421638,0.6036716972480575,0.6390149801347447,-0.13960514134048224
-1287.0323526859283,5028.0,-6932.0,-16284.0,-5741.0,-7601.0,6375.0,0.8906405408815877,0.45131294747875567,0.05007145518157819,0.023851619487779602
-1287.0479712486267,2788.0,-5784.0,-16652.0,-7254.0,-9214.0,5775.0,0.7939864363217997,-0.04475753774498808,-0.5990620686342286,0.09331098368195202
-1287.063550233841,2584.0,-6096.0,-17556.0,-8940.0,-10051.0,8428.0,0.09646695745230292,-0.598712877045793,-0.7816440420712126,0.14584103837404955
-1287.0791261196136,2708.0,-6628.0,-19936.0,-8299.0,-9501.0,16438.0,-0.57798897052629,-0.8077234429965187,-0.052480697938912364,0.10371772234123691
-1287.0947024822235,1084.0,-1796.0,-20228.0,-9145.0,-10355.0,21338.0,-0.6012279674405693,-0.14410347066314638,0.777224431395697,-0.11696710713595063
-1287.1102764606476,1208.0,-508.0,-19876.0,-12275.0,-10493.0,25287.0,0.07651414290325984,0.7520445309620141,0.6319426430507752,-0.1709476682493923
-1287.1258602142334,832.0,-1544.0,-18548.0,-9897.0,-9865.0,29294.0,0.5682816343094762,0.7172488691944023,-0.4024396054980439,-0.02554227226541386
-1287.1415174007416,-708.0,-2084.0,-14792.0,-11653.0,-8022.0,12587.0,0.5403870713084185,-0.165918314192122,-0.8088542160195169,-0.16188818179782988
-1287.157145500183,2892.0,-12128.0,-20056.0,-8886.0,-11133.0,-18111.0,-0.28061718428977145,0.23869170797818112,-0.6548912642610085,-0.6598467219122611
-1287.1727347373962,16532.0,-15344.0,-20876.0,-807.0,-6111.0,-25017.0,-0.8345243157461785,0.5430544229060349,0.025353708817812903,-0.08954467957253173
-1287.1883265972137,25936.0,-16504.0,-19784.0,7422.0,2695.0,-16351.0,-0.7043958711649937,-0.006609525573687449,0.2914819329246913,0.6471638537772998
-1287.203949213028,27504.0,-8816.0,-20744.0,12170.0,15761.0,14305.0,-0.8071292452876786,-0.5422847016981501,0.00780793717160645,-0.233256768010308
-1287.2195427417755,12888.0,-9700.0,-20552.0,16696.0,26933.0,25728.0,0.13205592863252338,-0.31154141630833837,-0.27335982474290127,-0.9004318874041094
-1287.2351598739624,-3696.0,-9152.0,-17748.0,25309.0,18936.0,9930.0,0.6708104584109719,0.40238985099686153,-0.5798425915813518,-0.22776809629403139
-1287.2507798671722,-5656.0,-9176.0,-14776.0,22394.0,7982.0,-22037.0,-0.04998944437901381,0.9955428823668052,0.07203110252168163,-0.034741115252420934
-1287.2663452625275,6468.0,-5284.0,-15940.0,22417.0,5981.0,-32768.0,-0.5858228323373983,0.19478901736820475,0.7752374863573719,0.13369999091705753
-1287.2819848060608,18004.0,-2796.0,-16520.0,20171.0,16597.0,-9606.0,-0.7383798033697595,-0.639564428537241,0.12399605675963518,-0.17429166828488699
-1287.29754281044,10812.0,-6728.0,-14452.0,23693.0,24023.0,5247.0,0.12856169525031672,-0.554896208344593,-0.474444070592023,-0.6711668290069395
-1287.3131320476532,252.0,-4060.0,-10392.0,21772.0,17611.0,-11278.0,0.4441317639949767,0.42147828614532745,-0.7446398128974436,-0.2657340391571389
-1287.3287801742554,2484.0,-2436.0,-9356.0,15458.0,12013.0,-25867.0,0.018704467366244096,0.9925728778650125,0.10451159913013616,0.05938476803502586
-1287.3443760871887,10292.0,-2304.0,-10720.0,11056.0,13347.0,-17018.0,-0.4149683031319599,0.33536754862620805,0.7072484689707177,0.4638205664508695
-1287.359982252121,11368.0,-3192.0,-11972.0,8428.0,20259.0,931.0,-0.9019436627030112,-0.33870927751646934,0.13306754112536712,0.23252243791298277
-1287.3755507469177,5832.0,-4852.0,-14152.0,7150.0,23301.0,14596.0,-0.47029383281025733,-0.45072298933138205,-0.42053489279734463,-0.6315242684558896
-1287.3911366462708,-1248.0,-5584.0,-15132.0,8275.0,23200.0,16956.0,0.587285119337614,-0.047996014205342635,-0.41576538233089605,-0.6927710430439835
-1287.4067192077637,-6844.0,-3636.0,-15512.0,8361.0,18132.0,7955.0,0.8284959790297536,0.5590058026640687,0.019395060070386504,-0.02703251679545424
-1287.422293663025,-7872.0,-2208.0,-14864.0,6753.0,12251.0,-4095.0,0.289503700074051,0.6608772266407029,0.6730599732883163,0.1625397530090961
-1287.437929391861,-4372.0,-2552.0,-13288.0,6781.0,7946.0,-9457.0,-0.2740157056951778,0.10346815734460371,0.9560853180612013,-0.010516560079115016
-1287.4535446166992,-272.0,-2040.0,-11512.0,5715.0,6583.0,-7380.0,-0.6242738233706909,-0.4553561869443727,0.6092553762887051,-0.17815954346856983
-1287.4691495895386,1092.0,-12.0,-12196.0,1474.0,4543.0,-7458.0,-0.7303249206767237,-0.6818321703847827,0.033767480435808704,-0.024293186944720272
-1287.4847450256348,1096.0,-3276.0,-15048.0,-1474.0,262.0,-7232.0,-0.7009699205705248,-0.5117995627517244,-0.3447330584736758,0.35757725936905027
-1287.5003216266632,1556.0,-3828.0,-16588.0,-1194.0,-1774.0,-2418.0,-0.7046323946003438,-0.29919931112220155,-0.3673639484228527,0.5282203045159823
-1287.515918970108,1688.0,-3440.0,-16804.0,-2025.0,-2925.0,3012.0,-0.9170869603192519,-0.12647060662476758,-0.18755089196904867,0.3283007094021772
-1287.531485080719,1356.0,-3312.0,-16236.0,-3735.0,-3901.0,7300.0,-0.965045770676574,0.1291035731843445,0.07674185410217739,-0.21477806154086546
-1287.547091960907,996.0,-2564.0,-18172.0,-4041.0,-4823.0,17277.0,-0.29796261751081304,0.2618012533929668,0.1926086044025287,-0.8975412568779703
-1287.562685251236,-1960.0,3628.0,-21440.0,-5947.0,-2193.0,31310.0,0.7857557224546503,0.26039491602369574,6.848512959344658e-05,-0.5610547456786813
-1287.5782735347748,-9516.0,5004.0,-20744.0,-8614.0,-5618.0,24180.0,0.8656464141482312,-0.24180429566180348,-0.20499426741649454,0.387510410954574
-1287.5938658714294,-8480.0,-1528.0,-18320.0,-16199.0,-16478.0,-32512.0,0.3667967874575408,-0.09028498445488115,-0.7410122411563439,-0.5551662784691284
-1287.609445810318,13072.0,-7884.0,-26672.0,-18854.0,-28465.0,-32768.0,-0.7554795810835433,0.010824164314205763,-0.23465872781908856,-0.611611577302997
-1287.625027179718,32767.0,-6880.0,-28292.0,-9736.0,-28432.0,32767.0,0.10494653036930289,-0.38333005556914446,0.531253971116184,-0.7482068647333345
-1287.6407074928284,27752.0,-4808.0,-27052.0,-2168.0,22299.0,32767.0,0.3156399046345886,0.7133095474880928,0.5473325207855816,-0.3032953210240823
-1287.656296491623,-8112.0,2900.0,-16016.0,-6967.0,15038.0,32767.0,0.2675576688675883,0.7401510843588643,-0.266188959890952,0.5565363454301188
-1287.6718707084656,-25544.0,-9904.0,-15308.0,-10896.0,-5664.0,-12748.0,0.7928115426219164,0.5743651881161149,-0.056632659163152424,-0.19582448897394616
-1287.6874499320984,-5120.0,-9148.0,-16252.0,-6439.0,-10684.0,-17278.0,0.36335363837221113,0.01505441345814613,0.08540957327094184,-0.9276058984885678
-1287.703045129776,9252.0,-5464.0,-14516.0,-3163.0,-2273.0,2319.0,0.5319825294909453,-0.23455010583195915,0.24775274263829508,-0.7749834931699093
-1287.7186477184296,6620.0,-6432.0,-13916.0,-1580.0,-851.0,2303.0,0.6528178201679508,-0.30613595437768637,0.3511330070681022,-0.5973401731473788
-1287.7342557907104,6028.0,-3288.0,-13948.0,-3526.0,-4301.0,-6062.0,0.3040053348919177,-0.7450058639568536,0.1040351597056613,-0.5845713853518427
-1287.7498180866241,9448.0,-2556.0,-13848.0,-7949.0,-3932.0,-6580.0,-0.36923315395244904,-0.8757946288277285,-0.01625333405416044,-0.310461713051629
-1287.765394449234,9264.0,-5116.0,-15052.0,-7064.0,-2111.0,387.0,-0.7577955206965498,-0.5935598748678008,0.2293860337041332,-0.14427290563599263
-1287.7809834480286,5580.0,-3752.0,-15292.0,-5743.0,-149.0,5009.0,-0.8235266602766464,-0.09621178891820674,0.4756093611426141,-0.29384156799245736
-1287.7965769767761,-20.0,-4840.0,-15708.0,-5801.0,-1234.0,819.0,-0.7088760659194052,0.2863240383393586,0.6382868801659581,-0.09001736967761523
-1287.8121597766876,-572.0,-5140.0,-16152.0,-5268.0,-3770.0,-5647.0,-0.3291019859731127,0.21455225343631565,0.8432858459959447,0.36678085462147003
-1287.827802658081,4340.0,-3620.0,-16004.0,-4850.0,-4081.0,-5326.0,0.18854617677783148,0.07507881511896466,0.7336884996089774,0.6484710450624009
-1287.8434526920319,8032.0,-3032.0,-14868.0,-4726.0,-2296.0,-802.0,0.3735832370573522,0.06895770688893353,0.39361799856812324,0.8371052925729205
-1287.859058380127,7696.0,-3284.0,-14460.0,-6196.0,-977.0,2048.0,0.25539556288966647,0.007705177311083749,-0.08933656755336425,0.9626695769560075
-1287.8746519088745,4128.0,-3116.0,-14664.0,-4431.0,-1691.0,-711.0,0.2812554412747515,0.052298392690719994,-0.4603278677459532,0.8403918782638112
-1287.8902130126953,2752.0,-2736.0,-18164.0,-5789.0,-955.0,1102.0,0.16712219200798273,-0.05671529938784133,-0.8101589291032925,0.559013467948672
-1287.9058077335358,3936.0,-2104.0,-18240.0,1458.0,1626.0,9067.0,-0.11869824164916827,-0.5862000479769042,-0.5201806680928142,0.6096657311377969
-1287.921507358551,948.0,2856.0,-15992.0,-1301.0,1970.0,3058.0,-0.24494522168156369,-0.773682927463324,-0.42968624502239167,0.39596249439272363
-1287.9371738433838,1560.0,-3052.0,-15816.0,-2608.0,-967.0,-5081.0,-0.2512449711740641,-0.4409647403797403,-0.7517221306139936,0.42111744270064366
-1287.952772140503,6908.0,-3920.0,-15340.0,-1567.0,-185.0,-555.0,-0.2998908617915207,-0.3595934224046449,-0.8180877973090057,0.33390177817938155
-1287.9683511257172,6324.0,-3784.0,-15280.0,-2207.0,2337.0,4919.0,-0.307327135555573,-0.6416722118414045,-0.7023361890719739,-0.02303653232633817
-1287.9843471050262,304.0,-5276.0,-15864.0,-1106.0,505.0,-873.0,-0.3369245440249536,-0.5528361294154878,-0.7562199358777236,-0.09479174134686283
-1288.0001044273376,412.0,-2556.0,-15596.0,-1567.0,-2618.0,-9893.0,-0.4948278440437533,0.09232483903936005,-0.8486392710256377,0.16258203015229378
-1288.0157577991486,4500.0,-2632.0,-15520.0,-3235.0,-3068.0,-11070.0,-0.3730490958575823,0.7587187109445407,-0.46610584987846576,0.26062545242467805
-1288.0315957069397,7172.0,-3964.0,-15948.0,-2101.0,-1434.0,-4099.0,-0.18316530568856074,0.9461060117176923,-0.18045277927172362,0.19690271668204204
-1288.0495820045471,6564.0,-2908.0,-15572.0,-759.0,1094.0,2717.0,-0.14468570221080287,0.8670134059114212,-0.4208221422749547,0.22419305546060517
-1288.0675473213196,3384.0,-2208.0,-15524.0,-607.0,483.0,415.0,-0.0886337415441557,0.8475714280329738,-0.4688174397696552,0.23232938344052687
-1288.0854742527008,3848.0,-1924.0,-15608.0,-1245.0,-364.0,-1752.0,0.02386231642616194,0.919799673582825,-0.3552864543048281,0.16483532909910342
-1288.1034948825836,5192.0,-2776.0,-15500.0,-981.0,449.0,878.0,0.10284153938037648,0.8776199024969039,-0.4357972432966535,0.17113645799255275
-1288.1214735507965,4044.0,-2612.0,-15376.0,-1012.0,324.0,178.0,0.18886334918588482,0.8532046359540623,-0.45968380169775663,0.15831388750670064
-1288.1385724544525,2780.0,-2520.0,-15588.0,-1656.0,-1414.0,-4681.0,0.29158077595145954,0.9421032101355258,-0.1435178422612287,-0.08261247787448896
-1288.1541986465454,4036.0,-2520.0,-15340.0,-2509.0,-2132.0,-6820.0,0.35186930781488807,0.7912629842015858,0.3178922597240313,-0.3860510215733428
-1288.1698024272919,4760.0,-2604.0,-15324.0,-2559.0,-1971.0,-5396.0,0.35179384606512354,0.43544911890174887,0.6279583914250579,-0.540641668165942
-1288.1853971481323,5344.0,-2148.0,-16004.0,-2435.0,-1288.0,-3630.0,0.31914984248301315,0.09389101369025571,0.7818772145923175,-0.5272531430846508
-1288.2009861469269,4804.0,-2192.0,-16208.0,-1376.0,-264.0,-1529.0,0.27343770202683987,-0.05997376385003523,0.8369387470618425,-0.470285556259699
-1288.2165818214417,4176.0,-1316.0,-15720.0,-1019.0,-561.0,-1203.0,0.25677605746535376,-0.19318899979474138,0.850205366484001,-0.4170070760462734
-1288.2321965694427,4500.0,-1488.0,-16096.0,-1667.0,-577.0,-1647.0,0.20677838799597784,-0.3657869251948577,0.8515897086380345,-0.31342876663775476
-1288.2478585243225,5036.0,-2368.0,-16104.0,-1073.0,-1014.0,-562.0,0.23006430291791974,-0.45047922814255215,0.8368510809248755,-0.20933024122149585
-1288.2634727954865,5368.0,-2228.0,-16624.0,-1162.0,9638.0,-26946.0,-0.3759084538197795,-0.8415613967194494,-0.0028609204418723277,-0.3878905322802525
-1288.2790780067444,2488.0,324.0,-14936.0,1053.0,3161.0,7677.0,-0.03046293318419276,-0.6228091895017033,0.3404810231066762,-0.7037424216844383
-1288.2946710586548,1368.0,-508.0,-15420.0,-1616.0,2651.0,4994.0,0.09755010165857729,-0.27362511971095727,0.6265516032705848,-0.7232194410886817
-1288.3102464675903,28.0,-3436.0,-16232.0,-110.0,-904.0,-2980.0,-0.042201329674414166,-0.47729037615527486,0.5354242864778536,-0.695509725347496
-1288.325833082199,4308.0,-2556.0,-15636.0,856.0,-2351.0,-3177.0,-0.0844207684699383,-0.7277137917772494,0.3394446498557978,-0.5899856784638065
-1288.3414962291718,8256.0,-712.0,-15012.0,-936.0,975.0,3308.0,-0.0023272132428099946,-0.5468701749488474,0.5637926787859572,-0.6189227828875701
-1288.3570985794067,7068.0,-2768.0,-16312.0,-618.0,3691.0,10314.0,0.24818268962117632,0.11545537533366754,0.7864428038085353,-0.5536994899913946
-1288.372721195221,2592.0,-3044.0,-15904.0,995.0,3298.0,9018.0,0.3421697973643598,0.6999793701557366,0.5499964692767747,-0.30075337888557957
-1288.3883335590363,1012.0,-1836.0,-15476.0,525.0,515.0,1718.0,0.3259204816809468,0.8011443107088149,0.44092344205779876,-0.2398544376984935
-1288.403958082199,3340.0,-2112.0,-15524.0,-20.0,-719.0,-1365.0,0.32325995040400257,0.7265635311619261,0.5117859125469123,-0.32509017113539207
-1288.4195537567139,6044.0,-1796.0,-15820.0,110.0,494.0,1294.0,0.3283253532958417,0.7957537626920448,0.43742155535544636,-0.26007843904298544
-1288.435179233551,5696.0,-2160.0,-15724.0,66.0,1714.0,4122.0,0.3276470377625258,0.9261625625666563,0.1852461894601985,-0.023540935323024894
-1288.4508128166199,4104.0,-2348.0,-16064.0,523.0,1404.0,4094.0,0.25308881889768486,0.9442190191506503,-0.0996311825173691,0.18566130747506204
-1288.4664406776428,3328.0,-2176.0,-15364.0,325.0,466.0,1182.0,0.20953289614080373,0.927592868502037,-0.1803431098232168,0.2512842981133143
-1288.4820251464844,4284.0,-2008.0,-15716.0,128.0,9.0,454.0,0.1889107026467089,0.9218893722321344,-0.21400494772862388,0.261982087438506
-1288.4976046085358,5096.0,-2244.0,-15728.0,386.0,609.0,1303.0,0.13799340150158423,0.8826425251134927,-0.2975346119173217,0.3367092940720658
-1288.51318359375,4924.0,-2272.0,-15448.0,522.0,1223.0,2834.0,0.04444381332667429,0.7519622083623588,-0.46865151456660187,0.461457844820324
-1288.5287733078003,4348.0,-2228.0,-15560.0,360.0,1381.0,3069.0,-0.04441386628640572,0.5489518241349854,-0.6236448784645232,0.5547489241317513
-1288.544392824173,3416.0,-2564.0,-15644.0,559.0,575.0,975.0,-0.08652970244571953,0.46323150974125665,-0.6417735737520465,0.6050255027773772
-1288.5600674152374,4168.0,-3084.0,-15380.0,549.0,-280.0,-711.0,-0.08649792057731431,0.512104614847969,-0.5801258902821135,0.6274718516488204
-1288.5756692886353,5532.0,-2468.0,-15324.0,155.0,164.0,483.0,-0.11136025541429247,0.4771582027751453,-0.5939410506244815,0.6380853950855981
-1288.591297864914,5228.0,-2784.0,-15580.0,201.0,712.0,1953.0,-0.18837875000239507,0.3290934733869304,-0.6602569589791937,0.6482836419663912
-1288.6068751811981,3940.0,-2800.0,-15744.0,442.0,467.0,793.0,-0.21805142117513562,0.24887752319716125,-0.6632589813144686,0.6712682622293736
-1288.622459411621,3884.0,-2528.0,-15112.0,445.0,-460.0,-1160.0,-0.18503595187898372,0.33241195988985023,-0.599446664067391,0.7042213305296167
-1288.6380779743195,4788.0,-2640.0,-15252.0,-5.0,-506.0,-1340.0,-0.1279086732760583,0.4304880402052785,-0.548610431305909,0.7052276321892963
-1288.6536765098572,5584.0,-3292.0,-15744.0,158.0,-122.0,712.0,-0.18303469730258876,0.4014911620359095,-0.5632500932869569,0.6986075284468662
-1288.6693391799927,4812.0,-2180.0,-15548.0,193.0,555.0,1847.0,-0.2711633780895979,0.2701410532272827,-0.6164709952501217,0.688082659103989
-1288.68492269516,3300.0,-2388.0,-15488.0,210.0,-114.0,-701.0,-0.2395359001683703,0.30922238678184427,-0.5836205139213024,0.7116116664120278
-1288.700530052185,2892.0,-2444.0,-15688.0,73.0,-875.0,-2841.0,-0.10603855597594801,0.4906093169927658,-0.4688023888020528,0.7268305462622745
-1288.7161121368408,4328.0,-2596.0,-15656.0,145.0,-895.0,-3326.0,0.05950642378736228,0.6533421953332379,-0.2959720953480685,0.6942647046339442
-1288.73171210289,4576.0,-2376.0,-15416.0,298.0,-974.0,-3741.0,0.231093925157254,0.7679367033752822,-0.06612079350460832,0.5937144583306342
-1288.747329711914,4996.0,-2356.0,-15616.0,-166.0,-1054.0,-3785.0,0.40869194046203733,0.7956837593796053,0.14906123997627058,0.42147241854912587
-1288.76292014122,5184.0,-2368.0,-15820.0,240.0,-324.0,-1178.0,0.43675733208638245,0.7963415757458424,0.22676102329109468,0.35165688664291767
-1288.7785098552704,4156.0,-1564.0,-15668.0,492.0,439.0,-227.0,0.39984838414725404,0.7958360002467514,0.2738549417043154,0.3630011037313921
-1288.7941637039185,3008.0,-2224.0,-15748.0,329.0,-285.0,-3133.0,0.4654135042765104,0.7149138993797476,0.47420934592901093,0.21774729101479598
-1288.8097932338715,4004.0,-2332.0,-15444.0,143.0,-1577.0,-5869.0,0.5592147384524622,0.448732016765032,0.688275574013703,-0.1104318235095263
-1288.8253982067108,6280.0,-3316.0,-15608.0,-195.0,-952.0,-3527.0,0.5618703110848235,0.20791140346548515,0.7449307316886692,-0.2935179838037865
-1288.8410115242004,6528.0,-3132.0,-15732.0,436.0,427.0,1094.0,0.5507116747334145,0.30951589881495833,0.7306852425885034,-0.25887378383387183
-1288.856602191925,4192.0,-2764.0,-15564.0,373.0,897.0,1783.0,0.515436365925667,0.454367995424373,0.7063776273346962,-0.17001683744965898
-1288.8722479343414,2168.0,-2732.0,-15420.0,595.0,-572.0,-2773.0,0.47091278094573524,0.29258949636641585,0.758143582371098,-0.3432941127772499
-1288.887856721878,3988.0,-2548.0,-15424.0,295.0,-2045.0,-5078.0,0.40261085333706803,-0.08345891620346059,0.7172596190421152,-0.5625635510525913
-1288.9034457206726,6296.0,-2508.0,-15452.0,-12.0,-804.0,-2504.0,0.3213524013767224,-0.2731001119383345,0.6545273224071041,-0.6274894000788139
-1288.9196133613586,6220.0,-2444.0,-15428.0,298.0,402.0,1415.0,0.3795644372989454,-0.1607049893168856,0.6775971796043808,-0.6090704446439535
-1288.9353427886963,4380.0,-2268.0,-15432.0,96.0,584.0,1383.0,0.4161451836584837,-0.04444639974683539,0.7053917531952583,-0.5720753256272387
-1288.9509177207947,3088.0,-2668.0,-15844.0,122.0,-17.0,-980.0,0.3671979434473715,-0.10088769546145679,0.6925343608805372,-0.6126854839412169
-1288.9665212631226,3764.0,-2724.0,-15744.0,427.0,-676.0,-1668.0,0.3183410694747226,-0.2213854464633899,0.6254787888737321,-0.6770699611184539
-1288.98215675354,4752.0,-2396.0,-15384.0,418.0,-161.0,-206.0,0.32258874648464,-0.23046808825479734,0.5919835427754205,-0.701695408293876
-1288.9977989196777,4368.0,-2148.0,-15748.0,484.0,220.0,305.0,0.3390187046472911,-0.18750426320509755,0.5740649935018767,-0.7213583384247225
-1289.0133936405182,3744.0,-2448.0,-15736.0,492.0,-57.0,-587.0,0.3121499591341519,-0.20562409245493024,0.5308385917003261,-0.760586303568667
-1289.028981924057,4220.0,-2476.0,-15444.0,479.0,-598.0,-1773.0,0.22744665614944146,-0.31018289511913694,0.44488474574472053,-0.8087843675452708
-1289.0446701049805,5508.0,-2728.0,-15724.0,245.0,-116.0,-251.0,0.22066342898902538,-0.3232919379382846,0.41845705520080795,-0.8195630951449567
-1289.0602650642395,5344.0,-2620.0,-15744.0,625.0,949.0,2336.0,0.36146515505076654,-0.15439411580106052,0.4467876000473193,-0.8036704791978431
-1289.0759143829346,3648.0,-2464.0,-15616.0,598.0,1027.0,2095.0,0.4661366033246489,0.017626071644728375,0.4557642282326084,-0.7580797826765125
-1289.091509103775,2968.0,-2976.0,-15592.0,747.0,415.0,537.0,0.48203610036819444,0.09637584454478781,0.42106322132426977,-0.7622720368596319
-1289.1070566177368,3488.0,-2800.0,-15392.0,1048.0,207.0,-193.0,0.45065429273739416,0.14644567102268638,0.3603673978356759,-0.8034921981284062
-1289.1226787567139,4220.0,-2752.0,-15828.0,993.0,307.0,-183.0,0.4136290334540912,0.20041046145314725,0.3041692215952264,-0.8344026331802441
-1289.1382958889008,4632.0,-3032.0,-15332.0,1079.0,149.0,-496.0,0.35267180364786554,0.2357829435950952,0.23865676523818233,-0.8735398965287392
-1289.153883934021,5324.0,-2856.0,-15584.0,748.0,189.0,217.0,0.3489509550185062,0.2771150324008871,0.1828301964160012,-0.8763638565616535
-1289.1694972515106,5588.0,-2760.0,-15476.0,615.0,839.0,1821.0,0.45238060433344535,0.3828319267241523,0.11563726040199923,-0.7971320647861934
-1289.1850821971893,4692.0,-2956.0,-15500.0,692.0,803.0,2828.0,0.597415845574,0.47844971381797163,0.0046795458280082265,-0.6435513038254583
-1289.200734615326,3820.0,-3088.0,-15632.0,742.0,812.0,2010.0,0.6657004527668092,0.552870933054837,-0.07706840827444683,-0.4952141950865122
-1289.2163400650024,3840.0,-3264.0,-15564.0,916.0,614.0,1721.0,0.688990099259273,0.6116211219833884,-0.1615428098541214,-0.35371763717817856
-1289.23198056221,4176.0,-2952.0,-15440.0,779.0,651.0,1402.0,0.6918423807960841,0.6515955255062592,-0.21890806826790446,-0.22103540196503058
-1289.2476048469543,4508.0,-3484.0,-15368.0,605.0,599.0,1508.0,0.6899374231800338,0.6635054498970001,-0.27714599697698816,-0.08328845305506247
-1289.2632417678833,4860.0,-3816.0,-15080.0,685.0,420.0,1719.0,0.6636609720079206,0.6574149356211151,-0.35172846195874385,0.060388787899109994
-1289.2788546085358,4992.0,-3212.0,-15340.0,361.0,868.0,2647.0,0.6365461088727555,0.5755869876861666,-0.4385880069240125,0.2667381320091699
-1289.2944622039795,4136.0,-3288.0,-15596.0,382.0,1260.0,2702.0,0.5827401311809103,0.44900591795359907,-0.47939304673710464,0.47852892482484016
-1289.3100662231445,3480.0,-3548.0,-15452.0,278.0,321.0,791.0,0.5503689589726055,0.4154986515286495,-0.48119440409882624,0.5412086705155966
-1289.3256647586823,4004.0,-3672.0,-15400.0,354.0,-2.0,12.0,0.5364543966111046,0.43200421163759734,-0.4650044074866775,0.5562013506833273
-1289.3412818908691,4696.0,-3292.0,-15456.0,418.0,267.0,1384.0,0.46042128484976413,0.3794779417251622,-0.4806618285043089,0.6426297058339437
-1289.3568923473358,4212.0,-3244.0,-15460.0,501.0,624.0,1182.0,0.4005020632037636,0.3127596828142895,-0.46328144358180523,0.7260508124148009
-1289.3725354671478,3792.0,-3380.0,-15376.0,622.0,94.0,-119.0,0.39415724234828875,0.33296738861406017,-0.41692750874173773,0.7482942194607238
-1289.388124704361,4356.0,-3208.0,-15344.0,393.0,29.0,-463.0,0.4133566718543738,0.361081740617403,-0.3765123960547275,0.7463207447494072
-1289.40371799469,4808.0,-3508.0,-15172.0,446.0,171.0,59.0,0.4006331004479582,0.36393972142525993,-0.3430761801355518,0.7676846570161207
-1289.419319152832,4628.0,-3276.0,-15332.0,395.0,284.0,195.0,0.3830418641245642,0.3526989651468284,-0.31276898814332166,0.7943915472662948
-1289.434904575348,4456.0,-3492.0,-15252.0,129.0,299.0,-106.0,0.39432393542385075,0.33921303124116686,-0.2906582576633546,0.8030945963210866
-1289.4505763053894,4492.0,-3708.0,-15136.0,184.0,20.0,-478.0,0.4223785613415483,0.3560965663674695,-0.26288435374382774,0.7910015188967925
-1289.4661674499512,4832.0,-3756.0,-15336.0,-130.0,10.0,-62.0,0.43080273556464466,0.3522034585526317,-0.26975284004493855,0.7858722110504185
-1289.4817969799042,4824.0,-3840.0,-15440.0,198.0,367.0,788.0,0.37808833670183867,0.3151714943556744,-0.26601067744058715,0.8288271582683859
-1289.4973907470703,4124.0,-3288.0,-15124.0,-47.0,204.0,156.0,0.37266725827414765,0.29536583759756946,-0.26712013547434854,0.8381676263223733
-1289.5129730701447,3864.0,-3700.0,-15360.0,53.0,-219.0,-597.0,0.40915543342315136,0.32670044549374255,-0.25481334785143844,0.8129752812793543
-1289.5285739898682,4760.0,-3304.0,-15184.0,-44.0,106.0,-36.0,0.4152214817884449,0.3185936408354837,-0.25332329728805125,0.8135825220171022
-1289.5441718101501,4556.0,-3512.0,-15412.0,-223.0,143.0,73.0,0.41920146611086395,0.29885867710891406,-0.2661456685042163,0.8149356447374577
-1289.5597801208496,4328.0,-3692.0,-15396.0,-48.0,49.0,-117.0,0.42980449562431183,0.29649960753800547,-0.2649271637405167,0.8106600250310515
-1289.5753638744354,4188.0,-3416.0,-15304.0,-147.0,-32.0,-662.0,0.47878030747784855,0.3082001244518262,-0.25917295686923314,0.7801355516107147
-1289.5909497737885,4096.0,-3444.0,-15488.0,-93.0,-93.0,-982.0,0.5439114753627639,0.33180283460228277,-0.24230576360887157,0.7316796449543428
-1289.6065635681152,4280.0,-3312.0,-15240.0,-133.0,-189.0,-1334.0,0.6244938037568347,0.3634283472819708,-0.21983928853461923,0.6554372683009472
-1289.622154712677,4596.0,-3540.0,-15428.0,-212.0,-226.0,-1352.0,0.6989881509278818,0.3881014303866055,-0.20016416276967375,0.5663277783554388
-1289.6377239227295,4664.0,-3564.0,-15404.0,-33.0,22.0,-561.0,0.727207313246793,0.3945260408164867,-0.18145398569042775,0.5315949376688104
-1289.6533780097961,4420.0,-3340.0,-15124.0,-191.0,11.0,-768.0,0.7676235649191188,0.3933286965333295,-0.1630002862543344,0.4790381046902851
-1289.6689755916595,4360.0,-3440.0,-15456.0,-183.0,-147.0,-1029.0,0.8112627107368456,0.4003708585713047,-0.14477702167067008,0.40074381314120355
-1289.6845490932465,4412.0,-3436.0,-15300.0,-45.0,-145.0,-986.0,0.8421639205678572,0.41336643054226924,-0.12191387826845806,0.3240758110073364
-1289.7001571655273,4572.0,-3396.0,-15280.0,-158.0,-96.0,-902.0,0.869415740790988,0.41296016702032373,-0.10077458029233757,0.2518425184243257
-1289.715785741806,4584.0,-3452.0,-15332.0,-150.0,2.0,-818.0,0.8903473002863003,0.40788774383416526,-0.07443806392581787,0.18806447814977428
-1289.731677055359,4516.0,-3460.0,-15308.0,-184.0,-53.0,-763.0,0.9068194281598357,0.39871845120304605,-0.05447099363797357,0.1254393567992294
-1289.748509645462,4428.0,-3244.0,-15372.0,-244.0,82.0,-266.0,0.918017118765858,0.37982554610672875,-0.041546530200884633,0.1060707782842416
-1289.7667126655579,4012.0,-3612.0,-15464.0,-63.0,-9.0,-996.0,0.9256823775831174,0.37729654818400066,-0.009963318831740417,0.025694023397706788
-1289.7848904132843,4224.0,-3448.0,-15212.0,-179.0,-397.0,-1853.0,0.9226492402913845,0.36065761326153156,0.018184618920507628,-0.1353284338967332
-1289.8030745983124,4908.0,-3272.0,-15376.0,-219.0,-204.0,-1278.0,0.9087550028293887,0.3366457537558123,0.044152458312663,-0.24266137256614875
-1289.8212718963623,5116.0,-3276.0,-15140.0,-291.0,62.0,-398.0,0.9077233227490068,0.31330719120547706,0.06675572475270608,-0.27096244479480525
-1289.8394470214844,4540.0,-3356.0,-15500.0,-213.0,71.0,-365.0,0.9038066940635928,0.2960455133061187,0.08728259652259297,-0.2964325592127662
-1289.8554208278656,4400.0,-3208.0,-15240.0,-203.0,-31.0,-764.0,0.8873486038457712,0.27302711870787943,0.10955130166945856,-0.3550593753241305
-1289.8710389137268,4572.0,-3392.0,-15440.0,-234.0,-265.0,-810.0,0.867724895906648,0.23848276602141774,0.11527645189067649,-0.42058389766379217
-1289.886667728424,5092.0,-3184.0,-15332.0,-61.0,76.0,225.0,0.8762449072027444,0.23906561828159867,0.1186047541103687,-0.40121740373432185
-1289.902277469635,4920.0,-3044.0,-15396.0,-282.0,356.0,515.0,0.894823976690379,0.2350927064389448,0.1447518172974462,-0.3508110339033179
-1289.9179065227509,4852.0,-3352.0,-15652.0,-148.0,280.0,911.0,0.918907265459234,0.24295703927845194,0.15202507495595796,-0.27105293050604906
-1289.9335777759552,4384.0,-3148.0,-15444.0,-110.0,376.0,968.0,0.9352018725099516,0.2550447820818848,0.16368060739362716,-0.18318917967483023
-1289.9493162631989,4344.0,-3156.0,-15596.0,-134.0,364.0,609.0,0.9407752373141447,0.2583571833514015,0.18171166295953933,-0.1231843748684213
-1289.9650175571442,4028.0,-3540.0,-15456.0,20.0,267.0,294.0,0.9385969718745044,0.26759896353965756,0.19679617371252348,-0.09326191673251291
-1289.9805998802185,4148.0,-3388.0,-15472.0,159.0,115.0,-501.0,0.9277136682438222,0.27288655258219585,0.21650914567670812,-0.13417924210449977
-1289.9961881637573,4544.0,-3080.0,-15420.0,222.0,77.0,-493.0,0.9140621003153317,0.2823531625861362,0.2317536340037835,-0.17623115919374668
-1290.0118107795715,4724.0,-3264.0,-15504.0,147.0,238.0,68.0,0.9062816670155744,0.2992320942589628,0.2468718964388304,-0.167833133038629
-1290.0274183750153,4664.0,-3172.0,-15284.0,318.0,338.0,335.0,0.8943693772190074,0.33634524618358286,0.26002159724873747,-0.13915481100847768
-1290.043003320694,4248.0,-3160.0,-15364.0,132.0,346.0,83.0,0.8830365742895102,0.3527602179429613,0.28297954137927606,-0.12541617226121754
-1290.0586466789246,4316.0,-3776.0,-15364.0,172.0,255.0,-472.0,0.865095874912168,0.3569201379209888,0.31505577974167975,-0.157977840242785
-1290.074254989624,4912.0,-3344.0,-15448.0,509.0,126.0,-199.0,0.8418803524081953,0.39134177458462516,0.3235189587627787,-0.18282387977246464
-1290.0898411273956,4952.0,-3396.0,-15192.0,67.0,259.0,848.0,0.8431273161641598,0.42326391533875685,0.3117275656627342,-0.11318087963924152
-1290.1053948402405,4492.0,-3644.0,-15360.0,126.0,247.0,604.0,0.836155485875066,0.4508581360737128,0.3059647244245811,-0.06290096966629195
-1290.120964050293,4640.0,-3316.0,-15344.0,34.0,86.0,285.0,0.8336390522047106,0.46148691770716316,0.30084760119220716,-0.03957873521562341
-1290.1365427970886,4832.0,-3256.0,-15176.0,136.0,16.0,885.0,0.8281065581667613,0.49339559327231547,0.26518424117728423,0.02185486426148286
-1290.1521818637848,4672.0,-3280.0,-15304.0,-90.0,448.0,1068.0,0.8152233125911829,0.5083868947904578,0.2501858056475669,0.11983646550884378
-1290.167820930481,4104.0,-3660.0,-15364.0,85.0,263.0,907.0,0.7933302840017211,0.5299188293700785,0.22881955719122946,0.19353218081653425
-1290.183441400528,4276.0,-3428.0,-15292.0,223.0,197.0,619.0,0.7670617153338778,0.5536470290563161,0.21724035330631075,0.24061986821855122
-1290.199069738388,4148.0,-3132.0,-15460.0,77.0,346.0,460.0,0.7459703696276542,0.5597906041878167,0.21953525726974119,0.286298721471349
-1290.21466588974,3900.0,-3476.0,-15564.0,174.0,103.0,-379.0,0.7442513093300323,0.5611412428336082,0.24895564930880215,0.2631189442608022
-1290.2302572727203,3932.0,-3620.0,-15168.0,420.0,-69.0,-614.0,0.7375174627802147,0.5756847729693553,0.28362337665752785,0.21026843433772663
-1290.2458627223969,4484.0,-3188.0,-15344.0,281.0,118.0,-575.0,0.7296494063214773,0.5766785654468051,0.324787691510813,0.17194921183886658
-1290.2614524364471,4128.0,-3368.0,-15496.0,304.0,86.0,-780.0,0.7214635561282954,0.5713186600123603,0.3731488696876171,0.11766582745745975
-1290.277044057846,4092.0,-3592.0,-15588.0,386.0,-252.0,-1893.0,0.7193279221977437,0.5291719554809954,0.44928065668179695,-0.026292078857890703
-1290.2927236557007,4416.0,-3412.0,-15160.0,588.0,-5.0,-1505.0,0.6819505240233339,0.5022623063619238,0.5121836930915643,-0.14263212444392503
-1290.308307647705,4108.0,-3204.0,-15504.0,619.0,385.0,-1355.0,0.6149890221004254,0.47916129800688345,0.581715468895116,-0.2319484133087713
-1290.3238775730133,3084.0,-3672.0,-15668.0,798.0,-86.0,-3093.0,0.5039010411449268,0.3499681382661075,0.6650786847395205,-0.42576564684901835
-1290.339453458786,3440.0,-3612.0,-15068.0,1138.0,-1107.0,-5618.0,0.28906636120987156,0.02925940396795462,0.6646117651997454,-0.6883863215189583
-1290.3550555706024,5656.0,-2996.0,-15080.0,738.0,-624.0,-4832.0,0.03025825985402235,-0.24798482218667564,0.5668942532427681,-0.784996096369895
-1290.3706696033478,6020.0,-3836.0,-15212.0,596.0,356.0,-1600.0,-0.08315224766070117,-0.2978997548082859,0.48698026332117655,-0.8168180108994746
-1290.3862540721893,4300.0,-3932.0,-15492.0,642.0,534.0,-1727.0,-0.2093310597763251,-0.3334011569297765,0.38728826667893945,-0.833685776815
-1290.4018530845642,2896.0,-4012.0,-15152.0,975.0,-488.0,-3685.0,-0.4100566678264294,-0.484874096713761,0.2069704965891779,-0.7442538901804469
-1290.4174456596375,3876.0,-3724.0,-14932.0,356.0,-1145.0,-5508.0,-0.6567597769502002,-0.6027028693890591,-0.0072287167931969045,-0.4531705995141805
-1290.4330344200134,5688.0,-3960.0,-15464.0,200.0,-609.0,-3799.0,-0.7551514781569179,-0.6029428969313941,-0.17056380759649126,-0.1926501897626556
-1290.4486620426178,6180.0,-3720.0,-15192.0,451.0,-5.0,-1340.0,-0.7481575112598501,-0.6084323625615549,-0.2464299523293181,-0.09665752494349282
-1290.4642598628998,5420.0,-3092.0,-14596.0,-241.0,-246.0,-1811.0,-0.7714200995649904,-0.5490053572130181,-0.3204050811324082,0.029064268837899126
-1290.4798829555511,5388.0,-3920.0,-15420.0,-431.0,-303.0,-815.0,-0.7954603062367676,-0.49487579729389874,-0.339020552406373,0.08605760570986043
-1290.495466709137,5832.0,-3556.0,-15088.0,-271.0,717.0,1954.0,-0.7873469733034749,-0.5306351373030529,-0.3015117796776645,-0.08718796594046138
-1290.5110881328583,4488.0,-3760.0,-14636.0,-639.0,950.0,2558.0,-0.7501733253306635,-0.531368634876669,-0.23656148188845777,-0.3145250723207554
-1290.526661157608,3396.0,-4120.0,-15304.0,-561.0,32.0,507.0,-0.7597853892908304,-0.5033875029673305,-0.19935596587910231,-0.35997830899223293
-1290.5422484874725,4092.0,-3736.0,-15220.0,-371.0,-460.0,-914.0,-0.8090019941409138,-0.47546934410947417,-0.19648200253193757,-0.28432287802632245
-1290.5578382015228,5080.0,-3268.0,-15204.0,-613.0,-546.0,-1193.0,-0.8663719757033539,-0.42220274099422367,-0.1907123842178355,-0.186475820734969
-1290.5734224319458,5556.0,-2684.0,-15148.0,-287.0,-534.0,-745.0,-0.8946926102435505,-0.3956885879836387,-0.1725082220124774,-0.11487640250804404
-1290.5889995098114,5812.0,-2580.0,-15740.0,-551.0,38.0,501.0,-0.906089939323649,-0.35935057103438167,-0.15231363963543088,-0.1633056769825773
-1290.604570388794,5060.0,-2424.0,-15956.0,-292.0,651.0,1195.0,-0.8829520475543177,-0.34065477454799054,-0.16095589336188176,-0.280077144175269
-1290.6201570034027,3804.0,-2956.0,-16176.0,305.0,757.0,597.0,-0.8452449510363399,-0.35295899909358164,-0.20820698791770692,-0.3429734215484754
-1290.6357839107513,4092.0,-2940.0,-16100.0,657.0,525.0,805.0,-0.7871708411920217,-0.3985625418160581,-0.24061051190916016,-0.4044954246922694
-1290.6514477729797,3932.0,-2708.0,-16256.0,1513.0,1182.0,1108.0,-0.6582268908668285,-0.47548362908294234,-0.3306044766783712,-0.48099205670584977
-1290.6670801639557,3216.0,-2940.0,-16236.0,1903.0,677.0,-1178.0,-0.59668082734393,-0.5120638557978495,-0.4882754248581873,-0.3786155138727932
-1290.6826734542847,4200.0,-2684.0,-16168.0,2773.0,313.0,-1892.0,-0.5004763342114822,-0.5426551351534428,-0.6531447540418197,-0.16867357070236744
-1290.6982643604279,5492.0,-1152.0,-16136.0,3038.0,1174.0,-498.0,-0.28516056770584164,-0.6052438029295468,-0.7426770236609588,-0.028182053991177052
-1290.713852405548,5472.0,-1060.0,-17244.0,4088.0,2164.0,683.0,0.06760298362050948,-0.6906417888141969,-0.713382214573695,0.09761952714012764
-1290.7294487953186,4616.0,-232.0,-17832.0,6028.0,3377.0,2486.0,0.5220661588129967,-0.7060945001525605,-0.4145030463199831,0.2388822037490505
-1290.7450523376465,2896.0,384.0,-18652.0,7608.0,5156.0,2814.0,0.857057787225949,-0.435930371634621,0.11668341838162966,0.24859935703182892
-1290.760760307312,684.0,784.0,-20228.0,10974.0,6306.0,853.0,0.7988716559983113,0.17191738264321366,0.5758079800830161,-0.02633744217533986
-1290.7763803005219,544.0,1940.0,-21436.0,14321.0,7556.0,-1804.0,0.11504522005362451,0.6311053767505859,0.6310169785332412,-0.43622032687862344
-1290.7920229434967,3376.0,1804.0,-22620.0,16217.0,13187.0,4112.0,-0.6384968878130891,0.7212125618877849,-0.0380534407001665,-0.2659437919544963
-1290.8076231479645,2528.0,-48.0,-22728.0,14660.0,16690.0,3945.0,-0.6403253134965844,0.12626714072585096,-0.7048815385371547,0.27781669981826623
-1290.823305606842,-376.0,-8416.0,-23976.0,11870.0,12584.0,-13598.0,0.1537246060887127,-0.002563360691733733,-0.44833586495194094,0.8805436541493152
-1290.8388850688934,5692.0,-11044.0,-29484.0,12058.0,7842.0,-22686.0,0.8658229389985537,0.17431032577509215,0.22681830926585003,0.41051187950395474
-1290.8545246124268,13148.0,-3132.0,-30672.0,12260.0,14044.0,-4989.0,0.2960677091359243,0.254796368467208,0.9205527907975722,0.002298168342323872
-1290.8701539039612,7692.0,-3756.0,-26144.0,15855.0,21133.0,20143.0,-0.5733703867240749,0.7428594068092772,0.3331770128597964,-0.09164812842975442
-1290.8857669830322,-3820.0,-6496.0,-13464.0,16765.0,14824.0,15849.0,-0.7573644466267203,0.1864707836813539,-0.6053833053548552,-0.15855218515269184
-1290.9013838768005,-6464.0,-20.0,-6604.0,11195.0,3957.0,-1998.0,-0.5225552661965648,-0.27093936002301555,-0.6821600770054891,0.4338035111665434
-1290.9175505638123,-3860.0,8924.0,-3960.0,3305.0,-870.0,11337.0,-0.6434978814538559,-0.7397380461016313,-0.17329895540977133,0.09308905289034862
-1290.9332094192505,-9236.0,16320.0,-5160.0,-9185.0,1025.0,12890.0,-0.7763573372978725,-0.25032524820224217,0.30832092994850224,-0.4894330997101995
-1290.948858499527,-16068.0,6304.0,-10504.0,-20730.0,-12598.0,-8479.0,-0.5100362813900324,0.1579961688624632,0.7583166461292082,0.37397334997825815
-1290.9644315242767,-9336.0,-5152.0,-14584.0,-15440.0,-25096.0,-15880.0,0.6095954106426852,0.19866466737051733,0.5151040340218643,0.5688528978535132
-1290.9801034927368,5348.0,1584.0,-13976.0,-17268.0,-24783.0,-1859.0,0.7490545786224485,0.15120309779260105,-0.5765865838150851,0.2891414408678167
-1290.9957427978516,10508.0,-644.0,-15472.0,-23492.0,-15872.0,19163.0,-0.07086682835709314,-0.6185376664080346,-0.7810969006765006,0.0477145640939354
-1291.0113451480865,1276.0,-7756.0,-16392.0,-21001.0,-17083.0,21565.0,-0.7727579819142576,-0.5932694472034112,0.1261134707626186,-0.1870076386005901
-1291.0269396305084,-4588.0,-6400.0,-15112.0,-21845.0,-25419.0,867.0,-0.5205721761707146,0.15346252457313306,0.725018872844764,0.42403006611257527
-1291.042533159256,1516.0,-6708.0,-19384.0,-24095.0,-30787.0,-15469.0,0.610730383755838,0.37041918811427793,0.3784825785007416,0.5886840928763372
-1291.0581834316254,11228.0,-7216.0,-22712.0,-21233.0,-27344.0,-6831.0,0.7879197764628768,0.12913755067595517,-0.6019454621920193,0.012945246638890177
-1291.0738198757172,11436.0,-9124.0,-21252.0,-17648.0,-20002.0,4220.0,-0.026865857371160963,-0.5012780703496029,-0.7987342073299712,-0.331695926919903
-1291.0894079208374,6792.0,-8408.0,-18520.0,-15308.0,-19665.0,2259.0,-0.8334820085439426,-0.4963856688840036,-0.08771072701147002,-0.22630916359541217
-1291.1050045490265,8604.0,-7100.0,-15452.0,-17996.0,-19374.0,-1705.0,-0.7124270419820568,0.175789144209341,0.6363780619001488,0.23784206726955276
-1291.1205942630768,13868.0,-7776.0,-17004.0,-18963.0,-15735.0,9629.0,0.10035656924925372,0.8807856303770935,0.4266694419520783,0.17916031824611145
-1291.136182308197,11632.0,-6768.0,-18072.0,-16567.0,-9980.0,24564.0,0.46839024561323367,0.6216274530394131,-0.6222025676036657,0.08398721515512257
-1291.1517963409424,896.0,-5008.0,-18072.0,-13900.0,-8572.0,22873.0,0.22239425319011802,-0.4249804488944391,-0.8741765540134264,-0.0758140265300669
-1291.1673655509949,-4340.0,-4976.0,-18028.0,-12598.0,-9523.0,9527.0,-0.47944527229729916,-0.7701030384493401,-0.3283975774398329,-0.2631132307097303
-1291.1829626560211,-1896.0,-4268.0,-17448.0,-11963.0,-9194.0,-777.0,-0.9455719368394848,-0.27711912374319453,0.16843963251228877,0.026959111939277948
-1291.198590040207,1524.0,-7264.0,-16648.0,-7651.0,-8779.0,-1817.0,-0.6950725863731073,0.24267474536320122,0.5794101379073157,0.3496669268400002
-1291.2141962051392,4756.0,-3360.0,-14428.0,-6537.0,-7902.0,-3841.0,-0.028754076602274567,0.4960670209134435,0.6800829502387034,0.539052775371237
-1291.2298328876495,6456.0,-4020.0,-14376.0,-7494.0,-5744.0,-4876.0,0.6349114137470033,0.36360628847561105,0.4055942520761634,0.5478788792767522
-1291.2454957962036,5964.0,-4020.0,-14668.0,-4690.0,-3169.0,2412.0,0.6876126111458039,0.3003281115674946,-0.06230944483132111,0.6581105191989904
-1291.2611038684845,4064.0,-364.0,-13640.0,-2804.0,-528.0,7557.0,0.2649487445498592,0.09938439075685507,-0.37042279932958844,0.8847100402799629
-1291.27672457695,1716.0,1896.0,-13980.0,-5319.0,2370.0,10545.0,-0.293926973145233,-0.3772198710265862,-0.5637955232915876,0.6733845196295593
-1291.2923183441162,-3612.0,-3740.0,-17332.0,-1707.0,2847.0,8257.0,-0.5490006613532307,-0.7163820380469507,-0.3676712569342074,0.22408234250344775
-1291.3079431056976,-6008.0,-5692.0,-15548.0,3194.0,899.0,-4409.0,-0.21079428928765417,-0.6717174225309195,-0.5622257781675785,0.43389358860899496
-1291.3235545158386,-1676.0,-8380.0,-13768.0,5403.0,-1989.0,-15645.0,0.34041441891609836,0.040659721362799696,-0.7013990869763586,0.6249032975120592
-1291.3391189575195,4740.0,-8160.0,-15088.0,10422.0,-2206.0,-21787.0,0.5795089169396869,0.7707618783241947,-0.051946374399153054,0.2596095458497888
-1291.3547790050507,9140.0,-6440.0,-14908.0,11220.0,3556.0,-16021.0,0.10168971011696291,0.6643805385399328,0.7289229684853407,-0.1301115247786909
-1291.370359659195,7152.0,-9956.0,-13684.0,16611.0,6463.0,-17309.0,-0.6153481624127094,-0.09046047015670615,0.6705453517079776,-0.40439148563879806
-1291.386001586914,8024.0,-8944.0,-11308.0,17149.0,7270.0,-26749.0,-0.6133509765271429,-0.7694914414163884,-0.17774053893743924,-0.00958133593805955
-1291.4015865325928,13476.0,-23632.0,-17216.0,15510.0,14092.0,-32768.0,0.17511272616434262,-0.30507357616265995,-0.88888670219512,0.2935065193880734
-1291.4171686172485,18568.0,29480.0,-19488.0,32767.0,17063.0,28885.0,0.38721408838839944,-0.5891617155600002,0.23270653244311906,0.669926408219767
-1291.432771205902,-2576.0,32767.0,-13248.0,-7955.0,32767.0,32767.0,-0.6163519283790606,-0.4991490712752258,0.6060902999353635,0.060125313743500414
-1291.4483835697174,-32768.0,8076.0,-32768.0,-11077.0,8597.0,-21880.0,-0.5803862276754493,-0.4461578908563045,-0.35005317837605204,0.5844294101601486
-1291.4640231132507,-23688.0,-32768.0,-32768.0,32767.0,2591.0,-32768.0,0.5862632786221418,-0.2964889284673424,-0.020666270714844507,0.7536329270210033
-1291.479630947113,13284.0,20260.0,16080.0,32767.0,-11261.0,19469.0,0.036916280472870384,0.5778017035924617,0.5712363069387368,0.5817830018114063
-1291.495283126831,7884.0,32608.0,13896.0,-10811.0,10132.0,-32768.0,0.5284670241188847,-0.48732656619189846,0.5182655923105256,0.46328846103649446
-1291.5108754634857,7312.0,-16820.0,-13680.0,-26148.0,-2469.0,-32768.0,0.22449910636636305,-0.8095901073141849,-0.5386941902513392,0.06302839653017415
-1291.5264823436737,18532.0,-20776.0,-23928.0,8687.0,-13538.0,-32696.0,0.11454851370681891,0.29169398655200574,-0.9197966090955446,0.23615133730998678
-1291.5420727729797,24904.0,732.0,-22232.0,9308.0,9017.0,11612.0,0.19928896693825376,-0.4032555155971727,-0.5133121011942365,0.7308759016171623
-1291.5576474666595,11040.0,5036.0,-14580.0,1272.0,30554.0,32767.0,-0.11820374974594566,-0.9407071707878114,0.31018041555619763,0.06989994406130708
-1291.573245048523,-10820.0,-8716.0,-14816.0,1891.0,18651.0,20038.0,-0.22729352460599725,-0.20480320563559826,0.6837512388465247,-0.662478334747189
-1291.588858127594,-14912.0,-8312.0,-14804.0,11227.0,2026.0,-14073.0,-0.5137482653464099,-0.6148266317883923,-0.13736571815756557,-0.5823929877431147
-1291.6044526100159,3976.0,-880.0,-12140.0,1746.0,-1117.0,-22523.0,-0.7131756133435219,-0.2170061453151859,-0.6257054016438343,0.2297425249736401
-1291.620088338852,17672.0,-8496.0,-15824.0,974.0,8016.0,4615.0,-0.2712038529503953,-0.5360010425578646,-0.7902220041342116,-0.12124576983900304
-1291.6357026100159,11880.0,-7104.0,-13620.0,5682.0,12809.0,18657.0,0.4741202107450152,-0.8029170312550776,-0.12372472375112706,-0.3394502311331406
-1291.651343345642,32.0,-3836.0,-10504.0,681.0,6251.0,-1978.0,0.45996717351090677,-0.4927768825805801,-0.020666604939340263,-0.738359014793504
-1291.6669507026672,-1568.0,-6404.0,-14636.0,-3354.0,-1496.0,-20132.0,-0.48084856658663727,-0.33603386229161514,-0.35678109499132715,-0.7270303636449756
-1291.6825730800629,4668.0,-7348.0,-16024.0,50.0,-4993.0,-18723.0,-0.9277780211299048,-0.03673413459242913,-0.3560875228187451,0.10526263799104096
-1291.698171377182,9012.0,-2360.0,-13816.0,1144.0,-1442.0,-8901.0,-0.6949183628164443,0.12583024011998944,-0.20167307148636576,0.6786627969243001
-1291.7138040065765,11148.0,-2564.0,-14188.0,-1664.0,4708.0,2074.0,-0.648068647580846,-0.07983669411823273,-0.5503437343558384,0.5203411422809803
-1291.7293877601624,7772.0,-5184.0,-15300.0,-1447.0,7028.0,7526.0,-0.49035259859977454,-0.5024544506819009,-0.7118866769344878,-0.017641236905889687
-1291.7449839115143,4136.0,-6424.0,-16620.0,961.0,2383.0,4096.0,-0.27047415399587754,-0.7319341642680206,-0.5858033660701354,-0.2189760888736204
-1291.7606041431427,5540.0,-756.0,-13828.0,1411.0,1400.0,590.0,-0.0956359809389837,-0.7564352792543956,-0.5983942061744558,-0.24613776927973838
-1291.7761762142181,7092.0,-1284.0,-15448.0,-1754.0,1811.0,625.0,-0.10058092538868242,-0.7174322871549722,-0.5213407886517252,-0.4509746920654631
-1291.791788816452,5376.0,-4244.0,-14688.0,-554.0,1598.0,557.0,-0.039965323370171994,-0.6671765505335839,-0.4730383718325097,-0.5740321612245032
-1291.8073725700378,2940.0,-3296.0,-14928.0,-703.0,-3796.0,-8904.0,-0.521611825436718,-0.37201048171181783,-0.7196495929868845,-0.26764485493827017
-1291.822957277298,5864.0,-2120.0,-14092.0,-1921.0,-3974.0,-10206.0,-0.7691722882445422,0.1891289521158194,-0.5923437521749391,0.14742153752943132
-1291.83855676651,8068.0,-4028.0,-16392.0,-1898.0,-1715.0,-3261.0,-0.7375712982383761,0.4770971260135028,-0.42125180667813367,0.22564092655150242
