programtime,ax,ay,az,gx,gy,gz,q0,q1,q2,q3
-2995.943708896637,2480.0,-2336.0,17172.0,238.0,110.0,764.0,0.997531811611587,0.02049244671624768,0.009335995891903192,0.0665070194129429
-2995.959277153015,2500.0,-3064.0,16724.0,716.0,562.0,490.0,0.9889661375942999,0.07938689289301443,0.06107994168780916,0.10914641841132254
-2995.9748713970184,2500.0,-3584.0,16484.0,914.0,650.0,833.0,0.9641562543931365,0.15513075175859503,0.11903283222792159,0.1793553785789825
-2995.9904725551605,2480.0,-3656.0,16092.0,713.0,701.0,1225.0,0.9194107716591386,0.2146257376283476,0.170787132349182,0.2818712137281453
-2996.0060636997223,2560.0,-3480.0,15860.0,547.0,468.0,1569.0,0.8540326230634794,0.2671865809364969,0.19007659216585654,0.4038694081276676
-2996.0216591358185,2812.0,-2956.0,15564.0,707.0,384.0,1616.0,0.764854661181445,0.32893151451856245,0.20325019926366567,0.5152579572649235
-2996.0373315811157,3192.0,-1936.0,15848.0,885.0,559.0,1506.0,0.6535502027421792,0.3845395012059142,0.23398863482258508,0.608482393567658
-2996.0529346466064,3448.0,-1364.0,16444.0,801.0,879.0,1243.0,0.5367368383746186,0.40426261189919227,0.2816479767139674,0.6849523517479083
-2996.068534851074,3384.0,-1228.0,16980.0,693.0,1037.0,933.0,0.42712396986736706,0.39391866523092545,0.3355134280135391,0.7415011390213977
-2996.0841290950775,3476.0,-1620.0,16636.0,599.0,1017.0,647.0,0.3326093707558745,0.36674892495594114,0.387143856794741,0.7778083740068217
-2996.0997779369354,3340.0,-2064.0,16348.0,630.0,798.0,317.0,0.2628366873697466,0.3400241240942603,0.44088725607192913,0.7879840723262078
-2996.1153926849365,3224.0,-2396.0,15656.0,467.0,661.0,261.0,0.2050295049836098,0.31438947687898383,0.4789617914626215,0.7935475796906264
-2996.1309916973114,3004.0,-2352.0,15328.0,437.0,506.0,7.0,0.17110810613185834,0.2869138667709224,0.5170716572550373,0.7880604991585707
-2996.14662361145,2856.0,-2120.0,15504.0,304.0,301.0,255.0,0.13224231612436121,0.2819502944980897,0.5354467134438552,0.7850559332434083
-2996.1622047424316,2680.0,-2000.0,16040.0,273.0,416.0,211.0,0.09151520849473581,0.2661202063136292,0.5530126577097466,0.7842078824001703
-2996.1777963638306,2668.0,-1892.0,16332.0,508.0,533.0,164.0,0.04265798244124277,0.24105281447100865,0.5868320916128634,0.7718172927726614
-2996.1933748722076,2780.0,-1880.0,16736.0,498.0,648.0,131.0,-0.009829884088492382,0.2053997880170417,0.618301780875149,0.758562593480578
-2996.2089540958405,2776.0,-2268.0,16668.0,305.0,654.0,135.0,-0.05943616227964983,0.16875803253811408,0.634092854462287,0.7522727703348039
-2996.2245275974274,2760.0,-2332.0,16712.0,361.0,671.0,209.0,-0.11537423092892272,0.1340650984471301,0.6495745647749395,0.7394377735911042
-2996.2401065826416,2724.0,-2100.0,16280.0,3.0,663.0,330.0,-0.17397643808457783,0.10972221339054676,0.6377755163585194,0.7422503793287721
-2996.2557439804077,2556.0,-2012.0,16004.0,269.0,559.0,269.0,-0.22475581306161876,0.08425051893550732,0.6428934592383957,0.7273751952208694
-2996.2713305950165,2508.0,-1896.0,16116.0,283.0,595.0,134.0,-0.2683248986855594,0.04836378711356208,0.6469637239149518,0.7121099864343405
-2996.2869198322296,2200.0,-1872.0,16104.0,331.0,658.0,-57.0,-0.3027650354338266,-0.0034905800248283356,0.6508908986544659,0.6961768361692494
-2996.302537202835,2336.0,-1980.0,15924.0,399.0,598.0,-497.0,-0.30559009784356567,-0.07836372643837294,0.6571524762278449,0.6845614957520351
-2996.318157672882,2472.0,-2048.0,16152.0,399.0,388.0,-453.0,-0.29752628915625695,-0.13787371244399413,0.6661298648611129,0.669880548917442
-2996.3337709903717,2628.0,-1672.0,16156.0,391.0,326.0,-664.0,-0.27228423099524274,-0.2051144054171184,0.670648439018756,0.6588019804792765
-2996.3493552207947,2764.0,-1728.0,16280.0,345.0,297.0,-722.0,-0.24136031043550504,-0.27186284371152025,0.6685607491273181,0.6487390226291937
-2996.364929676056,2728.0,-2008.0,16216.0,282.0,236.0,-791.0,-0.20310825152441092,-0.33631114854437866,0.6588024813429437,0.6415770726139126
-2996.3805153369904,2532.0,-2316.0,16056.0,352.0,174.0,-586.0,-0.16968121977550027,-0.3852210041345435,0.6569167615541438,0.6255185289168407
-2996.3960831165314,2504.0,-2620.0,15924.0,221.0,133.0,-386.0,-0.14871054437033746,-0.4175049182496968,0.6534391515585244,0.6136709969037708
-2996.4116818904877,2348.0,-2792.0,16056.0,188.0,77.0,-144.0,-0.13853186975550255,-0.43214043177358374,0.6570532897909379,0.6019506148044795
-2996.427303791046,2756.0,-2656.0,15732.0,94.0,56.0,104.0,-0.14367824702539436,-0.430175641258223,0.6651311359547162,0.5932166981663406
-2996.442887067795,2696.0,-2328.0,15984.0,133.0,50.0,92.0,-0.14636472523101116,-0.42900355993999567,0.6747235222686563,0.5824787388945963
-2996.4584670066833,2584.0,-1996.0,16288.0,143.0,111.0,77.0,-0.15147060191089834,-0.4318362528317614,0.6833114890798073,0.5689108158477122
-2996.4740521907806,2324.0,-1844.0,16408.0,170.0,189.0,42.0,-0.1584121043855405,-0.4408164629452959,0.690617637786344,0.5510296993438316
-2996.48966050148,2208.0,-1908.0,16516.0,181.0,159.0,-218.0,-0.15051691320708832,-0.46388902143745947,0.688416815419901,0.5368742151337947
-2996.505294084549,2160.0,-1872.0,16636.0,296.0,224.0,-405.0,-0.13288745148739428,-0.5020053588081445,0.6821230795976728,0.514820016360357
-2996.520890235901,2280.0,-1940.0,16608.0,260.0,494.0,-533.0,-0.12669451449729055,-0.5576662614602431,0.6631840882181416,0.4828495686645312
-2996.536509037018,2376.0,-2216.0,16200.0,339.0,228.0,-488.0,-0.102687011007045,-0.5983285305072573,0.6501670250224284,0.45688202736040084
-2996.552094936371,2628.0,-2636.0,16156.0,346.0,38.0,-266.0,-0.07612547454542279,-0.6175691354710069,0.6492378294781795,0.4373825737421299
-2996.567723751068,2892.0,-2916.0,15696.0,348.0,-94.0,-136.0,-0.046831425580752,-0.6236289002628153,0.655430196699172,0.42344429337275363
-2996.5832953453064,3000.0,-2916.0,15820.0,389.0,-154.0,106.0,-0.02075553527474298,-0.6130100758362077,0.6757147746794556,0.4088977842427593
-2996.598913192749,3064.0,-2784.0,15972.0,274.0,-179.0,433.0,-0.010983563106710512,-0.5809090648166706,0.7081812403608991,0.40112759884630284
-2996.614499568939,2924.0,-2732.0,16272.0,180.0,-261.0,617.0,-0.007316779941325269,-0.532808644386917,0.7446433936258846,0.4019547605479899
-2996.630086660385,2900.0,-2472.0,16200.0,150.0,-256.0,692.0,-0.0079692402434516,-0.4778937825122918,0.7805556614710153,0.40284846182104517
-2996.645659685135,2604.0,-2176.0,16440.0,127.0,-207.0,611.0,-0.010043589480722911,-0.42835102693805405,0.8093054082209725,0.4017950724632425
-2996.661274909973,2684.0,-1544.0,16476.0,146.0,-69.0,369.0,-0.012654417657896476,-0.3997284067594029,0.8277545531108125,0.39354728603771105
-2996.676867246628,2600.0,-1844.0,16260.0,210.0,-34.0,111.0,-0.006691856093250791,-0.3906734135454303,0.8386783584467871,0.37940494736335606
-2996.692502975464,2504.0,-1980.0,16200.0,210.0,-83.0,-51.0,0.008225447918054714,-0.3916900084051397,0.8437544534457702,0.36686469114996445
-2996.708109855652,2496.0,-2148.0,16016.0,268.0,-111.0,-236.0,0.03309948863792621,-0.4051000848072486,0.8437243602334253,0.3506102524025284
-2996.723757505417,2572.0,-2332.0,15956.0,231.0,-199.0,-491.0,0.07086176868718272,-0.43394525319345384,0.8317853397967041,0.33882632050753503
-2996.7393708229065,2568.0,-2364.0,15636.0,142.0,-284.0,-163.0,0.10163984715268047,-0.4362828582662511,0.8276395828586929,0.3381409912141662
-2996.75497174263,2584.0,-2148.0,15584.0,44.0,-399.0,-63.0,0.13392839492508765,-0.42838873992794213,0.8224672732575016,0.34941931394258974
-2996.770635843277,2556.0,-2196.0,16192.0,41.0,-338.0,-59.0,0.1614711957813414,-0.4216348129020767,0.8171711349834756,0.3583050008467546
-2996.7862360477448,2684.0,-2036.0,16424.0,-73.0,-373.0,-76.0,0.18768138234875756,-0.41616995734204565,0.8063516980824357,0.3759989419202562
-2996.801857471466,2784.0,-2032.0,16492.0,-3.0,-461.0,-124.0,0.22392123504958678,-0.4094487694871954,0.7934834618573868,0.3906340761097345
-2996.8174452781677,2812.0,-2124.0,16500.0,97.0,-438.0,-303.0,0.2677900521676417,-0.4131300966763094,0.7765053561829605,0.39325747672415456
-2996.8329894542694,2860.0,-2424.0,16232.0,120.0,-356.0,-234.0,0.3040925868502103,-0.4136425474335232,0.7632628304971026,0.3922465973810403
-2996.8485679626465,2728.0,-2340.0,16252.0,113.0,-325.0,-124.0,0.333946569452584,-0.4075531840607973,0.7536076817211631,0.39300833701540067
-2996.864150762558,2692.0,-2468.0,16276.0,90.0,-447.0,-34.0,0.36747716833448757,-0.39150219778641754,0.7418240106121531,0.40172589804563474
-2996.8797590732574,2768.0,-2312.0,16380.0,195.0,-522.0,70.0,0.40505613440863925,-0.3619540219637548,0.7333825003405445,0.4087406539071482
-2996.895347595215,2772.0,-1964.0,16232.0,247.0,-269.0,99.0,0.4263749187216481,-0.3370790006918624,0.7353591387928601,0.40475809191603135
-2996.9110038280487,2600.0,-2012.0,16284.0,229.0,-168.0,242.0,0.4351782542647538,-0.3069017261144234,0.7438683994340091,0.4038452944464679
-2996.9266748428345,2480.0,-1996.0,16108.0,303.0,-164.0,300.0,0.44308040884528543,-0.26989548313926365,0.7556991761172618,0.39969355097900955
-2996.9422850608826,2416.0,-1848.0,16196.0,457.0,-146.0,311.0,0.45212915488491484,-0.22631041635241259,0.7723048190913245,0.3845882072577976
-2996.9578800201416,2236.0,-1588.0,16236.0,673.0,-149.0,188.0,0.46831379549337826,-0.18170380768586475,0.7911367614735327,0.348953492414412
-2996.9735221862793,2256.0,-1416.0,15968.0,757.0,-215.0,39.0,0.49288381745393933,-0.14116936619355802,0.8040690138032799,0.30101457370360263
-2996.9891455173492,2100.0,-1360.0,15880.0,734.0,-342.0,14.0,0.5243279349190417,-0.09936315100499654,0.8067430071251689,0.25371815335235876
-2997.004796266556,2084.0,-1484.0,15724.0,515.0,-525.0,53.0,0.5635011805238218,-0.06030200104332907,0.7928779221192268,0.2239970732717884
-2997.0204062461853,2200.0,-1284.0,15640.0,805.0,-549.0,190.0,0.5998519128959392,0.0031719127793507786,0.7796245137051289,0.17987006197375896
-2997.0360455513,2060.0,-1512.0,16612.0,1021.0,-389.0,180.0,0.6204105707664935,0.07464064661614794,0.7715688997065954,0.11916765735496743
-2997.051641702652,1980.0,-1620.0,16696.0,1159.0,-285.0,384.0,0.6244202881673026,0.1652396073554964,0.761072315625477,0.059700136302510476
-2997.0672523975372,1856.0,-1476.0,16720.0,1521.0,-270.0,452.0,0.6121409628659813,0.27684483112822905,0.7404215706704597,-0.020402910208620686
-2997.082832098007,1920.0,-1396.0,16496.0,1242.0,-311.0,565.0,0.598868358640101,0.37635263490329746,0.7026516328787177,-0.0774342691185791
-2997.0984437465668,1840.0,-1164.0,16616.0,1062.0,-415.0,763.0,0.5904564414302035,0.47245760098386635,0.6440518264460015,-0.11550866157011819
-2997.1140456199646,1792.0,-1248.0,16504.0,812.0,-287.0,479.0,0.5758902460030808,0.5363270561329735,0.5990530128880662,-0.14778092288241987
-2997.1296529769897,1604.0,-1420.0,16832.0,579.0,-50.0,336.0,0.554862920443719,0.581320318223942,0.5723131648073344,-0.16325277493780876
-2997.145264148712,1968.0,-1364.0,16784.0,415.0,114.0,285.0,0.5317096808491832,0.6166183361956038,0.5568545771942401,-0.1642547491442763
-2997.1608715057373,2376.0,-1416.0,16972.0,129.0,561.0,93.0,0.49826033624372823,0.6343136073039769,0.5752609018347337,-0.13585941165628518
-2997.1765010356903,2120.0,-1252.0,17236.0,113.0,867.0,-291.0,0.4436537448881772,0.6328251371268139,0.6256973405930909,-0.10586093916954985
-2997.1920919418335,2656.0,-1468.0,17156.0,45.0,1344.0,-634.0,0.35895136716757786,0.607248389597829,0.7064145411870549,-0.058153291728434184
-2997.207733154297,2672.0,-1356.0,17232.0,-181.0,1585.0,-1156.0,0.26114978319924476,0.5305393283016611,0.8064292844417846,0.0007880703780483334
-2997.2233350276947,3068.0,-1804.0,17216.0,-510.0,1886.0,-1596.0,0.14857694210121294,0.39691523601786904,0.9016957219216529,0.0856038127709354
-2997.2389221191406,2996.0,-1796.0,17164.0,-808.0,1582.0,-1666.0,0.06309575260659574,0.23815381879473213,0.9526083326714807,0.1784349997095718
-2997.254498720169,3100.0,-2056.0,17552.0,-1032.0,1505.0,-1647.0,-0.014620818003395144,0.07046284085466233,0.9572646453943716,0.28011715123781733
-2997.270073413849,3076.0,-2652.0,17976.0,-1829.0,1515.0,-1339.0,-0.0946026227645829,-0.07406842512180885,0.8938582820437742,0.431950904372001
-2997.285645008087,3080.0,-2608.0,17784.0,-2349.0,1521.0,-1163.0,-0.1785057147890341,-0.19601337125661486,0.7590517818745158,0.5946047935472729
-2997.3012228012085,3336.0,-3316.0,17856.0,-2728.0,1699.0,-882.0,-0.2803899973712334,-0.2881497519942424,0.5528916018426442,0.7298369998922303
-2997.316870212555,3080.0,-3320.0,17384.0,-3009.0,1942.0,-970.0,-0.36916315251591925,-0.3662215692808915,0.27508091225761533,0.8086598918763486
-2997.332494020462,3172.0,-3100.0,17080.0,-3045.0,2120.0,-800.0,-0.437583796025436,-0.4146121514019488,-0.032128285972824897,0.797235823709814
-2997.348090648651,2872.0,-3784.0,16556.0,-3032.0,2124.0,-685.0,-0.469047843292734,-0.4222594598022967,-0.3316063271272135,0.7012334227053836
-2997.3637187480927,2756.0,-3944.0,16056.0,-2857.0,2221.0,-479.0,-0.4581020753421322,-0.407062118440525,-0.5859974626538329,0.5301413906319834
-2997.3793094158173,3000.0,-3908.0,15620.0,-2636.0,2166.0,-177.0,-0.41478216437613175,-0.3763883991036745,-0.7674514165083463,0.3119388600911366
-2997.394898414612,2876.0,-4152.0,15472.0,-2400.0,2328.0,250.0,-0.33066006648108354,-0.3547224766434372,-0.8722745148494343,0.06303218021657819
-2997.4105246067047,2680.0,-3500.0,15696.0,-1946.0,2468.0,57.0,-0.19609434583262908,-0.3051826846868675,-0.9185005356943133,-0.15737630834737673
-2997.426150560379,2064.0,-2820.0,15532.0,-1780.0,2619.0,-95.0,-0.033584372700489355,-0.22275175024176588,-0.907344322879826,-0.35493665267522667
-2997.4417703151703,2024.0,-1904.0,15256.0,-1109.0,2502.0,-316.0,0.12954786780956687,-0.11370607860756327,-0.8618625570985012,-0.47694990334973175
-2997.457367658615,2036.0,-1676.0,14860.0,-818.0,2147.0,-719.0,0.24764559327310032,0.020086032224839772,-0.7932809382754831,-0.5558539056358659
-2997.4729533195496,1908.0,-1700.0,14608.0,-748.0,1715.0,-1195.0,0.30412247251432467,0.16676496745912323,-0.704629106369497,-0.6190289086925225
-2997.488527536392,1740.0,-2304.0,14996.0,-705.0,1536.0,-1530.0,0.31996531308968157,0.3188678584422415,-0.5917867569663141,-0.6676330740393058
-2997.5040893554688,1724.0,-3032.0,15304.0,-788.0,1457.0,-1614.0,0.316761698137929,0.4558858315847491,-0.4510490820341746,-0.6988453768532675
-2997.5197064876556,1748.0,-3480.0,15412.0,-851.0,1382.0,-1667.0,0.2973206354163094,0.5705595769242918,-0.288608391765754,-0.7090609318937268
-2997.5352871418,1856.0,-3700.0,15784.0,-745.0,1456.0,-1622.0,0.265434117320673,0.668720995582536,-0.12143313499683449,-0.6838208487273093
-2997.5508794784546,1776.0,-3488.0,15892.0,-513.0,1616.0,-1666.0,0.20864451982829466,0.7547868298215316,0.04300041419756628,-0.6204154013662303
-2997.566478729248,2028.0,-3508.0,15876.0,-340.0,1623.0,-1639.0,0.13346715932406691,0.8135924653157637,0.19497940719575435,-0.5312596808840044
-2997.582064628601,1972.0,-3240.0,15888.0,-194.0,1451.0,-1610.0,0.04704402895391205,0.8362227693142329,0.3293403420133129,-0.4359510047502736
-2997.5976388454437,1936.0,-3432.0,15828.0,-212.0,1266.0,-1551.0,-0.03241964405065126,0.8262483535371545,0.4489462269493315,-0.3386885151060334
-2997.613247871399,1932.0,-3348.0,15700.0,-184.0,1115.0,-1322.0,-0.10080298635246138,0.798752770842058,0.5403890338201643,-0.24456586258402763
-2997.6288619041443,1724.0,-3776.0,15900.0,-159.0,1136.0,-939.0,-0.16203880787570807,0.7736446801772596,0.5943025408189679,-0.14839751868466014
-2997.644450187683,1672.0,-3900.0,16108.0,-212.0,1222.0,-604.0,-0.2174184954351109,0.7556679717787944,0.6160981719722803,-0.0460234371040494
-2997.66006398201,1396.0,-4076.0,16160.0,-154.0,1327.0,-591.0,-0.2787995948706031,0.7262449055405596,0.6254422028236554,0.060507635910391974
-2997.6756734848022,1500.0,-3808.0,16072.0,65.0,1464.0,-625.0,-0.35618367884939733,0.676281874716162,0.6237568023527257,0.1634119468411208
-2997.6912956237793,1500.0,-3636.0,15972.0,381.0,1348.0,-803.0,-0.43637787010137674,0.5955715770664823,0.6284404495745965,0.24480901211926015
-2997.706906557083,1536.0,-3424.0,15776.0,617.0,1249.0,-929.0,-0.5117627637468525,0.48918175115079554,0.6355422884322869,0.3080358544024966
-2997.722499847412,1724.0,-3284.0,15572.0,741.0,1035.0,-993.0,-0.5685941236015204,0.36947020436982797,0.6451847963168642,0.3520356079863272
-2997.738131046295,1484.0,-3048.0,15372.0,791.0,849.0,-1015.0,-0.6053670784231124,0.24471737524900555,0.6540972352719374,0.3818388579261024
-2997.7537302970886,1448.0,-3572.0,15408.0,874.0,836.0,-982.0,-0.6333092194594789,0.1135387628955758,0.6538965898999824,0.3980548097749128
-2997.7693576812744,1076.0,-3516.0,15668.0,875.0,774.0,-767.0,-0.6547567537217965,-0.0054599534533312875,0.6442144494199978,0.39528663716658946
-2997.7849400043488,948.0,-3620.0,15720.0,784.0,507.0,-263.0,-0.6715187568780256,-0.08222932803722913,0.6397513399187045,0.3647178633461203
-2997.8005287647247,1240.0,-4064.0,15436.0,795.0,327.0,-295.0,-0.6726748237386878,-0.15518116559141004,0.6416453833485879,0.33424330865592544
-2997.8161387443542,1192.0,-3832.0,15548.0,876.0,21.0,-411.0,-0.6477936727866638,-0.22938249771180944,0.6579586967363964,0.30795678370511553
-2997.831737756729,1088.0,-3608.0,15708.0,1017.0,-26.0,-313.0,-0.6149786056308338,-0.30281396183911086,0.6775000205525998,0.26664347223002405
-2997.8473114967346,880.0,-3576.0,16040.0,1011.0,-46.0,-744.0,-0.5649295896993483,-0.39758936830691316,0.6796974112202233,0.24655360892098563
-2997.862889766693,848.0,-3444.0,15904.0,1095.0,228.0,-579.0,-0.5249184983911684,-0.48786934786824265,0.6678542920660804,0.20103411159873086
-2997.8784697055817,628.0,-3576.0,16456.0,1291.0,99.0,-582.0,-0.46204284856682376,-0.5782372257102991,0.6561371172286287,0.14711288280098578
-2997.894084215164,436.0,-3012.0,16144.0,1450.0,164.0,-728.0,-0.38508372097764015,-0.6737091167232344,0.6250750985869672,0.08430702822723338
-2997.9096813201904,756.0,-2648.0,16620.0,1559.0,144.0,-818.0,-0.2918430133200647,-0.762779876177759,0.5767742056461753,0.01805635001130083
-2997.925395011902,816.0,-2564.0,16208.0,1376.0,63.0,-981.0,-0.19972167431727122,-0.8382349691249045,0.506524250982181,-0.030109342586926505
-2997.9410078525543,792.0,-2824.0,16040.0,1337.0,-109.0,-745.0,-0.09817271945117585,-0.886848881191073,0.4464093927069719,-0.06767446482016329
-2998.0199286937714,1076.0,-3812.0,15908.0,461.0,-1698.0,1975.0,0.014959846404349157,-0.8027438873734717,0.5954724319156054,0.02812538192806998
-2998.035530090332,924.0,-3644.0,15708.0,332.0,-2145.0,2295.0,0.13892116158232312,-0.6533602395017505,0.7271693057010082,0.15825962577090621
-2998.0511186122894,1276.0,-3312.0,15572.0,275.0,-2332.0,2258.0,0.26111749181066385,-0.4563756899242912,0.7997534618396177,0.2897124184293493
-2998.066704750061,1248.0,-2408.0,15752.0,340.0,-2094.0,2079.0,0.35652592926900095,-0.24249487289102561,0.8164194813764357,0.38411551492939244
-2998.082292318344,1636.0,-1952.0,15436.0,475.0,-2056.0,1754.0,0.44184571441549314,-0.03282743361437865,0.7832786353962361,0.4360840556438246
-2998.0979931354523,1848.0,-1068.0,16248.0,555.0,-2062.0,1330.0,0.5214262379240988,0.1543383167941618,0.711649323225475,0.4448028812026623
-2998.113603115082,1768.0,-596.0,16876.0,764.0,-1986.0,807.0,0.5916768307979005,0.31027837063520236,0.6276832660144678,0.39957424613997283
-2998.1291999816895,1656.0,-652.0,16760.0,418.0,-1941.0,392.0,0.6628444052863866,0.4145848005916728,0.523193653472928,0.3391535617748239
-2998.1447970867157,1612.0,-980.0,16640.0,343.0,-1922.0,46.0,0.7264525516592124,0.4863477832376188,0.41439854466144177,0.25299480253584744
-2998.1604182720184,1328.0,-1604.0,16324.0,321.0,-2075.0,-195.0,0.7791928807375592,0.5363672243863914,0.29317111731608086,0.13863387458908777
-2998.1760654449463,1260.0,-2296.0,16048.0,349.0,-2064.0,-200.0,0.8047467375487543,0.5703158923962619,0.16357025121987565,0.019163616588694088
-2998.191634654999,1636.0,-2272.0,15748.0,389.0,-2171.0,-249.0,0.8019838776415709,0.5866719559343263,0.02362345240226822,-0.10990818267890616
-2998.207222700119,1664.0,-2212.0,15840.0,357.0,-2263.0,-335.0,0.7696960325924537,0.5774409656858374,-0.11868612803819759,-0.2450378574231839
-2998.2228066921234,1600.0,-1964.0,15668.0,263.0,-2338.0,-409.0,0.7083466519838619,0.5376382798776131,-0.25527571239830327,-0.37950548255991473
-2998.2384312152863,1660.0,-1688.0,15880.0,52.0,-2290.0,-274.0,0.6331881988352204,0.46169295977740554,-0.3780955546127393,-0.4929057387877254
-2998.2540097236633,1712.0,-1556.0,16268.0,9.0,-2199.0,-579.0,0.5251828162743981,0.37916721794113245,-0.4674907608997529,-0.6015543357023068
-2998.26957988739,1984.0,-1644.0,16600.0,-104.0,-1900.0,-705.0,0.4078026059717733,0.29864775424052964,-0.5176415483591957,-0.6903287483960183
-2998.28516125679,1944.0,-1648.0,17224.0,-200.0,-2045.0,-744.0,0.27095818361353197,0.19825476405319248,-0.5489748143637487,-0.7654432470519001
-2998.3007521629333,2060.0,-1528.0,17164.0,-361.0,-1751.0,-780.0,0.13922461851911233,0.10847026161703502,-0.5447931090913195,-0.8197872749863546
-2998.316371202469,2544.0,-1728.0,17288.0,-404.0,-1460.0,-817.0,0.015020918540309385,0.03746134064524256,-0.5199006758917386,-0.8532727038705622
-2998.332005262375,2836.0,-2172.0,17172.0,-251.0,-1311.0,-934.0,-0.11207182896450926,-0.017986302490115163,-0.49472106078415196,-0.8616074918963317
-2998.347583770752,2740.0,-2380.0,17308.0,-65.0,-1139.0,-984.0,-0.23335260667499733,-0.060024938201828644,-0.47595196816822044,-0.8458210754933031
-2998.3631999492645,2452.0,-2608.0,16500.0,178.0,-832.0,-966.0,-0.33620450515775757,-0.08441502977059584,-0.4740352053377739,-0.809401789941702
-2998.3788056373596,2580.0,-2776.0,16484.0,1.0,-716.0,-739.0,-0.4163856626740289,-0.10402331531805604,-0.4565111828129384,-0.7793584988671658
-2998.394429922104,2588.0,-2892.0,16148.0,281.0,-707.0,-442.0,-0.47072772995458084,-0.1442735741477822,-0.4524194473096917,-0.7435840125704862
-2998.4100461006165,2544.0,-2848.0,16056.0,139.0,-758.0,-116.0,-0.5053167500110247,-0.19411662672198954,-0.43057295071236823,-0.7222054081099198
-2998.4256258010864,2604.0,-2696.0,15968.0,147.0,-611.0,166.0,-0.5145445791014932,-0.24490790891507386,-0.40923318273589815,-0.7125953932042782
-2998.441205263138,2672.0,-2524.0,16372.0,272.0,-477.0,296.0,-0.5066551851964185,-0.2968574139815403,-0.39763362386235335,-0.7050274464528794
-2998.4567790031433,2344.0,-2572.0,16196.0,363.0,-304.0,334.0,-0.48667403977422896,-0.34268995090450693,-0.3972049742009877,-0.6985271541099113
-2998.4723625183105,2684.0,-2440.0,16292.0,343.0,-300.0,315.0,-0.46710913163325596,-0.38593862540555524,-0.3953418061902425,-0.6903370863883331
-2998.487978696823,2556.0,-2248.0,16148.0,11.0,-237.0,192.0,-0.4632261123592185,-0.4070595840780106,-0.3796029075595419,-0.6896562161041859
-2998.5035529136658,2532.0,-2312.0,16096.0,191.0,-367.0,131.0,-0.4604276752638118,-0.4408071529376889,-0.37121150149499854,-0.6752017705308242
-2998.5191094875336,2560.0,-2100.0,16204.0,367.0,-259.0,127.0,-0.44688849842850076,-0.4744498015979037,-0.37711547219826025,-0.658006061039496
-2998.5346841812134,2556.0,-2448.0,16316.0,453.0,-678.0,184.0,-0.4387573226200522,-0.5356099367594626,-0.36798347040245555,-0.6206465765654179
-2998.550356864929,2464.0,-2352.0,16612.0,446.0,-589.0,222.0,-0.4238849473859234,-0.5903132010051991,-0.3583118055298408,-0.5860584664660805
-2998.566007375717,2172.0,-2072.0,16156.0,524.0,-387.0,243.0,-0.3958765697913008,-0.6358538661087612,-0.3575507263306117,-0.5577894589764734
-2998.581586122513,2248.0,-2044.0,16592.0,498.0,-292.0,487.0,-0.35291510733844467,-0.6809338452466256,-0.34387274010256613,-0.5417855332364382
-2998.597162246704,1984.0,-2036.0,16512.0,476.0,-6.0,253.0,-0.3125298160192621,-0.7026355648756775,-0.3507260436928529,-0.5344339242098717
-2998.612753868103,2080.0,-2196.0,16552.0,480.0,-220.0,479.0,-0.26699424610861533,-0.7391738081917257,-0.33704267466375293,-0.5183998353430851
-2998.628335952759,2256.0,-2104.0,16892.0,434.0,-218.0,446.0,-0.22487549221199646,-0.7709499946450559,-0.32225345696458535,-0.5012183438717849
-2998.643953561783,2320.0,-2152.0,16424.0,313.0,-194.0,448.0,-0.18944321661537827,-0.7971188954018439,-0.3015719964986697,-0.4876136433689786
-2998.6595344543457,2412.0,-2164.0,16372.0,203.0,247.0,292.0,-0.15628754907746267,-0.7970354959689406,-0.29374060862179796,-0.5040090029110593
-2998.6751313209534,2260.0,-2280.0,16252.0,215.0,43.0,293.0,-0.1272775824238627,-0.8051343592951886,-0.28322774696919745,-0.5053128969672306
-2998.6907200813293,2392.0,-2048.0,15980.0,154.0,253.0,214.0,-0.10071134894181405,-0.800522616600356,-0.2776222080917871,-0.5214850660180791
-2998.7063131332397,2432.0,-2132.0,16240.0,157.0,-39.0,138.0,-0.08438780248114978,-0.8068365219505068,-0.27470747404936013,-0.5161679274622087
-2998.7219393253326,2564.0,-2212.0,16376.0,212.0,-31.0,156.0,-0.06314987299033895,-0.8132724186218047,-0.2729437832643037,-0.5100017233575913
-2998.7375292778015,2456.0,-2328.0,16464.0,252.0,-17.0,122.0,-0.040213816508114904,-0.8180357994907931,-0.27529927762231604,-0.5033990340216612
-2998.753158092499,2356.0,-2056.0,16436.0,246.0,41.0,84.0,-0.017956660331717222,-0.8188566123090514,-0.28015653110595934,-0.5006632849592138
-2998.7687561511993,2524.0,-2176.0,16136.0,255.0,247.0,-46.0,0.004312913371040645,-0.806897966509305,-0.29480715859101453,-0.5118454939382535
-2998.784344434738,2436.0,-2148.0,16344.0,177.0,45.0,-107.0,0.013172171427701843,-0.8018853913429361,-0.3101559641640443,-0.5104993544992366
-2998.7999560832977,2400.0,-2280.0,16172.0,58.0,99.0,-342.0,0.004688699339665689,-0.7877129192377887,-0.33637213548082406,-0.5160815433983791
-2998.815570116043,2476.0,-2144.0,16028.0,57.0,64.0,-233.0,8.402088535171016e-06,-0.7777382566836182,-0.35482229446632,-0.5188683295112426
-2998.8311603069305,2352.0,-2420.0,15808.0,154.0,-89.0,-155.0,0.0007049959778880223,-0.7767623188272057,-0.37221065816652255,-0.5080344761707593
-2998.846772670746,2560.0,-2332.0,16156.0,103.0,-20.0,-148.0,0.0004940976783741907,-0.772697545842123,-0.3867356204776944,-0.5033625118846029
-2998.862349510193,2596.0,-2480.0,16584.0,149.0,91.0,-162.0,0.006515607646373748,-0.7630200069965976,-0.4040871845086824,-0.5044517450616626
-2998.8779990673065,2656.0,-2424.0,16428.0,234.0,91.0,-139.0,0.019204621131541835,-0.7537021738146027,-0.4234327213987034,-0.5022638212764526
-2998.89359664917,2580.0,-2340.0,16328.0,280.0,101.0,-149.0,0.03483412791920648,-0.7429465300927043,-0.4451223128372181,-0.4986814249295483
-2998.909171104431,2536.0,-2280.0,16212.0,207.0,79.0,-115.0,0.04633536296638493,-0.734199590089918,-0.4612084763308343,-0.49607533441117574
-2998.9248859882355,2440.0,-2392.0,16084.0,211.0,110.0,-135.0,0.05845055963705251,-0.7229068490629411,-0.4783825043688635,-0.4951155412323269
-2998.940554380417,2484.0,-2380.0,16076.0,165.0,63.0,-34.0,0.07004377381427346,-0.7178000277639162,-0.48724289814718247,-0.4923934890888692
-2998.956157684326,2536.0,-2384.0,16144.0,189.0,141.0,-37.0,0.08630448705437137,-0.7088225583741543,-0.4966794661495437,-0.4933879043507296
-2998.971782684326,2372.0,-2336.0,16284.0,169.0,125.0,253.0,0.11306278630307547,-0.7128070343873203,-0.4871247722954501,-0.4917645720234884
-2998.9874641895294,2456.0,-2312.0,16508.0,187.0,171.0,-47.0,0.12995503985448484,-0.7014088277583016,-0.49622696927003457,-0.49486982018326875
-2999.0030806064606,2396.0,-2180.0,16304.0,180.0,122.0,-83.0,0.14268359004478354,-0.6903223545481966,-0.5075582931814043,-0.49546041109834993
-2999.0187163352966,2392.0,-2236.0,16248.0,216.0,103.0,-58.0,0.1577584983847495,-0.6804141839796141,-0.5189537600452041,-0.4927837145865208
-2999.0342860221863,2452.0,-2152.0,16180.0,228.0,46.0,-65.0,0.17059285667575874,-0.6721659378627372,-0.5318310162464629,-0.48605225993360596
-2999.0498650074005,2420.0,-2248.0,16040.0,193.0,44.0,-64.0,0.18125933882049175,-0.6643097684148878,-0.5429901784819066,-0.4806238131336227
-2999.065410375595,2336.0,-2236.0,16176.0,172.0,80.0,-75.0,0.19189432838578493,-0.6545392244567572,-0.5531618584136367,-0.4782958590425881
-2999.080997467041,2376.0,-2376.0,16176.0,146.0,94.0,-45.0,0.20291977329696334,-0.6458834782686833,-0.5601438799108339,-0.4773855170646611
-2999.0965819358826,2404.0,-2556.0,16268.0,167.0,55.0,-100.0,0.21087530598365956,-0.6356120222148738,-0.5716352814384276,-0.47409077986924236
-2999.112262248993,2380.0,-2280.0,16236.0,136.0,-21.0,-91.0,0.21363591221832828,-0.6293393031809383,-0.5825964388199747,-0.46783878415182434
-2999.1279237270355,2428.0,-2264.0,16244.0,114.0,35.0,-26.0,0.220655569573893,-0.6243948895119282,-0.5879517816001169,-0.464494180889983
-2999.1435236930847,2548.0,-2260.0,16224.0,143.0,117.0,-29.0,0.23330033440301917,-0.6152944912558398,-0.5929545225215352,-0.46409974921229463
-2999.1591053009033,2504.0,-2436.0,16220.0,93.0,202.0,-20.0,0.24794858383696727,-0.6040351558005923,-0.5935243243956035,-0.4705230139758724
-2999.174694776535,2308.0,-2552.0,16296.0,122.0,136.0,-5.0,0.2612458667487989,-0.5954414336971363,-0.595732042910527,-0.4714906459231378
-2999.1902759075165,2508.0,-2056.0,16324.0,138.0,76.0,-18.0,0.271661702102021,-0.5881396471497378,-0.6005084296474694,-0.46870171856303783
-2999.205868959427,2528.0,-2340.0,16380.0,200.0,58.0,-254.0,0.27452540076668325,-0.5674427253697513,-0.6200523778570798,-0.46709699899766227
-2999.2215161323547,2800.0,-2364.0,16244.0,212.0,39.0,7.0,0.2874339035263715,-0.5610204085134944,-0.6272528379824517,-0.45737482394410894
-2999.237139225006,2360.0,-2224.0,16192.0,186.0,34.0,-19.0,0.29766692475260886,-0.5538486831234327,-0.6346190596362021,-0.44933805453937087
-2999.2527170181274,2400.0,-2200.0,15928.0,194.0,52.0,6.0,0.310178226536638,-0.5469860868787074,-0.6404382210622157,-0.4409473591556815
-2999.2682950496674,2376.0,-2172.0,16116.0,159.0,59.0,-20.0,0.3203282124918049,-0.5392018164331936,-0.6457933293891082,-0.4354333624717799
-2999.283895969391,2336.0,-2256.0,16212.0,95.0,7.0,-25.0,0.3242987467600457,-0.5348209129537624,-0.6503101007189604,-0.4311539015480009
-2999.2994871139526,2376.0,-2236.0,16248.0,109.0,248.0,-7.0,0.34317301204353745,-0.5218278057071251,-0.6474848302267854,-0.43668228681965554
-2999.315081834793,2388.0,-2368.0,16300.0,119.0,-65.0,16.0,0.34557576149327496,-0.5215783414048654,-0.6531384307123125,-0.426548493342024
-2999.3306868076324,2432.0,-2344.0,16244.0,161.0,-114.0,47.0,0.3481731495497751,-0.5235353942562614,-0.6602756797478342,-0.41075804998449655
-2999.346279859543,2524.0,-2316.0,16224.0,157.0,-165.0,109.0,0.3497333440669454,-0.530806296394397,-0.6657258301329898,-0.39082014130486786
-2999.361864566803,2508.0,-2248.0,16252.0,121.0,-95.0,174.0,0.3557538770622542,-0.5403272717430619,-0.6645064968221025,-0.3740544533180843
-2999.3774449825287,2496.0,-2268.0,16204.0,137.0,-10.0,189.0,0.36780277159199615,-0.5472218320094454,-0.6601911213682717,-0.3597458422942177
-2999.3930406570435,2540.0,-2072.0,16284.0,146.0,0.0,170.0,0.38011618023886073,-0.5521974278346392,-0.6564831241971225,-0.3458606624896968
-2999.4087040424347,2528.0,-2284.0,16280.0,120.0,243.0,89.0,0.4024632064862029,-0.5457806048717043,-0.6475040781069403,-0.3476857310928964
-2999.4243109226227,2448.0,-2328.0,16256.0,105.0,-244.0,173.0,0.39885162354299525,-0.5590322790735163,-0.650723396726335,-0.3239743111790312
-2999.439906835556,2384.0,-2520.0,16176.0,141.0,36.0,194.0,0.41324977550821307,-0.5639695719871708,-0.643799251456294,-0.31094287053948416
-2999.4554817676544,2400.0,-2536.0,16168.0,158.0,247.0,164.0,0.43925190342714415,-0.5605097862190277,-0.6307840509771838,-0.3082174977530386
-2999.471086025238,2432.0,-2200.0,16212.0,193.0,2.0,96.0,0.4513913127704883,-0.5582084222991502,-0.6310416245460048,-0.2939995036049687
-2999.486666917801,2468.0,-2152.0,16268.0,151.0,-4.0,99.0,0.46109691568976524,-0.557710210950848,-0.6301223558938092,-0.28159327326017886
-2999.502241373062,2476.0,-2204.0,16208.0,198.0,45.0,88.0,0.4753719611339399,-0.5533357744591174,-0.6287260674609799,-0.2693409574618237
-2999.5178167819977,2436.0,-2348.0,16136.0,147.0,68.0,103.0,0.48864564303446584,-0.5511760398112129,-0.6242455080324533,-0.2602843721447103
-2999.5333971977234,2784.0,-2308.0,16372.0,201.0,178.0,91.0,0.5100172049180147,-0.5433108707873225,-0.6165982365241746,-0.25397315426480643
-2999.548980951309,2480.0,-2108.0,16436.0,242.0,161.0,111.0,0.5325156384988478,-0.5347026363707142,-0.6092497943350926,-0.24358750689438008
-2999.5645592212677,2408.0,-2284.0,16288.0,248.0,135.0,118.0,0.5536764536981922,-0.5263475091044368,-0.6024646525299956,-0.23116450145223438
-2999.5801298618317,2328.0,-2252.0,16128.0,230.0,150.0,129.0,0.5746304429729183,-0.5187598885400282,-0.5936573190935843,-0.21967935619284684
-2999.5957419872284,2336.0,-2096.0,16148.0,216.0,107.0,149.0,0.5927308604561157,-0.5133876154373933,-0.5854398328321196,-0.20582391870713102
-2999.6113724708557,2312.0,-2164.0,16016.0,128.0,112.0,157.0,0.6069882927890897,-0.5126188867537623,-0.574722678036124,-0.1961655747354905
-2999.626979827881,2452.0,-2208.0,16156.0,176.0,64.0,99.0,0.6197664213283812,-0.507022097139,-0.5697474789271342,-0.18494860438174845
-2999.642620563507,2408.0,-2180.0,16248.0,171.0,60.0,89.0,0.6317610818388537,-0.501093376193483,-0.5651629655707503,-0.17428191574599022
-2999.65820813179,2436.0,-2236.0,16204.0,184.0,43.0,85.0,0.6432237936368796,-0.49434546531443246,-0.5617063145676967,-0.16239374494485212
-2999.673807859421,2368.0,-2536.0,16360.0,235.0,25.0,130.0,0.6563577845278419,-0.48697586727737413,-0.5577914316787811,-0.14462946492636958
-2999.6893904209137,2304.0,-2228.0,16216.0,235.0,-30.0,141.0,0.6665810815899895,-0.48055453872499965,-0.5562434471869279,-0.12381528354256578
-2999.7049736976624,2376.0,-2204.0,16220.0,178.0,-101.0,94.0,0.6701393106895525,-0.4756980022047436,-0.5599131054012836,-0.10546103245672464
-2999.7205879688263,2360.0,-2172.0,16360.0,173.0,-52.0,153.0,0.6761545364249408,-0.4733703598001329,-0.5579949321831605,-0.08589063390484437
-2999.736167907715,2308.0,-2120.0,16296.0,132.0,-70.0,94.0,0.6789331220937834,-0.4705628652340773,-0.5590851610445061,-0.07102244917293445
-2999.7518084049225,2388.0,-2156.0,16204.0,144.0,-103.0,121.0,0.6805625394601382,-0.46842604171196917,-0.5609329305507045,-0.052592021765881264
-2999.767415046692,2344.0,-2196.0,16252.0,150.0,-96.0,104.0,0.6824725426984056,-0.4649084680448267,-0.5628998915662464,-0.03514337601445701
-2999.782988548279,2400.0,-2208.0,16292.0,159.0,-59.0,76.0,0.6862792229948987,-0.45922645150444474,-0.5636624474181691,-0.02040930412125174
-2999.7986171245575,2396.0,-2060.0,16260.0,211.0,-22.0,154.0,0.6938574813357767,-0.454017901849828,-0.5589539643921405,7.800360173382259e-05
-2999.814178943634,2436.0,-2288.0,16216.0,249.0,-78.0,236.0,0.6996993583091313,-0.45017133414611465,-0.553976895742425,0.029600285108142697
-2999.829779148102,2424.0,-2288.0,16284.0,243.0,-133.0,233.0,0.7019758024611942,-0.445961260229481,-0.5519545729524605,0.060783850901061885
-2999.845379114151,2432.0,-2328.0,16324.0,323.0,-54.0,299.0,0.7099400900930372,-0.43988769854283366,-0.5414162914754711,0.09670718936215093
-2999.8609657287598,2444.0,-2308.0,16468.0,550.0,18.0,584.0,0.7253109839559104,-0.43241928615826086,-0.511886759738394,0.15782738265528248
-2999.876558303833,2220.0,-2612.0,16724.0,771.0,461.0,966.0,0.7568052083908279,-0.43018887859849053,-0.43265384921303063,0.234508106563157
-2999.8921341896057,1884.0,-2652.0,16976.0,779.0,271.0,1366.0,0.7610835929380841,-0.4315829998370282,-0.34408060936864177,0.34072923717907233
-2999.9077575206757,1928.0,-2648.0,17224.0,1155.0,627.0,1792.0,0.756127443761265,-0.41935338988795456,-0.19679739721683528,0.4622605408524673
-2999.9234566688538,2080.0,-2472.0,17264.0,1326.0,770.0,2254.0,0.7072855231655533,-0.39051548438623584,-0.009646271082950126,0.5891958881638664
-2999.9391090869904,2372.0,-2108.0,17128.0,1510.0,1170.0,2315.0,0.6198612687524464,-0.3474636956198574,0.21194514788677657,0.670910010369536
-2999.9546999931335,2716.0,-1784.0,17044.0,1576.0,1576.0,2724.0,0.45795415512016246,-0.2905322464104425,0.45118204366110093,0.7087339198046559
-2999.9703035354614,2544.0,-1720.0,16816.0,1422.0,1956.0,2657.0,0.2410987162124889,-0.23852427490892683,0.6532414086399564,0.6769440459579699
-2999.9859976768494,2324.0,-1388.0,16256.0,1040.0,2144.0,2541.0,-0.00921316474599052,-0.18981646669511748,0.7774994086264475,0.5994826904525842
-3000.0016026496887,2160.0,-1280.0,15464.0,764.0,2021.0,2457.0,-0.2522263215786532,-0.1244352591231282,0.8235793836696241,0.4925593850331385
-3000.017232656479,1960.0,-776.0,15132.0,-62.0,1716.0,2093.0,-0.4538086908029848,-0.04512053162461786,0.7842029975202893,0.42077008978512986
-3000.0328600406647,2008.0,-728.0,15132.0,-527.0,1596.0,1860.0,-0.6188811265715943,0.043447401100441,0.6924717059807728,0.3682138114291338
-3000.0484957695007,2164.0,-948.0,15388.0,-791.0,1238.0,1691.0,-0.7313011492681889,0.14584503499654974,0.5825934706937403,0.32328424451386906
-3000.0640811920166,2500.0,-1456.0,15928.0,-1058.0,957.0,1397.0,-0.7940442276159455,0.25357439198111814,0.4666660400239724,0.295662982819201
-3000.0797040462494,2396.0,-1816.0,16784.0,-1152.0,989.0,1182.0,-0.8278364175087115,0.3510525199680218,0.337327256462728,0.27867421143294335
-3000.095305919647,2356.0,-1800.0,17040.0,-1102.0,733.0,857.0,-0.8287872271564053,0.43385813195382256,0.22899257594348685,0.2691491289280031
-3000.1108927726746,2308.0,-1708.0,16788.0,-1053.0,561.0,550.0,-0.8078593100963017,0.5043708586667458,0.14182624265136223,0.2699234871475501
-3000.1265239715576,2408.0,-1688.0,16576.0,-1101.0,427.0,293.0,-0.767374879884515,0.5721869471266009,0.07243301999679234,0.28016307550123526
-3000.1421587467194,2088.0,-1560.0,16088.0,-1135.0,241.0,-67.0,-0.7070566660636439,0.6384678913347673,0.03170972416308447,0.30236421101545996
-3000.157788515091,1880.0,-1384.0,15736.0,-1052.0,107.0,-465.0,-0.6333467465289535,0.6956313883747572,0.02314116498272315,0.3382799974166956
-3000.1733825206757,1680.0,-1428.0,15384.0,-922.0,110.0,-788.0,-0.5513074856177628,0.7375024079405802,0.03747447342652281,0.3882601169642214
-3000.188981771469,1524.0,-1412.0,15064.0,-700.0,6.0,-1349.0,-0.456630185621395,0.759822959494291,0.0994341108164134,0.45196327440496353
-3000.204556465149,1332.0,-1792.0,14940.0,-304.0,-48.0,-1711.0,-0.36445183037509715,0.7503085723373171,0.20052908981326786,0.5138092970665683
-3000.220163345337,1464.0,-1680.0,15144.0,41.0,-203.0,-1991.0,-0.27025497422102396,0.7123867554673201,0.3341411344505698,0.5548126366726199
-3000.23584485054,1700.0,-1828.0,15420.0,237.0,-322.0,-1976.0,-0.1772326521061268,0.6546306827946082,0.46885200454586756,0.5658843115024619
-3000.2514345645905,1916.0,-2852.0,15668.0,286.0,-447.0,-1825.0,-0.08402983542081162,0.5894935659972597,0.5861256283986289,0.5494479685477945
-3000.267017841339,2108.0,-3128.0,16188.0,309.0,-477.0,-1589.0,0.0006476949454487012,0.5231322708085859,0.6788425132236726,0.5152718214399832
-3000.2826290130615,2060.0,-3256.0,17328.0,171.0,-244.0,-1452.0,0.07199082830336691,0.44435192421847514,0.7465648043852359,0.48990782902171315
-3000.2982363700867,1852.0,-3164.0,17832.0,15.0,-75.0,-1748.0,0.14931680316601817,0.3298965618402505,0.8051648665705851,0.4696618873387898
-3000.3138105869293,2228.0,-2892.0,17316.0,36.0,125.0,-1971.0,0.21710830247579319,0.18398362655049555,0.8524154198341416,0.438636480683483
-3000.32941532135,2688.0,-2844.0,16868.0,62.0,41.0,-2233.0,0.29306307080623717,0.017104043550281563,0.8749104514281542,0.385166444807478
-3000.3450100421906,3044.0,-3108.0,16512.0,-43.0,-116.0,-2203.0,0.36930378303266626,-0.1456711607076702,0.8579825597830061,0.32597631184495884
-3000.3606588840485,3376.0,-3684.0,16596.0,-634.0,-128.0,-1917.0,0.41894262274844046,-0.3013788399639035,0.7990351193889064,0.3085461904639653
-3000.3762576580048,3312.0,-4164.0,16828.0,-1324.0,-283.0,-1112.0,0.4288736393396678,-0.4149085988390997,0.7154059665650533,0.36347291383546804
-3000.391917705536,3056.0,-4940.0,16776.0,-1931.0,-294.0,-157.0,0.37687138019530836,-0.4806827274413398,0.6282657138053688,0.48186540774978737
-3000.407519340515,2620.0,-5128.0,16724.0,-2301.0,-168.0,617.0,0.25809793500728107,-0.5046023935451684,0.5401640095425023,0.6220809619080397
-3000.4231584072113,2296.0,-4748.0,16164.0,-2169.0,121.0,955.0,0.10285893073330153,-0.504259772857453,0.4573886251157426,0.7252156696189639
-3000.4387817382812,1616.0,-3956.0,15452.0,-1828.0,285.0,1034.0,-0.053506783610369694,-0.48906111791860674,0.3831522962429982,0.7817611943116601
-3000.4543788433075,1600.0,-3164.0,14748.0,-1429.0,386.0,834.0,-0.18233748996532906,-0.47553375603793197,0.3158911897384812,0.8005207323156641
-3000.4699907302856,1860.0,-2444.0,14432.0,-1100.0,321.0,760.0,-0.2879083393230597,-0.4560991978816524,0.2634841981921082,0.799786463465726
-3000.4855830669403,2072.0,-2044.0,14512.0,-972.0,207.0,94.0,-0.33668761344186693,-0.4421326885804464,0.19334958519577347,0.8085642055817636
-3000.5011460781097,2136.0,-2192.0,14816.0,-1077.0,-43.0,-345.0,-0.3515008663747975,-0.41108897835754193,0.10469972205599767,0.8345603399467986
-3000.5167536735535,2028.0,-2668.0,15036.0,-1146.0,-280.0,-568.0,-0.3464572883030511,-0.35818096503312286,0.009300834724832174,0.8669413118216588
-3000.532352209091,2076.0,-3160.0,15296.0,-1096.0,-760.0,-648.0,-0.3283426740244898,-0.26559398502660164,-0.07036683316473402,0.9037142426245719
-3000.547981739044,2120.0,-3680.0,15384.0,-1039.0,-1142.0,-590.0,-0.3096885418549701,-0.14038283292741585,-0.131917871269483,0.9311194029246431
-3000.563545703888,2076.0,-4304.0,15756.0,-1009.0,-1602.0,-399.0,-0.3037348237386334,0.021666481815499322,-0.17301831145515742,0.9366644993354911
-3000.579144716263,2136.0,-4528.0,15892.0,-1069.0,-1885.0,-75.0,-0.3183451411166808,0.2018896445510691,-0.2064327737832239,0.9029299266602077
-3000.5947711467743,2188.0,-4344.0,15960.0,-1135.0,-1677.0,100.0,-0.33133277662531524,0.35805336006557525,-0.2470173061190604,0.8372567306132526
-3000.6103723049164,2072.0,-3712.0,15864.0,-1071.0,-1472.0,133.0,-0.335146459364548,0.487419588919569,-0.2831923483197302,0.7549179352525957
-3000.6260018348694,2544.0,-3240.0,15500.0,-1029.0,-1368.0,97.0,-0.327977084773905,0.598476571955404,-0.311557977437796,0.6612022772031177
-3000.6415910720825,2636.0,-3024.0,15156.0,-1000.0,-1489.0,106.0,-0.3185120132802197,0.7014944010105191,-0.32811900605778904,0.5466201794763187
-3000.657168865204,2408.0,-3320.0,14968.0,-960.0,-1603.0,-85.0,-0.29770297698448867,0.7964978539647474,-0.3198843544093411,0.4178972432647098
-3000.6727545261383,2612.0,-3816.0,15272.0,-1018.0,-1605.0,-106.0,-0.2643102636737997,0.8724599435146423,-0.30375812367965555,0.27692008554405867
-3000.6883413791656,2516.0,-3996.0,15516.0,-756.0,-1422.0,-316.0,-0.234463877117509,0.9232080485455619,-0.2624676875047259,0.15435123078110738
-3000.703960418701,2668.0,-3848.0,16144.0,-146.0,-1268.0,-257.0,-0.2467507168814619,0.9430833800877378,-0.2163706502807477,0.0537732611793104
-3000.719574213028,2568.0,-4104.0,16164.0,230.0,-1180.0,-746.0,-0.28238167927585095,0.9505213074926889,-0.12748269540129045,-0.02275947242273928
-3000.7351694107056,2568.0,-4004.0,15836.0,452.0,-1191.0,-848.0,-0.3319383168476709,0.9380962301697996,-0.028398827244867593,-0.0947941103690622
-3000.750802755356,2572.0,-3888.0,16424.0,492.0,-1160.0,-846.0,-0.37886313892414103,0.9083715362641784,0.06981935999525211,-0.16263188813838753
-3000.7664320468903,2644.0,-3700.0,15912.0,478.0,-1166.0,-516.0,-0.41414592421714325,0.8667222783522485,0.1415219475559181,-0.23926383768174328
-3000.7820208072662,2928.0,-3620.0,16096.0,534.0,-795.0,-553.0,-0.45424611514742197,0.8201150734323457,0.2000232436376346,-0.2847146557647022
-3000.797607898712,3056.0,-3588.0,16352.0,472.0,-498.0,-601.0,-0.4928055755474549,0.776006688663188,0.2502722257029182,-0.30384222369684427
-3000.813193798065,2684.0,-3852.0,16180.0,395.0,68.0,-485.0,-0.5332016343080181,0.7490177733557737,0.26930979604292216,-0.28660185994465776
-3000.8288054466248,2336.0,-4232.0,16180.0,273.0,104.0,-388.0,-0.5627965834607052,0.7290543011251754,0.2827393507500843,-0.2679520315154568
-3000.844409942627,2168.0,-4516.0,16004.0,264.0,-207.0,-168.0,-0.5782108809906814,0.7066298821069896,0.2972460189704405,-0.2792690298326447
-3000.8600659370422,2092.0,-4812.0,15836.0,281.0,-706.0,-43.0,-0.5771056254893709,0.6725443035561055,0.32793435634513934,-0.3272496214073501
-3000.8756573200226,2392.0,-4744.0,15616.0,493.0,-1093.0,37.0,-0.5706857011248495,0.6140861952507471,0.3647153855000392,-0.4052143419397418
-3000.891338825226,2908.0,-4204.0,15824.0,775.0,-1202.0,251.0,-0.5606958737239551,0.5365478296175191,0.38063978160802386,-0.5028418443000302
-3000.9069426059723,3192.0,-3412.0,16224.0,864.0,-1326.0,-45.0,-0.5539059772862278,0.43034340353410566,0.4058083564208818,-0.5859285803067243
-3000.9226932525635,3264.0,-3136.0,16224.0,1013.0,-1359.0,-39.0,-0.5400181324076214,0.30698988962183904,0.4165466482799903,-0.6637970428886091
-3000.9383029937744,3080.0,-3448.0,16308.0,731.0,-1091.0,95.0,-0.5111512200519895,0.2112363948303615,0.42017717521977804,-0.7194127863492296
-3000.9539382457733,3452.0,-3988.0,16456.0,888.0,-684.0,196.0,-0.4878062551574604,0.13505029922623205,0.389239290724034,-0.7696098028642897
-3000.969561100006,3588.0,-4192.0,16452.0,779.0,-371.0,327.0,-0.460996270849514,0.08765253676160828,0.34753017762536453,-0.8118018518713658
-3000.9851620197296,3268.0,-4456.0,16256.0,1148.0,-249.0,397.0,-0.43163364187692604,0.03552597337827113,0.2713584584844957,-0.8595317861629702
-3001.000766992569,3328.0,-4460.0,16180.0,1272.0,-186.0,527.0,-0.388838679665624,-0.013905975471005185,0.1797398519737483,-0.9034958166226056
-3001.016361951828,3496.0,-4612.0,16120.0,1475.0,-322.0,619.0,-0.3299115161596368,-0.07912641140381756,0.07422359542000802,-0.9377570369805445
-3001.032006263733,3592.0,-4472.0,15828.0,1625.0,-425.0,769.0,-0.24976017576501996,-0.1536573120995801,-0.040370128085015965,-0.9551856038480467
-3001.0475878715515,3968.0,-4772.0,15852.0,1812.0,-212.0,925.0,-0.14675115541877856,-0.21066473815865752,-0.17138718976707512,-0.951162918570495
-3001.0632693767548,4296.0,-4556.0,16240.0,1958.0,228.0,1164.0,-0.010466297600713534,-0.2296188925797579,-0.3090786161702408,-0.9228412809423232
-3001.078853368759,3844.0,-4184.0,15904.0,1939.0,551.0,1602.0,0.16815109439249032,-0.22458024865380383,-0.42288844484717053,-0.861657869797488
-3001.094452381134,3100.0,-3912.0,15488.0,2098.0,628.0,1792.0,0.35658500456888587,-0.2064720363161994,-0.52050849929645,-0.7478551563613152
-3001.110030412674,3036.0,-4180.0,15196.0,2310.0,548.0,2589.0,0.566191302182259,-0.2069160853891179,-0.5807403484749454,-0.5471323337124212
-3001.125622034073,3312.0,-3756.0,15500.0,2737.0,298.0,2905.0,0.7265156863746657,-0.19321997635644145,-0.6080733759572257,-0.2551230441186116
-3001.14120221138,2524.0,-3064.0,16344.0,2327.0,14.0,2519.0,0.7881573995998229,-0.17150528323401826,-0.5904912990716091,0.026718476745276595
-3001.156789779663,2248.0,-1956.0,17352.0,1801.0,597.0,2220.0,0.814755552914205,-0.15832258834261412,-0.4959688926415097,0.2551905259760198
-3001.1723761558533,988.0,-540.0,19276.0,1120.0,977.0,1291.0,0.8316666586374309,-0.15400533289896243,-0.37797466909935584,0.3764944566242153
-3001.1880156993866,656.0,464.0,21080.0,491.0,1571.0,380.0,0.868289272327652,-0.1804744313919172,-0.23988379475038804,0.39491579379740516
-3001.20360994339,2036.0,396.0,22004.0,208.0,2372.0,-550.0,0.919558896873956,-0.229591634551069,-0.06007615853889976,0.31319318590820383
-3001.219258785248,3092.0,-2152.0,19576.0,704.0,2224.0,-876.0,0.9472057314224721,-0.22377105074135858,0.11731774790489398,0.1973939341445207
-3001.2348535060883,3408.0,-5084.0,16936.0,1748.0,1996.0,-736.0,0.946731739092862,-0.1177321286500934,0.28955630548215405,0.07742936157071593
-3001.2504937648773,3708.0,-6260.0,15740.0,2435.0,1806.0,-41.0,0.8956799334996247,0.06784881860092622,0.43945333115590235,-0.0058961238578708495
-3001.266087770462,3508.0,-5812.0,15308.0,2739.0,1924.0,1050.0,0.771001119840471,0.30901153013795457,0.5565867348650119,-0.016743775525394293
-3001.2816956043243,2444.0,-3724.0,15712.0,2662.0,2532.0,2057.0,0.5437463512969823,0.5554360816478023,0.6265702185285766,0.05692473898057261
-3001.297334432602,1684.0,-804.0,16644.0,2424.0,3193.0,2110.0,0.22427180910764666,0.7160634966298302,0.6396449597018443,0.16676195597878635
-3001.3129148483276,1632.0,344.0,17592.0,2017.0,3431.0,1578.0,-0.10896599711887882,0.7434843236841463,0.5971876654216167,0.28057862387590227
-3001.3285727500916,1564.0,508.0,17344.0,1887.0,3490.0,854.0,-0.4093760265743023,0.6452556658316193,0.5229181483138773,0.3776413705387899
-3001.344145298004,1680.0,-936.0,16344.0,2285.0,3540.0,338.0,-0.6669123758089559,0.4336857716156433,0.42465811532489145,0.43221524681541384
-3001.3597593307495,1376.0,-2156.0,15416.0,2666.0,3497.0,510.0,-0.8551349367158124,0.15423786843233536,0.2819085983493698,0.4067953565691067
-3001.3753435611725,1268.0,-2976.0,15064.0,2878.0,3372.0,630.0,-0.9306946437528368,-0.15351707031050352,0.1151825098851194,0.31140484683065567
-3001.390922307968,520.0,-3004.0,15356.0,2816.0,3268.0,1210.0,-0.8929664819646591,-0.42716829796158856,-0.05370443536857127,0.13135425735773634
-3001.406576156616,452.0,-2288.0,15432.0,2719.0,3402.0,1650.0,-0.7362015409250608,-0.6351938535650613,-0.20951450959974297,-0.10314906591875919
-3001.4221744537354,460.0,-1168.0,16108.0,2763.0,3423.0,1832.0,-0.46536965324726376,-0.7528296355437928,-0.3257112094349742,-0.332552001545515
-3001.4377946853638,688.0,-724.0,16688.0,2744.0,3524.0,1621.0,-0.12733931351436142,-0.7463918568341508,-0.408255017769255,-0.5099134590806413
-3001.4533784389496,880.0,148.0,17308.0,2853.0,3989.0,1235.0,0.23388409166713633,-0.5896066436154013,-0.45657781914156204,-0.6238581028868301
-3001.4689631462097,680.0,692.0,17684.0,3105.0,4104.0,840.0,0.5488412776601684,-0.30591289746934935,-0.4537824779206284,-0.6318797463366551
-3001.484559774399,-220.0,580.0,17392.0,3194.0,3977.0,607.0,0.7529466348526423,0.038794475052633094,-0.3860292242781354,-0.5315522474533368
-3001.500140428543,-728.0,644.0,16200.0,2991.0,3662.0,420.0,0.8182947086790047,0.3613203087600904,-0.2635857914483729,-0.3610594615461433
-3001.5157771110535,-836.0,1120.0,15320.0,2889.0,3269.0,313.0,0.7589467771904677,0.6197298694704257,-0.12227160353541845,-0.1580643326220337
-3001.5313560962677,-776.0,1784.0,15332.0,3060.0,2997.0,-86.0,0.5847947024395982,0.8098488883687108,0.03628940100434765,0.029034692719068268
-3001.546928882599,-536.0,2384.0,16096.0,3246.0,2710.0,-622.0,0.32644173835084744,0.9056885770814141,0.2125261451043684,0.16732193655883015
-3001.5625550746918,-436.0,2068.0,16436.0,3118.0,2508.0,-1233.0,0.04834265071511105,0.878194405556575,0.4010706719587695,0.25608570882716525
-3001.5781643390656,-364.0,1752.0,16728.0,2915.0,2123.0,-1371.0,-0.20734801379715223,0.7534433476948694,0.5499454523832414,0.29477096599176106
-3001.59375333786,-520.0,332.0,16428.0,2683.0,1968.0,-1357.0,-0.4230732349531505,0.5620649164010543,0.6417621269872742,0.3053415136893805
-3001.6093785762787,-1272.0,-676.0,16012.0,2280.0,1859.0,-1026.0,-0.5903505961335219,0.3577989893937271,0.6601894511300348,0.2959999078551316
-3001.6249673366547,-1428.0,-1248.0,15524.0,1963.0,2037.0,-702.0,-0.727799547648288,0.15846307906085205,0.608388688817746,0.27397166703169373
-3001.6405580043793,-1620.0,-1272.0,15260.0,1880.0,1623.0,-515.0,-0.8081931578368023,-0.02652005177586828,0.5440482048025509,0.2239018921999198
-3001.6561312675476,-1540.0,-408.0,15316.0,2037.0,1279.0,-341.0,-0.8389916651990579,-0.20680756296142172,0.48195463008686873,0.1450632695285032
-3001.671756505966,-1392.0,584.0,15176.0,2130.0,1135.0,-284.0,-0.8264102406574905,-0.3805942530810321,0.41135786419955467,0.05457871580846071
-3001.687334060669,-1412.0,992.0,15588.0,2022.0,898.0,-85.0,-0.7768183086972564,-0.5240002722746466,0.3468430576071325,-0.04095025419415119
-3001.7029044628143,-1180.0,1140.0,15852.0,1810.0,822.0,108.0,-0.7080367618229774,-0.6309737493919352,0.2852166131007381,-0.1385913240317011
-3001.718481063843,-1180.0,1012.0,16464.0,1473.0,853.0,302.0,-0.6373843517085519,-0.6962035818602608,0.2286681768669025,-0.23822809592988664
-3001.734132051468,-1416.0,984.0,16620.0,1230.0,862.0,364.0,-0.5672330499311171,-0.7327280180499172,0.17562184908220743,-0.33243538433119535
-3001.7497084140778,-1352.0,604.0,16420.0,1052.0,867.0,180.0,-0.5044815840839846,-0.7514254917363384,0.11284008443682006,-0.410030702549464
-3001.7653539180756,-1424.0,560.0,16620.0,1004.0,782.0,-283.0,-0.4536096560729316,-0.765416525703126,0.02373113715377365,-0.4558647334762157
-3001.7809340953827,-1700.0,860.0,16472.0,970.0,627.0,-743.0,-0.4167556843819725,-0.7747875184238457,-0.08871647898897725,-0.4670635793826479
-3001.7965259552,-1696.0,1076.0,16192.0,1042.0,468.0,-1170.0,-0.3865152809048439,-0.7766085873418109,-0.22507801791466248,-0.4436495526264094
-3001.8121058940887,-1548.0,1308.0,16056.0,1167.0,311.0,-1329.0,-0.3485743949972915,-0.7683819878946191,-0.3663810816002896,-0.39223706463921515
-3001.8277595043182,-1592.0,1244.0,16136.0,1179.0,227.0,-1325.0,-0.30398663752224736,-0.7450417924997024,-0.49650735400942997,-0.32555383433666274
-3001.8433413505554,-1568.0,1352.0,16360.0,1045.0,155.0,-1271.0,-0.2627641519674092,-0.7059407453106681,-0.6066873463464666,-0.25403371495561217
-3001.8589255809784,-2016.0,1328.0,16404.0,919.0,333.0,-1012.0,-0.20941825976613085,-0.661053967901295,-0.6918609353457124,-0.20119664545174465
-3001.874495983124,-1544.0,1508.0,16480.0,690.0,438.0,-985.0,-0.15949998184380304,-0.602723752604062,-0.7640657376690474,-0.16579319153378502
-3001.8900735378265,-1780.0,1376.0,15948.0,627.0,525.0,-1123.0,-0.10700048025676628,-0.5250985311053757,-0.8334255584809248,-0.13499729007115993
-3001.9056503772736,-1952.0,1156.0,15916.0,544.0,758.0,-1330.0,-0.04219739726722803,-0.42027500254053546,-0.8988845854948884,-0.11659675751540982
-3001.9214239120483,-2044.0,788.0,15812.0,589.0,373.0,-1462.0,-0.006157316362606963,-0.30093210583981933,-0.9504368545692211,-0.0779213745168046
-3001.9370555877686,-1820.0,596.0,15760.0,667.0,245.0,-1372.0,0.022147913593341364,-0.18412298958764492,-0.9822535357771021,-0.028039010006614847
-3001.9527106285095,-1912.0,672.0,16464.0,584.0,374.0,-1135.0,0.060413309059232846,-0.0841907550866885,-0.9945217774969934,0.013732550042421661
-3001.968314409256,-2140.0,1020.0,16680.0,418.0,349.0,-933.0,0.09448287875501929,-0.0013980862306938637,-0.9946244352768583,0.04234694472151003
-3001.983941555023,-2088.0,1508.0,16684.0,511.0,483.0,-747.0,0.13869392086212126,0.0656277304572787,-0.984900595852606,0.0801736465436105
-3001.999537229538,-2156.0,1332.0,16724.0,148.0,556.0,-679.0,0.1898421608984068,0.12154045951970119,-0.9703160729903949,0.08760473241590241
-3002.0151360034943,-2200.0,1092.0,16896.0,205.0,525.0,-517.0,0.2355872516997553,0.1643484939468632,-0.9524361494282845,0.10175264436945292
-3002.030788898468,-2116.0,572.0,16384.0,284.0,749.0,-342.0,0.29599879311538657,0.19141677285445066,-0.9269174742007266,0.12871802346822964
-3002.046397924423,-2096.0,676.0,16316.0,329.0,449.0,-178.0,0.32844395614572924,0.20900089617754372,-0.9074484163788491,0.1580524111801045
-3002.0620024204254,-2156.0,840.0,16476.0,313.0,269.0,97.0,0.34251387817850865,0.20643446441727883,-0.8965530892623536,0.19042482319802553
-3002.077571630478,-2140.0,928.0,16260.0,352.0,267.0,346.0,0.35094135414685235,0.1852144447649536,-0.8878652919804932,0.23287550042109842
-3002.093150615692,-2228.0,1080.0,16408.0,259.0,56.0,480.0,0.34099386995585373,0.15462558188884656,-0.8876024351880758,0.2682834827682532
-3002.1087267398834,-2000.0,768.0,16444.0,274.0,-83.0,555.0,0.3174417566621781,0.12153630917166927,-0.8897972064930887,0.3045005550031961
-3002.124345064163,-1968.0,924.0,16448.0,204.0,-41.0,750.0,0.2915274786681394,0.06985704225918636,-0.891382399524746,0.33995461556758133
-3002.139963388443,-1900.0,1192.0,16480.0,196.0,-65.0,845.0,0.25948958896811497,0.010986672870703562,-0.8897795099755983,0.3752823868288721
-3002.155551671982,-1912.0,1128.0,16240.0,174.0,-7.0,811.0,0.23163649018237012,-0.04771321243512841,-0.8826705520829445,0.4061535205568248
-3002.1711523532867,-1908.0,1176.0,16192.0,228.0,166.0,788.0,0.21688721490132548,-0.10941523336974346,-0.8656035801628461,0.43785692266795817
-3002.186784505844,-2024.0,1216.0,16244.0,285.0,170.0,793.0,0.20160094566989342,-0.16995936497205744,-0.8415093393010618,0.47152190281299755
-3002.202378511429,-1736.0,1344.0,16260.0,219.0,222.0,855.0,0.18540265386193455,-0.23729792922953202,-0.8132938149851742,0.4978641574076097
-3002.2180020809174,-2036.0,1296.0,16452.0,89.0,287.0,834.0,0.170881987269361,-0.3066166915802195,-0.7851074746721444,0.5102860022430588
-3002.2336173057556,-2096.0,1864.0,16276.0,37.0,370.0,600.0,0.17019367079436182,-0.36296803717380066,-0.7603888267976412,0.5109766633546443
-3002.2492170333862,-2144.0,1908.0,16188.0,59.0,359.0,349.0,0.18016309399881153,-0.40086842929147964,-0.7405996464270673,0.5082892145917128
-3002.2648050785065,-1944.0,1568.0,15616.0,71.0,170.0,114.0,0.18856076777614808,-0.4145734488902849,-0.7306069033491359,0.5087113573623753
-3002.280415058136,-1732.0,1148.0,15972.0,160.0,-67.0,95.0,0.18584952115053877,-0.41494098943209723,-0.7210086075587179,0.522905841049291
-3002.2960419654846,-1612.0,896.0,16160.0,140.0,-247.0,196.0,0.1663708561338716,-0.41352061374038224,-0.7111498837444364,0.5436793936607629
-3002.3116343021393,-1568.0,956.0,16308.0,90.0,-304.0,382.0,0.13250909599131727,-0.4210798680210091,-0.6967937933851103,0.5653419263834598
-3002.3272948265076,-1696.0,928.0,16196.0,-129.0,-355.0,761.0,0.06843976537665704,-0.4500784566350238,-0.6773747812185782,0.5778484119189964
-3002.3428857326508,-1868.0,964.0,16148.0,-203.0,-530.0,614.0,-0.0018435074938903024,-0.4596112746708579,-0.6648295193158289,0.588859735354552
-3002.358463525772,-1712.0,1164.0,16164.0,-236.0,-665.0,525.0,-0.07667911214925582,-0.4544892629050576,-0.6538046870320848,0.6000827066987489
-3002.374051094055,-1864.0,1208.0,16236.0,-287.0,-756.0,856.0,-0.17515376063732055,-0.4593656062166387,-0.6264493933206386,0.6048682150419447
-3002.38965344429,-1748.0,1464.0,16208.0,-373.0,-760.0,931.0,-0.27918795170572897,-0.4616282430310049,-0.5935475904238434,0.5972057524509594
-3002.4053297042847,-1768.0,1384.0,16316.0,-491.0,-889.0,1064.0,-0.39729287462473073,-0.45466303280762455,-0.5500054804080259,0.5770042199947308
-3002.420926094055,-1820.0,1316.0,16164.0,-566.0,-911.0,1188.0,-0.5183617316478559,-0.4418316263558729,-0.4948696781502695,0.5396201726790884
-3002.436544895172,-2016.0,1416.0,16188.0,-594.0,-1001.0,1222.0,-0.63529206468459,-0.41601970722713405,-0.4257224377806,0.4920284562071422
-3002.452132463455,-1840.0,1024.0,16232.0,-620.0,-1068.0,1205.0,-0.7409708308331461,-0.3761965098364535,-0.345349935969971,0.4360869587213601
-3002.467756986618,-2048.0,1432.0,16284.0,-634.0,-1184.0,1085.0,-0.8294925938580056,-0.31908680763067915,-0.2542634848846383,0.38141280285944645
-3002.48335146904,-1812.0,1376.0,16444.0,-695.0,-1174.0,931.0,-0.8966957358469222,-0.24760485533098053,-0.1646153859686209,0.3279182331509991
-3002.4989397525787,-1632.0,1372.0,16484.0,-843.0,-1238.0,960.0,-0.9488517965460521,-0.15786885781882767,-0.07010850307087733,0.26427729701862207
-3002.5145676136017,-1648.0,1384.0,16220.0,-975.0,-1292.0,941.0,-0.9789230342856028,-0.05209912010035795,0.027093867129493073,0.19560495135299258
-3002.530159473419,-1804.0,1424.0,16140.0,-1186.0,-1260.0,929.0,-0.9828983973652972,0.07186921656696306,0.11668602523370518,0.12300377100699089
-3002.545756816864,-1876.0,1432.0,15908.0,-1203.0,-1031.0,875.0,-0.9623964226143441,0.1924784561969571,0.1841941388486855,0.05308190702056506
-3002.5613639354706,-1868.0,1456.0,15792.0,-1473.0,-1472.0,895.0,-0.9007965870685233,0.33082573922888336,0.28036473653556365,-0.022703600963435412
-3002.5769498348236,-2096.0,1472.0,15644.0,-1461.0,-1532.0,845.0,-0.803820791387341,0.454304676510824,0.3718987047153227,-0.0957640311645744
-3002.59254527092,-2116.0,1352.0,15548.0,-1395.0,-1562.0,710.0,-0.6794401033240959,0.5519003883990373,0.4564903026754831,-0.15932266267916648
-3002.6081414222717,-1888.0,1276.0,15808.0,-1349.0,-1729.0,540.0,-0.5279843128878569,0.6174411037524444,0.5413100554556038,-0.2167544061927047
-3002.623774290085,-1748.0,1164.0,15736.0,-1380.0,-1906.0,890.0,-0.3387066695728291,0.6710154639312572,0.5931308947161674,-0.28846452274968054
-3002.639418363571,-1756.0,1068.0,16028.0,-1311.0,-1876.0,1174.0,-0.1319759594773046,0.7057348077786515,0.5979339447612027,-0.35636459548050153
-3002.6550102233887,-1720.0,1104.0,16344.0,-1727.0,-1855.0,1320.0,0.10895735022044807,0.7149005898679345,0.5740968103015829,-0.384002988062549
-3002.6706471443176,-2040.0,1288.0,16524.0,-1907.0,-1807.0,1398.0,0.35367545541327927,0.6835354400507249,0.5164214357235419,-0.37550216398591774
-3002.686238050461,-1780.0,1352.0,16408.0,-1990.0,-1703.0,1248.0,0.5720877126937285,0.6034306277977485,0.4406511433912519,-0.3382509368035148
-3002.7018389701843,-1736.0,1680.0,16152.0,-1853.0,-1653.0,1142.0,0.7461291303932669,0.49211392990737923,0.34296472241485254,-0.2889470538846265
-3002.7174303531647,-1632.0,1668.0,16200.0,-1544.0,-1846.0,915.0,0.8691897465002767,0.3631911625258496,0.21686464850810697,-0.2560685226054967
-3002.733057498932,-1392.0,1128.0,16064.0,-1774.0,-1988.0,919.0,0.9551665148784941,0.19553131527128045,0.07422773829277345,-0.20955828895821277
-3002.74870634079,-1284.0,1012.0,16532.0,-1767.0,-2054.0,1007.0,0.9861454901229558,0.016381261780345553,-0.07945387578149432,-0.14469211518233413
-3002.7642946243286,-1416.0,992.0,16588.0,-1928.0,-2003.0,1213.0,0.9574311006713623,-0.17710574678671667,-0.22129390919380934,-0.054664866926255454
-3002.77992272377,-1456.0,772.0,16420.0,-1945.0,-1911.0,1269.0,0.8672619920104873,-0.36090011579242925,-0.3403666167755998,0.04193220504271973
-3002.7954964637756,-1408.0,1148.0,16316.0,-1959.0,-1857.0,1265.0,0.7218503151866654,-0.5224812898635328,-0.43371336879525346,0.13355949212138907
-3002.8111066818237,-1200.0,1052.0,16120.0,-1971.0,-1851.0,1246.0,0.5298679600275528,-0.6505972297678175,-0.4998383119205346,0.21476697020517765
-3002.8267464637756,-1080.0,836.0,15928.0,-1991.0,-1854.0,1166.0,0.30413301504457757,-0.7346501126979168,-0.5389716560429701,0.2780321475209856
-3002.8423421382904,-912.0,804.0,16328.0,-1918.0,-1959.0,1164.0,0.05879769969164986,-0.7672652402020212,-0.5447577939748665,0.3332954058974445
-3002.857982635498,-416.0,848.0,16304.0,-1914.0,-2015.0,906.0,-0.1856282452009051,-0.7378877027718368,-0.5330132481249669,0.37008211251694717
-3002.873570919037,-84.0,608.0,16264.0,-1862.0,-2015.0,679.0,-0.4090213261069675,-0.654552530926491,-0.5017093797208181,0.39057680083125124
-3002.889167070389,-200.0,440.0,16524.0,-2003.0,-1891.0,540.0,-0.6068011660693489,-0.5265754686081118,-0.45803052976757974,0.38041905120256
-3002.9047644138336,-32.0,108.0,16440.0,-1966.0,-1853.0,451.0,-0.7647458034704336,-0.3684594795496361,-0.3932668417075801,0.3531892682652143
-3002.9204454421997,-276.0,-196.0,16108.0,-2010.0,-1959.0,387.0,-0.8820574697753205,-0.18157556436677746,-0.302758545083208,0.31199711187372403
-3002.9361226558685,-544.0,-508.0,15944.0,-1898.0,-2043.0,471.0,-0.9504579632329861,0.007648444067269291,-0.18395602607854614,0.25046225643745745
-3002.951784849167,-396.0,-912.0,16200.0,-1822.0,-2465.0,393.0,-0.9629951364989906,0.19926114079213525,-0.01859974151543651,0.18052538454485115
-3002.967426776886,40.0,-1488.0,16856.0,-1739.0,-2607.0,86.0,-0.9051759659376808,0.3723884689348077,0.16556290268362617,0.12071546772534353
-3002.9830515384674,140.0,-2292.0,16760.0,-1573.0,-3103.0,-164.0,-0.772712332282445,0.5040522401544243,0.38212834352804653,0.05314997466078363
-3002.998645544052,-16.0,-2524.0,17816.0,-1440.0,-3073.0,-173.0,-0.5811596274399357,0.5844258030574561,0.565897843171044,-0.021438265995255477
-3003.0142521858215,332.0,-3080.0,18384.0,-1276.0,-2894.0,-171.0,-0.3600209209426502,0.6122942832842381,0.697617292333653,-0.09386565174817631
-3003.0298557281494,852.0,-3108.0,18700.0,-290.0,-1318.0,-165.0,-0.26382692075535774,0.5963613931059902,0.7449879261135627,-0.14050421574615285
-3003.0455107688904,1936.0,-1972.0,19468.0,263.0,612.0,-847.0,-0.32632010082775037,0.5403279185489307,0.7683540245414384,-0.10579709449375871
-3003.061131954193,2148.0,-1700.0,18924.0,875.0,1317.0,-2077.0,-0.4632925546335942,0.37853316045100466,0.8001856559242687,-0.04213752855946906
-3003.0767438411713,2648.0,-2392.0,18772.0,1439.0,47.0,-4077.0,-0.49511211706928315,0.03340671088050717,0.8679016741646999,0.02224111466248829
-3003.092325925827,3136.0,-2484.0,20240.0,2711.0,-866.0,-4243.0,-0.3920392595387039,-0.3685488298040065,0.8428953461618622,-0.002101059046461026
-3003.1079704761505,4588.0,-2492.0,22552.0,2911.0,-1034.0,-4120.0,-0.20351819957871278,-0.7036754639602605,0.6796694329885352,-0.03834899896469362
-3003.1235568523407,5056.0,-1312.0,22936.0,1318.0,-665.0,-4921.0,-0.0908945979350239,-0.9318575027258187,0.3510921462449186,0.010680427190331599
-3003.1392035484314,4564.0,-812.0,21228.0,-948.0,552.0,-5195.0,-0.16340475754508688,-0.9835542284048404,-0.06964892370817823,0.03269544960514748
-3003.154804468155,4476.0,-1364.0,18852.0,-2909.0,2128.0,-5103.0,-0.33860249318824664,-0.8051445957140131,-0.47973524679245577,-0.08333441416487639
-3003.1704263687134,3432.0,-3288.0,16860.0,-4216.0,2742.0,-4428.0,-0.4767613062114353,-0.41011712081108576,-0.7262033755934271,-0.2777251544133217
-3003.1860151290894,2140.0,-5208.0,14832.0,-4404.0,3067.0,-4056.0,-0.4642560150706648,0.09026132823066041,-0.7693895349133951,-0.4293704562059355
-3003.2015993595123,1568.0,-6048.0,14140.0,-4199.0,2727.0,-3579.0,-0.3367167611961473,0.5312182814166679,-0.6115784412658628,-0.48000080249632493
-3003.217178583145,1368.0,-6140.0,13392.0,-3734.0,2144.0,-2572.0,-0.14376959217560617,0.7952305331523912,-0.3653330566431892,-0.4620286368089839
-3003.2327873706818,1400.0,-5248.0,13248.0,-3343.0,1472.0,-1798.0,0.05905702738640965,0.8988023196709062,-0.11696272970307409,-0.4183137309853511
-3003.2483966350555,1412.0,-4488.0,13232.0,-3038.0,1071.0,-1382.0,0.24658818769038898,0.8953626756372336,0.10321972323950894,-0.3561820229905808
-3003.2640750408173,1548.0,-3276.0,13368.0,-2777.0,1050.0,-1222.0,0.40076085896061014,0.8253913188351415,0.2962664797929994,-0.26522835004539796
-3003.279686689377,1588.0,-1916.0,13800.0,-1830.0,948.0,-1210.0,0.47001498421102184,0.736140234632174,0.44929974730482664,-0.18791808493229067
-3003.295335292816,1900.0,-1084.0,14264.0,-1336.0,398.0,-1526.0,0.507101161408111,0.6179865392148303,0.5762785042116152,-0.16983561178812143
-3003.310938835144,2360.0,-1236.0,15276.0,-1181.0,-41.0,-2095.0,0.5303183907702328,0.44986318506611117,0.689912046200162,-0.2010146453394637
-3003.326585292816,3044.0,-2180.0,16180.0,-1417.0,-200.0,-2642.0,0.5336629512201976,0.21435524385944973,0.7827480591128404,-0.2378259024580507
-3003.3421981334686,2632.0,-3292.0,16576.0,-1630.0,-505.0,-2805.0,0.5195800224611261,-0.06128778314629715,0.8127666344499145,-0.256302176778246
-3003.3577992916107,2832.0,-4212.0,16388.0,-1527.0,125.0,-2685.0,0.4272513822761223,-0.3072730317049389,0.8092266831383573,-0.26113543541023115
-3003.3733990192413,2592.0,-4928.0,16208.0,-1172.0,666.0,-2415.0,0.2855719845253955,-0.49225636662071176,0.773726049866198,-0.2783528532888654
-3003.388993740082,3316.0,-4620.0,16440.0,-1166.0,1047.0,-1751.0,0.119751876933157,-0.6016154848280211,0.7375298264984576,-0.28243238378643154
-3003.4045898914337,2452.0,-4736.0,15824.0,-1113.0,1164.0,-1116.0,-0.04054380547885076,-0.6469960432219913,0.7082271844576331,-0.2795828590732878
-3003.420178413391,2148.0,-4876.0,15488.0,-1020.0,1160.0,-558.0,-0.1816270575975971,-0.6429821740190723,0.6904287279059808,-0.2772971466212297
-3003.4358582496643,1900.0,-4600.0,15268.0,-978.0,929.0,-140.0,-0.29386636113713704,-0.6091492899952148,0.686706946897242,-0.2664831577668872
-3003.4514558315277,1896.0,-4180.0,15204.0,-787.0,514.0,132.0,-0.3622512382481638,-0.5671176143708256,0.6964434425032139,-0.24923519665626684
-3003.4670865535736,1640.0,-3796.0,15524.0,-594.0,847.0,181.0,-0.43742553962869096,-0.516700115219027,0.6886296879615904,-0.25974803381568673
-3003.482697248459,1776.0,-3604.0,15664.0,-460.0,611.0,126.0,-0.4909819879735769,-0.4765741215048774,0.6798221214182445,-0.26392362044304835
-3003.4982986450195,1556.0,-3220.0,15632.0,-451.0,531.0,-17.0,-0.5407152751533831,-0.4451483829180732,0.665471540839609,-0.25810373250649066
-3003.513938188553,1240.0,-2796.0,15336.0,-263.0,670.0,-758.0,-0.6044970087206034,-0.459708810805193,0.6077386221466179,-0.23217438029905083
-3003.5295503139496,1756.0,-2804.0,15152.0,-115.0,386.0,-959.0,-0.6464508776127311,-0.49459219928775316,0.5489006392410887,-0.19023119480820525
-3003.5451896190643,1688.0,-2896.0,15168.0,-69.0,154.0,-1275.0,-0.6738389419700997,-0.545728554683142,0.4832192968627189,-0.12091540856137838
-3003.560789346695,1660.0,-2980.0,15804.0,36.0,67.0,-1356.0,-0.6845648554192516,-0.6000534133285457,0.41137451425147703,-0.04558364730846078
-3003.5763869285583,2016.0,-3384.0,16480.0,181.0,215.0,-1294.0,-0.6835005363188557,-0.6520548557394059,0.32780995407499,0.01386059045828376
-3003.5920124053955,1808.0,-4096.0,16712.0,267.0,467.0,-1088.0,-0.6766582439907354,-0.6957060706102683,0.23699193352261091,0.044288910582775814
-3003.607612133026,1516.0,-3884.0,16428.0,834.0,463.0,-811.0,-0.6288053880885014,-0.7589390407780361,0.16263362985957835,0.04653620883227914
-3003.623256444931,1140.0,-4236.0,16396.0,1196.0,618.0,-481.0,-0.552195958752275,-0.827450241937226,0.10091470548078199,0.01489773383467788
-3003.638890981674,760.0,-4348.0,16264.0,1375.0,966.0,-138.0,-0.4563662331194504,-0.8866111534472187,0.04567698333905509,-0.059700394005395375
-3003.654512643814,656.0,-3808.0,16676.0,1350.0,1442.0,124.0,-0.3518313851479337,-0.9187459372269281,-0.00907199893058307,-0.17899239673601533
-3003.6701498031616,308.0,-3188.0,17060.0,1343.0,1751.0,46.0,-0.2376860829041399,-0.9158042533878653,-0.07869459405851592,-0.3140303430185469
-3003.6857912540436,248.0,-2608.0,17100.0,1346.0,1898.0,-141.0,-0.11850365892211408,-0.8728177254586511,-0.16290027093867265,-0.44453301640639137
-3003.7013823986053,484.0,-2388.0,16384.0,1351.0,1742.0,-381.0,-0.005483412247647122,-0.7986484113960853,-0.25749617437581507,-0.5438992253593044
-3003.7169783115387,324.0,-2264.0,15460.0,1130.0,1137.0,-623.0,0.06851909280586095,-0.7230456791006717,-0.35116311529303357,-0.5909268536059279
-3003.732607603073,704.0,-2320.0,14488.0,920.0,529.0,-1024.0,0.08927047847853893,-0.6534169819064188,-0.4562826354226043,-0.5973970087306447
-3003.74822640419,620.0,-2664.0,14152.0,896.0,388.0,-602.0,0.12384976324101206,-0.5991791980698841,-0.5316140214468486,-0.5856893860627712
-3003.763837337494,724.0,-3236.0,14656.0,832.0,338.0,-353.0,0.16446043031417476,-0.5545198227937331,-0.5868287163618013,-0.566650324841382
-3003.7794449329376,148.0,-3824.0,15600.0,962.0,110.0,-337.0,0.19923908212987462,-0.515912762066951,-0.6465115545808341,-0.5255098665885994
-3003.7950718402863,332.0,-3520.0,16716.0,1074.0,-119.0,-150.0,0.23300309364561222,-0.4919782161809231,-0.7013846976652709,-0.46013747840836383
-3003.8106796741486,712.0,-3312.0,17036.0,1156.0,-436.0,-217.0,0.2458210517994071,-0.4698685436668098,-0.7614155901074542,-0.3728831738037825
-3003.8262832164764,1076.0,-3164.0,16428.0,1231.0,-623.0,-196.0,0.246759372753406,-0.4473984537263351,-0.8168432840836846,-0.2677900013238192
-3003.84192943573,1020.0,-3296.0,15924.0,1271.0,-594.0,-206.0,0.24739329173049054,-0.41603879639981844,-0.8608062030954436,-0.1572290043514513
-3003.8575263023376,772.0,-2824.0,15608.0,1313.0,-553.0,-121.0,0.2499744837802532,-0.38320561129094477,-0.8882580181750486,-0.04079105394157345
-3003.8732109069824,696.0,-2328.0,15760.0,1334.0,-582.0,-29.0,0.24742619717609687,-0.35109370203194057,-0.8994324890463995,0.08083741084597415
-3003.8888714313507,720.0,-2572.0,16096.0,1237.0,-867.0,198.0,0.21403102993143314,-0.3308865768016401,-0.895461331898883,0.20701158081822635
-3003.9045503139496,732.0,-2704.0,16572.0,1098.0,-935.0,166.0,0.1683534819471352,-0.30401320733029435,-0.8812249723922271,0.3204303714028083
-3003.920258283615,976.0,-2884.0,16672.0,902.0,-1021.0,150.0,0.10881320967984148,-0.2717870549882593,-0.8608489967275392,0.41620966708279267
-3003.935966730118,1180.0,-2764.0,16720.0,809.0,-1124.0,153.0,0.03773162343907658,-0.2330287375722862,-0.8323284672007846,0.50150100173909
-3003.951564311981,1036.0,-2580.0,16356.0,530.0,-1032.0,173.0,-0.03385036015013224,-0.19762072807770018,-0.8047456995441091,0.5587347850429653
-3003.967140674591,972.0,-2408.0,16184.0,707.0,-1382.0,202.0,-0.12740100514730537,-0.1451227877311091,-0.7556038768943549,0.6259162416736191
-3003.984066963196,936.0,-2428.0,16228.0,462.0,-1499.0,385.0,-0.2390982499261904,-0.09280841862148072,-0.7017829579747225,0.6646196688418585
-3003.9998273849487,876.0,-2252.0,16672.0,157.0,-1642.0,615.0,-0.3697760328625237,-0.03802545228744243,-0.6457293723593673,0.6669732589625817
-3004.0154411792755,752.0,-2204.0,16920.0,-94.0,-1098.0,257.0,-0.44481607293586395,0.014400840963156854,-0.6117960697950968,0.6539394819253102
-3004.0311064720154,1088.0,-1908.0,17376.0,-155.0,-829.0,543.0,-0.5179566893731421,0.038608012286560585,-0.5867468599383721,0.6212555123887076
-3004.046724796295,776.0,-1616.0,16648.0,-88.0,-715.0,311.0,-0.5698698397714907,0.06528430240279533,-0.558774583560755,0.5989635133671336
-3004.062322616577,1184.0,-1112.0,15912.0,85.0,-727.0,62.0,-0.6078686372763994,0.09584313887524784,-0.5172908972222874,0.5947435919766048
-3004.077983856201,1032.0,-1044.0,15792.0,241.0,-873.0,-186.0,-0.6376364006139377,0.13631626886308565,-0.45523898170713745,0.6062962683289397
-3004.0935904979706,652.0,-868.0,15516.0,211.0,-1147.0,-579.0,-0.6509534326801735,0.20690440516388559,-0.37075697965678905,0.6292769323926096
-3004.1092026233673,432.0,-400.0,15684.0,204.0,-1403.0,-937.0,-0.6416157645855923,0.29932205153507685,-0.2598700418861798,0.6566605526679319
-3004.1247963905334,428.0,-488.0,15916.0,33.0,-1722.0,-1202.0,-0.6026670356121341,0.416331876030432,-0.12784930729300162,0.6686664099625187
-3004.140435218811,452.0,-848.0,16532.0,-154.0,-2031.0,-1290.0,-0.5328554817402247,0.5452337825113376,0.016580615473590625,0.6469236749248628
-3004.1560847759247,1256.0,-1044.0,16700.0,-123.0,-2116.0,-1492.0,-0.4289295320301728,0.651661068742603,0.17464881237520466,0.6007121610002215
-3004.1717250347137,1784.0,-1548.0,16812.0,-48.0,-2009.0,-1427.0,-0.3136448412749751,0.7204668971691707,0.3211493846773469,0.5285995046785277
-3004.187333345413,2052.0,-2664.0,17044.0,33.0,-1842.0,-1134.0,-0.20814468517028226,0.7592968350841861,0.43667257172513546,0.4352713766944238
-3004.2029316425323,2044.0,-2688.0,16984.0,58.0,-1544.0,-918.0,-0.11687427249653841,0.7724433155465352,0.5213770750059759,0.3432749253209351
-3004.2185587882996,1744.0,-2172.0,16752.0,46.0,-1084.0,-561.0,-0.05355826227294381,0.7745218257575027,0.568407324676564,0.2723243786766039
-3004.2342534065247,1516.0,-1708.0,16444.0,-30.0,-1048.0,-317.0,0.007950166404546488,0.7802822049385112,0.5913219449877205,0.2035554786449488
-3004.24987077713,1152.0,-1564.0,16460.0,-217.0,-1117.0,-123.0,0.08215836274120836,0.7896972542078134,0.5921168983630186,0.13793414661091954
-3004.2655005455017,1524.0,-1584.0,16488.0,-288.0,-1083.0,-46.0,0.157793448807707,0.7944945228920745,0.581270708528324,0.07748576653066502
-3004.28107714653,1724.0,-1648.0,16464.0,-275.0,-1110.0,-53.0,0.232405234486407,0.7915802761234112,0.5649792486714066,0.013671942305160743
-3004.296704530716,1648.0,-1760.0,16436.0,-509.0,-1063.0,-17.0,0.31837012283544025,0.7775719438457179,0.5411181109559027,-0.034835714794649926
-3004.3123183250427,1592.0,-1816.0,16364.0,-194.0,-1221.0,-92.0,0.38671635599233034,0.7596716080083749,0.5110250259182354,-0.11046687684211066
-3004.3279514312744,1548.0,-1700.0,14956.0,-254.0,-1360.0,-73.0,0.46022091179639546,0.7293861046786497,0.4689711930751947,-0.19041702316922435
-3004.343581199646,1744.0,-2036.0,16148.0,-155.0,-1399.0,-111.0,0.5216282803227396,0.6900978454260029,0.4192153129782424,-0.2755493100526373
-3004.3592212200165,1896.0,-2100.0,16028.0,-147.0,-1438.0,-156.0,0.5748075533468314,0.6379284618716428,0.3637195879120973,-0.36104240127520165
-3004.37481713295,1812.0,-1960.0,16172.0,-100.0,-1570.0,-236.0,0.6169335337056999,0.5703764005539822,0.2983293817634845,-0.4528392172251631
-3004.390455722809,1736.0,-1808.0,15356.0,-205.0,-1804.0,-396.0,0.6500335382286154,0.4714283101253323,0.225988088405938,-0.5514899196621734
-3004.406054496765,1720.0,-1456.0,16296.0,-398.0,-1985.0,-381.0,0.6764327821717019,0.34014698823637496,0.14578334846911473,-0.636777773564928
-3004.4216504096985,1844.0,-1552.0,16024.0,-497.0,-2063.0,-392.0,0.6836641433647104,0.18762093652794065,0.062065550389208954,-0.702530846802231
-3004.437267780304,2036.0,-1928.0,15908.0,-596.0,-2197.0,-311.0,0.6728601149198399,0.015071714061648858,-0.026918039653734564,-0.7391261924235292
-3004.4528863430023,1892.0,-2160.0,16252.0,-558.0,-2248.0,-197.0,0.6425016257886453,-0.15928982128568486,-0.12010463419590624,-0.7398603182617579
-3004.4685163497925,1692.0,-2184.0,16580.0,-457.0,-2132.0,-101.0,0.5966335999751827,-0.31571366789571653,-0.20756581866900006,-0.7080039958960364
-3004.484093427658,1852.0,-2156.0,16788.0,-322.0,-1927.0,-21.0,0.5437986712577659,-0.44461267379057184,-0.2843377286998457,-0.6524987597543002
-3004.499716758728,2260.0,-2192.0,16896.0,-140.0,-1546.0,47.0,0.49821150319899904,-0.5354572485514837,-0.34466451099685236,-0.5884532334121113
-3004.5152955055237,2552.0,-2216.0,17060.0,11.0,-1319.0,-8.0,0.4557130138782945,-0.5984415906068039,-0.40024163674618235,-0.5234500394772138
-3004.5308763980865,3052.0,-2296.0,16872.0,122.0,-1066.0,8.0,0.42344272452007387,-0.6397033540438398,-0.4457894938299478,-0.4612457100796899
-3004.546491622925,2620.0,-2280.0,16728.0,120.0,-963.0,47.0,0.3932332541875009,-0.6733968068898383,-0.48181227089818873,-0.399701493471827
-3004.5620884895325,2304.0,-2148.0,16640.0,72.0,-797.0,121.0,0.3673284919573166,-0.702029350433959,-0.5032758075178246,-0.3448739359431481
-3004.577674627304,2112.0,-1924.0,16372.0,-147.0,-539.0,9.0,0.3345855437010235,-0.7224706391788743,-0.5149382481009314,-0.3176905571676676
-3004.593337535858,2392.0,-1960.0,16544.0,-228.0,-561.0,37.0,0.29566853865759074,-0.7452770709324459,-0.5219093407860977,-0.2911234150504893
-3004.608932495117,2672.0,-2188.0,16376.0,-194.0,-388.0,135.0,0.26865331422230243,-0.7656685485201725,-0.5177810615964342,-0.2710716562395531
-3004.6245317459106,2176.0,-2284.0,16284.0,-93.0,-330.0,188.0,0.2518822042871043,-0.7836787460923353,-0.5104375514120152,-0.24870963832373025
-3004.640247106552,2020.0,-1944.0,16624.0,-10.0,-400.0,198.0,0.23754730563519938,-0.8007797604410227,-0.5050716191522885,-0.21731477717900666
-3004.6559121608734,2324.0,-2136.0,16460.0,-19.0,-331.0,270.0,0.2266428760364628,-0.8187713422606242,-0.4923450632717937,-0.18932203914639673
-3004.6715025901794,2556.0,-2524.0,16500.0,89.0,-183.0,195.0,0.22834596319029501,-0.8281504557596039,-0.4833409727240787,-0.16854212472256927
-3004.687108516693,2604.0,-2576.0,16668.0,158.0,212.0,161.0,0.2510435766621704,-0.8283565748548422,-0.46961742068448914,-0.1739597243647698
-3004.702689886093,2776.0,-2412.0,16148.0,361.0,332.0,77.0,0.29171002360125947,-0.8177727882136823,-0.461809149910373,-0.18134287426538442
-3004.7182784080505,2404.0,-2160.0,16192.0,312.0,125.0,-248.0,0.3149475896000132,-0.7972986271511902,-0.48093485989395207,-0.18391458747677877
-3004.733887195587,2140.0,-2032.0,15612.0,185.0,-118.0,-166.0,0.3201765062370821,-0.7868875144353663,-0.49854298427354005,-0.17248170138069624
-3004.7495200634003,2400.0,-1952.0,15644.0,32.0,206.0,-178.0,0.3286305856492721,-0.7748986949117312,-0.5053326693449306,-0.1901915983755302
-3004.7651376724243,2728.0,-2164.0,15748.0,-31.0,149.0,-221.0,0.3294147602150207,-0.763329936458624,-0.5153326574535213,-0.20795570687154774
-3004.7807352542877,2356.0,-2492.0,16228.0,-100.0,187.0,-140.0,0.32860949170366344,-0.7563012297454806,-0.5173204576742739,-0.228918753970516
-3004.796323299408,2052.0,-2428.0,16492.0,-140.0,254.0,-105.0,0.32868641193838843,-0.7502016180274969,-0.5139601301240543,-0.2549661929724384
-3004.8119275569916,2252.0,-2432.0,16452.0,-49.0,-75.0,-34.0,0.32141240051158704,-0.7516982405139083,-0.5172066247948598,-0.25326099437928173
-3004.8275158405304,2304.0,-2428.0,16440.0,81.0,-16.0,-22.0,0.3255763568559919,-0.748738652708476,-0.5208522913566688,-0.24920545015144413
-3004.8431334495544,2916.0,-2336.0,16636.0,276.0,356.0,-49.0,0.3585228139493955,-0.7303208810956718,-0.5195100678527426,-0.2611553022879058
-3004.858733892441,2852.0,-2596.0,16244.0,360.0,473.0,-80.0,0.4006239447723323,-0.7036439963131232,-0.5172749832809831,-0.2771500911044619
-3004.874330997467,2440.0,-2516.0,16196.0,361.0,257.0,-219.0,0.4287826771471235,-0.6742458279929507,-0.5299444247191905,-0.2840719731365491
-3004.8899867534637,2256.0,-1836.0,16296.0,213.0,185.0,-307.0,0.44205049801097357,-0.647012958204266,-0.5459716377046323,-0.2964465549574442
-3004.9055693149567,2412.0,-1908.0,16124.0,78.0,274.0,-346.0,0.45029735801258575,-0.6199040302050731,-0.5564903981638512,-0.3213560633531462
-3004.921397924423,2372.0,-2268.0,15952.0,32.0,354.0,-353.0,0.4589675327071103,-0.5909579609424601,-0.5619883618659808,-0.35254300935725413
-3004.9370396137238,2544.0,-2464.0,15872.0,80.0,312.0,-212.0,0.471694307867116,-0.5673827851866875,-0.5625109199419763,-0.3730451982610034
-3004.952708005905,2272.0,-2568.0,16200.0,149.0,185.0,-133.0,0.4837772057653199,-0.5484901477783006,-0.566110925996241,-0.38031117843118406
-3004.968322277069,2476.0,-2604.0,16364.0,251.0,253.0,-43.0,0.5067092172398077,-0.5270582232246628,-0.5654735810448086,-0.38170018029317593
-3004.9839425086975,2580.0,-2644.0,16468.0,302.0,360.0,78.0,0.540595665064632,-0.5050667568256201,-0.5554701753312785,-0.37962716233222443
-3004.9995243549347,2464.0,-2588.0,16480.0,321.0,283.0,130.0,0.5724355566626383,-0.4864175495507721,-0.5465245498995581,-0.3701707947886262
-3005.015091896057,2312.0,-2300.0,16248.0,365.0,505.0,194.0,0.6173870205595269,-0.46030779640601477,-0.5239102503584467,-0.3639616037191544
-3005.0306692123413,2108.0,-2048.0,16080.0,286.0,290.0,175.0,0.6473147629188691,-0.4432837020662784,-0.5098588270136862,-0.3528840230244649
-3005.0462851524353,2096.0,-2032.0,16000.0,206.0,500.0,190.0,0.6826360794099581,-0.42409284193004804,-0.47989556972824704,-0.3519282407916387
-3005.061862230301,2196.0,-2192.0,16040.0,192.0,279.0,104.0,0.7043922139307792,-0.40816080700962093,-0.4649826434213211,-0.3478900773115999
-3005.077511548996,2036.0,-2216.0,16320.0,113.0,274.0,99.0,0.7223809034401936,-0.3966771580283523,-0.44775233034054446,-0.3468874649192317
-3005.0931453704834,1956.0,-2228.0,16344.0,144.0,209.0,94.0,0.7382806319570504,-0.3847447959862493,-0.43543085462605907,-0.34251003091620164
-3005.1087243556976,1936.0,-2148.0,16356.0,110.0,114.0,112.0,0.7496548525196411,-0.3783563245340081,-0.4274191939550732,-0.3349282406989098
-3005.1243257522583,2000.0,-2160.0,16312.0,98.0,110.0,214.0,0.7631619195567748,-0.3765181535942328,-0.4157773690894266,-0.32085377340072435
-3005.1399602890015,1976.0,-2264.0,16192.0,131.0,110.0,95.0,0.7741143032342451,-0.3680046629667381,-0.40879979663549487,-0.3133725256522573
-3005.1555681228638,2016.0,-2252.0,16172.0,201.0,128.0,154.0,0.7892153473444743,-0.3562046307470437,-0.40043821638657223,-0.29984434529842996
-3005.1711485385895,1800.0,-2356.0,16324.0,276.0,222.0,211.0,0.8106590344091297,-0.33843245857703935,-0.38541075504623,-0.2824074198866819
-3005.1867837905884,1760.0,-2420.0,16304.0,224.0,137.0,230.0,0.8272766001790078,-0.32668364194728733,-0.37411426230377615,-0.26254474594099253
-3005.2023713588715,2132.0,-2172.0,16572.0,167.0,4.0,165.0,0.835882051646667,-0.3197392089117925,-0.37271200724434583,-0.2452627033923232
-3005.217990875244,2352.0,-1956.0,16772.0,175.0,446.0,7.0,0.8547782461158943,-0.29726982585010203,-0.34326210103217225,-0.2513084371863874
-3005.2335686683655,2320.0,-2020.0,16548.0,199.0,477.0,-130.0,0.8705365832123005,-0.26764594354817683,-0.3148982263063379,-0.2671531644214262
-3005.2491483688354,2156.0,-2104.0,16136.0,198.0,426.0,-206.0,0.8812770924379233,-0.23663764013490837,-0.2914760983419506,-0.2870452886059879
-3005.26473069191,2072.0,-2264.0,15968.0,183.0,289.0,-185.0,0.8873536364988682,-0.21036816508008824,-0.2772821294218555,-0.3024291315603584
-3005.2803354263306,1936.0,-2340.0,15964.0,203.0,204.0,-155.0,0.8916520607070404,-0.18532074090882436,-0.26934988032043133,-0.3131508703440915
-3005.2959744930267,1944.0,-2400.0,15916.0,210.0,157.0,-211.0,0.8926740292782119,-0.1595604774309019,-0.2659262980138768,-0.32704240630055836
-3005.3115882873535,2020.0,-2428.0,16236.0,169.0,170.0,-74.0,0.8967294167458799,-0.1397143838813352,-0.25821644048481135,-0.3311804854495612
-3005.3272762298584,2028.0,-2328.0,16172.0,206.0,137.0,-28.0,0.9013878665692094,-0.1189120324992762,-0.253463113871007,-0.33032755324906377
-3005.3428988456726,2184.0,-2276.0,16316.0,196.0,136.0,111.0,0.9094693174772354,-0.10196037608167755,-0.24692154045564096,-0.31858969715888114
-3005.358521461487,2092.0,-2068.0,16176.0,204.0,-53.0,245.0,0.9166697702945812,-0.09245691024363945,-0.25423958918478223,-0.294160641941495
-3005.374157190323,1904.0,-2384.0,16288.0,263.0,-102.0,269.0,0.9229827832660132,-0.0799511905725073,-0.2665473496441101,-0.2658253173011607
-3005.3897993564606,1976.0,-2328.0,15948.0,228.0,-254.0,333.0,0.9256756195801054,-0.07516894653349727,-0.2894480140283606,-0.23171992570141656
-3005.4054250717163,1932.0,-2272.0,16176.0,184.0,-377.0,489.0,0.9258778593678216,-0.08016437354853476,-0.3196473285132319,-0.18479569291621833
-3005.421017885208,2116.0,-2092.0,16352.0,175.0,-336.0,576.0,0.9254410405712248,-0.08735054923251649,-0.3447123283854013,-0.13077527531739921
-3005.436641216278,2252.0,-2032.0,16604.0,155.0,-201.0,546.0,0.9256276988457238,-0.09340961697356889,-0.3578131296519233,-0.08036025656453091
-3005.4522523880005,1992.0,-2160.0,16552.0,206.0,-99.0,259.0,0.9257091050731117,-0.08549340179453903,-0.36473653531111605,-0.05216120055730232
-3005.4679074287415,2128.0,-1980.0,16860.0,317.0,7.0,422.0,0.9293285287330254,-0.07318738181584003,-0.36183974665532687,-0.008005658390284642
-3005.4835085868835,2216.0,-1932.0,16652.0,415.0,75.0,351.0,0.9336162411822462,-0.05048822635798485,-0.3531544402134359,0.03306954123500463
-3005.4991092681885,2172.0,-1928.0,16708.0,406.0,169.0,331.0,0.9386648102610207,-0.028066653887559675,-0.33611436395230493,0.07174797043913773
-3005.5146913528442,2092.0,-1956.0,16512.0,425.0,326.0,440.0,0.9448665952238722,-0.00820683590457145,-0.30485119030572544,0.11927077112044304
-3005.5303015708923,2096.0,-2244.0,16320.0,462.0,520.0,639.0,0.9492277248813341,0.007394367582575588,-0.2555673384305819,0.18329589513180175
-3005.546005010605,2192.0,-2064.0,16540.0,614.0,699.0,868.0,0.9447778088005137,0.02746478670658466,-0.18696863304040487,0.26773738578738754
-3005.5616130828857,2004.0,-2300.0,16764.0,530.0,862.0,1101.0,0.9240328802111527,0.03260698617499648,-0.10500072575411855,0.3661623524235845
-3005.577211380005,1772.0,-2220.0,16844.0,798.0,854.0,1231.0,0.8806453186523048,0.05746322959952334,-0.01385526828731524,0.47007428298138126
-3005.592810869217,1596.0,-2120.0,16500.0,674.0,910.0,1386.0,0.8116860999142833,0.06914284458231003,0.07568482866935307,0.5750276071270818
-3005.6084196567535,1764.0,-1956.0,16356.0,472.0,905.0,1532.0,0.716823254240377,0.06627538248021256,0.1520082481622886,0.677248468693706
-3005.6240599155426,2004.0,-1744.0,15784.0,380.0,920.0,1650.0,0.5965583768350168,0.05668674923095979,0.21911013689093056,0.7699970541510105
-3005.6396787166595,2260.0,-1676.0,16012.0,147.0,1038.0,1426.0,0.47455850440813035,0.021567853322675107,0.27246203035285327,0.8367158989842198
-3005.6552879810333,2536.0,-1604.0,16216.0,-10.0,1128.0,1317.0,0.3476460703381384,-0.029548331670039184,0.3121485024452838,0.883647225025425
-3005.6709020137787,2552.0,-1684.0,16284.0,-180.0,999.0,1184.0,0.2265786504576893,-0.07901649193540959,0.32835298638443405,0.9135659940537505
-3005.686495780945,2572.0,-1840.0,16280.0,-232.0,736.0,1109.0,0.11467137143728283,-0.10966364732880585,0.3295400975976142,0.9307135354675955
-3005.7021312713623,2492.0,-1812.0,16244.0,-331.0,495.0,1007.0,0.015380753607181444,-0.12347696782745268,0.31538021719967013,0.9407721240734666
-3005.7177267074585,2284.0,-2436.0,16016.0,-355.0,283.0,1011.0,-0.07889108360156995,-0.11869452915667288,0.2959002882242697,0.944526773101345
-3005.733353614807,2404.0,-2584.0,15948.0,-219.0,85.0,772.0,-0.14665352575437005,-0.10387266894130597,0.2843275195588934,0.9417330161209754
-3005.748999595642,2600.0,-2360.0,16216.0,-140.0,-254.0,1069.0,-0.22844776913799783,-0.05428704200084892,0.28420734601810727,0.9295648004932276
-3005.7645766735077,2492.0,-2116.0,16252.0,-65.0,-312.0,1250.0,-0.32044424750004635,0.003420927244122652,0.28900316832916667,0.9020980823594641
-3005.780166387558,2492.0,-1720.0,16476.0,-46.0,-191.0,911.0,-0.38611303621644166,0.04265998188563902,0.2892329364742569,0.8748949409316048
-3005.7957820892334,2332.0,-1796.0,16564.0,-16.0,-4.0,821.0,-0.4475502929338034,0.06410717126919817,0.284090577301262,0.8455066822771798
-3005.811367034912,2164.0,-1660.0,16800.0,50.0,105.0,699.0,-0.5011164816744126,0.07161815881382305,0.2789621465403703,0.8160473221082004
-3005.826961994171,1948.0,-1584.0,16764.0,54.0,432.0,498.0,-0.5465890243655092,0.05053299615014596,0.2600925865899532,0.794379444059448
-3005.8426394462585,1728.0,-1852.0,16716.0,244.0,585.0,249.0,-0.5772485025829591,0.004004602395176111,0.2472863983053021,0.7782143449195595
-3005.8582458496094,1512.0,-1828.0,16428.0,-85.0,581.0,20.0,-0.5903941183060422,-0.030631389638378723,0.21167711708269116,0.7782604327228859
-3005.873846054077,1400.0,-1652.0,16188.0,-269.0,594.0,-245.0,-0.5844120721077823,-0.0614120589725207,0.16157042372607652,0.7928342116510994
-3005.889443397522,1004.0,-1636.0,16164.0,-555.0,528.0,-395.0,-0.5659326806030924,-0.07483123485354465,0.09359464488559809,0.8156963465435106
-3005.905035018921,900.0,-1588.0,15780.0,-879.0,353.0,-803.0,-0.5143957086011663,-0.06250496560227203,0.008076321379179725,0.8552338611635667
-3005.9209105968475,816.0,-1404.0,15720.0,-1096.0,120.0,-1349.0,-0.415003355951853,-0.022638110255153818,-0.08558096716923116,0.9055029699405487
-3005.9365503787994,512.0,-1504.0,15432.0,-1124.0,47.0,-1974.0,-0.2558936550956933,0.0287893108459527,-0.17636491102112026,0.9500447521160746
-3005.9522428512573,416.0,-1456.0,15132.0,-955.0,-85.0,-2655.0,-0.03366090909684039,0.09518159942820523,-0.23951798540734492,0.9656285730007528
-3005.9679112434387,468.0,-1044.0,14848.0,-663.0,-308.0,-3544.0,0.2518372259794858,0.18792794150957778,-0.25249601518748205,0.9151540103858875
-3005.983525276184,408.0,-1372.0,14800.0,-147.0,-520.0,-4155.0,0.5397382222218551,0.2983068308672717,-0.19471243311117759,0.762746848254807
-3005.999116420746,820.0,-1504.0,15076.0,172.0,-898.0,-4293.0,0.7525330484085326,0.40988983875168156,-0.1061665652301127,0.5043936870821459
-3006.0147099494934,1620.0,-2104.0,15748.0,170.0,-1182.0,-3694.0,0.8507118600301177,0.4802954976632092,-0.041816700964864846,0.20942046139038764
-3006.0303027629852,2360.0,-2964.0,16640.0,-221.0,-1221.0,-3324.0,0.8753683755589269,0.47585354044021116,0.0026823958658759636,-0.08536052878386224
-3006.045962572098,3320.0,-3800.0,17408.0,-821.0,-1248.0,-2415.0,0.8656632251604919,0.39122498648925585,0.013314461507137712,-0.3120783806449781
-3006.0615956783295,3780.0,-4692.0,17400.0,-1147.0,-1170.0,-1991.0,0.8312324103060574,0.2635502130962583,0.023522295163799924,-0.48891785287911727
-3006.0772063732147,3680.0,-5028.0,17196.0,-1331.0,-1212.0,-1579.0,0.7801322294132815,0.1093810156954001,0.028076706157059168,-0.6153382781913345
-3006.092810153961,3460.0,-5140.0,17392.0,-1450.0,-1129.0,-1048.0,0.7281396375398603,-0.05197741142131394,0.03841559031198351,-0.6823747206383323
-3006.1084241867065,3292.0,-5016.0,17644.0,-1594.0,-924.0,-272.0,0.6985883958738778,-0.20679620015554068,0.07240594028728571,-0.6811512053595042
-3006.1240813732147,3324.0,-4936.0,17556.0,-1702.0,-443.0,478.0,0.6904640795795647,-0.3295351581191758,0.15308682180777702,-0.6254841000077527
-3006.139706850052,2560.0,-4768.0,17736.0,-1688.0,307.0,1000.0,0.6823195237339403,-0.39505643735601675,0.2880901915749606,-0.5434836891327678
-3006.155339241028,2360.0,-4436.0,17160.0,-1656.0,1002.0,1242.0,0.6461454855360047,-0.40668118689970034,0.45985347522623565,-0.4534767966121811
-3006.170919895172,1828.0,-3404.0,16128.0,-1636.0,927.0,1330.0,0.5917651109942057,-0.4007889272750114,0.6117642489504242,-0.3390085439777062
-3006.1865134239197,2032.0,-2428.0,15436.0,-1746.0,416.0,1109.0,0.5324221282906864,-0.41248198313430934,0.7116779394127221,-0.19974934655528956
-3006.2020914554596,1896.0,-1896.0,14676.0,-1832.0,-187.0,529.0,0.4807052862871634,-0.4615985242821357,0.7436009055374161,-0.05391589190642918
-3006.2176928520203,1904.0,-1844.0,14268.0,-1847.0,-396.0,-140.0,0.42562327314307297,-0.5426768594287655,0.720221672081625,0.07501598938531077
-3006.2333550453186,2276.0,-2208.0,14156.0,-1699.0,-540.0,-661.0,0.3783075144909541,-0.6351258645632074,0.6488148979977246,0.1803823405400798
-3006.248975276947,2132.0,-2840.0,14212.0,-1379.0,-552.0,-1018.0,0.34497329309460206,-0.7207678597650076,0.5457023505046503,0.2523807917313358
-3006.2645497322083,2344.0,-3332.0,14664.0,-1067.0,-767.0,-1276.0,0.33825353802243074,-0.7867734604047943,0.41353225364021745,0.3091328860170271
-3006.280157327652,2624.0,-3444.0,15056.0,-708.0,-937.0,-1043.0,0.34840163992434114,-0.8124153907893524,0.2923613606187823,0.3648593769162961
-3006.295798063278,2560.0,-3776.0,15524.0,-433.0,-1270.0,-1351.0,0.38788036347921073,-0.8084784581514791,0.1421529901843634,0.4191705305885503
-3006.3114306926727,2628.0,-4000.0,15816.0,-170.0,-1493.0,-1387.0,0.43830580978869144,-0.7646618472223919,-0.012341533184365658,0.47225836473966015
-3006.3270757198334,2636.0,-3904.0,15636.0,164.0,-1415.0,-1392.0,0.4977266555362249,-0.6881372855601314,-0.15039985761967428,0.5060781910126537
-3006.3426928520203,2772.0,-4416.0,15516.0,468.0,-1102.0,-1055.0,0.5527293582049595,-0.5993608393046691,-0.2386773490079673,0.5275319553893062
-3006.358277797699,2916.0,-4520.0,14760.0,521.0,-1000.0,-729.0,0.5887872089365674,-0.5093532587096438,-0.2990119778545351,0.5517977143247992
-3006.373899936676,3232.0,-4068.0,14388.0,266.0,-1149.0,-404.0,0.5867189051726316,-0.4271110575120591,-0.36104340262073165,0.5856489838529589
-3006.389531850815,3480.0,-3392.0,14512.0,-161.0,-1261.0,-207.0,0.548205845611001,-0.36192997269293314,-0.4387386233531786,0.6131765374527778
-3006.405160665512,3808.0,-3040.0,14948.0,-462.0,-1528.0,-66.0,0.47413773378316076,-0.2967172619953905,-0.5334154047777446,0.634523665266097
-3006.420763731003,3912.0,-3612.0,15248.0,-642.0,-1459.0,-9.0,0.3864479247498199,-0.23964800357623153,-0.6234800260915246,0.6360027459873078
-3006.436368227005,3492.0,-4052.0,15520.0,-375.0,-1318.0,-111.0,0.31088517332390064,-0.1717857156149707,-0.6860523520533662,0.6349584609721053
-3006.452053785324,3552.0,-4568.0,15472.0,-196.0,-963.0,-380.0,0.27026621664633166,-0.1005018841612703,-0.7255803364779293,0.6248109463960181
-3006.4676678180695,3352.0,-5032.0,15772.0,58.0,-884.0,-817.0,0.25798038139459883,0.0008495961169803482,-0.7462176771447644,0.6136811707381998
-3006.483292579651,3548.0,-4752.0,16004.0,456.0,-1019.0,-1110.0,0.2487479750944505,0.1367332025486945,-0.7376185435263765,0.6126559886700002
-3006.498904943466,3768.0,-4196.0,16104.0,1021.0,-1173.0,-1128.0,0.21835875723844872,0.29019830195178353,-0.6853487992737457,0.6311904799786011
-3006.5144984722137,3972.0,-3648.0,16060.0,867.0,-1146.0,-974.0,0.17949324877456202,0.42326707991441265,-0.6274901231009349,0.6283974046062356
-3006.530130624771,4256.0,-3664.0,15404.0,823.0,-873.0,-731.0,0.1403450287975808,0.5201382109090752,-0.5647027555950598,0.6251962190124464
-3006.5457723140717,4060.0,-4492.0,15024.0,829.0,-561.0,-205.0,0.08591334247981051,0.5686871241870295,-0.5149162129340586,0.6356690538523013
-3006.5613708496094,3748.0,-5220.0,15340.0,785.0,-379.0,468.0,0.003925735641979978,0.5723566724325309,-0.4955312680011042,0.6533308431069574
-3006.5769739151,2892.0,-5812.0,15804.0,826.0,-413.0,1097.0,-0.11687444299616175,0.5444053430617251,-0.4994206112891967,0.6637335610316141
-3006.5925743579865,2604.0,-5860.0,16180.0,1232.0,-318.0,1598.0,-0.27752042182253833,0.4730430630922831,-0.4928908173127275,0.6754785845165651
-3006.6081714630127,2576.0,-5436.0,16092.0,1749.0,-292.0,1810.0,-0.45799074558446046,0.36119226046589753,-0.4465334493325305,0.6785222962922572
-3006.6238005161285,2944.0,-4744.0,15896.0,2168.0,-322.0,1883.0,-0.6306940991423988,0.21342710571353454,-0.35339533705763926,0.6571039184174898
-3006.6394124031067,3528.0,-4084.0,15500.0,2061.0,-126.0,2038.0,-0.7657111488744764,0.04294813475904057,-0.2578387471279506,0.5876742930310439
-3006.655015707016,4064.0,-3236.0,16028.0,2223.0,-84.0,1724.0,-0.8394278422380662,-0.13595309479278378,-0.14022977772259423,0.5071619693270389
-3006.670638561249,4304.0,-2916.0,16588.0,1867.0,-98.0,1720.0,-0.8734572924935151,-0.2823538550748284,-0.029117581663830296,0.3956018518059936
-3006.686225414276,3876.0,-3768.0,16984.0,1628.0,-82.0,1779.0,-0.8758594618066704,-0.3991493140611067,0.0755887437945358,0.26045416114902353
-3006.701817750931,4000.0,-4816.0,16796.0,1652.0,-1.0,1985.0,-0.8424059622814263,-0.49958365572082625,0.1779260306707893,0.09544995159273982
-3006.717420578003,4308.0,-5636.0,17184.0,1981.0,130.0,2308.0,-0.7513105421765829,-0.5898620357665308,0.2759425571326787,-0.10700912642747376
-3006.7330329418182,4468.0,-5904.0,17420.0,2405.0,264.0,2745.0,-0.5794538876009467,-0.6466997709415008,0.3596021559247656,-0.3416121892769935
-3006.748724460602,4992.0,-5820.0,17364.0,3052.0,894.0,3069.0,-0.3207284106634212,-0.6325359627578437,0.3700272216340682,-0.6000928242039691
-3006.764319896698,4768.0,-5044.0,17424.0,3339.0,1425.0,3099.0,-0.01853767135146152,-0.5087589197478324,0.30119993358335856,-0.8062873658487177
-3006.779994249344,4544.0,-3560.0,17532.0,3078.0,1544.0,3307.0,0.28642049721358165,-0.29350089363273735,0.2112382788637086,-0.8872423083664392
-3006.795597076416,3376.0,-2468.0,17620.0,2499.0,1513.0,3283.0,0.5385138416365829,-0.049619659051004426,0.13021063967000177,-0.8310149945206766
-3006.8112573623657,3612.0,-2204.0,17872.0,1851.0,1925.0,2851.0,0.6923060815849515,0.1980462090033885,0.09323222090507911,-0.6876028951982264
-3006.826858520508,2276.0,-1288.0,18920.0,1520.0,2681.0,1832.0,0.7198408352796601,0.44421507618693884,0.12620278140712746,-0.5182422174207906
-3006.8424417972565,616.0,244.0,20556.0,1382.0,3324.0,603.0,0.6260385652463099,0.6554457577120874,0.23736069488147568,-0.3494659841056818
-3006.8580651283264,1496.0,1728.0,22388.0,1020.0,3834.0,-532.0,0.445702243239097,0.7713280859739573,0.4212036711603824,-0.17026438723469045
-3006.8736531734467,3536.0,964.0,21136.0,48.0,4386.0,-2236.0,0.2278876431318028,0.6947131124046511,0.6814174387251963,0.03333448307785426
-3006.889288663864,3960.0,-3072.0,17876.0,449.0,3856.0,-2601.0,-0.01956473687248058,0.4978757674057878,0.8492326828997071,0.17475923894367995
-3006.9048902988434,3524.0,-5660.0,15064.0,1489.0,2595.0,-1688.0,-0.24036327173174057,0.31667590587787275,0.9012202900380809,0.17246407470113687
-3006.9207303524017,1644.0,-6792.0,14208.0,2052.0,1768.0,-362.0,-0.41902719766222307,0.2125634539526783,0.8802970896618939,0.06565073949203996
-3006.9363560676575,-116.0,-6264.0,14304.0,2741.0,1978.0,829.0,-0.5996337326885075,0.15756472243046404,0.7733172821018471,-0.13263908198593183
-3006.9520514011383,-656.0,-2528.0,14400.0,2772.0,2446.0,1166.0,-0.747788265760956,0.11318923468032414,0.565553556605,-0.3288617967385987
-3006.967649459839,-356.0,496.0,15416.0,2358.0,2808.0,969.0,-0.8372564453353104,0.08323639028243311,0.28938554573067937,-0.45643110542489085
-3006.9832866191864,-380.0,2164.0,16204.0,1804.0,2618.0,361.0,-0.8688732328205694,0.0623271530344621,0.022472067962196498,-0.4905809183448269
-3006.998859643936,-752.0,1876.0,16784.0,1823.0,2592.0,-450.0,-0.86981025693341,0.03266392622103509,-0.24063344112070495,-0.42948659102662345
-3007.0144739151,-800.0,1268.0,16812.0,2093.0,2747.0,-941.0,-0.8146516095314895,-0.0034086707652153125,-0.5008401752852022,-0.2923871660515483
-3007.0300586223602,-1068.0,-64.0,16280.0,2272.0,2507.0,-798.0,-0.6936567640560468,-0.06324816911785863,-0.7054271521811591,-0.13119640142973563
-3007.045661687851,-1376.0,-540.0,16068.0,2207.0,2206.0,-376.0,-0.5304583600960616,-0.1431650940325842,-0.8354044111901304,0.014736139891772655
-3007.0613226890564,-1552.0,-756.0,15404.0,1881.0,2049.0,186.0,-0.34771393354960056,-0.23946934789975607,-0.8992611941229245,0.11436239144291052
-3007.0769045352936,-2252.0,-688.0,15204.0,1427.0,1960.0,289.0,-0.16330667361014808,-0.31789253929694494,-0.9178349419619029,0.17278392033843654
-3007.0925188064575,-2600.0,0.0,15080.0,1233.0,1882.0,30.0,0.02080999952722791,-0.35939220673202776,-0.9078789551605191,0.21484875712138612
-3007.1081063747406,-2524.0,1176.0,15200.0,1206.0,1408.0,-432.0,0.175913089897854,-0.34464580497127983,-0.8841241539559854,0.2619128372376985
-3007.12371134758,-1624.0,2136.0,15868.0,1293.0,830.0,-1083.0,0.2996429069749444,-0.25674339542809127,-0.8628415712113263,0.31591356443373714
-3007.139298439026,-372.0,2656.0,16480.0,1459.0,528.0,-1683.0,0.4104510816690866,-0.10430163453372862,-0.8300700786921245,0.3628150259434132
-3007.154888868332,352.0,2016.0,17072.0,1558.0,508.0,-1663.0,0.5038184603684214,0.05481791575507872,-0.7619394907834826,0.40324951021528826
-3007.1705243587494,196.0,-160.0,17416.0,1439.0,318.0,-1299.0,0.5557669499181738,0.190520558955939,-0.6810509541733505,0.4370293031517857
-3007.1861402988434,200.0,-1508.0,17856.0,1206.0,389.0,-787.0,0.5840021965912016,0.2785852890275176,-0.5979289086945747,0.4730884602919635
-3007.2017278671265,292.0,-1888.0,17816.0,959.0,526.0,-7.0,0.5858316211609794,0.30466445508583045,-0.528822899789661,0.5332234260731676
-3007.2173488140106,128.0,-2208.0,17240.0,577.0,1215.0,554.0,0.5960594611546498,0.24994528013179995,-0.4508231482113623,0.6156289180542617
-3007.2329440116882,-448.0,-1924.0,16548.0,554.0,1520.0,764.0,0.5955593755965225,0.16491135092977685,-0.35418706702924013,0.7019008462901445
-3007.2485349178314,-876.0,-712.0,16004.0,1006.0,1557.0,580.0,0.5853603716108593,0.10230640075928495,-0.21666341941257883,0.774560261309426
-3007.2641367912292,-600.0,672.0,15568.0,1632.0,1262.0,158.0,0.5746928239874018,0.09571712309036501,-0.04231994677082365,0.8116498090371264
-3007.279751062393,-56.0,1312.0,15444.0,2137.0,1005.0,-206.0,0.5632257436421206,0.12950329977498387,0.15806199187620334,0.8006385350270732
-3007.295334339142,500.0,1400.0,15424.0,2205.0,140.0,-624.0,0.5687349184778113,0.21507057258968834,0.319499021899228,0.7267775562821251
-3007.310920715332,640.0,792.0,15188.0,1817.0,-466.0,-971.0,0.5991981306184768,0.3025479013694667,0.42255011289314004,0.6089973478876974
-3007.3265228271484,680.0,288.0,15048.0,1278.0,-1110.0,-1159.0,0.6576238975597356,0.37952305687736076,0.4556479569231069,0.46462672976121855
-3007.3421487808228,256.0,196.0,14552.0,328.0,-1399.0,-1601.0,0.754238463578989,0.3845980688487046,0.4339787218420521,0.30801158173710264
-3007.3577740192413,936.0,360.0,14884.0,-229.0,-1441.0,-1711.0,0.8464532186225575,0.3369211105890555,0.38295608542110204,0.1527931626804543
-3007.3733818531036,436.0,180.0,15532.0,-498.0,-1369.0,-1650.0,0.9122690105545761,0.25838150032523477,0.3177310174005605,0.0071591377316121176
-3007.388972043991,448.0,216.0,15920.0,-691.0,-1144.0,-1651.0,0.9445882484901712,0.15549666055208325,0.2588425139070836,-0.12874153318056358
-3007.4045712947845,224.0,-140.0,15972.0,-935.0,-1466.0,-1745.0,0.949143049466848,0.02187491636206899,0.16809158620708167,-0.26531901237814165
-3007.420175552368,-356.0,-272.0,16072.0,-1186.0,-1463.0,-2114.0,0.896958618655384,-0.13718225564234568,0.07581356671203335,-0.4133988005051583
-3007.435818195343,344.0,-412.0,15856.0,-1327.0,-1499.0,-2105.0,0.7901084864368261,-0.2993520015861785,-0.01844536558519746,-0.5345808893846511
-3007.4514524936676,824.0,-452.0,16088.0,-1513.0,-1556.0,-2115.0,0.6278933342767641,-0.456929900115332,-0.10674536349668505,-0.6209431975014794
-3007.4670989513397,684.0,-528.0,16328.0,-1732.0,-1546.0,-1810.0,0.43235587783364315,-0.5991512122866487,-0.1644113480282271,-0.6534945511308266
-3007.4826939105988,372.0,-192.0,16124.0,-1928.0,-1448.0,-2055.0,0.18657776885887528,-0.6986844524978251,-0.20869185470897944,-0.6583893086795872
-3007.4982602596283,756.0,136.0,15700.0,-2146.0,-1480.0,-2723.0,-0.12133900588028854,-0.7304751627186615,-0.2617079514748022,-0.6190249029223225
-3007.5138545036316,600.0,700.0,15456.0,-2475.0,-1760.0,-2945.0,-0.44889526992581674,-0.6866837316715975,-0.2786935809212763,-0.4992878701201076
-3007.529441356659,340.0,1008.0,16068.0,-2939.0,-1868.0,-3090.0,-0.7459873110727604,-0.5351552045765945,-0.24326218015916695,-0.3129462420883572
-3007.5450212955475,356.0,272.0,16044.0,-3617.0,-1474.0,-2820.0,-0.9433221669602161,-0.25797782662285895,-0.16604679598643657,-0.12656694606044339
-3007.560707092285,464.0,-512.0,16620.0,-4241.0,-1926.0,-2527.0,-0.9935054781498037,0.09689882639563625,-0.015765593366214012,0.05752328567883956
-3007.5763018131256,-280.0,-1992.0,17276.0,-4539.0,-2809.0,-1339.0,-0.8585092549171779,0.4562364980453555,0.1950530398304469,0.12947752208690325
-3007.5919308662415,-1356.0,-3972.0,18240.0,-4013.0,-3283.0,-764.0,-0.576839541626581,0.7101825603066266,0.3874494827910889,0.11304765604504308
-3007.6075446605682,-624.0,-5308.0,19432.0,-2372.0,-2670.0,291.0,-0.3268544184822344,0.8263048899098404,0.4585086705512604,0.012498682292251668
-3007.6231491565704,388.0,-4504.0,20204.0,-547.0,-2110.0,717.0,-0.19982717109438075,0.855898385339738,0.45730268633226684,-0.13557768525291508
-3007.638780117035,604.0,-2756.0,18968.0,563.0,-1503.0,925.0,-0.16879514994986466,0.8541060660883734,0.4025107224235227,-0.2828358951026895
-3007.6543991565704,504.0,-1060.0,16984.0,1238.0,-368.0,707.0,-0.22886189446045924,0.8446480405452544,0.32199601604615025,-0.36126235137008
-3007.669982433319,304.0,64.0,15320.0,1380.0,-511.0,684.0,-0.29180069449434654,0.8120443072573805,0.23588348674759188,-0.44698476307732987
-3007.6855838298798,1004.0,648.0,14840.0,1107.0,-517.0,744.0,-0.32809024810861553,0.7729345979103407,0.15192486156297486,-0.521390192550913
-3007.701185941696,900.0,416.0,14776.0,566.0,-998.0,690.0,-0.3195114845603987,0.7155040120932628,0.10744635212902194,-0.6119000746254413
-3007.7167925834656,304.0,-180.0,14776.0,-41.0,-831.0,796.0,-0.2653490683130791,0.6762166676080411,0.08266748306095417,-0.6822660607408403
-3007.732379436493,-112.0,-980.0,15492.0,-271.0,-585.0,676.0,-0.20423642334662478,0.6502544176456669,0.07220639983851225,-0.7281778021426042
-3007.7480001449585,-84.0,-1568.0,16628.0,-217.0,-455.0,256.0,-0.17260677466087135,0.6259238139645832,0.0794803743587464,-0.7563789728337209
-3007.763608932495,64.0,-1748.0,17536.0,-36.0,-276.0,274.0,-0.15058095916090986,0.6096525003541009,0.07099966816282965,-0.774989193905916
-3007.779273748398,708.0,-2120.0,17776.0,87.0,-73.0,-13.0,-0.1556645230484346,0.6033177143063031,0.06676394803973963,-0.7793066579405493
-3007.794874191284,1008.0,-2096.0,17576.0,113.0,37.0,-161.0,-0.1727926277520682,0.603125344860515,0.06704634006644183,-0.7758139689803962
-3007.8104858398438,764.0,-2116.0,17096.0,250.0,216.0,-132.0,-0.196101778805324,0.6127713795146619,0.05378523153861786,-0.7636507563444322
-3007.826068162918,696.0,-2088.0,16720.0,318.0,340.0,-43.0,-0.21743520065359137,0.6291279281652201,0.029050046064287027,-0.7457050880495136
-3007.8416452407837,740.0,-1844.0,16592.0,444.0,415.0,74.0,-0.2377586131159778,0.6468473356704169,-0.011765134873986328,-0.7245142840735761
-3007.8572869300842,844.0,-1692.0,16060.0,357.0,385.0,125.0,-0.24938528436257842,0.6627999126509933,-0.049319936476571874,-0.7043229370105583
-3007.872892141342,1020.0,-1716.0,15908.0,503.0,431.0,249.0,-0.26087418427219417,0.6758737043934532,-0.10381341969320396,-0.6814412444087833
-3007.8885049819946,1380.0,-1752.0,15960.0,195.0,282.0,500.0,-0.23979561297912808,0.6826171903406819,-0.1510925784251794,-0.673574693847823
-3007.904075860977,1380.0,-1628.0,16120.0,125.0,19.0,182.0,-0.23629279148684576,0.6784915460543949,-0.16961949011276276,-0.6745696162724476
-3007.92018866539,1468.0,-1584.0,16112.0,13.0,-169.0,27.0,-0.23799159179377055,0.6676979282418349,-0.16844319162845503,-0.6849572030799066
-3007.935912132263,1416.0,-1392.0,15912.0,-48.0,-499.0,-51.0,-0.24538437702710836,0.6388851691604805,-0.15204978207428355,-0.713087029687797
-3007.951516151428,1368.0,-1384.0,15900.0,-200.0,-542.0,-163.0,-0.251267433915506,0.6106381372432805,-0.11869768678306053,-0.7415501339423544
-3007.9671144485474,1292.0,-1644.0,16208.0,-277.0,-876.0,-4.0,-0.24509346654255085,0.5581228218523765,-0.08103868726733114,-0.7885815364004433
-3007.982688188553,1188.0,-1960.0,16720.0,-297.0,-708.0,-4.0,-0.23542281229568324,0.5144564555577796,-0.04510735917291902,-0.8233322421320347
-3007.9982554912567,1232.0,-1980.0,17052.0,-158.0,-458.0,-253.0,-0.24807314277714748,0.4850534351205323,-0.012923956527206215,-0.8384604058976926
-3008.013862848282,1180.0,-1912.0,17180.0,-102.0,-336.0,-191.0,-0.257998410812736,0.46241225670298913,0.009930122329042503,-0.8482411906642365
-3008.0295054912567,1380.0,-1828.0,16948.0,-249.0,-10.0,-134.0,-0.2578278213616754,0.4668206972242236,0.03401563070415898,-0.8452491869518598
-3008.0450921058655,1316.0,-1744.0,16428.0,14.0,-397.0,-107.0,-0.26498675533482613,0.43641330910405,0.046262446132383825,-0.8585949156685138
-3008.060719013214,1520.0,-1676.0,16076.0,37.0,-474.0,-28.0,-0.2663939628216997,0.39936071118032546,0.055483036810429646,-0.8754809601379052
-3008.076306581497,1292.0,-2036.0,16008.0,39.0,-452.0,-243.0,-0.2838918251046707,0.3621405737669887,0.07142386608496411,-0.8849622974025121
-3008.0919184684753,1488.0,-1856.0,15884.0,-46.0,-437.0,96.0,-0.2721335013129497,0.32962563312596477,0.08270953815959489,-0.9002496496788477
-3008.1075088977814,1472.0,-1964.0,16124.0,-134.0,-393.0,183.0,-0.2509087513484481,0.3027564734316645,0.09722724367929649,-0.9142921739676608
-3008.1231005191803,1472.0,-2020.0,16552.0,-108.0,-347.0,279.0,-0.22270909490226756,0.27931225137107174,0.10596931351917982,-0.9279848220063246
-3008.138696670532,1440.0,-2012.0,16784.0,-105.0,-296.0,321.0,-0.19130352660556238,0.2598794557419284,0.11228555441634196,-0.9398178458940692
-3008.154316663742,1476.0,-2036.0,17044.0,-44.0,-183.0,191.0,-0.172833150394532,0.24713460401994472,0.11454695892338462,-0.9465369426609882
-3008.1699965000153,1600.0,-1828.0,17032.0,-11.0,-118.0,33.0,-0.16871319224450715,0.23759386196833446,0.11646830724353814,-0.9494841488542423
-3008.185574531555,1572.0,-1660.0,16852.0,70.0,35.0,-162.0,-0.18395479822324998,0.2375126374499939,0.1134402479662876,-0.947037322075291
-3008.201177597046,1312.0,-1564.0,16424.0,179.0,99.0,-324.0,-0.2153380304010033,0.23920506171946043,0.10365533432109336,-0.9410983172748681
-3008.216789960861,1328.0,-1552.0,16136.0,132.0,68.0,-465.0,-0.2567047822905021,0.23760893113129344,0.10110445013674625,-0.9313552172819864
-3008.232390165329,1464.0,-1548.0,16084.0,98.0,-92.0,-517.0,-0.2996622019412247,0.22284959267515123,0.10576397204974006,-0.9216043652178072
-3008.2479758262634,1404.0,-1952.0,15888.0,-16.0,-251.0,-559.0,-0.3415501952237987,0.19734921346140286,0.1242728251084054,-0.9104685700387062
-3008.2635927200317,1412.0,-2124.0,16240.0,-91.0,-301.0,-616.0,-0.3850098578217242,0.16886722755359027,0.15074963864547664,-0.8947210823975917
-3008.279168367386,1616.0,-2176.0,16264.0,-134.0,-297.0,-269.0,-0.399908237687155,0.1462610002467678,0.1749370068049432,-0.8877376667050328
-3008.294793844223,1588.0,-2124.0,16388.0,-153.0,-277.0,-465.0,-0.42928396169042093,0.12263730760856183,0.20200337522422512,-0.8717052296596145
-3008.3104186058044,1684.0,-2276.0,16488.0,-121.0,-168.0,-350.0,-0.45142073215751993,0.10792867997289815,0.22092147896209488,-0.8577671145193648
-3008.32599568367,1800.0,-1872.0,16816.0,-85.0,-112.0,-367.0,-0.47570629668431247,0.09556951944166271,0.23480098076309536,-0.8422817139658649
-3008.3415818214417,1972.0,-1876.0,16940.0,-3.0,96.0,-350.0,-0.5031779227107338,0.09535892853847334,0.2336097268861728,-0.8265259514066531
-3008.3572227954865,1824.0,-1900.0,16992.0,27.0,233.0,-413.0,-0.5375362467906962,0.10230733137579756,0.22444068077164675,-0.8063587130723487
-3008.372862100601,1696.0,-1924.0,16508.0,87.0,258.0,-500.0,-0.5778943091418216,0.10628288919128583,0.21018978948329772,-0.7813849034397944
-3008.3884625434875,1672.0,-1848.0,16236.0,163.0,150.0,-527.0,-0.6173811210989492,0.09831226449800701,0.1959299010885855,-0.7555042844480073
-3008.404078245163,1684.0,-1908.0,15976.0,136.0,22.0,-451.0,-0.6481642102994848,0.08445673519264986,0.189261903967236,-0.7327551760814389
-3008.419680118561,1688.0,-2024.0,16116.0,138.0,-170.0,-351.0,-0.6684341196249476,0.05976030750960142,0.1922761589170172,-0.715998891116248
-3008.435284614563,1680.0,-2056.0,16040.0,0.0,-507.0,-243.0,-0.6743508113881724,0.023838882721884627,0.2225850468952161,-0.7036608471055784
-3008.4509148597717,1748.0,-1984.0,16212.0,-43.0,-248.0,-162.0,-0.6792123402641324,0.007947298092068115,0.2397882892069422,-0.6936202229211343
-3008.4665076732635,1816.0,-2024.0,16152.0,-84.0,-192.0,-178.0,-0.6857671806794193,-0.0024290185926036994,0.2560182276946384,-0.6813017986617779
-3008.4821338653564,1772.0,-1772.0,16564.0,-70.0,-127.0,-246.0,-0.6974111019953466,-0.011280444252647733,0.26736475977807067,-0.6648357628917939
-3008.4977123737335,1544.0,-1560.0,16532.0,34.0,-57.0,-393.0,-0.7184728333612816,-0.025794584890075748,0.26803395526831736,-0.641318349913194
-3008.513354063034,1708.0,-1968.0,16416.0,45.0,-33.0,-417.0,-0.7404954656813098,-0.04014013413910091,0.2661922076295615,-0.615789690993618
-3008.528928756714,1696.0,-2120.0,16444.0,72.0,252.0,-352.0,-0.7645036866331009,-0.03931700487422251,0.2443544309261424,-0.5952135737186098
-3008.5445244312286,1560.0,-2288.0,16180.0,15.0,-15.0,-149.0,-0.7718533104154229,-0.04416449812406258,0.24377723736250226,-0.5855464309942541
-3008.5601382255554,1576.0,-2432.0,16464.0,69.0,-40.0,-241.0,-0.7829074130764905,-0.05585152383172265,0.2416962275828183,-0.5705431827721602
-3008.575761795044,1544.0,-2220.0,16436.0,124.0,-13.0,219.0,-0.7709835262679573,-0.060208442129926605,0.23716329832981925,-0.5879735671312398
-3008.5913496017456,1564.0,-2276.0,16252.0,127.0,-15.0,286.0,-0.7550905301875247,-0.06344092468073685,0.2328184741749755,-0.6095974888232496
